COL1	TIME	ACC_X	ACC_Y	ACC_Z	GYR_X	GYR_Y	GYR_Z	MAG_X	MAG_Y	MAG_Z	LACC_X	LACC_Y	LACC_Z	QUAT_X	QUAT_Y	QUAT_Z	QUAT_W
1 0.00 0 0.661 -9.529 2.806 -0.275 -1.129 1.434 -434.867 -869.883 -2714.881 -0.126 0.142 -0.044 -0.07 0.59 -0.8 0.05
1 0.01 1 0.656 -9.472 2.844 -0.153 0.153 1.587 -434.867 -869.883 -2714.881 -0.121 0.085 -0.081 -0.07 0.59 -0.8 0.05
1 0.02 2 0.656 -9.477 2.945 0.061 -0.427 1.862 -614.899 -794.932 -2714.881 -0.121 0.090 -0.181 -0.07 0.59 -0.8 0.05
1 0.03 3 0.670 -9.453 2.835 2.014 0.031 0.488 -464.997 -839.903 -2759.852 -0.133 0.066 -0.070 -0.07 0.59 -0.8 0.05
1 0.04 4 0.594 -9.199 2.998 1.556 -0.214 1.160 -614.899 -869.883 -2819.963 -0.056 -0.186 -0.229 -0.07 0.59 -0.8 0.05
1 0.05 5 0.632 -9.314 2.902 1.007 -0.153 0.732 -449.857 -1004.945 -2804.973 -0.095 -0.070 -0.129 -0.07 0.59 -0.8 0.05
1 0.06 6 0.599 -9.386 2.978 -2.167 -0.427 1.068 -449.857 -1004.945 -2804.973 -0.061 0.002 -0.205 -0.07 0.59 -0.8 0.05
1 0.07 7 0.551 -9.477 3.065 -4.242 -0.854 0.885 -494.978 -854.893 -2804.973 -0.013 0.092 -0.294 -0.07 0.59 -0.8 0.05
1 0.08 8 0.522 -9.544 2.897 -2.411 0.305 0.763 -494.978 -854.893 -2804.973 0.016 0.158 -0.130 -0.07 0.59 -0.8 0.05
1 0.09 9 0.488 -9.553 2.921 -0.214 -0.153 0.946 -344.925 -809.922 -2804.973 0.050 0.166 -0.157 -0.07 0.59 -0.8 0.05
1 0.10 10 0.450 -9.467 3.022 1.709 -0.946 0.397 -449.857 -734.971 -2729.872 0.087 0.081 -0.256 -0.07 0.59 -0.8 0.05
1 0.11 11 0.488 -9.386 2.859 1.831 -1.038 0.671 -449.857 -854.893 -2774.992 0.049 0.001 -0.089 -0.07 0.59 -0.8 0.05
1 0.12 12 0.637 -9.395 2.825 0.244 -1.007 1.312 -614.899 -839.903 -2684.901 -0.099 0.011 -0.054 -0.07 0.59 -0.8 0.05
1 0.13 13 0.670 -9.266 2.974 -0.732 -0.854 0.854 -614.899 -839.903 -2684.901 -0.132 -0.118 -0.202 -0.07 0.59 -0.8 0.05
1 0.14 14 0.608 -9.481 2.969 -1.953 -0.824 1.251 -539.948 -914.854 -2789.982 -0.070 0.097 -0.196 -0.07 0.59 -0.8 0.05
1 0.15 15 0.464 -9.505 2.921 -1.404 -0.641 1.190 -539.948 -914.854 -2789.982 0.074 0.121 -0.150 -0.07 0.59 -0.8 0.05
1 0.16 16 0.555 -9.491 3.002 -0.793 -0.336 1.312 -494.978 -659.870 -2774.992 -0.018 0.106 -0.232 -0.07 0.59 -0.8 0.05
1 0.17 17 0.484 -9.563 2.998 -0.122 -0.946 0.793 -524.958 -929.994 -2804.973 0.054 0.178 -0.227 -0.07 0.59 -0.8 0.05
1 0.18 18 0.479 -9.572 2.950 -0.336 -1.740 0.854 -464.997 -839.903 -2684.901 0.058 0.188 -0.178 -0.07 0.59 -0.8 0.05
1 0.19 19 0.656 -9.563 2.959 -0.671 -1.617 0.916 -569.929 -854.893 -2729.872 -0.120 0.178 -0.187 -0.07 0.59 -0.8 0.05
1 0.20 20 0.589 -9.395 2.811 -0.305 -1.160 0.824 -569.929 -854.893 -2729.872 -0.053 0.011 -0.038 -0.07 0.59 -0.8 0.05
1 0.21 21 0.522 -9.410 2.955 0.397 -0.366 1.007 -569.929 -809.922 -2804.973 0.015 0.025 -0.181 -0.07 0.59 -0.8 0.05
1 0.22 22 0.517 -9.429 2.950 0.000 -0.671 0.641 -569.929 -809.922 -2804.973 0.019 0.045 -0.176 -0.07 0.59 -0.8 0.05
1 0.23 23 0.589 -9.443 2.907 -0.519 -0.793 0.122 -524.958 -854.893 -2774.992 -0.053 0.060 -0.132 -0.07 0.59 -0.8 0.05
1 0.24 24 0.618 -9.501 2.911 -2.167 -0.885 0.488 -524.958 -809.922 -2879.924 -0.081 0.117 -0.135 -0.07 0.59 -0.8 0.05
1 0.25 25 0.541 -9.467 2.969 -1.068 -0.702 0.427 -434.867 -944.984 -2714.881 -0.003 0.084 -0.193 -0.07 0.59 -0.8 0.05
1 0.26 26 0.527 -9.419 2.916 0.916 0.000 1.312 -539.948 -839.903 -2864.934 0.011 0.036 -0.139 -0.07 0.59 -0.8 0.05
1 0.27 27 0.498 -9.414 2.907 1.129 0.641 0.885 -539.948 -839.903 -2864.934 0.039 0.032 -0.127 -0.07 0.59 -0.8 0.05
1 0.28 28 0.417 -9.395 2.916 -0.061 0.000 1.221 -509.968 -869.883 -2789.982 0.120 0.014 -0.135 -0.07 0.59 -0.8 0.05
1 0.29 29 0.369 -9.472 2.950 -2.014 -0.946 0.793 -509.968 -869.883 -2789.982 0.168 0.091 -0.167 -0.07 0.59 -0.8 0.05
1 0.30 30 0.670 -9.501 2.935 -2.167 -0.519 0.641 -494.978 -779.942 -2729.872 -0.134 0.119 -0.153 -0.07 0.59 -0.8 0.05
1 0.31 31 0.766 -9.400 2.883 -1.923 -0.427 0.336 -344.925 -884.874 -2774.992 -0.231 0.018 -0.102 -0.07 0.59 -0.8 0.05
1 0.32 32 0.584 -9.515 2.911 -0.244 0.305 0.824 -344.925 -884.874 -3059.957 -0.046 0.133 -0.132 -0.07 0.59 -0.8 0.05
1 0.33 33 0.445 -9.414 2.959 0.000 -0.244 0.702 -494.978 -854.893 -2849.943 0.093 0.032 -0.179 -0.07 0.59 -0.8 0.05
1 0.34 34 0.613 -9.596 2.955 0.488 0.153 0.702 -494.978 -854.893 -2849.943 -0.076 0.215 -0.173 -0.07 0.59 -0.8 0.05
1 0.35 35 0.498 -9.433 2.916 -0.275 0.580 0.732 -494.978 -809.922 -2879.924 0.040 0.052 -0.134 -0.07 0.59 -0.8 0.05
1 0.36 36 0.431 -9.462 2.998 -0.793 0.305 0.488 -494.978 -809.922 -2879.924 0.107 0.081 -0.214 -0.07 0.59 -0.8 0.05
1 0.37 37 0.627 -9.438 2.955 -0.366 0.214 0.641 -509.968 -749.961 -2864.934 -0.089 0.057 -0.171 -0.07 0.59 -0.8 0.05
1 0.38 38 0.522 -9.338 2.993 -0.366 0.244 0.397 -464.997 -869.883 -2789.982 0.016 -0.043 -0.208 -0.07 0.59 -0.8 0.05
1 0.39 39 0.498 -9.371 2.911 -1.434 -0.244 0.885 -449.857 -884.874 -2729.872 0.041 -0.009 -0.124 -0.07 0.59 -0.8 0.05
1 0.40 40 0.541 -9.448 2.988 -0.977 0.122 1.038 -374.906 -884.874 -2729.872 -0.003 0.068 -0.201 -0.07 0.59 -0.8 0.05
1 0.41 41 0.503 -9.472 2.892 -0.275 0.427 1.068 -374.906 -884.874 -2729.872 0.036 0.092 -0.104 -0.07 0.59 -0.8 0.05
1 0.42 42 0.474 -9.548 2.969 -0.031 0.061 1.251 -509.968 -839.903 -2894.914 0.064 0.169 -0.180 -0.07 0.59 -0.8 0.05
1 0.43 43 0.503 -9.496 2.998 -0.366 -0.397 0.763 -509.968 -839.903 -2894.914 0.035 0.117 -0.208 -0.07 0.59 -0.8 0.05
1 0.44 44 0.579 -9.424 2.907 -1.587 -0.458 0.732 -524.958 -959.975 -2669.911 -0.042 0.045 -0.116 -0.07 0.59 -0.8 0.05
1 0.45 45 0.589 -9.472 2.897 -0.824 -0.214 0.244 -539.948 -749.961 -2714.881 -0.052 0.093 -0.107 -0.07 0.59 -0.8 0.05
1 0.46 46 0.536 -9.534 2.859 -0.366 0.122 1.190 -539.948 -749.961 -2714.881 0.001 0.155 -0.068 -0.07 0.59 -0.8 0.05
1 0.47 47 0.474 -9.381 3.026 0.366 0.427 1.007 -539.948 -749.961 -2864.934 0.064 0.002 -0.234 -0.07 0.59 -0.8 0.05
1 0.48 48 0.388 -9.405 2.811 0.000 -0.549 1.038 -539.948 -749.961 -2864.934 0.150 0.027 -0.018 -0.07 0.59 -0.8 0.05
1 0.49 49 0.532 -9.457 2.840 -1.556 -0.854 0.244 -524.958 -854.893 -2699.891 0.006 0.079 -0.046 -0.07 0.59 -0.8 0.05
1 0.50 50 0.589 -9.592 2.921 -1.770 -0.336 0.244 -524.958 -854.893 -2699.891 -0.052 0.213 -0.129 -0.07 0.59 -0.8 0.05
1 0.51 51 0.546 -9.587 2.935 -0.671 0.732 1.099 -449.857 -884.874 -2804.973 -0.008 0.208 -0.146 -0.07 0.59 -0.8 0.05
1 0.52 52 0.407 -9.496 2.926 0.122 0.366 2.167 -524.958 -779.942 -2729.872 0.129 0.117 -0.136 -0.07 0.59 -0.8 0.05
1 0.53 53 0.560 -9.472 2.844 0.275 0.092 1.190 -524.958 -779.942 -2729.872 -0.025 0.093 -0.054 -0.07 0.59 -0.8 0.05
1 0.54 54 0.493 -9.496 3.031 0.092 -0.671 1.251 -509.968 -839.903 -2789.982 0.041 0.117 -0.240 -0.07 0.59 -0.8 0.05
1 0.55 55 0.488 -9.510 2.959 -0.916 -0.427 0.977 -509.968 -839.903 -2789.982 0.045 0.131 -0.167 -0.07 0.59 -0.8 0.05
1 0.56 56 0.517 -9.558 2.978 -1.953 0.061 1.587 -584.919 -794.932 -2819.963 0.016 0.179 -0.187 -0.07 0.59 -0.8 0.05
1 0.57 57 0.445 -9.544 2.758 -1.343 0.031 1.373 -584.919 -794.932 -2819.963 0.087 0.164 0.032 -0.07 0.59 -0.8 0.05
1 0.58 58 0.541 -9.410 3.031 -0.793 -0.641 0.702 -614.899 -839.903 -2759.852 -0.011 0.030 -0.242 -0.07 0.59 -0.8 0.05
1 0.59 59 0.613 -9.558 2.816 0.336 -1.251 -0.122 -569.929 -854.893 -2849.943 -0.083 0.179 -0.025 -0.07 0.59 -0.8 0.05
1 0.60 60 0.670 -9.520 2.945 0.458 -0.763 0.824 -569.929 -854.893 -2849.943 -0.141 0.141 -0.154 -0.07 0.59 -0.8 0.05
1 0.61 61 0.651 -9.457 2.969 -0.824 0.305 0.916 -584.919 -674.860 -2819.963 -0.120 0.079 -0.176 -0.07 0.59 -0.8 0.05
1 0.62 62 0.412 -9.505 2.911 -0.977 0.366 0.885 -584.919 -674.860 -2819.963 0.119 0.127 -0.118 -0.07 0.59 -0.8 0.05
1 0.63 63 0.436 -9.467 2.969 -1.953 -0.366 0.977 -419.876 -929.994 -2699.891 0.094 0.088 -0.176 -0.07 0.59 -0.8 0.05
1 0.64 64 0.402 -9.376 2.940 -1.129 -1.160 0.824 -419.876 -929.994 -2699.891 0.127 -0.003 -0.148 -0.07 0.59 -0.8 0.05
1 0.65 65 0.560 -9.467 2.897 -0.244 -0.549 0.916 -449.857 -884.874 -2699.891 -0.032 0.088 -0.104 -0.07 0.59 -0.8 0.05
1 0.66 66 0.503 -9.501 2.931 -0.366 0.366 1.373 -569.929 -884.874 -2729.872 0.025 0.122 -0.137 -0.07 0.59 -0.8 0.05
1 0.67 67 0.488 -9.510 2.859 -1.373 -0.977 0.916 -569.929 -884.874 -2729.872 0.039 0.132 -0.064 -0.07 0.59 -0.8 0.05
1 0.68 68 0.464 -9.630 2.926 -1.678 -1.343 1.404 -419.876 -854.893 -2729.872 0.062 0.251 -0.133 -0.07 0.59 -0.8 0.05
1 0.69 69 0.421 -9.520 3.046 -0.244 -0.397 0.519 -419.876 -854.893 -2729.872 0.105 0.140 -0.255 -0.07 0.59 -0.8 0.05
1 0.70 70 0.584 -9.553 2.873 1.282 -0.519 0.610 -509.968 -719.981 -2714.881 -0.058 0.174 -0.081 -0.07 0.59 -0.8 0.05
1 0.71 71 0.522 -9.486 2.888 1.495 -0.397 0.671 -509.968 -719.981 -2714.881 0.004 0.108 -0.093 -0.07 0.59 -0.8 0.05
1 0.72 72 0.536 -9.438 2.945 1.434 -0.824 0.519 -464.997 -869.883 -2789.982 -0.009 0.061 -0.147 -0.07 0.59 -0.8 0.05
1 0.73 73 0.527 -9.371 2.974 1.434 -0.763 1.190 -449.857 -809.922 -2729.872 0.001 -0.005 -0.173 -0.07 0.59 -0.8 0.05
1 0.74 74 0.402 -9.352 2.931 0.214 -0.824 1.434 -449.857 -809.922 -2729.872 0.124 -0.023 -0.127 -0.07 0.59 -0.8 0.05
1 0.75 75 0.517 -9.338 2.988 -1.129 -0.854 1.282 -419.876 -779.942 -2879.924 0.009 -0.037 -0.183 -0.07 0.59 -0.8 0.05
1 0.76 76 0.474 -9.395 3.031 -1.831 -1.892 1.556 -494.978 -704.991 -2954.875 0.051 0.020 -0.226 -0.07 0.59 -0.8 0.05
1 0.77 77 0.445 -9.429 2.964 -1.312 -2.625 1.526 -569.929 -809.922 -2849.943 0.079 0.053 -0.160 -0.07 0.59 -0.8 0.05
1 0.78 78 0.498 -9.438 2.950 -1.404 -1.190 1.465 -569.929 -809.922 -2849.943 0.025 0.062 -0.146 -0.07 0.59 -0.8 0.05
1 0.79 79 0.460 -9.520 3.065 -1.953 -0.946 1.801 -524.958 -929.994 -2699.891 0.062 0.144 -0.262 -0.07 0.59 -0.8 0.05
1 0.80 80 0.436 -9.481 2.945 -3.571 -0.488 1.770 -434.867 -869.883 -2759.852 0.084 0.104 -0.145 -0.07 0.59 -0.8 0.05
1 0.81 81 0.412 -9.682 2.955 -3.174 0.488 2.228 -434.867 -869.883 -2759.852 0.106 0.305 -0.157 -0.07 0.59 -0.8 0.05
1 0.82 82 0.517 -9.606 2.897 -2.167 0.580 2.594 -539.948 -944.984 -2819.963 -0.002 0.227 -0.103 -0.07 0.59 -0.8 0.05
1 0.83 83 0.431 -9.505 2.978 -1.343 0.031 1.984 -494.978 -779.942 -2729.872 0.078 0.124 -0.189 -0.07 0.59 -0.8 0.05
1 0.84 84 0.450 -9.592 2.921 0.824 0.885 1.526 -299.955 -809.922 -2699.891 0.057 0.210 -0.132 -0.07 0.59 -0.8 0.05
1 0.85 85 0.479 -9.520 2.940 2.045 2.014 1.404 -299.955 -809.922 -2699.891 0.026 0.139 -0.149 -0.07 0.59 -0.8 0.05
1 0.86 86 0.316 -9.376 2.988 3.662 1.190 0.977 -584.919 -839.903 -2789.982 0.187 -0.003 -0.192 -0.07 0.59 -0.8 0.05
1 0.87 87 0.364 -9.386 2.892 4.608 1.129 -0.336 -509.968 -839.903 -2759.852 0.137 0.008 -0.090 -0.07 0.59 -0.8 0.05
1 0.88 88 0.460 -9.309 2.964 1.312 0.183 -0.580 -509.968 -839.903 -2759.852 0.040 -0.066 -0.154 -0.07 0.59 -0.8 0.05
1 0.89 89 0.460 -9.524 2.897 -0.549 0.702 -0.458 -374.906 -809.922 -2774.992 0.042 0.151 -0.083 -0.07 0.59 -0.8 0.05
1 0.90 90 0.484 -9.577 3.046 -0.610 1.770 0.732 -464.997 -914.854 -2819.963 0.019 0.204 -0.231 -0.07 0.59 -0.8 0.05
1 0.91 91 0.330 -9.615 3.108 0.793 1.190 0.580 -419.876 -809.922 -2729.872 0.169 0.242 -0.291 -0.07 0.59 -0.8 0.05
1 0.92 92 0.378 -9.620 2.959 2.319 -0.092 0.763 -419.876 -809.922 -2729.872 0.120 0.248 -0.139 -0.07 0.59 -0.8 0.05
1 0.93 93 0.460 -9.438 2.993 2.319 0.275 0.977 -464.997 -869.883 -2864.934 0.037 0.067 -0.169 -0.07 0.59 -0.8 0.05
1 0.94 94 0.431 -9.347 2.849 2.777 -0.061 1.221 -419.876 -929.994 -2699.891 0.065 -0.022 -0.021 -0.07 0.59 -0.8 0.05
1 0.95 95 0.536 -9.467 2.902 1.404 0.458 1.190 -419.876 -929.994 -2699.891 -0.042 0.098 -0.069 -0.07 0.59 -0.8 0.05
1 0.96 96 0.666 -9.596 2.974 1.068 -0.061 0.549 -464.997 -944.984 -2864.934 -0.173 0.229 -0.138 -0.07 0.59 -0.8 0.05
1 0.97 97 0.517 -9.467 2.878 0.916 -0.732 -0.092 -389.896 -719.981 -2759.852 -0.024 0.100 -0.041 -0.07 0.59 -0.8 0.05
1 0.98 98 0.536 -9.424 2.978 3.265 0.366 -0.214 -299.955 -854.893 -2729.872 -0.041 0.058 -0.137 -0.07 0.59 -0.8 0.05
1 0.99 99 0.503 -9.352 2.964 5.005 -0.031 0.488 -299.955 -854.893 -2729.872 -0.006 -0.012 -0.117 -0.07 0.59 -0.8 0.05
1 1.00 100 0.479 -9.338 2.959 4.059 -0.732 0.366 -389.896 -794.932 -2714.881 0.019 -0.024 -0.104 -0.07 0.59 -0.8 0.05
1 1.01 101 0.464 -9.338 2.940 1.923 -1.770 0.641 -494.978 -854.893 -2729.872 0.035 -0.022 -0.079 -0.07 0.59 -0.8 0.05
1 1.02 102 0.488 -9.299 2.873 -0.275 -2.075 1.038 -494.978 -854.893 -2729.872 0.012 -0.059 -0.009 -0.07 0.59 -0.8 0.05
1 1.03 103 0.565 -9.443 2.978 -0.824 -1.526 1.099 -434.867 -869.883 -2819.963 -0.064 0.084 -0.115 -0.07 0.59 -0.8 0.05
1 1.04 104 0.488 -9.611 2.998 -0.336 -1.587 1.465 -509.968 -719.981 -2789.982 0.013 0.252 -0.134 -0.07 0.59 -0.8 0.05
1 1.05 105 0.680 -9.338 3.050 1.129 -2.167 1.007 -419.876 -779.942 -2729.872 -0.178 -0.021 -0.185 -0.07 0.59 -0.8 0.05
1 1.06 106 0.623 -9.376 3.026 1.251 -2.411 0.702 -419.876 -779.942 -2729.872 -0.119 0.019 -0.159 -0.07 0.59 -0.8 0.05
1 1.07 107 0.666 -9.309 3.026 0.092 -2.441 0.275 -359.916 -794.932 -2864.934 -0.161 -0.048 -0.156 -0.07 0.59 -0.8 0.05
1 1.08 108 0.613 -9.343 3.031 -0.763 -2.197 0.824 -539.948 -749.961 -2819.963 -0.106 -0.014 -0.160 -0.07 0.59 -0.8 0.05
1 1.09 109 0.589 -9.448 2.974 -2.960 -2.289 0.702 -539.948 -749.961 -2819.963 -0.081 0.091 -0.103 -0.07 0.59 -0.8 0.05
1 1.10 110 0.565 -9.582 3.041 -3.387 -1.404 0.732 -509.968 -869.883 -2789.982 -0.056 0.225 -0.173 -0.07 0.59 -0.8 0.05
1 1.11 111 0.661 -9.582 2.969 -3.204 -2.258 1.099 -449.857 -854.893 -2669.911 -0.150 0.224 -0.105 -0.07 0.59 -0.8 0.05
1 1.12 112 0.570 -9.539 3.065 0.092 -1.862 0.793 -434.867 -839.903 -2759.852 -0.057 0.179 -0.208 -0.07 0.59 -0.8 0.05
1 1.13 113 0.642 -9.529 2.950 0.763 -1.556 1.190 -434.867 -839.903 -2759.852 -0.128 0.169 -0.092 -0.07 0.59 -0.8 0.05
1 1.14 114 0.661 -9.448 3.055 0.763 -1.190 1.373 -464.997 -749.961 -2759.852 -0.146 0.089 -0.195 -0.07 0.59 -0.8 0.05
1 1.15 115 0.594 -9.304 3.026 -0.916 -1.648 1.251 -449.857 -779.942 -2729.872 -0.078 -0.055 -0.165 -0.07 0.59 -0.8 0.05
1 1.16 116 0.541 -9.410 3.084 -2.991 -1.312 1.190 -449.857 -779.942 -2729.872 -0.025 0.051 -0.223 -0.07 0.59 -0.8 0.05
1 1.17 117 0.608 -9.381 3.007 -3.693 -1.556 0.854 -449.857 -884.874 -2729.872 -0.093 0.021 -0.149 -0.07 0.59 -0.8 0.05
1 1.18 118 0.623 -9.467 2.864 -2.808 -1.678 1.007 -494.978 -854.893 -2729.872 -0.106 0.106 -0.009 -0.07 0.59 -0.8 0.05
1 1.19 119 0.575 -9.539 2.945 -1.587 -1.038 0.549 -494.978 -854.893 -2729.872 -0.057 0.177 -0.093 -0.07 0.59 -0.8 0.05
1 1.20 120 0.599 -9.366 2.907 -1.099 0.092 1.221 -299.955 -734.971 -2774.992 -0.080 0.004 -0.059 -0.07 0.59 -0.8 0.05
1 1.21 121 0.618 -9.572 2.945 -1.068 0.427 1.038 -419.876 -884.874 -2909.904 -0.098 0.210 -0.098 -0.07 0.59 -0.8 0.05
1 1.22 122 0.493 -9.563 2.969 -0.122 -0.122 0.549 -464.997 -914.854 -2819.963 0.027 0.200 -0.122 -0.07 0.59 -0.8 0.05
1 1.23 123 0.623 -9.438 3.007 -0.427 0.183 0.916 -464.997 -914.854 -2819.963 -0.102 0.076 -0.159 -0.07 0.59 -0.8 0.05
1 1.24 124 0.421 -9.481 2.926 -1.343 0.610 1.251 -509.968 -839.903 -2864.934 0.100 0.119 -0.077 -0.07 0.59 -0.8 0.05
1 1.25 125 0.474 -9.433 3.046 -1.587 0.305 0.458 -419.876 -959.975 -2804.973 0.046 0.071 -0.198 -0.07 0.59 -0.8 0.05
1 1.26 126 0.493 -9.419 3.007 -1.556 0.183 0.305 -419.876 -959.975 -2804.973 0.027 0.056 -0.161 -0.07 0.59 -0.8 0.05
1 1.27 127 0.532 -9.347 2.983 -0.488 0.061 0.275 -509.968 -914.854 -2789.982 -0.010 -0.016 -0.137 -0.07 0.59 -0.8 0.05
1 1.28 128 0.618 -9.467 2.964 -1.251 0.793 0.031 -509.968 -749.961 -2684.901 -0.096 0.104 -0.117 -0.07 0.59 -0.8 0.05
1 1.29 129 0.512 -9.410 2.988 -2.350 0.275 0.336 -434.867 -1064.906 -2789.982 0.010 0.046 -0.142 -0.07 0.59 -0.8 0.05
1 1.30 130 0.527 -9.501 3.012 -1.892 0.549 0.916 -434.867 -1064.906 -2789.982 -0.004 0.137 -0.168 -0.07 0.59 -0.8 0.05
1 1.31 131 0.493 -9.410 2.998 -1.343 0.031 0.305 -464.997 -944.984 -2819.963 0.030 0.045 -0.156 -0.07 0.59 -0.8 0.05
1 1.32 132 0.469 -9.630 3.127 -0.427 0.336 0.580 -389.896 -839.903 -2789.982 0.053 0.266 -0.285 -0.07 0.59 -0.8 0.05
1 1.33 133 0.555 -9.457 3.007 -0.275 1.129 1.556 -389.896 -839.903 -2789.982 -0.033 0.094 -0.164 -0.07 0.59 -0.8 0.05
1 1.34 134 0.498 -9.601 2.988 -1.984 0.549 1.282 -584.919 -914.854 -2789.982 0.023 0.238 -0.143 -0.07 0.59 -0.8 0.05
1 1.35 135 0.555 -9.467 2.892 -1.617 0.305 1.038 -329.935 -794.932 -2789.982 -0.037 0.103 -0.049 -0.07 0.59 -0.8 0.05
1 1.36 136 0.555 -9.429 2.854 -1.160 -0.610 1.373 -374.906 -854.893 -2909.904 -0.037 0.064 -0.012 -0.07 0.59 -0.8 0.05
1 1.37 137 0.493 -9.266 2.892 -0.214 -0.122 0.946 -374.906 -854.893 -2909.904 0.025 -0.098 -0.050 -0.07 0.59 -0.8 0.05
1 1.38 138 0.488 -9.424 3.026 -0.641 -0.580 0.732 -584.919 -869.883 -2759.852 0.029 0.060 -0.183 -0.07 0.59 -0.8 0.05
1 1.39 139 0.412 -9.347 2.931 -1.129 -1.038 0.519 -359.916 -869.883 -2939.885 0.106 -0.016 -0.086 -0.07 0.59 -0.8 0.05
1 1.40 140 0.469 -9.448 2.950 -1.190 -0.641 0.580 -359.916 -869.883 -2939.885 0.047 0.084 -0.105 -0.07 0.59 -0.8 0.05
1 1.41 141 0.522 -9.457 2.955 -1.862 -0.671 0.763 -449.857 -809.922 -2729.872 -0.006 0.094 -0.109 -0.07 0.59 -0.8 0.05
1 1.42 142 0.469 -9.501 2.969 -2.472 -1.221 1.587 -494.978 -734.971 -2774.992 0.045 0.136 -0.128 -0.07 0.59 -0.8 0.05
1 1.43 143 0.460 -9.596 3.002 -2.472 -1.160 1.007 -374.906 -779.942 -2729.872 0.054 0.230 -0.164 -0.07 0.59 -0.8 0.05
1 1.44 144 0.584 -9.601 2.988 -0.641 -1.373 0.549 -374.906 -779.942 -2729.872 -0.071 0.235 -0.152 -0.07 0.59 -0.8 0.05
1 1.45 145 0.613 -9.390 2.945 0.671 -1.160 0.702 -509.968 -839.903 -2819.963 -0.098 0.024 -0.108 -0.07 0.59 -0.8 0.05
1 1.46 146 0.474 -9.496 3.137 0.671 -0.732 0.916 -464.997 -794.932 -2894.914 0.041 0.130 -0.299 -0.07 0.59 -0.8 0.05
1 1.47 147 0.388 -9.400 2.964 -0.458 -1.617 1.404 -464.997 -794.932 -2894.914 0.127 0.034 -0.126 -0.07 0.59 -0.8 0.05
1 1.48 148 0.417 -9.410 2.902 -0.702 -1.556 0.946 -374.906 -854.893 -2669.911 0.098 0.044 -0.062 -0.07 0.59 -0.8 0.05
1 1.49 149 0.364 -9.328 3.046 -0.336 -1.953 0.732 -374.906 -809.922 -2804.973 0.150 -0.037 -0.205 -0.07 0.59 -0.8 0.05
1 1.50 150 0.388 -9.343 3.046 -0.153 -2.075 1.648 -374.906 -854.893 -2699.891 0.126 -0.022 -0.203 -0.07 0.59 -0.8 0.05
1 1.51 151 0.412 -9.443 2.964 -1.190 -1.923 1.648 -374.906 -854.893 -2699.891 0.100 0.079 -0.121 -0.07 0.59 -0.8 0.05
1 1.52 152 0.546 -9.271 2.988 -2.228 -1.709 1.617 -299.955 -779.942 -2849.943 -0.035 -0.094 -0.145 -0.07 0.59 -0.8 0.05
1 1.53 153 0.436 -9.314 2.964 -1.526 -1.862 1.984 -524.958 -929.994 -2849.943 0.075 -0.051 -0.123 -0.07 0.59 -0.8 0.05
1 1.54 154 0.579 -9.381 2.945 -3.174 -2.502 1.099 -524.958 -929.994 -2849.943 -0.071 0.015 -0.105 -0.07 0.59 -0.8 0.05
1 1.55 155 0.517 -9.520 2.950 -3.174 -2.747 1.495 -629.890 -809.922 -2699.891 -0.008 0.153 -0.114 -0.07 0.59 -0.8 0.05
1 1.56 156 0.646 -9.615 3.117 -3.143 -2.258 1.434 -539.948 -914.854 -2864.934 -0.137 0.246 -0.290 -0.07 0.59 -0.8 0.05
1 1.57 157 0.603 -9.558 3.050 -2.777 -1.862 1.160 -449.857 -809.922 -2699.891 -0.093 0.188 -0.226 -0.07 0.59 -0.8 0.05
1 1.58 158 0.627 -9.433 2.964 0.092 -1.007 1.099 -449.857 -809.922 -2699.891 -0.116 0.063 -0.141 -0.07 0.59 -0.8 0.05
1 1.59 159 0.589 -9.563 2.993 0.305 -1.282 1.373 -539.948 -794.932 -2864.934 -0.077 0.192 -0.169 -0.07 0.59 -0.8 0.05
1 1.60 160 0.441 -9.539 2.983 -0.061 -1.709 0.610 -419.876 -884.874 -2729.872 0.072 0.169 -0.159 -0.07 0.59 -0.8 0.05
1 1.61 161 0.560 -9.453 2.888 -0.763 -1.251 1.282 -419.876 -884.874 -2729.872 -0.048 0.083 -0.063 -0.07 0.59 -0.8 0.05
1 1.62 162 0.651 -9.343 2.983 -0.732 -0.824 0.732 -449.857 -854.893 -2699.891 -0.139 -0.027 -0.158 -0.07 0.59 -0.8 0.05
1 1.63 163 0.546 -9.419 2.945 -0.061 0.305 1.434 -449.857 -854.893 -2699.891 -0.033 0.049 -0.119 -0.07 0.59 -0.8 0.05
1 1.64 164 0.656 -9.491 3.046 0.366 0.000 0.946 -374.906 -884.874 -2699.891 -0.143 0.122 -0.218 -0.07 0.59 -0.8 0.05
1 1.65 165 0.527 -9.410 2.935 0.671 -1.007 0.610 -374.906 -884.874 -2699.891 -0.013 0.041 -0.106 -0.07 0.59 -0.8 0.05
1 1.66 166 0.627 -9.539 2.993 -0.732 -0.732 0.153 -584.919 -869.883 -2759.852 -0.114 0.170 -0.163 -0.07 0.59 -0.8 0.05
1 1.67 167 0.675 -9.467 2.983 -1.434 -0.122 0.519 -374.906 -779.942 -2774.992 -0.161 0.099 -0.154 -0.07 0.59 -0.8 0.05
1 1.68 168 0.565 -9.414 2.849 -1.160 0.488 1.068 -374.906 -779.942 -2774.992 -0.050 0.046 -0.021 -0.07 0.59 -0.8 0.05
1 1.69 169 0.532 -9.457 2.950 -0.488 0.214 0.793 -419.876 -854.893 -2804.973 -0.016 0.088 -0.122 -0.07 0.59 -0.8 0.05
1 1.70 170 0.311 -9.496 2.964 -0.122 -0.031 1.434 -419.876 -854.893 -2804.973 0.204 0.127 -0.136 -0.07 0.59 -0.8 0.05
1 1.71 171 0.498 -9.462 3.036 -0.214 0.061 0.824 -434.867 -794.932 -2864.934 0.016 0.094 -0.207 -0.07 0.59 -0.8 0.05
1 1.72 172 0.450 -9.357 3.041 0.366 0.397 0.977 -434.867 -794.932 -2864.934 0.063 -0.012 -0.211 -0.07 0.59 -0.8 0.05
1 1.73 173 0.469 -9.410 2.988 1.038 1.099 0.824 -629.890 -779.942 -2954.875 0.044 0.042 -0.156 -0.07 0.59 -0.8 0.05
1 1.74 174 0.445 -9.357 3.002 0.793 0.183 1.862 -434.867 -749.961 -2789.982 0.067 -0.010 -0.168 -0.07 0.59 -0.8 0.05
1 1.75 175 0.388 -9.304 2.988 -0.488 0.671 1.251 -434.867 -749.961 -2789.982 0.123 -0.062 -0.152 -0.07 0.59 -0.8 0.05
1 1.76 176 0.407 -9.323 3.151 -1.862 -0.214 0.671 -539.948 -749.961 -2759.852 0.103 -0.043 -0.314 -0.07 0.59 -0.8 0.05
1 1.77 177 0.474 -9.481 3.017 -1.953 -0.488 0.610 -539.948 -749.961 -2759.852 0.035 0.115 -0.180 -0.07 0.59 -0.8 0.05
1 1.78 178 0.479 -9.596 2.902 -2.563 -0.366 1.068 -584.919 -914.854 -2894.914 0.030 0.229 -0.066 -0.07 0.59 -0.8 0.05
1 1.79 179 0.426 -9.587 3.093 -1.099 -0.702 0.763 -419.876 -884.874 -2879.924 0.080 0.218 -0.262 -0.07 0.59 -0.8 0.05
1 1.80 180 0.354 -9.515 3.074 0.488 0.092 1.526 -509.968 -794.932 -2969.865 0.151 0.147 -0.242 -0.07 0.59 -0.8 0.05
1 1.81 181 0.354 -9.453 3.017 1.038 -0.092 1.617 -599.909 -809.922 -2849.943 0.150 0.085 -0.182 -0.07 0.59 -0.8 0.05
1 1.82 182 0.498 -9.539 2.945 0.305 -0.427 1.404 -599.909 -809.922 -2849.943 0.005 0.172 -0.108 -0.07 0.59 -0.8 0.05
1 1.83 183 0.488 -9.563 3.069 -0.824 -0.519 1.831 -419.876 -809.922 -2879.924 0.014 0.196 -0.232 -0.07 0.59 -0.8 0.05
1 1.84 184 0.436 -9.582 3.074 0.061 -0.397 2.014 -419.876 -809.922 -2879.924 0.066 0.215 -0.236 -0.07 0.59 -0.8 0.05
1 1.85 185 0.431 -9.453 3.007 1.434 -0.458 1.831 -614.899 -869.883 -2864.934 0.070 0.087 -0.168 -0.07 0.59 -0.8 0.05
1 1.86 186 0.421 -9.371 2.955 1.007 -0.397 1.984 -494.978 -929.994 -2849.943 0.076 0.007 -0.109 -0.07 0.59 -0.8 0.05
1 1.87 187 0.359 -9.357 3.146 0.153 -0.641 2.960 -359.916 -869.883 -2894.914 0.135 -0.007 -0.298 -0.07 0.59 -0.8 0.05
1 1.88 188 0.402 -9.467 3.046 -0.580 0.031 2.838 -494.978 -779.942 -2774.992 0.088 0.103 -0.196 -0.07 0.59 -0.8 0.05
1 1.89 189 0.369 -9.529 2.911 -1.434 0.305 3.357 -494.978 -779.942 -2774.992 0.118 0.165 -0.062 -0.07 0.59 -0.8 0.05
1 1.90 190 0.393 -9.649 2.921 -1.862 0.092 3.174 -569.929 -929.994 -2699.891 0.089 0.284 -0.074 -0.07 0.59 -0.8 0.05
1 1.91 191 0.445 -9.510 3.031 -1.770 0.519 4.242 -569.929 -929.994 -2699.891 0.032 0.144 -0.186 -0.07 0.59 -0.8 0.05
1 1.92 192 0.412 -9.572 3.065 -1.373 0.305 4.120 -449.857 -734.971 -2669.911 0.059 0.205 -0.222 -0.07 0.59 -0.8 0.05
1 1.93 193 0.417 -9.563 3.022 -0.946 0.916 4.395 -524.958 -809.922 -2729.872 0.042 0.195 -0.180 -0.07 0.59 -0.8 0.05
1 1.94 194 0.436 -9.462 2.940 -1.190 1.343 3.906 -434.867 -839.903 -2939.885 0.017 0.094 -0.099 -0.07 0.59 -0.8 0.05
1 1.95 195 0.302 -9.390 2.988 -1.007 1.282 3.906 -464.997 -749.961 -2759.852 0.145 0.022 -0.147 -0.07 0.59 -0.8 0.05
1 1.96 196 0.239 -9.376 2.864 -0.763 2.167 4.608 -464.997 -749.961 -2759.852 0.201 0.007 -0.023 -0.07 0.59 -0.8 0.05
1 1.97 197 0.038 -9.477 2.974 -1.160 2.869 4.761 -329.935 -794.932 -2819.963 0.394 0.107 -0.133 -0.07 0.59 -0.8 0.05
1 1.98 198 0.062 -9.323 2.959 -0.763 2.960 4.334 -329.935 -794.932 -2819.963 0.361 -0.046 -0.119 -0.06 0.59 -0.8 0.05
1 1.99 199 0.115 -9.429 2.998 -0.061 3.113 3.448 -434.867 -749.961 -2759.852 0.298 0.058 -0.158 -0.06 0.59 -0.8 0.05
1 2.00 200 0.019 -9.414 2.969 0.702 3.296 3.174 -389.896 -869.883 -2714.881 0.379 0.044 -0.127 -0.06 0.59 -0.8 0.05
1 2.01 201 0.120 -9.386 2.983 0.793 3.082 3.662 -449.857 -929.994 -2879.924 0.270 0.015 -0.139 -0.06 0.59 -0.8 0.05
1 2.02 202 0.014 -9.433 2.940 1.831 2.686 3.204 -509.968 -839.903 -2819.963 0.368 0.064 -0.092 -0.06 0.59 -0.8 0.05
1 2.03 203 0.014 -9.275 2.878 1.068 2.655 2.991 -509.968 -839.903 -2819.963 0.361 -0.093 -0.027 -0.06 0.59 -0.8 0.05
1 2.04 204 0.043 -9.457 2.955 -0.977 3.113 1.953 -419.876 -809.922 -2909.904 0.326 0.089 -0.103 -0.06 0.59 -0.8 0.05
1 2.05 205 -0.125 -9.419 2.825 -3.571 3.143 1.770 -419.876 -809.922 -2909.904 0.488 0.050 0.025 -0.06 0.59 -0.8 0.05
1 2.06 206 0.038 -9.654 2.825 -3.082 4.059 2.045 -359.916 -914.854 -2759.852 0.319 0.283 0.020 -0.06 0.59 -0.8 0.05
1 2.07 207 -0.125 -9.740 2.859 -3.052 3.967 1.831 -419.876 -734.971 -2699.891 0.475 0.367 -0.018 -0.06 0.59 -0.8 0.05
1 2.08 208 -0.239 -9.759 2.816 -0.031 2.747 0.946 -359.916 -719.981 -2714.881 0.576 0.384 0.017 -0.06 0.59 -0.8 0.05
1 2.09 209 -0.335 -9.668 2.691 2.899 2.502 0.610 -389.896 -914.854 -2714.881 0.666 0.292 0.142 -0.06 0.59 -0.8 0.05
1 2.10 210 -0.393 -9.577 2.686 5.127 3.937 0.397 -389.896 -914.854 -2714.881 0.718 0.202 0.150 -0.06 0.59 -0.8 0.05
1 2.11 211 -0.302 -9.462 2.600 4.364 3.174 0.275 -374.906 -779.942 -2804.973 0.621 0.089 0.243 -0.06 0.59 -0.8 0.05
1 2.12 212 -0.148 -9.433 2.701 1.770 2.838 0.336 -374.906 -779.942 -2804.973 0.463 0.062 0.147 -0.06 0.59 -0.8 0.05
1 2.13 213 0.014 -9.539 2.840 0.336 1.892 0.092 -299.955 -779.942 -2669.911 0.295 0.167 0.010 -0.06 0.59 -0.8 0.05
1 2.14 214 0.010 -9.644 2.773 -0.610 2.167 -0.305 -434.867 -944.984 -2789.982 0.296 0.273 0.078 -0.06 0.59 -0.8 0.05
1 2.15 215 0.000 -9.711 2.749 1.038 3.052 0.671 -284.964 -839.903 -2759.852 0.301 0.339 0.099 -0.06 0.59 -0.8 0.05
1 2.16 216 0.010 -9.697 2.720 3.418 4.334 0.519 -389.896 -914.854 -2789.982 0.288 0.325 0.129 -0.06 0.59 -0.8 0.05
1 2.17 217 -0.048 -9.592 2.619 5.707 3.998 1.190 -389.896 -914.854 -2789.982 0.341 0.221 0.235 -0.05 0.59 -0.8 0.05
1 2.18 218 -0.072 -9.544 2.739 6.622 3.357 1.312 -344.925 -959.975 -2804.973 0.360 0.175 0.122 -0.05 0.59 -0.8 0.05
1 2.19 219 -0.211 -9.467 2.801 6.683 4.028 0.580 -344.925 -959.975 -2804.973 0.494 0.101 0.068 -0.05 0.59 -0.8 0.05
1 2.20 220 -0.230 -9.395 2.921 4.456 4.608 0.366 -359.916 -914.854 -2714.881 0.507 0.032 -0.042 -0.05 0.59 -0.8 0.05
1 2.21 221 -0.172 -9.453 2.993 4.303 4.211 -0.336 -389.896 -944.984 -2789.982 0.445 0.091 -0.108 -0.05 0.59 -0.8 0.05
1 2.22 222 -0.091 -9.366 2.940 4.059 3.601 0.061 -449.857 -809.922 -2909.904 0.356 0.009 -0.042 -0.05 0.59 -0.8 0.05
1 2.23 223 -0.182 -9.448 2.844 3.998 3.937 -0.122 -344.925 -929.994 -2804.973 0.444 0.092 0.060 -0.05 0.59 -0.8 0.05
1 2.24 224 -0.278 -9.343 2.935 3.174 4.334 2.136 -344.925 -929.994 -2804.973 0.534 -0.012 -0.026 -0.05 0.59 -0.8 0.05
1 2.25 225 -0.340 -9.242 2.959 0.488 4.883 3.754 -329.935 -869.883 -2864.934 0.587 -0.112 -0.046 -0.05 0.59 -0.8 0.05
1 2.26 226 -0.244 -9.261 3.084 -2.960 5.188 2.747 -329.935 -869.883 -2864.934 0.482 -0.093 -0.171 -0.05 0.59 -0.8 0.05
1 2.27 227 -0.436 -9.352 2.959 -6.928 4.974 5.432 -359.916 -944.984 -2789.982 0.664 -0.003 -0.050 -0.05 0.59 -0.8 0.05
1 2.28 228 -0.407 -9.271 2.993 -10.498 5.157 6.836 -389.896 -839.903 -2789.982 0.624 -0.087 -0.091 -0.05 0.59 -0.8 0.05
1 2.29 229 -0.239 -9.271 2.983 -14.587 5.951 9.522 -389.896 -839.903 -2789.982 0.441 -0.092 -0.094 -0.05 0.59 -0.8 0.05
1 2.30 230 -0.196 -9.395 3.017 -16.266 7.019 12.634 -329.935 -869.883 -2684.901 0.358 0.020 -0.168 -0.05 0.59 -0.8 0.05
1 2.31 231 -0.163 -9.376 2.974 -17.242 7.355 15.961 -329.935 -869.883 -2684.901 0.300 -0.006 -0.147 -0.04 0.59 -0.8 0.05
1 2.32 232 -0.153 -9.386 2.926 -19.867 6.744 18.555 -329.935 -839.903 -2714.881 0.263 -0.004 -0.123 -0.04 0.6 -0.8 0.05
1 2.33 233 -0.129 -9.271 2.806 -23.254 7.263 20.325 -329.935 -839.903 -2714.881 0.209 -0.128 -0.032 -0.04 0.6 -0.8 0.05
1 2.34 234 -0.096 -9.376 2.782 -22.461 5.493 21.759 -299.955 -779.942 -2909.904 0.142 -0.033 -0.040 -0.04 0.6 -0.8 0.05
1 2.35 235 0.010 -9.386 2.868 -18.646 4.944 23.621 -359.916 -719.981 -2714.881 0.003 -0.032 -0.157 -0.04 0.6 -0.8 0.05
1 2.36 236 0.043 -9.419 2.801 -15.991 4.242 25.726 -359.916 -719.981 -2714.881 -0.065 -0.006 -0.117 -0.04 0.6 -0.8 0.05
1 2.37 237 0.024 -9.505 2.964 -18.585 5.951 23.895 -59.961 -674.860 -2714.881 -0.118 0.068 -0.324 -0.04 0.6 -0.79 0.05
1 2.38 238 -0.019 -9.189 2.749 -20.142 2.960 22.980 -59.961 -674.860 -2714.881 -0.110 -0.255 -0.135 -0.03 0.6 -0.79 0.05
1 2.39 239 -0.067 -9.553 2.864 -19.287 1.038 21.057 -224.854 -884.874 -2849.943 -0.094 0.102 -0.277 -0.03 0.61 -0.79 0.06
1 2.40 240 -0.086 -9.659 2.892 -19.959 -1.648 22.125 -224.854 -884.874 -2849.943 -0.104 0.201 -0.332 -0.03 0.61 -0.79 0.06
1 2.41 241 -0.244 -9.788 2.916 -21.851 -2.258 17.761 -224.854 -734.971 -2594.959 0.026 0.323 -0.383 -0.03 0.61 -0.79 0.06
1 2.42 242 -0.201 -10.137 2.428 -21.210 -6.470 17.914 -194.873 -734.971 -2774.992 -0.041 0.665 0.074 -0.03 0.61 -0.79 0.06
1 2.43 243 -0.283 -10.166 2.437 -14.832 -11.292 16.693 -194.873 -734.971 -2774.992 0.017 0.686 0.033 -0.03 0.61 -0.79 0.06
1 2.44 244 0.321 -9.730 2.155 -1.251 -16.754 13.245 -134.912 -839.903 -2534.999 -0.622 0.242 0.280 -0.03 0.61 -0.79 0.06
1 2.45 245 0.594 -9.884 2.059 2.808 -17.273 11.169 -134.912 -839.903 -2534.999 -0.902 0.396 0.375 -0.03 0.61 -0.79 0.06
1 2.46 246 1.025 -9.692 2.078 4.730 -13.397 16.754 -104.932 -869.883 -2609.950 -1.338 0.206 0.361 -0.03 0.61 -0.79 0.06
1 2.47 247 1.044 -9.716 1.901 5.829 -11.444 18.921 -104.932 -869.883 -2609.950 -1.367 0.231 0.542 -0.03 0.61 -0.79 0.06
1 2.48 248 0.948 -9.778 2.030 10.925 -12.360 17.609 -179.883 -869.883 -2714.881 -1.282 0.296 0.421 -0.03 0.61 -0.79 0.07
1 2.49 249 0.876 -9.826 2.241 3.113 -5.371 9.644 -209.863 -749.961 -2714.881 -1.219 0.347 0.223 -0.03 0.61 -0.79 0.07
1 2.50 250 0.953 -9.970 2.016 -6.561 -3.784 4.181 -209.863 -749.961 -2714.881 -1.298 0.492 0.454 -0.03 0.61 -0.79 0.07
1 2.51 251 0.963 -10.310 2.035 -6.805 -4.517 -0.916 -224.854 -779.942 -2699.891 -1.303 0.830 0.425 -0.03 0.61 -0.79 0.07
1 2.52 252 0.924 -10.353 2.241 -2.991 -3.693 -3.845 -59.961 -794.932 -2564.979 -1.238 0.865 0.194 -0.03 0.61 -0.79 0.07
1 2.53 253 0.804 -10.520 2.174 1.831 1.038 -11.322 -254.984 -914.854 -2609.950 -1.097 1.031 0.255 -0.03 0.61 -0.79 0.07
1 2.54 254 0.536 -10.348 1.963 5.371 -0.092 -13.306 -254.984 -914.854 -2609.950 -0.803 0.858 0.465 -0.03 0.61 -0.79 0.06
1 2.55 255 0.532 -10.075 1.801 9.827 -5.341 -14.954 -179.883 -914.854 -2609.950 -0.770 0.585 0.633 -0.03 0.61 -0.79 0.06
1 2.56 256 0.905 -9.659 2.078 12.116 -8.667 -15.289 -164.893 -734.971 -2594.959 -1.112 0.170 0.365 -0.03 0.61 -0.79 0.06
1 2.57 257 0.963 -9.491 2.275 8.148 -4.761 -13.092 -164.893 -734.971 -2594.959 -1.136 0.005 0.182 -0.04 0.61 -0.79 0.06
1 2.58 258 0.977 -9.563 2.275 3.296 -2.411 -12.939 -269.974 -854.893 -2729.872 -1.118 0.080 0.193 -0.04 0.61 -0.79 0.06
1 2.59 259 0.589 -9.548 1.978 1.923 -4.456 -10.407 -269.974 -779.942 -2729.872 -0.674 0.066 0.495 -0.04 0.61 -0.79 0.06
1 2.60 260 0.493 -9.635 1.824 6.592 -6.073 -9.583 -329.935 -719.981 -2639.930 -0.555 0.152 0.649 -0.04 0.61 -0.79 0.06
1 2.61 261 0.599 -9.453 1.810 10.284 -7.690 -8.057 -329.935 -719.981 -2639.930 -0.638 -0.028 0.669 -0.04 0.61 -0.79 0.06
1 2.62 262 0.522 -9.304 1.753 15.198 -6.653 -6.989 -299.955 -704.991 -2624.940 -0.542 -0.174 0.739 -0.04 0.61 -0.79 0.06
1 2.63 263 0.723 -9.314 1.906 18.433 -4.700 -5.920 -254.984 -794.932 -2714.881 -0.726 -0.159 0.605 -0.04 0.61 -0.79 0.05
1 2.64 264 0.781 -9.386 1.882 15.259 -3.937 -4.913 -254.984 -794.932 -2714.881 -0.767 -0.081 0.652 -0.04 0.61 -0.79 0.05
1 2.65 265 0.704 -9.333 1.858 11.505 -4.303 -4.822 -209.863 -839.903 -2864.934 -0.676 -0.129 0.695 -0.04 0.61 -0.79 0.05
1 2.66 266 0.819 -9.228 1.805 9.216 -4.822 -3.296 -329.935 -989.955 -2789.982 -0.762 -0.228 0.770 -0.04 0.61 -0.79 0.05
1 2.67 267 0.828 -9.486 1.767 9.033 -3.876 -2.014 -299.955 -779.942 -2774.992 -0.759 0.033 0.816 -0.04 0.61 -0.79 0.05
1 2.68 268 0.872 -9.295 1.710 8.911 -1.556 -1.373 -299.955 -779.942 -2774.992 -0.792 -0.156 0.881 -0.05 0.6 -0.79 0.05
1 2.69 269 0.752 -9.515 1.748 6.561 0.824 0.580 -284.964 -839.903 -2789.982 -0.663 0.066 0.849 -0.05 0.6 -0.79 0.05
1 2.70 270 0.872 -9.443 1.714 5.768 1.587 2.106 -209.863 -839.903 -2759.852 -0.779 -0.005 0.886 -0.05 0.6 -0.79 0.05
1 2.71 271 0.833 -9.457 1.609 5.798 1.770 2.197 -209.863 -839.903 -2759.852 -0.738 0.010 0.994 -0.05 0.6 -0.79 0.05
1 2.72 272 0.881 -9.577 1.508 5.432 2.655 2.991 -449.857 -809.922 -2774.992 -0.783 0.130 1.097 -0.05 0.6 -0.79 0.05
1 2.73 273 0.876 -9.687 1.633 5.768 3.204 1.251 -329.935 -794.932 -2759.852 -0.776 0.241 0.973 -0.05 0.6 -0.79 0.05
1 2.74 274 1.006 -9.544 1.547 6.317 4.761 0.702 -254.984 -839.903 -2789.982 -0.897 0.097 1.060 -0.04 0.6 -0.79 0.05
1 2.75 275 1.015 -9.505 1.619 6.622 5.463 -0.580 -254.984 -839.903 -2789.982 -0.902 0.060 0.991 -0.04 0.6 -0.79 0.05
1 2.76 276 1.183 -9.424 1.494 6.104 5.890 -0.244 -329.935 -869.883 -2684.901 -1.064 -0.021 1.117 -0.04 0.6 -0.79 0.05
1 2.77 277 1.255 -9.443 1.542 5.890 7.355 -0.519 -284.964 -1019.936 -2759.852 -1.129 -0.002 1.070 -0.04 0.6 -0.79 0.05
1 2.78 278 1.216 -9.433 1.465 5.859 7.996 0.214 -284.964 -1019.936 -2759.852 -1.084 -0.011 1.148 -0.04 0.6 -0.79 0.05
1 2.79 279 1.240 -9.400 1.508 3.784 10.803 0.214 -359.916 -989.955 -2789.982 -1.103 -0.044 1.105 -0.04 0.6 -0.79 0.05
1 2.80 280 1.006 -9.539 1.642 2.441 11.444 0.519 -419.876 -959.975 -2774.992 -0.864 0.094 0.969 -0.04 0.6 -0.79 0.05
1 2.81 281 0.939 -9.424 1.499 3.052 11.871 1.556 -254.984 -869.883 -2759.852 -0.792 -0.022 1.106 -0.04 0.6 -0.79 0.04
1 2.82 282 1.063 -9.457 1.389 5.249 10.834 1.434 -254.984 -869.883 -2759.852 -0.917 0.011 1.214 -0.04 0.6 -0.79 0.04
1 2.83 283 1.116 -9.448 1.461 6.866 9.033 4.059 -344.925 -884.874 -2849.943 -0.969 0.001 1.143 -0.04 0.6 -0.79 0.04
1 2.84 284 1.240 -9.376 1.437 8.698 10.315 5.127 -254.984 -944.984 -2819.963 -1.096 -0.070 1.170 -0.04 0.6 -0.79 0.04
1 2.85 285 1.173 -9.453 1.465 11.414 13.763 7.599 -254.984 -944.984 -2819.963 -1.032 0.009 1.148 -0.04 0.6 -0.79 0.04
1 2.86 286 1.068 -9.496 1.959 11.047 15.137 9.125 -299.955 -929.994 -2879.924 -0.935 0.054 0.664 -0.04 0.6 -0.8 0.04
1 2.87 287 0.785 -9.486 2.710 10.162 13.763 6.683 -224.854 -1004.945 -2774.992 -0.662 0.048 -0.077 -0.04 0.6 -0.8 0.04
1 2.88 288 -0.239 -10.396 4.070 2.808 10.651 -1.770 -209.863 -944.984 -2714.881 0.350 0.965 -1.410 -0.04 0.6 -0.8 0.04
1 2.89 289 -0.642 -10.645 4.291 -2.869 8.606 -6.592 -209.863 -944.984 -2714.881 0.756 1.215 -1.627 -0.04 0.6 -0.8 0.04
1 2.90 290 -1.437 -11.076 3.180 -11.658 -6.378 -17.731 -194.873 -1004.945 -2954.875 1.568 1.642 -0.530 -0.04 0.6 -0.8 0.04
1 2.91 291 -0.666 -10.506 1.815 5.096 -21.057 -19.348 -179.883 -869.883 -2789.982 0.830 1.069 0.822 -0.04 0.6 -0.8 0.04
1 2.92 292 0.809 -9.802 1.336 29.389 -27.954 -14.526 -179.883 -869.883 -2789.982 -0.612 0.369 1.313 -0.04 0.6 -0.8 0.04
1 2.93 293 2.624 -9.060 1.987 41.596 -4.303 -2.228 -254.984 -944.984 -2789.982 -2.395 -0.362 0.700 -0.04 0.6 -0.8 0.04
1 2.94 294 2.916 -9.151 2.753 29.541 17.242 5.951 -209.863 -1064.906 -2894.914 -2.663 -0.255 -0.015 -0.04 0.6 -0.8 0.04
1 2.95 295 2.892 -9.481 3.165 12.573 23.224 6.348 -209.863 -1064.906 -2894.914 -2.630 0.089 -0.382 -0.04 0.6 -0.8 0.03
1 2.96 296 2.519 -10.329 3.462 -13.458 9.857 -4.272 -464.997 -1019.936 -2819.963 -2.244 0.945 -0.651 -0.04 0.6 -0.8 0.03
1 2.97 297 1.848 -10.324 3.227 -19.989 12.756 -7.660 -224.854 -1004.945 -2849.943 -1.569 0.934 -0.439 -0.04 0.6 -0.8 0.03
1 2.98 298 1.446 -10.123 2.686 -12.024 21.668 -9.247 -299.955 -1079.896 -2849.943 -1.161 0.725 0.077 -0.04 0.6 -0.8 0.03
1 2.99 299 0.891 -10.463 2.413 -3.387 26.459 -14.191 -299.955 -1079.896 -2849.943 -0.594 1.061 0.335 -0.04 0.6 -0.8 0.03
1 3.00 300 0.469 -10.951 2.940 -12.390 19.989 -17.944 -284.964 -944.984 -2714.881 -0.156 1.548 -0.199 -0.04 0.6 -0.8 0.03
1 3.01 301 0.326 -11.210 3.347 -22.156 17.426 -13.733 -134.912 -1019.936 -2759.852 0.005 1.803 -0.618 -0.04 0.6 -0.8 0.02
1 3.02 302 -0.455 -11.378 3.477 -28.961 21.576 -6.897 -134.912 -1019.936 -2759.852 0.801 1.964 -0.776 -0.04 0.6 -0.8 0.02
1 3.03 303 -1.604 -10.923 2.562 -31.159 19.623 -1.892 -284.964 -989.955 -2819.963 1.952 1.485 0.055 -0.04 0.6 -0.8 0.02
1 3.04 304 -1.666 -10.674 2.030 -21.118 6.714 -2.991 -359.916 -1169.988 -2714.881 2.011 1.225 0.546 -0.04 0.61 -0.79 0.02
1 3.05 305 -1.666 -10.339 2.394 -8.575 -5.554 -2.625 -164.893 -884.874 -2774.992 2.016 0.882 0.155 -0.04 0.61 -0.79 0.02
1 3.06 306 -1.001 -10.276 3.060 -3.174 -7.538 0.641 -164.893 -884.874 -2774.992 1.349 0.817 -0.521 -0.04 0.61 -0.79 0.02
1 3.07 307 -0.728 -9.912 3.491 -21.210 -0.641 6.317 -269.974 -809.922 -2699.891 1.066 0.451 -0.958 -0.04 0.61 -0.79 0.02
1 3.08 308 -0.623 -9.994 3.572 -33.173 -1.282 9.155 -194.873 -1049.916 -2669.911 0.945 0.526 -1.061 -0.04 0.61 -0.79 0.02
1 3.09 309 -0.728 -10.056 3.443 -37.262 -6.592 9.430 -194.873 -1049.916 -2669.911 1.032 0.578 -0.970 -0.04 0.61 -0.79 0.02
1 3.10 310 -0.268 -9.927 3.242 -28.931 -14.832 7.935 -164.893 -929.994 -2669.911 0.541 0.425 -0.857 -0.03 0.61 -0.79 0.02
1 3.11 311 -0.091 -9.702 3.208 -27.008 -15.778 5.829 -254.984 -944.984 -2789.982 0.356 0.191 -0.860 -0.04 0.62 -0.79 0.02
1 3.12 312 -0.019 -9.084 3.285 -14.740 -14.832 7.263 -179.883 -794.932 -2714.881 0.279 -0.433 -0.961 -0.04 0.62 -0.79 0.02
1 3.13 313 -0.105 -8.696 3.424 -8.881 -10.498 4.669 -179.883 -794.932 -2714.881 0.359 -0.824 -1.113 -0.04 0.62 -0.79 0.02
1 3.14 314 -0.091 -8.562 3.510 -9.552 -8.240 3.143 -284.964 -749.961 -2609.950 0.341 -0.959 -1.204 -0.04 0.62 -0.79 0.03
1 3.15 315 -0.354 -8.466 3.769 -23.773 -9.186 -3.723 -284.964 -794.932 -2609.950 0.602 -1.057 -1.469 -0.04 0.62 -0.79 0.03
1 3.16 316 -0.350 -8.696 3.682 -33.630 -7.202 -3.632 -284.964 -794.932 -2609.950 0.600 -0.832 -1.404 -0.04 0.62 -0.78 0.03
1 3.17 317 -0.512 -8.969 3.611 -33.997 -2.136 -2.136 -269.974 -809.922 -2474.888 0.768 -0.567 -1.365 -0.04 0.62 -0.78 0.03
1 3.18 318 -0.728 -9.228 3.199 -17.334 3.357 -0.366 -269.974 -809.922 -2519.858 0.982 -0.324 -1.020 -0.04 0.62 -0.78 0.03
1 3.19 319 -0.733 -9.026 2.959 -8.820 3.937 -1.984 -254.984 -674.860 -2534.999 0.979 -0.528 -0.794 -0.04 0.62 -0.78 0.03
1 3.20 320 -0.675 -9.180 3.036 -0.061 1.587 -3.052 -254.984 -674.860 -2534.999 0.919 -0.376 -0.874 -0.04 0.62 -0.78 0.03
1 3.21 321 -0.536 -9.108 3.390 2.258 -0.488 -4.700 -299.955 -734.971 -2519.858 0.778 -0.446 -1.220 -0.04 0.62 -0.78 0.03
1 3.22 322 -0.460 -9.261 3.529 -5.981 0.610 -2.899 -509.968 -644.880 -2459.897 0.703 -0.290 -1.349 -0.04 0.62 -0.78 0.03
1 3.23 323 -0.603 -9.141 3.165 -1.556 5.798 -2.777 -509.968 -644.880 -2459.897 0.846 -0.410 -0.986 -0.04 0.62 -0.78 0.03
1 3.24 324 -0.637 -9.094 2.921 -0.458 0.427 -5.981 -329.935 -869.883 -2534.999 0.876 -0.457 -0.738 -0.04 0.62 -0.78 0.03
1 3.25 325 -0.575 -9.036 3.060 -3.662 -5.615 -2.899 -284.964 -869.883 -2429.917 0.817 -0.512 -0.867 -0.04 0.62 -0.78 0.03
1 3.26 326 -0.498 -9.199 3.108 -14.648 -3.296 -3.479 -254.984 -839.903 -2534.999 0.742 -0.350 -0.919 -0.04 0.62 -0.78 0.03
1 3.27 327 -0.718 -9.122 3.046 -19.104 0.031 -0.732 -254.984 -839.903 -2534.999 0.963 -0.431 -0.874 -0.04 0.62 -0.78 0.03
1 3.28 328 -0.977 -9.261 2.950 -22.919 3.204 2.289 -209.863 -794.932 -2459.897 1.216 -0.297 -0.800 -0.04 0.62 -0.78 0.03
1 3.29 329 -1.408 -9.462 2.605 -25.024 3.387 6.439 -224.854 -734.971 -2624.940 1.633 -0.103 -0.483 -0.04 0.62 -0.78 0.03
1 3.30 330 -1.671 -9.357 2.375 -21.240 -8.087 3.784 -224.854 -734.971 -2624.940 1.875 -0.215 -0.285 -0.04 0.63 -0.78 0.03
1 3.31 331 -1.427 -9.366 2.332 -20.142 -11.536 2.075 -269.974 -584.919 -2549.989 1.613 -0.213 -0.272 -0.04 0.63 -0.78 0.03
1 3.32 332 -1.049 -9.175 2.270 -17.212 -10.010 4.700 -374.906 -704.991 -2444.907 1.211 -0.416 -0.262 -0.04 0.63 -0.78 0.03
1 3.33 333 -0.895 -9.204 2.270 -15.137 -10.498 6.531 -329.935 -749.961 -2459.897 1.044 -0.392 -0.283 -0.04 0.63 -0.77 0.03
1 3.34 334 -0.800 -9.156 2.054 -15.503 -5.951 7.996 -329.935 -749.961 -2459.897 0.934 -0.444 -0.087 -0.04 0.63 -0.77 0.03
1 3.35 335 -0.685 -8.892 1.801 -11.658 -4.608 4.578 -464.997 -749.961 -2459.897 0.804 -0.712 0.145 -0.04 0.63 -0.77 0.03
1 3.36 336 -0.747 -9.151 1.777 2.197 -8.820 3.571 -329.935 -644.880 -2534.999 0.857 -0.455 0.158 -0.04 0.63 -0.77 0.03
1 3.37 337 -0.484 -9.204 2.212 2.991 -5.402 0.305 -329.935 -644.880 -2534.999 0.587 -0.402 -0.271 -0.04 0.63 -0.77 0.04
1 3.38 338 -0.642 -9.098 1.949 -10.742 1.770 6.714 -344.925 -659.870 -2369.956 0.742 -0.505 0.000 -0.04 0.63 -0.77 0.04
1 3.39 339 -0.723 -8.868 1.911 -8.484 -2.441 5.432 -344.925 -659.870 -2369.956 0.812 -0.737 0.028 -0.04 0.63 -0.77 0.04
1 3.40 340 -0.833 -9.113 1.743 -3.693 -5.768 2.441 -299.955 -704.991 -2594.959 0.901 -0.497 0.177 -0.04 0.63 -0.77 0.04
1 3.41 341 -0.876 -8.811 1.484 -3.265 -4.913 -0.214 -299.955 -704.991 -2594.959 0.936 -0.800 0.430 -0.04 0.63 -0.77 0.04
1 3.42 342 -0.848 -8.931 1.733 -6.928 -5.707 -0.702 -329.935 -569.929 -2324.985 0.903 -0.682 0.173 -0.04 0.63 -0.77 0.04
1 3.43 343 -1.044 -8.955 1.729 -11.902 -6.592 -1.434 -509.968 -794.932 -2534.999 1.096 -0.660 0.165 -0.04 0.63 -0.77 0.04
1 3.44 344 -1.212 -9.242 1.532 -12.482 -9.277 -4.211 -509.968 -794.932 -2534.999 1.262 -0.377 0.343 -0.04 0.63 -0.77 0.04
1 3.45 345 -1.053 -9.180 1.370 -7.935 -11.139 -3.387 -434.867 -749.961 -2429.917 1.104 -0.443 0.487 -0.04 0.64 -0.77 0.04
1 3.46 346 -1.044 -8.945 1.207 -3.510 -14.069 -5.676 -434.867 -749.961 -2429.917 1.094 -0.680 0.635 -0.04 0.64 -0.77 0.04
1 3.47 347 -0.771 -8.844 1.250 -4.120 -12.238 -5.768 -434.867 -599.909 -2324.985 0.832 -0.784 0.574 -0.04 0.64 -0.77 0.04
1 3.48 348 -0.747 -8.916 1.379 -5.310 -10.162 -5.280 -434.867 -599.909 -2324.985 0.815 -0.714 0.436 -0.04 0.64 -0.77 0.04
1 3.49 349 -0.838 -8.878 1.298 -11.383 -7.568 -7.782 -284.964 -719.981 -2279.865 0.912 -0.754 0.506 -0.04 0.64 -0.77 0.04
1 3.50 350 -0.943 -9.127 1.302 -14.923 -7.599 -9.491 -284.964 -524.958 -2354.966 1.027 -0.509 0.480 -0.04 0.64 -0.77 0.04
1 3.51 351 -1.039 -9.280 1.135 -18.555 -10.407 -11.383 -284.964 -524.958 -2354.966 1.133 -0.361 0.621 -0.04 0.64 -0.77 0.04
1 3.52 352 -1.015 -9.582 1.015 -16.388 -14.801 -12.177 -374.906 -734.971 -2519.858 1.122 -0.065 0.709 -0.04 0.64 -0.77 0.04
1 3.53 353 -0.948 -9.802 0.924 -12.360 -16.846 -11.871 -374.906 -734.971 -2519.858 1.068 0.151 0.771 -0.04 0.64 -0.76 0.04
1 3.54 354 -1.010 -9.898 1.101 -3.296 -20.386 -11.353 -539.948 -494.978 -2354.966 1.159 0.239 0.551 -0.05 0.64 -0.76 0.04
1 3.55 355 -0.958 -10.056 1.379 0.610 -21.973 -10.437 -539.948 -494.978 -2354.966 1.120 0.396 0.265 -0.05 0.64 -0.76 0.05
1 3.56 356 -0.661 -10.056 1.738 2.502 -22.553 -9.033 -569.929 -629.890 -2264.875 0.837 0.396 -0.095 -0.05 0.64 -0.76 0.05
1 3.57 357 -0.426 -9.922 1.662 1.617 -24.139 -7.568 -389.896 -644.880 -2249.884 0.615 0.263 -0.016 -0.05 0.64 -0.76 0.05
1 3.58 358 -0.268 -9.735 1.882 0.793 -24.323 -5.859 -389.896 -644.880 -2249.884 0.470 0.077 -0.236 -0.05 0.64 -0.76 0.05
1 3.59 359 -0.134 -9.759 1.935 -4.425 -23.773 -4.120 -449.857 -659.870 -2264.875 0.347 0.101 -0.288 -0.06 0.64 -0.76 0.05
1 3.60 360 0.029 -9.845 1.810 -7.629 -22.461 -5.005 -449.857 -659.870 -2264.875 0.196 0.187 -0.167 -0.06 0.64 -0.76 0.05
1 3.61 361 0.192 -9.908 1.346 -12.238 -20.355 -3.357 -539.948 -599.909 -2279.865 0.044 0.248 0.288 -0.06 0.64 -0.76 0.05
1 3.62 362 -0.086 -10.248 0.579 -9.827 -12.207 -0.153 -569.929 -659.870 -2339.976 0.340 0.581 1.013 -0.06 0.64 -0.76 0.05
1 3.63 363 -0.570 -10.544 -0.110 -2.289 -7.538 2.563 -614.899 -569.929 -2324.985 0.825 0.875 1.683 -0.06 0.64 -0.76 0.05
1 3.64 364 -1.121 -10.784 -0.134 1.221 -9.522 3.052 -629.890 -539.948 -2219.904 1.369 1.112 1.694 -0.06 0.65 -0.76 0.05
1 3.65 365 -1.532 -11.004 0.541 2.777 -16.052 -0.153 -629.890 -539.948 -2219.904 1.777 1.331 1.014 -0.06 0.65 -0.76 0.06
1 3.66 366 -1.063 -12.225 2.639 13.733 -23.682 -5.127 -629.890 -659.870 -2339.976 1.315 2.553 -1.079 -0.06 0.65 -0.76 0.06
1 3.67 367 0.508 -14.366 3.438 8.759 -31.647 7.233 -629.890 -659.870 -2339.976 -0.242 4.697 -1.862 -0.07 0.64 -0.76 0.06
1 3.68 368 2.337 -14.284 2.883 -12.573 -44.373 34.424 -704.991 -539.948 -2219.904 -2.067 4.619 -1.289 -0.07 0.64 -0.76 0.06
1 3.69 369 2.193 -11.081 1.638 14.648 -28.351 42.847 -584.919 -644.880 -2204.914 -2.004 1.409 -0.067 -0.07 0.64 -0.76 0.07
1 3.70 370 0.919 -9.697 0.713 27.741 0.061 38.300 -690.000 -644.880 -2384.946 -0.787 0.029 0.886 -0.07 0.64 -0.76 0.07
1 3.71 371 -0.737 -9.117 0.067 8.514 3.845 29.907 -734.971 -599.909 -2384.946 0.825 -0.545 1.564 -0.07 0.64 -0.76 0.07
1 3.72 372 -1.571 -10.128 0.814 -28.900 -9.155 20.416 -734.971 -599.909 -2384.946 1.616 0.463 0.806 -0.07 0.64 -0.76 0.08
1 3.73 373 -1.484 -11.684 2.069 -58.777 -16.693 12.756 -659.870 -719.981 -2354.966 1.495 2.008 -0.513 -0.07 0.65 -0.76 0.08
1 3.74 374 -0.819 -13.058 2.380 -37.567 -11.047 7.446 -659.870 -719.981 -2354.966 0.818 3.369 -0.914 -0.07 0.65 -0.75 0.08
1 3.75 375 -0.828 -12.604 1.896 12.970 -8.728 6.256 -584.919 -749.961 -2324.985 0.819 2.903 -0.500 -0.07 0.65 -0.75 0.08
1 3.76 376 0.024 -11.196 1.858 63.416 -21.484 7.019 -764.952 -674.860 -2279.865 -0.045 1.506 -0.395 -0.07 0.65 -0.75 0.08
1 3.77 377 0.479 -10.755 2.246 56.946 -30.426 12.543 -674.860 -584.919 -2189.923 -0.506 1.080 -0.688 -0.07 0.64 -0.76 0.08
1 3.78 378 1.710 -9.702 3.433 30.670 -25.787 18.921 -704.991 -659.870 -2189.923 -1.749 0.039 -1.800 -0.07 0.64 -0.76 0.09
1 3.79 379 1.944 -9.438 3.491 2.411 -12.238 22.369 -704.991 -659.870 -2189.923 -1.994 -0.216 -1.810 -0.07 0.64 -0.76 0.09
1 3.80 380 1.470 -9.247 3.156 -20.569 -1.251 27.466 -690.000 -719.981 -2249.884 -1.537 -0.406 -1.467 -0.07 0.64 -0.76 0.09
1 3.81 381 0.857 -8.873 2.634 -17.944 0.153 21.149 -690.000 -719.981 -2249.884 -0.955 -0.784 -0.967 -0.07 0.64 -0.76 0.09
1 3.82 382 0.642 -9.007 2.811 -7.233 -7.294 15.595 -749.961 -704.991 -2189.923 -0.765 -0.653 -1.165 -0.07 0.64 -0.76 0.09
1 3.83 383 0.666 -8.844 3.251 2.380 -7.538 13.916 -674.860 -659.870 -2294.855 -0.805 -0.816 -1.611 -0.07 0.64 -0.76 0.09
1 3.84 384 0.460 -8.667 3.802 12.970 1.434 14.862 -690.000 -719.981 -2204.914 -0.624 -0.986 -2.121 -0.07 0.64 -0.76 0.1
1 3.85 385 0.067 -8.629 3.836 4.852 7.874 14.008 -584.919 -749.961 -2324.985 -0.247 -1.018 -2.122 -0.07 0.64 -0.76 0.1
1 3.86 386 -0.532 -8.514 3.697 -4.242 8.606 10.559 -584.919 -749.961 -2324.985 0.334 -1.129 -1.963 -0.07 0.64 -0.76 0.1
1 3.87 387 -0.690 -8.634 3.232 -2.472 1.129 7.294 -779.942 -704.991 -2219.904 0.475 -1.007 -1.488 -0.07 0.64 -0.76 0.1
1 3.88 388 -0.642 -8.567 2.868 -0.092 -13.306 3.601 -779.942 -704.991 -2219.904 0.415 -1.072 -1.114 -0.07 0.64 -0.76 0.1
1 3.89 389 -0.330 -8.830 2.825 -0.458 -16.022 2.014 -734.971 -749.961 -2279.865 0.097 -0.807 -1.060 -0.07 0.64 -0.76 0.1
1 3.90 390 0.005 -9.127 2.950 -1.221 -14.557 0.580 -674.860 -809.922 -2369.956 -0.239 -0.508 -1.175 -0.07 0.64 -0.76 0.1
1 3.91 391 0.139 -9.903 3.117 3.326 -11.780 -2.869 -779.942 -779.942 -2219.904 -0.361 0.271 -1.322 -0.07 0.64 -0.76 0.1
1 3.92 392 0.182 -10.300 2.854 3.571 -12.878 -4.669 -629.890 -809.922 -2219.904 -0.392 0.671 -1.044 -0.07 0.63 -0.76 0.1
1 3.93 393 0.225 -10.224 2.686 5.524 -14.984 -2.167 -629.890 -809.922 -2219.904 -0.421 0.597 -0.863 -0.07 0.63 -0.76 0.1
1 3.94 394 0.522 -9.888 2.701 16.541 -19.074 -4.211 -704.991 -704.991 -2444.907 -0.706 0.265 -0.859 -0.07 0.63 -0.76 0.1
1 3.95 395 0.814 -9.524 2.643 25.940 -16.632 -3.906 -704.991 -704.991 -2444.907 -0.980 -0.093 -0.766 -0.07 0.63 -0.76 0.1
1 3.96 396 0.958 -9.194 2.892 20.416 -14.587 -5.676 -734.971 -719.981 -2174.933 -1.105 -0.415 -0.971 -0.08 0.63 -0.77 0.1
1 3.97 397 1.116 -9.223 2.859 11.597 -12.421 -4.547 -794.932 -749.961 -2354.966 -1.241 -0.378 -0.899 -0.08 0.63 -0.77 0.1
1 3.98 398 1.149 -9.137 2.739 3.754 -10.712 -7.996 -659.870 -749.961 -2354.966 -1.232 -0.455 -0.732 -0.08 0.63 -0.77 0.1
1 3.99 399 1.130 -9.180 2.605 6.287 -9.522 -10.681 -749.961 -659.870 -2294.855 -1.187 -0.410 -0.586 -0.08 0.62 -0.77 0.1
1 4.00 400 1.283 -9.405 2.437 13.397 -9.003 -9.827 -749.961 -659.870 -2294.855 -1.311 -0.182 -0.402 -0.08 0.62 -0.77 0.1
1 4.01 401 1.245 -9.515 2.466 16.785 -7.355 -8.820 -734.971 -749.961 -2354.966 -1.246 -0.066 -0.406 -0.08 0.62 -0.77 0.1
1 4.02 402 1.307 -9.343 2.418 16.022 -6.836 -8.057 -734.971 -749.961 -2354.966 -1.283 -0.232 -0.330 -0.08 0.62 -0.77 0.1
1 4.03 403 1.422 -9.343 2.361 18.829 -3.754 -5.707 -869.883 -869.883 -2279.865 -1.375 -0.226 -0.245 -0.09 0.62 -0.77 0.1
1 4.04 404 1.336 -9.050 2.260 14.587 0.397 -6.012 -869.883 -839.903 -2354.966 -1.269 -0.512 -0.115 -0.09 0.62 -0.77 0.1
1 4.05 405 1.188 -9.026 2.246 18.433 1.923 -3.998 -869.883 -839.903 -2354.966 -1.100 -0.530 -0.075 -0.09 0.62 -0.77 0.1
1 4.06 406 0.977 -8.849 1.844 18.158 1.526 2.625 -794.932 -749.961 -2384.946 -0.864 -0.696 0.372 -0.09 0.62 -0.78 0.1
1 4.07 407 0.977 -8.806 2.164 36.438 -2.106 -0.580 -794.932 -749.961 -2384.946 -0.860 -0.730 0.089 -0.09 0.61 -0.78 0.1
1 4.08 408 1.183 -8.821 2.193 31.159 4.425 -5.981 -839.903 -989.955 -2429.917 -1.054 -0.704 0.112 -0.09 0.61 -0.78 0.1
1 4.09 409 1.288 -8.940 1.915 23.529 9.705 -3.540 -839.903 -989.955 -2429.917 -1.145 -0.573 0.434 -0.09 0.61 -0.78 0.1
1 4.10 410 1.212 -8.873 2.006 17.700 9.979 -3.113 -854.893 -884.874 -2414.927 -1.058 -0.632 0.374 -0.09 0.61 -0.78 0.1
1 4.11 411 1.312 -8.868 1.930 15.778 11.841 -2.472 -854.893 -1124.867 -2549.989 -1.149 -0.630 0.476 -0.09 0.61 -0.78 0.1
1 4.12 412 1.556 -8.782 1.815 15.900 12.512 -2.075 -854.893 -1124.867 -2549.989 -1.384 -0.711 0.613 -0.09 0.61 -0.78 0.1
1 4.13 413 1.805 -8.452 1.346 17.059 17.181 -1.068 -734.971 -944.984 -2534.999 -1.617 -1.030 1.124 -0.09 0.61 -0.79 0.1
1 4.14 414 1.743 -8.500 1.504 13.275 21.790 -0.824 -734.971 -944.984 -2534.999 -1.559 -0.976 0.991 -0.09 0.6 -0.79 0.1
1 4.15 415 1.762 -8.725 1.738 6.256 24.628 -0.549 -749.961 -1004.945 -2444.907 -1.584 -0.746 0.774 -0.08 0.6 -0.79 0.1
1 4.16 416 1.422 -9.089 1.662 -1.953 26.367 -0.977 -749.961 -1004.945 -2444.907 -1.240 -0.381 0.853 -0.08 0.6 -0.79 0.09
1 4.17 417 1.298 -9.433 1.585 -7.538 26.520 -0.427 -674.860 -959.975 -2474.888 -1.113 -0.039 0.920 -0.08 0.6 -0.79 0.09
1 4.18 418 0.833 -9.280 1.159 -4.852 26.337 0.610 -674.860 -1049.916 -2474.888 -0.649 -0.197 1.330 -0.08 0.61 -0.79 0.09
1 4.19 419 0.737 -8.940 1.025 1.862 24.719 0.916 -674.860 -1049.916 -2474.888 -0.557 -0.541 1.448 -0.08 0.61 -0.79 0.09
1 4.20 420 0.441 -8.270 1.044 5.829 23.651 1.434 -839.903 -1064.906 -2504.868 -0.273 -1.213 1.424 -0.08 0.61 -0.79 0.09
1 4.21 421 0.378 -8.318 1.121 -0.031 22.644 1.343 -839.903 -1064.906 -2504.868 -0.220 -1.163 1.356 -0.08 0.61 -0.79 0.09
1 4.22 422 0.393 -8.605 1.441 -12.421 22.553 0.427 -599.909 -854.893 -2444.907 -0.244 -0.877 1.031 -0.08 0.61 -0.79 0.08
1 4.23 423 0.335 -9.003 1.590 -23.895 21.118 0.366 -599.909 -854.893 -2444.907 -0.194 -0.485 0.861 -0.07 0.61 -0.79 0.08
1 4.24 424 0.340 -9.414 1.542 -24.872 17.883 0.519 -734.971 -944.984 -2429.917 -0.205 -0.084 0.867 -0.07 0.61 -0.78 0.08
1 4.25 425 0.699 -9.788 1.183 -9.277 13.336 3.601 -584.919 -839.903 -2384.946 -0.570 0.280 1.187 -0.07 0.61 -0.78 0.08
1 4.26 426 0.991 -9.515 1.082 6.531 12.970 4.913 -584.919 -839.903 -2384.946 -0.867 0.000 1.263 -0.07 0.61 -0.78 0.08
1 4.27 427 1.341 -9.213 1.010 17.517 14.893 6.714 -659.870 -989.955 -2384.946 -1.222 -0.302 1.330 -0.07 0.61 -0.78 0.08
1 4.28 428 1.781 -8.983 1.006 16.876 17.822 7.935 -629.890 -959.975 -2369.956 -1.674 -0.524 1.368 -0.07 0.61 -0.78 0.08
1 4.29 429 1.925 -9.089 0.804 5.157 19.043 8.392 -539.948 -989.955 -2459.897 -1.823 -0.416 1.582 -0.07 0.61 -0.78 0.08
1 4.30 430 1.949 -9.189 1.082 -5.402 19.226 7.172 -539.948 -989.955 -2459.897 -1.851 -0.317 1.298 -0.07 0.61 -0.78 0.08
1 4.31 431 2.231 -9.343 4.142 0.183 17.975 6.348 -599.909 -959.975 -2444.907 -2.135 -0.168 -1.779 -0.07 0.61 -0.78 0.08
1 4.32 432 -0.565 -11.239 6.608 0.427 19.409 -19.745 -629.890 -929.994 -2414.927 0.663 1.732 -4.232 -0.07 0.61 -0.78 0.08
1 4.33 433 -4.200 -13.815 5.818 -77.301 27.832 -59.937 -629.890 -929.994 -2414.927 4.308 4.311 -3.431 -0.07 0.61 -0.78 0.07
1 4.34 434 -4.137 -12.388 0.943 -78.430 -4.181 -45.532 -614.899 -944.984 -2354.966 4.315 2.864 1.360 -0.07 0.61 -0.78 0.07
1 4.35 435 -0.560 -9.702 -0.728 20.355 -54.871 -44.129 -524.958 -959.975 -2339.976 0.889 0.142 2.861 -0.07 0.62 -0.78 0.07
1 4.36 436 1.896 -9.548 1.360 53.559 -34.729 -24.292 -659.870 -1094.887 -2279.865 -1.503 -0.004 0.796 -0.08 0.62 -0.78 0.07
1 4.37 437 3.328 -10.157 3.362 31.983 -0.092 -8.392 -659.870 -1094.887 -2279.865 -2.890 0.621 -1.143 -0.08 0.62 -0.78 0.07
1 4.38 438 3.577 -11.914 4.324 -24.597 6.195 -2.563 -794.932 -944.984 -2504.868 -3.121 2.386 -2.076 -0.08 0.62 -0.78 0.07
1 4.39 439 2.686 -13.379 4.338 -73.029 -10.193 2.625 -779.942 -884.874 -2369.956 -2.228 3.838 -2.147 -0.08 0.62 -0.78 0.07
1 4.40 440 2.193 -13.341 2.816 -62.805 -5.707 -3.204 -779.942 -884.874 -2369.956 -1.734 3.775 -0.738 -0.08 0.62 -0.78 0.07
1 4.41 441 1.791 -12.843 2.155 -22.797 12.604 -7.904 -734.971 -1019.936 -2384.946 -1.327 3.255 -0.181 -0.08 0.63 -0.77 0.07
1 4.42 442 0.627 -11.311 2.854 18.005 18.463 -10.101 -674.860 -854.893 -2264.875 -0.146 1.715 -0.921 -0.08 0.63 -0.77 0.06
1 4.43 443 0.287 -10.865 3.156 11.414 11.047 -10.284 -690.000 -914.854 -2279.865 0.205 1.276 -1.195 -0.08 0.63 -0.77 0.06
1 4.44 444 0.053 -10.497 3.903 -11.780 7.629 -10.651 -690.000 -914.854 -2279.865 0.454 0.910 -1.933 -0.08 0.63 -0.77 0.06
1 4.45 445 0.067 -10.492 3.620 -30.609 12.146 -7.599 -734.971 -794.932 -2354.966 0.452 0.901 -1.676 -0.08 0.63 -0.77 0.06
1 4.46 446 -0.330 -10.501 3.376 -26.062 22.339 -1.099 -704.991 -959.975 -2219.904 0.855 0.902 -1.475 -0.08 0.63 -0.77 0.06
1 4.47 447 -1.326 -10.142 2.648 -0.366 23.926 6.134 -704.991 -959.975 -2219.904 1.845 0.536 -0.778 -0.08 0.63 -0.77 0.06
1 4.48 448 -1.652 -9.778 2.725 10.803 12.756 5.798 -764.952 -839.903 -2324.985 2.152 0.171 -0.856 -0.08 0.63 -0.77 0.06
1 4.49 449 -1.427 -9.395 3.055 8.972 2.869 2.777 -690.000 -839.903 -2249.884 1.899 -0.210 -1.168 -0.08 0.63 -0.77 0.06
1 4.50 450 -1.039 -8.701 3.515 0.702 -3.387 5.768 -659.870 -914.854 -2279.865 1.471 -0.898 -1.589 -0.08 0.63 -0.77 0.06
1 4.51 451 -0.709 -8.437 3.520 -5.859 -5.371 4.669 -659.870 -914.854 -2279.865 1.123 -1.160 -1.582 -0.08 0.63 -0.77 0.06
1 4.52 452 -0.421 -8.155 3.414 -11.169 -6.531 2.869 -779.942 -854.893 -2264.875 0.824 -1.443 -1.474 -0.08 0.63 -0.77 0.06
1 4.53 453 -0.283 -8.064 3.108 -18.616 -6.042 -0.092 -659.870 -914.854 -2279.865 0.678 -1.535 -1.174 -0.08 0.63 -0.77 0.06
1 4.54 454 -0.034 -8.045 2.859 -20.020 -6.195 -4.425 -659.870 -914.854 -2279.865 0.433 -1.560 -0.954 -0.08 0.63 -0.77 0.06
1 4.55 455 0.369 -8.370 2.844 -14.710 -4.486 -8.148 -674.860 -809.922 -2369.956 0.039 -1.240 -0.969 -0.08 0.63 -0.77 0.06
1 4.56 456 0.637 -9.615 3.156 -11.993 -1.343 -6.714 -659.870 -869.883 -2099.982 -0.217 0.001 -1.305 -0.08 0.63 -0.77 0.06
1 4.57 457 0.148 -10.281 3.338 -19.928 9.583 3.754 -659.870 -839.903 -2354.966 0.287 0.663 -1.509 -0.08 0.63 -0.77 0.06
1 4.58 458 -0.589 -10.176 2.978 -16.907 15.717 1.099 -659.870 -839.903 -2354.966 1.018 0.553 -1.174 -0.08 0.63 -0.77 0.06
1 4.59 459 -1.183 -10.190 2.658 -9.338 13.855 1.007 -614.899 -749.961 -2249.884 1.601 0.565 -0.865 -0.08 0.63 -0.77 0.06
1 4.60 460 -1.810 -9.917 2.552 4.120 7.782 3.326 -764.952 -839.903 -2249.884 2.218 0.290 -0.766 -0.08 0.63 -0.77 0.06
1 4.61 461 -1.642 -9.496 2.509 24.109 3.387 2.411 -764.952 -839.903 -2249.884 2.029 -0.129 -0.703 -0.08 0.63 -0.77 0.06
1 4.62 462 -1.034 -9.275 2.615 8.789 -3.876 1.862 -779.942 -734.971 -2009.891 1.403 -0.342 -0.768 -0.08 0.63 -0.77 0.06
1 4.63 463 -0.637 -8.844 2.758 -7.538 -4.089 6.622 -629.890 -929.994 -2219.904 0.992 -0.768 -0.886 -0.08 0.63 -0.77 0.06
1 4.64 464 -0.651 -9.271 2.888 -11.780 -2.869 6.836 -704.991 -854.893 -2189.923 0.977 -0.346 -1.027 -0.08 0.63 -0.77 0.07
1 4.65 465 -0.579 -9.438 2.437 -4.211 -1.007 7.690 -704.991 -854.893 -2189.923 0.889 -0.180 -0.584 -0.08 0.63 -0.77 0.07
1 4.66 466 -0.579 -9.505 2.385 4.364 -1.404 7.446 -704.991 -734.971 -2264.875 0.871 -0.113 -0.529 -0.08 0.63 -0.77 0.07
1 4.67 467 -0.330 -9.362 2.437 5.432 -4.150 3.601 -749.961 -854.893 -2159.943 0.607 -0.255 -0.570 -0.08 0.63 -0.77 0.07
1 4.68 468 -0.283 -9.256 2.476 -3.265 -3.906 4.120 -749.961 -854.893 -2159.943 0.552 -0.358 -0.598 -0.08 0.63 -0.77 0.07
1 4.69 469 -0.014 -8.691 2.600 -8.972 3.357 4.974 -629.890 -884.874 -2189.923 0.275 -0.924 -0.725 -0.08 0.63 -0.77 0.07
1 4.70 470 -0.239 -8.787 2.222 -8.637 10.773 5.402 -764.952 -794.932 -2279.865 0.490 -0.830 -0.352 -0.08 0.63 -0.77 0.07
1 4.71 471 -0.369 -8.777 2.054 -10.529 12.756 4.486 -764.952 -794.932 -2279.865 0.609 -0.841 -0.190 -0.07 0.63 -0.77 0.07
1 4.72 472 -0.623 -8.634 1.820 -0.824 7.080 1.373 -779.942 -884.874 -2114.972 0.838 -0.988 0.026 -0.07 0.63 -0.77 0.07
1 4.73 473 -0.785 -8.667 1.863 10.681 0.763 -1.434 -614.899 -869.883 -2204.914 0.994 -0.954 -0.012 -0.07 0.63 -0.77 0.07
1 4.74 474 -0.579 -8.323 2.064 24.414 -0.153 -1.160 -704.991 -779.942 -2264.875 0.786 -1.295 -0.195 -0.07 0.63 -0.77 0.07
1 4.75 475 -0.967 -8.682 2.155 13.397 8.759 -1.129 -704.991 -779.942 -2264.875 1.177 -0.929 -0.251 -0.07 0.63 -0.77 0.07
1 4.76 476 -1.317 -8.461 1.882 -3.876 5.676 -4.547 -599.909 -854.893 -2114.972 1.521 -1.147 0.037 -0.07 0.63 -0.77 0.07
1 4.77 477 -1.283 -8.806 1.824 -5.920 0.000 -3.662 -569.929 -809.922 -2159.943 1.490 -0.803 0.090 -0.07 0.63 -0.77 0.07
1 4.78 478 -1.231 -8.868 1.743 -5.341 -5.524 -1.923 -569.929 -809.922 -2159.943 1.439 -0.742 0.164 -0.07 0.63 -0.77 0.07
1 4.79 479 -1.111 -8.572 1.724 2.075 -6.500 -5.280 -659.870 -719.981 -2174.933 1.310 -1.041 0.173 -0.07 0.63 -0.77 0.07
1 4.80 480 -1.025 -8.524 1.585 2.472 -8.545 -6.531 -614.899 -794.932 -2099.982 1.231 -1.088 0.314 -0.07 0.63 -0.77 0.07
1 4.81 481 -0.776 -8.188 1.786 2.167 -9.888 -8.575 -704.991 -809.922 -2189.923 0.996 -1.422 0.119 -0.07 0.63 -0.77 0.07
1 4.82 482 -0.852 -8.356 1.642 -5.249 -7.996 -10.895 -704.991 -809.922 -2189.923 1.089 -1.254 0.264 -0.08 0.63 -0.77 0.07
1 4.83 483 -0.857 -8.385 1.470 -13.306 -7.355 -12.512 -674.860 -929.994 -2264.875 1.114 -1.227 0.425 -0.08 0.63 -0.77 0.07
1 4.84 484 -1.087 -8.878 1.346 -21.881 -8.728 -12.390 -674.860 -704.991 -2114.972 1.367 -0.737 0.527 -0.08 0.63 -0.77 0.07
1 4.85 485 -1.250 -9.333 1.077 -22.492 -8.972 -13.702 -674.860 -704.991 -2114.972 1.552 -0.288 0.764 -0.08 0.63 -0.77 0.07
1 4.86 486 -1.245 -9.893 0.967 -11.231 -13.031 -15.381 -674.860 -884.874 -2084.992 1.574 0.260 0.804 -0.08 0.63 -0.76 0.07
1 4.87 487 -1.015 -9.706 1.121 -1.831 -16.602 -15.930 -690.000 -794.932 -2069.852 1.359 0.071 0.632 -0.08 0.64 -0.76 0.07
1 4.88 488 -0.795 -9.501 1.082 3.967 -20.355 -14.954 -749.961 -809.922 -2189.923 1.157 -0.136 0.663 -0.08 0.64 -0.76 0.07
1 4.89 489 -0.560 -9.141 1.001 6.104 -22.614 -11.536 -749.961 -809.922 -2189.923 0.941 -0.494 0.744 -0.09 0.64 -0.76 0.07
1 4.90 490 -0.096 -8.859 1.058 1.587 -20.996 -10.620 -779.942 -779.942 -2039.871 0.493 -0.776 0.688 -0.09 0.63 -0.76 0.07
1 4.91 491 0.144 -9.496 1.422 -15.137 -14.435 -6.531 -779.942 -809.922 -2114.972 0.270 -0.140 0.318 -0.09 0.63 -0.76 0.08
1 4.92 492 -0.110 -9.965 1.518 -23.956 -7.751 -3.601 -779.942 -809.922 -2114.972 0.538 0.326 0.200 -0.09 0.64 -0.76 0.08
1 4.93 493 -0.378 -10.506 1.599 -25.818 -2.686 -2.197 -690.000 -719.981 -2129.962 0.813 0.861 0.083 -0.09 0.64 -0.76 0.08
1 4.94 494 -0.752 -11.019 1.446 -14.343 -1.984 -2.441 -764.952 -719.981 -2069.852 1.188 1.362 0.164 -0.09 0.64 -0.76 0.08
1 4.95 495 -0.924 -11.028 1.015 -3.754 -6.104 -4.700 -899.864 -734.971 -2159.943 1.367 1.369 0.578 -0.09 0.64 -0.76 0.08
1 4.96 496 -1.015 -10.731 0.551 6.042 -7.355 -5.157 -899.864 -734.971 -2159.943 1.468 1.072 1.041 -0.1 0.64 -0.76 0.08
1 4.97 497 -0.848 -10.410 0.211 10.742 -7.080 -2.960 -929.994 -809.922 -2159.943 1.310 0.753 1.392 -0.1 0.64 -0.76 0.08
1 4.98 498 -1.240 -10.109 0.000 2.228 -6.470 0.702 -854.893 -854.893 -2084.992 1.699 0.452 1.608 -0.1 0.64 -0.76 0.08
1 4.99 499 -1.097 -10.238 1.173 -6.012 -12.177 -0.488 -854.893 -854.893 -2084.992 1.546 0.580 0.429 -0.1 0.64 -0.76 0.08
1 5.00 500 -0.532 -11.330 3.184 -4.608 -15.015 -1.221 -974.965 -659.870 -2039.871 0.972 1.669 -1.600 -0.1 0.64 -0.76 0.08
1 5.01 501 3.098 -15.841 4.319 -47.211 -26.520 29.602 -869.883 -839.903 -2174.933 -2.664 6.174 -2.771 -0.1 0.64 -0.76 0.08
1 5.02 502 4.784 -14.150 2.543 -52.612 -38.483 46.234 -749.961 -779.942 -2189.923 -4.394 4.468 -1.077 -0.1 0.64 -0.75 0.09
1 5.03 503 3.984 -11.823 1.437 9.094 -7.629 53.162 -749.961 -779.942 -2189.923 -3.657 2.130 -0.030 -0.1 0.65 -0.75 0.09
1 5.04 504 1.801 -9.750 0.057 53.864 41.412 52.735 -839.903 -869.883 -2024.881 -1.554 0.059 1.384 -0.1 0.65 -0.75 0.09
1 5.05 505 -0.967 -8.782 -0.397 38.361 44.312 40.680 -899.864 -629.890 -2114.972 1.136 -0.898 1.914 -0.09 0.64 -0.75 0.1
1 5.06 506 -3.630 -9.371 1.417 -26.917 13.763 16.754 -899.864 -629.890 -2114.972 3.733 -0.306 0.128 -0.09 0.64 -0.75 0.1
1 5.07 507 -3.247 -11.909 3.457 -61.951 1.526 -1.892 -839.903 -794.932 -2099.982 3.294 2.227 -1.944 -0.09 0.64 -0.75 0.1
1 5.08 508 -1.087 -14.505 2.811 -62.378 -8.820 4.395 -899.864 -809.922 -2114.972 1.123 4.794 -1.490 -0.09 0.65 -0.75 0.1
1 5.09 509 -0.417 -13.327 1.810 -3.723 -4.974 8.118 -764.952 -719.981 -2099.982 0.446 3.606 -0.563 -0.09 0.65 -0.74 0.1
1 5.10 510 -0.110 -11.857 1.666 56.214 -3.174 5.432 -764.952 -719.981 -2099.982 0.131 2.139 -0.400 -0.09 0.65 -0.74 0.1
1 5.11 511 0.426 -10.406 2.490 74.219 -11.017 13.092 -779.942 -704.991 -2039.871 -0.414 0.701 -1.129 -0.09 0.65 -0.75 0.1
1 5.12 512 1.020 -9.462 3.429 51.361 -17.426 19.898 -674.860 -704.991 -2084.992 -1.024 -0.227 -1.958 -0.09 0.65 -0.75 0.1
1 5.13 513 1.212 -8.950 4.118 1.831 -9.522 16.968 -674.860 -704.991 -2084.992 -1.235 -0.727 -2.572 -0.09 0.64 -0.75 0.1
1 5.14 514 1.034 -9.218 3.907 -27.527 -5.859 20.691 -779.942 -809.922 -2084.992 -1.074 -0.453 -2.326 -0.09 0.64 -0.75 0.11
1 5.15 515 1.001 -9.381 3.295 -35.706 -6.439 25.726 -779.942 -809.922 -2084.992 -1.057 -0.293 -1.725 -0.09 0.64 -0.75 0.11
1 5.16 516 0.814 -9.400 2.950 -9.430 -9.247 25.055 -690.000 -719.981 -1994.900 -0.924 -0.283 -1.441 -0.09 0.64 -0.75 0.11
1 5.17 517 0.709 -9.486 3.108 13.489 -9.277 22.125 -690.000 -719.981 -1994.900 -0.844 -0.195 -1.593 -0.09 0.64 -0.75 0.11
1 5.18 518 0.804 -9.151 3.433 24.262 -8.118 22.064 -839.903 -794.932 -1994.900 -0.962 -0.524 -1.881 -0.09 0.64 -0.75 0.11
1 5.19 519 0.685 -8.854 3.582 24.750 -6.042 21.393 -674.860 -704.991 -1964.920 -0.865 -0.812 -1.978 -0.09 0.64 -0.75 0.11
1 5.20 520 0.321 -8.217 3.481 14.923 -2.197 16.235 -674.860 -704.991 -1964.920 -0.522 -1.440 -1.827 -0.08 0.64 -0.76 0.12
1 5.21 521 0.172 -8.117 3.084 0.366 -2.838 9.033 -749.961 -734.971 -2084.992 -0.392 -1.533 -1.387 -0.08 0.64 -0.76 0.12
1 5.22 522 -0.134 -8.404 3.184 0.397 -5.096 4.517 -749.961 -734.971 -2084.992 -0.098 -1.243 -1.474 -0.08 0.64 -0.76 0.12
1 5.23 523 -0.316 -9.003 2.854 -4.639 -5.035 -0.763 -914.854 -749.961 -1994.900 0.079 -0.643 -1.138 -0.08 0.64 -0.76 0.12
1 5.24 524 -0.215 -9.630 2.605 -2.228 -6.928 -4.425 -914.854 -749.961 -1994.900 -0.017 -0.015 -0.885 -0.08 0.64 -0.76 0.12
1 5.25 525 0.057 -10.133 2.476 2.716 -10.895 -8.392 -764.952 -719.981 -2129.962 -0.279 0.488 -0.751 -0.09 0.64 -0.76 0.12
1 5.26 526 0.508 -10.238 2.662 12.360 -15.106 -8.972 -749.961 -734.971 -2114.972 -0.710 0.595 -0.924 -0.09 0.64 -0.76 0.12
1 5.27 527 1.025 -9.984 2.591 23.773 -15.778 -8.453 -749.961 -734.971 -2114.972 -1.204 0.346 -0.824 -0.09 0.63 -0.76 0.12
1 5.28 528 1.159 -9.721 2.820 26.489 -12.299 -3.815 -734.971 -719.981 -2129.962 -1.313 0.091 -1.011 -0.09 0.63 -0.76 0.12
1 5.29 529 1.053 -9.405 2.797 17.792 -10.895 -0.549 -734.971 -719.981 -2129.962 -1.187 -0.217 -0.939 -0.09 0.63 -0.76 0.12
1 5.30 530 0.623 -9.199 2.600 11.231 -12.634 2.167 -764.952 -749.961 -2204.914 -0.730 -0.410 -0.678 -0.09 0.63 -0.76 0.12
1 5.31 531 0.718 -9.156 2.433 12.024 -12.299 1.434 -764.952 -749.961 -2204.914 -0.818 -0.449 -0.488 -0.09 0.63 -0.76 0.12
1 5.32 532 0.771 -9.113 2.404 13.794 -13.428 1.953 -674.860 -779.942 -2159.943 -0.862 -0.487 -0.436 -0.09 0.63 -0.77 0.12
1 5.33 533 0.986 -8.993 2.500 16.052 -14.160 1.343 -749.961 -779.942 -2189.923 -1.069 -0.602 -0.507 -0.09 0.62 -0.77 0.12
1 5.34 534 1.053 -8.873 2.461 17.517 -12.451 -1.556 -749.961 -779.942 -2189.923 -1.124 -0.716 -0.440 -0.1 0.62 -0.77 0.12
1 5.35 535 1.183 -9.055 2.313 25.055 -10.712 -0.946 -659.870 -869.883 -2099.982 -1.239 -0.527 -0.260 -0.1 0.62 -0.77 0.12
1 5.36 536 1.245 -9.103 2.332 24.475 -7.355 -1.587 -659.870 -869.883 -2099.982 -1.285 -0.471 -0.240 -0.1 0.62 -0.77 0.12
1 5.37 537 1.293 -8.969 2.121 21.790 -5.432 -1.343 -539.948 -869.883 -2129.962 -1.317 -0.596 0.010 -0.1 0.62 -0.77 0.12
1 5.38 538 1.058 -9.026 2.121 18.219 -3.540 -2.411 -779.942 -854.893 -2219.904 -1.054 -0.525 0.072 -0.1 0.62 -0.77 0.12
1 5.39 539 0.881 -9.175 2.217 12.909 0.580 -1.801 -674.860 -779.942 -2114.972 -0.864 -0.370 0.003 -0.1 0.61 -0.77 0.12
1 5.40 540 0.819 -9.180 1.666 5.035 1.495 0.671 -629.890 -779.942 -2219.904 -0.791 -0.362 0.570 -0.1 0.61 -0.77 0.12
1 5.41 541 0.876 -9.060 1.939 32.166 -6.592 3.815 -629.890 -779.942 -2219.904 -0.845 -0.477 0.315 -0.1 0.61 -0.77 0.12
1 5.42 542 1.279 -8.964 1.968 28.412 3.448 -0.641 -899.864 -779.942 -2189.923 -1.241 -0.562 0.331 -0.1 0.61 -0.78 0.12
1 5.43 543 1.365 -8.801 1.982 24.628 7.477 2.594 -899.864 -779.942 -2189.923 -1.317 -0.715 0.359 -0.1 0.61 -0.78 0.12
1 5.44 544 1.374 -8.849 1.939 21.881 6.104 3.601 -839.903 -869.883 -2279.865 -1.322 -0.658 0.437 -0.1 0.61 -0.78 0.12
1 5.45 545 1.642 -8.916 1.872 13.428 8.118 2.655 -839.903 -839.903 -2174.933 -1.583 -0.577 0.560 -0.1 0.61 -0.78 0.12
1 5.46 546 1.686 -9.055 1.877 9.369 10.345 2.655 -854.893 -884.874 -2219.904 -1.621 -0.434 0.571 -0.1 0.6 -0.78 0.12
1 5.47 547 1.619 -9.180 1.480 6.836 12.573 3.479 -690.000 -914.854 -2429.917 -1.549 -0.307 0.977 -0.1 0.6 -0.78 0.12
1 5.48 548 1.575 -9.189 1.398 6.653 14.465 3.265 -690.000 -914.854 -2429.917 -1.503 -0.296 1.063 -0.1 0.6 -0.78 0.12
1 5.49 549 1.628 -9.448 1.537 6.897 15.686 2.960 -734.971 -914.854 -2279.865 -1.553 -0.037 0.927 -0.1 0.6 -0.78 0.12
1 5.50 550 1.446 -9.275 1.422 7.599 18.005 3.784 -734.971 -914.854 -2279.865 -1.369 -0.208 1.046 -0.1 0.6 -0.78 0.12
1 5.51 551 1.413 -8.983 1.322 9.308 19.836 4.822 -824.913 -1049.916 -2294.855 -1.335 -0.499 1.150 -0.1 0.6 -0.78 0.12
1 5.52 552 0.876 -8.260 1.202 7.782 23.285 5.188 -690.000 -914.854 -2204.914 -0.811 -1.218 1.286 -0.09 0.6 -0.78 0.12
1 5.53 553 0.728 -8.074 1.274 -1.495 24.139 3.967 -779.942 -929.994 -2294.855 -0.677 -1.403 1.223 -0.09 0.6 -0.78 0.11
1 5.54 554 0.321 -8.131 1.245 -11.505 25.116 2.472 -794.932 -914.854 -2354.966 -0.284 -1.347 1.246 -0.09 0.6 -0.78 0.11
1 5.55 555 0.034 -8.495 1.192 -21.454 24.078 0.671 -794.932 -914.854 -2354.966 -0.008 -0.989 1.278 -0.09 0.61 -0.78 0.11
1 5.56 556 -0.081 -8.825 1.183 -24.414 19.898 -1.312 -749.961 -884.874 -2294.855 0.100 -0.667 1.255 -0.09 0.61 -0.78 0.11
1 5.57 557 0.335 -9.405 1.006 -15.045 13.001 -1.465 -749.961 -884.874 -2294.855 -0.321 -0.097 1.393 -0.09 0.61 -0.78 0.11
1 5.58 558 0.690 -9.400 1.111 -4.303 11.444 -0.702 -659.870 -839.903 -2324.985 -0.676 -0.110 1.254 -0.09 0.61 -0.78 0.11
1 5.59 559 1.010 -9.271 1.030 3.418 11.963 3.876 -690.000 -944.984 -2204.914 -0.996 -0.244 1.316 -0.09 0.61 -0.78 0.11
1 5.60 560 1.226 -8.701 0.718 5.249 12.085 8.331 -734.971 -869.883 -2204.914 -1.218 -0.816 1.622 -0.08 0.61 -0.78 0.11
1 5.61 561 1.484 -8.476 0.527 0.793 12.665 10.559 -734.971 -1064.906 -2279.865 -1.488 -1.040 1.816 -0.08 0.61 -0.78 0.11
1 5.62 562 1.772 -8.509 0.910 -7.172 16.907 13.977 -734.971 -1064.906 -2279.865 -1.790 -1.008 1.426 -0.08 0.61 -0.78 0.11
1 5.63 563 1.781 -8.763 3.639 -8.514 20.050 15.045 -659.870 -944.984 -2354.966 -1.826 -0.757 -1.316 -0.08 0.61 -0.78 0.11
1 5.64 564 -1.053 -10.497 6.560 -9.125 22.247 -8.057 -659.870 -944.984 -2354.966 0.994 0.975 -4.240 -0.08 0.61 -0.78 0.11
1 5.65 565 -4.477 -13.576 6.235 -83.710 29.816 -56.793 -734.971 -749.961 -2279.865 4.416 4.056 -3.910 -0.08 0.61 -0.78 0.1
1 5.66 566 -4.506 -12.565 1.168 -95.063 -1.831 -48.737 -749.961 -929.994 -2219.904 4.505 3.023 1.064 -0.08 0.62 -0.78 0.1
1 5.67 567 -1.279 -10.631 -0.575 0.671 -58.502 -54.962 -629.890 -854.893 -2264.875 1.442 1.041 2.587 -0.09 0.62 -0.77 0.09
1 5.68 568 1.628 -10.391 1.264 36.926 -43.457 -32.959 -659.870 -869.883 -2129.962 -1.377 0.805 0.755 -0.09 0.62 -0.77 0.09
1 5.69 569 2.768 -10.425 3.098 23.163 -10.437 -13.123 -659.870 -869.883 -2129.962 -2.461 0.849 -1.038 -0.1 0.62 -0.77 0.09
1 5.70 570 2.835 -11.828 3.984 -26.062 2.991 -5.585 -629.890 -704.991 -2294.855 -2.501 2.256 -1.906 -0.1 0.62 -0.77 0.09
1 5.71 571 2.241 -13.317 4.137 -76.538 -11.047 1.740 -629.890 -704.991 -2294.855 -1.901 3.733 -2.118 -0.1 0.62 -0.77 0.09
1 5.72 572 2.557 -14.126 3.137 -78.949 -7.721 -0.885 -764.952 -869.883 -2129.962 -2.216 4.517 -1.241 -0.1 0.63 -0.77 0.09
1 5.73 573 2.088 -13.681 2.701 -32.410 11.047 -5.463 -629.890 -884.874 -2159.943 -1.744 4.048 -0.931 -0.1 0.63 -0.76 0.09
1 5.74 574 -0.067 -11.789 2.873 23.193 23.956 -1.373 -659.870 -674.860 -2279.865 0.418 2.146 -1.166 -0.1 0.63 -0.76 0.09
1 5.75 575 -0.963 -10.793 3.424 17.883 17.761 -5.127 -779.942 -704.991 -2084.992 1.312 1.156 -1.679 -0.1 0.63 -0.76 0.09
1 5.76 576 -0.948 -10.291 3.793 -7.111 5.768 -10.864 -779.942 -704.991 -2084.992 1.305 0.657 -2.030 -0.1 0.63 -0.76 0.09
1 5.77 577 -0.350 -10.200 3.922 -24.048 -2.228 -11.047 -704.991 -734.971 -2084.992 0.723 0.564 -2.177 -0.1 0.63 -0.76 0.09
1 5.78 578 -0.077 -10.401 3.668 -22.583 2.747 -7.202 -704.991 -734.971 -2084.992 0.467 0.759 -1.960 -0.1 0.63 -0.76 0.09
1 5.79 579 -0.503 -10.171 2.983 -11.993 18.280 1.953 -734.971 -719.981 -2249.884 0.901 0.524 -1.305 -0.1 0.64 -0.76 0.09
1 5.80 580 -0.857 -9.864 2.916 -6.409 14.740 3.510 -764.952 -719.981 -2024.881 1.249 0.215 -1.251 -0.1 0.64 -0.76 0.09
1 5.81 581 -0.785 -9.601 3.266 -2.289 3.876 3.662 -764.952 -719.981 -2024.881 1.161 -0.049 -1.602 -0.1 0.64 -0.76 0.09
1 5.82 582 -0.982 -9.079 3.443 0.305 -2.930 3.723 -704.991 -659.870 -2084.992 1.328 -0.570 -1.764 -0.1 0.64 -0.76 0.09
1 5.83 583 -0.824 -8.725 3.352 -5.219 -0.397 0.519 -704.991 -659.870 -2084.992 1.158 -0.922 -1.661 -0.1 0.64 -0.76 0.09
1 5.84 584 -0.905 -8.543 3.046 -9.888 -1.587 -1.068 -779.942 -509.968 -2009.891 1.231 -1.104 -1.350 -0.1 0.64 -0.76 0.09
1 5.85 585 -0.752 -8.294 2.753 -13.458 -5.707 -2.258 -779.942 -509.968 -2009.891 1.073 -1.354 -1.063 -0.1 0.64 -0.76 0.09
1 5.86 586 0.062 -8.572 2.706 -9.186 -6.928 -6.531 -629.890 -779.942 -2159.943 0.264 -1.078 -1.029 -0.1 0.64 -0.76 0.09
1 5.87 587 0.359 -8.964 2.682 -10.132 -2.808 -2.991 -659.870 -719.981 -2069.852 -0.021 -0.688 -1.019 -0.1 0.64 -0.76 0.09
1 5.88 588 0.230 -9.735 2.653 -8.698 6.409 0.977 -839.903 -644.880 -2174.933 0.118 0.082 -1.002 -0.1 0.64 -0.76 0.09
1 5.89 589 0.010 -9.927 2.610 -9.644 7.996 1.404 -614.899 -599.909 -2174.933 0.336 0.272 -0.964 -0.1 0.64 -0.76 0.09
1 5.90 590 -1.106 -9.716 2.514 -11.353 8.575 2.075 -614.899 -599.909 -2174.933 1.442 0.059 -0.879 -0.1 0.64 -0.76 0.09
1 5.91 591 -1.360 -9.721 2.504 -5.341 4.089 -1.587 -704.991 -629.890 -1964.920 1.683 0.062 -0.877 -0.1 0.64 -0.76 0.09
1 5.92 592 -1.422 -9.496 2.356 -1.251 -1.343 0.824 -704.991 -629.890 -1964.920 1.735 -0.163 -0.728 -0.1 0.64 -0.76 0.09
1 5.93 593 -1.384 -9.223 2.203 1.221 -3.387 1.160 -764.952 -719.981 -2099.982 1.683 -0.435 -0.569 -0.1 0.64 -0.76 0.09
1 5.94 594 -1.116 -8.787 2.212 5.646 -4.547 -1.404 -779.942 -704.991 -2039.871 1.403 -0.870 -0.571 -0.09 0.64 -0.76 0.09
1 5.95 595 -0.939 -8.931 2.102 3.754 -7.782 -2.106 -779.942 -704.991 -2039.871 1.218 -0.725 -0.449 -0.09 0.64 -0.76 0.09
1 5.96 596 -0.742 -8.916 2.241 -9.979 -11.475 0.397 -734.971 -674.860 -2129.962 1.013 -0.738 -0.580 -0.1 0.64 -0.76 0.09
1 5.97 597 -0.464 -9.161 2.174 -10.071 -10.895 3.204 -734.971 -674.860 -2129.962 0.730 -0.496 -0.524 -0.1 0.64 -0.76 0.09
1 5.98 598 -0.235 -9.295 1.978 -10.651 -11.383 2.747 -794.932 -674.860 -2024.881 0.494 -0.364 -0.337 -0.1 0.64 -0.76 0.09
1 5.99 599 -0.115 -9.275 1.829 -8.972 -10.040 3.052 -794.932 -674.860 -2024.881 0.370 -0.385 -0.201 -0.1 0.64 -0.76 0.1
1 6.00 600 0.163 -9.304 1.724 -6.226 -8.759 3.632 -749.961 -629.890 -2114.972 0.089 -0.358 -0.106 -0.1 0.64 -0.76 0.1
1 6.01 601 -0.144 -9.022 1.781 -1.709 -3.815 -0.336 -659.870 -794.932 -2069.852 0.393 -0.642 -0.170 -0.1 0.64 -0.76 0.1
1 6.02 602 -0.192 -8.696 1.676 2.106 0.214 -2.167 -659.870 -794.932 -2069.852 0.441 -0.968 -0.067 -0.1 0.64 -0.76 0.1
1 6.03 603 -0.383 -8.514 1.590 -3.082 2.838 -5.005 -659.870 -569.929 -2099.982 0.635 -1.149 0.024 -0.1 0.64 -0.76 0.1
1 6.04 604 -0.488 -8.816 1.451 -9.430 -0.519 -8.331 -734.971 -644.880 -1949.930 0.757 -0.849 0.150 -0.1 0.64 -0.76 0.1
1 6.05 605 -0.522 -8.715 1.528 -13.886 -3.632 -6.866 -824.913 -704.991 -2009.891 0.800 -0.952 0.056 -0.1 0.64 -0.76 0.1
1 6.06 606 -0.460 -8.710 1.350 -5.859 -2.045 -8.209 -824.913 -704.991 -2009.891 0.744 -0.959 0.216 -0.1 0.64 -0.76 0.1
1 6.07 607 -0.579 -8.859 1.360 0.000 1.343 -8.087 -779.942 -629.890 -2039.871 0.873 -0.811 0.202 -0.1 0.64 -0.76 0.1
1 6.08 608 -0.608 -8.581 1.331 12.512 -4.974 -10.010 -824.913 -539.948 -2039.871 0.906 -1.089 0.231 -0.1 0.64 -0.76 0.1
1 6.09 609 -0.728 -8.955 1.317 -4.150 -0.610 -7.233 -824.913 -539.948 -2039.871 1.036 -0.713 0.259 -0.1 0.64 -0.76 0.1
1 6.10 610 -0.680 -8.758 1.513 -6.744 -2.930 -3.845 -794.932 -494.978 -2099.982 1.000 -0.908 0.066 -0.1 0.64 -0.76 0.1
1 6.11 611 -0.508 -8.658 1.393 -16.113 -2.258 -8.118 -749.961 -539.948 -2039.871 0.831 -1.013 0.160 -0.1 0.64 -0.76 0.1
1 6.12 612 -0.378 -8.907 1.408 -13.947 -1.617 -10.529 -929.994 -629.890 -2159.943 0.714 -0.767 0.122 -0.1 0.64 -0.75 0.1
1 6.13 613 -0.402 -9.041 1.312 -9.430 -1.831 -8.392 -929.994 -629.890 -2159.943 0.749 -0.636 0.199 -0.1 0.64 -0.75 0.1
1 6.14 614 -0.503 -9.070 1.298 -8.972 0.275 -8.698 -794.932 -449.857 -1994.900 0.858 -0.609 0.199 -0.11 0.64 -0.75 0.1
1 6.15 615 -0.685 -9.319 1.360 -8.148 0.336 -9.613 -839.903 -569.929 -2024.881 1.048 -0.362 0.123 -0.11 0.64 -0.75 0.09
1 6.16 616 -0.895 -9.400 1.255 -8.667 -3.479 -10.559 -839.903 -569.929 -2024.881 1.267 -0.282 0.216 -0.11 0.64 -0.75 0.09
1 6.17 617 -0.833 -9.429 1.049 -9.827 -6.134 -10.162 -899.864 -464.997 -2009.891 1.215 -0.255 0.407 -0.11 0.64 -0.75 0.09
1 6.18 618 -0.728 -9.319 0.757 -8.026 -10.590 -10.345 -839.903 -674.860 -1994.900 1.128 -0.369 0.666 -0.11 0.64 -0.75 0.09
1 6.19 619 -0.474 -9.433 0.661 -1.160 -12.482 -8.759 -734.971 -569.929 -1949.930 0.884 -0.256 0.746 -0.11 0.65 -0.75 0.1
1 6.20 620 -0.508 -9.539 0.737 -2.228 -10.193 -10.010 -734.971 -569.929 -1949.930 0.928 -0.151 0.664 -0.11 0.65 -0.75 0.1
1 6.21 621 -0.067 -9.702 0.651 -3.601 -10.803 -9.369 -824.913 -584.919 -1964.920 0.498 0.011 0.742 -0.11 0.65 -0.75 0.1
1 6.22 622 -0.148 -9.850 0.886 -3.845 -12.451 -8.453 -869.883 -524.958 -1844.998 0.592 0.158 0.496 -0.11 0.65 -0.75 0.1
1 6.23 623 -0.077 -9.955 1.183 -0.305 -11.261 -9.186 -869.883 -524.958 -1844.998 0.532 0.263 0.189 -0.11 0.65 -0.75 0.1
1 6.24 624 -0.024 -9.984 0.886 4.486 -7.477 -7.324 -854.893 -359.916 -2039.871 0.493 0.291 0.480 -0.12 0.65 -0.75 0.1
1 6.25 625 -0.273 -9.855 0.929 9.094 -5.890 -6.866 -1094.887 -494.978 -2174.933 0.752 0.163 0.439 -0.12 0.65 -0.75 0.1
1 6.26 626 -0.388 -9.740 1.331 7.294 -9.399 -4.913 -824.913 -629.890 -2039.871 0.882 0.051 0.055 -0.12 0.64 -0.75 0.1
1 6.27 627 -0.211 -9.601 1.470 1.068 -12.634 -3.510 -824.913 -629.890 -2039.871 0.709 -0.087 -0.077 -0.12 0.64 -0.75 0.1
1 6.28 628 -0.062 -9.730 1.264 -6.287 -11.292 -0.153 -929.994 -539.948 -2039.871 0.563 0.043 0.127 -0.12 0.64 -0.75 0.1
1 6.29 629 -0.292 -10.056 0.905 -11.688 -6.226 4.700 -929.994 -629.890 -2189.923 0.790 0.366 0.474 -0.12 0.64 -0.75 0.1
1 6.30 630 -0.862 -10.655 0.374 -11.871 2.106 11.353 -929.994 -629.890 -2189.923 1.348 0.961 0.984 -0.12 0.65 -0.75 0.1
1 6.31 631 -1.513 -10.798 0.110 -9.247 -0.763 11.047 -899.864 -629.890 -2084.992 1.978 1.100 1.223 -0.12 0.65 -0.75 0.1
1 6.32 632 -1.130 -11.445 1.796 5.310 -15.717 5.035 -929.994 -509.968 -1964.920 1.558 1.742 -0.489 -0.12 0.65 -0.75 0.1
1 6.33 633 -0.718 -12.072 2.361 10.925 -19.531 5.341 -899.864 -584.919 -2009.891 1.144 2.370 -1.043 -0.12 0.65 -0.75 0.11
1 6.34 634 2.375 -15.438 3.625 -15.045 -30.243 30.945 -899.864 -584.919 -2009.891 -1.964 5.737 -2.301 -0.12 0.65 -0.75 0.11
1 6.35 635 3.663 -13.892 2.495 -26.306 -34.302 52.002 -899.864 -509.968 -2084.992 -3.300 4.184 -1.205 -0.12 0.65 -0.74 0.11
1 6.36 636 3.261 -11.402 1.446 7.965 -10.590 56.763 -869.883 -644.880 -2249.884 -2.971 1.687 -0.186 -0.12 0.65 -0.74 0.12
1 6.37 637 1.882 -9.366 0.101 33.447 23.224 53.864 -869.883 -644.880 -2249.884 -1.675 -0.347 1.184 -0.12 0.65 -0.74 0.12
1 6.38 638 -1.053 -8.959 -0.235 -1.526 29.022 35.523 -854.893 -539.948 -2159.943 1.186 -0.749 1.564 -0.11 0.65 -0.74 0.12
1 6.39 639 -2.107 -10.334 0.670 -45.227 21.423 19.989 -854.893 -314.945 -2114.972 2.179 0.626 0.667 -0.11 0.65 -0.74 0.12
1 6.40 640 -2.155 -14.112 2.069 -68.085 16.754 5.188 -794.932 -524.958 -1949.930 2.152 4.383 -0.892 -0.11 0.65 -0.74 0.12
1 6.41 641 -1.949 -14.586 1.097 -32.471 12.512 9.338 -794.932 -524.958 -1949.930 1.934 4.846 -0.013 -0.11 0.66 -0.74 0.12
1 6.42 642 -1.724 -13.284 0.460 27.191 3.387 9.857 -659.870 -374.906 -1994.900 1.694 3.541 0.598 -0.11 0.66 -0.73 0.12
1 6.43 643 -0.982 -11.483 0.661 66.681 -7.202 5.737 -899.864 -434.867 -2039.871 0.940 1.747 0.456 -0.11 0.66 -0.74 0.12
1 6.44 644 -0.187 -10.262 1.647 65.369 -14.130 6.531 -899.864 -434.867 -2039.871 0.139 0.538 -0.428 -0.1 0.65 -0.74 0.12
1 6.45 645 1.020 -9.644 3.098 15.778 -10.773 15.198 -779.942 -359.916 -2009.891 -1.075 -0.068 -1.789 -0.1 0.65 -0.74 0.12
1 6.46 646 1.207 -9.807 3.237 -16.541 0.458 18.433 -749.961 -434.867 -2084.992 -1.272 0.101 -1.882 -0.1 0.65 -0.74 0.13
1 6.47 647 0.742 -10.492 2.404 -30.792 7.324 14.435 -839.903 -524.958 -2069.852 -0.839 0.782 -1.079 -0.1 0.65 -0.74 0.13
1 6.48 648 0.426 -10.315 2.361 -10.254 5.432 15.778 -839.903 -524.958 -2069.852 -0.542 0.601 -1.070 -0.1 0.65 -0.74 0.13
1 6.49 649 0.225 -9.903 2.552 15.045 1.678 13.489 -749.961 -629.890 -2159.943 -0.358 0.189 -1.260 -0.1 0.65 -0.74 0.13
1 6.50 650 0.201 -9.381 3.017 34.821 1.495 9.857 -690.000 -449.857 -2024.881 -0.349 -0.327 -1.686 -0.1 0.65 -0.74 0.13
1 6.51 651 0.168 -8.988 3.529 39.581 1.678 11.841 -690.000 -449.857 -2024.881 -0.326 -0.710 -2.132 -0.1 0.65 -0.74 0.13
1 6.52 652 0.101 -8.184 3.826 25.330 -1.221 19.318 -494.978 -434.867 -2009.891 -0.276 -1.504 -2.358 -0.1 0.64 -0.75 0.13
1 6.53 653 -0.062 -7.872 3.807 13.947 -3.723 19.257 -569.929 -464.997 -2114.972 -0.136 -1.806 -2.279 -0.1 0.64 -0.75 0.13
1 6.54 654 -0.110 -7.734 3.409 5.066 -4.425 14.618 -569.929 -464.997 -2114.972 -0.115 -1.937 -1.838 -0.1 0.64 -0.75 0.13
1 6.55 655 -0.656 -8.126 3.031 0.366 -6.256 12.512 -629.890 -434.867 -2159.943 0.392 -1.541 -1.447 -0.1 0.64 -0.75 0.13
1 6.56 656 -0.852 -8.471 2.686 2.472 -10.254 10.834 -569.929 -509.968 -2264.875 0.573 -1.196 -1.100 -0.1 0.64 -0.75 0.13
1 6.57 657 -0.704 -9.156 2.591 9.522 -14.740 10.254 -794.932 -599.909 -2024.881 0.410 -0.509 -0.993 -0.1 0.64 -0.75 0.14
1 6.58 658 -0.441 -9.539 2.734 15.717 -16.632 9.644 -794.932 -599.909 -2024.881 0.133 -0.121 -1.111 -0.1 0.64 -0.75 0.14
1 6.59 659 0.043 -9.864 2.773 20.020 -15.747 5.646 -764.952 -569.929 -2024.881 -0.359 0.211 -1.116 -0.1 0.64 -0.75 0.14
1 6.60 660 0.359 -9.979 2.864 27.069 -17.761 0.549 -674.860 -584.919 -2039.871 -0.675 0.333 -1.163 -0.1 0.64 -0.75 0.14
1 6.61 661 0.474 -9.927 2.888 21.393 -19.043 -1.282 -674.860 -584.919 -2039.871 -0.784 0.289 -1.137 -0.1 0.63 -0.75 0.14
1 6.62 662 0.752 -9.678 2.571 19.470 -20.294 -2.472 -749.961 -584.919 -2189.923 -1.031 0.054 -0.742 -0.1 0.63 -0.76 0.14
1 6.63 663 1.082 -9.175 2.571 22.888 -19.867 -5.707 -569.929 -539.948 -2264.875 -1.342 -0.442 -0.705 -0.1 0.63 -0.76 0.14
1 6.64 664 1.044 -9.180 2.428 23.773 -17.304 -8.759 -734.971 -599.909 -2204.914 -1.278 -0.430 -0.520 -0.1 0.63 -0.76 0.14
1 6.65 665 1.111 -8.950 2.279 22.034 -17.944 -8.331 -734.971 -599.909 -2204.914 -1.316 -0.653 -0.332 -0.1 0.62 -0.76 0.14
1 6.66 666 1.030 -9.003 2.351 20.599 -17.609 -7.324 -584.919 -524.958 -2324.985 -1.207 -0.593 -0.369 -0.1 0.62 -0.76 0.14
1 6.67 667 1.097 -9.170 2.332 13.733 -14.740 -6.989 -764.952 -449.857 -2174.933 -1.247 -0.419 -0.316 -0.11 0.62 -0.76 0.14
1 6.68 668 1.097 -9.184 2.059 10.162 -12.756 -5.585 -764.952 -449.857 -2174.933 -1.221 -0.400 -0.017 -0.11 0.62 -0.76 0.14
1 6.69 669 0.991 -9.448 1.896 13.702 -12.451 -2.594 -674.860 -539.948 -2369.956 -1.072 -0.129 0.182 -0.11 0.62 -0.77 0.14
1 6.70 670 1.010 -9.304 1.959 16.388 -11.322 -0.763 -779.942 -584.919 -2189.923 -1.076 -0.268 0.142 -0.11 0.62 -0.77 0.14
1 6.71 671 0.838 -9.117 1.987 23.316 -9.491 1.587 -824.913 -704.991 -2264.875 -0.894 -0.448 0.145 -0.11 0.62 -0.77 0.14
1 6.72 672 0.881 -8.950 1.853 26.733 -9.399 2.991 -824.913 -704.991 -2264.875 -0.929 -0.608 0.313 -0.11 0.61 -0.77 0.14
1 6.73 673 1.006 -8.682 1.949 23.834 -5.219 4.761 -779.942 -659.870 -2264.875 -1.048 -0.867 0.255 -0.11 0.61 -0.77 0.14
1 6.74 674 0.905 -8.710 2.045 20.355 -1.434 5.463 -764.952 -644.880 -2279.865 -0.943 -0.830 0.194 -0.11 0.61 -0.77 0.14
1 6.75 675 0.723 -8.988 2.064 6.622 3.662 6.500 -764.952 -644.880 -2279.865 -0.759 -0.545 0.206 -0.11 0.61 -0.77 0.14
1 6.76 676 0.910 -8.854 1.987 36.072 -5.341 6.989 -690.000 -749.961 -2279.865 -0.953 -0.668 0.328 -0.11 0.61 -0.77 0.14
1 6.77 677 0.991 -8.998 1.987 34.454 -2.167 2.838 -599.909 -629.890 -2444.907 -1.032 -0.513 0.378 -0.11 0.61 -0.77 0.14
1 6.78 678 1.279 -8.763 1.887 28.534 6.897 3.723 -794.932 -569.929 -2279.865 -1.314 -0.736 0.523 -0.11 0.6 -0.78 0.14
1 6.79 679 1.149 -8.533 1.915 23.834 9.216 3.357 -794.932 -569.929 -2279.865 -1.182 -0.956 0.531 -0.11 0.6 -0.78 0.14
1 6.80 680 1.207 -8.552 1.968 19.867 8.850 4.059 -704.991 -659.870 -2369.956 -1.243 -0.929 0.510 -0.11 0.6 -0.78 0.14
1 6.81 681 1.192 -8.437 1.556 12.756 8.209 3.937 -734.971 -794.932 -2324.985 -1.232 -1.037 0.947 -0.11 0.6 -0.78 0.14
1 6.82 682 1.283 -8.380 1.441 0.275 8.392 3.906 -734.971 -794.932 -2324.985 -1.331 -1.091 1.078 -0.11 0.6 -0.78 0.14
1 6.83 683 1.317 -8.615 1.508 -2.869 9.430 3.296 -659.870 -674.860 -2324.985 -1.372 -0.855 1.014 -0.1 0.6 -0.78 0.14
1 6.84 684 1.700 -9.252 1.571 -10.529 14.618 3.265 -749.961 -884.874 -2414.927 -1.760 -0.223 0.933 -0.1 0.6 -0.78 0.14
1 6.85 685 1.599 -9.472 1.484 -15.167 17.609 3.540 -839.903 -749.961 -2324.985 -1.657 -0.009 0.995 -0.1 0.6 -0.78 0.14
1 6.86 686 1.470 -9.467 1.446 -15.656 20.050 3.754 -839.903 -749.961 -2324.985 -1.526 -0.021 1.005 -0.1 0.6 -0.78 0.14
1 6.87 687 1.202 -9.295 1.360 -11.292 20.722 3.662 -704.991 -779.942 -2294.855 -1.258 -0.201 1.062 -0.1 0.61 -0.78 0.14
1 6.88 688 1.063 -8.868 1.168 -6.561 21.790 1.770 -674.860 -704.991 -2339.976 -1.121 -0.633 1.231 -0.1 0.61 -0.78 0.13
1 6.89 689 0.493 -8.332 0.876 -7.294 25.024 0.031 -674.860 -704.991 -2339.976 -0.551 -1.174 1.506 -0.1 0.61 -0.78 0.13
1 6.90 690 0.196 -8.351 0.939 -11.200 24.017 -2.502 -584.919 -674.860 -2279.865 -0.259 -1.158 1.430 -0.1 0.61 -0.78 0.13
1 6.91 691 0.053 -8.792 1.149 -23.285 17.334 -7.080 -690.000 -719.981 -2354.966 -0.120 -0.727 1.179 -0.1 0.61 -0.78 0.13
1 6.92 692 0.249 -9.343 1.240 -27.832 12.482 -7.172 -569.929 -779.942 -2444.907 -0.309 -0.186 1.049 -0.09 0.61 -0.78 0.13
1 6.93 693 0.450 -9.936 1.250 -25.848 10.590 -6.775 -569.929 -779.942 -2444.907 -0.501 0.396 0.991 -0.09 0.61 -0.77 0.12
1 6.94 694 0.761 -10.329 1.092 -16.907 11.902 -4.913 -629.890 -734.971 -2264.875 -0.803 0.779 1.107 -0.09 0.62 -0.77 0.12
1 6.95 695 0.982 -10.224 0.709 -3.967 14.343 0.763 -509.968 -749.961 -2279.865 -1.015 0.667 1.461 -0.09 0.62 -0.77 0.12
1 6.96 696 1.293 -9.520 0.570 11.139 16.846 7.477 -509.968 -749.961 -2279.865 -1.325 -0.040 1.588 -0.09 0.62 -0.77 0.12
1 6.97 697 1.384 -9.156 1.911 16.327 16.357 8.667 -659.870 -569.929 -2384.946 -1.422 -0.403 0.249 -0.09 0.62 -0.77 0.12
1 6.98 698 1.422 -9.668 4.750 20.447 12.390 5.005 -659.870 -569.929 -2384.946 -1.467 0.112 -2.578 -0.09 0.62 -0.77 0.12
1 6.99 699 -1.968 -12.934 6.541 -41.992 21.362 -37.079 -569.929 -629.890 -2294.855 1.934 3.386 -4.332 -0.09 0.62 -0.77 0.12
1 7.00 700 -3.711 -13.523 3.261 -79.468 17.639 -46.112 -569.929 -629.890 -2294.855 3.733 3.956 -1.135 -0.09 0.62 -0.77 0.11
1 7.01 701 -2.552 -11.358 -0.230 -30.457 -28.412 -39.551 -599.909 -704.991 -2339.976 2.636 1.770 2.252 -0.09 0.62 -0.77 0.11
1 7.02 702 0.488 -10.022 -0.737 29.968 -59.052 -42.481 -614.899 -719.981 -2354.966 -0.331 0.430 2.739 -0.1 0.62 -0.77 0.11
1 7.03 703 3.673 -9.601 0.675 46.539 -44.556 -21.240 -614.899 -719.981 -2354.966 -3.444 0.017 1.358 -0.1 0.62 -0.77 0.11
1 7.04 704 4.568 -10.075 3.381 -4.517 21.973 2.808 -674.860 -704.991 -2414.927 -4.285 0.502 -1.302 -0.11 0.62 -0.77 0.11
1 7.05 705 3.500 -11.933 4.295 -59.570 30.304 0.244 -674.860 -704.991 -2414.927 -3.207 2.363 -2.208 -0.11 0.62 -0.77 0.11
1 7.06 706 1.001 -13.614 3.036 -83.802 14.679 -9.003 -749.961 -629.890 -2444.907 -0.716 4.003 -1.141 -0.1 0.63 -0.77 0.1
1 7.07 707 0.268 -13.106 1.997 -39.551 17.120 -10.315 -749.961 -629.890 -2444.907 0.028 3.475 -0.211 -0.1 0.63 -0.76 0.1
1 7.08 708 -0.081 -11.818 1.829 11.292 25.726 -11.688 -794.932 -674.860 -2279.865 0.389 2.180 -0.081 -0.1 0.63 -0.76 0.1
1 7.09 709 -0.460 -10.640 2.447 32.959 26.428 -14.710 -704.991 -584.919 -2264.875 0.780 1.008 -0.669 -0.1 0.63 -0.76 0.1
1 7.10 710 -0.474 -9.970 3.089 22.247 17.304 -15.350 -704.991 -584.919 -2264.875 0.810 0.347 -1.262 -0.1 0.63 -0.76 0.1
1 7.11 711 -0.469 -9.592 3.682 -12.787 9.949 -13.672 -690.000 -494.978 -2204.914 0.818 -0.024 -1.825 -0.1 0.63 -0.77 0.09
1 7.12 712 -0.718 -9.860 3.481 -22.278 17.761 -13.733 -690.000 -494.978 -2204.914 1.079 0.244 -1.623 -0.1 0.63 -0.77 0.09
1 7.13 713 -1.006 -10.315 2.653 -18.097 17.151 -4.974 -704.991 -509.968 -2294.855 1.379 0.692 -0.833 -0.1 0.63 -0.76 0.09
1 7.14 714 -1.235 -10.420 2.720 -13.062 12.360 -0.946 -704.991 -509.968 -2294.855 1.600 0.794 -0.915 -0.1 0.63 -0.76 0.09
1 7.15 715 -0.872 -10.157 3.213 -7.690 -4.028 1.068 -704.991 -509.968 -2414.927 1.229 0.529 -1.419 -0.1 0.63 -0.76 0.09
1 7.16 716 -0.436 -9.726 3.376 -6.348 -7.782 3.387 -584.919 -494.978 -2354.966 0.784 0.097 -1.583 -0.1 0.63 -0.76 0.09
1 7.17 717 -0.374 -9.457 3.702 -7.874 -7.324 2.380 -584.919 -494.978 -2354.966 0.714 -0.171 -1.907 -0.1 0.63 -0.76 0.09
1 7.18 718 -0.354 -9.017 3.553 -9.613 -1.373 4.486 -614.899 -644.880 -2174.933 0.688 -0.611 -1.757 -0.1 0.63 -0.76 0.09
1 7.19 719 -0.503 -8.830 3.304 -10.437 -1.862 4.334 -614.899 -644.880 -2174.933 0.828 -0.798 -1.508 -0.1 0.63 -0.76 0.09
1 7.20 720 -0.421 -8.706 3.256 -10.345 -3.845 -1.709 -659.870 -449.857 -2279.865 0.728 -0.924 -1.465 -0.1 0.63 -0.76 0.09
1 7.21 721 -0.177 -8.787 3.041 -10.010 -2.747 -3.754 -659.870 -449.857 -2279.865 0.485 -0.844 -1.253 -0.1 0.63 -0.76 0.09
1 7.22 722 0.412 -9.247 3.194 -7.294 1.373 -7.263 -674.860 -434.867 -2219.904 -0.095 -0.384 -1.408 -0.1 0.63 -0.76 0.09
1 7.23 723 0.292 -9.462 3.007 -1.038 9.064 -6.714 -659.870 -494.978 -2249.884 0.036 -0.168 -1.219 -0.1 0.63 -0.76 0.09
1 7.24 724 0.067 -9.903 3.093 2.258 16.602 -7.660 -659.870 -494.978 -2249.884 0.269 0.275 -1.295 -0.1 0.63 -0.76 0.09
1 7.25 725 -0.541 -10.501 3.156 1.068 20.020 -7.690 -704.991 -464.997 -2264.875 0.884 0.877 -1.343 -0.1 0.63 -0.76 0.09
1 7.26 726 -1.125 -10.635 2.998 -3.571 13.001 -4.425 -704.991 -464.997 -2264.875 1.473 1.012 -1.179 -0.1 0.63 -0.76 0.09
1 7.27 727 -1.111 -10.477 2.888 0.702 6.866 -3.326 -674.860 -434.867 -2264.875 1.463 0.853 -1.073 -0.1 0.63 -0.76 0.09
1 7.28 728 -1.125 -9.999 2.768 13.062 5.737 -0.641 -690.000 -449.857 -2279.865 1.483 0.377 -0.943 -0.1 0.63 -0.77 0.09
1 7.29 729 -1.015 -9.582 2.581 14.710 6.500 1.984 -690.000 -449.857 -2324.985 1.361 -0.035 -0.729 -0.09 0.63 -0.77 0.09
1 7.30 730 -1.116 -9.625 2.974 13.214 3.662 5.005 -629.890 -434.867 -2294.855 1.448 0.013 -1.093 -0.09 0.63 -0.77 0.09
1 7.31 731 -1.058 -9.807 2.945 4.059 1.129 7.172 -629.890 -434.867 -2294.855 1.372 0.199 -1.041 -0.09 0.63 -0.77 0.09
1 7.32 732 -1.063 -10.032 2.715 -2.594 -1.465 10.956 -464.997 -524.958 -2249.884 1.355 0.426 -0.799 -0.09 0.63 -0.77 0.09
1 7.33 733 -1.188 -9.682 2.437 -5.859 -4.974 11.780 -464.997 -524.958 -2249.884 1.455 0.075 -0.522 -0.09 0.63 -0.77 0.09
1 7.34 734 -1.144 -9.568 2.337 -2.869 -8.820 10.803 -690.000 -494.978 -2429.917 1.385 -0.041 -0.425 -0.09 0.63 -0.77 0.09
1 7.35 735 -0.436 -9.275 2.188 -3.296 -12.390 9.125 -509.968 -524.958 -2249.884 0.632 -0.335 -0.281 -0.09 0.63 -0.77 0.09
1 7.36 736 -0.134 -9.261 2.289 -6.592 -9.735 7.141 -599.909 -314.945 -2339.976 0.317 -0.350 -0.385 -0.09 0.63 -0.77 0.09
1 7.37 737 -0.101 -9.237 2.322 -4.639 -4.578 4.974 -690.000 -494.978 -2279.865 0.275 -0.376 -0.425 -0.09 0.63 -0.77 0.09
1 7.38 738 -0.254 -9.161 2.217 -5.524 -0.275 5.951 -690.000 -494.978 -2279.865 0.421 -0.453 -0.323 -0.09 0.63 -0.77 0.09
1 7.39 739 -0.402 -9.079 2.160 -8.057 2.655 3.387 -539.948 -494.978 -2279.865 0.559 -0.536 -0.271 -0.09 0.63 -0.77 0.1
1 7.40 740 -0.776 -8.677 1.748 -0.885 -0.336 1.801 -539.948 -494.978 -2279.865 0.923 -0.940 0.132 -0.09 0.63 -0.77 0.1
1 7.41 741 -0.857 -8.495 1.710 13.550 -1.770 -1.953 -599.909 -359.916 -2294.855 0.996 -1.122 0.169 -0.09 0.63 -0.77 0.1
1 7.42 742 -0.800 -8.246 1.882 18.036 -1.953 -2.319 -614.899 -494.978 -2279.865 0.937 -1.368 0.011 -0.09 0.63 -0.77 0.1
1 7.43 743 -0.986 -8.404 2.002 3.387 -1.129 0.305 -690.000 -329.935 -2204.914 1.134 -1.200 -0.059 -0.09 0.63 -0.77 0.1
1 7.44 744 -1.010 -8.236 2.160 -4.700 -2.777 1.831 -674.860 -509.968 -2414.927 1.158 -1.368 -0.216 -0.09 0.63 -0.77 0.1
1 7.45 745 -1.068 -8.222 1.992 -4.669 -6.287 -0.275 -674.860 -509.968 -2414.927 1.215 -1.384 -0.056 -0.09 0.63 -0.77 0.1
1 7.46 746 -0.728 -8.126 1.781 2.258 -9.247 -4.486 -629.890 -584.919 -2219.904 0.880 -1.480 0.150 -0.09 0.63 -0.77 0.1
1 7.47 747 -0.713 -8.212 1.662 6.287 -10.345 -5.219 -629.890 -584.919 -2219.904 0.877 -1.393 0.275 -0.09 0.63 -0.77 0.1
1 7.48 748 -0.776 -7.911 1.791 1.617 -7.202 -3.510 -779.942 -434.867 -2264.875 0.949 -1.693 0.155 -0.09 0.63 -0.77 0.1
1 7.49 749 -0.776 -7.906 1.710 -6.592 -6.531 -7.050 -569.929 -509.968 -2294.855 0.957 -1.696 0.241 -0.09 0.63 -0.77 0.1
1 7.50 750 -0.986 -8.366 1.762 -13.855 -8.667 -9.491 -690.000 -419.876 -2204.914 1.195 -1.241 0.165 -0.09 0.63 -0.77 0.1
1 7.51 751 -0.943 -8.548 1.777 -14.679 -10.132 -12.177 -569.929 -359.916 -2294.855 1.170 -1.062 0.130 -0.09 0.63 -0.77 0.1
1 7.52 752 -0.929 -9.161 1.542 -7.874 -13.031 -11.993 -569.929 -359.916 -2294.855 1.178 -0.453 0.344 -0.09 0.63 -0.77 0.1
1 7.53 753 -0.766 -9.165 1.480 -2.319 -11.444 -12.268 -794.932 -449.857 -2354.966 1.030 -0.450 0.395 -0.1 0.63 -0.77 0.1
1 7.54 754 -0.895 -8.864 1.341 1.556 -10.925 -10.559 -794.932 -449.857 -2354.966 1.172 -0.752 0.530 -0.1 0.63 -0.77 0.1
1 7.55 755 -0.608 -8.581 1.403 2.655 -13.214 -11.139 -764.952 -329.935 -2354.966 0.897 -1.034 0.469 -0.1 0.63 -0.77 0.1
1 7.56 756 -0.560 -8.586 1.374 -2.716 -15.015 -11.566 -659.870 -374.906 -2204.914 0.863 -1.028 0.500 -0.1 0.63 -0.77 0.1
1 7.57 757 -0.326 -8.969 1.365 -15.595 -13.947 -12.421 -690.000 -449.857 -2384.946 0.671 -0.647 0.491 -0.1 0.63 -0.77 0.1
1 7.58 758 -0.072 -9.218 1.398 -19.318 -12.634 -12.268 -749.961 -389.896 -2339.976 0.436 -0.403 0.429 -0.1 0.63 -0.76 0.1
1 7.59 759 -0.053 -9.864 1.250 -21.332 -10.956 -10.407 -749.961 -389.896 -2339.976 0.435 0.237 0.543 -0.1 0.63 -0.76 0.1
1 7.60 760 -0.081 -10.099 1.207 -15.167 -9.522 -8.911 -794.932 -449.857 -2324.985 0.479 0.466 0.552 -0.11 0.63 -0.76 0.1
1 7.61 761 -0.120 -10.295 1.183 -8.087 -9.247 -9.003 -794.932 -449.857 -2324.985 0.530 0.659 0.550 -0.11 0.63 -0.76 0.1
1 7.62 762 -0.407 -10.214 1.245 2.747 -9.155 -10.223 -779.942 -239.994 -2294.855 0.831 0.575 0.474 -0.11 0.63 -0.76 0.1
1 7.63 763 -0.455 -10.228 1.312 5.951 -8.057 -9.674 -704.991 -389.896 -2294.855 0.892 0.590 0.403 -0.11 0.63 -0.76 0.1
1 7.64 764 -0.445 -10.147 1.283 1.556 -9.552 -8.820 -869.883 -374.906 -2429.917 0.904 0.511 0.440 -0.11 0.63 -0.76 0.1
1 7.65 765 -0.369 -10.204 1.240 -0.305 -9.674 -8.575 -764.952 -449.857 -2279.865 0.837 0.568 0.479 -0.11 0.63 -0.76 0.1
1 7.66 766 -0.412 -10.358 0.857 -5.890 -9.583 -3.662 -764.952 -449.857 -2279.865 0.887 0.719 0.851 -0.11 0.63 -0.76 0.1
1 7.67 767 -0.589 -10.420 0.680 -5.585 -6.836 -0.732 -749.961 -434.867 -2339.976 1.065 0.779 1.013 -0.11 0.63 -0.76 0.1
1 7.68 768 -0.790 -10.573 0.484 -3.479 -4.669 0.793 -749.961 -434.867 -2339.976 1.262 0.930 1.195 -0.11 0.63 -0.76 0.1
1 7.69 769 -1.178 -10.631 0.239 -3.784 -6.042 2.014 -839.903 -254.984 -2324.985 1.640 0.984 1.424 -0.11 0.63 -0.76 0.1
1 7.70 770 -1.523 -10.784 0.685 -6.042 -13.245 -1.617 -704.991 -359.916 -2189.923 1.974 1.134 0.961 -0.11 0.64 -0.76 0.1
1 7.71 771 -1.216 -11.411 2.404 -4.822 -17.853 -1.495 -704.991 -359.916 -2189.923 1.667 1.758 -0.773 -0.11 0.64 -0.76 0.1
1 7.72 772 0.474 -14.687 3.386 -9.522 -27.222 14.618 -914.854 -449.857 -2459.897 -0.013 5.032 -1.766 -0.12 0.64 -0.76 0.1
1 7.73 773 3.055 -15.003 2.959 -38.147 -40.497 40.375 -914.854 -449.857 -2459.897 -2.617 5.343 -1.368 -0.12 0.64 -0.76 0.1
1 7.74 774 3.558 -11.818 1.590 -9.430 -41.626 49.347 -929.994 -434.867 -2414.927 -3.173 2.147 -0.053 -0.12 0.64 -0.75 0.11
1 7.75 775 2.375 -9.338 0.843 41.199 -3.052 49.469 -929.994 -434.867 -2414.927 -2.055 -0.335 0.700 -0.12 0.64 -0.75 0.11
1 7.76 776 0.637 -8.179 -0.048 30.975 32.074 34.821 -929.994 -314.945 -2369.956 -0.381 -1.485 1.657 -0.11 0.64 -0.75 0.12
1 7.77 777 -1.733 -9.443 0.522 -22.217 15.015 25.757 -839.903 -299.955 -2249.884 1.926 -0.212 1.147 -0.11 0.63 -0.76 0.12
1 7.78 778 -1.628 -11.497 2.026 -66.590 -1.434 18.951 -839.903 -299.955 -2249.884 1.775 1.840 -0.368 -0.11 0.64 -0.76 0.12
1 7.79 779 -0.943 -14.059 2.370 -54.932 9.613 13.367 -749.961 -359.916 -2369.956 1.026 4.369 -0.913 -0.11 0.64 -0.75 0.12
1 7.80 780 -1.130 -13.240 0.848 2.716 13.306 16.388 -749.961 -359.916 -2369.956 1.190 3.541 0.549 -0.11 0.65 -0.75 0.12
1 7.81 781 -1.523 -11.574 0.503 52.338 5.646 12.787 -839.903 -299.955 -2429.917 1.558 1.878 0.919 -0.1 0.65 -0.75 0.12
1 7.82 782 -1.446 -10.219 1.312 62.836 -5.432 5.432 -839.903 -299.955 -2429.917 1.466 0.536 0.196 -0.1 0.64 -0.75 0.12
1 7.83 783 -0.867 -9.955 2.423 38.330 -14.740 4.272 -704.991 -359.916 -2189.923 0.877 0.286 -0.830 -0.1 0.64 -0.75 0.12
1 7.84 784 -0.244 -10.501 3.529 -21.607 -20.813 14.710 -599.909 -239.994 -2444.907 0.244 0.839 -1.890 -0.1 0.64 -0.75 0.12
1 7.85 785 0.129 -10.334 3.227 -38.269 -18.646 18.585 -599.909 -239.994 -2444.907 -0.147 0.671 -1.595 -0.1 0.64 -0.75 0.12
1 7.86 786 0.555 -10.209 2.591 -24.567 -15.930 16.998 -690.000 -254.984 -2324.985 -0.594 0.537 -1.012 -0.1 0.64 -0.75 0.12
1 7.87 787 1.092 -9.534 2.279 14.710 -17.761 21.210 -674.860 -314.945 -2339.976 -1.168 -0.144 -0.740 -0.1 0.64 -0.75 0.13
1 7.88 788 1.465 -9.050 2.888 31.464 -18.372 18.860 -734.971 -254.984 -2384.946 -1.558 -0.622 -1.313 -0.1 0.64 -0.75 0.13
1 7.89 789 1.681 -8.777 3.582 34.424 -13.489 18.799 -734.971 -254.984 -2384.946 -1.784 -0.885 -1.949 -0.1 0.64 -0.75 0.13
1 7.90 790 1.528 -8.639 3.931 21.698 -6.775 28.534 -629.890 -284.964 -2339.976 -1.644 -1.013 -2.237 -0.1 0.63 -0.75 0.13
1 7.91 791 1.010 -8.241 4.013 6.195 0.061 33.814 -629.890 -359.916 -2444.907 -1.156 -1.402 -2.274 -0.1 0.63 -0.76 0.13
1 7.92 792 0.134 -7.935 3.424 -15.595 0.641 29.358 -629.890 -359.916 -2444.907 -0.319 -1.704 -1.663 -0.1 0.63 -0.76 0.14
1 7.93 793 -0.421 -8.102 2.907 -19.043 -2.289 20.050 -734.971 -449.857 -2354.966 0.195 -1.537 -1.156 -0.1 0.63 -0.76 0.14
1 7.94 794 -0.876 -8.629 2.428 -6.317 -7.599 15.503 -674.860 -359.916 -2519.858 0.596 -1.018 -0.724 -0.1 0.64 -0.75 0.14
1 7.95 795 -0.963 -8.787 2.682 8.637 -11.658 14.099 -569.929 -239.994 -2339.976 0.659 -0.858 -0.973 -0.1 0.64 -0.75 0.14
1 7.96 796 -0.685 -8.888 2.634 13.397 -10.315 8.606 -569.929 -239.994 -2339.976 0.362 -0.753 -0.901 -0.1 0.63 -0.75 0.14
1 7.97 797 -0.450 -9.208 2.864 8.759 -8.759 4.059 -509.968 -374.906 -2384.946 0.117 -0.427 -1.104 -0.1 0.63 -0.75 0.14
1 7.98 798 0.172 -9.400 2.562 3.296 -11.932 -1.312 -584.919 -449.857 -2429.917 -0.507 -0.232 -0.784 -0.1 0.63 -0.76 0.14
1 7.99 799 0.915 -9.951 2.480 1.526 -17.151 -3.540 -584.919 -449.857 -2429.917 -1.239 0.321 -0.690 -0.1 0.63 -0.76 0.14
1 8.00 800 1.322 -10.128 2.476 3.876 -16.144 -3.479 -614.899 -224.854 -2459.897 -1.628 0.499 -0.677 -0.1 0.63 -0.76 0.14
1 8.01 801 1.370 -9.587 2.504 8.545 -8.606 -2.228 -539.948 -299.955 -2459.897 -1.636 -0.038 -0.681 -0.1 0.63 -0.76 0.14
1 8.02 802 1.082 -9.405 2.557 11.353 -6.561 -2.777 -659.870 -254.984 -2504.868 -1.329 -0.217 -0.713 -0.1 0.63 -0.76 0.14
1 8.03 803 0.594 -9.017 2.380 11.780 -6.348 -2.441 -659.870 -254.984 -2504.868 -0.825 -0.600 -0.511 -0.1 0.63 -0.76 0.14
1 8.04 804 0.666 -8.768 2.203 9.766 -10.223 -5.798 -599.909 -509.968 -2414.927 -0.882 -0.845 -0.312 -0.1 0.63 -0.76 0.14
1 8.05 805 0.876 -8.562 2.361 4.791 -11.017 -8.606 -734.971 -374.906 -2429.917 -1.072 -1.049 -0.453 -0.1 0.63 -0.76 0.14
1 8.06 806 1.154 -8.768 2.308 0.916 -6.653 -10.590 -734.971 -374.906 -2429.917 -1.325 -0.841 -0.391 -0.1 0.63 -0.76 0.14
1 8.07 807 1.111 -8.969 2.294 4.608 -4.059 -8.362 -629.890 -284.964 -2414.927 -1.255 -0.639 -0.370 -0.1 0.63 -0.76 0.14
1 8.08 808 1.279 -9.376 2.083 5.554 -1.770 -7.172 -794.932 -419.876 -2534.999 -1.375 -0.228 -0.137 -0.11 0.62 -0.76 0.14
1 8.09 809 1.183 -9.390 2.097 4.700 -0.610 -6.378 -509.968 -329.935 -2384.946 -1.258 -0.212 -0.143 -0.11 0.62 -0.76 0.14
1 8.10 810 1.092 -9.496 2.140 9.888 0.549 -0.977 -509.968 -329.935 -2384.946 -1.150 -0.105 -0.175 -0.11 0.62 -0.76 0.14
1 8.11 811 0.915 -9.213 2.059 12.543 2.106 0.793 -674.860 -359.916 -2444.907 -0.964 -0.384 -0.076 -0.11 0.62 -0.76 0.13
1 8.12 812 0.977 -9.041 2.016 11.414 3.082 1.404 -704.991 -434.867 -2474.888 -1.019 -0.553 -0.015 -0.11 0.62 -0.76 0.13
1 8.13 813 0.828 -9.036 2.169 11.902 5.859 3.784 -704.991 -434.867 -2474.888 -0.865 -0.553 -0.148 -0.11 0.62 -0.77 0.13
1 8.14 814 0.766 -8.658 1.623 5.310 7.080 7.141 -764.952 -419.876 -2459.897 -0.804 -0.929 0.412 -0.11 0.62 -0.77 0.13
1 8.15 815 0.704 -8.935 1.891 17.731 2.411 6.531 -749.961 -359.916 -2624.940 -0.747 -0.649 0.150 -0.1 0.62 -0.77 0.13
1 8.16 816 0.776 -9.046 1.829 7.324 9.033 3.448 -749.961 -464.997 -2474.888 -0.824 -0.530 0.255 -0.1 0.62 -0.77 0.13
1 8.17 817 0.814 -9.156 1.815 1.099 10.345 5.737 -749.961 -464.997 -2474.888 -0.864 -0.418 0.277 -0.1 0.62 -0.77 0.13
1 8.18 818 0.852 -9.065 1.820 -1.892 10.132 5.493 -734.971 -419.876 -2534.999 -0.906 -0.509 0.271 -0.1 0.62 -0.77 0.13
1 8.19 819 0.862 -9.309 1.815 -3.906 9.247 4.791 -599.909 -314.945 -2549.989 -0.919 -0.266 0.270 -0.1 0.62 -0.77 0.13
1 8.20 820 0.953 -9.438 1.671 -6.653 10.162 3.876 -599.909 -314.945 -2549.989 -1.012 -0.139 0.406 -0.1 0.62 -0.77 0.13
1 8.21 821 1.192 -9.687 1.671 -7.324 11.932 3.815 -704.991 -389.896 -2519.858 -1.251 0.108 0.395 -0.1 0.62 -0.77 0.13
1 8.22 822 1.437 -9.682 1.551 -5.951 13.123 5.127 -614.899 -374.906 -2564.979 -1.494 0.100 0.502 -0.1 0.62 -0.77 0.13
1 8.23 823 1.389 -9.405 1.513 0.458 17.029 7.385 -629.890 -389.896 -2549.989 -1.449 -0.182 0.520 -0.1 0.62 -0.77 0.13
1 8.24 824 1.518 -9.228 1.413 2.625 20.477 5.676 -629.890 -389.896 -2549.989 -1.581 -0.359 0.619 -0.1 0.62 -0.77 0.12
1 8.25 825 1.269 -9.261 1.528 0.519 26.489 2.930 -509.968 -374.906 -2609.950 -1.334 -0.326 0.503 -0.1 0.62 -0.77 0.12
1 8.26 826 1.001 -9.429 1.571 -2.899 29.877 0.275 -690.000 -254.984 -2429.917 -1.067 -0.159 0.456 -0.09 0.62 -0.77 0.12
1 8.27 827 0.666 -9.505 1.360 -4.944 29.327 -1.831 -690.000 -254.984 -2429.917 -0.731 -0.084 0.658 -0.09 0.62 -0.77 0.12
1 8.28 828 0.215 -9.046 1.092 -0.305 26.459 -1.770 -584.919 -419.876 -2534.999 -0.280 -0.546 0.915 -0.09 0.62 -0.77 0.12
1 8.29 829 0.086 -8.758 1.020 4.852 25.086 -4.120 -599.909 -434.867 -2519.858 -0.151 -0.835 0.980 -0.09 0.62 -0.77 0.12
1 8.30 830 -0.062 -8.562 0.852 5.951 23.590 -7.111 -599.909 -434.867 -2519.858 -0.003 -1.032 1.147 -0.09 0.62 -0.77 0.11
1 8.31 831 -0.177 -8.854 0.953 -4.059 18.890 -8.301 -449.857 -314.945 -2594.959 0.122 -0.737 1.058 -0.09 0.62 -0.77 0.11
1 8.32 832 0.110 -9.405 1.039 -12.421 15.289 -8.789 -584.919 -449.857 -2534.999 -0.158 -0.190 0.955 -0.08 0.63 -0.77 0.11
1 8.33 833 0.335 -9.917 0.891 -15.808 12.329 -7.843 -659.870 -374.906 -2504.868 -0.373 0.317 1.077 -0.08 0.63 -0.77 0.11
1 8.34 834 0.541 -10.233 0.737 -9.247 12.238 -4.120 -659.870 -374.906 -2504.868 -0.569 0.627 1.201 -0.08 0.63 -0.77 0.11
1 8.35 835 0.872 -10.037 0.532 9.186 12.939 1.404 -359.916 -374.906 -2534.999 -0.893 0.427 1.390 -0.08 0.63 -0.77 0.1
1 8.36 836 1.192 -9.826 0.354 16.144 13.428 4.791 -509.968 -329.935 -2459.897 -1.211 0.216 1.565 -0.08 0.63 -0.77 0.1
1 8.37 837 1.523 -9.735 0.857 14.740 12.482 7.050 -509.968 -329.935 -2459.897 -1.542 0.127 1.073 -0.08 0.63 -0.77 0.1
1 8.38 838 1.609 -9.922 4.324 14.740 9.399 6.653 -614.899 -299.955 -2504.868 -1.633 0.319 -2.367 -0.08 0.63 -0.77 0.1
1 8.39 839 0.393 -11.387 5.497 -0.031 15.045 -11.475 -524.958 -389.896 -2549.989 -0.418 1.790 -3.516 -0.08 0.63 -0.77 0.1
1 8.40 840 -2.313 -13.427 4.611 -52.307 24.384 -39.276 -389.896 -449.857 -2639.930 2.313 3.825 -2.650 -0.08 0.63 -0.77 0.1
1 8.41 841 -2.753 -11.938 0.934 -39.948 2.869 -28.504 -389.896 -449.857 -2639.930 2.804 2.320 0.947 -0.08 0.63 -0.77 0.09
1 8.42 842 -1.484 -10.233 -0.412 18.829 -35.004 -31.494 -344.925 -359.916 -2519.858 1.579 0.609 2.255 -0.08 0.63 -0.77 0.09
1 8.43 843 1.824 -10.190 1.312 40.100 -30.212 -25.513 -659.870 -419.876 -2459.897 -1.675 0.572 0.564 -0.09 0.63 -0.77 0.09
1 8.44 844 2.380 -10.386 2.883 8.148 1.404 -8.820 -659.870 -419.876 -2459.897 -2.174 0.780 -0.957 -0.09 0.63 -0.77 0.09
1 8.45 845 1.777 -12.522 3.251 -39.429 15.228 -12.787 -629.890 -284.964 -2549.989 -1.526 2.916 -1.329 -0.09 0.63 -0.77 0.09
1 8.46 846 1.374 -13.231 2.816 -47.180 -0.336 -10.498 -584.919 -299.955 -2609.950 -1.107 3.613 -0.956 -0.09 0.63 -0.77 0.09
1 8.47 847 0.895 -13.269 2.021 -18.372 -1.434 -8.179 -659.870 -299.955 -2609.950 -0.613 3.639 -0.224 -0.09 0.63 -0.76 0.09
1 8.48 848 0.766 -12.264 2.265 19.714 9.705 -11.566 -659.870 -299.955 -2609.950 -0.469 2.632 -0.480 -0.09 0.63 -0.76 0.09
1 8.49 849 0.675 -11.617 2.662 32.898 19.104 -12.909 -704.991 -464.997 -2474.888 -0.362 1.993 -0.839 -0.09 0.63 -0.77 0.08
1 8.50 850 0.043 -10.937 3.453 9.247 12.909 -13.886 -569.929 -389.896 -2414.927 0.284 1.323 -1.583 -0.09 0.63 -0.77 0.08
1 8.51 851 -0.153 -10.860 3.515 -7.935 6.531 -15.045 -569.929 -389.896 -2414.927 0.498 1.251 -1.622 -0.09 0.63 -0.77 0.08
1 8.52 852 -0.244 -10.693 2.902 -5.554 7.751 -11.566 -539.948 -374.906 -2609.950 0.629 1.081 -1.030 -0.09 0.63 -0.77 0.08
1 8.53 853 -0.283 -10.611 2.844 0.214 8.942 -8.637 -659.870 -224.854 -2609.950 0.681 1.000 -0.976 -0.09 0.63 -0.77 0.08
1 8.54 854 -0.661 -9.764 2.758 12.512 8.545 -2.075 -629.890 -284.964 -2519.858 1.064 0.155 -0.877 -0.09 0.63 -0.77 0.08
1 8.55 855 -0.809 -9.314 2.873 9.430 4.639 -0.854 -629.890 -284.964 -2519.858 1.206 -0.291 -0.967 -0.09 0.63 -0.77 0.08
1 8.56 856 -0.570 -9.007 3.079 -2.289 -0.824 0.305 -734.971 -254.984 -2609.950 0.959 -0.594 -1.155 -0.09 0.63 -0.77 0.08
1 8.57 857 -0.426 -9.060 3.137 -9.033 -2.533 4.761 -704.991 -284.964 -2669.911 0.807 -0.541 -1.209 -0.09 0.63 -0.77 0.08
1 8.58 858 -0.493 -9.103 3.093 -9.338 1.892 7.446 -704.991 -284.964 -2669.911 0.864 -0.499 -1.169 -0.09 0.63 -0.77 0.08
1 8.59 859 -0.608 -8.782 2.892 -1.801 2.472 8.331 -674.860 -284.964 -2699.891 0.964 -0.821 -0.971 -0.09 0.63 -0.77 0.08
1 8.60 860 -0.713 -8.428 2.591 7.782 -2.716 2.197 -434.867 -224.854 -2564.979 1.035 -1.173 -0.651 -0.09 0.63 -0.77 0.08
1 8.61 861 -0.570 -8.193 2.868 11.536 -6.134 -2.258 -734.971 -254.984 -2564.979 0.884 -1.404 -0.908 -0.09 0.63 -0.77 0.08
1 8.62 862 -0.038 -8.284 2.672 4.272 -6.775 -4.517 -734.971 -254.984 -2564.979 0.359 -1.309 -0.697 -0.09 0.63 -0.77 0.08
1 8.63 863 0.239 -8.409 2.658 -1.343 -1.678 -5.310 -614.899 -419.876 -2609.950 0.091 -1.184 -0.679 -0.09 0.63 -0.77 0.08
1 8.64 864 0.048 -9.553 2.911 -13.916 9.338 -4.547 -614.899 -374.906 -2639.930 0.292 -0.040 -0.938 -0.09 0.63 -0.77 0.08
1 8.65 865 -0.215 -10.056 2.643 -17.975 13.367 -1.892 -614.899 -374.906 -2639.930 0.560 0.461 -0.681 -0.09 0.63 -0.77 0.08
1 8.66 866 -0.824 -10.506 2.658 -9.216 12.238 -3.418 -690.000 -299.955 -2534.999 1.166 0.907 -0.714 -0.09 0.63 -0.77 0.08
1 8.67 867 -1.379 -9.994 2.409 14.404 5.646 -3.021 -734.971 -179.883 -2564.979 1.714 0.393 -0.471 -0.08 0.63 -0.77 0.08
1 8.68 868 -1.489 -9.745 2.485 20.142 1.740 -1.099 -584.919 -299.955 -2564.979 1.816 0.149 -0.520 -0.08 0.63 -0.77 0.08
1 8.69 869 -1.470 -9.333 2.615 10.315 -1.923 4.334 -584.919 -299.955 -2564.979 1.783 -0.256 -0.618 -0.08 0.63 -0.77 0.08
1 8.70 870 -1.154 -9.161 2.600 -3.021 -4.852 7.843 -734.971 -374.906 -2534.999 1.448 -0.427 -0.590 -0.08 0.62 -0.77 0.08
1 8.71 871 -1.116 -9.194 2.519 -8.637 -7.080 7.019 -494.978 -359.916 -2549.989 1.389 -0.394 -0.510 -0.08 0.63 -0.77 0.08
1 8.72 872 -0.766 -9.486 2.327 -12.787 -11.169 5.402 -494.978 -359.916 -2549.989 1.023 -0.104 -0.328 -0.08 0.63 -0.77 0.08
1 8.73 873 -0.488 -9.615 2.471 -7.904 -11.292 8.179 -629.890 -284.964 -2669.911 0.733 0.021 -0.489 -0.08 0.63 -0.77 0.08
1 8.74 874 -0.283 -9.721 2.380 0.366 -9.033 9.949 -629.890 -284.964 -2669.911 0.513 0.124 -0.408 -0.08 0.63 -0.77 0.08
1 8.75 875 -0.158 -9.141 2.370 0.092 -5.951 9.338 -599.909 -119.922 -2669.911 0.357 -0.455 -0.392 -0.08 0.63 -0.77 0.08
1 8.76 876 -0.129 -9.031 2.442 -4.395 -4.730 8.148 -599.909 -119.922 -2669.911 0.315 -0.565 -0.462 -0.08 0.63 -0.77 0.09
1 8.77 877 -0.005 -8.749 2.222 -11.047 -3.174 4.974 -539.948 -329.935 -2564.979 0.180 -0.849 -0.247 -0.08 0.63 -0.77 0.09
1 8.78 878 -0.010 -8.610 2.231 -12.482 0.061 1.862 -599.909 -284.964 -2519.858 0.179 -0.991 -0.271 -0.08 0.63 -0.77 0.09
1 8.79 879 -0.029 -8.562 2.131 -12.665 4.242 -0.549 -599.909 -284.964 -2519.858 0.196 -1.042 -0.186 -0.08 0.63 -0.77 0.09
1 8.80 880 -0.383 -8.418 2.006 -8.850 5.585 -4.059 -764.952 -329.935 -2684.901 0.552 -1.189 -0.080 -0.08 0.63 -0.77 0.09
1 8.81 881 -0.713 -8.562 2.021 -6.256 5.249 -3.052 -764.952 -329.935 -2684.901 0.886 -1.048 -0.108 -0.08 0.63 -0.77 0.09
1 8.82 882 -0.862 -8.524 1.968 -2.502 2.411 -3.540 -659.870 -299.955 -2429.917 1.041 -1.090 -0.073 -0.08 0.63 -0.77 0.08
1 8.83 883 -1.135 -8.495 1.987 6.195 -2.228 -4.303 -659.870 -299.955 -2429.917 1.320 -1.118 -0.093 -0.08 0.63 -0.77 0.08
1 8.84 884 -1.001 -8.332 2.030 12.756 -4.120 -6.683 -539.948 -179.883 -2534.999 1.195 -1.278 -0.122 -0.08 0.63 -0.77 0.08
1 8.85 885 -0.833 -8.648 2.102 8.301 -3.357 -6.287 -539.948 -224.854 -2534.999 1.040 -0.958 -0.174 -0.08 0.63 -0.77 0.08
1 8.86 886 -0.939 -8.428 2.030 0.305 -2.930 -3.815 -539.948 -224.854 -2534.999 1.151 -1.176 -0.093 -0.08 0.63 -0.77 0.08
1 8.87 887 -0.728 -8.701 2.121 -4.486 -5.402 -5.035 -539.948 -374.906 -2384.946 0.948 -0.903 -0.185 -0.08 0.63 -0.77 0.08
1 8.88 888 -0.718 -8.835 2.126 -7.172 -6.805 -5.066 -539.948 -374.906 -2384.946 0.948 -0.770 -0.196 -0.08 0.63 -0.77 0.08
1 8.89 889 -0.493 -8.667 2.030 -8.148 -4.181 -9.033 -584.919 -224.854 -2684.901 0.732 -0.941 -0.115 -0.08 0.63 -0.77 0.08
1 8.90 890 -0.555 -8.835 1.954 -13.092 -2.533 -9.674 -584.919 -224.854 -2684.901 0.805 -0.775 -0.051 -0.08 0.63 -0.77 0.08
1 8.91 891 -0.666 -9.208 1.944 -12.970 -4.150 -7.843 -690.000 -149.902 -2609.950 0.924 -0.405 -0.059 -0.09 0.63 -0.77 0.08
1 8.92 892 -0.728 -9.132 1.810 -12.024 -4.822 -8.637 -674.860 -284.964 -2699.891 0.994 -0.485 0.057 -0.09 0.63 -0.77 0.08
1 8.93 893 -0.555 -9.079 1.719 -8.606 -6.073 -11.200 -674.860 -284.964 -2699.891 0.830 -0.540 0.134 -0.09 0.63 -0.77 0.08
1 8.94 894 -0.685 -9.232 1.528 -8.911 -6.256 -9.644 -734.971 -179.883 -2534.999 0.972 -0.389 0.312 -0.09 0.63 -0.77 0.08
1 8.95 895 -0.670 -9.213 1.513 -11.139 -7.690 -10.620 -734.971 -179.883 -2534.999 0.969 -0.410 0.313 -0.09 0.63 -0.77 0.08
1 8.96 896 -0.718 -9.213 1.446 -14.191 -9.979 -10.498 -734.971 -104.932 -2534.999 1.041 -0.417 0.341 -0.09 0.63 -0.76 0.08
1 8.97 897 -0.618 -9.285 1.499 -14.374 -9.888 -10.529 -734.971 -104.932 -2534.999 0.952 -0.349 0.265 -0.09 0.63 -0.76 0.08
1 8.98 898 -0.656 -9.740 1.312 -13.794 -9.857 -9.796 -674.860 -209.863 -2519.858 1.003 0.102 0.428 -0.09 0.63 -0.76 0.08
1 8.99 899 -0.551 -10.123 1.164 -12.604 -9.613 -9.399 -614.899 -29.980 -2459.897 0.908 0.481 0.553 -0.09 0.64 -0.76 0.08
1 9.00 900 -0.498 -10.224 1.192 -9.613 -10.284 -8.575 -614.899 -29.980 -2459.897 0.865 0.578 0.502 -0.09 0.64 -0.76 0.08
1 9.01 901 -0.594 -10.157 1.259 -3.235 -11.353 -7.172 -794.932 -104.932 -2564.979 0.970 0.509 0.419 -0.09 0.64 -0.76 0.08
1 9.02 902 -0.704 -10.152 1.250 0.183 -12.177 -7.843 -794.932 -104.932 -2564.979 1.088 0.502 0.418 -0.09 0.64 -0.76 0.08
1 9.03 903 -0.790 -9.855 1.255 0.580 -12.665 -7.294 -779.942 -44.971 -2519.858 1.182 0.205 0.409 -0.1 0.64 -0.76 0.08
1 9.04 904 -0.699 -9.912 1.116 -6.348 -14.832 -7.294 -779.942 -119.922 -2594.959 1.105 0.261 0.537 -0.1 0.64 -0.76 0.08
1 9.05 905 -0.532 -10.133 1.144 -12.482 -16.480 -7.141 -749.961 -209.863 -2549.989 0.944 0.479 0.491 -0.1 0.64 -0.76 0.08
1 9.06 906 -0.402 -10.439 1.197 -14.526 -17.944 -5.707 -824.913 -119.922 -2549.989 0.823 0.782 0.414 -0.1 0.64 -0.76 0.09
1 9.07 907 -0.196 -10.736 1.197 -13.214 -16.968 -3.723 -824.913 -119.922 -2549.989 0.624 1.074 0.387 -0.1 0.64 -0.76 0.09
1 9.08 908 -0.292 -10.798 1.068 -2.899 -13.001 0.763 -914.854 -29.980 -2534.999 0.727 1.134 0.496 -0.1 0.64 -0.76 0.09
1 9.09 909 -0.436 -10.616 1.135 3.021 -10.925 2.197 -914.854 -29.980 -2534.999 0.875 0.950 0.420 -0.1 0.64 -0.76 0.09
1 9.10 910 -0.685 -10.477 0.905 7.385 -10.437 3.510 -854.893 -119.922 -2474.888 1.122 0.811 0.650 -0.1 0.64 -0.76 0.09
1 9.11 911 -1.025 -10.257 0.699 5.280 -11.810 4.730 -1004.945 -89.941 -2444.907 1.441 0.591 0.862 -0.1 0.64 -0.76 0.09
1 9.12 912 -0.991 -10.362 0.646 -3.510 -14.526 6.348 -779.942 -14.990 -2444.907 1.393 0.695 0.911 -0.11 0.64 -0.76 0.09
1 9.13 913 -1.053 -10.315 0.450 -9.094 -19.348 6.531 -914.854 -29.980 -2534.999 1.441 0.644 1.092 -0.11 0.64 -0.75 0.09
1 9.14 914 -0.881 -10.233 0.364 -9.979 -24.262 3.204 -914.854 -29.980 -2534.999 1.256 0.559 1.155 -0.11 0.64 -0.75 0.1
1 9.15 915 -0.766 -10.080 0.412 -9.033 -26.856 3.143 -824.913 14.990 -2474.888 1.134 0.401 1.082 -0.11 0.64 -0.75 0.1
1 9.16 916 -0.426 -10.190 1.729 2.289 -22.919 5.005 -824.913 14.990 -2474.888 0.787 0.508 -0.256 -0.11 0.64 -0.75 0.1
1 9.17 917 0.148 -11.382 2.169 4.761 -22.827 10.559 -929.994 -89.941 -2519.858 0.205 1.699 -0.704 -0.11 0.64 -0.75 0.1
1 9.18 918 2.289 -13.643 2.777 -22.430 -30.945 24.780 -944.984 -29.980 -2384.946 -1.945 3.960 -1.304 -0.11 0.64 -0.75 0.1
1 9.19 919 3.290 -11.943 1.978 -20.905 -33.051 41.992 -989.955 -29.980 -2684.901 -3.014 2.246 -0.584 -0.11 0.65 -0.75 0.11
1 9.20 920 2.442 -10.382 1.753 30.426 2.747 40.253 -869.883 -149.902 -2384.946 -2.222 0.682 -0.371 -0.11 0.65 -0.75 0.11
1 9.21 921 1.202 -9.903 1.523 49.011 26.856 37.232 -869.883 -149.902 -2384.946 -1.041 0.210 -0.084 -0.11 0.64 -0.75 0.11
1 9.22 922 -0.259 -10.195 1.700 18.402 14.404 30.945 -989.955 29.980 -2504.868 0.373 0.512 -0.194 -0.11 0.64 -0.75 0.11
1 9.23 923 -0.876 -10.626 2.121 -39.246 -4.334 19.379 -989.955 29.980 -2504.868 0.947 0.944 -0.607 -0.1 0.64 -0.75 0.12
1 9.24 924 -1.188 -10.832 1.997 -35.156 4.334 12.604 -929.994 -14.990 -2549.989 1.222 1.143 -0.528 -0.1 0.64 -0.75 0.12
1 9.25 925 -1.733 -11.124 1.810 -14.404 15.595 8.270 -869.883 29.980 -2429.917 1.747 1.426 -0.399 -0.1 0.65 -0.75 0.12
1 9.26 926 -2.299 -11.200 1.882 2.777 4.883 2.380 -899.864 -119.922 -2444.907 2.288 1.498 -0.506 -0.1 0.65 -0.75 0.12
1 9.27 927 -1.705 -10.837 2.442 12.451 -15.472 -1.740 -779.942 14.990 -2444.907 1.694 1.135 -1.059 -0.1 0.65 -0.75 0.12
1 9.28 928 -0.809 -10.621 3.122 22.064 -29.327 -0.946 -779.942 14.990 -2444.907 0.807 0.922 -1.716 -0.1 0.65 -0.75 0.12
1 9.29 929 0.426 -10.209 3.625 22.858 -29.785 6.531 -824.913 -44.971 -2369.956 -0.422 0.516 -2.185 -0.1 0.64 -0.75 0.12
1 9.30 930 1.451 -9.778 3.769 16.632 -23.468 17.914 -824.913 -44.971 -2369.956 -1.453 0.089 -2.296 -0.1 0.64 -0.75 0.12
1 9.31 931 1.753 -8.916 3.831 16.998 -13.641 25.208 -794.932 74.951 -2354.966 -1.773 -0.768 -2.327 -0.11 0.64 -0.75 0.12
1 9.32 932 1.791 -9.094 3.788 15.625 -12.695 25.879 -824.913 -44.971 -2369.956 -1.832 -0.584 -2.241 -0.11 0.64 -0.75 0.13
1 9.33 933 1.753 -9.098 3.702 -0.488 -16.693 23.865 -989.955 -29.980 -2384.946 -1.834 -0.568 -2.088 -0.1 0.64 -0.75 0.13
1 9.34 934 1.585 -9.208 3.807 -1.404 -12.482 20.722 -734.971 -149.902 -2429.917 -1.682 -0.455 -2.179 -0.11 0.64 -0.75 0.13
1 9.35 935 1.365 -9.170 3.606 2.960 -5.524 20.386 -734.971 -149.902 -2429.917 -1.474 -0.490 -1.962 -0.11 0.64 -0.75 0.13
1 9.36 936 0.972 -8.945 3.098 10.315 -1.190 14.160 -869.883 -74.951 -2504.868 -1.096 -0.712 -1.433 -0.1 0.64 -0.75 0.13
1 9.37 937 0.469 -8.777 2.806 16.663 -1.282 11.688 -869.883 -74.951 -2504.868 -0.602 -0.874 -1.110 -0.1 0.63 -0.75 0.13
1 9.38 938 0.172 -8.265 2.782 18.463 -4.852 9.766 -854.893 44.971 -2549.989 -0.316 -1.380 -1.050 -0.1 0.63 -0.76 0.14
1 9.39 939 -0.024 -8.461 3.074 9.583 -2.167 2.777 -854.893 -164.893 -2444.907 -0.130 -1.176 -1.305 -0.1 0.63 -0.76 0.14
1 9.40 940 -0.225 -9.026 2.820 -1.404 0.671 -3.387 -734.971 74.951 -2459.897 0.070 -0.604 -1.015 -0.1 0.63 -0.76 0.14
1 9.41 941 -0.311 -9.232 2.797 -2.991 -0.702 -5.737 -794.932 29.980 -2564.979 0.163 -0.398 -0.985 -0.1 0.63 -0.76 0.14
1 9.42 942 0.019 -9.726 2.495 0.671 -6.165 -12.299 -794.932 29.980 -2564.979 -0.152 0.096 -0.680 -0.1 0.63 -0.76 0.14
1 9.43 943 0.508 -9.869 2.370 6.775 -9.522 -12.116 -764.952 -74.951 -2459.897 -0.619 0.241 -0.547 -0.1 0.63 -0.76 0.13
1 9.44 944 1.130 -9.764 2.504 14.618 -11.292 -10.315 -764.952 -74.951 -2459.897 -1.217 0.138 -0.665 -0.11 0.63 -0.76 0.13
1 9.45 945 1.757 -9.539 2.797 19.318 -7.294 -7.050 -764.952 -149.902 -2384.946 -1.817 -0.081 -0.930 -0.11 0.63 -0.76 0.13
1 9.46 946 1.331 -9.252 2.715 14.191 -2.930 -4.547 -839.903 -104.932 -2564.979 -1.366 -0.362 -0.815 -0.11 0.63 -0.76 0.13
1 9.47 947 1.111 -9.146 2.595 5.463 -0.580 -3.448 -839.903 -104.932 -2564.979 -1.123 -0.462 -0.665 -0.11 0.62 -0.76 0.13
1 9.48 948 0.742 -9.132 2.423 3.387 -1.648 -2.380 -794.932 -149.902 -2639.930 -0.724 -0.471 -0.466 -0.11 0.62 -0.76 0.13
1 9.49 949 0.608 -9.127 2.275 8.331 -2.960 -3.693 -794.932 -149.902 -2639.930 -0.579 -0.473 -0.307 -0.11 0.62 -0.76 0.13
1 9.50 950 0.656 -8.902 2.284 16.327 -3.357 -3.052 -824.913 -119.922 -2549.989 -0.616 -0.695 -0.298 -0.11 0.62 -0.76 0.13
1 9.51 951 0.776 -8.873 2.275 20.569 -2.350 -3.784 -824.913 -119.922 -2549.989 -0.725 -0.717 -0.259 -0.11 0.62 -0.77 0.13
1 9.52 952 0.986 -9.060 2.327 17.456 0.275 -2.045 -929.994 -89.941 -2474.888 -0.923 -0.523 -0.279 -0.11 0.62 -0.77 0.13
1 9.53 953 1.073 -9.103 2.418 15.991 1.892 0.610 -869.883 -149.902 -2534.999 -0.998 -0.474 -0.340 -0.11 0.62 -0.77 0.13
1 9.54 954 1.039 -9.194 2.361 16.663 3.601 2.167 -869.883 -149.902 -2534.999 -0.957 -0.377 -0.256 -0.11 0.62 -0.77 0.13
1 9.55 955 0.967 -9.304 2.188 16.480 6.592 3.693 -690.000 -224.854 -2684.901 -0.877 -0.256 -0.035 -0.11 0.61 -0.77 0.13
1 9.56 956 0.934 -9.343 2.275 13.458 9.186 3.967 -690.000 -224.854 -2684.901 -0.843 -0.212 -0.095 -0.11 0.61 -0.77 0.13
1 9.57 957 0.843 -9.314 1.939 11.505 8.423 5.005 -839.903 -74.951 -2639.930 -0.753 -0.236 0.259 -0.11 0.61 -0.77 0.13
1 9.58 958 1.044 -9.165 2.222 33.722 1.984 4.822 -839.903 -74.951 -2639.930 -0.957 -0.378 0.004 -0.11 0.61 -0.77 0.13
1 9.59 959 1.212 -9.046 2.279 30.518 8.575 2.045 -839.903 -149.902 -2714.881 -1.123 -0.486 -0.005 -0.11 0.61 -0.77 0.13
1 9.60 960 1.077 -8.912 2.059 15.106 14.801 5.005 -749.961 -209.863 -2549.989 -0.987 -0.610 0.257 -0.11 0.61 -0.78 0.13
1 9.61 961 0.915 -8.950 2.145 8.118 13.672 5.096 -749.961 -209.863 -2549.989 -0.826 -0.566 0.196 -0.11 0.61 -0.78 0.13
1 9.62 962 0.943 -9.055 2.174 5.066 11.902 4.456 -869.883 -224.854 -2609.950 -0.860 -0.457 0.181 -0.1 0.61 -0.78 0.13
1 9.63 963 1.307 -9.098 1.906 4.852 12.512 2.869 -749.961 -119.922 -2669.911 -1.230 -0.410 0.464 -0.1 0.61 -0.78 0.13
1 9.64 964 1.609 -9.089 1.911 4.791 14.099 1.923 -929.994 -284.964 -2774.992 -1.529 -0.419 0.464 -0.1 0.61 -0.78 0.12
1 9.65 965 1.633 -9.414 1.915 0.916 17.548 2.136 -929.994 -284.964 -2774.992 -1.550 -0.092 0.463 -0.1 0.61 -0.78 0.12
1 9.66 966 1.595 -9.515 2.035 -5.676 19.898 2.014 -869.883 -254.984 -2564.979 -1.509 0.007 0.339 -0.1 0.61 -0.78 0.12
1 9.67 967 1.302 -9.496 1.963 -7.385 23.468 0.000 -659.870 -149.902 -2639.930 -1.214 -0.015 0.400 -0.1 0.61 -0.78 0.12
1 9.68 968 1.192 -9.400 1.662 -4.669 23.407 -1.038 -659.870 -149.902 -2639.930 -1.102 -0.114 0.688 -0.1 0.61 -0.78 0.12
1 9.69 969 1.116 -8.921 1.585 -0.854 23.377 -1.434 -779.942 -164.893 -2624.940 -1.023 -0.595 0.754 -0.1 0.61 -0.78 0.12
1 9.70 970 0.848 -8.658 1.494 0.702 26.245 -2.960 -614.899 -224.854 -2534.999 -0.749 -0.861 0.836 -0.1 0.61 -0.78 0.11
1 9.71 971 0.603 -8.639 1.408 -5.249 29.968 -2.838 -599.909 -284.964 -2549.989 -0.507 -0.880 0.920 -0.09 0.61 -0.78 0.11
1 9.72 972 0.321 -8.998 1.417 -14.679 30.365 -4.059 -599.909 -284.964 -2549.989 -0.230 -0.524 0.900 -0.09 0.61 -0.78 0.11
1 9.73 973 0.215 -9.477 1.494 -22.919 26.978 -5.798 -749.961 -239.994 -2594.959 -0.125 -0.052 0.794 -0.09 0.61 -0.78 0.11
1 9.74 974 0.081 -9.639 1.255 -20.233 23.316 -5.371 -690.000 -254.984 -2609.950 0.011 0.101 0.994 -0.09 0.61 -0.78 0.11
1 9.75 975 0.426 -9.687 1.073 -0.702 21.179 -3.754 -690.000 -254.984 -2609.950 -0.333 0.142 1.144 -0.09 0.62 -0.78 0.1
1 9.76 976 0.469 -9.362 0.958 12.634 20.111 -1.556 -734.971 -74.951 -2534.999 -0.376 -0.187 1.244 -0.09 0.62 -0.78 0.1
1 9.77 977 0.905 -9.113 1.154 13.123 20.660 1.709 -690.000 -149.902 -2609.950 -0.813 -0.432 1.069 -0.09 0.62 -0.78 0.1
1 9.78 978 1.173 -9.113 1.279 3.448 21.240 3.540 -764.952 -224.854 -2639.930 -1.085 -0.429 0.953 -0.09 0.62 -0.78 0.1
1 9.79 979 1.365 -9.285 1.025 -8.759 22.522 6.012 -764.952 -224.854 -2639.930 -1.281 -0.258 1.202 -0.08 0.62 -0.78 0.1
1 9.80 980 1.623 -9.381 0.943 -16.357 22.705 7.996 -539.948 -254.984 -2684.901 -1.546 -0.168 1.259 -0.08 0.62 -0.78 0.1
1 9.81 981 1.791 -9.759 2.102 -13.245 23.377 9.125 -569.929 -164.893 -2624.940 -1.720 0.203 0.068 -0.08 0.62 -0.78 0.1
1 9.82 982 0.776 -11.239 5.018 4.883 22.034 -1.465 -569.929 -164.893 -2624.940 -0.711 1.678 -2.866 -0.08 0.62 -0.78 0.1
1 9.83 983 -2.610 -13.398 5.804 -36.774 31.281 -32.044 -569.929 -209.863 -2474.888 2.671 3.840 -3.642 -0.08 0.62 -0.78 0.09
1 9.84 984 -3.295 -11.306 0.522 -37.872 4.761 -29.907 -524.958 -239.994 -2669.911 3.427 1.723 1.525 -0.08 0.62 -0.77 0.09
1 9.85 985 -2.423 -10.252 -0.134 -11.780 -20.874 -32.837 -599.909 -209.863 -2549.989 2.605 0.663 2.144 -0.08 0.63 -0.77 0.08
1 9.86 986 1.465 -9.941 1.585 29.205 -29.205 -27.832 -599.909 -209.863 -2549.989 -1.233 0.355 0.436 -0.08 0.62 -0.77 0.09
1 9.87 987 2.193 -10.209 3.050 11.627 6.165 -7.782 -599.909 -209.863 -2414.927 -1.916 0.630 -0.999 -0.09 0.62 -0.77 0.08
1 9.88 988 1.599 -10.865 3.572 -17.273 25.421 -6.348 -584.919 -29.980 -2429.917 -1.310 1.288 -1.513 -0.09 0.62 -0.77 0.08
1 9.89 989 0.661 -12.264 2.782 -45.685 0.580 -10.651 -584.919 -29.980 -2429.917 -0.366 2.680 -0.757 -0.09 0.62 -0.77 0.08
1 9.90 990 0.680 -11.622 2.121 -30.792 -2.533 -3.876 -674.860 -89.941 -2549.989 -0.369 2.025 -0.159 -0.09 0.63 -0.77 0.08
1 9.91 991 1.149 -11.062 1.829 -4.242 9.247 -3.662 -569.929 -119.922 -2369.956 -0.828 1.455 0.079 -0.09 0.63 -0.77 0.08
1 9.92 992 1.173 -10.913 2.749 9.003 21.515 -9.735 -734.971 -104.932 -2354.966 -0.840 1.306 -0.844 -0.09 0.63 -0.77 0.08
1 9.93 993 0.661 -10.918 3.338 2.228 21.698 -11.810 -734.971 -104.932 -2354.966 -0.318 1.313 -1.421 -0.09 0.63 -0.77 0.08
1 9.94 994 0.062 -10.832 3.539 -10.132 18.341 -12.695 -764.952 -104.932 -2564.979 0.293 1.228 -1.622 -0.08 0.63 -0.77 0.08
1 9.95 995 -0.115 -10.506 3.002 -16.113 15.656 -18.372 -764.952 -74.951 -2534.999 0.488 0.899 -1.102 -0.08 0.63 -0.77 0.07
1 9.96 996 -0.311 -10.329 2.413 -6.928 16.052 -17.670 -764.952 -74.951 -2534.999 0.709 0.719 -0.536 -0.09 0.63 -0.77 0.07
1 9.97 997 -0.757 -10.066 2.509 1.709 18.127 -13.184 -674.860 -119.922 -2474.888 1.174 0.455 -0.640 -0.09 0.63 -0.77 0.07
1 9.98 998 -1.130 -9.850 2.840 0.397 18.189 -8.545 -824.913 -89.941 -2369.956 1.558 0.241 -0.964 -0.08 0.63 -0.77 0.07
