COL1	TIME	ACC_X	ACC_Y	ACC_Z	GYR_X	GYR_Y	GYR_Z	MAG_X	MAG_Y	MAG_Z	LACC_X	LACC_Y	LACC_Z	QUAT_X	QUAT_Y	QUAT_Z	QUAT_W
1 0.00 0 -0.024 -9.314 3.132 -2.533 2.960 -0.305 1043.470 3686.099 1536.799 0.041 0.042 0.043 -0.57 -0.12 0.17 0.8
1 0.01 1 0.048 -9.438 3.175 -4.486 3.967 -0.244 1043.470 3686.099 1536.799 -0.030 0.166 -0.002 -0.57 -0.12 0.17 0.8
1 0.02 2 0.101 -9.448 3.295 -5.127 4.791 0.214 1073.451 3656.118 1386.896 -0.083 0.174 -0.126 -0.57 -0.12 0.17 0.8
1 0.03 3 0.110 -9.520 3.175 -4.913 4.791 0.610 1103.431 3611.147 1206.864 -0.095 0.244 -0.011 -0.57 -0.12 0.17 0.8
1 0.04 4 0.067 -9.539 3.194 -3.693 4.059 0.946 1103.431 3611.147 1206.864 -0.056 0.260 -0.040 -0.57 -0.12 0.17 0.8
1 0.05 5 0.038 -9.515 3.208 -2.563 3.784 0.824 1043.470 3656.118 1431.867 -0.030 0.235 -0.057 -0.57 -0.12 0.17 0.8
1 0.06 6 0.010 -9.448 3.204 -2.228 3.204 0.549 1073.451 3656.118 1386.896 -0.003 0.168 -0.054 -0.57 -0.12 0.17 0.8
1 0.07 7 0.034 -9.433 3.328 -2.014 3.143 0.458 968.519 3656.118 1386.896 -0.028 0.153 -0.180 -0.57 -0.12 0.17 0.8
1 0.08 8 0.129 -9.323 3.041 -2.777 2.502 -0.366 968.519 3656.118 1386.896 -0.125 0.043 0.107 -0.57 -0.12 0.17 0.8
1 0.09 9 0.053 -9.429 3.180 -2.655 3.906 0.305 998.500 3686.099 1611.900 -0.049 0.147 -0.034 -0.57 -0.12 0.17 0.8
1 0.10 10 0.101 -9.390 3.113 -2.869 3.601 -0.366 1103.431 3881.122 1431.867 -0.097 0.108 0.031 -0.57 -0.12 0.17 0.8
1 0.11 11 0.024 -9.410 3.132 -2.167 3.937 -0.122 1103.431 3881.122 1431.867 -0.021 0.126 0.008 -0.57 -0.12 0.17 0.8
1 0.12 12 0.043 -9.338 3.079 -2.533 4.181 -0.305 1103.431 3731.069 1356.766 -0.042 0.054 0.059 -0.57 -0.12 0.17 0.8
1 0.13 13 0.053 -9.462 3.237 -2.136 3.723 -0.214 998.500 3611.147 1461.848 -0.051 0.178 -0.101 -0.57 -0.12 0.17 0.8
1 0.14 14 -0.067 -9.347 3.256 -2.563 3.906 -0.763 998.500 3611.147 1461.848 0.068 0.062 -0.122 -0.57 -0.12 0.16 0.8
1 0.15 15 0.081 -9.457 3.227 -2.014 3.143 -0.519 1088.441 3671.108 1296.805 -0.081 0.172 -0.094 -0.57 -0.12 0.16 0.8
1 0.16 16 -0.014 -9.438 3.247 -2.350 4.120 0.244 1073.451 3686.099 1386.896 0.014 0.152 -0.114 -0.57 -0.12 0.16 0.8
1 0.17 17 -0.014 -9.453 3.184 -1.465 4.150 0.671 1058.460 3671.108 1446.857 0.013 0.167 -0.053 -0.57 -0.12 0.16 0.8
1 0.18 18 0.038 -9.462 3.170 -1.312 4.059 1.312 1058.460 3671.108 1446.857 -0.044 0.176 -0.037 -0.57 -0.12 0.16 0.8
1 0.19 19 -0.043 -9.457 3.122 -2.197 4.120 1.465 923.398 3761.050 1431.867 0.034 0.172 0.011 -0.57 -0.12 0.16 0.8
1 0.20 20 -0.014 -9.347 3.213 -2.045 3.723 1.740 1088.441 3671.108 1401.887 0.002 0.061 -0.081 -0.57 -0.12 0.16 0.8
1 0.21 21 0.029 -9.323 3.227 -2.899 3.571 1.587 1088.441 3671.108 1401.887 -0.045 0.037 -0.097 -0.57 -0.12 0.16 0.8
1 0.22 22 -0.029 -9.295 3.184 -3.143 3.693 1.495 1073.451 3581.167 1506.818 0.009 0.008 -0.055 -0.57 -0.12 0.16 0.8
1 0.23 23 0.019 -9.366 3.199 -3.662 5.066 2.350 1133.412 3566.177 1401.887 -0.043 0.079 -0.072 -0.57 -0.12 0.16 0.8
1 0.24 24 -0.057 -9.410 3.050 -3.326 5.707 2.319 1058.460 3671.108 1446.857 0.028 0.121 0.074 -0.57 -0.12 0.16 0.8
1 0.25 25 0.062 -9.457 3.065 -3.235 6.348 2.228 1058.460 3671.108 1446.857 -0.096 0.168 0.056 -0.57 -0.11 0.16 0.8
1 0.26 26 -0.182 -9.520 3.165 -2.594 6.683 2.380 1148.402 3476.085 1461.848 0.137 0.228 -0.051 -0.57 -0.11 0.16 0.8
1 0.27 27 -0.225 -9.520 3.194 -2.350 4.974 2.686 923.398 3686.099 1431.867 0.174 0.228 -0.080 -0.57 -0.11 0.16 0.8
1 0.28 28 -0.057 -9.433 3.366 -1.740 3.967 2.808 923.398 3686.099 1431.867 -0.001 0.141 -0.254 -0.57 -0.11 0.16 0.8
1 0.29 29 -0.125 -9.620 3.237 -1.404 1.984 3.143 1148.402 3656.118 1311.795 0.061 0.328 -0.125 -0.57 -0.11 0.16 0.8
1 0.30 30 -0.201 -9.410 3.156 -0.305 1.282 3.052 968.519 3731.069 1536.799 0.133 0.117 -0.043 -0.57 -0.11 0.16 0.8
1 0.31 31 -0.144 -9.405 3.108 -0.519 2.075 3.632 998.500 3611.147 1356.766 0.071 0.113 0.006 -0.57 -0.11 0.16 0.8
1 0.32 32 -0.019 -9.601 3.132 -1.587 2.136 3.510 998.500 3611.147 1356.766 -0.059 0.310 -0.017 -0.57 -0.11 0.16 0.8
1 0.33 33 -0.019 -9.424 3.156 -2.625 3.265 4.120 1073.451 3806.170 1356.766 -0.069 0.132 -0.043 -0.57 -0.11 0.16 0.8
1 0.34 34 -0.139 -9.366 3.031 -2.563 3.754 4.334 1088.441 3791.180 1296.805 0.044 0.074 0.080 -0.57 -0.11 0.16 0.8
1 0.35 35 -0.220 -9.395 3.113 -2.075 3.448 3.448 1088.441 3791.180 1296.805 0.118 0.102 -0.003 -0.57 -0.11 0.16 0.8
1 0.36 36 -0.230 -9.448 3.204 -0.854 3.052 3.174 1058.460 3566.177 1476.838 0.121 0.155 -0.095 -0.57 -0.11 0.16 0.8
1 0.37 37 -0.182 -9.405 3.079 -0.183 2.441 2.960 1073.451 3581.167 1461.848 0.068 0.112 0.030 -0.57 -0.11 0.16 0.8
1 0.38 38 -0.096 -9.572 3.218 0.061 1.160 3.021 1253.483 3686.099 1386.896 -0.023 0.280 -0.107 -0.57 -0.11 0.16 0.8
1 0.39 39 -0.273 -9.553 3.189 -0.854 0.122 3.418 1253.483 3686.099 1386.896 0.150 0.262 -0.076 -0.57 -0.11 0.16 0.8
1 0.40 40 -0.091 -9.515 3.189 -0.885 -0.763 3.174 968.519 3551.187 1431.867 -0.041 0.224 -0.074 -0.57 -0.11 0.16 0.8
1 0.41 41 -0.062 -9.601 3.290 -0.824 -2.228 2.197 1088.441 3566.177 1401.887 -0.072 0.311 -0.173 -0.57 -0.11 0.16 0.8
1 0.42 42 -0.043 -9.654 3.156 0.793 -2.655 2.075 1088.441 3566.177 1401.887 -0.092 0.364 -0.037 -0.57 -0.11 0.16 0.8
1 0.43 43 -0.134 -9.501 3.199 2.014 -3.357 1.221 1013.490 3791.180 1551.789 -0.001 0.212 -0.077 -0.57 -0.11 0.16 0.8
1 0.44 44 -0.196 -9.501 3.204 2.960 -3.571 1.373 1133.412 3626.138 1401.887 0.062 0.214 -0.076 -0.57 -0.11 0.16 0.8
1 0.45 45 -0.283 -9.376 3.213 3.296 -3.845 0.854 1148.402 3761.050 1506.818 0.148 0.092 -0.079 -0.57 -0.11 0.16 0.8
1 0.46 46 -0.144 -9.381 3.165 2.899 -3.693 1.495 1148.402 3761.050 1506.818 0.009 0.099 -0.025 -0.57 -0.11 0.16 0.8
1 0.47 47 -0.326 -9.376 3.103 1.526 -3.998 1.892 1058.460 3626.138 1446.857 0.191 0.096 0.043 -0.57 -0.11 0.16 0.8
1 0.48 48 -0.283 -9.400 3.132 -0.092 -4.303 2.502 1058.460 3626.138 1551.789 0.146 0.122 0.022 -0.57 -0.11 0.16 0.8
1 0.49 49 -0.335 -9.386 3.117 0.488 -4.669 3.204 1058.460 3626.138 1551.789 0.196 0.108 0.038 -0.57 -0.11 0.16 0.8
1 0.50 50 -0.354 -9.333 3.089 0.305 -5.035 3.693 1103.431 3731.069 1431.867 0.213 0.057 0.069 -0.57 -0.11 0.16 0.8
1 0.51 51 -0.292 -9.424 3.256 0.488 -5.676 3.601 1043.470 3611.147 1506.818 0.147 0.149 -0.096 -0.57 -0.11 0.17 0.8
1 0.52 52 -0.273 -9.405 3.271 0.183 -5.859 3.784 1148.402 3656.118 1431.867 0.126 0.130 -0.108 -0.57 -0.11 0.17 0.8
1 0.53 53 -0.340 -9.457 3.132 0.458 -5.981 3.204 1148.402 3656.118 1431.867 0.191 0.184 0.033 -0.57 -0.11 0.17 0.8
1 0.54 54 -0.230 -9.366 3.175 0.153 -6.317 3.326 1013.490 3791.180 1521.809 0.078 0.094 -0.007 -0.57 -0.11 0.17 0.8
1 0.55 55 -0.283 -9.280 3.213 0.061 -8.820 3.723 1133.412 3701.089 1266.825 0.127 0.009 -0.041 -0.57 -0.11 0.17 0.8
1 0.56 56 -0.311 -9.414 3.127 -0.397 -10.895 3.601 1133.412 3701.089 1266.825 0.155 0.144 0.047 -0.57 -0.11 0.17 0.8
1 0.57 57 -0.239 -9.362 3.328 -1.312 -11.963 2.472 1103.431 3611.147 1251.834 0.084 0.092 -0.153 -0.57 -0.11 0.17 0.8
1 0.58 58 -0.192 -9.462 3.122 0.580 -12.665 3.418 1103.431 3611.147 1251.834 0.039 0.193 0.054 -0.57 -0.11 0.17 0.8
1 0.59 59 -0.182 -9.395 3.208 -0.153 -13.611 4.425 1148.402 3686.099 1431.867 0.030 0.126 -0.030 -0.57 -0.11 0.17 0.8
1 0.60 60 -0.077 -9.362 3.213 -0.458 -14.740 4.120 1148.402 3686.099 1431.867 -0.074 0.093 -0.033 -0.57 -0.11 0.17 0.8
1 0.61 61 -0.182 -9.352 3.237 -0.061 -15.045 3.571 1058.460 3701.089 1446.857 0.033 0.084 -0.055 -0.57 -0.11 0.17 0.8
1 0.62 62 -0.120 -9.295 3.175 0.458 -15.625 3.937 1148.402 3581.167 1431.867 -0.024 0.028 0.011 -0.57 -0.11 0.17 0.8
1 0.63 63 -0.239 -9.299 3.156 1.251 -14.435 4.334 1148.402 3581.167 1431.867 0.098 0.033 0.032 -0.57 -0.12 0.17 0.8
1 0.64 64 -0.273 -9.481 3.007 0.610 -14.099 3.937 1133.412 3626.138 1341.776 0.132 0.216 0.183 -0.57 -0.12 0.17 0.8
1 0.65 65 -0.172 -9.386 3.227 0.336 -13.519 5.341 1133.412 3626.138 1341.776 0.032 0.121 -0.035 -0.57 -0.12 0.18 0.8
1 0.66 66 -0.187 -9.414 3.146 -0.122 -14.496 5.615 1208.513 3596.157 1341.776 0.047 0.151 0.049 -0.57 -0.12 0.18 0.79
1 0.67 67 -0.115 -9.328 3.251 -0.732 -15.930 5.737 1208.513 3596.157 1341.776 -0.024 0.065 -0.055 -0.57 -0.12 0.18 0.79
1 0.68 68 -0.148 -9.481 3.204 -0.061 -18.250 4.913 1088.441 3671.108 1371.906 0.010 0.219 -0.006 -0.57 -0.12 0.18 0.79
1 0.69 69 -0.172 -9.362 3.204 -1.007 -20.416 4.852 1163.392 3671.108 1371.906 0.035 0.100 -0.004 -0.57 -0.12 0.18 0.79
1 0.70 70 -0.024 -9.438 3.184 0.092 -19.623 3.998 1163.392 3671.108 1371.906 -0.105 0.177 0.017 -0.57 -0.12 0.18 0.79
1 0.71 71 0.010 -9.548 3.381 2.380 -17.731 3.601 1133.412 3671.108 1446.857 -0.133 0.288 -0.176 -0.57 -0.12 0.18 0.79
1 0.72 72 -0.005 -9.558 3.352 3.204 -14.801 3.815 1133.412 3671.108 1446.857 -0.113 0.299 -0.142 -0.57 -0.12 0.18 0.79
1 0.73 73 -0.048 -9.429 3.251 2.045 -11.414 3.357 1163.392 3566.177 1266.825 -0.067 0.172 -0.035 -0.57 -0.12 0.18 0.79
1 0.74 74 -0.072 -9.457 3.266 0.061 -9.430 4.578 1163.392 3566.177 1266.825 -0.041 0.203 -0.044 -0.57 -0.12 0.18 0.79
1 0.75 75 -0.297 -9.405 3.098 -0.153 -10.834 4.944 1238.493 3671.108 1341.776 0.183 0.151 0.126 -0.57 -0.12 0.18 0.79
1 0.76 76 -0.182 -9.453 3.189 -0.519 -13.001 4.303 1208.513 3791.180 1371.906 0.067 0.199 0.036 -0.57 -0.12 0.19 0.79
1 0.77 77 -0.201 -9.352 3.137 -0.305 -17.304 3.693 1208.513 3791.180 1371.906 0.088 0.099 0.090 -0.57 -0.13 0.19 0.79
1 0.78 78 -0.115 -9.395 3.223 0.702 -18.555 3.235 1208.513 3566.177 1341.776 0.005 0.143 0.005 -0.57 -0.13 0.19 0.79
1 0.79 79 -0.043 -9.347 3.223 1.007 -19.226 2.380 1208.513 3566.177 1341.776 -0.061 0.096 0.009 -0.56 -0.13 0.19 0.79
1 0.80 80 -0.029 -9.381 3.184 1.465 -17.975 2.960 1238.493 3626.138 1296.805 -0.069 0.131 0.050 -0.56 -0.13 0.19 0.79
1 0.81 81 -0.134 -9.386 3.165 0.702 -15.991 3.632 1238.493 3626.138 1296.805 0.042 0.136 0.072 -0.56 -0.13 0.19 0.79
1 0.82 82 -0.177 -9.414 3.304 -0.610 -14.282 4.700 1238.493 3671.108 1341.776 0.088 0.166 -0.064 -0.56 -0.13 0.19 0.79
1 0.83 83 -0.139 -9.472 3.251 -1.099 -14.435 5.768 1238.493 3566.177 1371.906 0.050 0.224 -0.010 -0.56 -0.13 0.19 0.79
1 0.84 84 0.024 -9.371 3.290 -0.183 -15.106 4.700 1238.493 3566.177 1371.906 -0.112 0.124 -0.048 -0.56 -0.13 0.19 0.79
1 0.85 85 -0.110 -9.443 3.285 0.732 -15.198 4.791 1253.483 3686.099 1281.815 0.023 0.196 -0.040 -0.56 -0.13 0.19 0.79
1 0.86 86 -0.120 -9.405 3.352 1.404 -14.710 6.989 1253.483 3686.099 1281.815 0.035 0.159 -0.104 -0.56 -0.13 0.2 0.79
1 0.87 87 0.014 -9.414 3.266 0.031 -15.076 5.768 1178.382 3761.050 1461.848 -0.101 0.170 -0.014 -0.56 -0.13 0.2 0.79
1 0.88 88 -0.096 -9.390 3.237 -0.488 -14.679 5.096 1313.444 3701.089 1341.776 0.011 0.146 0.016 -0.56 -0.13 0.2 0.79
1 0.89 89 -0.053 -9.343 3.160 0.519 -13.794 5.371 1388.396 3626.138 1266.825 -0.031 0.098 0.092 -0.56 -0.14 0.2 0.79
1 0.90 90 -0.053 -9.424 3.141 0.549 -14.465 4.639 1343.425 3536.196 1221.854 -0.031 0.181 0.113 -0.56 -0.14 0.2 0.79
1 0.91 91 -0.177 -9.453 3.146 1.129 -16.327 5.432 1343.425 3536.196 1221.854 0.095 0.210 0.111 -0.56 -0.14 0.2 0.79
1 0.92 92 -0.153 -9.539 3.208 1.801 -19.348 5.920 1283.464 3626.138 1266.825 0.073 0.298 0.054 -0.56 -0.14 0.2 0.79
1 0.93 93 -0.172 -9.453 3.261 2.563 -20.538 6.592 1283.464 3626.138 1266.825 0.093 0.213 0.005 -0.56 -0.14 0.2 0.79
1 0.94 94 -0.153 -9.395 3.204 2.106 -19.836 7.050 1238.493 3566.177 1296.805 0.074 0.158 0.067 -0.56 -0.14 0.2 0.79
1 0.95 95 -0.029 -9.457 3.271 1.160 -18.738 6.439 1420.774 3670.659 1267.274 -0.050 0.221 0.004 -0.56 -0.14 0.21 0.79
1 0.96 96 -0.144 -9.410 3.227 1.099 -16.663 6.683 1375.804 3610.698 1252.284 0.066 0.174 0.051 -0.56 -0.14 0.21 0.79
1 0.97 97 0.062 -9.381 3.146 1.984 -14.557 6.042 1225.751 3505.616 1177.333 -0.140 0.147 0.135 -0.56 -0.14 0.21 0.79
1 0.98 98 -0.091 -9.323 2.950 2.075 -15.289 6.409 1225.751 3505.616 1177.333 0.013 0.090 0.335 -0.56 -0.14 0.21 0.79
1 0.99 99 -0.249 -9.376 3.132 1.068 -18.005 5.981 1465.745 3670.659 1342.375 0.171 0.145 0.159 -0.56 -0.14 0.21 0.79
1 1.00 100 -0.086 -9.429 3.208 0.702 -19.470 5.890 1465.745 3670.659 1342.375 0.009 0.199 0.084 -0.56 -0.14 0.21 0.79
1 1.01 101 -0.024 -9.529 3.213 0.153 -19.867 6.775 1300.853 3760.750 1252.284 -0.052 0.300 0.081 -0.56 -0.15 0.21 0.79
1 1.02 102 -0.105 -9.357 3.251 0.580 -18.646 6.866 1390.794 3565.727 1222.304 0.031 0.128 0.043 -0.56 -0.15 0.21 0.79
1 1.03 103 -0.043 -9.352 3.170 0.641 -16.235 7.446 1345.823 3670.659 1297.255 -0.032 0.124 0.127 -0.56 -0.15 0.22 0.79
1 1.04 104 -0.081 -9.266 3.199 0.031 -14.130 7.385 1315.843 3670.659 1267.274 0.005 0.038 0.100 -0.56 -0.15 0.22 0.79
1 1.05 105 -0.091 -9.271 3.194 -0.458 -13.306 7.538 1315.843 3670.659 1267.274 0.012 0.043 0.106 -0.56 -0.15 0.22 0.79
1 1.06 106 -0.048 -9.199 3.156 -2.380 -13.825 7.324 1345.823 3700.639 1267.274 -0.038 -0.028 0.145 -0.56 -0.15 0.22 0.79
1 1.07 107 -0.091 -9.366 3.041 -2.533 -16.998 6.592 1345.823 3700.639 1267.274 0.003 0.139 0.257 -0.56 -0.15 0.22 0.79
1 1.08 108 -0.235 -9.390 2.988 -1.434 -19.623 6.866 1480.735 3730.620 1387.346 0.146 0.161 0.307 -0.56 -0.15 0.22 0.79
1 1.09 109 -0.005 -9.366 3.117 -0.854 -20.355 6.897 1465.745 3670.659 1117.372 -0.083 0.137 0.176 -0.56 -0.15 0.22 0.79
1 1.10 110 0.192 -9.323 3.256 0.397 -18.372 6.836 1450.755 3655.668 1252.284 -0.277 0.094 0.037 -0.56 -0.15 0.22 0.79
1 1.11 111 0.254 -9.343 3.362 -0.092 -14.710 6.928 1540.846 3745.610 1117.372 -0.339 0.113 -0.067 -0.56 -0.15 0.22 0.79
1 1.12 112 0.086 -9.343 3.309 -2.045 -11.780 7.172 1540.846 3745.610 1117.372 -0.171 0.114 -0.013 -0.56 -0.15 0.23 0.79
1 1.13 113 0.091 -9.429 3.318 -3.662 -10.773 7.202 1540.846 3565.727 1162.343 -0.177 0.200 -0.023 -0.55 -0.15 0.23 0.79
1 1.14 114 0.019 -9.299 3.204 -4.608 -11.383 6.500 1540.846 3565.727 1162.343 -0.111 0.068 0.085 -0.56 -0.16 0.23 0.78
1 1.15 115 -0.053 -9.414 3.175 -3.693 -13.428 5.951 1450.755 3610.698 1207.313 -0.040 0.181 0.109 -0.56 -0.16 0.23 0.78
1 1.16 116 0.062 -9.429 3.146 -3.632 -15.106 5.310 1495.726 3670.659 1297.255 -0.156 0.194 0.134 -0.56 -0.16 0.23 0.78
1 1.17 117 -0.053 -9.328 3.141 -1.373 -14.038 5.096 1570.827 3670.659 1267.274 -0.040 0.092 0.135 -0.56 -0.16 0.23 0.78
1 1.18 118 0.077 -9.424 3.184 0.031 -12.116 5.127 1480.735 3655.668 1252.284 -0.168 0.188 0.091 -0.55 -0.16 0.23 0.78
1 1.19 119 0.077 -9.261 3.304 -0.183 -10.468 5.035 1480.735 3655.668 1252.284 -0.167 0.026 -0.028 -0.55 -0.16 0.23 0.78
1 1.20 120 0.096 -9.381 3.251 -1.923 -8.911 5.066 1450.755 3610.698 1177.333 -0.187 0.146 0.027 -0.55 -0.16 0.23 0.78
1 1.21 121 -0.072 -9.386 3.204 -3.204 -7.690 5.859 1450.755 3610.698 1177.333 -0.022 0.150 0.072 -0.55 -0.16 0.23 0.78
1 1.22 122 -0.077 -9.376 3.098 -3.296 -8.667 5.157 1510.866 3610.698 1177.333 -0.020 0.139 0.174 -0.55 -0.16 0.23 0.78
1 1.23 123 -0.053 -9.386 2.978 -2.502 -9.949 4.211 1585.817 3505.616 1057.261 -0.046 0.147 0.290 -0.55 -0.16 0.23 0.78
1 1.24 124 -0.134 -9.582 3.170 -1.740 -11.810 4.578 1540.846 3700.639 1117.372 0.036 0.343 0.096 -0.55 -0.16 0.24 0.78
1 1.25 125 0.019 -9.424 3.175 -0.122 -11.993 3.632 1555.836 3655.668 1132.362 -0.117 0.184 0.091 -0.55 -0.16 0.24 0.78
1 1.26 126 0.024 -9.347 3.242 -1.404 -10.742 4.517 1555.836 3655.668 1132.362 -0.120 0.108 0.024 -0.55 -0.16 0.24 0.78
1 1.27 127 0.053 -9.429 3.362 -2.289 -8.698 4.761 1495.726 3625.688 1192.323 -0.147 0.189 -0.096 -0.55 -0.16 0.24 0.78
1 1.28 128 0.096 -9.433 3.256 -4.517 -6.775 5.371 1495.726 3625.688 1192.323 -0.193 0.193 0.006 -0.55 -0.16 0.24 0.78
1 1.29 129 0.081 -9.343 3.342 -4.944 -6.958 4.730 1495.726 3565.727 1222.304 -0.181 0.100 -0.085 -0.55 -0.16 0.24 0.78
1 1.30 130 0.125 -9.395 3.261 -4.944 -6.561 5.798 1645.778 3490.626 1162.343 -0.226 0.151 -0.009 -0.55 -0.16 0.24 0.78
1 1.31 131 -0.096 -9.395 3.251 -5.127 -6.683 5.798 1645.778 3490.626 1162.343 -0.008 0.149 -0.005 -0.55 -0.16 0.24 0.78
1 1.32 132 -0.029 -9.347 3.237 -5.188 -6.714 5.096 1510.866 3580.717 997.300 -0.078 0.099 0.004 -0.55 -0.16 0.24 0.78
1 1.33 133 0.125 -9.371 3.223 -4.578 -5.493 3.723 1510.866 3580.717 997.300 -0.232 0.121 0.012 -0.55 -0.16 0.24 0.78
1 1.34 134 0.168 -9.424 3.204 -3.204 -3.601 3.693 1690.749 3565.727 1162.343 -0.276 0.172 0.026 -0.55 -0.16 0.24 0.78
1 1.35 135 0.206 -9.443 3.175 -3.418 -2.197 2.502 1690.749 3565.727 1162.343 -0.315 0.190 0.052 -0.56 -0.17 0.24 0.78
1 1.36 136 0.053 -9.371 3.113 -3.693 -0.671 3.174 1585.817 3475.636 1027.281 -0.163 0.116 0.108 -0.56 -0.17 0.24 0.78
1 1.37 137 0.096 -9.299 3.266 -3.448 -0.732 3.052 1540.846 3535.747 1192.323 -0.208 0.043 -0.049 -0.56 -0.17 0.24 0.78
1 1.38 138 0.034 -9.453 3.285 -3.510 -0.916 3.204 1540.846 3535.747 1192.323 -0.148 0.195 -0.071 -0.56 -0.17 0.24 0.78
1 1.39 139 0.014 -9.438 3.165 -2.380 -2.014 2.167 1510.866 3580.717 1132.362 -0.131 0.180 0.046 -0.56 -0.17 0.24 0.78
1 1.40 140 -0.043 -9.457 3.089 -1.953 -4.150 1.678 1510.866 3580.717 1132.362 -0.073 0.198 0.120 -0.56 -0.17 0.24 0.78
1 1.41 141 0.053 -9.285 3.132 -1.404 -5.554 0.946 1540.846 3565.727 1162.343 -0.168 0.025 0.075 -0.56 -0.17 0.24 0.78
1 1.42 142 -0.034 -9.323 3.218 -1.495 -6.531 1.099 1540.846 3565.727 1162.343 -0.079 0.064 -0.011 -0.56 -0.17 0.24 0.78
1 1.43 143 0.139 -9.362 3.184 -2.045 -5.798 1.282 1615.797 3595.708 1162.343 -0.245 0.101 0.021 -0.56 -0.17 0.24 0.78
1 1.44 144 0.091 -9.314 3.208 -2.106 -4.028 1.892 1690.749 3670.659 1117.372 -0.194 0.053 -0.005 -0.56 -0.17 0.24 0.78
1 1.45 145 0.177 -9.438 3.381 -1.984 -1.678 2.106 1690.749 3670.659 1117.372 -0.279 0.177 -0.179 -0.56 -0.17 0.24 0.78
1 1.46 146 0.019 -9.467 3.223 -3.540 0.275 2.808 1570.827 3415.675 1297.255 -0.121 0.205 -0.022 -0.56 -0.17 0.24 0.78
1 1.47 147 -0.081 -9.347 3.251 -5.493 1.343 3.021 1705.739 3505.616 1177.333 -0.024 0.084 -0.055 -0.56 -0.17 0.24 0.78
1 1.48 148 -0.225 -9.534 3.256 -5.219 -0.031 2.563 1630.788 3610.698 1252.284 0.116 0.269 -0.065 -0.56 -0.17 0.24 0.78
1 1.49 149 -0.105 -9.357 3.103 -5.737 -1.923 1.801 1630.788 3610.698 1252.284 -0.006 0.090 0.083 -0.56 -0.17 0.24 0.78
1 1.50 150 0.048 -9.501 3.141 -4.547 -1.648 0.824 1585.817 3655.668 1102.382 -0.160 0.229 0.031 -0.56 -0.17 0.24 0.78
1 1.51 151 0.172 -9.381 3.069 -3.357 0.305 0.122 1615.797 3670.659 1192.323 -0.283 0.108 0.099 -0.56 -0.17 0.24 0.78
1 1.52 152 0.235 -9.419 3.175 -3.357 3.174 0.763 1615.797 3670.659 1192.323 -0.344 0.145 -0.010 -0.56 -0.17 0.24 0.78
1 1.53 153 0.019 -9.338 3.160 -3.418 6.287 0.732 1615.797 3595.708 1162.343 -0.129 0.063 0.001 -0.56 -0.17 0.24 0.78
1 1.54 154 -0.005 -9.477 3.132 -4.272 7.233 0.305 1690.749 3565.727 1117.372 -0.108 0.200 0.027 -0.56 -0.17 0.24 0.78
1 1.55 155 0.000 -9.477 3.180 -3.906 6.470 -0.183 1630.788 3580.717 1177.333 -0.114 0.199 -0.025 -0.56 -0.17 0.24 0.78
1 1.56 156 -0.005 -9.467 3.242 -2.808 4.395 -1.465 1630.788 3580.717 1177.333 -0.112 0.188 -0.092 -0.56 -0.17 0.24 0.78
1 1.57 157 0.057 -9.395 3.170 -1.770 3.723 -1.953 1630.788 3550.737 1252.284 -0.173 0.115 -0.023 -0.56 -0.17 0.24 0.78
1 1.58 158 0.125 -9.386 3.151 -0.885 6.134 -2.533 1570.827 3625.688 1267.274 -0.235 0.105 -0.004 -0.56 -0.17 0.24 0.78
1 1.59 159 0.168 -9.362 3.117 -1.068 8.820 -2.502 1570.827 3625.688 1267.274 -0.275 0.081 0.029 -0.56 -0.17 0.24 0.78
1 1.60 160 0.211 -9.295 3.223 -2.533 11.017 -1.648 1645.778 3625.688 1192.323 -0.316 0.014 -0.077 -0.56 -0.17 0.24 0.78
1 1.61 161 0.038 -9.271 3.060 -4.639 12.604 -1.129 1570.827 3490.626 1267.274 -0.144 -0.011 0.084 -0.56 -0.17 0.24 0.78
1 1.62 162 -0.177 -9.304 3.046 -6.500 12.817 -0.397 1570.827 3565.727 1222.304 0.068 0.021 0.093 -0.56 -0.16 0.24 0.78
1 1.63 163 -0.283 -9.280 3.122 -6.348 12.085 -2.838 1570.827 3565.727 1222.304 0.168 -0.005 0.009 -0.56 -0.16 0.24 0.78
1 1.64 164 -0.187 -9.304 3.247 -7.202 12.085 -0.366 1615.797 3625.688 1222.304 0.066 0.013 -0.132 -0.56 -0.16 0.24 0.78
1 1.65 165 -0.120 -9.347 3.103 -5.981 12.726 -0.977 1510.866 3505.616 1207.313 -0.005 0.054 0.004 -0.56 -0.16 0.24 0.78
1 1.66 166 -0.196 -9.520 3.208 -4.425 13.763 -3.143 1510.866 3505.616 1207.313 0.068 0.224 -0.107 -0.56 -0.16 0.24 0.78
1 1.67 167 -0.129 -9.453 3.089 -5.707 14.191 -1.740 1645.778 3625.688 1267.274 -0.001 0.156 0.009 -0.56 -0.16 0.23 0.78
1 1.68 168 -0.211 -9.472 3.199 -6.744 13.184 -2.594 1540.846 3460.646 1222.304 0.078 0.173 -0.109 -0.56 -0.16 0.23 0.78
1 1.69 169 -0.220 -9.520 3.170 -6.805 11.322 -2.960 1345.823 3565.727 1222.304 0.085 0.218 -0.087 -0.56 -0.16 0.23 0.78
1 1.70 170 -0.268 -9.352 3.041 -7.599 10.498 -1.740 1345.823 3565.727 1222.304 0.131 0.048 0.035 -0.56 -0.16 0.23 0.78
1 1.71 171 -0.125 -9.424 3.151 -6.775 10.468 -1.709 1555.836 3580.717 1357.366 -0.014 0.117 -0.084 -0.56 -0.16 0.23 0.78
1 1.72 172 -0.115 -9.443 3.017 -5.890 10.620 -1.740 1450.755 3550.737 1357.366 -0.028 0.131 0.033 -0.57 -0.16 0.23 0.78
1 1.73 173 -0.110 -9.400 2.921 -5.188 10.010 -1.007 1450.755 3550.737 1357.366 -0.035 0.085 0.122 -0.57 -0.16 0.23 0.78
1 1.74 174 -0.215 -9.299 2.931 -5.463 8.484 -0.824 1480.735 3505.616 1282.265 0.068 -0.017 0.106 -0.57 -0.16 0.23 0.78
1 1.75 175 -0.306 -9.443 3.026 -5.493 6.866 -0.427 1480.735 3655.668 1282.265 0.156 0.124 0.003 -0.57 -0.16 0.23 0.78
1 1.76 176 -0.172 -9.577 3.165 -4.517 6.409 -0.641 1405.784 3730.620 1357.366 0.019 0.256 -0.142 -0.57 -0.16 0.23 0.78
1 1.77 177 -0.259 -9.553 3.022 -3.448 6.500 -0.183 1405.784 3730.620 1357.366 0.103 0.231 -0.004 -0.57 -0.16 0.23 0.78
1 1.78 178 -0.249 -9.611 3.093 -2.777 6.714 -0.702 1480.735 3580.717 1177.333 0.090 0.287 -0.079 -0.57 -0.16 0.23 0.78
1 1.79 179 -0.120 -9.582 3.041 -2.411 6.836 -0.763 1495.726 3535.747 1297.255 -0.043 0.257 -0.031 -0.57 -0.15 0.23 0.78
1 1.80 180 -0.187 -9.663 3.113 -2.594 6.378 -0.427 1495.726 3535.747 1297.255 0.022 0.338 -0.105 -0.57 -0.15 0.23 0.78
1 1.81 181 -0.105 -9.520 3.180 -2.747 6.775 -0.244 1495.726 3565.727 1297.255 -0.061 0.194 -0.174 -0.57 -0.15 0.23 0.78
1 1.82 182 -0.077 -9.635 3.103 -3.021 7.263 0.183 1615.797 3490.626 1267.274 -0.091 0.308 -0.099 -0.57 -0.15 0.22 0.78
1 1.83 183 -0.168 -9.611 3.141 -3.326 7.782 -0.397 1465.745 3565.727 1372.356 -0.003 0.283 -0.141 -0.57 -0.15 0.22 0.78
1 1.84 184 -0.177 -9.548 3.065 -1.373 7.965 -1.312 1465.745 3565.727 1372.356 0.005 0.220 -0.067 -0.57 -0.15 0.22 0.78
1 1.85 185 -0.215 -9.376 2.926 -0.031 7.965 -1.801 1510.866 3550.737 1312.395 0.043 0.047 0.071 -0.57 -0.15 0.22 0.78
1 1.86 186 -0.172 -9.467 2.892 -0.092 8.057 -2.319 1495.726 3490.626 1372.356 -0.001 0.138 0.105 -0.57 -0.15 0.22 0.78
1 1.87 187 -0.244 -9.299 2.849 -0.122 7.477 -1.587 1495.726 3490.626 1372.356 0.070 -0.028 0.151 -0.57 -0.15 0.22 0.78
1 1.88 188 -0.302 -9.462 2.931 -0.916 6.866 -1.495 1555.836 3580.717 1387.346 0.127 0.135 0.070 -0.57 -0.15 0.22 0.78
1 1.89 189 -0.249 -9.481 3.012 -2.197 6.470 -0.580 1510.866 3505.616 1462.297 0.073 0.154 -0.011 -0.57 -0.15 0.22 0.78
1 1.90 190 -0.192 -9.414 2.940 -2.563 7.507 0.366 1495.726 3595.708 1402.336 0.014 0.086 0.059 -0.57 -0.15 0.22 0.78
1 1.91 191 -0.225 -9.491 2.969 -3.479 9.094 0.397 1495.726 3595.708 1402.336 0.044 0.162 0.028 -0.57 -0.15 0.22 0.78
1 1.92 192 -0.268 -9.510 3.050 -1.953 9.430 0.671 1480.735 3550.737 1252.284 0.082 0.181 -0.056 -0.57 -0.15 0.22 0.78
1 1.93 193 -0.249 -9.371 3.012 -2.014 8.789 0.854 1480.735 3550.737 1432.317 0.058 0.041 -0.019 -0.57 -0.15 0.22 0.78
1 1.94 194 -0.306 -9.395 3.031 -2.777 6.134 0.427 1480.735 3550.737 1432.317 0.105 0.064 -0.042 -0.57 -0.15 0.22 0.78
1 1.95 195 -0.268 -9.486 3.050 -4.334 5.524 0.488 1390.794 3625.688 1192.323 0.063 0.155 -0.063 -0.57 -0.15 0.22 0.78
1 1.96 196 -0.378 -9.232 2.998 -4.761 5.310 1.434 1510.866 3685.649 1252.284 0.169 -0.100 -0.015 -0.57 -0.15 0.22 0.78
1 1.97 197 -0.263 -9.419 2.868 -5.066 5.920 2.075 1510.866 3685.649 1252.284 0.049 0.085 0.109 -0.57 -0.15 0.22 0.78
1 1.98 198 -0.268 -9.266 2.950 -4.089 6.989 3.082 1480.735 3430.665 1507.268 0.048 -0.070 0.022 -0.57 -0.15 0.22 0.78
1 1.99 199 -0.364 -9.462 2.950 -2.747 8.118 3.479 1330.833 3580.717 1507.268 0.137 0.125 0.017 -0.57 -0.15 0.22 0.78
1 2.00 200 -0.297 -9.477 2.969 -2.258 7.599 3.296 1345.823 3565.727 1297.255 0.062 0.139 -0.005 -0.57 -0.14 0.22 0.78
1 2.01 201 -0.287 -9.491 3.079 -2.289 7.172 3.967 1345.823 3565.727 1297.255 0.036 0.152 -0.119 -0.57 -0.14 0.22 0.78
1 2.02 202 -0.244 -9.587 3.026 -2.930 5.920 2.960 1450.755 3550.737 1282.265 -0.015 0.248 -0.067 -0.57 -0.14 0.22 0.78
1 2.03 203 -0.321 -9.572 2.998 -3.632 4.547 2.747 1375.804 3475.636 1507.268 0.056 0.232 -0.042 -0.57 -0.14 0.22 0.78
1 2.04 204 -0.268 -9.544 2.926 -2.777 3.876 1.953 1375.804 3475.636 1507.268 -0.001 0.203 0.026 -0.57 -0.14 0.22 0.78
1 2.05 205 -0.254 -9.668 2.911 -0.854 4.334 1.862 1330.833 3550.737 1282.265 -0.019 0.327 0.038 -0.57 -0.14 0.22 0.78
1 2.06 206 -0.182 -9.745 3.046 -0.488 5.310 1.282 1480.735 3550.737 1462.297 -0.093 0.403 -0.097 -0.57 -0.14 0.22 0.78
1 2.07 207 -0.206 -9.563 2.773 -0.458 5.402 0.946 1315.843 3595.708 1402.336 -0.073 0.221 0.176 -0.57 -0.14 0.22 0.78
1 2.08 208 -0.230 -9.663 2.773 0.275 6.042 1.038 1315.843 3595.708 1402.336 -0.055 0.322 0.177 -0.57 -0.14 0.21 0.78
1 2.09 209 -0.283 -9.764 2.835 0.793 5.463 0.824 1450.755 3550.737 1357.366 -0.006 0.423 0.115 -0.57 -0.14 0.21 0.78
1 2.10 210 -0.235 -9.649 2.902 2.502 5.188 1.251 1495.726 3625.688 1267.274 -0.056 0.309 0.050 -0.57 -0.14 0.21 0.78
1 2.11 211 -0.378 -9.678 3.017 3.143 4.517 1.678 1495.726 3625.688 1267.274 0.085 0.339 -0.060 -0.57 -0.14 0.21 0.78
1 2.12 212 -0.326 -9.769 2.950 4.120 6.073 0.793 1450.755 3475.636 1567.379 0.028 0.432 0.013 -0.57 -0.14 0.21 0.78
1 2.13 213 -0.306 -9.692 3.007 6.012 7.172 -0.031 1390.794 3535.747 1402.336 0.007 0.358 -0.038 -0.57 -0.14 0.21 0.78
1 2.14 214 -0.407 -9.544 2.916 5.890 7.141 0.031 1375.804 3505.616 1282.265 0.105 0.212 0.062 -0.57 -0.14 0.21 0.78
1 2.15 215 -0.206 -9.663 2.859 5.188 5.493 -0.793 1375.804 3505.616 1282.265 -0.099 0.335 0.129 -0.57 -0.14 0.21 0.78
1 2.16 216 -0.378 -9.462 2.787 3.204 3.510 0.519 1315.843 3415.675 1372.356 0.072 0.139 0.216 -0.57 -0.14 0.21 0.78
1 2.17 217 -0.259 -9.290 2.888 2.167 1.831 0.427 1450.755 3550.737 1537.249 -0.051 -0.032 0.120 -0.57 -0.14 0.21 0.78
1 2.18 218 -0.436 -9.467 2.725 2.533 0.641 -0.244 1450.755 3550.737 1537.249 0.126 0.146 0.286 -0.57 -0.14 0.21 0.78
1 2.19 219 -0.359 -9.371 2.744 3.479 0.885 -0.427 1510.866 3475.636 1387.346 0.050 0.052 0.271 -0.57 -0.14 0.21 0.78
1 2.20 220 -0.441 -9.295 2.844 4.822 0.702 -0.305 1480.735 3505.616 1357.366 0.132 -0.023 0.176 -0.57 -0.14 0.21 0.78
1 2.21 221 -0.287 -9.376 2.777 4.822 0.916 0.916 1300.853 3610.698 1312.395 -0.021 0.060 0.250 -0.57 -0.14 0.21 0.78
1 2.22 222 -0.484 -9.529 2.715 3.998 1.129 1.251 1300.853 3610.698 1312.395 0.173 0.216 0.319 -0.57 -0.14 0.21 0.78
1 2.23 223 -0.517 -9.448 2.892 1.312 -0.397 1.617 1585.817 3550.737 1357.366 0.204 0.138 0.153 -0.57 -0.13 0.21 0.78
1 2.24 224 -0.474 -9.433 2.883 0.885 -2.716 1.709 1465.745 3595.708 1297.255 0.158 0.125 0.165 -0.57 -0.13 0.21 0.78
1 2.25 225 -0.498 -9.386 2.897 -0.153 -3.906 1.740 1465.745 3595.708 1297.255 0.180 0.077 0.152 -0.57 -0.13 0.21 0.78
1 2.26 226 -0.450 -9.548 2.935 0.275 -5.951 1.556 1390.794 3565.727 1402.336 0.131 0.241 0.115 -0.57 -0.13 0.21 0.78
1 2.27 227 -0.460 -9.438 2.840 -0.214 -7.416 2.228 1510.866 3505.616 1432.317 0.141 0.131 0.211 -0.57 -0.14 0.21 0.78
1 2.28 228 -0.345 -9.620 2.921 1.129 -8.637 2.350 1480.735 3475.636 1357.366 0.026 0.313 0.130 -0.57 -0.14 0.21 0.78
1 2.29 229 -0.345 -9.505 2.864 0.702 -8.575 3.387 1480.735 3475.636 1357.366 0.026 0.199 0.190 -0.57 -0.14 0.21 0.78
1 2.30 230 -0.263 -9.429 2.897 0.671 -7.507 2.533 1285.862 3670.659 1267.274 -0.055 0.123 0.158 -0.57 -0.14 0.21 0.78
1 2.31 231 -0.091 -9.405 2.888 -0.305 -5.554 2.625 1330.833 3475.636 1207.313 -0.226 0.100 0.171 -0.57 -0.14 0.22 0.78
1 2.32 232 -0.139 -9.362 2.916 -1.038 -5.157 2.869 1330.833 3475.636 1207.313 -0.178 0.056 0.142 -0.57 -0.14 0.22 0.78
1 2.33 233 -0.120 -9.357 2.993 -0.916 -4.120 3.448 1405.784 3430.665 1387.346 -0.198 0.051 0.064 -0.57 -0.14 0.22 0.78
1 2.34 234 -0.172 -9.347 2.868 -1.678 -4.547 2.716 1375.804 3505.616 1282.265 -0.146 0.042 0.189 -0.57 -0.14 0.22 0.78
1 2.35 235 -0.148 -9.429 2.888 -3.204 -5.188 1.648 1480.735 3685.649 1207.313 -0.168 0.122 0.167 -0.57 -0.14 0.22 0.78
1 2.36 236 -0.148 -9.477 2.907 -2.625 -5.341 1.678 1480.735 3685.649 1207.313 -0.166 0.169 0.145 -0.57 -0.14 0.22 0.78
1 2.37 237 -0.220 -9.544 2.763 -2.106 -5.219 1.587 1405.784 3475.636 1312.395 -0.092 0.235 0.286 -0.57 -0.14 0.22 0.78
1 2.38 238 -0.148 -9.414 2.830 -1.801 -5.859 1.770 1510.866 3655.668 1387.346 -0.160 0.104 0.213 -0.57 -0.14 0.22 0.78
1 2.39 239 -0.263 -9.524 3.022 -0.977 -4.852 1.526 1510.866 3655.668 1387.346 -0.043 0.214 0.020 -0.57 -0.14 0.22 0.78
1 2.40 240 -0.287 -9.481 2.978 -1.556 -5.005 1.648 1420.774 3565.727 1267.274 -0.018 0.170 0.063 -0.57 -0.14 0.22 0.78
1 2.41 241 -0.311 -9.496 2.993 -1.038 -4.578 0.671 1420.774 3565.727 1267.274 0.007 0.185 0.049 -0.57 -0.14 0.22 0.78
1 2.42 242 -0.421 -9.510 3.180 -1.190 -3.845 1.770 1345.823 3565.727 1402.336 0.119 0.199 -0.139 -0.57 -0.14 0.22 0.78
1 2.43 243 -0.383 -9.366 3.151 -1.984 -5.219 1.434 1345.823 3565.727 1402.336 0.082 0.055 -0.110 -0.57 -0.14 0.22 0.78
1 2.44 244 -0.254 -9.505 2.978 -3.174 -5.432 1.617 1450.755 3655.668 1387.346 -0.048 0.194 0.063 -0.57 -0.14 0.22 0.78
1 2.45 245 -0.388 -9.319 3.156 -3.754 -6.531 3.601 1585.817 3475.636 1387.346 0.087 0.006 -0.120 -0.57 -0.14 0.22 0.78
1 2.46 246 -0.297 -9.481 3.012 -4.456 -7.599 3.265 1585.817 3475.636 1387.346 -0.005 0.167 0.021 -0.57 -0.14 0.22 0.78
1 2.47 247 -0.172 -9.520 3.031 -5.432 -7.660 4.303 1480.735 3610.698 1357.366 -0.130 0.204 -0.004 -0.57 -0.14 0.22 0.78
1 2.48 248 -0.326 -9.438 3.060 -5.768 -6.928 3.967 1480.735 3610.698 1357.366 0.022 0.121 -0.039 -0.57 -0.14 0.22 0.78
1 2.49 249 -0.263 -9.477 2.959 -4.547 -4.791 3.693 1540.846 3490.626 1402.336 -0.041 0.157 0.056 -0.57 -0.14 0.22 0.78
1 2.50 250 -0.244 -9.548 2.878 -2.441 -2.625 4.211 1540.846 3490.626 1402.336 -0.062 0.227 0.132 -0.57 -0.14 0.22 0.78
1 2.51 251 -0.182 -9.601 3.017 -0.641 -2.960 3.204 1540.846 3460.646 1342.375 -0.128 0.279 -0.008 -0.57 -0.14 0.22 0.78
1 2.52 252 -0.091 -9.596 3.055 0.824 -5.737 1.434 1510.866 3505.616 1432.317 -0.221 0.275 -0.046 -0.57 -0.14 0.22 0.78
1 2.53 253 -0.134 -9.548 3.031 0.946 -5.341 1.465 1510.866 3505.616 1432.317 -0.175 0.228 -0.019 -0.57 -0.14 0.22 0.78
1 2.54 254 -0.163 -9.553 3.060 1.831 -5.310 1.007 1465.745 3535.747 1402.336 -0.144 0.234 -0.044 -0.57 -0.14 0.22 0.78
1 2.55 255 -0.230 -9.424 2.983 0.671 -5.005 1.068 1465.745 3535.747 1402.336 -0.074 0.106 0.036 -0.57 -0.14 0.22 0.78
1 2.56 256 -0.340 -9.462 3.012 0.641 -4.974 1.129 1465.745 3490.626 1342.375 0.037 0.144 0.009 -0.57 -0.14 0.22 0.78
1 2.57 257 -0.239 -9.366 2.864 -1.190 -5.707 0.977 1465.745 3490.626 1342.375 -0.062 0.049 0.159 -0.57 -0.14 0.22 0.78
1 2.58 258 -0.311 -9.395 2.993 -1.984 -6.409 1.038 1555.836 3505.616 1432.317 0.011 0.078 0.030 -0.57 -0.14 0.22 0.78
1 2.59 259 -0.244 -9.472 2.854 -1.343 -5.096 1.221 1540.846 3535.747 1372.356 -0.054 0.154 0.167 -0.57 -0.14 0.22 0.78
1 2.60 260 -0.196 -9.381 3.017 -0.763 -3.204 1.129 1540.846 3535.747 1372.356 -0.099 0.063 0.004 -0.57 -0.14 0.22 0.78
1 2.61 261 -0.239 -9.544 2.945 -0.702 -1.953 1.831 1585.817 3550.737 1387.346 -0.055 0.226 0.076 -0.57 -0.15 0.22 0.78
1 2.62 262 -0.321 -9.438 3.050 -1.160 -1.526 1.434 1585.817 3550.737 1387.346 0.026 0.120 -0.029 -0.57 -0.15 0.22 0.78
1 2.63 263 -0.417 -9.505 3.084 -1.862 -1.648 1.190 1555.836 3430.665 1387.346 0.121 0.187 -0.063 -0.57 -0.15 0.22 0.78
1 2.64 264 -0.340 -9.524 2.945 -2.411 -3.296 1.984 1465.745 3625.688 1372.356 0.043 0.206 0.075 -0.57 -0.15 0.22 0.78
1 2.65 265 -0.316 -9.524 3.022 -0.885 -4.211 1.953 1540.846 3565.727 1222.304 0.017 0.206 -0.003 -0.57 -0.15 0.22 0.78
1 2.66 266 -0.220 -9.611 3.113 0.763 -3.784 1.556 1480.735 3475.636 1462.297 -0.079 0.292 -0.095 -0.57 -0.15 0.22 0.78
1 2.67 267 -0.326 -9.477 3.117 2.106 -3.082 1.068 1480.735 3475.636 1462.297 0.027 0.160 -0.093 -0.57 -0.15 0.23 0.78
1 2.68 268 -0.316 -9.524 2.945 3.174 -2.106 -0.244 1510.866 3430.665 1432.317 0.018 0.209 0.084 -0.57 -0.15 0.23 0.78
1 2.69 269 -0.402 -9.410 3.036 4.242 -1.862 -0.214 1510.866 3430.665 1432.317 0.106 0.096 0.000 -0.57 -0.15 0.23 0.78
1 2.70 270 -0.225 -9.395 2.969 4.822 -1.709 -0.519 1555.836 3580.717 1387.346 -0.069 0.084 0.074 -0.57 -0.15 0.23 0.78
1 2.71 271 -0.316 -9.386 2.935 4.486 -3.113 -1.068 1570.827 3565.727 1297.255 0.025 0.077 0.115 -0.57 -0.15 0.23 0.78
1 2.72 272 -0.182 -9.544 2.945 3.723 -3.693 -0.610 1405.784 3550.737 1312.395 -0.106 0.237 0.113 -0.57 -0.15 0.23 0.78
1 2.73 273 -0.239 -9.395 3.055 3.540 -2.960 0.183 1585.817 3550.737 1312.395 -0.044 0.091 0.009 -0.57 -0.15 0.23 0.78
1 2.74 274 -0.268 -9.333 3.113 2.289 -2.136 0.763 1585.817 3550.737 1312.395 -0.013 0.030 -0.043 -0.57 -0.15 0.23 0.78
1 2.75 275 -0.302 -9.453 3.184 -0.183 -0.824 1.343 1585.817 3610.698 1357.366 0.022 0.153 -0.106 -0.57 -0.15 0.23 0.78
1 2.76 276 -0.225 -9.462 3.098 -0.275 -0.580 1.465 1585.817 3610.698 1357.366 -0.056 0.163 -0.019 -0.57 -0.15 0.23 0.78
1 2.77 277 -0.215 -9.433 3.079 0.793 0.214 1.923 1645.778 3490.626 1342.375 -0.066 0.134 0.001 -0.57 -0.15 0.23 0.78
1 2.78 278 -0.206 -9.395 3.007 1.862 -0.702 1.282 1615.797 3595.708 1342.375 -0.077 0.097 0.076 -0.57 -0.15 0.23 0.78
1 2.79 279 -0.220 -9.352 3.046 2.899 -1.343 0.214 1465.745 3700.639 1342.375 -0.063 0.055 0.041 -0.57 -0.15 0.23 0.78
1 2.80 280 -0.115 -9.481 3.055 4.395 -0.610 -0.183 1480.735 3610.698 1252.284 -0.166 0.186 0.037 -0.57 -0.15 0.23 0.78
1 2.81 281 -0.019 -9.443 3.242 3.784 -0.336 -0.854 1480.735 3610.698 1252.284 -0.260 0.150 -0.143 -0.57 -0.15 0.23 0.78
1 2.82 282 0.005 -9.252 3.170 1.892 1.831 -1.831 1465.745 3565.727 1297.255 -0.278 -0.037 -0.057 -0.57 -0.15 0.23 0.78
1 2.83 283 0.086 -9.376 3.223 1.129 3.235 -2.014 1465.745 3565.727 1297.255 -0.355 0.089 -0.105 -0.57 -0.15 0.23 0.78
1 2.84 284 -0.053 -9.443 3.031 0.244 4.028 -2.777 1465.745 3565.727 1222.304 -0.212 0.157 0.090 -0.57 -0.15 0.23 0.78
1 2.85 285 -0.086 -9.410 3.017 0.641 4.211 -2.777 1450.755 3400.685 1252.284 -0.174 0.124 0.106 -0.57 -0.15 0.23 0.78
1 2.86 286 -0.211 -9.419 3.046 4.028 3.693 -2.563 1450.755 3610.698 1312.395 -0.046 0.134 0.080 -0.57 -0.15 0.22 0.78
1 2.87 287 -0.086 -9.572 3.175 5.646 4.028 -1.526 1345.823 3700.639 1342.375 -0.167 0.289 -0.044 -0.56 -0.15 0.22 0.78
1 2.88 288 0.000 -9.548 3.338 4.974 4.425 -0.824 1345.823 3700.639 1342.375 -0.251 0.268 -0.198 -0.56 -0.15 0.22 0.78
1 2.89 289 -0.077 -9.529 3.347 1.465 5.676 -0.336 1540.846 3595.708 1402.336 -0.174 0.255 -0.192 -0.56 -0.14 0.22 0.78
1 2.90 290 -0.182 -9.314 3.338 -2.106 6.287 -0.183 1540.846 3595.708 1402.336 -0.069 0.040 -0.179 -0.56 -0.14 0.22 0.78
1 2.91 291 -0.230 -9.247 3.180 -3.265 7.019 -0.763 1570.827 3625.688 1297.255 -0.023 -0.027 -0.022 -0.56 -0.14 0.22 0.78
1 2.92 292 -0.297 -9.376 3.065 -3.021 6.836 -2.289 1495.726 3490.626 1372.356 0.043 0.101 0.091 -0.56 -0.14 0.22 0.78
1 2.93 293 -0.354 -9.194 2.935 -1.221 6.012 -3.113 1570.827 3595.708 1372.356 0.101 -0.082 0.217 -0.56 -0.14 0.22 0.78
1 2.94 294 -0.469 -9.180 2.849 0.397 4.517 -4.059 1390.794 3565.727 1372.356 0.217 -0.096 0.303 -0.56 -0.14 0.22 0.78
1 2.95 295 -0.541 -9.410 2.873 1.617 3.845 -2.869 1390.794 3565.727 1372.356 0.291 0.134 0.279 -0.56 -0.14 0.22 0.78
1 2.96 296 -0.350 -9.596 3.194 1.923 4.303 -2.197 1345.823 3595.708 1267.274 0.102 0.322 -0.038 -0.56 -0.14 0.22 0.78
1 2.97 297 -0.431 -9.620 3.242 2.625 5.005 -1.343 1345.823 3595.708 1267.274 0.183 0.347 -0.083 -0.56 -0.14 0.22 0.78
1 2.98 298 -0.488 -9.702 3.227 4.486 5.859 0.763 1510.866 3550.737 1207.313 0.238 0.431 -0.061 -0.56 -0.14 0.22 0.78
1 2.99 299 -0.407 -9.486 3.309 3.937 4.089 -0.244 1375.804 3580.717 1252.284 0.152 0.218 -0.136 -0.56 -0.14 0.22 0.78
1 3.00 300 -0.450 -9.467 3.448 2.411 0.916 -0.885 1375.804 3655.668 1207.313 0.193 0.201 -0.267 -0.56 -0.14 0.22 0.78
1 3.01 301 -0.364 -9.491 3.208 0.763 -3.021 -1.190 1465.745 3595.708 1222.304 0.108 0.227 -0.023 -0.56 -0.14 0.22 0.78
1 3.02 302 -0.244 -9.328 3.251 0.000 -3.296 -1.892 1465.745 3595.708 1222.304 -0.010 0.065 -0.062 -0.56 -0.14 0.22 0.78
1 3.03 303 -0.081 -9.410 3.060 -0.244 -2.197 -1.160 1465.745 3595.708 1222.304 -0.169 0.147 0.131 -0.56 -0.14 0.22 0.78
1 3.04 304 -0.125 -9.041 2.974 -0.702 1.617 0.092 1465.745 3595.708 1222.304 -0.118 -0.222 0.218 -0.56 -0.14 0.22 0.78
1 3.05 305 -0.086 -9.237 3.074 -1.160 4.425 -0.061 1420.774 3625.688 1222.304 -0.155 -0.025 0.117 -0.56 -0.14 0.22 0.78
1 3.06 306 -0.168 -9.252 3.093 -2.014 5.432 0.031 1420.774 3625.688 1222.304 -0.074 -0.011 0.097 -0.56 -0.14 0.22 0.78
1 3.07 307 -0.263 -9.405 3.266 -2.777 7.111 0.183 1420.774 3625.688 1222.304 0.021 0.141 -0.078 -0.56 -0.14 0.22 0.78
1 3.08 308 -0.235 -9.496 3.036 -1.587 6.683 -0.458 1495.726 3490.626 1342.375 -0.011 0.231 0.150 -0.56 -0.14 0.22 0.78
1 3.09 309 -0.259 -9.625 3.160 -0.122 5.676 -0.793 1495.726 3490.626 1342.375 0.011 0.360 0.024 -0.56 -0.14 0.22 0.78
1 3.10 310 -0.144 -9.587 3.232 1.160 4.822 -1.312 1330.833 3580.717 1282.265 -0.105 0.322 -0.048 -0.56 -0.14 0.22 0.78
1 3.11 311 -0.330 -9.572 3.318 2.441 4.211 -1.556 1330.833 3580.717 1282.265 0.083 0.310 -0.128 -0.56 -0.14 0.22 0.78
1 3.12 312 -0.297 -9.592 3.309 2.899 3.479 -0.854 1330.833 3400.685 1357.366 0.050 0.331 -0.113 -0.56 -0.14 0.22 0.79
1 3.13 313 -0.316 -9.457 3.223 2.411 2.625 -2.563 1330.833 3610.698 1387.346 0.071 0.198 -0.021 -0.56 -0.14 0.22 0.79
1 3.14 314 -0.134 -9.338 3.141 1.862 1.373 -3.326 1330.833 3610.698 1387.346 -0.107 0.080 0.065 -0.56 -0.14 0.21 0.79
1 3.15 315 -0.168 -9.405 3.026 1.373 1.038 -3.510 1480.735 3610.698 1207.313 -0.068 0.148 0.183 -0.56 -0.14 0.21 0.79
1 3.16 316 -0.206 -9.295 3.055 1.373 1.099 -2.777 1480.735 3610.698 1207.313 -0.025 0.039 0.157 -0.56 -0.14 0.21 0.79
1 3.17 317 -0.077 -9.170 3.137 0.885 1.404 -3.143 1315.843 3700.639 1297.255 -0.150 -0.085 0.079 -0.56 -0.14 0.21 0.79
1 3.18 318 -0.168 -9.309 3.132 1.434 4.578 -3.479 1315.843 3700.639 1297.255 -0.054 0.055 0.085 -0.56 -0.14 0.21 0.79
1 3.19 319 -0.148 -9.429 3.117 1.099 7.416 -2.777 1480.735 3610.698 1252.284 -0.067 0.176 0.105 -0.56 -0.14 0.21 0.79
1 3.20 320 -0.139 -9.414 3.141 0.610 8.087 -3.937 1375.804 3610.698 1387.346 -0.075 0.163 0.084 -0.56 -0.14 0.21 0.79
1 3.21 321 -0.354 -9.410 3.318 1.617 7.080 -3.693 1375.804 3610.698 1387.346 0.142 0.159 -0.091 -0.56 -0.14 0.21 0.79
1 3.22 322 -0.436 -9.644 3.405 2.228 4.730 -3.662 1405.784 3505.616 1252.284 0.226 0.394 -0.174 -0.56 -0.14 0.21 0.79
1 3.23 323 -0.311 -9.491 3.314 3.326 2.014 -3.296 1405.784 3505.616 1252.284 0.103 0.243 -0.078 -0.56 -0.14 0.21 0.79
1 3.24 324 -0.460 -9.433 3.515 3.021 0.824 -2.625 1450.755 3610.698 1252.284 0.254 0.188 -0.273 -0.56 -0.14 0.21 0.79
1 3.25 325 -0.273 -9.472 3.290 2.991 0.427 -2.258 1450.755 3610.698 1252.284 0.071 0.228 -0.041 -0.56 -0.14 0.21 0.79
1 3.26 326 -0.244 -9.366 3.295 1.862 0.061 -2.716 1315.843 3625.688 1192.323 0.047 0.126 -0.035 -0.56 -0.14 0.21 0.79
1 3.27 327 -0.397 -9.319 3.405 1.099 -0.366 -2.625 1315.843 3625.688 1222.304 0.204 0.080 -0.141 -0.56 -0.14 0.21 0.79
1 3.28 328 -0.283 -9.213 3.299 1.495 -0.824 -2.319 1315.843 3625.688 1222.304 0.092 -0.024 -0.032 -0.56 -0.14 0.21 0.79
1 3.29 329 -0.239 -9.395 3.275 1.526 -1.190 -1.831 1390.794 3670.659 1222.304 0.053 0.159 -0.005 -0.56 -0.14 0.21 0.79
1 3.30 330 -0.201 -9.290 3.180 1.923 -1.740 -1.709 1495.726 3670.659 1297.255 0.018 0.055 0.095 -0.56 -0.14 0.21 0.79
1 3.31 331 -0.057 -9.247 3.352 1.099 -0.671 -1.617 1345.823 3490.626 1162.343 -0.122 0.013 -0.073 -0.56 -0.14 0.21 0.79
1 3.32 332 0.029 -9.199 3.309 0.488 0.580 -0.916 1345.823 3490.626 1162.343 -0.204 -0.033 -0.026 -0.56 -0.14 0.21 0.79
1 3.33 333 -0.139 -9.410 3.386 0.031 2.197 -0.671 1390.794 3565.727 1192.323 -0.033 0.179 -0.099 -0.56 -0.14 0.21 0.79
1 3.34 334 -0.139 -9.472 3.338 1.038 2.411 -1.343 1375.804 3580.717 1252.284 -0.032 0.242 -0.048 -0.56 -0.14 0.21 0.79
1 3.35 335 -0.249 -9.563 3.433 1.495 1.343 -0.977 1375.804 3580.717 1252.284 0.080 0.334 -0.140 -0.56 -0.14 0.21 0.79
1 3.36 336 -0.297 -9.582 3.266 2.441 -0.671 -1.190 1390.794 3565.727 1222.304 0.129 0.355 0.031 -0.56 -0.14 0.21 0.79
1 3.37 337 -0.211 -9.548 3.457 2.228 -2.136 -0.610 1300.853 3580.717 1282.265 0.045 0.323 -0.156 -0.56 -0.14 0.21 0.79
1 3.38 338 -0.254 -9.414 3.462 3.723 -3.296 0.122 1480.735 3610.698 1207.313 0.090 0.191 -0.155 -0.56 -0.14 0.21 0.79
1 3.39 339 -0.120 -9.448 3.524 3.937 -2.960 0.427 1480.735 3610.698 1207.313 -0.042 0.227 -0.209 -0.56 -0.14 0.21 0.79
1 3.40 340 -0.057 -9.314 3.347 5.310 -2.014 0.122 1390.794 3535.747 1267.274 -0.100 0.099 -0.015 -0.56 -0.14 0.21 0.79
1 3.41 341 -0.120 -9.352 3.352 5.371 -1.801 0.092 1480.735 3685.649 1312.395 -0.035 0.141 -0.010 -0.56 -0.14 0.21 0.79
1 3.42 342 -0.139 -9.208 3.271 4.456 1.465 0.000 1480.735 3685.649 1312.395 -0.015 0.001 0.081 -0.56 -0.14 0.21 0.79
1 3.43 343 -0.163 -9.237 3.347 3.540 2.014 0.519 1345.823 3670.659 1267.274 0.009 0.032 0.011 -0.56 -0.14 0.21 0.79
1 3.44 344 -0.230 -9.218 3.309 2.380 3.265 1.251 1330.833 3610.698 1177.333 0.075 0.015 0.056 -0.56 -0.14 0.21 0.79
1 3.45 345 -0.225 -9.347 3.390 2.411 3.082 0.916 1225.751 3505.616 1207.313 0.068 0.146 -0.020 -0.56 -0.14 0.21 0.79
1 3.46 346 -0.182 -9.309 3.280 2.319 3.143 1.343 1225.751 3505.616 1207.313 0.023 0.110 0.094 -0.56 -0.14 0.21 0.79
1 3.47 347 -0.211 -9.242 3.371 2.167 3.235 1.740 1330.833 3655.668 1207.313 0.048 0.045 0.009 -0.56 -0.14 0.21 0.79
1 3.48 348 -0.220 -9.103 3.395 1.587 2.808 1.343 1345.823 3700.639 1222.304 0.050 -0.091 -0.006 -0.56 -0.13 0.21 0.79
1 3.49 349 -0.172 -9.242 3.242 1.709 4.120 1.678 1345.823 3700.639 1222.304 -0.001 0.050 0.151 -0.56 -0.13 0.21 0.79
1 3.50 350 -0.215 -9.161 3.275 0.732 4.700 1.129 1330.833 3550.737 1207.313 0.038 -0.031 0.120 -0.56 -0.13 0.21 0.79
1 3.51 351 -0.163 -9.194 3.213 0.244 5.035 0.702 1345.823 3745.610 1267.274 -0.018 0.004 0.185 -0.56 -0.13 0.21 0.79
1 3.52 352 -0.139 -9.074 3.165 0.610 6.287 0.702 1225.751 3580.717 1132.362 -0.044 -0.116 0.234 -0.56 -0.13 0.21 0.79
1 3.53 353 -0.201 -9.242 3.275 0.061 6.256 0.671 1225.751 3580.717 1132.362 0.015 0.053 0.125 -0.56 -0.13 0.21 0.79
1 3.54 354 0.010 -9.074 3.208 -1.343 6.439 0.183 1480.735 3655.668 1282.265 -0.199 -0.115 0.192 -0.56 -0.13 0.21 0.79
1 3.55 355 -0.225 -9.314 3.409 -2.441 7.416 0.458 1405.784 3550.737 1312.395 0.029 0.124 -0.012 -0.56 -0.13 0.21 0.79
1 3.56 356 -0.096 -9.319 3.443 -3.693 7.233 0.519 1405.784 3550.737 1312.395 -0.104 0.128 -0.047 -0.56 -0.13 0.21 0.79
1 3.57 357 -0.220 -9.338 3.280 -5.096 7.782 0.427 1390.794 3670.659 1162.343 0.018 0.145 0.111 -0.56 -0.13 0.21 0.79
1 3.58 358 -0.096 -9.371 3.362 -4.822 9.766 1.160 1390.794 3625.688 1117.372 -0.111 0.177 0.024 -0.56 -0.13 0.21 0.79
1 3.59 359 -0.206 -9.496 3.342 -4.303 9.705 1.373 1255.732 3730.620 1252.284 -0.007 0.299 0.037 -0.56 -0.13 0.2 0.79
1 3.60 360 -0.038 -9.357 3.314 -2.045 10.345 0.580 1255.732 3730.620 1252.284 -0.181 0.159 0.061 -0.56 -0.13 0.2 0.79
1 3.61 361 -0.077 -9.429 3.271 -0.549 9.918 0.183 1285.862 3625.688 1117.372 -0.147 0.230 0.101 -0.56 -0.13 0.2 0.79
1 3.62 362 -0.010 -9.405 3.333 -0.885 9.918 -0.702 1345.823 3670.659 1192.323 -0.218 0.206 0.038 -0.56 -0.13 0.2 0.79
1 3.63 363 -0.019 -9.429 3.275 -2.045 9.735 -0.275 1345.823 3670.659 1192.323 -0.213 0.229 0.094 -0.56 -0.13 0.2 0.79
1 3.64 364 0.024 -9.400 3.175 -2.045 9.705 -2.106 1420.774 3625.688 1267.274 -0.257 0.199 0.192 -0.56 -0.13 0.2 0.79
1 3.65 365 0.110 -9.323 3.117 -1.526 11.780 -2.716 1210.761 3595.708 1192.323 -0.343 0.122 0.247 -0.56 -0.13 0.2 0.79
1 3.66 366 -0.091 -9.362 3.218 -0.549 13.153 -2.686 1315.843 3565.727 1297.255 -0.141 0.159 0.144 -0.56 -0.13 0.2 0.79
1 3.67 367 -0.081 -9.419 3.227 0.702 14.496 -2.380 1315.843 3565.727 1297.255 -0.151 0.216 0.133 -0.56 -0.13 0.2 0.79
1 3.68 368 -0.101 -9.510 3.376 0.763 15.228 -2.106 1495.726 3670.659 1222.304 -0.133 0.307 -0.015 -0.56 -0.12 0.2 0.8
1 3.69 369 -0.220 -9.438 3.199 0.610 14.679 -2.167 1315.843 3670.659 1162.343 -0.016 0.236 0.163 -0.56 -0.12 0.2 0.8
1 3.70 370 -0.273 -9.529 3.386 1.648 14.587 -1.923 1315.843 3670.659 1162.343 0.030 0.328 -0.021 -0.56 -0.12 0.2 0.8
1 3.71 371 -0.201 -9.472 3.261 1.648 14.191 -3.326 1225.751 3610.698 1207.313 -0.046 0.272 0.106 -0.56 -0.12 0.2 0.8
1 3.72 372 -0.196 -9.362 3.318 2.441 14.771 -3.082 1240.742 3595.708 1267.274 -0.052 0.163 0.051 -0.56 -0.12 0.19 0.8
1 3.73 373 -0.278 -9.376 3.395 2.502 15.289 -2.930 1240.742 3595.708 1267.274 0.027 0.178 -0.022 -0.56 -0.12 0.19 0.8
1 3.74 374 -0.211 -9.343 3.520 0.305 16.571 -2.197 1180.781 3655.668 1312.395 -0.043 0.147 -0.142 -0.56 -0.12 0.19 0.8
1 3.75 375 -0.187 -9.357 3.477 -1.251 17.304 -1.984 1330.833 3580.717 1132.362 -0.071 0.162 -0.097 -0.56 -0.12 0.19 0.8
1 3.76 376 -0.201 -9.319 3.333 -1.404 17.090 -2.014 1180.781 3655.668 1177.333 -0.061 0.124 0.048 -0.56 -0.12 0.19 0.8
1 3.77 377 -0.177 -9.405 3.419 0.824 17.487 -1.831 1180.781 3655.668 1177.333 -0.095 0.210 -0.038 -0.56 -0.12 0.19 0.8
1 3.78 378 -0.010 -9.304 3.261 0.885 16.876 -3.204 1240.742 3670.659 1342.375 -0.267 0.111 0.122 -0.56 -0.11 0.19 0.8
1 3.79 379 -0.091 -9.189 3.429 0.671 17.395 -3.052 1150.800 3685.649 1282.265 -0.188 -0.003 -0.044 -0.56 -0.11 0.19 0.8
1 3.80 380 -0.048 -9.362 3.371 0.000 18.158 -3.479 1150.800 3685.649 1282.265 -0.234 0.170 0.015 -0.56 -0.11 0.19 0.8
1 3.81 381 -0.125 -9.290 3.443 0.244 19.867 -3.540 1315.843 3670.659 1222.304 -0.160 0.098 -0.056 -0.56 -0.11 0.18 0.8
1 3.82 382 -0.182 -9.410 3.237 0.671 20.111 -4.456 1240.742 3670.659 1297.255 -0.106 0.218 0.151 -0.56 -0.11 0.18 0.8
1 3.83 383 -0.374 -9.275 3.338 2.441 20.691 -4.791 1165.791 3595.708 1162.343 0.083 0.085 0.051 -0.56 -0.11 0.18 0.8
1 3.84 384 -0.393 -9.386 3.362 2.472 18.646 -4.211 1165.791 3595.708 1162.343 0.096 0.197 0.033 -0.56 -0.11 0.18 0.8
1 3.85 385 -0.441 -9.271 3.395 2.289 17.242 -4.272 1150.800 3685.649 1282.265 0.140 0.083 0.003 -0.56 -0.11 0.18 0.8
1 3.86 386 -0.450 -9.347 3.491 2.716 16.266 -3.540 1345.823 3700.639 1297.255 0.147 0.162 -0.090 -0.56 -0.11 0.18 0.8
1 3.87 387 -0.340 -9.414 3.266 3.387 16.144 -3.235 1345.823 3700.639 1297.255 0.033 0.231 0.141 -0.56 -0.1 0.18 0.8
1 3.88 388 -0.354 -9.424 3.500 3.571 16.113 -2.533 1225.751 3685.649 1102.382 0.044 0.242 -0.090 -0.56 -0.1 0.18 0.8
1 3.89 389 -0.407 -9.347 3.362 2.625 16.876 -1.587 1180.781 3730.620 1252.284 0.093 0.168 0.055 -0.56 -0.1 0.18 0.8
1 3.90 390 -0.153 -9.290 3.563 3.082 17.792 -1.892 1105.830 3655.668 1282.265 -0.166 0.112 -0.140 -0.56 -0.1 0.17 0.8
1 3.91 391 -0.230 -9.290 3.405 2.197 17.883 -2.319 1105.830 3655.668 1282.265 -0.095 0.114 0.022 -0.56 -0.1 0.17 0.8
1 3.92 392 -0.378 -9.180 3.409 1.129 17.822 -3.693 1135.810 3595.708 1162.343 0.045 0.007 0.025 -0.56 -0.1 0.17 0.8
1 3.93 393 -0.326 -9.228 3.453 0.854 17.120 -4.150 1150.800 3730.620 1252.284 -0.011 0.056 -0.016 -0.56 -0.1 0.17 0.8
1 3.94 394 -0.455 -9.285 3.386 0.549 16.480 -4.456 1150.800 3730.620 1252.284 0.115 0.114 0.053 -0.56 -0.1 0.17 0.8
1 3.95 395 -0.469 -9.314 3.491 1.526 16.449 -4.486 1060.859 3625.688 1267.274 0.127 0.144 -0.051 -0.56 -0.1 0.17 0.8
1 3.96 396 -0.541 -9.328 3.352 2.625 15.869 -4.303 1150.800 3730.620 1252.284 0.197 0.159 0.091 -0.56 -0.1 0.17 0.8
1 3.97 397 -0.374 -9.213 3.352 2.716 16.235 -4.150 1105.830 3655.668 1282.265 0.027 0.046 0.094 -0.56 -0.09 0.17 0.8
1 3.98 398 -0.469 -9.304 3.496 2.411 16.113 -4.120 1105.830 3655.668 1282.265 0.119 0.138 -0.045 -0.56 -0.09 0.17 0.81
1 3.99 399 -0.426 -9.290 3.477 1.617 16.876 -3.906 1075.849 3685.649 1207.313 0.071 0.127 -0.019 -0.56 -0.09 0.16 0.81
1 4.00 400 -0.345 -9.319 3.577 0.824 16.113 -4.700 985.758 3790.730 1222.304 -0.013 0.157 -0.116 -0.56 -0.09 0.16 0.81
1 4.01 401 -0.546 -9.371 3.443 1.099 16.235 -4.608 987.557 3791.030 1222.903 0.186 0.211 0.021 -0.56 -0.09 0.16 0.81
1 4.02 402 -0.426 -9.343 3.524 0.946 15.930 -4.364 1017.537 3791.030 1117.972 0.064 0.183 -0.058 -0.56 -0.09 0.16 0.81
1 4.03 403 -0.397 -9.266 3.318 1.617 16.571 -4.517 1092.638 3821.011 1267.874 0.033 0.107 0.150 -0.56 -0.09 0.16 0.81
1 4.04 404 -0.268 -9.328 3.409 1.740 17.059 -5.005 942.586 3701.089 1162.942 -0.098 0.171 0.062 -0.56 -0.09 0.16 0.81
1 4.05 405 -0.450 -9.237 3.448 2.045 17.822 -5.096 942.586 3701.089 1162.942 0.082 0.081 0.026 -0.56 -0.09 0.16 0.81
1 4.06 406 -0.460 -9.237 3.424 1.129 18.433 -5.402 1077.648 3655.968 1312.845 0.090 0.082 0.053 -0.56 -0.09 0.16 0.81
1 4.07 407 -0.522 -9.180 3.591 0.580 18.433 -5.890 972.566 3880.972 1357.965 0.148 0.026 -0.111 -0.56 -0.08 0.15 0.81
1 4.08 408 -0.546 -9.232 3.558 0.519 18.127 -5.585 972.566 3880.972 1357.965 0.170 0.080 -0.076 -0.56 -0.08 0.15 0.81
1 4.09 409 -0.690 -9.280 3.505 -0.183 17.120 -5.127 1077.648 3610.998 1312.845 0.312 0.128 -0.021 -0.56 -0.08 0.15 0.81
1 4.10 410 -0.694 -9.223 3.591 0.549 15.747 -4.517 1077.648 3686.099 1207.913 0.313 0.072 -0.106 -0.56 -0.08 0.15 0.81
1 4.11 411 -0.828 -9.228 3.606 -0.427 14.710 -5.432 1062.658 3670.958 1372.956 0.445 0.077 -0.118 -0.56 -0.08 0.15 0.81
1 4.12 412 -0.579 -9.189 3.467 -0.641 14.648 -3.815 1062.658 3670.958 1372.956 0.194 0.039 0.021 -0.56 -0.08 0.15 0.81
1 4.13 413 -0.752 -9.218 3.544 -1.007 14.862 -2.899 927.596 3761.050 1252.884 0.363 0.068 -0.055 -0.56 -0.08 0.15 0.81
1 4.14 414 -0.809 -9.180 3.572 -1.526 14.099 -2.533 927.596 3836.001 1282.864 0.410 0.030 -0.085 -0.56 -0.08 0.15 0.81
1 4.15 415 -0.642 -9.333 3.515 -0.854 12.085 -1.923 927.596 3836.001 1282.864 0.236 0.183 -0.027 -0.56 -0.08 0.15 0.81
1 4.16 416 -0.742 -9.333 3.654 -0.366 10.376 -1.709 882.625 3791.030 1267.874 0.331 0.184 -0.166 -0.56 -0.07 0.14 0.81
1 4.17 417 -0.757 -9.362 3.759 -0.153 8.209 -1.495 882.625 3791.030 1267.874 0.340 0.213 -0.271 -0.56 -0.07 0.14 0.81
1 4.18 418 -0.642 -9.271 3.711 -0.916 4.944 -1.587 927.596 3655.968 1312.845 0.222 0.123 -0.221 -0.56 -0.07 0.14 0.81
1 4.19 419 -0.776 -9.146 3.625 -0.916 3.113 -1.587 927.596 3655.968 1312.845 0.352 -0.001 -0.133 -0.56 -0.07 0.14 0.81
1 4.20 420 -0.627 -9.132 3.567 -0.641 2.380 -1.373 927.596 3806.021 1282.864 0.203 -0.015 -0.075 -0.56 -0.07 0.14 0.81
1 4.21 421 -0.618 -9.189 3.539 0.214 0.580 -2.319 897.615 3655.968 1252.884 0.195 0.044 -0.043 -0.56 -0.07 0.14 0.81
1 4.22 422 -0.546 -9.218 3.539 0.305 1.282 -2.319 897.615 3655.968 1252.884 0.125 0.073 -0.041 -0.56 -0.07 0.14 0.81
1 4.23 423 -0.426 -9.165 3.582 -0.458 1.434 -1.709 897.615 3686.099 1282.864 0.008 0.021 -0.082 -0.56 -0.07 0.14 0.81
1 4.24 424 -0.608 -9.189 3.572 -0.031 1.831 -0.916 897.615 3686.099 1282.864 0.192 0.046 -0.070 -0.56 -0.07 0.14 0.81
1 4.25 425 -0.618 -9.323 3.611 -1.373 1.801 -0.793 852.645 3731.069 1312.845 0.201 0.180 -0.107 -0.56 -0.07 0.14 0.81
1 4.26 426 -0.541 -9.266 3.726 -1.770 1.801 0.214 852.645 3731.069 1312.845 0.124 0.123 -0.222 -0.56 -0.07 0.14 0.81
1 4.27 427 -0.522 -9.256 3.663 -2.502 0.519 0.824 852.645 3836.001 1282.864 0.104 0.114 -0.160 -0.56 -0.07 0.14 0.81
1 4.28 428 -0.541 -9.204 3.663 -2.411 -2.289 0.458 882.625 3701.089 1267.874 0.121 0.061 -0.160 -0.56 -0.07 0.14 0.81
1 4.29 429 -0.594 -9.232 3.658 -2.289 -3.052 0.763 882.625 3701.089 1267.874 0.174 0.089 -0.156 -0.56 -0.07 0.14 0.81
1 4.30 430 -0.508 -9.256 3.529 -0.580 -5.127 0.549 852.645 3761.050 1282.864 0.088 0.113 -0.026 -0.56 -0.07 0.14 0.81
1 4.31 431 -0.479 -9.299 3.745 0.519 -6.470 0.153 852.645 3761.050 1282.864 0.062 0.157 -0.240 -0.56 -0.07 0.14 0.81
1 4.32 432 -0.316 -9.376 3.740 0.549 -6.500 0.610 987.557 3701.089 1267.874 -0.098 0.235 -0.231 -0.56 -0.07 0.14 0.81
1 4.33 433 -0.321 -9.280 3.735 -0.366 -6.653 0.702 987.557 3701.089 1267.874 -0.090 0.141 -0.222 -0.56 -0.07 0.14 0.81
1 4.34 434 -0.374 -9.189 3.726 -0.916 -6.287 0.122 852.645 3761.050 1207.913 -0.033 0.051 -0.209 -0.56 -0.07 0.14 0.81
1 4.35 435 -0.326 -9.232 3.692 -0.488 -5.432 0.244 777.543 3731.069 1132.962 -0.076 0.094 -0.174 -0.56 -0.07 0.14 0.81
1 4.36 436 -0.407 -9.280 3.649 0.183 -4.395 0.793 777.543 3731.069 1132.962 0.013 0.144 -0.126 -0.56 -0.07 0.14 0.81
1 4.37 437 -0.402 -9.204 3.615 1.862 -5.646 0.580 822.664 3761.050 1207.913 0.010 0.069 -0.088 -0.56 -0.07 0.14 0.81
1 4.38 438 -0.479 -9.371 3.730 2.625 -6.470 0.732 822.664 3761.050 1207.913 0.090 0.239 -0.197 -0.56 -0.07 0.14 0.81
1 4.39 439 -0.436 -9.208 3.663 3.876 -6.531 0.519 882.625 3670.958 1342.975 0.050 0.078 -0.123 -0.56 -0.07 0.14 0.81
1 4.40 440 -0.292 -9.165 3.788 3.418 -7.965 0.641 912.605 3746.060 1267.874 -0.090 0.039 -0.239 -0.56 -0.07 0.14 0.81
1 4.41 441 -0.369 -9.094 3.716 1.099 -8.575 0.732 882.625 3701.089 1267.874 -0.009 -0.030 -0.159 -0.56 -0.07 0.14 0.81
1 4.42 442 -0.306 -9.199 3.687 -0.916 -9.796 1.373 807.524 3791.030 1162.942 -0.067 0.077 -0.125 -0.56 -0.08 0.14 0.81
1 4.43 443 -0.378 -9.175 3.759 -0.641 -11.627 0.977 807.524 3791.030 1162.942 0.014 0.055 -0.192 -0.56 -0.08 0.14 0.81
1 4.44 444 -0.244 -9.180 3.706 -0.122 -11.841 0.275 942.586 3670.958 1192.923 -0.114 0.060 -0.137 -0.56 -0.08 0.14 0.81
1 4.45 445 -0.211 -9.184 3.711 -0.092 -11.261 0.519 942.586 3670.958 1192.923 -0.140 0.066 -0.139 -0.56 -0.08 0.14 0.81
1 4.46 446 -0.139 -9.218 3.711 -0.092 -10.071 1.556 912.605 3701.089 1042.871 -0.205 0.100 -0.135 -0.56 -0.08 0.15 0.81
1 4.47 447 -0.249 -9.175 3.879 -0.031 -9.338 2.441 897.615 3731.069 1177.933 -0.090 0.058 -0.300 -0.56 -0.08 0.15 0.81
1 4.48 448 -0.225 -9.175 3.678 -1.160 -9.094 2.014 837.654 3701.089 1297.854 -0.110 0.059 -0.096 -0.56 -0.08 0.15 0.81
1 4.49 449 -0.225 -9.242 3.745 -1.160 -9.796 2.441 987.557 3791.030 1162.942 -0.106 0.127 -0.161 -0.56 -0.08 0.15 0.81
1 4.50 450 -0.220 -9.127 3.630 -1.038 -11.322 2.594 987.557 3791.030 1162.942 -0.107 0.012 -0.045 -0.56 -0.08 0.15 0.81
1 4.51 451 -0.148 -9.252 3.577 0.366 -12.878 0.885 942.586 3670.958 1162.942 -0.169 0.138 0.012 -0.56 -0.08 0.15 0.81
1 4.52 452 -0.134 -9.261 3.582 0.763 -13.245 -0.397 942.586 3670.958 1162.942 -0.175 0.149 0.010 -0.56 -0.08 0.15 0.81
1 4.53 453 -0.359 -9.309 3.606 1.068 -13.580 -0.610 942.586 3746.060 1192.923 0.060 0.197 -0.011 -0.56 -0.08 0.15 0.81
1 4.54 454 -0.177 -9.299 3.702 0.732 -12.970 -0.732 897.615 3731.069 1132.962 -0.113 0.189 -0.102 -0.56 -0.08 0.15 0.81
1 4.55 455 -0.139 -9.376 3.745 0.641 -13.153 -0.610 912.605 3701.089 1117.972 -0.141 0.267 -0.142 -0.56 -0.08 0.15 0.81
1 4.56 456 -0.287 -9.343 3.903 0.641 -13.458 -0.305 1107.628 3806.021 1102.981 0.017 0.234 -0.297 -0.56 -0.09 0.15 0.81
1 4.57 457 -0.129 -9.304 3.912 0.061 -14.740 -0.580 1107.628 3806.021 1102.981 -0.132 0.197 -0.304 -0.56 -0.09 0.15 0.81
1 4.58 458 -0.172 -9.510 3.706 -0.885 -18.005 -1.678 912.605 3791.030 1117.972 -0.067 0.405 -0.091 -0.55 -0.09 0.15 0.81
1 4.59 459 -0.177 -9.362 3.831 0.244 -19.379 -1.648 912.605 3791.030 1117.972 -0.049 0.256 -0.214 -0.55 -0.09 0.15 0.81
1 4.60 460 -0.096 -9.338 3.697 0.885 -21.362 -3.082 927.596 3686.099 1207.913 -0.115 0.233 -0.077 -0.55 -0.09 0.15 0.81
1 4.61 461 0.014 -9.496 3.927 0.641 -21.851 -3.418 987.557 3895.962 1162.942 -0.207 0.393 -0.302 -0.55 -0.09 0.15 0.81
1 4.62 462 0.081 -9.357 3.778 -0.549 -23.132 -4.547 912.605 3895.962 1042.871 -0.255 0.255 -0.150 -0.55 -0.09 0.15 0.81
1 4.63 463 0.005 -9.386 3.903 -0.732 -23.621 -5.188 1017.537 3746.060 1087.841 -0.157 0.285 -0.271 -0.55 -0.1 0.15 0.81
1 4.64 464 0.120 -9.410 3.812 -0.671 -24.109 -5.951 1017.537 3746.060 1087.841 -0.249 0.309 -0.178 -0.55 -0.1 0.16 0.81
1 4.65 465 0.062 -9.189 3.745 0.000 -24.048 -7.538 1047.667 3836.001 1102.981 -0.144 0.090 -0.108 -0.55 -0.1 0.16 0.81
1 4.66 466 0.024 -9.141 3.797 0.061 -24.811 -7.813 1047.667 3836.001 1102.981 -0.080 0.043 -0.157 -0.55 -0.1 0.16 0.81
1 4.67 467 0.043 -9.189 3.539 -0.671 -25.299 -6.805 1002.547 3731.069 1102.981 -0.073 0.092 0.104 -0.55 -0.1 0.16 0.81
1 4.68 468 0.172 -9.046 3.563 -1.862 -26.886 -6.287 1017.537 3670.958 1162.942 -0.178 -0.052 0.080 -0.55 -0.11 0.16 0.81
1 4.69 469 0.311 -9.161 3.352 -0.824 -28.229 -4.913 882.625 3746.060 1192.923 -0.291 0.062 0.290 -0.55 -0.11 0.16 0.81
1 4.70 470 0.555 -9.228 3.227 1.007 -27.466 -3.723 1002.547 3581.017 1057.861 -0.510 0.129 0.413 -0.55 -0.11 0.16 0.81
1 4.71 471 0.661 -9.256 3.213 4.150 -25.269 -1.801 1002.547 3581.017 1057.861 -0.591 0.158 0.428 -0.55 -0.11 0.16 0.81
1 4.72 472 0.843 -9.156 3.026 5.249 -21.637 0.885 972.566 3686.099 1057.861 -0.732 0.061 0.621 -0.55 -0.12 0.16 0.81
1 4.73 473 1.053 -9.050 3.127 3.998 -19.287 1.648 972.566 3686.099 1057.861 -0.926 -0.043 0.526 -0.55 -0.12 0.16 0.81
1 4.74 474 1.317 -9.055 3.060 2.106 -16.449 2.899 1017.537 3821.011 1087.841 -1.174 -0.037 0.595 -0.55 -0.12 0.16 0.81
1 4.75 475 1.623 -9.031 2.902 1.282 -13.306 3.296 1107.628 3836.001 1102.981 -1.467 -0.060 0.754 -0.55 -0.12 0.16 0.81
1 4.76 476 1.623 -9.026 2.974 -2.319 -6.744 3.571 912.605 3670.958 1087.841 -1.453 -0.065 0.680 -0.55 -0.12 0.16 0.81
1 4.77 477 1.729 -9.055 2.916 -2.655 -1.221 2.228 987.557 3701.089 1012.890 -1.547 -0.039 0.732 -0.55 -0.12 0.16 0.81
1 4.78 478 1.647 -9.156 3.017 -3.723 3.387 1.862 987.557 3701.089 1012.890 -1.455 0.060 0.625 -0.55 -0.12 0.16 0.81
1 4.79 479 1.398 -9.223 2.988 -4.639 5.737 1.495 1077.648 3761.050 997.900 -1.198 0.124 0.647 -0.55 -0.12 0.16 0.81
1 4.80 480 1.231 -9.323 3.160 -7.446 4.791 -0.031 1077.648 3761.050 997.900 -1.019 0.217 0.455 -0.55 -0.12 0.16 0.81
1 4.81 481 0.915 -9.390 3.323 -7.477 2.747 0.885 987.557 3791.030 1087.841 -0.698 0.279 0.280 -0.55 -0.12 0.16 0.81
1 4.82 482 0.785 -9.481 3.419 -7.141 0.336 1.862 897.615 3806.021 1132.962 -0.564 0.366 0.173 -0.55 -0.12 0.16 0.81
1 4.83 483 0.747 -9.520 3.635 -5.890 -1.343 4.120 897.615 3806.021 1132.962 -0.524 0.401 -0.052 -0.55 -0.12 0.16 0.81
1 4.84 484 0.421 -9.323 3.362 -4.608 -0.763 6.195 927.596 3761.050 1102.981 -0.199 0.202 0.214 -0.55 -0.12 0.16 0.81
1 4.85 485 0.292 -9.242 3.347 -4.395 -0.061 4.852 927.596 3761.050 1102.981 -0.074 0.118 0.222 -0.55 -0.12 0.16 0.81
1 4.86 486 0.206 -9.247 3.400 -4.486 1.160 4.181 1017.537 3670.958 1192.923 0.007 0.120 0.162 -0.55 -0.12 0.16 0.81
1 4.87 487 -0.115 -9.486 3.352 -2.930 -1.404 4.272 1017.537 3670.958 1192.923 0.317 0.354 0.199 -0.55 -0.12 0.16 0.81
1 4.88 488 -0.211 -9.553 3.505 -0.427 -5.493 6.073 927.596 3655.968 1057.861 0.406 0.420 0.042 -0.55 -0.12 0.16 0.81
1 4.89 489 -0.211 -9.467 3.769 1.648 -10.864 7.355 852.645 3686.099 1027.880 0.399 0.334 -0.220 -0.55 -0.12 0.16 0.81
1 4.90 490 -0.139 -9.486 3.754 1.221 -16.205 7.507 852.645 3686.099 1027.880 0.321 0.355 -0.202 -0.55 -0.12 0.16 0.81
1 4.91 491 0.244 -9.467 3.745 -0.580 -18.951 6.592 987.557 3746.060 1222.903 -0.065 0.337 -0.189 -0.55 -0.12 0.17 0.81
1 4.92 492 0.421 -9.256 3.654 -2.106 -18.311 5.371 987.557 3746.060 1222.903 -0.242 0.126 -0.097 -0.55 -0.13 0.17 0.81
1 4.93 493 0.771 -9.161 3.615 -5.646 -14.008 3.662 972.566 3686.099 1132.962 -0.588 0.031 -0.059 -0.55 -0.13 0.17 0.81
1 4.94 494 0.967 -9.256 3.500 -8.179 -7.813 3.998 972.566 3686.099 1132.962 -0.778 0.124 0.051 -0.55 -0.13 0.17 0.81
1 4.95 495 1.130 -9.223 3.314 -10.101 -0.397 5.402 1017.537 3791.030 1087.841 -0.935 0.083 0.217 -0.55 -0.13 0.17 0.81
1 4.96 496 1.140 -9.410 3.338 -9.644 1.984 3.845 1077.648 3686.099 1102.981 -0.943 0.265 0.180 -0.55 -0.13 0.17 0.81
1 4.97 497 1.116 -9.386 3.510 -6.592 2.014 1.343 1077.648 3686.099 1102.981 -0.917 0.236 -0.005 -0.55 -0.13 0.17 0.81
1 4.98 498 1.144 -9.366 3.544 -2.838 -1.129 -1.678 1107.628 3761.050 1057.861 -0.939 0.215 -0.045 -0.55 -0.13 0.17 0.81
1 4.99 499 1.226 -9.371 3.635 -1.373 -4.883 -4.486 1107.628 3761.050 1057.861 -1.009 0.219 -0.138 -0.55 -0.13 0.17 0.81
1 5.00 500 1.154 -9.204 3.663 -5.035 -6.165 -5.066 897.615 3686.099 1207.913 -0.922 0.052 -0.166 -0.55 -0.13 0.17 0.81
1 5.01 501 1.053 -9.189 3.371 -9.064 -5.920 -5.432 897.615 3686.099 1207.913 -0.804 0.037 0.122 -0.55 -0.13 0.17 0.81
1 5.02 502 0.867 -9.031 3.218 -13.275 -0.793 -5.341 972.566 3806.021 1102.981 -0.583 -0.130 0.251 -0.55 -0.13 0.17 0.81
1 5.03 503 0.919 -9.055 2.854 -10.956 3.021 -4.486 987.557 3670.958 1267.874 -0.624 -0.112 0.597 -0.55 -0.13 0.17 0.81
1 5.04 504 0.910 -9.151 2.873 -9.003 5.341 -3.265 987.557 3670.958 1267.874 -0.605 -0.022 0.562 -0.55 -0.13 0.17 0.8
1 5.05 505 0.637 -9.194 2.916 -4.608 6.439 -3.082 1002.547 3686.099 1102.981 -0.326 0.016 0.506 -0.55 -0.13 0.16 0.8
1 5.06 506 0.694 -9.113 3.151 -1.526 5.798 -1.709 972.566 3731.069 1057.861 -0.379 -0.067 0.265 -0.55 -0.13 0.16 0.8
1 5.07 507 0.599 -9.175 3.352 -1.984 4.669 0.214 927.596 3761.050 1177.933 -0.280 -0.006 0.061 -0.56 -0.13 0.16 0.8
1 5.08 508 0.297 -9.113 3.333 -3.479 4.028 3.265 927.596 3761.050 1177.933 0.022 -0.069 0.078 -0.56 -0.13 0.16 0.8
1 5.09 509 0.326 -9.242 3.405 -6.531 2.563 4.730 1017.537 3746.060 1297.854 -0.018 0.057 -0.003 -0.56 -0.13 0.16 0.8
1 5.10 510 0.215 -9.261 3.500 -6.073 1.160 5.310 912.605 3670.958 1162.942 0.085 0.073 -0.106 -0.56 -0.13 0.16 0.8
1 5.11 511 0.144 -9.290 3.328 -5.707 -0.854 6.928 912.605 3670.958 1162.942 0.148 0.099 0.061 -0.56 -0.13 0.16 0.8
1 5.12 512 0.110 -9.194 3.280 -5.676 -0.946 8.942 1002.547 3806.021 1177.933 0.171 0.001 0.102 -0.56 -0.13 0.16 0.8
1 5.13 513 -0.125 -9.089 3.261 -6.500 0.793 9.918 1002.547 3806.021 1177.933 0.392 -0.108 0.114 -0.56 -0.13 0.16 0.8
1 5.14 514 -0.340 -9.343 3.275 -8.392 4.608 11.810 1002.547 3731.069 1132.962 0.590 0.143 0.092 -0.56 -0.13 0.16 0.8
1 5.15 515 -0.627 -9.486 3.352 -9.552 6.348 10.986 1002.547 3731.069 1132.962 0.857 0.282 0.006 -0.56 -0.13 0.17 0.8
1 5.16 516 -0.776 -9.759 3.443 -11.444 5.646 9.979 1047.667 3761.050 1132.962 0.957 0.545 -0.109 -0.56 -0.13 0.17 0.8
1 5.17 517 -0.939 -9.845 3.663 -10.773 2.106 7.355 1017.537 3625.988 1162.942 1.098 0.626 -0.344 -0.56 -0.13 0.17 0.8
1 5.18 518 -0.886 -10.042 3.678 -9.552 -2.838 4.974 1017.537 3625.988 1162.942 1.027 0.817 -0.371 -0.56 -0.13 0.17 0.8
1 5.19 519 -0.464 -9.898 3.816 -7.965 -8.514 3.479 942.586 3566.027 1342.975 0.595 0.670 -0.521 -0.56 -0.13 0.17 0.8
1 5.20 520 -0.010 -9.788 3.582 -7.355 -16.083 -1.923 1002.547 3655.968 1177.933 0.136 0.557 -0.294 -0.56 -0.13 0.17 0.8
1 5.21 521 0.378 -9.611 3.606 -7.935 -16.510 -0.763 1062.658 3670.958 1267.874 -0.245 0.377 -0.325 -0.56 -0.13 0.17 0.8
1 5.22 522 0.680 -9.362 3.342 -8.331 -16.846 1.343 1062.658 3670.958 1267.874 -0.536 0.125 -0.071 -0.56 -0.13 0.17 0.8
1 5.23 523 0.872 -9.275 3.352 -10.010 -15.137 0.763 1062.658 3791.030 1222.903 -0.718 0.036 -0.089 -0.56 -0.13 0.17 0.8
1 5.24 524 1.173 -9.170 3.127 -9.247 -6.531 0.000 1062.658 3670.958 1297.854 -0.995 -0.078 0.111 -0.56 -0.13 0.17 0.8
1 5.25 525 1.168 -9.319 3.108 -6.287 2.594 -0.275 1062.658 3670.958 1297.854 -0.980 0.067 0.120 -0.56 -0.13 0.17 0.8
1 5.26 526 1.006 -9.376 3.151 -2.441 12.421 -0.610 1167.589 3566.027 1372.956 -0.810 0.122 0.070 -0.56 -0.13 0.17 0.8
1 5.27 527 0.546 -9.362 3.256 2.350 20.081 1.099 1047.667 3806.021 1252.884 -0.350 0.108 -0.036 -0.56 -0.13 0.17 0.8
1 5.28 528 0.120 -9.366 3.304 6.928 24.506 3.174 1107.628 3655.968 1252.884 0.067 0.115 -0.076 -0.56 -0.13 0.17 0.8
1 5.29 529 -0.129 -9.419 3.386 4.761 22.705 3.235 1107.628 3655.968 1252.884 0.302 0.172 -0.146 -0.56 -0.13 0.17 0.8
1 5.30 530 -0.393 -9.481 3.400 3.448 20.477 3.448 972.566 3731.069 1312.845 0.549 0.237 -0.150 -0.56 -0.13 0.17 0.8
1 5.31 531 -0.723 -9.534 3.505 1.373 15.076 2.350 852.645 3581.017 1177.933 0.846 0.294 -0.242 -0.56 -0.12 0.17 0.8
1 5.32 532 -0.828 -9.635 3.395 2.289 8.606 1.099 852.645 3581.017 1177.933 0.937 0.396 -0.127 -0.56 -0.12 0.16 0.8
1 5.33 533 -0.819 -9.563 3.400 3.113 1.068 0.214 987.557 3746.060 1402.936 0.916 0.326 -0.126 -0.56 -0.12 0.16 0.8
1 5.34 534 -0.694 -9.462 3.390 4.211 -8.270 -0.214 1077.648 3686.099 1132.962 0.786 0.228 -0.109 -0.56 -0.12 0.16 0.8
1 5.35 535 -0.512 -9.290 3.381 3.021 -17.548 -2.197 1092.638 3625.988 1267.874 0.603 0.059 -0.092 -0.56 -0.12 0.17 0.8
1 5.36 536 -0.321 -9.127 3.299 1.648 -19.318 -1.801 1092.638 3625.988 1267.874 0.417 -0.102 -0.004 -0.56 -0.12 0.17 0.8
1 5.37 537 -0.110 -9.007 3.390 -1.068 -16.449 -1.343 1062.658 3746.060 1267.874 0.215 -0.220 -0.090 -0.56 -0.12 0.17 0.8
1 5.38 538 0.287 -9.074 3.314 -6.134 -4.852 0.122 1077.648 3610.998 1207.913 -0.168 -0.153 -0.015 -0.56 -0.13 0.17 0.8
1 5.39 539 0.302 -9.161 3.338 -9.491 4.181 1.556 1077.648 3610.998 1207.913 -0.180 -0.070 -0.047 -0.56 -0.13 0.17 0.8
1 5.40 540 0.158 -9.189 3.232 -11.078 11.292 2.441 1182.580 3731.069 1207.913 -0.041 -0.045 0.046 -0.56 -0.13 0.17 0.8
1 5.41 541 0.139 -9.261 3.271 -11.505 15.167 2.533 972.566 3761.050 1312.845 -0.030 0.021 -0.006 -0.56 -0.13 0.17 0.8
1 5.42 542 -0.115 -9.414 3.309 -9.430 14.862 1.068 987.557 3596.007 1297.854 0.214 0.170 -0.058 -0.56 -0.12 0.17 0.8
1 5.43 543 -0.316 -9.668 3.328 -3.754 10.162 -0.885 987.557 3596.007 1297.854 0.406 0.420 -0.088 -0.57 -0.12 0.17 0.8
1 5.44 544 -0.321 -9.778 3.453 -0.763 7.202 -1.190 1017.537 3701.089 1267.874 0.406 0.528 -0.217 -0.57 -0.12 0.17 0.8
1 5.45 545 -0.302 -9.663 3.342 1.892 3.815 -2.106 882.625 3746.060 1297.854 0.382 0.413 -0.107 -0.57 -0.12 0.16 0.8
1 5.46 546 -0.402 -9.467 3.290 2.930 1.709 -0.610 882.625 3746.060 1297.854 0.477 0.221 -0.044 -0.57 -0.12 0.16 0.8
1 5.47 547 -0.321 -9.256 3.141 1.984 0.916 -1.007 1077.648 3731.069 1312.845 0.392 0.012 0.111 -0.57 -0.12 0.16 0.8
1 5.48 548 -0.340 -9.362 3.132 1.343 -0.305 -1.373 1062.658 3625.988 1297.854 0.409 0.119 0.124 -0.57 -0.12 0.16 0.8
1 5.49 549 -0.364 -9.180 2.998 0.916 -0.610 -2.594 987.557 3670.958 1267.874 0.433 -0.062 0.261 -0.56 -0.12 0.16 0.8
1 5.50 550 -0.144 -9.213 3.084 0.061 -0.793 -3.754 987.557 3670.958 1267.874 0.215 -0.028 0.176 -0.56 -0.12 0.16 0.8
1 5.51 551 0.101 -9.309 3.137 -0.610 -0.580 -3.326 1077.648 3581.017 1312.845 -0.026 0.068 0.125 -0.56 -0.12 0.16 0.8
1 5.52 552 0.110 -9.357 3.271 -1.007 1.251 -1.312 1062.658 3670.958 1342.975 -0.031 0.116 -0.009 -0.56 -0.12 0.16 0.8
1 5.53 553 0.053 -9.410 3.256 -3.296 2.472 -1.007 1062.658 3670.958 1342.975 0.030 0.169 0.005 -0.56 -0.12 0.16 0.8
1 5.54 554 0.086 -9.477 3.237 -4.883 3.326 -1.556 1047.667 3761.050 1207.913 -0.003 0.234 0.020 -0.57 -0.12 0.16 0.8
1 5.55 555 -0.048 -9.515 3.405 -4.730 3.906 -0.641 1047.667 3655.968 1387.946 0.132 0.271 -0.153 -0.57 -0.12 0.16 0.8
1 5.56 556 -0.235 -9.419 3.275 -5.646 2.777 -0.854 1047.667 3610.998 1387.946 0.318 0.173 -0.028 -0.57 -0.12 0.16 0.8
1 5.57 557 -0.172 -9.438 3.151 -5.371 2.441 -1.160 1047.667 3610.998 1387.946 0.254 0.190 0.091 -0.57 -0.12 0.16 0.8
1 5.58 558 -0.302 -9.410 3.069 -3.723 2.350 -1.282 1077.648 3731.069 1312.845 0.383 0.159 0.166 -0.57 -0.12 0.16 0.8
1 5.59 559 -0.374 -9.577 3.108 -1.099 1.862 -1.190 972.566 3581.017 1177.933 0.454 0.325 0.123 -0.57 -0.12 0.16 0.8
1 5.60 560 -0.172 -9.596 3.285 0.488 0.153 0.824 972.566 3581.017 1177.933 0.249 0.344 -0.055 -0.57 -0.12 0.16 0.8
1 5.61 561 -0.192 -9.620 3.323 -0.458 -1.038 1.801 942.586 3625.988 1342.975 0.264 0.369 -0.091 -0.57 -0.12 0.16 0.8
1 5.62 562 -0.062 -9.467 3.314 -0.244 -1.953 3.143 972.566 3686.099 1357.965 0.132 0.216 -0.081 -0.57 -0.12 0.16 0.8
1 5.63 563 -0.048 -9.635 3.405 -0.641 -3.662 3.540 972.566 3686.099 1357.965 0.113 0.384 -0.170 -0.57 -0.12 0.16 0.8
1 5.64 564 0.062 -9.453 3.189 1.801 -4.547 2.563 987.557 3746.060 1372.956 -0.001 0.203 0.047 -0.57 -0.12 0.16 0.8
1 5.65 565 0.014 -9.433 3.318 2.380 -4.272 2.777 1017.537 3536.046 1372.956 0.046 0.185 -0.079 -0.57 -0.12 0.16 0.8
1 5.66 566 0.211 -9.395 3.137 2.899 -3.510 1.709 1062.658 3625.988 1267.874 -0.152 0.148 0.107 -0.57 -0.12 0.16 0.8
1 5.67 567 0.187 -9.228 3.165 3.357 -2.014 1.709 1062.658 3625.988 1267.874 -0.127 -0.018 0.084 -0.57 -0.12 0.16 0.8
1 5.68 568 0.196 -9.304 3.156 1.343 0.549 1.831 1002.547 3610.998 1432.917 -0.136 0.063 0.104 -0.57 -0.12 0.16 0.8
1 5.69 569 0.057 -9.223 3.127 0.031 2.136 2.747 942.586 3701.089 1342.975 0.001 -0.018 0.136 -0.57 -0.12 0.16 0.8
1 5.70 570 0.153 -9.247 3.170 -1.984 3.723 2.808 942.586 3701.089 1342.975 -0.099 0.006 0.093 -0.57 -0.12 0.16 0.8
1 5.71 571 -0.057 -9.381 3.204 -2.136 4.730 2.533 1092.638 3670.958 1447.907 0.107 0.140 0.058 -0.57 -0.12 0.16 0.8
1 5.72 572 0.000 -9.266 3.218 -1.404 3.174 1.160 1107.628 3731.069 1432.917 0.044 0.024 0.042 -0.57 -0.12 0.16 0.8
1 5.73 573 -0.014 -9.386 3.199 0.183 1.740 0.916 1062.658 3746.060 1297.854 0.055 0.144 0.061 -0.57 -0.12 0.16 0.8
1 5.74 574 -0.067 -9.457 3.395 0.549 1.343 1.038 1062.658 3746.060 1297.854 0.106 0.216 -0.134 -0.57 -0.12 0.16 0.8
1 5.75 575 -0.024 -9.357 3.271 1.221 1.801 1.007 1047.667 3655.968 1357.965 0.059 0.117 -0.004 -0.57 -0.12 0.16 0.8
1 5.76 576 0.077 -9.371 3.251 0.732 2.563 0.977 1092.638 3625.988 1222.903 -0.043 0.133 0.018 -0.57 -0.12 0.16 0.8
1 5.77 577 0.043 -9.467 3.304 1.282 3.448 1.495 1092.638 3625.988 1222.903 -0.012 0.229 -0.032 -0.57 -0.12 0.16 0.8
1 5.78 578 0.120 -9.501 3.204 0.732 3.326 1.556 1077.648 3686.099 1387.946 -0.092 0.264 0.071 -0.57 -0.12 0.16 0.8
1 5.79 579 0.034 -9.285 3.223 -0.854 3.174 1.770 972.566 3655.968 1312.845 -0.008 0.049 0.054 -0.57 -0.12 0.16 0.8
1 5.80 580 0.091 -9.366 3.232 -1.282 3.510 2.106 1077.648 3731.069 1252.884 -0.068 0.131 0.045 -0.57 -0.12 0.16 0.8
1 5.81 581 0.201 -9.314 3.280 -1.434 4.486 2.014 1077.648 3731.069 1252.884 -0.182 0.078 -0.003 -0.57 -0.12 0.16 0.8
1 5.82 582 0.062 -9.328 3.251 -2.960 6.592 2.899 1092.638 3625.988 1297.854 -0.052 0.092 0.024 -0.57 -0.12 0.16 0.8
1 5.83 583 0.182 -9.362 3.194 -2.808 7.416 2.502 1002.547 3731.069 1282.864 -0.178 0.124 0.078 -0.57 -0.11 0.16 0.8
1 5.84 584 -0.043 -9.352 3.204 -1.862 8.118 1.556 1002.547 3731.069 1282.864 0.041 0.114 0.066 -0.57 -0.11 0.16 0.8
1 5.85 585 -0.072 -9.453 3.242 -0.549 7.507 1.007 987.557 3701.089 1162.942 0.064 0.214 0.027 -0.57 -0.11 0.16 0.8
1 5.86 586 0.072 -9.266 3.295 -0.671 6.866 0.183 1047.667 3655.968 1312.845 -0.084 0.027 -0.025 -0.57 -0.11 0.16 0.8
1 5.87 587 0.072 -9.295 3.309 -1.862 6.073 0.610 1077.648 3686.099 1207.913 -0.087 0.057 -0.038 -0.57 -0.11 0.16 0.8
1 5.88 588 0.101 -9.242 3.223 -2.991 6.958 0.153 1077.648 3686.099 1207.913 -0.119 0.004 0.047 -0.57 -0.11 0.16 0.8
1 5.89 589 0.115 -9.299 3.189 -4.395 7.111 1.190 912.605 3670.958 1342.975 -0.136 0.061 0.079 -0.57 -0.11 0.16 0.8
1 5.90 590 0.101 -9.256 3.122 -4.517 9.125 4.395 1107.628 3610.998 1282.864 -0.131 0.014 0.136 -0.57 -0.11 0.16 0.8
1 5.91 591 0.048 -9.477 3.256 -2.625 8.606 1.709 1107.628 3610.998 1282.864 -0.087 0.232 -0.003 -0.57 -0.11 0.16 0.8
1 5.92 592 -0.081 -9.524 3.338 -0.916 8.484 0.610 987.557 3566.027 1297.854 0.036 0.280 -0.086 -0.57 -0.11 0.16 0.8
1 5.93 593 -0.081 -9.568 3.386 0.946 8.881 2.014 882.625 3701.089 1372.956 0.031 0.323 -0.133 -0.57 -0.11 0.16 0.8
1 5.94 594 -0.129 -9.769 3.467 1.953 7.294 3.479 987.557 3625.988 1402.936 0.072 0.525 -0.212 -0.57 -0.11 0.16 0.8
1 5.95 595 -0.163 -9.721 3.290 2.167 5.676 4.822 987.557 3625.988 1402.936 0.098 0.479 -0.031 -0.57 -0.11 0.16 0.8
1 5.96 596 -0.024 -9.438 3.438 1.740 5.005 6.622 927.596 3655.968 1462.897 -0.050 0.198 -0.174 -0.57 -0.11 0.16 0.8
1 5.97 597 -0.014 -9.343 3.457 1.434 4.456 6.287 1152.599 3581.017 1357.965 -0.081 0.106 -0.185 -0.57 -0.11 0.16 0.8
1 5.98 598 -0.024 -9.429 3.424 0.946 4.913 7.904 1152.599 3581.017 1357.965 -0.082 0.194 -0.146 -0.57 -0.11 0.16 0.8
1 5.99 599 0.101 -9.381 3.405 0.336 7.294 9.247 1017.537 3670.958 1192.923 -0.220 0.147 -0.124 -0.57 -0.1 0.16 0.8
1 6.00 600 0.101 -9.410 3.285 0.702 9.522 10.071 1212.560 3596.007 1372.956 -0.234 0.177 -0.001 -0.57 -0.1 0.16 0.8
1 6.01 601 -0.101 -9.381 3.338 0.366 11.993 10.284 1047.667 3581.017 1282.864 -0.050 0.149 -0.052 -0.57 -0.1 0.16 0.8
1 6.02 602 -0.187 -9.472 3.376 2.380 14.465 8.209 1047.667 3581.017 1282.864 0.017 0.242 -0.087 -0.57 -0.1 0.16 0.8
1 6.03 603 -0.297 -9.510 3.409 3.296 14.862 7.477 1017.537 3625.988 1222.903 0.109 0.282 -0.116 -0.57 -0.1 0.16 0.8
1 6.04 604 -0.436 -9.568 3.548 2.594 13.794 7.202 1092.638 3596.007 1222.903 0.212 0.345 -0.242 -0.57 -0.1 0.16 0.8
1 6.05 605 -0.359 -9.639 3.587 2.960 12.207 7.263 1092.638 3596.007 1222.903 0.119 0.419 -0.274 -0.57 -0.1 0.16 0.8
1 6.06 606 -0.278 -9.568 3.548 2.747 9.857 7.874 987.557 3566.027 1402.936 0.021 0.350 -0.230 -0.57 -0.1 0.16 0.8
1 6.07 607 -0.388 -9.362 3.620 3.113 8.453 7.446 987.557 3566.027 1402.936 0.115 0.147 -0.296 -0.57 -0.09 0.16 0.8
1 6.08 608 -0.259 -9.405 3.472 3.387 7.050 4.669 1047.667 3731.069 1252.884 -0.028 0.193 -0.140 -0.57 -0.09 0.16 0.8
1 6.09 609 -0.350 -9.218 3.386 3.296 7.996 3.510 1047.667 3731.069 1252.884 0.052 0.009 -0.047 -0.57 -0.09 0.16 0.8
1 6.10 610 -0.302 -9.094 3.232 5.920 9.888 0.549 1017.537 3536.046 1342.975 -0.004 -0.113 0.113 -0.57 -0.09 0.16 0.8
1 6.11 611 -0.421 -9.180 3.046 9.125 12.085 -0.732 1002.547 3551.037 1357.965 0.110 -0.023 0.308 -0.57 -0.09 0.16 0.8
1 6.12 612 -0.508 -9.151 2.964 15.076 13.397 -3.693 1002.547 3551.037 1357.965 0.187 -0.041 0.418 -0.57 -0.09 0.16 0.8
1 6.13 613 -0.694 -9.060 2.916 17.334 13.733 -6.836 1047.667 3686.099 1282.864 0.372 -0.124 0.487 -0.56 -0.09 0.16 0.81
1 6.14 614 -0.910 -9.060 2.940 18.158 12.451 -9.186 1047.667 3686.099 1282.864 0.589 -0.116 0.486 -0.56 -0.09 0.16 0.81
1 6.15 615 -0.939 -9.098 2.873 16.480 11.566 -10.498 912.605 3625.988 1342.975 0.621 -0.069 0.576 -0.56 -0.09 0.15 0.81
1 6.16 616 -0.872 -9.290 2.811 13.580 8.087 -11.383 912.605 3625.988 1342.975 0.559 0.130 0.659 -0.56 -0.09 0.15 0.81
1 6.17 617 -0.967 -9.242 2.667 12.268 5.280 -11.322 927.596 3655.968 1282.864 0.662 0.088 0.819 -0.56 -0.09 0.15 0.81
1 6.18 618 -0.996 -9.271 2.524 10.468 1.129 -10.956 942.586 3566.027 1267.874 0.699 0.122 0.976 -0.56 -0.09 0.15 0.81
1 6.19 619 -0.972 -9.223 2.322 8.118 -4.456 -11.108 942.586 3566.027 1267.874 0.696 0.080 1.196 -0.56 -0.09 0.15 0.81
1 6.20 620 -1.044 -9.290 2.504 6.226 -6.317 -10.284 1002.547 3731.069 1252.884 0.781 0.149 1.018 -0.56 -0.09 0.15 0.81
1 6.21 621 -0.881 -9.352 2.701 2.777 -6.378 -9.369 1002.547 3731.069 1252.884 0.631 0.211 0.824 -0.56 -0.09 0.15 0.81
1 6.22 622 -1.006 -9.520 2.868 -0.336 -5.585 -8.545 1017.537 3625.988 1342.975 0.767 0.378 0.655 -0.56 -0.09 0.15 0.81
1 6.23 623 -1.135 -9.582 2.907 -4.547 -6.165 -4.944 927.596 3581.017 1177.933 0.904 0.438 0.611 -0.56 -0.09 0.15 0.81
1 6.24 624 -1.164 -9.711 3.022 -6.012 -5.554 -2.106 972.566 3731.069 1207.913 0.938 0.563 0.486 -0.56 -0.09 0.15 0.81
1 6.25 625 -1.231 -9.644 3.304 -6.897 -5.005 2.045 987.557 3670.958 1342.975 1.005 0.492 0.192 -0.56 -0.09 0.15 0.81
1 6.26 626 -1.279 -9.769 3.290 -6.897 -4.395 7.507 987.557 3670.958 1342.975 1.038 0.608 0.184 -0.56 -0.09 0.15 0.81
1 6.27 627 -1.183 -9.596 3.050 -7.660 -3.052 9.186 927.596 3761.050 1252.884 0.926 0.432 0.412 -0.56 -0.09 0.15 0.81
1 6.28 628 -1.188 -9.486 2.773 -8.057 -1.068 11.292 927.596 3761.050 1252.884 0.912 0.318 0.678 -0.56 -0.09 0.15 0.81
1 6.29 629 -1.006 -9.328 2.811 -8.545 2.136 11.444 882.625 3701.089 1267.874 0.707 0.155 0.625 -0.56 -0.09 0.15 0.81
1 6.30 630 -1.006 -9.515 2.643 -11.322 0.610 11.475 882.625 3701.089 1297.854 0.685 0.337 0.777 -0.56 -0.09 0.15 0.81
1 6.31 631 -0.857 -9.539 2.691 -14.435 -5.585 9.277 1047.667 3761.050 1282.864 0.516 0.354 0.709 -0.56 -0.09 0.15 0.81
1 6.32 632 -0.484 -9.611 2.792 -12.604 -8.423 7.324 972.566 3655.968 1357.965 0.127 0.418 0.585 -0.57 -0.09 0.15 0.81
1 6.33 633 -0.383 -9.592 2.868 -8.240 -8.911 4.791 972.566 3655.968 1357.965 0.017 0.391 0.487 -0.57 -0.09 0.15 0.8
1 6.34 634 -0.134 -9.630 2.888 0.458 -6.500 1.221 1002.547 3731.069 1252.884 -0.234 0.421 0.445 -0.57 -0.09 0.16 0.8
1 6.35 635 -0.311 -9.548 2.773 6.836 -2.625 -2.136 1002.547 3731.069 1252.884 -0.052 0.340 0.561 -0.57 -0.09 0.16 0.8
1 6.36 636 -0.330 -9.304 2.768 11.078 -1.709 -4.150 972.566 3655.968 1387.946 -0.026 0.099 0.575 -0.57 -0.09 0.16 0.8
1 6.37 637 -0.393 -9.242 2.734 12.329 -0.671 -6.653 942.586 3670.958 1222.903 0.045 0.041 0.623 -0.57 -0.09 0.15 0.8
1 6.38 638 -0.828 -8.806 2.706 7.782 -4.211 -8.087 1077.648 3806.021 1357.965 0.491 -0.389 0.666 -0.57 -0.09 0.15 0.81
1 6.39 639 -0.915 -8.892 2.538 -0.031 -8.331 -7.660 972.566 3686.099 1177.933 0.589 -0.300 0.844 -0.57 -0.09 0.15 0.81
1 6.40 640 -0.953 -8.835 2.715 -7.538 -14.313 -6.317 972.566 3686.099 1177.933 0.639 -0.357 0.668 -0.57 -0.09 0.15 0.81
1 6.41 641 -0.761 -8.921 2.437 -17.639 -24.750 -3.052 1092.638 3895.962 1297.854 0.470 -0.283 0.915 -0.57 -0.09 0.15 0.8
1 6.42 642 -0.809 -9.199 2.083 -21.942 -32.776 -2.167 1092.638 3895.962 1297.854 0.531 -0.016 1.241 -0.57 -0.09 0.16 0.8
1 6.43 643 -0.886 -9.381 2.064 -21.271 -35.614 -2.655 1002.547 3686.099 1177.933 0.624 0.153 1.224 -0.57 -0.09 0.16 0.8
1 6.44 644 -0.790 -9.735 2.322 -15.991 -32.776 -2.136 1002.547 3686.099 1132.962 0.546 0.495 0.932 -0.57 -0.1 0.16 0.8
1 6.45 645 -0.718 -9.630 2.720 -7.629 -26.032 -2.991 927.596 3686.099 1177.933 0.489 0.380 0.510 -0.57 -0.1 0.16 0.8
1 6.46 646 -0.656 -9.797 3.175 0.031 -13.306 -1.984 1002.547 3610.998 1177.933 0.440 0.544 0.045 -0.57 -0.1 0.16 0.8
1 6.47 647 -0.575 -9.831 3.510 -1.465 -6.439 0.061 1002.547 3610.998 1177.933 0.367 0.577 -0.292 -0.57 -0.1 0.16 0.8
1 6.48 648 -0.479 -9.917 3.635 -12.268 -2.594 6.165 987.557 3701.089 1267.874 0.269 0.661 -0.423 -0.57 -0.1 0.16 0.8
1 6.49 649 -0.302 -10.013 3.654 -17.853 -4.395 10.101 987.557 3701.089 1267.874 0.082 0.751 -0.458 -0.57 -0.1 0.16 0.8
1 6.50 650 -0.139 -10.070 3.587 -18.646 -4.669 13.458 1047.667 3761.050 1282.864 -0.095 0.801 -0.414 -0.57 -0.1 0.16 0.8
1 6.51 651 -0.144 -9.951 3.639 -15.411 -3.357 13.916 822.664 3731.069 1207.913 -0.106 0.674 -0.488 -0.57 -0.1 0.16 0.8
1 6.52 652 0.062 -9.630 3.496 -8.362 2.319 13.001 837.654 3670.958 1222.903 -0.329 0.348 -0.361 -0.57 -0.1 0.16 0.8
1 6.53 653 -0.101 -9.419 3.448 -5.981 5.157 11.139 987.557 3670.958 1192.923 -0.184 0.135 -0.323 -0.57 -0.1 0.16 0.8
1 6.54 654 -0.077 -9.338 3.409 -6.012 5.524 9.186 987.557 3670.958 1192.923 -0.224 0.052 -0.290 -0.58 -0.1 0.16 0.8
1 6.55 655 -0.225 -9.386 3.285 -6.683 2.869 7.629 1047.667 3880.972 1177.933 -0.089 0.099 -0.170 -0.58 -0.1 0.16 0.79
1 6.56 656 -0.091 -9.534 3.304 -6.042 -4.211 6.653 1047.667 3880.972 1177.933 -0.242 0.244 -0.202 -0.58 -0.1 0.17 0.79
1 6.57 657 -0.072 -9.702 3.366 -1.221 -6.256 5.890 1017.537 3596.007 1222.903 -0.265 0.410 -0.269 -0.58 -0.1 0.17 0.79
1 6.58 658 -0.014 -9.582 3.544 5.341 -6.470 3.601 1002.547 3655.968 1357.965 -0.323 0.292 -0.442 -0.58 -0.1 0.17 0.79
1 6.59 659 0.062 -9.529 3.860 10.223 -4.120 0.763 1137.609 3701.089 1267.874 -0.397 0.244 -0.745 -0.58 -0.1 0.17 0.79
1 6.60 660 0.029 -9.247 3.994 10.468 2.869 -0.153 1062.658 3566.027 1267.874 -0.359 -0.032 -0.858 -0.57 -0.1 0.17 0.8
1 6.61 661 -0.110 -8.955 3.922 5.554 5.920 -1.556 1062.658 3566.027 1267.874 -0.217 -0.316 -0.763 -0.57 -0.1 0.17 0.8
1 6.62 662 -0.235 -9.003 3.668 0.549 6.470 -5.493 1107.628 3610.998 1282.864 -0.090 -0.263 -0.491 -0.57 -0.1 0.17 0.8
1 6.63 663 -0.608 -8.988 3.275 -2.777 1.190 -6.805 1107.628 3610.998 1282.864 0.296 -0.274 -0.089 -0.57 -0.1 0.16 0.8
1 6.64 664 -0.862 -8.916 3.002 0.641 -4.456 -5.493 1002.547 3610.998 1207.913 0.558 -0.346 0.184 -0.57 -0.1 0.16 0.8
1 6.65 665 -1.140 -8.773 2.945 4.181 -11.383 -6.348 972.566 3610.998 1357.965 0.844 -0.488 0.247 -0.57 -0.1 0.16 0.8
1 6.66 666 -0.982 -8.787 3.165 3.296 -18.097 -7.141 972.566 3610.998 1357.965 0.697 -0.471 0.035 -0.57 -0.1 0.16 0.8
1 6.67 667 -0.824 -8.926 3.596 -3.326 -22.736 -5.219 1017.537 3625.988 1162.942 0.553 -0.331 -0.390 -0.57 -0.1 0.17 0.8
1 6.68 668 -0.594 -9.419 4.013 -10.773 -23.010 -2.258 1017.537 3625.988 1162.942 0.337 0.163 -0.804 -0.57 -0.1 0.17 0.8
1 6.69 669 -0.330 -9.644 4.334 -16.235 -19.775 1.678 1092.638 3701.089 1342.975 0.086 0.385 -1.131 -0.57 -0.1 0.17 0.8
1 6.70 670 0.134 -10.276 4.674 -12.604 -10.284 8.637 1092.638 3701.089 1342.975 -0.370 1.008 -1.497 -0.57 -0.11 0.17 0.8
1 6.71 671 0.225 -10.142 4.477 -2.960 -3.662 9.827 912.605 3791.030 1342.975 -0.469 0.870 -1.313 -0.57 -0.11 0.17 0.8
1 6.72 672 0.034 -9.630 4.051 4.120 -1.068 8.301 912.605 3625.988 1267.874 -0.289 0.358 -0.887 -0.57 -0.11 0.17 0.8
1 6.73 673 0.101 -9.582 3.730 7.843 -5.157 7.050 912.605 3625.988 1267.874 -0.364 0.315 -0.554 -0.57 -0.1 0.17 0.8
1 6.74 674 0.043 -9.338 3.405 10.376 -10.773 5.096 912.605 3566.027 1297.854 -0.309 0.076 -0.211 -0.57 -0.1 0.17 0.8
1 6.75 675 0.259 -9.060 3.223 12.543 -22.186 2.960 912.605 3566.027 1297.854 -0.522 -0.195 -0.010 -0.57 -0.11 0.17 0.8
1 6.76 676 0.378 -8.983 3.160 12.512 -28.992 2.380 1047.667 3610.998 1177.933 -0.632 -0.264 0.073 -0.57 -0.11 0.17 0.8
1 6.77 677 0.694 -8.921 3.189 11.200 -33.203 1.556 1047.667 3610.998 1177.933 -0.934 -0.320 0.065 -0.57 -0.11 0.17 0.8
1 6.78 678 0.718 -8.945 3.424 4.517 -33.386 3.113 1002.547 3655.968 1207.913 -0.917 -0.284 -0.135 -0.57 -0.11 0.18 0.8
1 6.79 679 0.953 -9.184 3.625 0.214 -31.342 4.395 1017.537 3746.060 1162.942 -1.132 -0.042 -0.326 -0.56 -0.11 0.18 0.8
1 6.80 680 1.063 -9.199 3.735 -4.120 -28.748 7.172 1017.537 3746.060 1162.942 -1.226 -0.027 -0.434 -0.56 -0.12 0.18 0.8
1 6.81 681 1.212 -9.520 3.749 -5.188 -24.750 9.369 1017.537 3701.089 1012.890 -1.362 0.293 -0.450 -0.56 -0.12 0.18 0.8
1 6.82 682 1.255 -9.721 3.955 -0.885 -14.343 12.238 1017.537 3701.089 1012.890 -1.397 0.493 -0.658 -0.56 -0.12 0.18 0.8
1 6.83 683 1.259 -9.778 3.548 3.723 -5.981 13.245 1047.667 3731.069 1132.962 -1.400 0.552 -0.248 -0.56 -0.12 0.18 0.8
1 6.84 684 1.255 -9.668 3.132 7.874 1.099 13.641 1047.667 3731.069 1132.962 -1.399 0.445 0.177 -0.56 -0.12 0.18 0.8
1 6.85 685 1.192 -9.352 2.744 10.040 5.493 13.702 1017.537 3701.089 1162.942 -1.355 0.138 0.589 -0.56 -0.12 0.18 0.8
1 6.86 686 1.279 -9.213 2.524 8.789 3.693 12.787 1047.667 3731.069 1027.880 -1.452 0.003 0.821 -0.56 -0.12 0.18 0.8
1 6.87 687 1.235 -9.199 2.557 4.761 1.068 11.749 1047.667 3731.069 1027.880 -1.418 -0.008 0.796 -0.56 -0.12 0.18 0.8
1 6.88 688 1.279 -9.223 2.557 -1.923 -2.045 9.003 1092.638 3670.958 1087.841 -1.465 0.016 0.796 -0.56 -0.12 0.18 0.8
1 6.89 689 1.312 -9.381 2.682 -8.148 -2.472 5.219 1092.638 3670.958 1087.841 -1.498 0.171 0.662 -0.56 -0.12 0.18 0.8
1 6.90 690 1.279 -9.788 3.022 -12.878 0.854 -1.648 1137.609 3701.089 1042.871 -1.457 0.572 0.306 -0.56 -0.12 0.18 0.8
1 6.91 691 1.461 -10.056 2.998 -12.238 4.486 -5.676 1137.609 3701.089 1042.871 -1.625 0.833 0.311 -0.56 -0.12 0.18 0.8
1 6.92 692 0.996 -10.176 3.103 -6.866 5.127 -13.794 1077.648 3655.968 1057.861 -1.119 0.939 0.170 -0.56 -0.12 0.18 0.8
1 6.93 693 0.804 -10.367 3.036 -2.991 1.923 -17.792 1092.638 3596.007 1087.841 -0.899 1.127 0.228 -0.56 -0.12 0.18 0.8
1 6.94 694 0.704 -10.276 2.940 1.129 -4.364 -18.646 1092.638 3596.007 1087.841 -0.773 1.036 0.323 -0.56 -0.12 0.18 0.8
1 6.95 695 0.742 -10.133 2.926 4.059 -11.475 -17.731 1002.547 3655.968 922.949 -0.776 0.892 0.337 -0.56 -0.12 0.18 0.8
1 6.96 696 1.020 -9.654 3.074 5.249 -15.381 -16.205 1107.628 3551.037 997.900 -1.017 0.414 0.193 -0.56 -0.13 0.18 0.8
1 6.97 697 1.149 -9.635 2.950 1.801 -11.719 -14.740 1092.638 3625.988 1012.890 -1.108 0.397 0.323 -0.56 -0.13 0.18 0.8
1 6.98 698 1.365 -9.410 2.801 -4.089 -3.998 -11.932 1092.638 3625.988 1012.890 -1.288 0.174 0.475 -0.56 -0.13 0.18 0.8
1 6.99 699 1.446 -9.362 2.763 -9.216 6.653 -8.575 1002.547 3610.998 952.929 -1.339 0.124 0.508 -0.56 -0.13 0.18 0.8
1 7.00 700 1.461 -9.615 2.739 -8.484 20.111 -2.869 1062.658 3625.988 1087.841 -1.318 0.368 0.502 -0.56 -0.13 0.17 0.8
1 7.01 701 1.312 -9.323 2.409 -0.977 24.658 -1.251 1062.658 3625.988 1087.841 -1.166 0.072 0.821 -0.56 -0.13 0.17 0.8
1 7.02 702 1.053 -9.084 2.265 4.272 22.156 -2.258 1062.658 3701.089 1117.972 -0.907 -0.168 0.963 -0.56 -0.13 0.17 0.8
1 7.03 703 0.977 -8.797 2.303 3.662 16.754 0.061 1047.667 3655.968 952.929 -0.831 -0.454 0.927 -0.56 -0.13 0.17 0.8
1 7.04 704 0.972 -8.682 2.193 -2.930 10.010 3.601 1077.648 3610.998 1102.981 -0.828 -0.569 1.038 -0.56 -0.13 0.17 0.8
1 7.05 705 1.030 -8.624 2.064 -6.226 7.904 4.913 1077.648 3610.998 1102.981 -0.888 -0.628 1.162 -0.56 -0.13 0.17 0.8
1 7.06 706 1.135 -8.595 2.121 -4.303 7.202 6.256 942.586 3701.089 967.919 -0.997 -0.661 1.093 -0.57 -0.13 0.17 0.8
1 7.07 707 0.986 -8.782 2.342 3.113 7.660 10.345 972.566 3836.001 1057.861 -0.859 -0.481 0.855 -0.57 -0.13 0.17 0.8
1 7.08 708 0.867 -9.031 2.457 15.137 5.676 10.284 972.566 3836.001 1057.861 -0.750 -0.230 0.745 -0.57 -0.13 0.17 0.8
1 7.09 709 0.929 -9.103 2.294 29.602 2.838 4.639 927.596 3836.001 1027.880 -0.820 -0.150 0.932 -0.57 -0.13 0.17 0.8
1 7.10 710 0.661 -8.897 2.988 32.013 6.409 7.568 972.566 3655.968 1102.981 -0.553 -0.342 0.278 -0.56 -0.12 0.17 0.8
1 7.11 711 -0.077 -9.558 2.581 4.334 32.806 11.139 927.596 3731.069 1027.880 0.171 0.333 0.725 -0.56 -0.12 0.17 0.8
1 7.12 712 -0.618 -9.836 2.452 -4.578 38.117 4.456 927.596 3731.069 1027.880 0.683 0.615 0.868 -0.56 -0.12 0.17 0.8
1 7.13 713 -0.929 -9.544 3.266 3.265 30.853 -1.129 972.566 3731.069 1027.880 0.965 0.320 0.044 -0.56 -0.12 0.17 0.8
1 7.14 714 -1.609 -10.128 4.386 18.738 3.754 -1.984 1077.648 3686.099 1132.962 1.608 0.910 -1.058 -0.56 -0.11 0.16 0.8
1 7.15 715 -1.662 -10.573 4.133 9.125 -22.797 -4.913 1077.648 3686.099 1132.962 1.666 1.365 -0.778 -0.56 -0.11 0.16 0.8
1 7.16 716 -1.082 -10.291 3.884 -8.820 -49.652 -8.484 1002.547 3581.017 1057.861 1.110 1.086 -0.521 -0.56 -0.12 0.16 0.8
1 7.17 717 0.101 -9.845 3.754 -19.928 -67.047 -8.270 912.605 3701.089 1087.841 -0.031 0.635 -0.407 -0.56 -0.12 0.17 0.8
1 7.18 718 1.135 -9.620 3.462 -22.369 -71.320 -6.073 987.557 3670.958 1042.871 -1.021 0.400 -0.143 -0.56 -0.13 0.17 0.8
1 7.19 719 2.662 -9.534 3.323 -16.449 -54.016 -0.488 987.557 3670.958 1042.871 -2.500 0.304 -0.034 -0.56 -0.13 0.17 0.8
1 7.20 720 3.251 -9.491 3.644 -11.322 -31.281 5.127 1017.537 3701.089 1117.972 -3.044 0.252 -0.381 -0.56 -0.13 0.17 0.8
1 7.21 721 3.496 -9.462 4.133 -11.902 0.305 10.529 1062.658 3865.981 937.939 -3.265 0.218 -0.887 -0.56 -0.14 0.17 0.8
1 7.22 722 3.055 -9.146 4.841 -22.339 48.523 12.116 1062.658 3865.981 937.939 -2.853 -0.111 -1.630 -0.56 -0.14 0.17 0.8
1 7.23 723 2.112 -9.371 4.856 -24.170 69.855 1.801 1092.638 3746.060 1087.841 -1.937 0.105 -1.670 -0.57 -0.13 0.17 0.8
1 7.24 724 0.972 -9.520 4.664 -21.210 79.163 -7.874 1092.638 3701.089 1117.972 -0.815 0.247 -1.496 -0.57 -0.13 0.17 0.8
1 7.25 725 0.163 -9.299 4.449 -16.083 74.463 -15.411 1107.628 3731.069 1027.880 -0.020 0.022 -1.295 -0.57 -0.13 0.16 0.8
1 7.26 726 -0.967 -8.983 3.749 -11.261 54.413 -17.548 1107.628 3731.069 1027.880 1.101 -0.297 -0.605 -0.57 -0.12 0.16 0.8
1 7.27 727 -1.298 -8.505 3.184 -10.315 38.208 -11.963 987.557 3625.988 967.919 1.424 -0.779 -0.048 -0.57 -0.12 0.16 0.8
1 7.28 728 -1.489 -7.997 2.571 -9.735 23.682 -8.392 912.605 3746.060 1267.874 1.607 -1.289 0.558 -0.57 -0.12 0.15 0.8
1 7.29 729 -1.183 -7.331 2.140 -7.446 12.848 -8.423 912.605 3746.060 1267.874 1.299 -1.962 0.968 -0.57 -0.12 0.15 0.8
1 7.30 730 -1.073 -7.437 2.050 -5.005 13.794 -11.658 897.615 3836.001 1057.861 1.197 -1.859 1.051 -0.57 -0.12 0.15 0.8
1 7.31 731 -1.403 -7.949 2.136 -0.244 18.524 -16.083 1017.537 3701.089 1087.841 1.539 -1.348 0.961 -0.57 -0.12 0.15 0.8
1 7.32 732 -1.748 -8.495 2.255 11.200 20.142 -20.264 1002.547 3655.968 1132.962 1.899 -0.800 0.847 -0.57 -0.12 0.15 0.8
1 7.33 733 -2.227 -9.151 2.672 27.283 16.663 -24.536 1002.547 3655.968 1132.962 2.392 -0.136 0.452 -0.57 -0.11 0.15 0.8
1 7.34 734 -2.643 -9.778 3.816 45.685 1.373 -28.015 777.543 3731.069 1132.962 2.821 0.506 -0.649 -0.57 -0.11 0.14 0.8
1 7.35 735 -2.562 -10.051 4.693 40.283 -11.993 -27.374 927.596 3731.069 1177.933 2.756 0.802 -1.461 -0.57 -0.11 0.14 0.8
1 7.36 736 -1.891 -10.185 5.009 5.127 -29.297 -18.372 927.596 3731.069 1177.933 2.175 0.973 -1.678 -0.56 -0.12 0.14 0.81
1 7.37 737 -1.393 -10.458 4.674 -20.752 -39.063 -9.460 912.605 3746.060 1012.890 1.717 1.247 -1.344 -0.56 -0.12 0.14 0.81
1 7.38 738 -0.704 -10.453 4.214 -32.379 -40.314 -1.404 777.543 3806.021 952.929 1.059 1.230 -0.920 -0.56 -0.12 0.14 0.8
1 7.39 739 -0.239 -10.315 3.678 -23.651 -32.410 4.669 777.543 3806.021 952.929 0.615 1.077 -0.428 -0.56 -0.13 0.14 0.8
1 7.40 740 0.072 -9.726 3.113 1.404 -8.087 8.942 732.573 3701.089 1087.841 0.311 0.478 0.110 -0.57 -0.13 0.15 0.8
1 7.41 741 0.067 -9.352 3.074 11.688 12.634 12.726 762.553 3791.030 1012.890 0.309 0.103 0.145 -0.57 -0.13 0.15 0.8
1 7.42 742 -0.105 -8.959 3.199 10.101 30.731 15.656 852.645 3910.952 1207.913 0.460 -0.285 0.034 -0.56 -0.13 0.15 0.8
1 7.43 743 -0.364 -8.969 3.328 -3.326 39.734 16.113 852.645 3910.952 1207.913 0.682 -0.270 -0.077 -0.56 -0.12 0.15 0.8
1 7.44 744 -0.599 -9.438 3.323 -24.475 33.020 13.825 822.664 3655.968 1102.981 0.826 0.192 -0.083 -0.57 -0.12 0.15 0.8
1 7.45 745 -0.637 -9.888 3.539 -27.496 18.616 10.437 897.615 3761.050 952.929 0.825 0.630 -0.332 -0.57 -0.12 0.15 0.8
1 7.46 746 -0.263 -10.348 3.673 -19.531 4.578 4.608 897.615 3761.050 952.929 0.425 1.077 -0.501 -0.57 -0.11 0.15 0.8
1 7.47 747 0.091 -10.616 3.716 -2.625 -4.425 -0.977 777.543 3761.050 1177.933 0.064 1.338 -0.564 -0.57 -0.11 0.15 0.8
1 7.48 748 0.589 -10.142 3.500 27.802 -1.038 -8.942 747.563 3761.050 1132.962 -0.428 0.866 -0.343 -0.57 -0.11 0.15 0.8
1 7.49 749 0.742 -9.467 3.117 42.114 6.470 -13.886 972.566 3731.069 1207.913 -0.568 0.203 0.074 -0.57 -0.11 0.14 0.8
1 7.50 750 0.536 -8.797 2.797 45.624 11.932 -17.120 972.566 3731.069 1207.913 -0.343 -0.447 0.452 -0.57 -0.11 0.14 0.8
1 7.51 751 0.038 -8.188 2.461 31.220 11.231 -20.691 807.524 3821.011 1042.871 0.200 -1.011 0.908 -0.56 -0.11 0.14 0.81
1 7.52 752 -0.316 -8.284 2.442 15.442 6.561 -21.423 852.645 3731.069 1057.861 0.580 -0.900 0.967 -0.56 -0.11 0.14 0.81
1 7.53 753 -0.579 -8.600 2.548 2.625 0.397 -21.179 852.645 3731.069 1057.861 0.871 -0.576 0.881 -0.56 -0.11 0.14 0.81
1 7.54 754 -0.781 -8.993 2.801 -3.387 -5.127 -19.775 852.645 3655.968 997.900 1.100 -0.182 0.627 -0.56 -0.12 0.14 0.81
1 7.55 755 -0.742 -9.620 3.409 -2.808 -7.690 -15.106 732.573 3865.981 967.919 1.084 0.443 0.011 -0.56 -0.12 0.14 0.81
1 7.56 756 -0.867 -9.754 3.567 1.678 -6.317 -11.597 717.583 3761.050 1132.962 1.227 0.576 -0.153 -0.56 -0.12 0.14 0.81
1 7.57 757 -0.718 -9.773 3.534 3.723 -3.052 -6.805 717.583 3761.050 1132.962 1.091 0.596 -0.118 -0.56 -0.12 0.14 0.81
1 7.58 758 -0.551 -9.615 3.290 2.991 4.120 -1.709 672.612 3701.089 967.919 0.926 0.442 0.139 -0.56 -0.12 0.14 0.81
1 7.59 759 -0.287 -9.410 3.141 1.068 8.209 0.519 732.573 3821.011 967.919 0.655 0.238 0.291 -0.56 -0.12 0.14 0.81
1 7.60 760 -0.201 -9.524 2.773 1.007 10.803 0.671 732.573 3821.011 967.919 0.559 0.353 0.661 -0.56 -0.12 0.14 0.81
1 7.61 761 -0.201 -9.486 2.811 0.641 10.284 0.702 672.612 3791.030 1012.890 0.548 0.314 0.623 -0.56 -0.11 0.14 0.81
1 7.62 762 -0.239 -9.649 2.634 5.402 4.700 -1.770 732.573 3895.962 862.838 0.577 0.476 0.799 -0.56 -0.11 0.13 0.81
1 7.63 763 -0.340 -9.544 2.773 9.460 -0.702 -2.960 717.583 3686.099 1027.880 0.672 0.371 0.662 -0.56 -0.11 0.13 0.81
1 7.64 764 -0.378 -9.429 2.691 13.550 -6.531 -4.578 717.583 3686.099 1027.880 0.708 0.259 0.751 -0.56 -0.11 0.13 0.81
1 7.65 765 -0.393 -9.395 2.696 16.205 -8.453 -5.157 612.651 3731.069 877.978 0.727 0.231 0.761 -0.56 -0.11 0.13 0.81
1 7.66 766 -0.512 -9.433 2.753 19.806 -6.287 -5.310 702.592 3746.060 907.958 0.859 0.285 0.742 -0.56 -0.11 0.14 0.81
1 7.67 767 -0.709 -9.156 2.423 20.783 -4.059 -5.157 702.592 3746.060 907.958 1.059 0.017 1.097 -0.55 -0.11 0.14 0.81
1 7.68 768 -0.757 -9.223 2.299 17.426 -6.012 -5.737 762.553 3791.030 967.919 1.110 0.093 1.244 -0.55 -0.11 0.14 0.81
1 7.69 769 -0.771 -9.031 2.265 10.742 -10.651 -5.371 687.602 3806.021 997.900 1.127 -0.093 1.293 -0.55 -0.11 0.14 0.81
1 7.70 770 -0.455 -9.017 2.495 -2.899 -19.043 -2.380 657.622 4001.043 922.949 0.817 -0.105 1.068 -0.55 -0.12 0.14 0.81
1 7.71 771 -0.053 -9.371 2.701 -7.660 -20.691 -1.495 657.622 4001.043 922.949 0.422 0.246 0.853 -0.55 -0.12 0.14 0.81
1 7.72 772 0.345 -9.654 3.232 -10.284 -15.595 -0.336 657.622 3836.001 877.978 0.033 0.523 0.306 -0.55 -0.12 0.14 0.81
1 7.73 773 0.819 -10.046 3.960 -6.470 3.418 2.686 717.583 3731.069 877.978 -0.430 0.904 -0.453 -0.55 -0.12 0.14 0.81
1 7.74 774 0.828 -10.085 4.334 -2.380 15.411 5.707 717.583 3731.069 877.978 -0.446 0.940 -0.832 -0.55 -0.12 0.14 0.81
1 7.75 775 0.637 -10.080 4.262 -6.226 20.477 8.301 627.641 3821.011 907.958 -0.272 0.934 -0.761 -0.55 -0.12 0.14 0.81
1 7.76 776 0.450 -10.243 3.998 -13.916 20.783 8.820 687.602 3761.050 952.929 -0.108 1.093 -0.506 -0.56 -0.12 0.14 0.81
1 7.77 777 -0.153 -10.300 3.941 -14.587 18.829 12.207 687.602 3761.050 817.867 0.472 1.143 -0.466 -0.56 -0.11 0.14 0.81
1 7.78 778 -0.259 -10.080 4.156 -8.087 18.799 10.834 690.150 3761.949 818.167 0.551 0.915 -0.700 -0.56 -0.11 0.14 0.81
1 7.79 779 -0.388 -9.879 4.195 1.221 18.677 8.637 705.141 3866.881 938.089 0.655 0.708 -0.749 -0.56 -0.11 0.14 0.81
1 7.80 780 -0.618 -9.524 4.109 12.482 14.984 4.517 735.121 3791.930 833.157 0.840 0.360 -0.645 -0.56 -0.11 0.14 0.81
1 7.81 781 -0.843 -9.242 3.951 13.001 8.575 4.089 735.121 3791.930 833.157 1.046 0.086 -0.464 -0.56 -0.11 0.14 0.81
1 7.82 782 -0.891 -9.065 4.046 8.789 -1.434 3.632 735.121 3626.887 788.037 1.078 -0.083 -0.537 -0.56 -0.1 0.14 0.81
1 7.83 783 -1.030 -9.161 4.056 3.326 -10.407 4.883 735.121 3626.887 788.037 1.206 0.018 -0.532 -0.56 -0.1 0.14 0.81
1 7.84 784 -0.651 -9.376 4.324 2.594 -18.738 7.294 540.098 3911.852 878.128 0.819 0.236 -0.792 -0.56 -0.1 0.14 0.81
1 7.85 785 -0.206 -9.453 4.698 6.256 -20.111 8.942 540.098 3911.852 878.128 0.366 0.316 -1.157 -0.56 -0.1 0.14 0.81
1 7.86 786 0.014 -9.414 4.971 11.688 -18.616 13.367 750.111 3806.920 923.099 0.139 0.283 -1.417 -0.55 -0.11 0.14 0.81
1 7.87 787 0.311 -9.223 4.990 15.991 -15.595 16.327 720.131 3731.969 668.115 -0.166 0.100 -1.414 -0.55 -0.11 0.14 0.81
1 7.88 788 0.498 -8.452 4.693 18.189 -8.637 17.700 720.131 3731.969 668.115 -0.381 -0.645 -1.050 -0.55 -0.11 0.15 0.82
1 7.89 789 0.627 -8.394 4.367 17.914 -3.204 17.761 690.150 3806.920 818.167 -0.527 -0.688 -0.689 -0.55 -0.11 0.15 0.82
1 7.90 790 0.661 -8.265 4.085 15.076 1.007 18.555 690.150 3806.920 818.167 -0.581 -0.805 -0.374 -0.55 -0.1 0.15 0.82
1 7.91 791 0.852 -8.069 4.013 10.864 2.502 19.287 600.209 3866.881 863.138 -0.794 -0.991 -0.276 -0.55 -0.1 0.15 0.82
1 7.92 792 1.101 -8.284 3.673 0.488 -1.160 21.820 600.209 3866.881 863.138 -1.065 -0.767 0.083 -0.55 -0.1 0.15 0.82
1 7.93 793 1.566 -8.457 3.783 -7.111 -4.578 24.902 690.150 3761.949 818.167 -1.551 -0.591 -0.018 -0.55 -0.1 0.15 0.82
1 7.94 794 1.954 -8.653 3.831 -11.292 -4.272 26.917 825.062 3836.900 773.046 -1.959 -0.396 -0.070 -0.55 -0.1 0.15 0.82
1 7.95 795 2.533 -8.988 3.931 -8.637 2.594 25.452 825.062 3836.900 773.046 -2.579 -0.070 -0.193 -0.55 -0.1 0.15 0.82
1 7.96 796 2.658 -9.074 4.008 -5.493 13.702 23.010 825.062 3911.852 668.115 -2.721 0.013 -0.277 -0.55 -0.1 0.15 0.82
1 7.97 797 2.389 -9.084 4.094 -3.845 26.856 19.562 825.062 3911.852 668.115 -2.472 0.021 -0.367 -0.55 -0.1 0.15 0.82
1 7.98 798 1.939 -9.046 3.994 -4.913 38.788 16.602 765.102 3821.910 758.056 -2.045 -0.018 -0.269 -0.55 -0.1 0.15 0.82
1 7.99 799 1.087 -9.046 3.783 -3.021 46.784 12.238 780.092 3731.969 818.167 -1.221 -0.019 -0.061 -0.55 -0.09 0.15 0.82
1 8.00 800 0.479 -9.237 3.582 -4.272 42.023 8.087 855.193 3761.949 773.046 -0.644 0.172 0.137 -0.55 -0.09 0.15 0.82
1 8.01 801 0.096 -9.319 3.563 -6.042 29.602 3.510 780.092 3806.920 698.095 -0.290 0.252 0.152 -0.55 -0.09 0.15 0.82
1 8.02 802 -0.297 -9.486 3.845 -6.012 5.615 -4.730 780.092 3806.920 698.095 0.075 0.414 -0.146 -0.55 -0.09 0.15 0.82
1 8.03 803 -0.168 -9.673 4.042 -4.272 -7.019 -9.674 885.173 3866.881 713.085 -0.047 0.598 -0.349 -0.55 -0.09 0.15 0.82
1 8.04 804 0.072 -9.721 4.118 -2.106 -13.855 -12.421 885.173 3866.881 713.085 -0.266 0.644 -0.428 -0.55 -0.09 0.15 0.82
1 8.05 805 0.364 -9.716 4.305 -1.312 -14.710 -11.383 735.121 3821.910 863.138 -0.531 0.639 -0.614 -0.55 -0.09 0.15 0.82
1 8.06 806 0.560 -9.668 4.252 -0.854 -10.498 -9.766 900.164 3761.949 923.099 -0.699 0.592 -0.559 -0.55 -0.09 0.15 0.82
1 8.07 807 0.819 -9.381 3.793 -1.404 -5.035 -8.026 750.111 4001.943 773.046 -0.932 0.305 -0.096 -0.55 -0.09 0.15 0.82
1 8.08 808 0.809 -9.357 3.745 -2.167 -0.977 -6.775 780.092 3731.969 953.079 -0.900 0.282 -0.047 -0.55 -0.09 0.14 0.82
1 8.09 809 0.661 -9.405 3.347 -0.214 1.434 -6.653 780.092 3731.969 953.079 -0.733 0.329 0.350 -0.55 -0.09 0.14 0.82
1 8.10 810 0.642 -9.381 3.342 4.059 2.228 -6.592 675.160 3971.962 863.138 -0.684 0.306 0.356 -0.55 -0.09 0.14 0.82
1 8.11 811 0.565 -9.151 3.275 5.432 -0.336 -4.791 675.160 3971.962 863.138 -0.594 0.078 0.428 -0.55 -0.09 0.14 0.82
1 8.12 812 0.618 -9.266 3.333 4.974 -1.801 -2.838 750.111 3656.868 698.095 -0.635 0.196 0.377 -0.55 -0.09 0.14 0.82
1 8.13 813 0.747 -9.055 3.261 1.617 -2.350 0.122 825.062 3881.871 878.128 -0.755 -0.013 0.454 -0.55 -0.09 0.14 0.82
1 8.14 814 0.857 -8.969 3.204 -6.195 0.946 2.930 720.131 3806.920 818.167 -0.859 -0.100 0.511 -0.55 -0.09 0.14 0.82
1 8.15 815 0.895 -8.811 3.046 -11.231 4.303 5.188 720.131 3836.900 818.167 -0.895 -0.260 0.662 -0.55 -0.09 0.14 0.82
1 8.16 816 0.819 -8.849 2.835 -12.360 7.141 7.324 720.131 3836.900 818.167 -0.820 -0.228 0.858 -0.55 -0.09 0.14 0.82
1 8.17 817 0.862 -8.763 2.619 -8.759 9.735 10.345 900.164 3731.969 848.147 -0.879 -0.329 1.036 -0.55 -0.09 0.14 0.82
1 8.18 818 0.608 -8.643 2.701 -6.928 8.270 11.810 900.164 3731.969 848.147 -0.639 -0.455 0.940 -0.55 -0.09 0.14 0.82
1 8.19 819 0.623 -8.528 2.667 -5.188 4.364 13.916 735.121 3701.838 788.037 -0.668 -0.575 0.961 -0.55 -0.09 0.14 0.82
1 8.20 820 0.685 -8.524 2.639 -9.216 -1.465 15.625 705.141 3791.930 683.105 -0.746 -0.584 0.979 -0.55 -0.09 0.14 0.82
1 8.21 821 0.757 -8.653 2.413 -14.771 -10.254 16.754 765.102 3866.881 833.157 -0.832 -0.462 1.186 -0.55 -0.09 0.14 0.81
1 8.22 822 0.982 -8.672 2.710 -14.862 -10.956 16.907 810.072 3746.959 833.157 -1.069 -0.452 0.866 -0.56 -0.09 0.14 0.81
1 8.23 823 0.900 -8.926 3.165 -11.536 -3.387 15.808 810.072 3746.959 833.157 -0.998 -0.207 0.386 -0.56 -0.09 0.14 0.81
1 8.24 824 0.393 -9.017 3.457 -8.881 15.930 11.231 840.203 3866.881 908.108 -0.516 -0.128 0.062 -0.56 -0.09 0.15 0.81
1 8.25 825 -0.158 -9.505 3.424 -12.085 28.076 9.338 840.203 3866.881 908.108 0.015 0.356 0.084 -0.56 -0.09 0.14 0.81
1 8.26 826 -0.757 -9.941 3.295 -16.388 31.921 8.362 885.173 3791.930 833.157 0.586 0.785 0.194 -0.56 -0.09 0.14 0.81
1 8.27 827 -1.135 -10.018 3.400 -18.127 26.611 6.439 900.164 3836.900 923.099 0.933 0.852 0.063 -0.56 -0.09 0.14 0.81
1 8.28 828 -1.461 -9.879 3.874 -12.421 -0.519 -0.824 735.121 3821.910 833.157 1.233 0.704 -0.437 -0.56 -0.08 0.14 0.81
1 8.29 829 -1.647 -10.051 3.917 -15.503 -22.492 -6.714 915.154 3821.910 863.138 1.409 0.870 -0.498 -0.56 -0.08 0.14 0.81
1 8.30 830 -1.073 -10.315 3.630 -23.407 -39.459 -10.132 915.154 3821.910 863.138 0.847 1.127 -0.227 -0.56 -0.09 0.14 0.81
1 8.31 831 -0.579 -9.817 3.400 -29.144 -48.706 -12.482 855.193 3806.920 878.128 0.387 0.618 -0.024 -0.57 -0.09 0.14 0.81
1 8.32 832 0.378 -9.309 3.462 -28.931 -52.674 -16.419 855.193 3806.920 878.128 -0.486 0.081 -0.164 -0.57 -0.1 0.15 0.8
1 8.33 833 0.872 -9.189 3.601 -24.628 -51.270 -15.228 810.072 3701.838 863.138 -0.928 -0.052 -0.339 -0.57 -0.1 0.15 0.8
1 8.34 834 1.575 -8.916 3.381 -20.813 -47.486 -10.742 780.092 3761.949 923.099 -1.579 -0.335 -0.148 -0.57 -0.1 0.15 0.8
1 8.35 835 1.987 -8.677 3.328 -21.729 -40.344 -5.432 825.062 3686.848 1028.030 -1.945 -0.583 -0.120 -0.57 -0.11 0.15 0.8
1 8.36 836 2.548 -8.538 3.563 -32.013 -15.289 -4.517 840.203 3701.838 1043.170 -2.465 -0.732 -0.384 -0.57 -0.11 0.15 0.8
1 8.37 837 2.246 -8.691 3.625 -33.417 9.338 -3.754 840.203 3701.838 1043.170 -2.129 -0.591 -0.484 -0.57 -0.11 0.15 0.8
1 8.38 838 1.820 -8.797 3.649 -25.452 30.121 -8.667 840.203 3746.959 968.069 -1.679 -0.499 -0.549 -0.57 -0.12 0.15 0.8
1 8.39 839 0.709 -8.983 3.472 -13.550 41.565 -24.628 840.203 3746.959 968.069 -0.536 -0.329 -0.424 -0.58 -0.11 0.14 0.8
1 8.40 840 -0.168 -9.290 3.405 -14.130 38.635 -29.450 885.173 3791.930 1043.170 0.364 -0.026 -0.369 -0.58 -0.11 0.14 0.8
1 8.41 841 -0.943 -9.232 3.381 -19.440 27.771 -29.175 765.102 3701.838 1013.040 1.165 -0.088 -0.361 -0.58 -0.11 0.14 0.8
1 8.42 842 -1.508 -9.400 3.227 -24.078 13.123 -26.795 765.102 3701.838 1013.040 1.754 0.072 -0.232 -0.58 -0.11 0.13 0.8
1 8.43 843 -1.322 -9.496 3.074 -20.111 -6.409 -18.890 780.092 3881.871 1103.131 1.587 0.159 -0.109 -0.58 -0.11 0.13 0.8
1 8.44 844 -0.977 -9.338 3.074 -11.932 -12.360 -15.900 780.092 3881.871 1103.131 1.259 -0.008 -0.138 -0.58 -0.11 0.13 0.8
1 8.45 845 -0.608 -9.314 3.299 -6.165 -11.597 -13.916 675.160 3791.930 1118.122 0.908 -0.037 -0.381 -0.58 -0.11 0.13 0.79
1 8.46 846 -0.244 -9.400 3.424 -4.395 -5.890 -10.986 675.160 3791.930 1118.122 0.562 0.048 -0.513 -0.58 -0.12 0.13 0.79
1 8.47 847 -0.057 -9.582 4.176 -9.003 2.411 -5.554 616.848 3763.148 1253.933 0.399 0.229 -1.268 -0.58 -0.12 0.13 0.79
1 8.48 848 -0.129 -9.888 4.405 -12.482 5.798 -1.068 556.737 3868.080 1043.920 0.473 0.534 -1.503 -0.58 -0.12 0.13 0.79
1 8.49 849 -0.187 -10.051 4.583 -16.327 6.897 -0.458 556.737 3868.080 1043.920 0.528 0.693 -1.693 -0.58 -0.12 0.13 0.79
1 8.50 850 -0.584 -10.305 4.525 -15.045 11.444 0.153 766.750 3703.038 1088.891 0.922 0.940 -1.658 -0.58 -0.12 0.13 0.79
1 8.51 851 -1.039 -10.449 4.180 -7.538 15.839 -1.709 766.750 3703.038 1088.891 1.373 1.078 -1.333 -0.58 -0.12 0.13 0.79
1 8.52 852 -1.350 -10.324 4.018 3.876 19.806 -3.174 601.858 3703.038 1088.891 1.680 0.950 -1.181 -0.58 -0.11 0.13 0.79
1 8.53 853 -2.174 -9.922 3.443 17.151 17.700 -2.747 601.858 3703.038 1088.891 2.498 0.554 -0.582 -0.58 -0.11 0.12 0.79
1 8.54 854 -2.251 -9.467 3.223 18.646 10.407 0.580 781.741 3763.148 1178.832 2.553 0.108 -0.330 -0.58 -0.11 0.12 0.8
1 8.55 855 -2.318 -8.835 2.619 11.749 -1.556 4.334 676.809 3748.008 1043.920 2.595 -0.516 0.301 -0.58 -0.11 0.12 0.8
1 8.56 856 -2.155 -8.825 2.413 0.122 -13.245 7.935 676.809 3748.008 1043.920 2.408 -0.521 0.521 -0.58 -0.11 0.13 0.8
1 8.57 857 -1.441 -8.686 2.318 -13.001 -21.393 11.017 676.809 3748.008 1223.953 1.671 -0.663 0.612 -0.58 -0.11 0.13 0.8
1 8.58 858 -0.464 -9.362 2.528 -22.644 -23.316 11.993 676.809 3748.008 1223.953 0.675 0.005 0.378 -0.58 -0.11 0.13 0.79
1 8.59 859 0.206 -9.726 2.753 -20.935 -18.036 11.475 661.819 3763.148 998.949 -0.011 0.358 0.120 -0.58 -0.11 0.13 0.79
1 8.60 860 0.527 -10.018 3.247 -9.674 -6.165 11.536 661.819 3763.148 998.949 -0.353 0.634 -0.427 -0.59 -0.11 0.13 0.79
1 8.61 861 0.589 -10.051 3.256 -6.470 -1.434 11.871 691.799 3688.047 1178.832 -0.427 0.664 -0.445 -0.59 -0.11 0.13 0.79
1 8.62 862 0.469 -9.773 3.122 -1.801 7.355 9.857 661.819 3733.018 1208.812 -0.321 0.386 -0.312 -0.59 -0.11 0.13 0.79
1 8.63 863 0.139 -9.568 2.883 -2.838 9.155 7.996 661.819 3733.018 1208.812 -0.004 0.181 -0.071 -0.59 -0.11 0.13 0.79
1 8.64 864 -0.287 -9.366 2.591 -3.723 9.888 5.280 721.780 3688.047 1253.933 0.408 -0.021 0.219 -0.59 -0.11 0.13 0.79
1 8.65 865 -0.460 -9.299 2.514 -6.470 6.531 1.099 721.780 3688.047 1253.933 0.568 -0.090 0.291 -0.59 -0.11 0.13 0.79
1 8.66 866 -0.766 -9.405 2.303 -7.477 1.068 -0.946 556.737 3703.038 1193.822 0.866 0.013 0.495 -0.59 -0.11 0.13 0.79
1 8.67 867 -0.771 -9.520 2.270 -7.202 -5.646 -1.343 556.737 3703.038 1193.822 0.865 0.125 0.517 -0.59 -0.11 0.13 0.79
1 8.68 868 -0.488 -9.577 2.643 -7.050 -12.543 -1.495 586.868 3763.148 1133.861 0.582 0.175 0.119 -0.59 -0.11 0.13 0.79
1 8.69 869 -0.273 -9.759 3.007 -6.317 -12.390 -1.129 676.809 3703.038 1088.891 0.370 0.354 -0.254 -0.59 -0.11 0.13 0.79
1 8.70 870 0.043 -9.845 3.137 -4.272 -6.134 -0.885 676.809 3703.038 1088.891 0.058 0.439 -0.390 -0.59 -0.11 0.13 0.79
1 8.71 871 0.263 -9.836 2.911 -0.061 1.678 -1.068 721.780 3838.100 1058.910 -0.160 0.429 -0.167 -0.59 -0.11 0.13 0.79
1 8.72 872 0.163 -9.745 2.629 8.820 14.191 -1.007 631.838 3748.008 1088.891 -0.058 0.339 0.120 -0.59 -0.11 0.13 0.79
1 8.73 873 -0.014 -9.649 2.442 13.153 18.280 -2.594 721.780 3808.119 1133.861 0.115 0.247 0.319 -0.59 -0.11 0.13 0.79
1 8.74 874 -0.283 -9.568 2.203 15.564 16.419 -3.632 721.780 3808.119 1133.861 0.380 0.170 0.576 -0.59 -0.11 0.13 0.79
1 8.75 875 -0.527 -9.343 1.992 14.557 6.226 -6.287 616.848 3688.047 1058.910 0.620 -0.042 0.828 -0.59 -0.1 0.13 0.79
1 8.76 876 -0.508 -9.333 2.073 10.681 -2.686 -7.965 691.799 3613.096 1208.812 0.605 -0.047 0.764 -0.59 -0.1 0.13 0.79
1 8.77 877 -0.498 -9.271 2.050 5.402 -8.240 -8.545 691.799 3613.096 1208.812 0.605 -0.106 0.798 -0.59 -0.1 0.13 0.79
1 8.78 878 -0.383 -9.247 2.150 -0.031 -10.437 -8.209 676.809 3703.038 1163.842 0.502 -0.129 0.699 -0.59 -0.1 0.13 0.79
1 8.79 879 -0.172 -9.204 2.169 -3.876 -7.172 -7.019 661.819 3838.100 1133.861 0.304 -0.173 0.676 -0.59 -0.1 0.13 0.79
1 8.80 880 -0.220 -9.223 2.117 -5.371 0.244 -5.768 526.757 3673.057 1118.871 0.362 -0.157 0.720 -0.59 -0.11 0.13 0.79
1 8.81 881 -0.259 -9.481 1.863 -3.845 3.571 -5.432 526.757 3673.057 1118.871 0.408 0.099 0.963 -0.59 -0.11 0.13 0.79
1 8.82 882 -0.431 -9.395 1.801 -0.946 4.089 -5.890 511.767 3883.070 1178.832 0.585 0.010 1.016 -0.59 -0.11 0.13 0.79
1 8.83 883 -0.675 -9.433 2.093 2.899 -2.106 -7.416 601.858 3868.080 1088.891 0.837 0.045 0.714 -0.59 -0.11 0.13 0.79
1 8.84 884 -0.541 -9.687 1.987 3.387 -7.233 -7.843 601.858 3868.080 1088.891 0.710 0.300 0.820 -0.59 -0.11 0.13 0.79
1 8.85 885 -0.637 -9.908 1.829 7.416 -10.010 -5.310 586.868 3808.119 1103.881 0.814 0.520 0.979 -0.59 -0.11 0.13 0.79
1 8.86 886 -0.723 -10.013 1.652 14.801 -10.986 -6.378 676.809 3748.008 1043.920 0.908 0.628 1.163 -0.59 -0.11 0.13 0.79
1 8.87 887 -0.579 -10.042 1.681 26.184 -12.360 -11.261 661.819 3733.018 1103.881 0.774 0.662 1.151 -0.59 -0.11 0.13 0.79
1 8.88 888 -0.393 -9.773 2.073 28.534 -13.245 -12.787 661.819 3733.018 1103.881 0.602 0.402 0.786 -0.59 -0.11 0.13 0.79
1 8.89 889 -0.206 -9.879 2.227 25.543 -11.444 -11.963 661.819 3763.148 1103.881 0.434 0.519 0.668 -0.58 -0.11 0.13 0.79
1 8.90 890 0.177 -9.917 2.744 18.585 -5.341 -7.904 691.799 3613.096 953.829 0.086 0.577 0.211 -0.58 -0.11 0.13 0.8
1 8.91 891 0.508 -10.176 3.132 11.566 0.336 -4.272 691.799 3613.096 953.829 -0.233 0.843 -0.154 -0.58 -0.11 0.13 0.8
1 8.92 892 0.642 -10.477 3.500 1.770 6.378 0.366 631.838 3703.038 938.838 -0.362 1.149 -0.510 -0.58 -0.11 0.13 0.8
1 8.93 893 0.838 -10.439 4.056 -3.601 10.498 6.287 556.737 3793.129 1043.920 -0.564 1.112 -1.062 -0.58 -0.11 0.13 0.8
1 8.94 894 0.627 -10.707 4.003 -15.015 14.313 15.625 586.868 3913.051 1028.930 -0.369 1.378 -1.015 -0.58 -0.11 0.13 0.8
1 8.95 895 0.388 -10.645 3.625 -19.867 12.817 18.463 586.868 3913.051 1028.930 -0.155 1.309 -0.653 -0.58 -0.11 0.13 0.8
1 8.96 896 -0.211 -10.506 3.390 -13.702 14.343 18.921 631.838 3793.129 1088.891 0.412 1.162 -0.444 -0.58 -0.11 0.13 0.8
1 8.97 897 -0.488 -9.759 3.668 6.714 24.658 11.688 556.737 3823.109 1043.920 0.626 0.407 -0.744 -0.58 -0.1 0.13 0.8
1 8.98 898 -0.924 -9.419 3.692 15.411 30.090 6.378 556.737 3823.109 1043.920 1.031 0.072 -0.749 -0.58 -0.1 0.13 0.8
1 8.99 899 -1.207 -9.252 3.357 15.839 27.527 4.211 391.845 3808.119 953.829 1.286 -0.086 -0.384 -0.58 -0.1 0.13 0.8
1 9.00 900 -1.480 -9.055 3.074 10.895 13.886 3.448 706.790 3628.086 863.887 1.533 -0.274 -0.074 -0.58 -0.09 0.13 0.8
1 9.01 901 -1.250 -9.151 3.223 4.974 -2.655 4.944 751.760 3763.148 953.829 1.283 -0.173 -0.206 -0.58 -0.09 0.13 0.8
1 9.02 902 -0.733 -9.419 3.783 5.676 -15.076 6.592 751.760 3763.148 953.829 0.751 0.098 -0.757 -0.58 -0.09 0.13 0.8
1 9.03 903 -0.268 -9.467 4.118 11.231 -13.001 6.958 661.819 3688.047 923.848 0.276 0.150 -1.081 -0.58 -0.09 0.13 0.8
1 9.04 904 0.417 -9.563 4.262 12.360 -3.052 9.369 676.809 3703.038 968.819 -0.424 0.261 -1.177 -0.58 -0.09 0.13 0.8
1 9.05 905 0.575 -9.496 4.295 9.766 1.099 11.292 676.809 3703.038 968.819 -0.593 0.203 -1.185 -0.58 -0.09 0.13 0.8
1 9.06 906 0.699 -9.323 4.056 2.014 9.460 15.381 541.747 3838.100 923.848 -0.734 0.036 -0.927 -0.58 -0.09 0.13 0.8
1 9.07 907 0.862 -9.237 3.927 0.427 11.993 16.022 586.868 3763.148 878.877 -0.917 -0.046 -0.788 -0.58 -0.09 0.13 0.8
1 9.08 908 0.934 -9.070 4.008 2.350 14.893 14.099 616.848 3763.148 923.848 -1.010 -0.211 -0.861 -0.58 -0.09 0.13 0.8
1 9.09 909 0.967 -9.003 4.147 8.179 18.799 9.613 616.848 3763.148 923.848 -1.062 -0.274 -0.988 -0.58 -0.09 0.13 0.8
1 9.10 910 0.996 -8.974 4.348 11.047 20.325 6.226 544.146 3734.217 698.695 -1.105 -0.296 -1.171 -0.57 -0.09 0.13 0.8
1 9.11 911 0.862 -8.691 4.362 9.369 20.355 3.113 634.237 3899.260 908.708 -0.981 -0.571 -1.162 -0.57 -0.09 0.13 0.8
1 9.12 912 0.656 -8.754 4.362 4.242 18.219 3.143 634.237 3899.260 908.708 -0.785 -0.493 -1.117 -0.57 -0.08 0.13 0.81
1 9.13 913 0.532 -8.940 4.200 -1.953 16.541 6.317 724.178 3839.299 953.679 -0.668 -0.301 -0.941 -0.57 -0.08 0.13 0.81
1 9.14 914 0.503 -9.180 4.449 -3.571 14.465 10.559 664.217 3614.295 878.728 -0.652 -0.059 -1.184 -0.57 -0.08 0.13 0.81
1 9.15 915 0.297 -9.443 4.042 -2.014 12.207 13.489 664.217 3614.295 878.728 -0.462 0.206 -0.773 -0.57 -0.08 0.13 0.81
1 9.16 916 0.215 -9.572 3.907 6.989 8.087 15.717 604.256 3794.178 833.757 -0.401 0.338 -0.633 -0.57 -0.08 0.13 0.81
1 9.17 917 0.273 -9.362 3.869 14.099 8.148 16.846 724.178 3764.198 773.796 -0.480 0.132 -0.580 -0.57 -0.08 0.13 0.81
1 9.18 918 0.010 -9.113 3.702 16.113 10.834 19.318 664.217 3809.318 878.728 -0.240 -0.108 -0.390 -0.57 -0.08 0.13 0.81
1 9.19 919 0.206 -9.232 3.572 8.881 16.480 23.590 664.217 3809.318 878.728 -0.498 0.032 -0.211 -0.57 -0.07 0.13 0.81
1 9.20 920 0.259 -9.228 3.663 1.617 19.257 23.071 724.178 3914.250 953.679 -0.588 0.033 -0.289 -0.57 -0.07 0.13 0.81
1 9.21 921 0.187 -9.639 3.644 -5.341 19.409 20.752 544.146 3689.247 848.747 -0.553 0.447 -0.267 -0.57 -0.07 0.13 0.81
1 9.22 922 0.316 -9.711 3.563 -4.364 17.090 17.792 544.146 3689.247 848.747 -0.715 0.518 -0.192 -0.57 -0.07 0.13 0.81
1 9.23 923 0.397 -9.812 3.668 4.028 13.153 10.742 664.217 3734.217 818.767 -0.821 0.619 -0.299 -0.57 -0.06 0.13 0.81
1 9.24 924 0.407 -9.577 3.625 16.693 4.669 -3.784 619.247 3734.217 848.747 -0.841 0.389 -0.245 -0.57 -0.06 0.13 0.81
1 9.25 925 0.508 -9.338 3.481 19.623 -2.106 -11.139 739.168 3869.279 833.757 -0.936 0.158 -0.077 -0.57 -0.06 0.13 0.81
1 9.26 926 0.584 -9.184 3.462 18.402 -7.507 -17.151 739.168 3869.279 833.757 -0.991 0.015 -0.029 -0.57 -0.06 0.13 0.81
1 9.27 927 0.608 -9.117 3.548 11.719 -11.932 -20.264 784.139 3734.217 923.698 -0.942 -0.035 -0.062 -0.56 -0.07 0.13 0.81
1 9.28 928 0.613 -9.343 3.596 7.935 -12.512 -19.318 634.237 3704.237 713.685 -0.905 0.195 -0.092 -0.56 -0.07 0.13 0.81
1 9.29 929 0.589 -9.486 3.778 4.730 -8.423 -17.426 634.237 3704.237 713.685 -0.842 0.342 -0.262 -0.56 -0.07 0.12 0.81
1 9.30 930 0.555 -9.601 3.769 4.517 -3.510 -13.702 604.256 3944.230 833.757 -0.774 0.460 -0.243 -0.56 -0.07 0.12 0.82
1 9.31 931 0.350 -9.730 3.663 10.284 5.371 -9.552 589.116 3659.266 773.796 -0.542 0.592 -0.128 -0.56 -0.07 0.12 0.82
1 9.32 932 0.354 -9.501 3.424 15.961 6.744 -6.897 604.256 3899.260 683.705 -0.529 0.368 0.126 -0.56 -0.07 0.12 0.82
1 9.33 933 0.316 -9.237 3.290 19.623 2.686 -4.425 604.256 3899.260 683.705 -0.479 0.112 0.281 -0.56 -0.07 0.12 0.82
1 9.34 934 0.335 -8.912 2.926 18.951 -3.998 -1.434 589.116 3764.198 848.747 -0.481 -0.192 0.699 -0.56 -0.07 0.12 0.82
1 9.35 935 0.661 -8.648 2.734 14.130 -5.310 0.336 634.237 3704.237 608.753 -0.799 -0.446 0.914 -0.56 -0.07 0.12 0.82
1 9.36 936 0.819 -8.615 2.600 7.874 -2.899 2.045 634.237 3704.237 608.753 -0.949 -0.474 1.063 -0.55 -0.07 0.12 0.82
1 9.37 937 0.977 -8.744 2.591 3.937 1.801 3.357 529.155 3824.309 713.685 -1.102 -0.342 1.079 -0.55 -0.07 0.12 0.82
1 9.38 938 0.723 -8.801 2.653 3.784 8.301 6.836 604.256 3869.279 713.685 -0.846 -0.285 1.017 -0.55 -0.07 0.12 0.82
1 9.39 939 0.804 -8.557 2.763 7.568 7.599 9.094 604.256 3899.260 653.724 -0.932 -0.529 0.907 -0.55 -0.07 0.12 0.82
1 9.40 940 0.546 -8.524 2.883 8.514 4.303 11.475 604.256 3899.260 653.724 -0.683 -0.560 0.792 -0.55 -0.07 0.12 0.82
1 9.41 941 0.560 -8.385 2.485 1.129 -4.150 15.686 619.247 3839.299 743.666 -0.723 -0.692 1.205 -0.55 -0.07 0.12 0.82
1 9.42 942 0.785 -8.586 1.781 -5.035 -7.813 15.778 724.178 3809.318 743.666 -0.964 -0.492 1.906 -0.55 -0.07 0.12 0.82
1 9.43 943 1.015 -8.605 1.595 -6.531 -7.446 16.052 724.178 3809.318 743.666 -1.211 -0.475 2.087 -0.55 -0.07 0.12 0.82
1 9.44 944 1.106 -8.710 1.628 -1.709 -1.160 17.548 514.165 3809.318 668.714 -1.320 -0.372 2.047 -0.55 -0.07 0.12 0.82
1 9.45 945 1.097 -8.983 1.839 6.500 8.759 16.998 604.256 3824.309 653.724 -1.325 -0.102 1.826 -0.56 -0.07 0.12 0.82
1 9.46 946 0.369 -9.161 2.404 9.064 21.027 13.428 724.178 3839.299 698.695 -0.616 0.075 1.262 -0.56 -0.07 0.12 0.82
1 9.47 947 -0.220 -9.410 3.093 4.211 23.407 10.651 724.178 3839.299 698.695 -0.050 0.327 0.577 -0.56 -0.07 0.12 0.82
1 9.48 948 -0.857 -9.687 3.816 -6.958 12.939 7.355 619.247 3734.217 563.783 0.539 0.606 -0.148 -0.56 -0.06 0.12 0.82
1 9.49 949 -1.662 -10.228 4.228 -12.970 6.439 5.768 679.208 3899.260 608.753 1.324 1.143 -0.572 -0.56 -0.06 0.12 0.82
1 9.50 950 -2.423 -10.267 4.789 -23.102 -20.752 -8.728 679.208 3899.260 608.753 2.090 1.170 -1.159 -0.56 -0.06 0.12 0.82
1 9.51 951 -2.370 -10.252 4.501 -24.414 -33.569 -17.273 724.178 3884.270 668.714 2.067 1.143 -0.902 -0.56 -0.07 0.12 0.82
1 9.52 952 -1.901 -10.271 3.773 -31.983 -35.339 -21.149 709.188 3869.279 683.705 1.644 1.147 -0.207 -0.56 -0.07 0.12 0.82
1 9.53 953 -0.934 -9.759 2.739 -37.323 -34.515 -12.299 529.155 3944.230 863.737 0.726 0.616 0.783 -0.56 -0.07 0.12 0.82
1 9.54 954 -0.292 -9.333 2.883 -32.776 -41.992 -3.448 529.155 3944.230 863.737 0.119 0.169 0.587 -0.56 -0.07 0.12 0.81
1 9.55 955 0.235 -9.108 3.218 -29.327 -53.406 1.556 709.188 3824.309 653.724 -0.382 -0.075 0.201 -0.57 -0.08 0.12 0.81
1 9.56 956 1.470 -8.591 4.190 -34.668 -62.195 1.678 679.208 3869.279 833.757 -1.561 -0.623 -0.853 -0.57 -0.09 0.13 0.81
1 9.57 957 2.026 -8.562 4.176 -40.772 -53.497 -2.533 679.208 3869.279 833.757 -2.076 -0.668 -0.882 -0.57 -0.09 0.13 0.81
1 9.58 958 2.533 -8.643 4.003 -41.901 -29.968 -7.568 664.217 3884.270 848.747 -2.540 -0.604 -0.758 -0.57 -0.09 0.13 0.8
1 9.59 959 2.413 -8.701 3.888 -35.858 1.434 -10.956 664.217 3884.270 848.747 -2.379 -0.563 -0.692 -0.57 -0.1 0.13 0.8
1 9.60 960 1.547 -8.864 3.395 -18.829 37.506 -16.144 724.178 3884.270 818.767 -1.481 -0.413 -0.237 -0.57 -0.1 0.13 0.8
1 9.61 961 0.752 -8.816 3.194 -10.132 44.800 -18.585 724.178 3884.270 818.767 -0.664 -0.469 -0.061 -0.58 -0.1 0.13 0.8
1 9.62 962 0.172 -8.576 2.883 -8.850 39.337 -21.240 634.237 3869.279 788.786 -0.070 -0.713 0.239 -0.58 -0.1 0.12 0.8
1 9.63 963 -0.460 -8.624 2.696 -14.587 20.294 -28.717 709.188 3869.279 938.688 0.597 -0.672 0.404 -0.58 -0.09 0.12 0.8
1 9.64 964 -0.771 -9.017 2.950 -16.510 8.606 -30.914 709.188 3869.279 938.688 0.938 -0.285 0.130 -0.58 -0.09 0.12 0.8
1 9.65 965 -0.828 -9.261 3.338 -14.832 -0.153 -29.511 619.247 3764.198 848.747 1.030 -0.047 -0.280 -0.58 -0.09 0.11 0.8
1 9.66 966 -0.666 -9.352 3.639 -11.231 -6.134 -27.252 619.247 3764.198 848.747 0.902 0.039 -0.598 -0.58 -0.1 0.11 0.8
1 9.67 967 -0.642 -9.539 4.080 -6.226 -11.017 -23.987 499.175 3899.260 863.737 0.913 0.224 -1.047 -0.58 -0.1 0.11 0.8
1 9.68 968 -0.709 -9.577 4.530 -4.059 -14.221 -17.944 499.175 3899.260 863.737 1.012 0.263 -1.498 -0.58 -0.1 0.11 0.8
1 9.69 969 -0.646 -9.745 4.578 -3.387 -14.984 -11.322 424.224 3749.208 938.688 0.977 0.433 -1.542 -0.58 -0.1 0.11 0.8
1 9.70 970 -0.776 -9.764 4.463 -1.312 -13.947 -5.341 529.155 3794.178 863.737 1.124 0.454 -1.421 -0.58 -0.1 0.11 0.8
1 9.71 971 -0.402 -9.678 4.262 0.702 -2.350 -0.366 529.155 3794.178 863.737 0.760 0.375 -1.202 -0.58 -0.1 0.11 0.8
1 9.72 972 -0.441 -9.558 4.238 -0.366 10.620 -1.068 529.155 3749.208 968.669 0.793 0.258 -1.167 -0.58 -0.1 0.11 0.8
1 9.73 973 -0.388 -9.644 3.927 -1.953 23.407 -1.587 529.155 3749.208 968.669 0.730 0.347 -0.846 -0.58 -0.1 0.11 0.8
1 9.74 974 -0.843 -9.582 3.788 -5.341 31.555 -0.275 469.194 3839.299 818.767 1.170 0.286 -0.702 -0.58 -0.1 0.11 0.8
1 9.75 975 -1.489 -9.553 3.721 -11.322 26.764 3.601 469.194 3839.299 818.767 1.794 0.256 -0.636 -0.58 -0.1 0.11 0.8
1 9.76 976 -1.671 -9.395 3.678 -16.449 14.313 7.385 559.136 3704.237 908.708 1.948 0.095 -0.600 -0.58 -0.09 0.11 0.8
1 9.77 977 -1.666 -9.194 3.496 -22.308 -0.641 9.888 394.243 3839.299 923.698 1.913 -0.112 -0.432 -0.58 -0.09 0.11 0.8
1 9.78 978 -1.298 -9.065 3.007 -28.687 -16.632 12.604 394.243 3839.299 923.698 1.491 -0.260 -0.000 -0.58 -0.09 0.11 0.8
1 9.79 979 -0.733 -9.247 2.864 -26.062 -18.402 13.367 529.155 3794.178 968.669 0.904 -0.091 0.105 -0.58 -0.09 0.11 0.8
1 9.80 980 -0.340 -9.457 2.715 -20.355 -13.153 13.397 529.155 3794.178 968.669 0.492 0.109 0.220 -0.58 -0.09 0.11 0.8
1 9.81 981 0.077 -9.390 2.801 -12.329 -2.869 12.207 514.165 3689.247 923.698 0.058 0.033 0.108 -0.59 -0.09 0.11 0.8
1 9.82 982 0.196 -9.754 3.050 -4.761 14.252 11.047 545.645 3810.667 1104.331 -0.079 0.393 -0.155 -0.59 -0.09 0.11 0.8
1 9.83 983 0.038 -9.946 3.194 -1.953 18.585 9.125 605.605 3795.677 969.269 0.059 0.582 -0.304 -0.59 -0.09 0.11 0.8
1 9.84 984 -0.249 -10.128 3.290 -1.099 15.839 7.111 440.563 3840.648 954.278 0.326 0.764 -0.401 -0.59 -0.09 0.11 0.8
1 9.85 985 -0.656 -10.133 3.419 0.397 1.678 2.899 440.563 3840.648 954.278 0.699 0.769 -0.528 -0.59 -0.09 0.11 0.8
1 9.86 986 -1.001 -9.975 3.395 2.533 -8.301 -0.092 455.553 3675.605 1044.370 1.037 0.612 -0.499 -0.59 -0.09 0.11 0.8
1 9.87 987 -1.226 -9.860 3.208 6.714 -15.625 -2.197 455.553 3675.605 1044.370 1.261 0.500 -0.303 -0.59 -0.09 0.11 0.8
1 9.88 988 -1.288 -9.702 3.184 9.369 -20.813 -3.143 590.615 3765.547 1104.331 1.326 0.347 -0.265 -0.59 -0.09 0.11 0.8
1 9.89 989 -1.489 -9.520 3.113 10.193 -23.773 -2.594 440.563 3915.599 999.399 1.533 0.170 -0.176 -0.59 -0.09 0.11 0.8
1 9.90 990 -1.331 -9.352 3.050 5.859 -26.398 2.319 440.563 3840.648 999.399 1.378 0.008 -0.098 -0.58 -0.09 0.12 0.8
1 9.91 991 -1.178 -9.328 2.931 0.153 -26.062 5.798 470.543 3765.547 954.278 1.223 -0.013 0.034 -0.58 -0.09 0.12 0.8
1 9.92 992 -0.742 -9.592 3.065 -7.385 -22.797 10.773 470.543 3765.547 954.278 0.774 0.251 -0.101 -0.58 -0.09 0.12 0.8
1 9.93 993 -0.555 -9.644 2.955 -8.698 -20.416 12.177 425.573 3825.658 909.308 0.575 0.300 0.000 -0.58 -0.09 0.12 0.8
1 9.94 994 -0.029 -9.860 3.017 -6.897 -13.001 12.573 425.573 3825.658 909.308 0.034 0.512 -0.073 -0.58 -0.09 0.12 0.8
1 9.95 995 0.043 -9.908 3.098 -1.495 -7.843 10.407 515.664 3840.648 879.327 -0.050 0.558 -0.161 -0.58 -0.09 0.12 0.8
1 9.96 996 0.239 -9.965 2.926 8.514 -3.784 7.080 455.553 3795.677 1014.389 -0.256 0.616 0.014 -0.58 -0.09 0.12 0.8
1 9.97 997 0.268 -9.797 2.777 15.137 -3.448 4.700 545.645 3885.619 954.278 -0.292 0.452 0.173 -0.58 -0.09 0.13 0.8
1 9.98 998 0.005 -9.625 2.797 19.165 -5.310 2.472 515.664 3840.648 1104.331 -0.032 0.286 0.174 -0.58 -0.09 0.13 0.8
1 9.99 999 -0.144 -9.266 2.677 21.881 -7.965 0.763 515.664 3840.648 1104.331 0.116 -0.065 0.320 -0.58 -0.09 0.13 0.8
1 10.00 1000 -0.369 -9.199 2.385 21.607 -11.353 -1.831 620.596 3810.667 954.278 0.349 -0.112 0.674 -0.58 -0.09 0.13 0.8
1 10.01 1001 -0.541 -9.141 2.236 18.555 -11.566 -2.655 620.596 3810.667 954.278 0.527 -0.160 0.850 -0.58 -0.09 0.13 0.8
1 10.02 1002 -0.575 -8.950 2.289 15.717 -10.956 -1.953 665.566 3810.667 999.399 0.567 -0.344 0.819 -0.58 -0.09 0.13 0.8
1 10.03 1003 -0.627 -9.003 2.423 12.970 -10.040 -1.648 620.596 3765.547 924.298 0.624 -0.285 0.704 -0.58 -0.09 0.13 0.8
1 10.04 1004 -0.570 -9.252 2.413 7.050 -10.742 -0.549 560.635 3870.628 789.386 0.570 -0.031 0.728 -0.58 -0.09 0.13 0.8
1 10.05 1005 -0.378 -9.146 2.437 2.960 -12.054 0.092 455.553 3870.628 939.288 0.381 -0.133 0.714 -0.58 -0.09 0.13 0.8
1 10.06 1006 -0.402 -9.433 2.260 0.366 -14.313 0.488 455.553 3870.628 939.288 0.408 0.155 0.893 -0.57 -0.09 0.13 0.8
1 10.07 1007 -0.445 -9.539 2.322 2.197 -15.930 -1.678 665.566 3840.648 924.298 0.460 0.259 0.826 -0.57 -0.09 0.13 0.8
1 10.08 1008 -0.278 -9.721 2.236 5.920 -16.419 -2.655 665.566 3840.648 924.298 0.300 0.441 0.913 -0.57 -0.09 0.13 0.8
1 10.09 1009 -0.369 -9.697 2.437 11.780 -14.557 -3.845 545.645 3810.667 819.366 0.401 0.418 0.717 -0.57 -0.1 0.13 0.8
1 10.10 1010 -0.311 -9.587 2.595 16.052 -11.566 -4.669 605.605 3825.658 789.386 0.354 0.313 0.572 -0.57 -0.1 0.13 0.8
1 10.11 1011 -0.402 -9.400 2.643 18.860 -9.064 -5.707 500.674 3825.658 834.356 0.455 0.133 0.545 -0.57 -0.1 0.13 0.8
1 10.12 1012 -0.575 -9.386 2.557 13.855 -8.270 -5.066 545.645 3915.599 774.396 0.637 0.127 0.655 -0.57 -0.1 0.13 0.8
1 10.13 1013 -0.723 -9.295 2.413 8.026 -9.796 -4.517 545.645 3915.599 774.396 0.793 0.043 0.817 -0.57 -0.1 0.13 0.8
1 10.14 1014 -0.781 -9.127 2.332 3.906 -11.169 -4.303 425.573 3825.658 789.386 0.858 -0.122 0.908 -0.57 -0.1 0.13 0.8
1 10.15 1015 -0.761 -9.108 2.021 -1.678 -13.397 -4.700 425.573 3825.658 789.386 0.850 -0.141 1.219 -0.57 -0.1 0.13 0.8
1 10.16 1016 -0.618 -9.256 1.963 -3.296 -15.320 -4.425 500.674 3825.658 714.285 0.715 0.005 1.267 -0.57 -0.1 0.13 0.8
