COL1	TIME	ACC_X	ACC_Y	ACC_Z	GYR_X	GYR_Y	GYR_Z	MAG_X	MAG_Y	MAG_Z	LACC_X	LACC_Y	LACC_Z	QUAT_X	QUAT_Y	QUAT_Z	QUAT_W
1 0.00 0 0.733 -8.868 4.453 -2.777 -1.129 1.312 -328.886 1844.398 -4052.760 -0.092 0.108 -0.107 0.03 -0.53 0.85 0.01
1 0.01 1 0.713 -8.926 4.391 -2.014 -0.458 0.458 -193.824 1874.379 -3977.809 -0.073 0.165 -0.047 0.03 -0.53 0.85 0.01
1 0.02 2 0.642 -8.921 4.343 -1.038 0.488 0.702 -118.873 1949.330 -4007.789 -0.001 0.160 0.000 0.03 -0.53 0.85 0.01
1 0.03 3 0.599 -8.816 4.343 0.031 0.000 1.678 -118.873 1949.330 -4007.789 0.042 0.054 0.000 0.03 -0.53 0.85 0.01
1 0.04 4 0.761 -8.821 4.267 -0.061 0.244 0.793 -328.886 1874.379 -4157.841 -0.123 0.060 0.079 0.03 -0.53 0.85 0.01
1 0.05 5 0.618 -8.777 4.348 -0.305 -0.671 0.793 -208.814 1934.340 -4172.832 0.020 0.017 -0.002 0.03 -0.53 0.85 0.01
1 0.06 6 0.546 -8.648 4.257 -1.801 -1.434 1.221 -208.814 1934.340 -4172.832 0.091 -0.112 0.089 0.03 -0.53 0.85 0.01
1 0.07 7 0.455 -8.883 4.319 -3.235 -1.434 0.671 -268.925 1844.398 -4157.841 0.182 0.122 0.027 0.03 -0.53 0.85 0.01
1 0.08 8 0.603 -8.811 4.434 -4.700 -0.977 1.343 -73.902 1874.379 -4052.760 0.033 0.047 -0.095 0.03 -0.53 0.85 0.01
1 0.09 9 0.642 -8.864 4.334 -4.425 -0.732 1.495 -163.843 1979.311 -4037.770 -0.007 0.097 0.001 0.03 -0.53 0.85 0.01
1 0.10 10 0.599 -8.754 4.405 -3.357 0.031 2.167 -163.843 1979.311 -4037.770 0.034 -0.015 -0.075 0.03 -0.53 0.85 0.01
1 0.11 11 0.685 -8.940 4.386 -2.106 0.366 1.221 -268.925 1949.330 -4127.861 -0.054 0.170 -0.059 0.03 -0.53 0.85 0.01
1 0.12 12 0.675 -9.036 4.405 -0.671 -0.427 1.129 -43.921 2099.382 -3977.809 -0.046 0.265 -0.079 0.03 -0.53 0.85 0.01
1 0.13 13 0.608 -8.883 4.262 -0.671 -1.953 1.038 -43.921 2099.382 -3977.809 0.021 0.112 0.065 0.03 -0.53 0.85 0.01
1 0.14 14 0.651 -8.844 4.324 -0.854 -2.228 0.580 -298.905 1874.379 -4007.789 -0.022 0.074 0.002 0.03 -0.53 0.85 0.01
1 0.15 15 0.608 -8.787 4.305 -1.678 -2.686 0.427 -298.905 1874.379 -4007.789 0.021 0.016 0.021 0.03 -0.53 0.85 0.01
1 0.16 16 0.613 -8.907 4.391 -3.052 -2.106 0.610 -238.794 1889.369 -4217.802 0.019 0.135 -0.068 0.03 -0.53 0.85 0.01
1 0.17 17 0.546 -8.935 4.372 -2.197 -1.526 0.885 -238.794 1889.369 -4217.802 0.087 0.162 -0.051 0.03 -0.53 0.85 0.01
1 0.18 18 0.555 -8.964 4.473 -1.892 -0.977 0.641 -433.817 2009.291 -3992.799 0.078 0.191 -0.153 0.03 -0.53 0.85 0.01
1 0.19 19 0.608 -8.907 4.377 -2.075 -1.221 1.068 -238.794 2009.291 -4037.770 0.025 0.133 -0.058 0.03 -0.53 0.85 0.01
1 0.20 20 0.517 -8.907 4.410 -1.709 -1.160 1.526 -238.794 2009.291 -4037.770 0.115 0.132 -0.092 0.03 -0.53 0.85 0.01
1 0.21 21 0.646 -8.902 4.329 -0.793 -1.221 1.740 -313.896 2009.291 -3917.848 -0.015 0.128 -0.010 0.03 -0.53 0.85 0.01
1 0.22 22 0.694 -8.811 4.372 -1.617 -0.488 1.221 -313.896 2009.291 -3917.848 -0.063 0.037 -0.053 0.03 -0.53 0.85 0.01
1 0.23 23 0.694 -8.801 4.286 -1.770 0.214 1.129 -298.905 1874.379 -4082.740 -0.063 0.027 0.033 0.03 -0.53 0.85 0.01
1 0.24 24 0.685 -8.868 4.295 -1.862 0.092 0.641 -298.905 1874.379 -4082.740 -0.055 0.093 0.022 0.03 -0.53 0.85 0.01
1 0.25 25 0.522 -8.888 4.286 -0.977 -1.007 0.793 -223.804 1949.330 -4082.740 0.108 0.112 0.031 0.03 -0.53 0.85 0.01
1 0.26 26 0.474 -8.749 4.315 -0.946 -2.289 0.549 -358.866 2054.412 -3962.818 0.155 -0.027 0.002 0.03 -0.53 0.85 0.01
1 0.27 27 0.575 -8.916 4.324 -0.854 -3.845 -0.336 -358.866 2054.412 -3962.818 0.055 0.140 -0.008 0.03 -0.53 0.85 0.01
1 0.28 28 0.623 -8.888 4.444 -0.397 -4.913 0.336 -463.798 1889.369 -4067.750 0.010 0.112 -0.128 0.03 -0.53 0.85 0.01
1 0.29 29 0.584 -8.897 4.386 -0.427 -5.219 0.549 -463.798 1889.369 -4067.750 0.051 0.122 -0.070 0.03 -0.53 0.85 0.01
1 0.30 30 0.661 -8.792 4.324 -0.854 -4.486 1.526 -298.905 1799.278 -4052.760 -0.020 0.017 -0.007 0.03 -0.53 0.85 0.01
1 0.31 31 0.594 -8.868 4.300 -1.160 -3.510 2.136 -298.905 1799.278 -4052.760 0.048 0.094 0.017 0.03 -0.53 0.85 0.01
1 0.32 32 0.503 -8.912 4.353 -1.373 -2.380 2.014 -208.814 2009.291 -3962.818 0.139 0.136 -0.037 0.03 -0.53 0.85 0.01
1 0.33 33 0.594 -8.921 4.329 -1.282 -2.228 2.594 -238.794 1889.369 -4037.770 0.046 0.146 -0.014 0.03 -0.53 0.85 0.01
1 0.34 34 0.709 -8.878 4.315 -1.221 -1.434 2.808 -238.794 1889.369 -4037.770 -0.071 0.102 0.000 0.03 -0.53 0.85 0.01
1 0.35 35 0.594 -8.758 4.329 -1.648 -0.458 2.625 -283.915 1979.311 -3962.818 0.042 -0.018 -0.015 0.03 -0.53 0.85 0.01
1 0.36 36 0.642 -8.916 4.377 -2.350 -0.366 3.265 -283.915 1979.311 -3962.818 -0.009 0.139 -0.063 0.03 -0.53 0.85 0.01
1 0.37 37 0.599 -8.902 4.386 -3.113 0.214 2.228 -298.905 1874.379 -4007.789 0.032 0.124 -0.074 0.03 -0.53 0.85 0.01
1 0.38 38 0.599 -8.883 4.310 -3.326 0.153 2.625 -298.905 1994.301 -3977.809 0.027 0.102 -0.003 0.03 -0.53 0.85 0.01
1 0.39 39 0.627 -8.892 4.257 -2.258 -0.763 1.587 -193.824 1949.330 -3977.809 -0.004 0.110 0.047 0.03 -0.53 0.85 0.01
1 0.40 40 0.661 -8.940 4.362 -1.373 -1.862 0.977 -238.794 1934.340 -3962.818 -0.038 0.157 -0.060 0.03 -0.53 0.85 0.01
1 0.41 41 0.680 -8.921 4.257 -0.061 -2.747 0.824 -238.794 1934.340 -3962.818 -0.056 0.138 0.045 0.03 -0.53 0.85 0.01
1 0.42 42 0.618 -8.892 4.338 1.556 -3.143 0.122 -208.814 1934.340 -4142.851 0.008 0.110 -0.035 0.03 -0.53 0.85 0.01
1 0.43 43 0.781 -8.849 4.271 1.556 -2.472 0.275 -208.814 1934.340 -4142.851 -0.152 0.068 0.034 0.03 -0.53 0.85 0.01
1 0.44 44 0.728 -8.768 4.382 0.397 -1.740 0.885 -238.794 2054.412 -4097.730 -0.097 -0.011 -0.073 0.03 -0.53 0.85 0.01
1 0.45 45 0.570 -8.868 4.405 -1.495 -1.404 1.678 -103.882 2054.412 -4097.730 0.063 0.090 -0.094 0.03 -0.53 0.85 0.01
1 0.46 46 0.670 -8.883 4.338 -3.357 -1.831 1.709 -223.804 1994.301 -4187.822 -0.038 0.105 -0.028 0.03 -0.53 0.85 0.01
1 0.47 47 0.570 -8.840 4.382 -4.761 -1.953 1.160 -238.794 2129.363 -4097.730 0.062 0.059 -0.075 0.03 -0.53 0.85 0.01
1 0.48 48 0.527 -8.955 4.391 -5.554 -2.747 2.228 -238.794 2129.363 -4097.730 0.105 0.172 -0.090 0.03 -0.53 0.85 0.01
1 0.49 49 0.690 -8.883 4.453 -4.791 -2.014 1.801 -298.905 1919.350 -4082.740 -0.059 0.097 -0.158 0.03 -0.53 0.85 0.01
1 0.50 50 0.599 -9.003 4.353 -1.862 -0.885 2.045 -298.905 1919.350 -4082.740 0.031 0.215 -0.062 0.03 -0.53 0.85 0.01
1 0.51 51 0.613 -8.873 4.214 -0.336 -0.885 1.434 -193.824 2024.281 -4082.740 0.017 0.085 0.076 0.03 -0.53 0.85 0.01
1 0.52 52 0.680 -8.873 4.324 0.671 -1.068 1.801 -268.925 1919.350 -4082.740 -0.051 0.086 -0.032 0.03 -0.53 0.85 0.01
1 0.53 53 0.484 -8.912 4.334 0.732 -1.190 1.526 -133.863 1979.311 -4067.750 0.145 0.125 -0.039 0.03 -0.53 0.85 0.01
1 0.54 54 0.623 -8.816 4.286 -0.427 -1.495 1.282 -283.915 1979.311 -3962.818 0.004 0.030 0.011 0.03 -0.53 0.85 0.01
1 0.55 55 0.603 -8.830 4.276 -1.587 -2.258 1.495 -283.915 1979.311 -3962.818 0.023 0.044 0.020 0.03 -0.53 0.85 0.01
1 0.56 56 0.508 -8.902 4.166 -3.052 -2.197 2.014 -268.925 1919.350 -3947.828 0.118 0.116 0.130 0.03 -0.53 0.85 0.01
1 0.57 57 0.637 -9.017 4.286 -3.662 -1.648 2.136 -268.925 1919.350 -3947.828 -0.012 0.229 0.006 0.03 -0.53 0.85 0.01
1 0.58 58 0.637 -8.897 4.353 -4.181 -1.831 2.747 -163.843 1889.369 -4037.770 -0.013 0.107 -0.065 0.03 -0.53 0.85 0.01
1 0.59 59 0.522 -8.926 4.295 -3.815 -1.953 2.625 -133.863 1934.340 -4142.851 0.100 0.133 -0.013 0.03 -0.53 0.85 0.01
1 0.60 60 0.675 -8.964 4.315 -2.716 -1.373 2.625 -313.896 2009.291 -3992.799 -0.057 0.167 -0.040 0.03 -0.53 0.85 0.01
1 0.61 61 0.776 -8.926 4.247 -1.282 -1.251 2.441 -283.915 1934.340 -4097.730 -0.160 0.128 0.025 0.03 -0.53 0.85 0.01
1 0.62 62 0.704 -8.945 4.286 -0.641 -1.282 1.923 -283.915 1934.340 -4097.730 -0.089 0.146 -0.015 0.03 -0.53 0.85 0.01
1 0.63 63 0.637 -8.916 4.195 -0.732 -1.404 1.587 -223.804 1949.330 -4082.740 -0.022 0.117 0.076 0.03 -0.53 0.85 0.01
1 0.64 64 0.704 -8.806 4.410 -1.343 -1.801 1.068 -223.804 1949.330 -4082.740 -0.089 0.007 -0.140 0.03 -0.53 0.85 0.01
1 0.65 65 0.761 -8.854 4.281 -2.197 -1.862 1.343 -388.847 1889.369 -3992.799 -0.145 0.054 -0.012 0.03 -0.53 0.85 0.01
1 0.66 66 0.618 -8.931 4.353 -2.960 -1.892 0.702 -238.794 1979.311 -4142.851 -0.001 0.130 -0.085 0.03 -0.53 0.85 0.01
1 0.67 67 0.632 -8.950 4.209 -3.082 -2.686 1.831 -163.843 1889.369 -4037.770 -0.015 0.146 0.052 0.03 -0.53 0.85 0.01
1 0.68 68 0.479 -8.912 4.243 -2.563 -1.953 1.678 -223.804 2069.402 -4052.760 0.138 0.107 0.015 0.03 -0.53 0.85 0.01
1 0.69 69 0.680 -8.993 4.262 -1.770 -1.465 1.892 -223.804 2069.402 -4052.760 -0.064 0.187 -0.005 0.03 -0.53 0.85 0.01
1 0.70 70 0.541 -8.864 4.295 -1.343 -1.160 2.350 -283.915 1889.369 -4142.851 0.075 0.058 -0.039 0.03 -0.53 0.85 0.01
1 0.71 71 0.599 -9.017 4.291 -1.526 -0.916 2.106 -283.915 1889.369 -4142.851 0.017 0.211 -0.034 0.03 -0.53 0.85 0.01
1 0.72 72 0.666 -8.816 4.276 -2.533 -1.678 1.923 -328.886 1994.301 -3977.809 -0.050 0.010 -0.020 0.03 -0.53 0.85 0.01
1 0.73 73 0.623 -9.007 4.262 -3.540 -2.380 1.587 -148.853 1844.398 -4052.760 -0.008 0.200 -0.008 0.03 -0.53 0.85 0.01
1 0.74 74 0.661 -9.017 4.295 -2.197 -2.594 0.977 -433.817 2009.291 -4037.770 -0.046 0.207 -0.047 0.03 -0.53 0.85 0.01
1 0.75 75 0.661 -9.012 4.214 -1.221 -1.831 1.251 -193.824 2069.402 -3977.809 -0.045 0.201 0.032 0.03 -0.53 0.85 0.01
1 0.76 76 0.704 -8.878 4.362 -0.305 -1.251 0.885 -193.824 2069.402 -3977.809 -0.088 0.067 -0.117 0.03 -0.53 0.85 0.01
1 0.77 77 0.713 -8.806 4.228 0.549 -1.221 0.977 -193.824 1919.350 -4007.789 -0.097 -0.005 0.017 0.03 -0.53 0.85 0.01
1 0.78 78 0.613 -8.840 4.142 -0.275 -1.221 1.190 -193.824 1919.350 -4007.789 0.005 0.029 0.104 0.03 -0.53 0.85 0.01
1 0.79 79 0.532 -8.816 4.209 -1.770 -1.282 1.129 -208.814 1979.311 -3992.799 0.086 0.005 0.036 0.03 -0.53 0.85 0.01
1 0.80 80 0.637 -8.892 4.214 -2.960 -0.824 1.556 -238.794 2084.392 -3992.799 -0.019 0.081 0.031 0.03 -0.53 0.85 0.01
1 0.81 81 0.608 -8.931 4.343 -4.639 -0.702 2.106 -238.794 2084.392 -3992.799 0.009 0.118 -0.100 0.03 -0.53 0.85 0.01
1 0.82 82 0.541 -8.969 4.161 -4.395 -1.373 2.350 -313.896 2009.291 -3962.818 0.072 0.152 0.073 0.03 -0.53 0.85 0.01
1 0.83 83 0.670 -9.089 4.233 -3.082 -0.793 2.380 -313.896 2009.291 -3962.818 -0.058 0.270 -0.004 0.03 -0.53 0.85 0.01
1 0.84 84 0.666 -9.060 4.276 -1.862 -0.183 1.678 -148.853 1994.301 -4127.861 -0.055 0.239 -0.050 0.03 -0.53 0.85 0.01
1 0.85 85 0.814 -8.969 4.434 -0.549 0.732 1.282 -148.853 1994.301 -4127.861 -0.203 0.148 -0.209 0.03 -0.53 0.85 0.01
1 0.86 86 0.771 -8.787 4.171 1.923 0.671 1.129 -223.804 2069.402 -3977.809 -0.160 -0.033 0.056 0.03 -0.53 0.85 0.01
1 0.87 87 0.637 -8.983 4.372 1.862 0.183 0.122 -283.915 1979.311 -4067.750 -0.027 0.165 -0.142 0.03 -0.53 0.85 0.01
1 0.88 88 0.680 -8.916 4.358 1.495 -0.244 -0.153 -283.915 1979.311 -4067.750 -0.068 0.100 -0.123 0.03 -0.53 0.85 0.01
1 0.89 89 0.613 -8.873 4.204 0.061 -2.197 -0.427 -223.804 1994.301 -3947.828 0.003 0.060 0.036 0.03 -0.53 0.85 0.01
1 0.90 90 0.503 -8.782 4.286 -0.885 -3.052 -0.305 -223.804 1994.301 -3947.828 0.116 -0.031 -0.045 0.03 -0.53 0.85 0.01
1 0.91 91 0.546 -8.969 4.271 -2.106 -2.808 -0.061 -268.925 1949.330 -3977.809 0.075 0.156 -0.031 0.03 -0.53 0.85 0.01
1 0.92 92 0.623 -8.955 4.214 -1.892 -2.533 0.244 -268.925 1949.330 -3977.809 -0.000 0.141 0.025 0.03 -0.53 0.85 0.01
1 0.93 93 0.560 -8.969 4.362 -1.709 -1.709 0.641 -358.866 1979.311 -4067.750 0.063 0.155 -0.125 0.03 -0.53 0.85 0.01
1 0.94 94 0.551 -8.969 4.463 -0.793 -1.007 1.099 -388.847 2054.412 -4097.730 0.073 0.155 -0.225 0.03 -0.53 0.85 0.01
1 0.95 95 0.603 -8.921 4.305 -0.854 -0.824 2.167 -388.847 2054.412 -4097.730 0.020 0.107 -0.067 0.03 -0.53 0.85 0.01
1 0.96 96 0.728 -8.935 4.463 -1.221 0.061 2.167 -148.853 1994.301 -4052.760 -0.106 0.122 -0.224 0.03 -0.53 0.85 0.01
1 0.97 97 0.747 -9.041 4.401 -1.709 0.610 1.801 -148.853 1994.301 -4052.760 -0.127 0.227 -0.161 0.03 -0.53 0.85 0.01
1 0.98 98 0.704 -8.892 4.358 -1.587 1.526 1.648 -208.814 1979.311 -4037.770 -0.085 0.078 -0.119 0.03 -0.53 0.85 0.01
1 0.99 99 0.694 -8.974 4.247 -1.740 0.854 1.587 -208.814 1979.311 -4037.770 -0.077 0.159 -0.009 0.03 -0.53 0.85 0.01
1 1.00 100 0.675 -8.955 4.281 -0.763 0.488 0.732 -208.814 1889.369 -3917.848 -0.059 0.140 -0.043 0.03 -0.53 0.85 0.01
1 1.01 101 0.627 -8.787 4.338 1.190 -0.732 -0.092 -433.817 1859.389 -4097.730 -0.011 -0.027 -0.100 0.03 -0.53 0.85 0.01
1 1.02 102 0.656 -8.945 4.319 2.075 -0.916 -0.061 -433.817 1859.389 -4097.730 -0.039 0.132 -0.078 0.03 -0.53 0.85 0.01
1 1.03 103 0.608 -8.840 4.300 2.289 -1.648 -0.458 -223.804 2069.402 -4052.760 0.011 0.029 -0.054 0.03 -0.53 0.85 0.01
1 1.04 104 0.565 -8.816 4.324 0.031 -1.404 0.275 -283.915 1979.311 -4037.770 0.058 0.009 -0.071 0.03 -0.53 0.85 0.01
1 1.05 105 0.728 -8.816 4.377 -1.465 -1.495 0.214 -328.886 1949.330 -3977.809 -0.104 0.009 -0.123 0.03 -0.53 0.85 0.01
1 1.06 106 0.690 -8.854 4.310 -2.533 -1.160 0.122 -328.886 1949.330 -3977.809 -0.065 0.047 -0.056 0.03 -0.53 0.85 0.01
1 1.07 107 0.603 -8.969 4.295 -3.906 -1.373 0.610 -223.804 1994.301 -4157.841 0.022 0.161 -0.044 0.03 -0.53 0.85 0.01
1 1.08 108 0.594 -8.940 4.262 -2.808 -0.916 0.580 -238.794 2054.412 -3917.848 0.033 0.131 -0.014 0.03 -0.53 0.85 0.01
1 1.09 109 0.551 -8.907 4.439 -0.397 -1.678 0.427 -238.794 2054.412 -3917.848 0.076 0.096 -0.194 0.03 -0.53 0.85 0.01
1 1.10 110 0.599 -9.070 4.324 0.397 -1.434 0.763 -208.814 2084.392 -3962.818 0.028 0.259 -0.079 0.03 -0.53 0.85 0.01
1 1.11 111 0.484 -8.959 4.281 1.007 -1.465 -0.275 -328.886 1949.330 -4082.740 0.144 0.151 -0.032 0.03 -0.53 0.85 0.01
1 1.12 112 0.627 -8.844 4.200 -0.214 -2.045 0.427 -208.814 1979.311 -4037.770 0.002 0.037 0.052 0.03 -0.53 0.85 0.01
1 1.13 113 0.699 -8.902 4.415 -0.946 -1.373 0.397 -208.814 1979.311 -4037.770 -0.069 0.095 -0.164 0.03 -0.53 0.85 0.01
1 1.14 114 0.608 -8.921 4.310 -1.770 -0.854 1.038 -133.863 1889.369 -3992.799 0.022 0.114 -0.058 0.03 -0.53 0.85 0.01
1 1.15 115 0.570 -8.969 4.305 -1.068 -0.580 1.190 -358.866 2084.392 -4142.851 0.060 0.162 -0.054 0.03 -0.53 0.85 0.01
1 1.16 116 0.642 -9.022 4.353 -0.305 0.580 1.556 -358.866 2084.392 -4142.851 -0.013 0.214 -0.102 0.03 -0.53 0.85 0.01
1 1.17 117 0.680 -8.868 4.386 0.488 1.038 1.801 -238.794 1889.369 -3992.799 -0.052 0.061 -0.134 0.03 -0.53 0.85 0.01
1 1.18 118 0.646 -8.892 4.267 0.580 1.740 1.312 -283.915 2009.291 -4097.730 -0.023 0.087 -0.010 0.03 -0.53 0.85 0.01
1 1.19 119 0.718 -8.840 4.281 1.099 1.282 0.854 -163.843 2054.412 -4067.750 -0.096 0.036 -0.022 0.03 -0.53 0.85 0.01
1 1.20 120 0.642 -8.821 4.214 0.153 0.641 0.397 -163.843 2054.412 -4067.750 -0.020 0.018 0.048 0.03 -0.53 0.85 0.01
1 1.21 121 0.752 -8.844 4.257 -1.068 -0.580 0.275 -238.794 2054.412 -4067.750 -0.130 0.042 0.006 0.03 -0.53 0.85 0.01
1 1.22 122 0.575 -8.854 4.305 -1.160 -1.038 0.519 -238.794 1979.311 -4142.851 0.048 0.052 -0.042 0.03 -0.53 0.85 0.01
1 1.23 123 0.771 -8.854 4.291 -1.556 -1.862 -0.275 -238.794 1979.311 -4142.851 -0.148 0.052 -0.028 0.03 -0.53 0.85 0.01
1 1.24 124 0.814 -8.988 4.243 -1.251 -1.373 -0.671 -223.804 2069.402 -4082.740 -0.189 0.186 0.020 0.03 -0.53 0.85 0.01
1 1.25 125 0.709 -8.983 4.319 -0.519 -0.793 -0.610 -298.905 2024.281 -4007.789 -0.082 0.181 -0.057 0.03 -0.53 0.85 0.01
1 1.26 126 0.651 -9.007 4.329 0.763 -0.031 0.214 -358.866 2054.412 -4142.851 -0.019 0.207 -0.063 0.03 -0.53 0.85 0.01
1 1.27 127 0.646 -8.835 4.367 -0.183 0.153 0.122 -358.866 2054.412 -4142.851 -0.014 0.036 -0.099 0.03 -0.53 0.85 0.01
1 1.28 128 0.575 -8.825 4.429 -1.007 0.366 0.702 -238.794 2009.291 -4067.750 0.058 0.027 -0.161 0.03 -0.53 0.85 0.01
1 1.29 129 0.541 -8.902 4.362 -2.075 0.427 0.336 -208.814 1979.311 -4142.851 0.091 0.103 -0.093 0.03 -0.53 0.85 0.01
1 1.30 130 0.670 -8.969 4.343 -2.167 0.488 0.732 -208.814 1979.311 -4142.851 -0.039 0.170 -0.075 0.03 -0.53 0.85 0.01
1 1.31 131 0.656 -8.988 4.315 -2.045 -0.061 0.946 -268.925 1949.330 -4127.861 -0.025 0.188 -0.048 0.03 -0.53 0.85 0.01
1 1.32 132 0.656 -8.969 4.224 -0.824 -0.153 0.732 -133.863 2084.392 -4067.750 -0.025 0.168 0.041 0.03 -0.53 0.85 0.01
1 1.33 133 0.623 -8.983 4.358 -0.397 0.366 0.854 -223.804 2024.281 -3977.809 0.008 0.183 -0.093 0.03 -0.53 0.85 0.01
1 1.34 134 0.646 -8.792 4.281 0.183 0.244 0.488 -223.804 2024.281 -3977.809 -0.016 -0.009 -0.016 0.03 -0.53 0.85 0.01
1 1.35 135 0.632 -8.854 4.319 0.549 -0.183 0.244 -403.837 2189.324 -3977.809 -0.002 0.054 -0.052 0.03 -0.53 0.85 0.01
1 1.36 136 0.570 -8.902 4.209 0.122 -0.519 0.641 -283.915 1979.311 -4067.750 0.061 0.103 0.059 0.03 -0.53 0.85 0.01
1 1.37 137 0.608 -8.935 4.305 -0.336 -1.160 -0.183 -283.915 1979.311 -4067.750 0.022 0.136 -0.037 0.03 -0.53 0.85 0.01
1 1.38 138 0.517 -8.725 4.195 -1.770 -1.404 0.305 -238.794 2009.291 -3992.799 0.112 -0.075 0.073 0.03 -0.53 0.85 0.01
1 1.39 139 0.623 -9.003 4.396 -2.838 -1.587 0.580 -223.804 1949.330 -4127.861 0.007 0.203 -0.128 0.03 -0.53 0.85 0.01
1 1.40 140 0.694 -9.031 4.329 -2.533 -1.038 0.885 -193.824 1949.330 -3977.809 -0.065 0.230 -0.065 0.03 -0.53 0.85 0.01
1 1.41 141 0.675 -8.993 4.247 -1.495 -0.305 1.007 -193.824 1949.330 -3977.809 -0.046 0.191 0.015 0.03 -0.53 0.85 0.01
1 1.42 142 0.646 -8.969 4.204 -0.732 -0.183 1.099 -403.837 1874.379 -4232.792 -0.017 0.167 0.058 0.03 -0.53 0.85 0.01
1 1.43 143 0.551 -8.849 4.343 0.183 0.549 0.946 -283.915 2054.412 -4172.832 0.078 0.047 -0.081 0.03 -0.53 0.85 0.01
1 1.44 144 0.642 -8.931 4.224 0.397 0.641 0.793 -283.915 2054.412 -4172.832 -0.014 0.129 0.040 0.03 -0.53 0.85 0.01
1 1.45 145 0.699 -8.777 4.319 -1.373 0.000 1.007 -298.905 1994.301 -4082.740 -0.073 -0.024 -0.054 0.03 -0.53 0.85 0.01
1 1.46 146 0.828 -9.036 4.415 -1.190 -0.519 0.366 -328.886 2069.402 -3977.809 -0.202 0.235 -0.150 0.03 -0.53 0.85 0.01
1 1.47 147 0.666 -8.859 4.315 -1.465 -1.282 0.610 -328.886 2069.402 -3977.809 -0.039 0.058 -0.049 0.03 -0.53 0.85 0.01
1 1.48 148 0.632 -8.912 4.410 -0.793 -1.160 0.092 -313.896 1979.311 -4067.750 -0.005 0.111 -0.144 0.03 -0.53 0.85 0.01
1 1.49 149 0.608 -8.950 4.300 -0.031 -0.977 0.641 -148.853 2069.402 -4187.822 0.019 0.149 -0.034 0.03 -0.53 0.85 0.01
1 1.50 150 0.752 -8.921 4.343 1.099 -0.946 -0.061 -283.915 2009.291 -4037.770 -0.125 0.121 -0.077 0.03 -0.53 0.85 0.01
1 1.51 151 0.594 -8.902 4.228 1.373 -0.092 0.519 -283.915 2009.291 -4037.770 0.034 0.103 0.041 0.03 -0.53 0.85 0.01
1 1.52 152 0.474 -8.835 4.252 -0.549 -1.007 0.671 -283.915 1934.340 -4037.770 0.154 0.038 0.020 0.03 -0.53 0.85 0.01
1 1.53 153 0.541 -8.912 4.310 -0.916 -1.251 0.519 -373.856 1874.379 -3947.828 0.086 0.115 -0.036 0.03 -0.53 0.85 0.01
1 1.54 154 0.713 -8.835 4.372 -1.770 -1.617 0.641 -373.856 1874.379 -3947.828 -0.087 0.038 -0.098 0.03 -0.53 0.85 0.01
1 1.55 155 0.670 -8.844 4.252 -0.854 -0.366 1.099 -208.814 1889.369 -4067.750 -0.044 0.048 0.021 0.03 -0.53 0.85 0.01
1 1.56 156 0.737 -8.844 4.386 -0.153 0.061 0.977 -373.856 2024.281 -4052.760 -0.111 0.048 -0.113 0.03 -0.53 0.85 0.01
1 1.57 157 0.723 -8.749 4.434 0.610 1.038 0.244 -313.896 1979.311 -3992.799 -0.096 -0.048 -0.160 0.03 -0.53 0.85 0.01
1 1.58 158 0.632 -8.892 4.391 -0.122 1.404 0.763 -313.896 1979.311 -3992.799 -0.005 0.097 -0.114 0.03 -0.53 0.85 0.01
1 1.59 159 0.623 -8.730 4.338 -0.854 0.702 -0.336 -388.847 2084.392 -4067.750 0.004 -0.065 -0.060 0.03 -0.53 0.85 0.01
1 1.60 160 0.694 -8.782 4.401 -2.411 -0.671 -1.251 -268.925 2069.402 -4052.760 -0.066 -0.012 -0.122 0.03 -0.53 0.85 0.01
1 1.61 161 0.809 -8.868 4.496 -3.235 -1.923 -0.916 -268.925 2069.402 -4052.760 -0.179 0.074 -0.220 0.03 -0.53 0.85 0.01
1 1.62 162 0.766 -9.003 4.238 -2.991 -0.732 -1.190 -238.794 1979.311 -3992.799 -0.128 0.206 0.035 0.03 -0.53 0.85 0.01
1 1.63 163 0.718 -9.012 4.396 -2.563 0.122 -0.458 -268.925 1949.330 -4007.789 -0.077 0.215 -0.126 0.03 -0.53 0.85 0.01
1 1.64 164 0.713 -8.993 4.420 -0.885 0.244 -0.641 -268.925 1919.350 -4082.740 -0.070 0.195 -0.151 0.03 -0.53 0.85 0.01
1 1.65 165 0.690 -8.945 4.506 0.031 -0.061 -0.031 -268.925 1919.350 -4082.740 -0.044 0.148 -0.237 0.03 -0.53 0.85 0.01
1 1.66 166 0.675 -8.935 4.310 0.610 -0.275 0.092 -433.817 2054.412 -4037.770 -0.028 0.139 -0.038 0.03 -0.53 0.85 0.01
1 1.67 167 0.570 -8.940 4.362 -0.092 -1.587 0.244 -298.905 1919.350 -4052.760 0.078 0.145 -0.089 0.03 -0.53 0.85 0.01
1 1.68 168 0.560 -8.782 4.362 0.519 -2.197 -0.061 -298.905 1919.350 -4052.760 0.088 -0.013 -0.088 0.03 -0.53 0.85 0.01
1 1.69 169 0.527 -8.945 4.319 0.275 -3.204 0.549 -388.847 1934.340 -4247.783 0.122 0.151 -0.043 0.03 -0.53 0.85 0.01
1 1.70 170 0.460 -8.921 4.420 0.305 -2.289 0.732 -313.896 2009.291 -3962.818 0.190 0.129 -0.140 0.03 -0.53 0.85 0.01
1 1.71 171 0.560 -8.754 4.367 0.122 -1.617 1.923 -163.843 1979.311 -4037.770 0.090 -0.038 -0.086 0.03 -0.53 0.85 0.01
1 1.72 172 0.579 -8.959 4.262 -0.702 -1.068 2.594 -163.843 1979.311 -4037.770 0.070 0.169 0.021 0.03 -0.53 0.85 0.01
1 1.73 173 0.690 -8.730 4.343 -1.373 -0.244 3.265 -163.843 1889.369 -3962.818 -0.043 -0.061 -0.060 0.03 -0.53 0.85 0.01
1 1.74 174 0.685 -8.897 4.382 -2.258 -0.854 2.411 -358.866 1979.311 -4037.770 -0.042 0.106 -0.098 0.03 -0.53 0.85 0.01
1 1.75 175 0.680 -8.945 4.262 -2.014 -0.732 2.197 -358.866 1979.311 -4037.770 -0.039 0.153 0.020 0.03 -0.53 0.85 0.01
1 1.76 176 0.833 -8.897 4.444 -2.777 -1.251 1.770 -283.915 2009.291 -3917.848 -0.194 0.105 -0.163 0.03 -0.53 0.85 0.01
1 1.77 177 0.781 -8.844 4.458 -1.984 -1.648 1.099 -238.794 1979.311 -4097.730 -0.141 0.051 -0.179 0.03 -0.53 0.85 0.01
1 1.78 178 0.747 -8.754 4.578 -0.244 -1.556 0.763 -298.905 1994.301 -3977.809 -0.107 -0.039 -0.298 0.03 -0.53 0.85 0.01
1 1.79 179 0.718 -8.859 4.420 0.763 -1.221 0.061 -298.905 1994.301 -3977.809 -0.076 0.067 -0.138 0.03 -0.53 0.85 0.01
1 1.80 180 0.718 -8.840 4.396 1.678 -1.465 0.000 -298.905 1949.330 -4082.740 -0.073 0.050 -0.110 0.03 -0.53 0.85 0.01
1 1.81 181 0.737 -8.821 4.410 1.923 -0.854 -0.031 -283.915 1934.340 -4067.750 -0.090 0.033 -0.121 0.03 -0.53 0.85 0.01
1 1.82 182 0.709 -8.749 4.358 1.007 -0.671 -0.061 -283.915 1934.340 -4067.750 -0.060 -0.036 -0.064 0.03 -0.53 0.85 0.01
1 1.83 183 0.752 -8.754 4.367 -1.526 -0.641 0.275 -268.925 2024.281 -4052.760 -0.102 -0.030 -0.070 0.03 -0.53 0.85 0.01
1 1.84 184 0.666 -8.811 4.319 -3.448 -1.556 -0.153 -208.814 1979.311 -4067.750 -0.012 0.028 -0.021 0.03 -0.53 0.85 0.01
1 1.85 185 0.575 -8.806 4.453 -4.669 -2.502 -0.305 -238.794 1934.340 -4037.770 0.081 0.022 -0.159 0.03 -0.53 0.85 0.01
1 1.86 186 0.555 -8.916 4.425 -4.639 -3.479 -0.641 -238.794 1934.340 -4037.770 0.102 0.130 -0.135 0.03 -0.53 0.85 0.01
1 1.87 187 0.584 -9.026 4.391 -3.815 -4.028 -0.305 -328.886 1949.330 -4127.861 0.077 0.238 -0.105 0.03 -0.53 0.85 0.01
1 1.88 188 0.690 -8.931 4.482 -0.458 -6.012 -0.397 -328.886 2189.324 -4157.841 -0.025 0.141 -0.199 0.03 -0.53 0.85 0.01
1 1.89 189 0.800 -8.998 4.463 3.632 -5.676 0.366 -328.886 2189.324 -4157.841 -0.131 0.210 -0.178 0.03 -0.53 0.85 0.01
1 1.90 190 0.943 -8.955 4.477 5.127 -3.387 1.465 -298.905 1994.301 -3902.857 -0.270 0.170 -0.187 0.03 -0.53 0.85 0.01
1 1.91 191 0.996 -8.744 4.592 4.089 -0.214 1.770 -298.905 1994.301 -3902.857 -0.320 -0.037 -0.293 0.03 -0.53 0.85 0.01
1 1.92 192 1.121 -8.744 4.501 0.092 3.784 1.221 -208.814 1859.389 -3962.818 -0.445 -0.030 -0.188 0.03 -0.53 0.85 0.01
1 1.93 193 0.943 -8.715 4.425 -1.129 3.937 -0.580 -208.814 1859.389 -3962.818 -0.268 -0.057 -0.109 0.03 -0.53 0.85 0.01
1 1.94 194 1.130 -8.916 4.444 -0.977 2.075 -1.434 -268.925 2069.402 -4052.760 -0.452 0.145 -0.127 0.03 -0.53 0.85 0.01
1 1.95 195 0.857 -9.012 4.492 0.671 -0.824 -1.495 -268.925 2024.281 -4127.861 -0.175 0.241 -0.174 0.03 -0.53 0.85 0.01
1 1.96 196 0.838 -9.022 4.549 5.920 -4.181 -1.495 -268.925 2024.281 -4127.861 -0.151 0.253 -0.228 0.03 -0.53 0.85 0.01
1 1.97 197 0.862 -8.897 4.544 8.545 -5.249 -1.617 -283.915 1934.340 -4037.770 -0.168 0.133 -0.215 0.03 -0.53 0.85 0.01
1 1.98 198 0.881 -8.916 4.607 9.674 -5.005 -1.587 -283.915 1934.340 -4037.770 -0.180 0.158 -0.265 0.03 -0.53 0.85 0.01
1 1.99 199 1.034 -8.777 4.458 8.240 -5.127 0.031 -223.804 1919.350 -4082.740 -0.320 0.035 -0.089 0.03 -0.53 0.85 0.01
1 2.00 200 1.125 -8.682 4.463 6.714 -5.280 -0.488 -223.804 1919.350 -4082.740 -0.405 -0.055 -0.082 0.03 -0.52 0.85 0.01
1 2.01 201 1.082 -8.691 4.587 5.981 -5.432 0.031 -373.856 1949.330 -4082.740 -0.354 -0.040 -0.197 0.04 -0.52 0.85 0.01
1 2.02 202 1.044 -8.821 4.367 5.524 -5.646 0.183 -268.925 1949.330 -4007.789 -0.310 0.095 0.034 0.04 -0.52 0.85 0.01
1 2.03 203 1.197 -8.667 4.597 6.714 -4.242 1.190 -268.925 1949.330 -4007.789 -0.457 -0.053 -0.188 0.04 -0.52 0.85 0.01
1 2.04 204 1.269 -8.706 4.477 5.981 -0.641 1.099 -403.837 1874.379 -3977.809 -0.524 -0.010 -0.058 0.04 -0.52 0.85 0.01
1 2.05 205 1.302 -8.653 4.420 5.066 0.397 1.770 -403.837 1874.379 -3977.809 -0.554 -0.057 0.009 0.04 -0.52 0.85 0.01
1 2.06 206 1.302 -8.634 4.540 1.984 0.977 2.625 -223.804 1919.350 -4007.789 -0.551 -0.069 -0.096 0.04 -0.52 0.85 0.01
1 2.07 207 1.192 -8.816 4.362 0.793 0.580 2.045 -223.804 1919.350 -4007.789 -0.440 0.115 0.085 0.04 -0.52 0.85 0.01
1 2.08 208 1.173 -8.777 4.233 -0.153 0.031 2.167 -358.866 2009.291 -4067.750 -0.420 0.078 0.215 0.04 -0.52 0.85 0.01
1 2.09 209 1.226 -8.773 4.338 0.305 -1.831 1.923 -328.886 1844.398 -4007.789 -0.472 0.073 0.110 0.04 -0.52 0.85 0.01
1 2.10 210 1.121 -8.825 4.295 2.228 -2.869 1.862 -328.886 1844.398 -4007.789 -0.363 0.127 0.154 0.04 -0.52 0.85 0.01
1 2.11 211 1.106 -8.754 4.243 3.723 -3.632 1.556 -238.794 1934.340 -3962.818 -0.346 0.056 0.209 0.04 -0.52 0.85 0.01
1 2.12 212 1.068 -8.610 4.228 3.845 -2.991 1.556 -238.794 1934.340 -3962.818 -0.304 -0.085 0.229 0.04 -0.52 0.85 0.01
1 2.13 213 1.207 -8.744 4.171 2.991 -1.648 2.258 -388.847 1889.369 -4097.730 -0.439 0.052 0.291 0.04 -0.52 0.85 0.01
1 2.14 214 1.173 -8.505 4.065 -0.031 0.336 3.601 -298.905 1769.297 -4052.760 -0.404 -0.184 0.401 0.04 -0.52 0.85 0.01
1 2.15 215 1.087 -8.572 3.994 -1.556 0.824 4.456 -268.925 1874.379 -4082.740 -0.319 -0.118 0.472 0.04 -0.52 0.85 0.01
1 2.16 216 0.958 -8.773 3.970 -3.906 0.336 4.028 -268.925 1949.330 -4052.760 -0.194 0.081 0.492 0.04 -0.52 0.85 0.01
1 2.17 217 1.010 -8.715 4.056 -5.646 -0.763 4.028 -268.925 1949.330 -4052.760 -0.250 0.019 0.398 0.04 -0.52 0.85 0.01
1 2.18 218 1.001 -8.854 4.099 -8.667 -2.808 3.967 -328.886 1874.379 -4127.861 -0.242 0.153 0.345 0.04 -0.52 0.85 0.01
1 2.19 219 1.044 -8.926 4.089 -10.132 -3.326 4.669 -328.886 1874.379 -4127.861 -0.286 0.218 0.342 0.04 -0.52 0.85 0.01
1 2.20 220 1.068 -9.089 4.109 -10.162 -1.892 5.524 -358.866 1889.369 -4067.750 -0.310 0.373 0.308 0.04 -0.52 0.85 0.01
1 2.21 221 1.149 -9.007 4.137 -5.951 2.625 5.615 -298.905 1799.278 -4082.740 -0.397 0.278 0.252 0.04 -0.52 0.85 0.01
1 2.22 222 1.159 -9.017 4.065 -3.418 5.005 6.226 -298.905 1874.379 -4052.760 -0.413 0.283 0.316 0.04 -0.52 0.85 0.01
1 2.23 223 1.073 -8.988 4.137 -2.197 7.080 6.653 -283.915 1859.389 -4142.851 -0.335 0.251 0.240 0.04 -0.52 0.85 0.01
1 2.24 224 1.015 -8.988 4.046 -2.441 6.866 7.874 -283.915 1859.389 -4142.851 -0.287 0.249 0.328 0.04 -0.52 0.85 0.01
1 2.25 225 0.991 -8.959 4.200 -4.395 6.104 6.866 -328.886 2069.402 -4157.841 -0.275 0.217 0.170 0.04 -0.53 0.85 0.01
1 2.26 226 0.905 -8.873 4.171 -7.446 5.524 6.744 -328.886 2069.402 -4157.841 -0.200 0.126 0.192 0.03 -0.53 0.85 0.01
1 2.27 227 0.848 -9.070 4.233 -7.629 3.876 6.378 -298.905 1994.301 -4127.861 -0.153 0.317 0.120 0.03 -0.53 0.85 0.01
1 2.28 228 0.742 -9.079 4.295 -6.226 1.312 6.012 -313.896 1979.311 -4172.832 -0.066 0.316 0.039 0.03 -0.53 0.85 0.01
1 2.29 229 0.785 -9.079 4.257 -5.554 1.526 5.615 -313.896 2129.363 -4172.832 -0.117 0.312 0.070 0.03 -0.53 0.85 0.01
1 2.30 230 0.982 -9.003 4.161 -5.951 2.625 5.768 -313.896 2009.291 -4067.750 -0.320 0.231 0.158 0.03 -0.53 0.85 0.01
1 2.31 231 0.843 -8.983 4.099 -7.660 5.371 5.951 -313.896 2009.291 -4067.750 -0.189 0.207 0.213 0.03 -0.53 0.85 0.01
1 2.32 232 0.809 -8.821 4.003 -9.674 8.728 6.378 -148.853 2144.353 -4052.760 -0.165 0.039 0.299 0.03 -0.53 0.85 0.01
1 2.33 233 0.809 -8.878 4.123 -14.710 13.489 5.951 -148.853 2144.353 -4052.760 -0.177 0.089 0.166 0.03 -0.53 0.85 0.01
1 2.34 234 0.833 -9.012 4.104 -17.212 14.587 5.280 -283.915 1979.311 -3992.799 -0.215 0.213 0.167 0.03 -0.53 0.85 0.01
1 2.35 235 0.608 -9.156 4.166 -17.975 13.458 4.364 -208.814 2084.392 -4067.750 -0.005 0.346 0.084 0.03 -0.53 0.85 0.01
1 2.36 236 0.670 -9.285 4.243 -17.090 8.179 1.831 -283.915 2009.291 -3962.818 -0.090 0.451 -0.040 0.03 -0.53 0.85 0.01
1 2.37 237 0.599 -9.539 4.358 -14.404 4.334 1.770 -148.853 1994.301 -3977.809 -0.025 0.694 -0.177 0.03 -0.53 0.84 0.01
1 2.38 238 0.656 -9.371 4.482 -10.315 3.510 1.068 -148.853 1994.301 -3977.809 -0.087 0.518 -0.319 0.03 -0.54 0.84 0.01
1 2.39 239 0.800 -9.343 4.425 -4.486 5.676 0.397 -238.794 1979.311 -3992.799 -0.233 0.484 -0.272 0.03 -0.54 0.84 0.01
1 2.40 240 0.728 -9.223 4.492 2.136 13.001 0.916 -238.794 1979.311 -3992.799 -0.164 0.363 -0.341 0.02 -0.54 0.84 0.01
1 2.41 241 0.713 -9.017 4.300 4.334 16.296 0.854 -358.866 2054.412 -3992.799 -0.156 0.159 -0.144 0.02 -0.54 0.84 0.02
1 2.42 242 0.436 -8.945 4.133 4.852 17.395 -0.519 -148.853 2099.382 -4082.740 0.112 0.091 0.032 0.02 -0.54 0.84 0.02
1 2.43 243 0.048 -8.811 4.046 2.747 13.031 -1.984 -163.843 2129.363 -4097.730 0.481 -0.036 0.136 0.02 -0.53 0.84 0.02
1 2.44 244 -0.407 -9.003 4.061 -0.092 6.165 -2.441 -133.863 2129.363 -3992.799 0.929 0.157 0.125 0.02 -0.53 0.84 0.02
1 2.45 245 -0.642 -9.050 4.094 -2.563 -3.326 -2.045 -133.863 2129.363 -3992.799 1.160 0.204 0.090 0.02 -0.53 0.84 0.02
1 2.46 246 -0.536 -9.012 4.190 -3.571 -10.590 -1.678 -283.915 2084.392 -4037.770 1.052 0.164 -0.009 0.02 -0.54 0.84 0.02
1 2.47 247 -0.436 -8.969 4.291 -2.686 -13.580 0.427 -283.915 2084.392 -4037.770 0.954 0.119 -0.114 0.02 -0.54 0.84 0.02
1 2.48 248 -0.014 -8.974 4.415 -0.824 -6.928 5.951 -103.882 1934.340 -3917.848 0.532 0.123 -0.240 0.02 -0.54 0.84 0.02
1 2.49 249 0.268 -8.749 4.540 -1.007 3.876 9.674 -208.814 1889.369 -3917.848 0.245 -0.102 -0.364 0.02 -0.54 0.84 0.02
1 2.50 250 0.393 -8.734 4.453 -4.517 18.311 13.519 -133.863 2129.363 -3992.799 0.080 -0.117 -0.274 0.02 -0.54 0.84 0.02
1 2.51 251 -0.019 -8.873 4.358 -8.209 21.698 13.062 -73.902 2099.382 -3977.809 0.461 0.019 -0.180 0.02 -0.54 0.84 0.02
1 2.52 252 -0.321 -8.974 4.276 -12.482 19.409 11.841 -73.902 2099.382 -3977.809 0.730 0.114 -0.107 0.01 -0.54 0.84 0.02
1 2.53 253 -0.594 -9.319 4.075 -12.848 12.024 9.033 -193.824 2024.281 -4052.760 0.972 0.451 0.080 0.01 -0.54 0.84 0.02
1 2.54 254 -0.718 -9.510 4.075 -10.132 0.824 7.416 -193.824 2024.281 -4052.760 1.074 0.634 0.064 0.01 -0.54 0.84 0.02
1 2.55 255 -0.613 -9.448 4.286 -1.190 -8.850 7.294 -223.804 2024.281 -4007.789 0.952 0.565 -0.159 0.01 -0.54 0.84 0.01
1 2.56 256 -0.340 -9.395 4.233 2.808 -9.766 9.644 -193.824 2069.402 -3947.828 0.667 0.510 -0.112 0.01 -0.54 0.84 0.01
1 2.57 257 -0.259 -9.199 4.204 3.448 -6.561 12.421 -193.824 2069.402 -3947.828 0.574 0.314 -0.081 0.01 -0.54 0.84 0.01
1 2.58 258 0.110 -8.998 4.367 -1.068 0.854 16.693 1.049 2069.402 -3947.828 0.168 0.115 -0.236 0.01 -0.54 0.84 0.01
1 2.59 259 -0.053 -8.888 4.252 -3.479 4.211 15.106 1.049 2069.402 -3947.828 0.306 0.004 -0.121 0.01 -0.54 0.84 0.01
1 2.60 260 -0.369 -8.864 4.233 -4.028 5.493 13.397 -118.873 1949.330 -3797.776 0.597 -0.022 -0.105 0.01 -0.54 0.84 0.01
1 2.61 261 -0.646 -8.935 4.156 -1.495 3.876 12.238 -118.873 1949.330 -3797.776 0.850 0.048 -0.032 0.01 -0.54 0.84 0.01
1 2.62 262 -1.020 -8.835 4.228 4.486 -0.580 7.935 -103.882 2129.363 -3962.818 1.201 -0.052 -0.103 0.01 -0.54 0.84 0.01
1 2.63 263 -1.159 -8.849 4.085 6.989 -2.960 5.371 -58.912 2129.363 -4142.851 1.322 -0.036 0.047 0.01 -0.54 0.84 0.01
1 2.64 264 -1.173 -8.816 4.037 7.111 -5.585 4.364 -58.912 2129.363 -4142.851 1.321 -0.065 0.104 0.01 -0.54 0.84 0.01
1 2.65 265 -1.255 -8.739 4.051 2.991 -8.820 5.463 -223.804 1874.379 -4082.740 1.380 -0.133 0.110 0 -0.54 0.84 0
1 2.66 266 -1.034 -8.576 4.008 -1.526 -10.254 7.355 -223.804 1874.379 -4082.740 1.147 -0.294 0.156 0.01 -0.54 0.84 0
1 2.67 267 -0.790 -8.595 4.094 -6.287 -11.536 9.186 -58.912 2129.363 -4037.770 0.891 -0.276 0.067 0.01 -0.54 0.84 0
1 2.68 268 -0.474 -8.629 3.927 -8.911 -12.116 11.414 -58.912 2129.363 -4037.770 0.563 -0.247 0.227 0.01 -0.54 0.84 0
1 2.69 269 -0.105 -8.825 3.998 -9.247 -10.681 13.123 31.030 2144.353 -3977.809 0.181 -0.056 0.144 -0.01 0.54 -0.84 0
1 2.70 270 0.182 -8.710 4.022 -5.341 -5.798 14.343 46.020 2054.412 -4037.770 -0.120 -0.176 0.108 -0.01 0.54 -0.84 0
1 2.71 271 0.244 -8.749 3.888 -2.197 -2.136 12.909 46.020 2054.412 -4037.770 -0.197 -0.142 0.234 -0 0.54 -0.84 0
1 2.72 272 0.120 -8.648 3.826 -0.702 1.648 10.925 -73.902 2069.402 -3977.809 -0.101 -0.245 0.292 -0 0.54 -0.84 0
1 2.73 273 -0.043 -8.696 3.903 -2.167 2.411 8.728 -73.902 2069.402 -3977.809 0.048 -0.198 0.214 -0 0.54 -0.84 0.01
1 2.74 274 -0.048 -8.706 3.816 -4.059 2.838 6.439 -208.814 2129.363 -4037.770 0.041 -0.190 0.296 -0 0.54 -0.84 0.01
1 2.75 275 -0.125 -8.849 3.874 -4.883 2.991 5.676 -208.814 2129.363 -4037.770 0.108 -0.049 0.233 -0 0.54 -0.84 0.01
1 2.76 276 -0.172 -8.993 3.740 -6.042 2.716 4.272 -118.873 2024.281 -4052.760 0.147 0.092 0.360 -0 0.54 -0.84 0.01
1 2.77 277 -0.148 -9.003 3.831 -8.698 3.174 2.289 -58.912 1979.311 -4097.730 0.116 0.097 0.259 -0 0.54 -0.84 0.01
1 2.78 278 0.086 -9.170 4.042 -10.956 4.211 1.129 -58.912 1979.311 -4097.730 -0.125 0.259 0.036 -0 0.54 -0.84 0.01
1 2.79 279 0.091 -9.261 3.927 -11.292 5.371 -0.305 1.049 2099.382 -3977.809 -0.133 0.343 0.137 -0 0.54 -0.84 0.01
1 2.80 280 0.125 -9.472 3.998 -7.629 5.005 -2.197 46.020 2129.363 -3962.818 -0.168 0.541 0.035 -0 0.54 -0.84 0.01
1 2.81 281 0.101 -9.338 3.793 -3.662 4.395 -2.930 -118.873 2099.382 -4052.760 -0.141 0.403 0.233 -0 0.54 -0.84 0
1 2.82 282 0.038 -9.290 3.850 -0.610 3.723 -4.242 -118.873 2099.382 -4052.760 -0.076 0.353 0.171 -0 0.54 -0.84 0
1 2.83 283 0.014 -9.223 3.960 0.031 5.829 -3.754 -118.873 2189.324 -3872.727 -0.047 0.285 0.060 -0 0.54 -0.84 0
1 2.84 284 -0.172 -9.132 3.855 -3.265 8.209 -2.594 -193.824 2294.405 -3902.857 0.142 0.194 0.164 -0 0.54 -0.84 0
1 2.85 285 -0.326 -9.285 3.922 -6.439 9.064 -2.411 -193.824 2294.405 -3902.857 0.295 0.345 0.093 -0 0.54 -0.84 0
1 2.86 286 -0.316 -9.457 3.927 -7.660 9.491 -2.167 31.030 2024.281 -3902.857 0.282 0.514 0.080 0 0.54 -0.84 0
1 2.87 287 -0.316 -9.477 3.879 -5.157 8.423 -1.801 -118.873 1994.301 -3947.828 0.274 0.524 0.106 0 0.54 -0.84 0
1 2.88 288 -0.311 -9.343 3.649 -2.228 7.843 -1.862 31.030 2069.402 -4052.760 0.265 0.386 0.329 0 0.55 -0.84 0
1 2.89 289 -0.283 -9.443 3.678 1.526 7.355 -2.319 31.030 2069.402 -4052.760 0.234 0.485 0.297 0 0.55 -0.84 0
1 2.90 290 -0.364 -9.338 3.658 2.869 7.385 -3.387 1.049 2024.281 -3947.828 0.313 0.380 0.317 0 0.55 -0.84 0
1 2.91 291 -0.575 -9.290 3.620 4.120 6.287 -4.517 16.040 2129.363 -4037.770 0.523 0.334 0.358 -0 -0.54 0.84 0
1 2.92 292 -0.757 -9.199 3.467 6.989 1.678 -6.683 16.040 2129.363 -4037.770 0.706 0.245 0.516 -0 -0.54 0.84 0
1 2.93 293 -0.963 -9.050 3.477 6.836 -2.502 -7.477 31.030 2144.353 -3752.805 0.916 0.099 0.512 -0 -0.54 0.84 0
1 2.94 294 -0.929 -8.979 3.548 6.714 -9.033 -7.263 -28.931 2129.363 -4067.750 0.896 0.033 0.454 -0 -0.54 0.84 0
1 2.95 295 -0.757 -8.993 3.577 6.073 -10.803 -7.477 -118.873 2069.402 -4007.789 0.732 0.050 0.432 -0 -0.54 0.84 0
1 2.96 296 -0.800 -8.734 3.563 6.836 -10.620 -7.660 -118.873 2069.402 -4007.789 0.787 -0.205 0.453 -0 -0.54 0.84 0
1 2.97 297 -0.541 -8.605 3.462 6.958 -7.996 -7.294 -73.902 1994.301 -4007.789 0.540 -0.331 0.561 -0 -0.54 0.84 0
1 2.98 298 -0.412 -8.461 3.587 4.761 -4.547 -5.554 -73.902 1994.301 -3977.809 0.421 -0.471 0.445 -0 -0.54 0.84 0
1 2.99 299 -0.436 -8.548 3.467 -5.585 -2.594 -3.052 -73.902 1994.301 -3977.809 0.451 -0.383 0.569 0 -0.54 0.84 0
1 3.00 300 -0.661 -8.682 3.524 -12.512 -5.890 -3.174 -133.863 2009.291 -3887.867 0.679 -0.251 0.506 0 -0.54 0.84 0
1 3.01 301 -0.555 -8.988 3.424 -17.456 -12.238 -3.693 -118.873 2099.382 -3977.809 0.578 0.048 0.591 0 -0.54 0.84 0
1 3.02 302 -0.541 -9.319 3.611 -15.747 -20.386 -4.639 -103.882 2159.343 -3992.799 0.584 0.356 0.353 0 -0.55 0.84 0
1 3.03 303 -0.235 -9.572 3.649 -9.674 -20.660 -4.211 -103.882 2159.343 -3992.799 0.293 0.600 0.293 -0 0.55 -0.84 0
1 3.04 304 0.034 -9.563 3.692 -1.465 -17.304 -3.326 -58.912 2009.291 -3992.799 0.040 0.585 0.238 -0.01 0.55 -0.84 0
1 3.05 305 0.043 -9.783 3.721 5.280 -12.207 -2.075 -118.873 2144.353 -4007.789 0.044 0.805 0.207 -0.01 0.55 -0.84 0
1 3.06 306 -0.029 -9.697 3.654 9.735 -7.629 -1.221 -118.873 2144.353 -4007.789 0.125 0.722 0.281 -0.01 0.55 -0.84 0
1 3.07 307 -0.239 -9.606 3.649 9.033 -8.759 -1.495 -103.882 2009.291 -4067.750 0.343 0.636 0.296 -0.01 0.55 -0.84 0
1 3.08 308 -0.747 -9.429 3.448 10.254 -18.707 -2.716 -148.853 1994.301 -3827.756 0.864 0.467 0.517 -0.01 0.55 -0.84 0
1 3.09 309 -0.838 -9.285 3.486 10.803 -22.217 -2.563 -148.853 1994.301 -3872.727 0.966 0.329 0.490 -0.01 0.54 -0.84 0
1 3.10 310 -0.417 -9.070 3.251 7.568 -29.236 -1.007 -148.853 1994.301 -3872.727 0.557 0.118 0.736 -0.01 0.54 -0.84 0
1 3.11 311 -0.115 -8.907 3.251 -1.160 -27.680 2.136 -28.931 2084.392 -3962.818 0.270 -0.043 0.739 -0.01 0.54 -0.84 0.01
1 3.12 312 0.101 -9.079 3.338 -14.893 -21.668 3.967 -238.794 2054.412 -4037.770 0.065 0.126 0.643 -0.01 0.54 -0.84 0.01
1 3.13 313 0.072 -9.467 3.304 -24.597 -14.313 5.096 -238.794 2054.412 -4037.770 0.100 0.501 0.649 -0.02 0.55 -0.84 0.01
1 3.14 314 -0.196 -9.955 3.505 -21.759 -9.766 5.676 -118.873 2069.402 -4052.760 0.368 0.973 0.409 -0.02 0.55 -0.84 0.01
1 3.15 315 -0.407 -10.061 3.611 -10.681 -11.536 4.150 -148.853 2189.324 -3947.828 0.576 1.062 0.267 -0.02 0.55 -0.84 0.01
1 3.16 316 -0.326 -10.181 4.056 3.510 -13.275 4.120 -268.925 2099.382 -3947.828 0.494 1.170 -0.205 -0.02 0.55 -0.83 0.01
1 3.17 317 -0.158 -10.219 4.338 8.759 -12.543 6.195 -268.925 2099.382 -3947.828 0.328 1.212 -0.480 -0.02 0.55 -0.83 0.01
1 3.18 318 0.072 -10.147 4.281 9.705 -12.360 11.841 -238.794 1934.340 -3917.848 0.096 1.146 -0.409 -0.02 0.55 -0.84 0.01
1 3.19 319 0.206 -10.094 4.267 9.796 -12.238 16.205 -313.896 1979.311 -3887.867 -0.048 1.100 -0.379 -0.02 0.55 -0.84 0.01
1 3.20 320 0.364 -9.797 4.243 9.277 -14.221 19.287 -313.896 1979.311 -3887.867 -0.221 0.809 -0.341 -0.02 0.55 -0.84 0.02
1 3.21 321 0.397 -9.271 3.998 7.111 -17.426 21.851 -268.925 2069.402 -3977.809 -0.271 0.288 -0.083 -0.02 0.55 -0.84 0.02
1 3.22 322 0.469 -9.070 3.912 5.676 -14.862 19.623 -238.794 2009.291 -4037.770 -0.359 0.091 0.014 -0.02 0.55 -0.84 0.02
1 3.23 323 0.239 -9.041 3.797 3.113 -10.712 14.526 -238.794 2009.291 -4037.770 -0.145 0.066 0.138 -0.02 0.55 -0.84 0.02
1 3.24 324 0.005 -9.036 3.888 -3.723 -6.256 9.460 -298.905 2069.402 -3902.857 0.069 0.064 0.054 -0.02 0.55 -0.84 0.02
1 3.25 325 -0.345 -9.204 3.936 -7.782 -6.683 7.202 -148.853 1874.379 -3902.857 0.411 0.229 -0.000 -0.02 0.55 -0.84 0.03
1 3.26 326 -0.546 -9.481 4.085 -8.575 -11.353 4.791 -163.843 2009.291 -3962.818 0.606 0.502 -0.159 -0.02 0.55 -0.84 0.03
1 3.27 327 -0.613 -9.673 4.147 -4.059 -18.951 3.967 -163.843 2009.291 -3962.818 0.671 0.689 -0.232 -0.02 0.55 -0.84 0.03
1 3.28 328 -0.244 -9.649 4.396 10.803 -26.733 5.310 -238.794 2009.291 -4037.770 0.305 0.665 -0.482 -0.02 0.55 -0.84 0.03
1 3.29 329 0.086 -9.501 4.559 21.515 -26.306 7.263 -238.794 2129.363 -3917.848 -0.021 0.521 -0.633 -0.02 0.55 -0.84 0.03
1 3.30 330 0.546 -9.314 4.784 29.907 -20.599 9.033 -238.794 2129.363 -3917.848 -0.475 0.347 -0.830 -0.02 0.55 -0.84 0.03
1 3.31 331 0.718 -8.658 4.942 37.628 -7.874 10.132 -268.925 2099.382 -3947.828 -0.645 -0.267 -0.894 -0.03 0.54 -0.84 0.03
1 3.32 332 0.718 -8.174 5.133 41.718 1.587 8.057 -298.905 2024.281 -3902.857 -0.649 -0.723 -1.026 -0.03 0.54 -0.84 0.03
1 3.33 333 0.584 -7.671 5.081 41.687 8.850 5.249 -298.905 2069.402 -3902.857 -0.522 -1.195 -0.907 -0.03 0.54 -0.84 0.03
1 3.34 334 0.057 -7.350 5.081 35.248 12.116 3.510 -298.905 2069.402 -3902.857 -0.003 -1.485 -0.842 -0.02 0.53 -0.85 0.03
1 3.35 335 -0.057 -7.317 4.956 19.592 9.308 5.341 -358.866 1784.288 -3962.818 0.101 -1.493 -0.663 -0.02 0.53 -0.85 0.03
1 3.36 336 0.321 -7.518 5.105 -16.266 -3.784 9.857 -223.804 1874.379 -4127.861 -0.290 -1.280 -0.787 -0.02 0.53 -0.85 0.03
1 3.37 337 0.991 -8.327 5.526 -39.154 -9.277 11.963 -223.804 1874.379 -4127.861 -0.970 -0.474 -1.216 -0.02 0.53 -0.85 0.03
1 3.38 338 2.260 -9.855 6.235 -49.683 -5.249 12.390 -283.915 1814.418 -4097.730 -2.246 1.010 -2.016 -0.02 0.53 -0.84 0.04
1 3.39 339 3.017 -10.367 6.321 -32.288 7.324 10.468 -388.847 1889.369 -3992.799 -3.017 1.492 -2.164 -0.02 0.54 -0.84 0.04
1 3.40 340 3.520 -10.420 5.674 1.007 23.712 5.707 -283.915 1934.340 -3887.867 -3.539 1.530 -1.550 -0.02 0.54 -0.84 0.04
1 3.41 341 3.237 -9.563 4.640 41.382 37.262 -0.732 -283.915 1934.340 -3887.867 -3.279 0.681 -0.499 -0.02 0.54 -0.84 0.04
1 3.42 342 2.662 -8.437 3.793 69.611 44.373 -9.460 -163.843 1889.369 -4067.750 -2.725 -0.412 0.417 -0.02 0.53 -0.84 0.03
1 3.43 343 1.580 -7.121 3.117 71.472 39.948 -24.139 -373.856 1994.301 -3977.809 -1.634 -1.682 1.190 -0.02 0.53 -0.85 0.03
1 3.44 344 0.991 -6.603 3.141 44.495 26.733 -33.142 -373.856 1994.301 -3977.809 -1.035 -2.150 1.265 -0.01 0.52 -0.85 0.03
1 3.45 345 0.565 -7.250 4.185 -18.829 2.136 -37.598 -238.794 1889.369 -4067.750 -0.547 -1.456 0.313 -0.01 0.52 -0.85 0.02
1 3.46 346 0.675 -7.690 4.473 -39.154 -4.395 -37.659 -283.915 1889.369 -4067.750 -0.605 -1.035 -0.011 -0.02 0.52 -0.85 0.02
1 3.47 347 1.097 -9.400 5.004 -70.923 -13.092 -35.248 -268.925 1724.327 -4082.740 -0.965 0.636 -0.621 -0.02 0.53 -0.85 0.02
1 3.48 348 1.451 -10.439 4.793 -54.321 -8.392 -33.997 -268.925 1724.327 -4082.740 -1.257 1.632 -0.499 -0.02 0.53 -0.85 0.02
1 3.49 349 1.575 -10.750 4.564 -11.139 0.061 -31.189 -208.814 1784.288 -4037.770 -1.332 1.916 -0.328 -0.02 0.53 -0.85 0.01
1 3.50 350 1.528 -9.845 4.501 45.929 13.550 -29.083 -283.915 1889.369 -3992.799 -1.243 1.013 -0.264 -0.02 0.53 -0.85 0.01
1 3.51 351 1.393 -8.921 4.741 53.986 17.212 -29.602 -283.915 1889.369 -3992.799 -1.076 0.117 -0.449 -0.02 0.53 -0.85 0.01
1 3.52 352 1.480 -8.169 4.836 24.384 13.336 -28.809 -403.837 1919.350 -3977.809 -1.092 -0.564 -0.407 -0.03 0.52 -0.85 0
1 3.53 353 1.475 -8.074 4.640 10.132 12.268 -27.252 -298.905 1919.350 -4052.760 -1.049 -0.643 -0.182 -0.03 0.52 -0.85 0
1 3.54 354 1.748 -8.471 4.449 -16.388 13.123 -25.116 -433.817 1784.288 -4142.851 -1.285 -0.246 0.005 0.03 -0.52 0.85 0
1 3.55 355 1.595 -8.768 4.324 -15.747 18.890 -24.353 -433.817 1784.288 -4142.851 -1.098 0.043 0.110 0.03 -0.52 0.85 0
1 3.56 356 1.528 -8.844 4.372 -5.768 27.496 -23.804 -208.814 1814.418 -3962.818 -1.003 0.113 0.046 0.03 -0.52 0.85 0.01
1 3.57 357 1.006 -8.849 4.415 6.317 33.539 -25.238 -268.925 1844.398 -3947.828 -0.461 0.118 0.003 0.03 -0.52 0.85 0.01
1 3.58 358 0.148 -8.634 4.338 12.878 33.478 -25.848 -268.925 1844.398 -3947.828 0.413 -0.089 0.094 0.03 -0.52 0.85 0.01
1 3.59 359 -0.081 -8.552 4.324 10.284 26.978 -23.926 -268.925 1799.278 -4007.789 0.654 -0.159 0.128 0.02 -0.52 0.85 0.02
1 3.60 360 0.029 -8.495 4.468 2.228 14.984 -17.883 -223.804 1769.297 -4007.789 0.563 -0.199 0.015 0.02 -0.52 0.85 0.02
1 3.61 361 0.623 -8.361 4.631 -0.580 9.491 -14.130 -118.873 1874.379 -4052.760 -0.022 -0.330 -0.142 0.02 -0.52 0.85 0.02
1 3.62 362 1.173 -8.495 4.635 1.801 7.660 -10.254 -118.873 1874.379 -4052.760 -0.562 -0.193 -0.143 0.02 -0.52 0.85 0.02
1 3.63 363 1.786 -8.308 4.554 7.263 10.407 -8.545 -238.794 1739.317 -3992.799 -1.164 -0.375 -0.054 0.02 -0.52 0.85 0.02
1 3.64 364 2.279 -8.212 4.444 10.407 15.717 -8.240 -403.837 1769.297 -3977.809 -1.645 -0.463 0.071 0.02 -0.52 0.85 0.03
1 3.65 365 2.706 -7.801 4.257 5.951 25.543 -10.529 -403.837 1769.297 -3977.809 -2.060 -0.864 0.275 0.02 -0.52 0.85 0.03
1 3.66 366 2.639 -7.767 4.013 -3.235 31.372 -13.519 -268.925 1679.356 -3977.809 -1.981 -0.890 0.533 0.02 -0.52 0.86 0.03
1 3.67 367 2.433 -7.868 3.936 -13.397 33.936 -16.480 -268.925 1679.356 -3977.809 -1.763 -0.787 0.613 0.02 -0.52 0.86 0.03
1 3.68 368 1.868 -8.442 3.673 -24.567 30.609 -20.203 -208.814 1814.418 -4037.770 -1.170 -0.228 0.842 0.02 -0.52 0.85 0.04
1 3.69 369 1.350 -8.921 3.773 -25.574 23.224 -22.492 -208.814 1814.418 -4037.770 -0.634 0.235 0.707 0.02 -0.52 0.85 0.04
1 3.70 370 1.149 -9.170 3.864 -18.158 12.817 -23.712 -193.824 1919.350 -4082.740 -0.410 0.469 0.583 0.02 -0.52 0.85 0.04
1 3.71 371 1.374 -9.165 3.874 -7.385 5.707 -23.102 -133.863 1664.366 -4067.750 -0.607 0.454 0.550 0.02 -0.52 0.85 0.04
1 3.72 372 1.872 -8.974 4.142 3.784 4.486 -18.951 -134.312 1665.715 -4064.902 -1.074 0.261 0.272 0.02 -0.52 0.85 0.05
1 3.73 373 2.318 -8.768 4.147 4.272 9.735 -15.381 -44.371 1845.748 -4049.912 -1.489 0.059 0.269 0.02 -0.52 0.85 0.05
1 3.74 374 2.322 -8.562 4.238 0.671 15.595 -11.078 -44.371 1845.748 -4049.912 -1.468 -0.142 0.184 0.02 -0.52 0.85 0.05
1 3.75 375 2.270 -8.490 4.176 -4.883 21.790 -5.920 -194.423 1875.728 -3974.960 -1.388 -0.210 0.249 0.02 -0.52 0.85 0.05
1 3.76 376 2.164 -8.370 4.046 -5.646 22.675 -3.815 -194.423 1875.728 -3974.960 -1.279 -0.331 0.374 0.02 -0.52 0.85 0.05
1 3.77 377 1.978 -8.251 4.051 -4.517 22.797 -2.594 -134.312 1890.718 -3885.019 -1.092 -0.453 0.365 0.02 -0.52 0.85 0.06
1 3.78 378 1.738 -8.246 3.845 -5.188 23.743 -0.427 -149.303 1680.705 -4004.941 -0.855 -0.460 0.567 0.02 -0.52 0.85 0.06
1 3.79 379 1.753 -8.217 3.630 -8.606 26.032 1.678 -149.303 1680.705 -4004.941 -0.879 -0.492 0.778 0.02 -0.52 0.85 0.06
1 3.80 380 1.647 -8.332 3.596 -18.158 30.090 5.768 -44.371 1875.728 -3974.960 -0.787 -0.384 0.800 0.01 -0.52 0.85 0.06
1 3.81 381 1.566 -8.586 3.587 -25.635 30.823 6.592 -44.371 1875.728 -3974.960 -0.725 -0.142 0.790 0.01 -0.53 0.85 0.06
1 3.82 382 1.743 -9.070 3.692 -29.968 28.259 9.491 15.440 1860.738 -4095.032 -0.949 0.303 0.615 0.01 -0.53 0.85 0.06
1 3.83 383 1.834 -9.271 4.094 -27.344 22.919 10.925 15.440 1860.738 -4095.032 -1.063 0.482 0.173 0.01 -0.53 0.84 0.06
1 3.84 384 1.848 -9.055 4.923 -22.736 16.663 8.118 -44.371 1995.800 -4049.912 -1.097 0.248 -0.690 0 -0.53 0.84 0.06
1 3.85 385 1.671 -9.189 5.402 -18.372 10.864 1.770 -104.332 2010.790 -3839.898 -0.930 0.370 -1.193 0 -0.53 0.84 0.06
1 3.86 386 0.804 -9.175 5.224 -14.221 3.723 -6.592 -104.332 2010.790 -3839.898 -0.064 0.347 -1.034 0 -0.53 0.84 0.06
1 3.87 387 -0.436 -9.706 4.722 -7.233 -11.841 -16.602 15.440 1980.810 -3839.898 1.189 0.875 -0.542 0 -0.54 0.84 0.07
1 3.88 388 -1.063 -9.726 4.482 1.923 -21.576 -18.005 15.440 1980.810 -3839.898 1.841 0.892 -0.311 0 -0.54 0.84 0.07
1 3.89 389 -0.924 -9.299 4.343 10.925 -23.132 -15.839 30.430 2025.780 -3974.960 1.739 0.468 -0.174 0.01 -0.54 0.84 0.07
1 3.90 390 -0.101 -8.461 4.659 7.538 -11.688 -4.425 -44.371 1950.829 -3974.960 0.954 -0.354 -0.464 0.01 -0.53 0.84 0.07
1 3.91 391 0.369 -8.208 4.693 -5.188 1.251 3.754 -59.361 1935.689 -3809.918 0.484 -0.603 -0.488 0.01 -0.53 0.84 0.07
1 3.92 392 0.555 -8.390 4.683 -25.299 10.864 6.104 -104.332 1860.738 -3915.000 0.286 -0.426 -0.485 0.01 -0.53 0.84 0.07
1 3.93 393 0.589 -8.677 4.707 -38.208 14.862 6.958 -104.332 1860.738 -3915.000 0.235 -0.155 -0.541 0.01 -0.54 0.84 0.07
1 3.94 394 0.431 -9.242 4.453 -30.243 14.404 5.402 -134.312 1890.718 -3839.898 0.373 0.387 -0.332 0.01 -0.54 0.84 0.07
1 3.95 395 0.445 -9.137 4.267 -12.238 8.728 3.754 -134.312 1890.718 -3839.898 0.340 0.262 -0.184 0.01 -0.54 0.84 0.07
1 3.96 396 0.201 -9.074 4.271 2.808 -3.906 -0.763 -74.352 1920.699 -3870.029 0.565 0.189 -0.209 0 -0.54 0.84 0.07
1 3.97 397 0.297 -8.974 4.386 2.411 -7.080 -2.502 -74.352 1920.699 -3870.029 0.472 0.091 -0.318 0 -0.54 0.84 0.07
1 3.98 398 0.335 -8.974 4.645 -10.407 -15.839 -5.890 -59.361 1980.810 -3915.000 0.444 0.091 -0.579 0.01 -0.54 0.84 0.07
1 3.99 399 0.402 -9.333 4.908 -18.219 -18.402 -7.172 -59.361 1890.718 -3839.898 0.393 0.445 -0.857 0.01 -0.54 0.84 0.06
1 4.00 400 0.570 -9.735 5.258 -18.768 -20.081 -4.883 -59.361 1890.718 -3839.898 0.243 0.839 -1.228 0.01 -0.54 0.84 0.06
1 4.01 401 0.862 -9.884 5.382 -10.529 -15.869 -0.702 45.570 1890.718 -3809.918 -0.033 0.979 -1.375 0.01 -0.54 0.84 0.06
1 4.02 402 1.188 -9.702 5.435 5.676 -2.075 8.331 45.570 1890.718 -3809.918 -0.350 0.793 -1.439 0.01 -0.54 0.84 0.06
1 4.03 403 1.025 -9.414 5.320 10.895 7.202 13.550 -209.414 1980.810 -3885.019 -0.193 0.507 -1.318 0.01 -0.54 0.84 0.06
1 4.04 404 0.546 -9.108 4.913 2.563 14.404 19.196 -74.352 1995.800 -3870.029 0.238 0.212 -0.878 0.01 -0.54 0.84 0.06
1 4.05 405 0.057 -8.940 4.899 -6.470 11.047 19.684 74.951 2071.650 -3867.630 0.690 0.045 -0.855 0.01 -0.54 0.84 0.06
1 4.06 406 -0.340 -8.969 4.975 -12.360 4.517 17.059 -149.902 1996.699 -3717.578 1.052 0.069 -0.935 0 -0.54 0.84 0.06
1 4.07 407 -0.608 -9.228 5.028 -12.024 -2.411 15.411 -149.902 1996.699 -3717.578 1.290 0.321 -0.997 0 -0.54 0.84 0.06
1 4.08 408 -0.675 -9.070 4.951 -2.441 -10.742 15.411 -59.811 2056.660 -3882.621 1.329 0.157 -0.929 0 -0.54 0.84 0.06
1 4.09 409 -0.479 -9.031 4.817 4.791 -11.169 16.144 -59.811 2056.660 -3882.621 1.109 0.117 -0.795 0 -0.54 0.84 0.06
1 4.10 410 -0.158 -8.916 4.784 8.575 -7.538 16.388 -194.873 1876.627 -4047.513 0.765 0.005 -0.752 0 -0.54 0.84 0.05
1 4.11 411 -0.235 -8.619 4.774 7.843 1.190 15.656 -74.801 1996.699 -3792.529 0.794 -0.279 -0.707 0 -0.54 0.84 0.05
1 4.12 412 -0.575 -8.471 4.745 4.761 4.181 13.275 -29.831 1981.709 -3837.500 1.107 -0.422 -0.662 0 -0.54 0.84 0.05
1 4.13 413 -1.025 -8.461 4.607 1.617 0.763 12.543 -119.772 1996.699 -3972.562 1.530 -0.427 -0.511 -0 -0.54 0.84 0.05
1 4.14 414 -1.427 -8.528 4.496 -1.495 -6.042 13.153 -119.772 1996.699 -3972.562 1.905 -0.358 -0.393 -0 -0.54 0.84 0.05
1 4.15 415 -1.307 -8.576 4.315 -4.303 -13.245 14.343 -59.811 2161.742 -3807.520 1.759 -0.311 -0.209 -0 -0.54 0.84 0.05
1 4.16 416 -0.977 -8.595 4.367 -7.507 -17.487 17.426 -59.811 2161.742 -3807.520 1.406 -0.294 -0.265 -0 -0.54 0.84 0.04
1 4.17 417 -0.421 -8.749 4.482 -7.599 -13.733 19.379 -104.782 2056.660 -3882.621 0.827 -0.145 -0.386 -0 -0.54 0.84 0.04
1 4.18 418 -0.426 -8.754 4.544 -6.592 -7.751 20.874 -74.801 1951.729 -3867.630 0.807 -0.145 -0.456 -0 -0.54 0.84 0.04
1 4.19 419 -0.522 -8.921 4.463 -8.423 -0.763 22.034 -59.811 1981.709 -3912.601 0.843 0.015 -0.386 -0 -0.54 0.84 0.04
1 4.20 420 -0.690 -9.026 4.616 -10.284 -0.275 23.102 -74.801 1996.699 -3822.510 0.975 0.115 -0.548 -0 -0.54 0.84 0.03
1 4.21 421 -0.833 -9.156 4.611 -7.874 -2.045 21.271 -74.801 1996.699 -3822.510 1.081 0.239 -0.552 -0.01 -0.54 0.84 0.03
1 4.22 422 -0.824 -9.103 4.453 -3.021 -4.425 19.196 -44.821 1921.748 -3897.611 1.038 0.184 -0.399 -0.01 -0.54 0.84 0.03
1 4.23 423 -0.699 -8.974 4.530 4.669 -3.754 18.066 -44.821 1921.748 -3897.611 0.884 0.055 -0.473 -0.01 -0.54 0.84 0.03
1 4.24 424 -0.378 -8.572 4.535 14.099 -0.580 19.562 -44.821 1996.699 -3897.611 0.534 -0.342 -0.465 -0.01 -0.54 0.84 0.03
1 4.25 425 -0.306 -8.251 4.444 14.252 4.364 18.860 0.000 1921.748 -3867.630 0.433 -0.653 -0.351 -0.01 -0.54 0.84 0.03
1 4.26 426 -0.503 -7.978 4.027 2.625 9.155 16.937 14.990 2236.693 -3912.601 0.568 -0.907 0.108 -0.01 -0.54 0.84 0.02
1 4.27 427 -0.838 -8.097 3.960 -5.859 6.958 16.113 -74.801 1996.699 -3897.611 0.871 -0.785 0.180 -0.01 -0.54 0.84 0.02
1 4.28 428 -1.053 -8.423 3.845 -11.383 2.289 15.930 -74.801 1996.699 -3897.611 1.056 -0.463 0.287 -0.01 -0.54 0.84 0.02
1 4.29 429 -1.173 -8.667 3.730 -12.238 -5.157 15.869 14.990 1936.738 -3807.520 1.147 -0.226 0.387 -0.01 -0.54 0.84 0.02
1 4.30 430 -1.212 -8.912 3.740 -8.789 -13.184 15.350 14.990 1936.738 -3807.520 1.161 0.011 0.362 -0.02 -0.54 0.84 0.02
1 4.31 431 -0.881 -8.868 3.893 -3.967 -18.250 16.266 -59.811 2011.689 -3627.637 0.811 -0.037 0.197 -0.02 -0.54 0.84 0.02
1 4.32 432 -0.508 -8.935 3.989 -2.533 -17.731 16.815 89.941 2086.641 -3882.621 0.421 0.027 0.094 -0.01 -0.54 0.84 0.02
1 4.33 433 -0.359 -8.816 4.003 -2.045 -15.839 16.174 89.941 2086.641 -3882.621 0.256 -0.094 0.076 -0.01 -0.54 0.84 0.01
1 4.34 434 -0.235 -8.643 3.864 1.434 -12.756 13.641 -59.811 1981.709 -3837.500 0.105 -0.267 0.213 -0.01 -0.54 0.84 0.01
1 4.35 435 -0.158 -8.543 3.663 4.547 -11.353 11.841 -59.811 1981.709 -3837.500 0.018 -0.365 0.419 -0.01 -0.54 0.84 0.01
1 4.36 436 -0.230 -8.423 3.735 6.134 -9.674 9.460 -59.811 1936.738 -3657.617 0.081 -0.482 0.354 -0.01 -0.54 0.84 0.01
1 4.37 437 -0.268 -8.409 3.457 4.883 -7.599 6.470 -59.811 1936.738 -3657.617 0.114 -0.492 0.640 -0.01 -0.54 0.84 0.01
1 4.38 438 -0.891 -8.337 3.496 -3.540 -9.674 4.395 -59.811 1891.618 -3807.520 0.732 -0.562 0.607 -0.01 -0.54 0.84 0
1 4.39 439 -1.015 -8.447 3.328 -10.040 -14.679 3.448 -74.801 1996.699 -3747.559 0.853 -0.453 0.772 -0.01 -0.54 0.84 0
1 4.40 440 -1.264 -8.710 3.467 -16.296 -23.224 3.815 0.000 1951.729 -3822.510 1.101 -0.205 0.599 -0.01 -0.54 0.84 0
1 4.41 441 -1.197 -8.524 3.323 -16.052 -25.787 3.082 -104.782 1861.637 -3912.601 1.038 -0.402 0.720 -0.01 -0.54 0.84 0
1 4.42 442 -1.293 -8.849 3.314 -13.641 -29.389 3.326 -104.782 1861.637 -3912.601 1.139 -0.087 0.707 0.01 0.54 -0.84 0
1 4.43 443 -1.135 -8.916 3.491 -13.886 -27.649 4.791 -44.821 1876.627 -3792.529 0.987 -0.029 0.510 0.01 0.54 -0.84 0
1 4.44 444 -1.006 -8.912 3.390 -14.496 -23.926 5.280 -44.821 1876.627 -3792.529 0.860 -0.043 0.589 0.01 0.54 -0.84 0.01
1 4.45 445 -0.910 -9.242 3.227 -14.557 -20.966 4.822 74.951 2026.680 -3747.559 0.766 0.278 0.730 0 0.55 -0.84 0.01
1 4.46 446 -0.498 -9.659 3.223 -12.634 -17.090 6.012 -149.902 1876.627 -3747.559 0.355 0.685 0.713 0 0.55 -0.84 0.01
1 4.47 447 -0.259 -9.826 3.510 -11.261 -16.388 6.928 -149.902 1876.627 -3747.559 0.115 0.842 0.402 0 0.55 -0.84 0.01
1 4.48 448 0.311 -9.726 3.496 -5.157 -17.365 6.897 -149.902 2146.751 -3867.630 -0.454 0.726 0.382 0 0.55 -0.84 0.01
1 4.49 449 0.589 -9.659 3.453 -0.824 -17.639 6.195 -149.902 2146.751 -3867.630 -0.727 0.656 0.417 0 0.55 -0.84 0.01
1 4.50 450 0.570 -9.515 3.386 2.594 -15.991 5.219 -119.772 1996.699 -3747.559 -0.699 0.511 0.481 -0 0.55 -0.83 0.01
1 4.51 451 0.493 -9.381 3.333 2.533 -13.275 2.716 -119.772 1996.699 -3747.559 -0.613 0.377 0.535 -0 0.55 -0.83 0.01
1 4.52 452 0.402 -9.132 3.208 0.488 -12.085 2.319 -314.795 2011.689 -3732.568 -0.513 0.128 0.659 -0 0.55 -0.83 0.02
1 4.53 453 0.067 -9.070 3.295 -4.608 -13.123 1.648 -239.844 2056.660 -3702.588 -0.168 0.064 0.569 -0 0.55 -0.83 0.02
1 4.54 454 -0.029 -9.103 3.151 -9.094 -13.825 2.258 -239.844 2056.660 -3702.588 -0.064 0.094 0.705 -0.01 0.55 -0.83 0.02
1 4.55 455 -0.225 -9.343 3.266 -11.963 -14.557 1.434 -314.795 1981.709 -3837.500 0.140 0.327 0.576 -0.01 0.55 -0.83 0.02
1 4.56 456 -0.623 -9.620 3.304 -12.085 -17.212 -0.488 -59.811 2131.761 -3777.539 0.552 0.588 0.497 -0.01 0.55 -0.83 0.02
1 4.57 457 -0.733 -9.716 3.505 -7.843 -20.752 -2.716 -149.902 2146.751 -3717.578 0.671 0.675 0.277 -0.01 0.55 -0.83 0.02
1 4.58 458 -0.776 -9.740 3.678 -0.824 -25.055 -3.784 -149.902 2146.751 -3717.578 0.727 0.695 0.093 -0.01 0.55 -0.83 0.02
1 4.59 459 -0.795 -9.687 3.816 6.042 -29.389 -5.829 -209.863 2086.641 -3807.520 0.762 0.642 -0.045 -0.01 0.55 -0.83 0.02
1 4.60 460 -0.680 -9.338 3.745 12.909 -30.518 -6.805 -239.844 2011.689 -3732.568 0.668 0.296 0.036 -0.01 0.55 -0.83 0.02
1 4.61 461 -0.565 -9.050 3.793 13.733 -28.931 -5.371 -239.844 2011.689 -3732.568 0.575 0.016 0.006 -0.02 0.55 -0.83 0.02
1 4.62 462 -0.417 -8.667 3.721 8.423 -23.102 -3.479 -284.814 2206.712 -3777.539 0.447 -0.358 0.098 -0.02 0.55 -0.83 0.02
1 4.63 463 -0.656 -8.557 3.357 -11.017 -10.681 0.000 -239.844 2056.660 -3777.539 0.713 -0.461 0.478 -0.02 0.55 -0.83 0.03
1 4.64 464 -0.785 -8.825 3.223 -24.963 -4.059 2.289 -464.847 2086.641 -3702.588 0.843 -0.201 0.592 -0.02 0.55 -0.83 0.03
1 4.65 465 -0.963 -9.362 3.175 -36.713 -4.883 6.622 -464.847 2086.791 -3702.288 1.012 0.318 0.600 -0.02 0.55 -0.83 0.03
1 4.66 466 -1.001 -9.836 3.462 -42.328 -8.545 9.613 -239.844 2086.791 -3807.220 1.036 0.769 0.256 -0.02 0.56 -0.83 0.03
1 4.67 467 -0.838 -10.463 3.702 -38.727 -11.749 9.735 -389.896 2056.810 -3732.269 0.858 1.371 -0.044 -0.02 0.56 -0.83 0.03
1 4.68 468 -0.393 -11.296 3.907 -20.599 -14.069 7.507 -389.896 2056.810 -3732.269 0.408 2.185 -0.299 -0.02 0.56 -0.83 0.03
1 4.69 469 -0.177 -11.253 4.152 -6.195 -13.275 7.935 -314.795 2011.839 -3777.239 0.190 2.129 -0.576 -0.02 0.56 -0.83 0.03
1 4.70 470 0.182 -11.052 4.425 6.744 -13.672 11.200 -299.805 2221.853 -3747.259 -0.177 1.925 -0.857 -0.02 0.56 -0.83 0.03
1 4.71 471 0.235 -10.822 4.410 9.705 -13.825 11.749 -479.837 2221.853 -3537.246 -0.237 1.700 -0.830 -0.02 0.56 -0.83 0.04
1 4.72 472 0.455 -10.324 4.195 10.284 -14.069 11.108 -479.837 2221.853 -3537.246 -0.465 1.208 -0.599 -0.02 0.56 -0.83 0.04
1 4.73 473 0.283 -9.989 4.180 11.963 -13.367 8.789 -239.844 1981.859 -3732.269 -0.299 0.879 -0.568 -0.03 0.56 -0.83 0.04
1 4.74 474 0.201 -10.018 3.975 11.169 -10.559 5.127 -329.785 2026.830 -3642.327 -0.221 0.915 -0.345 -0.03 0.56 -0.83 0.04
1 4.75 475 -0.445 -9.874 3.960 5.402 -3.540 -2.289 -329.785 2026.830 -3642.327 0.428 0.777 -0.315 -0.03 0.56 -0.83 0.04
1 4.76 476 -1.154 -9.841 3.912 6.012 -1.221 -9.338 -464.847 2086.791 -3627.337 1.140 0.748 -0.257 -0.03 0.56 -0.83 0.04
1 4.77 477 -2.102 -9.673 3.721 10.803 -10.712 -14.313 -389.896 2056.810 -3732.269 2.107 0.589 -0.043 -0.03 0.56 -0.83 0.04
1 4.78 478 -2.107 -9.558 3.615 12.207 -16.815 -13.763 -389.896 1981.859 -3702.288 2.125 0.481 0.079 -0.03 0.56 -0.83 0.04
1 4.79 479 -1.959 -9.501 3.529 9.125 -35.248 -8.759 -389.896 1981.859 -3702.288 1.993 0.429 0.179 -0.03 0.56 -0.83 0.04
1 4.80 480 -1.159 -9.414 3.567 6.317 -42.023 -5.127 -359.766 2086.791 -3777.239 1.210 0.347 0.151 -0.03 0.56 -0.83 0.04
1 4.81 481 -0.508 -9.414 3.682 6.165 -42.267 -1.221 -479.837 1996.849 -3687.298 0.578 0.350 0.043 -0.03 0.56 -0.83 0.04
1 4.82 482 0.833 -9.395 4.611 12.878 -29.114 1.038 -479.837 1996.849 -3687.298 -0.744 0.335 -0.877 -0.04 0.56 -0.83 0.05
1 4.83 483 1.484 -9.271 5.306 20.477 -15.198 0.000 -374.906 2221.853 -3717.278 -1.376 0.218 -1.553 -0.04 0.55 -0.83 0.05
1 4.84 484 1.868 -8.988 6.029 31.311 -0.183 -4.578 -539.798 2206.862 -3627.337 -1.729 -0.033 -2.202 -0.04 0.55 -0.83 0.05
1 4.85 485 1.858 -8.710 6.058 33.447 1.770 -5.371 -554.789 1951.878 -3687.298 -1.712 -0.290 -2.184 -0.04 0.55 -0.83 0.05
1 4.86 486 1.839 -8.117 5.564 37.628 -2.930 -9.277 -554.789 1951.878 -3687.298 -1.670 -0.856 -1.626 -0.04 0.55 -0.84 0.05
1 4.87 487 1.628 -7.595 4.980 41.412 -10.651 -12.329 -614.899 2056.810 -3732.269 -1.429 -1.348 -0.976 -0.04 0.54 -0.84 0.05
1 4.88 488 1.494 -7.140 4.616 44.037 -17.456 -15.442 -614.899 1891.768 -3807.220 -1.258 -1.770 -0.543 -0.04 0.54 -0.84 0.05
1 4.89 489 1.628 -6.982 4.209 37.689 -22.064 -13.001 -614.899 1891.768 -3807.220 -1.354 -1.898 -0.072 -0.05 0.54 -0.84 0.05
1 4.90 490 2.294 -7.106 4.267 6.348 -17.792 0.183 -569.779 1936.888 -3777.239 -1.990 -1.750 -0.083 -0.05 0.53 -0.84 0.05
1 4.91 491 3.208 -7.590 4.664 -22.369 -6.134 10.956 -569.779 1861.787 -3807.220 -2.888 -1.258 -0.462 -0.05 0.53 -0.84 0.05
1 4.92 492 3.879 -8.643 5.081 -47.791 17.059 12.177 -539.798 1861.787 -3882.321 -3.551 -0.233 -0.941 -0.05 0.53 -0.84 0.05
1 4.93 493 3.548 -9.328 5.023 -39.185 27.557 2.014 -539.798 1861.787 -3882.321 -3.219 0.425 -0.940 -0.05 0.54 -0.84 0.05
1 4.94 494 2.720 -9.874 4.616 -7.721 28.900 -11.292 -509.818 1891.768 -3807.220 -2.405 0.952 -0.574 -0.05 0.54 -0.84 0.05
1 4.95 495 1.499 -9.668 3.994 31.952 23.834 -24.353 -539.798 1861.787 -3882.321 -1.180 0.749 0.055 -0.05 0.54 -0.84 0.04
1 4.96 496 0.661 -9.271 3.816 59.754 17.426 -34.760 -539.798 1861.787 -3882.321 -0.314 0.378 0.288 -0.05 0.54 -0.84 0.04
1 4.97 497 -0.014 -8.030 3.912 65.552 6.958 -38.086 -479.837 1921.898 -3747.259 0.404 -0.820 0.277 -0.05 0.53 -0.84 0.04
1 4.98 498 -0.005 -7.489 4.128 47.058 -1.892 -32.349 -524.808 1801.826 -3747.259 0.439 -1.316 0.153 -0.05 0.53 -0.85 0.04
1 4.99 499 1.015 -7.202 4.506 -1.678 -15.686 -18.127 -509.818 1861.787 -3912.301 -0.495 -1.547 -0.121 -0.05 0.52 -0.85 0.03
1 5.00 500 2.030 -7.825 4.789 -32.288 -20.874 -9.918 -509.818 1861.787 -3912.301 -1.477 -0.929 -0.417 -0.05 0.52 -0.85 0.03
1 5.01 501 2.739 -8.557 5.081 -44.739 -18.372 -6.287 -524.808 1846.797 -3942.282 -2.150 -0.216 -0.754 -0.06 0.53 -0.85 0.03
1 5.02 502 3.438 -9.338 5.291 -34.485 -7.385 -5.951 -599.909 1681.904 -3867.331 -2.814 0.540 -1.019 -0.06 0.53 -0.85 0.03
1 5.03 503 3.472 -9.620 5.143 -3.815 6.042 -6.897 -599.909 1681.904 -3867.181 -2.836 0.806 -0.906 -0.06 0.53 -0.85 0.03
1 5.04 504 2.763 -8.983 4.980 36.896 17.029 -11.536 -629.890 1921.898 -3867.181 -2.122 0.174 -0.734 -0.06 0.53 -0.85 0.03
1 5.05 505 2.078 -8.423 4.803 41.748 15.991 -14.771 -629.890 1996.849 -3717.278 -1.433 -0.363 -0.511 -0.06 0.53 -0.85 0.03
1 5.06 506 1.384 -8.117 4.631 30.426 12.695 -15.625 -629.890 1996.849 -3717.278 -0.716 -0.638 -0.277 -0.06 0.52 -0.85 0.03
1 5.07 507 0.881 -8.150 4.401 1.953 7.233 -14.282 -539.798 1786.836 -3807.220 -0.171 -0.562 0.031 -0.06 0.52 -0.85 0.02
1 5.08 508 0.891 -8.557 4.405 -10.468 6.989 -11.108 -464.847 1816.816 -3702.288 -0.165 -0.152 0.028 -0.06 0.52 -0.85 0.02
1 5.09 509 1.020 -9.036 4.334 -12.512 8.148 -8.057 -464.847 1861.937 -3777.239 -0.284 0.321 0.087 -0.06 0.52 -0.85 0.02
1 5.10 510 1.470 -9.314 4.315 -5.890 11.810 -4.944 -464.847 1861.937 -3777.239 -0.728 0.592 0.093 -0.06 0.52 -0.85 0.02
1 5.11 511 1.925 -9.271 4.362 6.928 17.395 -2.167 -674.860 1801.826 -3747.259 -1.180 0.548 0.042 -0.06 0.52 -0.85 0.02
1 5.12 512 2.485 -8.888 3.960 25.147 31.220 -0.183 -569.779 1861.937 -3807.220 -1.743 0.172 0.459 -0.06 0.52 -0.85 0.02
1 5.13 513 2.653 -8.442 3.951 29.572 41.046 1.160 -569.779 1861.937 -3807.220 -1.918 -0.258 0.500 -0.05 0.52 -0.85 0.02
1 5.14 514 2.591 -7.906 3.654 21.545 48.065 -0.641 -599.909 1846.947 -3867.181 -1.886 -0.756 0.876 -0.05 0.52 -0.85 0.01
1 5.15 515 2.696 -7.518 3.433 9.430 47.363 -1.892 -569.779 1711.885 -3957.272 -2.008 -1.130 1.124 -0.05 0.51 -0.86 0.01
1 5.16 516 2.619 -7.374 3.280 -1.709 43.945 -3.540 -569.779 1711.885 -3882.171 -1.953 -1.269 1.291 -0.05 0.51 -0.86 0.01
1 5.17 517 2.854 -7.394 3.467 -9.338 39.673 -6.134 -569.779 1711.885 -3882.171 -2.211 -1.251 1.104 -0.04 0.51 -0.86 0.01
1 5.18 518 2.639 -7.307 3.625 -12.085 37.659 -7.324 -449.857 1726.875 -3897.161 -2.014 -1.343 0.937 -0.04 0.52 -0.86 0.01
1 5.19 519 2.413 -7.556 3.716 -11.902 35.248 -8.087 -314.795 1666.914 -3777.239 -1.805 -1.102 0.835 -0.04 0.52 -0.86 0
1 5.20 520 2.121 -7.729 3.505 -10.315 30.518 -9.064 -314.795 1666.914 -3777.239 -1.527 -0.936 1.034 -0.04 0.52 -0.86 0
1 5.21 521 1.393 -8.064 3.649 -11.658 18.616 -11.231 -314.795 1591.813 -3807.220 -0.808 -0.612 0.870 0.03 -0.52 0.85 0
1 5.22 522 1.389 -8.165 3.639 -14.557 13.428 -11.993 -374.906 1681.904 -3822.210 -0.790 -0.520 0.861 0.03 -0.52 0.85 0
1 5.23 523 0.943 -8.615 3.840 -19.135 -0.519 -12.390 -329.785 1726.875 -3897.161 -0.327 -0.082 0.636 0.03 -0.52 0.85 0
1 5.24 524 0.996 -8.701 4.142 -18.036 -6.409 -10.193 -329.785 1726.875 -3897.161 -0.359 -0.008 0.306 0.03 -0.52 0.85 0.01
1 5.25 525 1.130 -8.825 3.979 -15.045 -4.883 -7.080 -374.906 1846.947 -3942.282 -0.472 0.105 0.444 0.04 -0.52 0.85 0.01
1 5.26 526 1.283 -8.782 3.812 -13.428 11.871 -3.418 -389.896 1861.937 -3912.301 -0.611 0.053 0.591 0.04 -0.52 0.85 0.01
1 5.27 527 1.302 -8.763 3.587 -13.062 25.177 0.977 -389.896 1861.937 -3912.301 -0.625 0.025 0.797 0.04 -0.52 0.85 0.01
1 5.28 528 0.685 -8.562 3.333 -16.785 37.140 7.660 -374.906 1801.826 -3897.161 -0.039 -0.198 1.013 0.03 -0.53 0.85 0.01
1 5.29 529 0.546 -8.586 3.275 -21.362 36.926 9.003 -449.857 1771.846 -3717.278 0.066 -0.190 1.044 0.03 -0.53 0.85 0.01
1 5.30 530 0.168 -8.706 3.065 -38.483 26.337 12.207 -239.844 1666.914 -3837.200 0.408 -0.092 1.215 0.03 -0.53 0.85 0.01
1 5.31 531 0.172 -9.261 3.414 -50.903 16.174 10.590 -239.844 1666.914 -3837.200 0.371 0.433 0.806 0.03 -0.53 0.85 0.01
1 5.32 532 0.354 -9.850 4.003 -54.505 9.735 9.216 -299.805 1771.846 -3867.181 0.165 0.985 0.142 0.02 -0.54 0.84 0.01
1 5.33 533 0.220 -10.367 4.750 -49.927 6.622 8.514 -359.766 1816.816 -3807.220 0.280 1.467 -0.680 0.02 -0.54 0.84 0.01
1 5.34 534 0.196 -10.870 5.569 -31.983 0.702 1.129 -359.766 1816.816 -3807.220 0.292 1.940 -1.562 0.02 -0.54 0.84 0.01
1 5.35 535 0.148 -10.947 5.387 -11.322 -1.984 -3.052 -209.863 1861.937 -3882.171 0.336 1.995 -1.429 0.02 -0.55 0.84 0.01
1 5.36 536 0.713 -9.845 4.650 17.334 2.167 -4.364 -209.863 1936.888 -3552.236 -0.218 0.888 -0.705 0.02 -0.55 0.84 0.01
1 5.37 537 1.130 -8.998 4.324 23.041 8.820 -4.334 -434.867 1891.917 -3777.239 -0.630 0.053 -0.351 0.02 -0.54 0.84 0.01
1 5.38 538 1.360 -8.471 4.142 11.383 16.296 -4.547 -434.867 1891.917 -3777.239 -0.856 -0.458 -0.136 0.02 -0.54 0.84 0.01
1 5.39 539 1.322 -8.275 3.970 -9.705 20.630 -2.777 -269.824 1876.927 -3747.259 -0.815 -0.649 0.050 0.02 -0.54 0.84 0.01
1 5.40 540 0.982 -8.203 3.970 -29.358 16.876 -1.312 -404.886 1996.849 -3687.298 -0.477 -0.727 0.035 0.02 -0.54 0.84 0.01
1 5.41 541 0.632 -8.912 4.271 -50.629 -1.495 -4.822 -404.886 1996.849 -3687.298 -0.128 -0.037 -0.308 0.02 -0.55 0.84 0.02
1 5.42 542 0.646 -9.486 4.592 -52.216 -14.648 -10.986 -224.854 1846.947 -3792.229 -0.135 0.511 -0.691 0.02 -0.55 0.84 0.02
1 5.43 543 0.589 -9.941 4.889 -29.297 -22.675 -16.815 -224.854 1921.898 -3897.161 -0.023 0.914 -1.117 0.02 -0.55 0.83 0.02
1 5.44 544 0.359 -9.850 5.076 -5.280 -18.890 -17.273 -224.854 2101.931 -3717.278 0.245 0.812 -1.336 0.03 -0.56 0.83 0.02
1 5.45 545 0.397 -9.529 5.253 15.717 -9.796 -16.113 -224.854 2102.081 -3716.829 0.240 0.494 -1.513 0.03 -0.56 0.83 0.02
1 5.46 546 0.115 -9.074 5.229 25.818 0.031 -12.604 -269.824 2026.979 -3746.959 0.549 0.052 -1.462 0.03 -0.55 0.83 0.02
1 5.47 547 -0.019 -8.878 4.813 25.818 4.669 -8.484 -239.844 2056.960 -3701.838 0.694 -0.124 -0.998 0.03 -0.55 0.83 0.02
1 5.48 548 0.220 -8.797 4.530 10.132 -0.153 -0.122 -239.844 2056.960 -3701.838 0.457 -0.187 -0.673 0.03 -0.55 0.83 0.02
1 5.49 549 0.814 -8.768 4.453 -4.578 -8.270 2.075 -299.805 1952.028 -3536.946 -0.140 -0.205 -0.570 0.03 -0.55 0.84 0.02
1 5.50 550 1.432 -8.844 4.396 -14.801 -15.808 3.265 -299.805 1952.028 -3536.946 -0.758 -0.126 -0.508 0.03 -0.55 0.84 0.02
1 5.51 551 2.299 -9.074 4.525 -21.332 -13.092 5.524 -389.896 2056.960 -3776.939 -1.606 0.089 -0.674 0.03 -0.55 0.83 0.02
1 5.52 552 2.437 -9.314 4.607 -21.423 -1.160 8.423 -389.896 2056.960 -3776.939 -1.735 0.319 -0.781 0.03 -0.55 0.83 0.02
1 5.53 553 1.781 -9.319 4.836 -17.426 12.238 11.078 -434.867 1937.038 -3626.887 -1.080 0.314 -1.034 0.03 -0.55 0.83 0.02
1 5.54 554 0.872 -9.548 5.085 -12.085 21.118 11.536 -269.824 1996.999 -3746.959 -0.184 0.536 -1.297 0.03 -0.55 0.83 0.02
1 5.55 555 0.120 -9.635 5.105 -3.937 20.508 10.132 -269.824 1996.999 -3746.959 0.540 0.616 -1.327 0.03 -0.55 0.83 0.02
1 5.56 556 -0.623 -9.730 4.975 9.705 10.956 6.989 -314.795 1982.009 -3656.868 1.259 0.711 -1.196 0.03 -0.55 0.83 0.02
1 5.57 557 -0.426 -9.711 4.927 16.632 8.179 6.165 -314.795 1982.009 -3656.868 1.046 0.696 -1.135 0.03 -0.55 0.83 0.02
1 5.58 558 -0.350 -9.266 4.717 18.555 11.475 7.660 -314.795 2011.989 -3551.936 0.938 0.271 -0.872 0.02 -0.55 0.83 0.02
1 5.59 559 -0.378 -9.050 4.530 15.930 12.024 9.979 -314.795 2011.989 -3551.936 0.942 0.068 -0.653 0.02 -0.55 0.84 0.02
1 5.60 560 -0.555 -8.873 4.520 11.414 9.125 10.986 -329.785 1877.077 -3686.848 1.091 -0.099 -0.616 0.02 -0.55 0.84 0.02
1 5.61 561 -0.943 -8.878 4.305 5.219 0.763 10.101 -389.896 1937.038 -3701.838 1.453 -0.088 -0.381 0.02 -0.55 0.84 0.02
1 5.62 562 -1.125 -8.787 4.099 0.763 -9.247 8.484 -389.896 1937.038 -3701.838 1.613 -0.176 -0.165 0.02 -0.55 0.84 0.01
1 5.63 563 -1.274 -9.036 4.051 -1.190 -21.790 6.561 -224.854 1996.999 -3686.848 1.747 0.074 -0.115 0.02 -0.55 0.84 0.01
1 5.64 564 -1.135 -8.782 4.276 2.533 -22.705 4.883 -224.854 1996.999 -3686.848 1.599 -0.181 -0.341 0.02 -0.55 0.84 0.01
1 5.65 565 -0.800 -8.782 4.358 6.989 -16.174 6.775 -209.863 2056.960 -3626.887 1.253 -0.176 -0.409 0.02 -0.55 0.84 0.01
1 5.66 566 -0.843 -8.859 4.492 7.019 -12.787 7.538 -209.863 2056.960 -3626.887 1.286 -0.094 -0.530 0.02 -0.55 0.84 0.01
1 5.67 567 -1.025 -8.979 4.401 3.601 -5.127 12.482 -299.805 1847.097 -3641.877 1.450 0.030 -0.427 0.02 -0.54 0.84 0.01
1 5.68 568 -0.967 -8.955 4.405 2.472 -3.296 15.106 -239.844 2011.989 -3731.819 1.368 0.008 -0.425 0.02 -0.54 0.84 0
1 5.69 569 -0.915 -8.797 4.190 7.690 -1.709 15.411 -239.844 2011.989 -3731.819 1.287 -0.147 -0.201 0.02 -0.54 0.84 0
1 5.70 570 -0.704 -8.777 4.018 13.092 2.625 16.327 -59.811 1937.038 -3776.939 1.047 -0.160 -0.012 0.02 -0.54 0.84 0
1 5.71 571 -0.752 -8.509 4.080 12.299 7.080 20.935 -59.811 1937.038 -3776.939 1.063 -0.420 -0.054 0.02 -0.54 0.84 0
1 5.72 572 -0.460 -8.208 4.295 3.418 12.665 24.017 -164.893 1892.067 -3776.939 0.690 -0.709 -0.235 -0.02 0.54 -0.84 0
1 5.73 573 -0.369 -8.275 4.334 -0.519 14.618 25.177 -164.893 1892.067 -3776.939 0.552 -0.640 -0.267 -0.01 0.54 -0.84 0
1 5.74 574 -0.120 -8.366 4.099 -12.970 14.801 26.489 -149.902 1847.097 -3686.848 0.254 -0.552 -0.038 -0.01 0.54 -0.84 0
1 5.75 575 0.101 -8.591 4.156 -17.578 12.238 25.269 -314.795 1892.067 -3596.907 -0.012 -0.335 -0.111 -0.01 0.54 -0.84 0.01
1 5.76 576 0.340 -8.706 4.195 -18.738 8.514 21.820 -314.795 1892.067 -3596.907 -0.291 -0.230 -0.171 -0.01 0.54 -0.84 0.01
1 5.77 577 0.455 -8.768 4.209 -13.397 4.608 16.937 -134.912 2056.960 -3626.887 -0.437 -0.177 -0.206 -0.01 0.54 -0.84 0.01
1 5.78 578 0.589 -8.495 4.635 -2.411 4.791 8.881 -134.912 2056.960 -3626.887 -0.590 -0.456 -0.645 -0.01 0.54 -0.84 0.01
1 5.79 579 0.460 -8.543 4.568 1.648 8.789 6.287 -134.912 1982.009 -3701.838 -0.472 -0.408 -0.579 -0.01 0.54 -0.84 0.01
1 5.80 580 0.139 -8.749 4.592 2.502 18.921 3.571 -194.873 1877.077 -3611.897 -0.171 -0.195 -0.587 -0 0.54 -0.84 0.01
1 5.81 581 -0.182 -8.926 4.224 4.425 22.308 0.702 -164.893 1937.038 -3596.907 0.136 -0.013 -0.208 -0 0.54 -0.84 0.01
1 5.82 582 -0.455 -8.854 3.730 9.155 21.607 -1.984 -164.893 1982.009 -3596.907 0.396 -0.080 0.296 -0 0.54 -0.84 0.01
1 5.83 583 -0.680 -9.084 3.639 12.848 16.724 -3.082 -164.893 1982.009 -3596.907 0.610 0.156 0.402 -0 0.54 -0.84 0.01
1 5.84 584 -0.838 -9.098 3.453 12.573 10.162 -3.326 -104.782 2011.989 -3596.907 0.759 0.178 0.605 0 0.54 -0.84 0.01
1 5.85 585 -0.637 -9.070 3.591 4.883 1.984 -5.554 -104.782 2011.989 -3596.907 0.554 0.155 0.479 0 0.54 -0.84 0.01
1 5.86 586 -0.541 -9.156 3.582 -2.136 -0.610 -5.951 -119.772 2026.979 -3611.897 0.458 0.244 0.495 0 0.54 -0.84 0.01
1 5.87 587 -0.417 -9.237 3.730 -5.493 -1.099 -5.127 -59.811 1816.966 -3551.936 0.345 0.320 0.334 0 0.54 -0.84 0
1 5.88 588 -0.172 -9.390 3.735 -0.702 0.793 -6.348 -239.844 1816.966 -3731.819 0.106 0.470 0.321 0 0.54 -0.84 0
1 5.89 589 -0.053 -9.462 3.879 7.019 2.869 -8.728 -104.782 1937.038 -3626.887 -0.006 0.541 0.177 0 0.54 -0.84 0
1 5.90 590 -0.397 -9.175 3.783 14.404 4.822 -10.712 -104.782 1937.038 -3626.887 0.349 0.258 0.283 0 0.54 -0.84 0
1 5.91 591 -0.532 -8.964 3.644 20.172 4.608 -11.292 -149.902 1727.025 -3641.877 0.494 0.057 0.442 0 0.54 -0.84 0
1 5.92 592 -0.718 -8.552 3.481 20.630 0.305 -11.536 -149.902 1727.025 -3641.877 0.692 -0.342 0.632 0 0.54 -0.84 0
1 5.93 593 -0.967 -8.370 3.304 13.702 -1.526 -9.613 -134.912 1862.087 -3731.819 0.952 -0.512 0.836 -0 0.54 -0.84 0
1 5.94 594 -1.159 -8.236 3.237 4.089 -2.380 -8.270 -119.772 1952.028 -3641.877 1.153 -0.637 0.922 -0 0.54 -0.84 0
1 5.95 595 -1.063 -8.437 3.318 -8.759 -2.533 -6.104 -269.824 1952.028 -3791.930 1.067 -0.437 0.839 -0 0.54 -0.84 0
1 5.96 596 -1.101 -8.572 3.419 -12.268 -2.991 -4.578 -164.893 1862.087 -3626.887 1.107 -0.310 0.723 -0 0.54 -0.84 0
1 5.97 597 -0.977 -8.792 3.362 -11.536 -3.326 -3.021 -164.893 1862.087 -3626.887 0.982 -0.099 0.761 -0 0.54 -0.84 0
1 5.98 598 -0.742 -8.840 3.424 -9.308 -3.204 -2.563 -134.912 1786.986 -3731.819 0.746 -0.059 0.682 -0 0.54 -0.84 0
1 5.99 599 -0.661 -8.715 3.520 -6.714 -3.296 -2.533 -134.912 1786.986 -3731.819 0.664 -0.190 0.572 -0 0.54 -0.84 0
1 6.00 600 -0.455 -8.686 3.424 -5.005 -5.737 -3.510 -134.912 1982.009 -3626.887 0.459 -0.223 0.657 -0 0.54 -0.84 0
1 6.01 601 -0.508 -8.725 3.290 -6.622 -7.233 -3.998 -149.902 1952.028 -3566.926 0.516 -0.189 0.782 -0 0.54 -0.84 0
1 6.02 602 -0.709 -8.567 3.232 -8.087 -10.803 -5.219 -209.863 1937.038 -3626.887 0.733 -0.358 0.817 -0 0.54 -0.84 0
1 6.03 603 -0.704 -8.806 3.160 -9.033 -12.085 -5.157 0.000 1877.077 -3491.825 0.738 -0.124 0.875 -0 0.54 -0.84 0
1 6.04 604 -0.828 -8.758 3.007 -9.583 -11.810 -3.601 0.000 1877.077 -3491.825 0.872 -0.180 1.012 -0 0.54 -0.84 0
1 6.05 605 -0.824 -8.873 2.888 -10.101 -12.512 -0.732 -359.766 2011.989 -3626.887 0.873 -0.073 1.113 -0.01 0.54 -0.84 0
1 6.06 606 -0.809 -9.180 3.017 -12.116 -15.289 1.007 -359.766 2011.989 -3626.887 0.861 0.225 0.965 -0.01 0.54 -0.84 0
1 6.07 607 -0.876 -9.132 3.199 -14.374 -18.219 1.007 -284.814 2056.960 -3626.887 0.928 0.168 0.762 -0.01 0.55 -0.84 0.01
1 6.08 608 -0.742 -9.381 3.194 -16.144 -22.278 0.061 -269.824 1996.999 -3641.877 0.797 0.406 0.742 -0.01 0.55 -0.84 0.01
1 6.09 609 -0.565 -9.663 3.783 -17.426 -26.978 0.153 -209.863 1892.067 -3701.838 0.635 0.666 0.100 -0.01 0.55 -0.84 0.01
1 6.10 610 -0.512 -9.697 4.061 -18.036 -28.473 1.526 -239.844 1937.038 -3551.936 0.593 0.688 -0.205 -0.01 0.55 -0.83 0.01
1 6.11 611 0.235 -10.137 5.397 -24.841 -23.102 10.620 -239.844 1937.038 -3551.936 -0.147 1.117 -1.568 -0.01 0.55 -0.83 0.01
1 6.12 612 0.996 -10.482 5.732 -34.210 -14.832 19.684 -284.814 1862.087 -3626.887 -0.912 1.446 -1.940 -0.01 0.55 -0.83 0.01
1 6.13 613 1.437 -10.702 5.119 -35.828 -3.662 24.536 -284.814 1862.087 -3626.887 -1.375 1.646 -1.376 -0.01 0.56 -0.83 0.02
1 6.14 614 1.087 -10.717 3.745 -13.611 10.101 13.763 -314.795 1862.087 -3551.936 -1.057 1.641 -0.047 -0.01 0.56 -0.83 0.02
1 6.15 615 0.139 -10.372 3.433 5.951 13.001 6.653 -284.814 2056.960 -3626.887 -0.136 1.287 0.240 -0.01 0.56 -0.83 0.02
1 6.16 616 -1.144 -9.936 3.687 7.019 -4.761 6.592 -329.785 1996.999 -3686.848 1.117 0.858 0.005 -0.01 0.56 -0.83 0.02
1 6.17 617 -1.427 -9.773 4.295 -3.052 -13.886 5.157 -209.863 1937.038 -3521.956 1.391 0.696 -0.602 -0.01 0.56 -0.83 0.02
1 6.18 618 -1.422 -10.425 5.449 -31.159 -36.041 3.174 -209.863 1937.038 -3521.956 1.392 1.337 -1.781 -0.01 0.56 -0.83 0.02
1 6.19 619 -1.006 -10.908 6.062 -27.435 -42.084 6.012 -269.824 1922.048 -3716.829 0.993 1.804 -2.437 -0.02 0.56 -0.83 0.02
1 6.20 620 -0.359 -11.014 6.206 -6.073 -41.443 8.301 -269.824 1922.048 -3716.829 0.362 1.897 -2.611 -0.02 0.56 -0.83 0.03
1 6.21 621 0.244 -10.602 6.139 26.123 -34.577 9.918 -119.772 2102.081 -3611.897 -0.231 1.486 -2.541 -0.02 0.56 -0.83 0.03
1 6.22 622 0.881 -9.481 5.684 62.744 -23.499 11.078 -299.805 2026.979 -3611.897 -0.863 0.385 -2.038 -0.02 0.56 -0.83 0.03
1 6.23 623 0.862 -8.466 5.473 68.695 -15.839 8.850 -299.805 2026.979 -3611.897 -0.844 -0.596 -1.744 -0.02 0.56 -0.83 0.03
1 6.24 624 0.752 -7.418 4.731 54.382 -4.334 5.127 -434.867 2011.989 -3521.956 -0.728 -1.559 -0.798 -0.02 0.55 -0.84 0.03
1 6.25 625 0.656 -7.101 4.286 34.485 4.028 5.219 -434.867 2011.989 -3521.956 -0.631 -1.840 -0.274 -0.02 0.54 -0.84 0.03
1 6.26 626 0.536 -6.991 3.951 10.132 10.498 6.378 -299.805 2072.100 -3566.926 -0.522 -1.931 0.102 -0.02 0.54 -0.84 0.04
1 6.27 627 0.723 -7.288 3.567 -15.900 10.345 8.148 -299.805 2072.100 -3566.926 -0.724 -1.632 0.492 -0.02 0.54 -0.84 0.04
1 6.28 628 1.173 -7.786 3.481 -37.598 2.197 12.512 -404.886 1801.976 -3686.848 -1.192 -1.147 0.549 -0.02 0.54 -0.84 0.04
1 6.29 629 2.457 -9.175 4.434 -53.955 -10.925 19.928 -269.824 1877.077 -3491.825 -2.493 0.217 -0.460 -0.02 0.54 -0.84 0.04
1 6.30 630 3.587 -10.109 5.550 -52.063 -10.986 19.745 -269.824 1877.077 -3491.825 -3.628 1.120 -1.646 -0.02 0.55 -0.84 0.04
1 6.31 631 4.142 -10.520 5.349 -17.334 5.798 10.376 -329.785 1952.028 -3611.897 -4.214 1.478 -1.570 -0.02 0.55 -0.83 0.04
1 6.32 632 3.606 -9.874 4.511 25.177 20.050 -1.770 -329.785 1952.028 -3611.897 -3.692 0.828 -0.741 -0.02 0.55 -0.83 0.04
1 6.33 633 2.873 -8.902 3.831 62.592 25.848 -15.106 -239.844 2056.960 -3596.907 -2.965 -0.122 -0.010 -0.02 0.55 -0.83 0.04
1 6.34 634 2.011 -8.006 3.510 73.731 19.959 -25.208 -239.844 2056.960 -3596.907 -2.069 -0.977 0.405 -0.02 0.55 -0.84 0.04
1 6.35 635 1.484 -7.293 3.620 56.519 4.669 -29.755 -284.814 1862.087 -3551.936 -1.498 -1.647 0.393 -0.02 0.54 -0.84 0.03
1 6.36 636 1.144 -7.566 4.372 -1.984 -20.447 -28.565 -269.824 1922.048 -3686.848 -1.116 -1.344 -0.291 -0.02 0.54 -0.84 0.03
1 6.37 637 1.413 -8.380 4.707 -38.605 -25.208 -24.231 -269.824 1922.048 -3686.848 -1.333 -0.524 -0.613 -0.02 0.54 -0.84 0.03
1 6.38 638 1.571 -9.266 4.817 -50.537 -17.242 -18.585 -314.795 1816.966 -3656.868 -1.435 0.346 -0.761 -0.03 0.54 -0.84 0.03
1 6.39 639 1.365 -10.080 4.305 -22.186 4.242 -15.167 -389.896 1937.038 -3701.838 -1.142 1.111 -0.362 -0.03 0.55 -0.84 0.03
1 6.40 640 0.910 -9.860 4.238 8.057 15.839 -16.174 -434.867 1937.038 -3656.868 -0.670 0.883 -0.313 -0.03 0.55 -0.84 0.03
1 6.41 641 0.685 -9.213 4.046 29.144 19.074 -17.395 -434.867 1937.038 -3656.868 -0.429 0.247 -0.100 -0.03 0.55 -0.84 0.02
1 6.42 642 0.283 -8.744 4.022 32.898 13.763 -17.761 -329.785 2026.979 -3536.946 -0.010 -0.203 -0.032 -0.03 0.54 -0.84 0.02
1 6.43 643 0.359 -8.457 4.070 22.125 3.052 -17.487 -374.906 1801.976 -3716.829 -0.069 -0.469 -0.035 -0.03 0.54 -0.84 0.02
1 6.44 644 0.713 -8.485 4.056 2.197 -12.116 -14.496 -374.906 1801.976 -3716.829 -0.400 -0.427 0.007 -0.03 0.54 -0.84 0.02
1 6.45 645 1.125 -8.591 4.085 -3.174 -15.228 -11.780 -464.847 1982.009 -3776.939 -0.782 -0.317 -0.012 -0.03 0.54 -0.84 0.02
1 6.46 646 1.690 -8.969 3.855 2.289 -6.195 -6.866 -224.254 1680.105 -3645.625 -1.288 0.063 0.214 -0.04 0.54 -0.84 0.02
1 6.47 647 1.791 -8.959 3.845 10.742 5.035 -3.845 -479.238 1920.099 -3570.674 -1.367 0.057 0.229 -0.04 0.54 -0.84 0.02
1 6.48 648 1.748 -8.868 3.874 18.280 16.876 -1.251 -479.238 1920.099 -3570.674 -1.314 -0.026 0.218 -0.04 0.54 -0.84 0.02
1 6.49 649 1.628 -8.610 3.946 18.982 25.940 1.038 -374.156 1950.080 -3570.674 -1.195 -0.272 0.173 -0.04 0.54 -0.84 0.02
1 6.50 650 1.207 -8.385 3.735 15.595 30.304 2.411 -539.199 1980.060 -3630.635 -0.782 -0.485 0.411 -0.04 0.54 -0.84 0.02
1 6.51 651 1.030 -8.390 3.692 2.319 25.665 1.770 -539.199 1980.060 -3630.635 -0.620 -0.471 0.475 -0.03 0.54 -0.84 0.01
1 6.52 652 0.967 -8.495 3.582 -5.707 17.304 0.458 -329.186 1920.099 -3795.677 -0.572 -0.363 0.592 -0.03 0.53 -0.84 0.01
1 6.53 653 1.049 -8.710 3.840 -8.728 3.571 -3.143 -359.166 1935.089 -3660.765 -0.661 -0.155 0.318 -0.03 0.54 -0.84 0.01
1 6.54 654 1.140 -9.003 3.994 -8.362 0.122 -4.303 -299.205 1800.027 -3615.645 -0.742 0.132 0.152 -0.03 0.54 -0.84 0.01
1 6.55 655 1.240 -9.151 4.386 -1.068 -3.876 -9.674 -299.205 1800.027 -3615.645 -0.825 0.278 -0.247 -0.03 0.54 -0.84 0.01
1 6.56 656 1.073 -9.103 4.439 4.822 -2.838 -10.345 -404.137 1920.099 -3615.645 -0.635 0.232 -0.298 -0.03 0.54 -0.84 0.01
1 6.57 657 0.910 -8.998 4.348 10.407 -0.122 -8.820 -374.156 1605.004 -3645.625 -0.452 0.133 -0.196 -0.03 0.54 -0.84 0.01
1 6.58 658 0.809 -8.792 4.161 14.038 0.641 -6.897 -374.156 1605.004 -3645.625 -0.335 -0.065 0.007 -0.03 0.53 -0.84 0.01
1 6.59 659 0.910 -8.581 3.946 12.177 0.031 -5.737 -314.195 1815.018 -3555.684 -0.423 -0.265 0.243 -0.03 0.53 -0.84 0.01
1 6.60 660 1.111 -8.332 3.716 5.188 -2.960 -6.958 -389.146 1890.119 -3630.635 -0.599 -0.498 0.504 -0.04 0.53 -0.85 0.01
1 6.61 661 1.207 -8.476 3.654 1.617 -3.754 -7.813 -314.195 1740.066 -3735.716 -0.677 -0.351 0.571 -0.04 0.53 -0.85 0.01
1 6.62 662 1.633 -8.524 3.730 -5.981 -3.448 -6.531 -314.195 1740.066 -3735.716 -1.085 -0.304 0.490 -0.04 0.53 -0.85 0.01
1 6.63 663 1.700 -8.543 3.730 -9.033 -0.885 -6.165 -464.248 1860.138 -3660.765 -1.132 -0.289 0.479 -0.04 0.53 -0.85 0.01
1 6.64 664 1.642 -8.878 3.783 -8.392 2.502 -7.050 -299.205 1800.027 -3645.625 -1.057 0.041 0.413 -0.04 0.53 -0.85 0.01
1 6.65 665 1.456 -8.859 3.644 -3.632 3.967 -6.561 -299.205 1800.027 -3645.625 -0.855 0.018 0.541 -0.04 0.53 -0.84 0
1 6.66 666 1.451 -8.916 3.687 1.282 6.683 -4.608 -299.205 1875.128 -3750.707 -0.837 0.074 0.493 -0.04 0.53 -0.84 0
1 6.67 667 1.595 -8.844 3.419 2.136 9.308 -2.716 -434.267 1785.037 -3600.654 -0.971 0.002 0.760 -0.04 0.53 -0.84 0
1 6.68 668 1.743 -8.667 3.438 -4.730 15.656 -0.305 -359.166 1815.018 -3735.716 -1.112 -0.175 0.740 -0.04 0.53 -0.84 0
1 6.69 669 1.796 -8.639 3.280 -12.421 18.799 2.319 -359.166 1815.018 -3735.716 -1.166 -0.209 0.887 -0.04 0.53 -0.84 0
1 6.70 670 1.935 -8.739 3.381 -18.738 21.393 3.815 -329.186 1770.047 -3750.707 -1.311 -0.119 0.766 0.04 -0.54 0.84 0
1 6.71 671 1.997 -8.897 3.189 -19.623 23.773 3.967 -479.238 1725.076 -3690.746 -1.382 0.026 0.930 0.04 -0.54 0.84 0
1 6.72 672 2.208 -9.026 2.916 -16.693 28.473 5.829 -479.238 1725.076 -3690.746 -1.602 0.141 1.174 0.03 -0.54 0.84 0
1 6.73 673 2.198 -8.993 2.830 -13.275 31.647 7.385 -269.225 1950.080 -3495.723 -1.604 0.095 1.233 0.03 -0.54 0.84 0
1 6.74 674 2.251 -8.883 2.715 -8.637 34.149 8.881 -359.166 1890.119 -3660.765 -1.672 -0.027 1.325 0.03 -0.54 0.84 0.01
1 6.75 675 2.102 -8.595 2.921 -5.127 33.478 9.583 -209.264 1815.018 -3660.765 -1.563 -0.330 1.090 0.03 -0.54 0.84 0.01
1 6.76 676 1.973 -8.404 3.050 -6.989 29.694 9.552 -209.264 1815.018 -3660.765 -1.454 -0.527 0.950 0.03 -0.54 0.84 0.01
1 6.77 677 1.681 -8.361 3.352 -10.254 24.262 8.392 -284.215 1935.089 -3480.732 -1.179 -0.577 0.636 0.02 -0.54 0.84 0.01
1 6.78 678 1.374 -8.514 3.433 -13.794 18.280 5.310 -284.215 1935.089 -3600.654 -0.887 -0.431 0.540 0.02 -0.54 0.84 0.01
1 6.79 679 0.924 -8.639 3.582 -18.982 12.238 0.519 -284.215 1935.089 -3600.654 -0.445 -0.316 0.371 0.02 -0.55 0.84 0.01
1 6.80 680 0.503 -9.127 4.329 -15.778 3.815 -2.716 -224.254 1920.099 -3540.693 -0.024 0.161 -0.402 0.02 -0.55 0.84 0.01
1 6.81 681 -0.330 -9.563 4.956 -21.484 -4.761 -10.162 -134.163 1890.119 -3735.716 0.814 0.588 -1.050 0.02 -0.55 0.84 0.01
1 6.82 682 -1.087 -10.334 5.153 -33.203 -22.553 -23.346 -134.163 1890.119 -3735.716 1.582 1.350 -1.269 0.02 -0.55 0.84 0.01
1 6.83 683 -1.183 -10.583 4.415 -13.123 -50.263 -18.677 -209.264 1860.138 -3555.684 1.771 1.570 -0.613 0.03 -0.55 0.83 0.01
1 6.84 684 -0.268 -9.812 4.008 8.514 -53.192 -6.561 -314.195 1815.018 -3525.703 0.909 0.797 -0.219 0.03 -0.55 0.83 0.01
1 6.85 685 0.737 -8.730 4.065 10.376 -37.506 -2.686 -239.244 1980.060 -3525.703 -0.063 -0.279 -0.266 0.03 -0.55 0.83 0.01
1 6.86 686 1.484 -8.313 4.362 -8.026 -7.629 -3.357 -239.244 1980.060 -3525.703 -0.789 -0.690 -0.553 0.04 -0.55 0.83 0.01
1 6.87 687 1.422 -8.586 4.645 -31.952 22.492 -2.838 -194.273 2070.151 -3615.645 -0.717 -0.421 -0.849 0.04 -0.55 0.83 0.01
1 6.88 688 0.843 -9.505 4.429 -42.359 33.478 3.693 -464.248 2130.112 -3630.635 -0.144 0.481 -0.673 0.03 -0.55 0.83 0.01
1 6.89 689 0.785 -9.864 4.769 -33.630 21.332 4.425 -464.098 2129.962 -3630.935 -0.105 0.818 -1.063 0.03 -0.56 0.83 0.01
1 6.90 690 0.551 -9.979 5.296 -16.296 0.275 -6.775 -314.195 1979.910 -3481.032 0.106 0.901 -1.665 0.03 -0.56 0.83 0.01
1 6.91 691 0.742 -9.659 5.334 -2.350 -5.432 -11.200 -164.143 2084.992 -3555.983 -0.072 0.574 -1.720 0.03 -0.56 0.83 0.02
1 6.92 692 0.967 -9.534 5.344 8.972 -0.305 -8.514 -224.104 2025.031 -3570.974 -0.279 0.452 -1.728 0.03 -0.56 0.83 0.02
1 6.93 693 1.188 -9.285 5.229 12.817 9.583 -2.533 -224.104 2025.031 -3570.974 -0.490 0.210 -1.596 0.03 -0.56 0.83 0.02
1 6.94 694 1.384 -8.998 5.325 4.822 19.714 1.526 -299.205 2025.031 -3615.944 -0.688 -0.068 -1.668 0.03 -0.56 0.83 0.02
1 6.95 695 1.561 -9.247 5.267 -18.341 25.208 3.601 -269.225 1949.930 -3466.042 -0.875 0.187 -1.595 0.03 -0.56 0.83 0.02
1 6.96 696 1.743 -9.496 5.196 -28.168 21.881 3.937 -269.225 1949.930 -3466.042 -1.069 0.433 -1.529 0.03 -0.56 0.83 0.02
1 6.97 697 1.982 -9.888 5.119 -18.524 13.458 4.272 -359.166 1979.910 -3375.951 -1.337 0.798 -1.514 0.03 -0.56 0.83 0.02
1 6.98 698 1.686 -9.884 5.062 -9.460 12.543 2.991 -209.114 2010.041 -3600.954 -1.052 0.786 -1.474 0.02 -0.56 0.83 0.02
1 6.99 699 1.173 -9.841 4.994 20.538 14.710 0.854 -164.143 2055.011 -3555.983 -0.547 0.747 -1.395 0.02 -0.56 0.83 0.02
1 7.00 700 0.421 -9.395 4.956 32.929 19.379 -0.641 -164.143 2055.011 -3555.983 0.196 0.316 -1.319 0.02 -0.56 0.83 0.02
1 7.01 701 -0.599 -9.122 4.942 33.783 23.132 -3.082 -224.104 2070.001 -3540.993 1.206 0.064 -1.251 0.02 -0.56 0.83 0.02
1 7.02 702 -2.155 -8.739 4.597 18.433 14.954 -5.890 -74.202 2099.982 -3496.022 2.747 -0.297 -0.851 0.02 -0.56 0.83 0.02
1 7.03 703 -2.974 -8.739 4.429 5.798 -1.526 -4.700 -74.202 2099.982 -3496.022 3.549 -0.281 -0.643 0.02 -0.55 0.83 0.03
1 7.04 704 -2.911 -8.720 4.013 -5.554 -29.389 1.129 -104.182 1934.939 -3481.032 3.457 -0.293 -0.204 0.02 -0.55 0.83 0.02
1 7.05 705 -2.706 -8.830 4.085 -5.127 -38.788 6.805 -164.143 2084.992 -3706.036 3.241 -0.186 -0.282 0.02 -0.55 0.83 0.02
1 7.06 706 -1.882 -8.816 4.204 -2.563 -34.973 10.864 -239.094 1979.910 -3600.954 2.406 -0.203 -0.407 0.02 -0.55 0.83 0.02
1 7.07 707 -1.250 -8.777 4.420 -0.366 -22.980 15.930 -239.094 1979.910 -3600.954 1.757 -0.243 -0.623 0.02 -0.55 0.83 0.02
1 7.08 708 -1.039 -8.619 4.525 1.434 -7.751 22.125 -164.143 2010.041 -3555.983 1.520 -0.400 -0.723 0.02 -0.55 0.83 0.01
1 7.09 709 -1.087 -8.615 4.741 -1.892 3.815 26.398 -359.166 2055.011 -3481.032 1.528 -0.404 -0.930 0.02 -0.55 0.83 0.01
1 7.10 710 -0.891 -8.830 4.769 -7.996 8.575 28.992 -359.166 2055.011 -3481.032 1.280 -0.189 -0.955 0.02 -0.55 0.83 0.01
1 7.11 711 -0.953 -9.060 4.573 -8.911 5.737 26.398 -194.124 1919.949 -3540.993 1.288 0.039 -0.760 0.02 -0.55 0.83 0.01
1 7.12 712 -0.919 -9.266 4.506 -1.831 -2.991 23.285 -284.215 1979.910 -3526.003 1.161 0.238 -0.701 0.01 -0.55 0.83 0
1 7.13 713 -0.651 -9.151 4.315 8.148 -7.599 22.980 -119.172 1919.949 -3436.062 0.855 0.125 -0.503 0.01 -0.55 0.83 0
1 7.14 714 -0.230 -8.888 4.252 15.015 -10.742 23.132 -119.172 1919.949 -3436.062 0.401 -0.132 -0.423 0.01 -0.55 0.83 0
1 7.15 715 0.096 -8.639 4.410 15.472 -9.674 24.567 -134.163 2010.041 -3555.983 0.047 -0.370 -0.555 -0.01 0.55 -0.83 0
1 7.16 716 0.354 -8.615 4.492 4.242 -2.106 25.726 -119.172 2025.031 -3570.974 -0.241 -0.384 -0.611 -0.01 0.55 -0.84 0
1 7.17 717 0.426 -8.658 4.449 -2.563 5.554 23.560 -119.172 2025.031 -3570.974 -0.343 -0.334 -0.552 -0.01 0.55 -0.84 0.01
1 7.18 718 -0.053 -8.864 4.267 -3.815 10.376 19.989 -104.182 1979.910 -3451.052 0.104 -0.126 -0.366 -0.01 0.55 -0.84 0.01
1 7.19 719 -0.450 -8.878 4.075 7.782 6.653 12.360 -224.104 2070.001 -3436.062 0.442 -0.110 -0.169 -0 0.55 -0.84 0.01
1 7.20 720 -0.986 -8.844 4.118 16.907 0.854 8.728 -29.081 1859.988 -3630.935 0.957 -0.136 -0.195 -0 0.55 -0.84 0.01
1 7.21 721 -1.111 -8.600 4.286 20.691 -6.042 7.019 -28.631 1858.789 -3633.783 1.066 -0.367 -0.334 -0 0.55 -0.84 0.01
1 7.22 722 -1.130 -8.327 4.439 18.677 -11.780 5.402 -103.583 2083.792 -3558.832 1.074 -0.626 -0.455 -0 0.54 -0.84 0.01
1 7.23 723 -1.192 -8.241 4.525 12.268 -15.320 6.836 -28.631 2053.812 -3528.701 1.129 -0.699 -0.511 -0 0.54 -0.84 0.01
1 7.24 724 -1.121 -8.265 4.262 2.197 -18.280 8.881 -28.631 2053.812 -3528.701 1.050 -0.666 -0.228 -0 0.54 -0.84 0.01
1 7.25 725 -0.838 -8.370 4.224 0.092 -18.646 9.277 -133.563 1888.770 -3483.730 0.760 -0.555 -0.178 -0 0.54 -0.84 0.01
1 7.26 726 -0.733 -8.318 4.118 -0.061 -18.158 11.139 -133.563 1888.770 -3483.730 0.647 -0.606 -0.068 -0 0.54 -0.84 0.02
1 7.27 727 -0.407 -8.533 4.046 0.366 -15.991 13.977 -193.524 2068.802 -3618.792 0.304 -0.387 0.011 -0.01 0.54 -0.84 0.02
1 7.28 728 -0.369 -8.572 4.180 -1.923 -13.123 14.587 -193.524 2068.802 -3618.792 0.254 -0.347 -0.120 -0.01 0.54 -0.84 0.02
1 7.29 729 -0.484 -8.643 4.152 -4.608 -11.047 12.787 -223.504 1843.799 -3543.841 0.356 -0.275 -0.091 -0.01 0.54 -0.84 0.02
1 7.30 730 -0.522 -8.916 3.984 -4.211 -10.925 11.353 -148.553 1918.750 -3648.773 0.383 -0.003 0.074 -0.01 0.54 -0.84 0.02
1 7.31 731 -0.776 -8.959 3.807 -2.930 -12.878 11.719 -148.553 1918.750 -3648.773 0.626 0.038 0.247 -0.01 0.54 -0.84 0.02
1 7.32 732 -0.886 -8.921 3.793 -1.770 -17.181 13.489 -148.553 1918.750 -3693.744 0.724 -0.001 0.258 -0.01 0.54 -0.84 0.03
1 7.33 733 -0.828 -8.907 3.702 -0.244 -18.219 13.214 -148.553 1918.750 -3693.744 0.655 -0.016 0.346 -0.01 0.54 -0.84 0.03
1 7.34 734 -0.594 -8.725 3.563 2.228 -17.242 11.475 -133.563 2008.691 -3408.779 0.399 -0.198 0.486 -0.01 0.54 -0.84 0.03
1 7.35 735 -0.541 -8.720 3.611 2.441 -16.602 9.674 -133.563 2008.691 -3408.779 0.339 -0.201 0.440 -0.01 0.54 -0.84 0.03
1 7.36 736 -0.498 -8.663 3.515 1.862 -15.228 7.446 -163.543 1978.711 -3558.832 0.291 -0.257 0.539 -0.01 0.54 -0.84 0.03
1 7.37 737 -0.450 -8.864 3.606 2.533 -15.350 3.845 -133.563 1813.818 -3483.730 0.242 -0.055 0.450 -0.01 0.54 -0.84 0.04
1 7.38 738 -0.374 -8.801 3.462 2.228 -16.632 2.380 -133.563 1813.818 -3483.730 0.170 -0.116 0.597 -0.01 0.54 -0.84 0.04
1 7.39 739 -0.029 -9.151 3.496 -1.892 -16.174 3.113 -193.524 1918.750 -3618.792 -0.169 0.233 0.564 -0.01 0.54 -0.84 0.04
1 7.40 740 0.354 -9.323 3.611 -5.066 -15.106 3.448 -193.524 1918.750 -3618.792 -0.545 0.404 0.445 -0.01 0.54 -0.84 0.04
1 7.41 741 0.426 -9.529 3.711 -6.195 -11.566 1.221 -373.557 1993.701 -3618.792 -0.600 0.601 0.325 -0.01 0.54 -0.84 0.04
1 7.42 742 0.469 -9.596 3.620 -5.249 -11.383 0.854 -373.557 1993.701 -3618.792 -0.632 0.663 0.406 -0.02 0.54 -0.84 0.04
1 7.43 743 0.340 -9.735 3.572 -0.854 -9.430 0.153 -208.514 2008.691 -3528.701 -0.491 0.798 0.447 -0.02 0.54 -0.84 0.04
1 7.44 744 0.182 -9.639 3.491 2.716 -7.721 -1.678 -163.543 1858.789 -3603.802 -0.322 0.701 0.524 -0.02 0.54 -0.84 0.04
1 7.45 745 -0.086 -9.620 3.366 6.042 -6.561 -2.594 -163.543 1858.789 -3603.802 -0.044 0.682 0.650 -0.02 0.54 -0.84 0.04
1 7.46 746 -0.110 -9.314 3.218 8.087 -7.050 -0.763 -373.557 1918.750 -3498.721 -0.011 0.378 0.803 -0.02 0.54 -0.84 0.04
1 7.47 747 -0.196 -9.137 3.242 3.967 -9.247 2.869 -373.557 1918.750 -3498.721 0.082 0.203 0.786 -0.02 0.54 -0.84 0.04
1 7.48 748 0.010 -9.127 3.280 -4.547 -11.902 2.045 -313.596 1933.740 -3663.763 -0.119 0.193 0.746 -0.02 0.54 -0.84 0.04
1 7.49 749 -0.158 -9.194 3.333 -7.690 -11.017 0.977 -313.596 1933.740 -3663.763 0.055 0.254 0.681 -0.02 0.54 -0.84 0.04
1 7.50 750 -0.330 -9.314 3.323 -7.568 -8.606 -6.134 -268.625 1873.779 -3618.792 0.237 0.367 0.675 -0.02 0.54 -0.84 0.04
1 7.51 751 -0.718 -9.232 3.065 -1.312 -8.026 -8.850 -313.596 1933.740 -3603.802 0.638 0.280 0.921 -0.02 0.54 -0.84 0.04
1 7.52 752 -0.876 -9.175 3.002 7.019 -8.942 -10.864 -313.596 1933.740 -3603.802 0.810 0.221 0.980 -0.02 0.54 -0.84 0.04
1 7.53 753 -0.977 -9.070 2.902 13.855 -9.552 -11.597 -313.596 2008.691 -3603.802 0.926 0.119 1.088 -0.02 0.54 -0.84 0.04
1 7.54 754 -1.073 -8.686 2.988 17.181 -10.529 -10.529 -313.596 2008.691 -3603.802 1.037 -0.258 1.016 -0.03 0.54 -0.84 0.04
1 7.55 755 -0.982 -8.447 2.777 13.641 -11.658 -10.010 -223.504 2023.832 -3618.792 0.959 -0.489 1.245 -0.03 0.54 -0.84 0.04
1 7.56 756 -0.895 -8.284 2.701 4.364 -16.876 -7.172 -433.218 2052.763 -3486.579 0.905 -0.640 1.348 -0.03 0.54 -0.84 0.04
1 7.57 757 -0.661 -8.505 2.634 -4.700 -21.393 -3.693 -388.247 1887.720 -3561.530 0.688 -0.419 1.417 -0.03 0.54 -0.84 0.04
1 7.58 758 -0.599 -8.715 2.749 -12.756 -23.834 -0.732 -298.306 1767.798 -3501.569 0.638 -0.216 1.286 -0.03 0.54 -0.84 0.04
1 7.59 759 -0.316 -8.835 2.916 -19.165 -23.895 1.617 -298.306 1767.798 -3501.569 0.367 -0.107 1.093 -0.03 0.54 -0.84 0.04
1 7.60 760 -0.139 -9.017 3.084 -24.201 -18.341 3.448 -268.325 1872.730 -3621.491 0.199 0.060 0.892 -0.03 0.54 -0.84 0.05
1 7.61 761 -0.211 -9.639 3.261 -23.987 -14.374 5.554 -268.325 1872.730 -3621.491 0.278 0.666 0.677 -0.03 0.55 -0.84 0.05
1 7.62 762 -0.192 -9.807 3.223 -19.592 -11.932 6.866 -328.286 1842.750 -3621.491 0.260 0.817 0.677 -0.04 0.55 -0.83 0.05
1 7.63 763 -0.508 -10.037 3.362 -8.637 -11.719 7.111 -358.267 1887.720 -3531.549 0.569 1.022 0.480 -0.04 0.55 -0.83 0.05
1 7.64 764 -0.249 -10.166 3.802 -6.561 -14.404 12.238 -508.319 1932.691 -3636.481 0.304 1.144 0.024 -0.04 0.55 -0.83 0.05
1 7.65 765 0.297 -10.190 4.520 -14.923 -16.693 20.813 -313.296 1887.720 -3531.549 -0.254 1.163 -0.706 -0.04 0.55 -0.83 0.05
1 7.66 766 1.202 -10.334 4.607 -24.872 -14.496 30.304 -313.296 1887.720 -3531.549 -1.181 1.297 -0.816 -0.04 0.55 -0.83 0.05
1 7.67 767 1.829 -10.295 4.444 -27.557 -6.500 32.868 -388.247 1977.662 -3486.579 -1.843 1.244 -0.688 -0.04 0.55 -0.83 0.06
1 7.68 768 2.404 -10.209 3.721 -11.963 9.613 25.818 -388.247 1977.662 -3486.579 -2.460 1.144 0.001 -0.04 0.56 -0.83 0.06
1 7.69 769 2.227 -9.831 3.491 2.380 20.630 16.754 -508.319 1977.662 -3606.500 -2.324 0.757 0.210 -0.03 0.56 -0.83 0.06
1 7.70 770 1.590 -9.371 3.639 13.763 29.480 6.439 -463.348 1977.662 -3486.579 -1.723 0.298 0.062 -0.03 0.56 -0.83 0.06
1 7.71 771 0.081 -8.940 3.481 11.963 29.846 -3.021 -373.257 2067.753 -3651.471 -0.231 -0.118 0.256 -0.03 0.56 -0.83 0.06
1 7.72 772 -0.982 -9.070 3.620 -2.533 17.212 -6.500 -433.218 2007.792 -3351.517 0.826 0.016 0.128 -0.03 0.55 -0.83 0.06
1 7.73 773 -1.657 -9.156 4.094 -17.761 -2.563 -9.949 -433.218 2007.792 -3351.517 1.501 0.098 -0.355 -0.03 0.56 -0.83 0.06
1 7.74 774 -2.184 -9.668 4.707 -24.567 -23.651 -14.648 -403.237 1917.701 -3501.569 2.038 0.600 -0.994 -0.03 0.56 -0.83 0.06
1 7.75 775 -2.265 -9.936 5.047 -18.066 -49.256 -16.693 -403.237 1917.701 -3501.569 2.152 0.855 -1.365 -0.03 0.56 -0.83 0.06
1 7.76 776 -2.260 -10.022 5.665 -10.559 -54.230 -13.641 -463.348 2052.763 -3531.549 2.197 0.930 -2.008 -0.03 0.56 -0.83 0.06
1 7.77 777 -2.208 -9.850 5.789 -1.709 -48.065 -10.986 -328.286 2067.753 -3501.569 2.195 0.752 -2.148 -0.04 0.56 -0.83 0.06
1 7.78 778 -1.963 -9.386 5.684 12.634 -24.017 -3.326 -388.247 1977.662 -3561.530 2.029 0.289 -2.038 -0.05 0.56 -0.83 0.06
1 7.79 779 -1.834 -9.256 5.512 18.768 -3.967 4.395 -448.208 2022.782 -3471.438 1.912 0.169 -1.845 -0.05 0.56 -0.83 0.06
1 7.80 780 -1.671 -8.940 5.406 22.369 10.773 10.864 -448.208 2022.782 -3471.438 1.742 -0.136 -1.710 -0.05 0.56 -0.83 0.06
1 7.81 781 -1.432 -8.864 5.153 22.492 16.632 12.878 -463.348 1932.691 -3456.448 1.466 -0.195 -1.413 -0.04 0.55 -0.83 0.06
1 7.82 782 -0.800 -8.701 4.836 18.005 11.078 12.970 -463.348 1932.691 -3456.448 0.796 -0.340 -1.056 -0.04 0.55 -0.83 0.06
1 7.83 783 1.092 -8.725 4.635 4.578 -10.834 12.909 -478.338 2067.753 -3621.491 -1.123 -0.303 -0.823 -0.04 0.55 -0.83 0.06
1 7.84 784 2.615 -8.811 4.760 -5.981 -19.104 16.174 -538.299 1932.691 -3456.448 -2.657 -0.210 -0.931 -0.04 0.55 -0.83 0.07
1 7.85 785 4.722 -8.912 4.980 -14.404 -1.678 21.179 -463.348 1932.691 -3531.549 -4.756 -0.112 -1.157 -0.04 0.55 -0.83 0.07
1 7.86 786 5.119 -8.931 4.942 -10.162 24.170 19.501 -463.348 1887.720 -3411.478 -5.185 -0.100 -1.136 -0.04 0.55 -0.83 0.07
1 7.87 787 5.215 -8.706 4.209 -1.495 48.706 12.604 -463.348 1887.720 -3411.478 -5.323 -0.329 -0.413 -0.04 0.55 -0.83 0.07
1 7.88 788 4.592 -8.461 3.567 7.782 61.646 0.305 -508.319 2127.714 -3456.448 -4.744 -0.572 0.230 -0.04 0.55 -0.83 0.07
1 7.89 789 3.477 -8.241 3.251 16.235 62.195 -14.526 -508.319 2127.714 -3456.448 -3.622 -0.786 0.560 -0.03 0.55 -0.83 0.06
1 7.90 790 1.882 -7.887 3.314 17.944 39.063 -34.607 -388.247 1857.740 -3456.448 -2.007 -1.131 0.521 -0.03 0.55 -0.83 0.06
1 7.91 791 1.274 -8.112 3.553 10.895 14.130 -41.412 -283.315 1977.662 -3531.549 -1.359 -0.896 0.306 -0.03 0.55 -0.83 0.05
1 7.92 792 0.800 -8.744 4.281 -10.376 -21.271 -37.842 -268.325 2067.753 -3621.491 -0.766 -0.255 -0.399 -0.03 0.55 -0.83 0.05
1 7.93 793 0.848 -8.926 4.401 -19.531 -29.694 -34.912 -268.325 1992.802 -3471.438 -0.742 -0.079 -0.536 -0.04 0.55 -0.83 0.05
1 7.94 794 1.183 -9.577 5.119 -30.884 -40.772 -30.487 -268.325 1992.802 -3471.438 -1.005 0.558 -1.289 -0.04 0.55 -0.83 0.05
1 7.95 795 1.360 -10.046 4.937 -16.876 -36.194 -29.846 -598.260 1872.730 -3441.458 -1.113 1.014 -1.142 -0.05 0.55 -0.83 0.05
1 7.96 796 1.360 -10.066 4.583 9.949 -27.008 -27.649 -598.260 1872.730 -3441.458 -1.051 1.029 -0.803 -0.05 0.55 -0.83 0.04
1 7.97 797 1.494 -9.611 4.650 38.788 -8.484 -22.949 -508.319 1977.662 -3456.448 -1.133 0.586 -0.848 -0.05 0.55 -0.83 0.04
1 7.98 798 1.341 -8.500 4.640 41.107 4.578 -20.325 -508.319 2007.792 -3486.579 -0.936 -0.502 -0.786 -0.05 0.55 -0.83 0.04
1 7.99 799 0.848 -8.016 4.535 29.083 15.625 -18.463 -508.319 2007.792 -3486.579 -0.406 -0.957 -0.619 -0.05 0.55 -0.84 0.04
1 8.00 800 -0.158 -7.743 4.396 2.350 20.355 -18.189 -508.319 1977.662 -3606.500 0.640 -1.191 -0.397 -0.05 0.54 -0.84 0.04
1 8.01 801 -0.819 -8.165 4.410 -11.353 12.939 -19.623 -508.319 1977.662 -3606.500 1.312 -0.766 -0.405 -0.05 0.54 -0.84 0.04
1 8.02 802 -1.058 -8.437 4.444 -19.043 0.092 -19.196 -508.319 1782.789 -3606.500 1.566 -0.497 -0.450 -0.05 0.54 -0.84 0.03
1 8.03 803 -0.565 -8.806 4.286 -18.372 -13.123 -17.151 -508.319 1782.789 -3606.500 1.090 -0.137 -0.313 -0.05 0.54 -0.84 0.03
1 8.04 804 0.259 -8.993 4.573 -4.669 -18.036 -11.780 -508.319 1887.720 -3561.530 0.289 0.042 -0.620 -0.05 0.54 -0.84 0.03
1 8.05 805 0.948 -9.007 4.793 5.768 -7.324 -7.904 -403.237 1992.802 -3576.520 -0.377 0.055 -0.848 -0.06 0.54 -0.84 0.03
1 8.06 806 1.389 -8.959 4.789 14.282 10.132 -4.028 -403.237 1992.802 -3576.520 -0.800 0.012 -0.834 -0.06 0.54 -0.84 0.03
1 8.07 807 1.604 -8.476 4.128 20.691 34.973 2.014 -613.250 1977.662 -3486.579 -1.014 -0.446 -0.117 -0.06 0.54 -0.84 0.03
1 8.08 808 1.733 -8.385 3.649 17.090 45.166 6.042 -613.250 1977.662 -3486.579 -1.163 -0.523 0.397 -0.05 0.54 -0.84 0.03
1 8.09 809 2.054 -8.275 3.318 6.012 44.953 9.033 -673.211 1947.681 -3621.491 -1.512 -0.624 0.752 -0.05 0.54 -0.84 0.03
1 8.10 810 2.457 -8.495 3.189 -10.407 37.476 9.186 -673.211 1947.681 -3621.491 -1.943 -0.403 0.886 -0.05 0.54 -0.84 0.03
1 8.11 811 2.907 -8.720 3.299 -26.672 27.802 4.517 -568.280 1782.789 -3561.530 -2.411 -0.188 0.756 -0.05 0.54 -0.84 0.03
1 8.12 812 3.869 -9.161 3.682 -29.694 23.071 -4.974 -478.338 1947.681 -3501.569 -3.375 0.234 0.332 -0.05 0.54 -0.84 0.02
1 8.13 813 4.180 -9.587 3.960 -15.747 28.992 -10.193 -478.338 1947.681 -3501.569 -3.672 0.642 0.011 -0.05 0.54 -0.84 0.02
1 8.14 814 3.682 -9.596 3.711 4.517 38.757 -13.794 -448.208 1992.802 -3471.438 -3.151 0.641 0.234 -0.05 0.54 -0.84 0.02
1 8.15 815 2.112 -9.036 3.400 26.306 42.938 -18.402 -298.306 2067.753 -3471.438 -1.577 0.095 0.577 -0.04 0.54 -0.84 0.01
1 8.16 816 1.030 -8.701 3.333 27.313 34.027 -22.705 -388.247 1977.662 -3531.549 -0.479 -0.222 0.682 -0.04 0.54 -0.84 0.01
1 8.17 817 0.575 -8.557 3.261 19.531 20.172 -25.513 -388.247 1977.662 -3531.549 -0.005 -0.349 0.789 -0.04 0.54 -0.84 0.01
1 8.18 818 0.498 -8.552 3.357 9.186 5.920 -26.123 -388.247 1932.691 -3456.448 0.098 -0.342 0.715 -0.04 0.54 -0.84 0.01
1 8.19 819 0.699 -8.572 3.529 -3.662 -1.373 -20.996 -298.306 1917.701 -3576.520 -0.070 -0.317 0.550 -0.04 0.54 -0.84 0
1 8.20 820 1.393 -8.600 3.587 -6.470 3.082 -14.923 -298.306 1917.701 -3576.520 -0.732 -0.288 0.488 -0.04 0.54 -0.84 0
1 8.21 821 1.609 -8.720 3.414 -3.418 12.329 -9.491 -373.257 1992.802 -3471.438 -0.922 -0.171 0.651 -0.04 0.54 -0.84 0
1 8.22 822 1.331 -8.648 3.194 3.418 24.078 -3.326 -328.286 1947.681 -3726.572 -0.625 -0.244 0.865 0.04 -0.54 0.84 0
1 8.23 823 0.982 -8.404 3.060 6.348 26.856 0.793 -298.306 1917.701 -3501.569 -0.282 -0.486 1.004 0.04 -0.54 0.84 0
1 8.24 824 0.776 -8.318 2.907 6.622 25.665 4.547 -298.306 1917.701 -3501.569 -0.091 -0.570 1.166 0.04 -0.54 0.84 0
1 8.25 825 0.498 -8.203 2.955 2.228 21.820 6.531 -283.315 2082.743 -3561.530 0.166 -0.683 1.124 0.04 -0.54 0.84 0.01
1 8.26 826 0.761 -8.289 2.926 -6.073 18.036 8.209 -268.325 1872.730 -3621.491 -0.119 -0.597 1.157 0.04 -0.54 0.84 0.01
1 8.27 827 1.135 -8.739 3.213 -19.989 21.179 10.468 -268.325 1872.730 -3621.491 -0.515 -0.152 0.861 0.03 -0.54 0.84 0.01
1 8.28 828 1.350 -8.969 3.266 -23.682 28.076 11.688 -298.306 1917.701 -3501.569 -0.754 0.064 0.782 0.03 -0.54 0.84 0.01
1 8.29 829 1.465 -9.400 3.280 -25.665 43.732 13.519 -283.315 2052.763 -3561.530 -0.927 0.462 0.702 0.03 -0.54 0.84 0.01
1 8.30 830 1.245 -9.505 3.338 -27.039 50.873 14.099 -298.306 1872.730 -3501.569 -0.746 0.549 0.608 0.02 -0.55 0.84 0.01
1 8.31 831 0.532 -9.687 3.793 -20.783 47.791 14.191 -298.306 1872.730 -3501.569 -0.076 0.712 0.117 0.02 -0.55 0.84 0.01
1 8.32 832 -0.455 -9.874 4.765 -14.252 33.753 9.247 -208.214 1977.662 -3636.481 0.868 0.886 -0.880 0.02 -0.55 0.84 0.01
1 8.33 833 -1.432 -10.214 5.263 -20.447 3.510 -7.385 -193.224 1947.681 -3546.540 1.820 1.217 -1.396 0.02 -0.55 0.83 0.01
1 8.34 834 -1.695 -10.683 4.372 -20.874 -52.704 -23.560 -193.224 1947.681 -3546.540 2.105 1.675 -0.535 0.02 -0.55 0.83 0.01
1 8.35 835 -1.034 -10.434 3.931 -8.392 -71.747 -20.813 -163.244 1857.740 -3456.448 1.503 1.415 -0.128 0.02 -0.55 0.83 0.01
1 8.36 836 0.345 -9.438 4.109 -1.678 -57.495 -22.156 -133.263 1977.662 -3531.549 0.260 0.415 -0.334 0.03 -0.55 0.83 0.01
1 8.37 837 0.771 -9.194 4.262 -3.906 -44.953 -19.867 -313.296 1932.691 -3306.546 -0.110 0.171 -0.494 0.03 -0.55 0.83 0.01
1 8.38 838 1.413 -8.993 4.587 -17.059 -10.132 -4.608 -313.296 1932.691 -3306.546 -0.716 -0.032 -0.831 0.04 -0.55 0.83 0.01
1 8.39 839 1.422 -9.094 4.760 -28.809 1.709 2.930 -208.214 1977.662 -3456.448 -0.713 0.061 -1.025 0.04 -0.56 0.83 0.01
1 8.40 840 1.264 -9.486 5.085 -39.673 1.434 4.059 -283.315 2082.743 -3636.481 -0.555 0.439 -1.387 0.04 -0.56 0.83 0.01
1 8.41 841 0.919 -9.970 5.382 -45.593 -11.139 -0.366 -283.315 2082.743 -3636.481 -0.213 0.901 -1.737 0.04 -0.56 0.83 0.01
1 8.42 842 0.623 -10.722 5.148 -32.013 -18.066 -4.028 -208.214 2082.743 -3411.478 0.089 1.628 -1.566 0.04 -0.56 0.83 0.01
1 8.43 843 0.747 -10.487 5.033 -4.059 -18.799 -3.845 -298.306 2022.782 -3501.569 -0.021 1.374 -1.502 0.04 -0.56 0.82 0.01
1 8.44 844 1.312 -9.860 5.042 31.128 -2.319 2.991 -388.247 2082.743 -3411.478 -0.561 0.751 -1.505 0.04 -0.56 0.82 0.01
1 8.45 845 1.341 -9.161 5.014 32.501 11.108 8.728 -388.247 2082.743 -3411.478 -0.595 0.070 -1.429 0.04 -0.56 0.83 0.01
1 8.46 846 1.384 -8.744 4.961 14.923 17.883 12.695 -508.319 2232.795 -3456.448 -0.654 -0.327 -1.324 0.04 -0.56 0.83 0.01
1 8.47 847 1.456 -8.777 5.018 -6.165 16.571 16.174 -328.286 2067.753 -3396.487 -0.749 -0.285 -1.356 0.04 -0.56 0.83 0.01
1 8.48 848 1.566 -8.849 4.923 -19.806 9.216 14.465 -328.286 2067.753 -3396.487 -0.884 -0.216 -1.262 0.04 -0.56 0.83 0.01
1 8.49 849 1.595 -8.979 4.870 -10.468 7.874 10.986 -283.315 2082.743 -3456.448 -0.932 -0.094 -1.225 0.04 -0.56 0.83 0.01
1 8.50 850 1.393 -9.094 4.836 7.935 12.512 8.972 -268.325 2067.753 -3396.487 -0.744 0.017 -1.199 0.03 -0.56 0.83 0.01
1 8.51 851 0.560 -8.730 4.736 31.525 26.581 6.042 -223.205 2067.753 -3396.487 0.062 -0.327 -1.043 0.03 -0.56 0.83 0.01
1 8.52 852 -0.378 -8.505 4.793 38.910 34.027 2.258 -223.205 2067.753 -3396.487 0.978 -0.529 -1.042 0.03 -0.55 0.83 0.01
1 8.53 853 -1.638 -8.289 4.669 36.987 32.990 -3.571 -268.325 2097.733 -3471.438 2.212 -0.718 -0.851 0.03 -0.55 0.83 0.01
1 8.54 854 -2.686 -8.222 4.496 28.778 18.860 -8.789 -313.296 2052.763 -3486.579 3.236 -0.761 -0.619 0.03 -0.55 0.84 0.01
1 8.55 855 -3.275 -8.208 4.166 18.921 -5.707 -8.881 -313.296 2052.763 -3486.579 3.809 -0.757 -0.243 0.02 -0.55 0.84 0.01
1 8.56 856 -2.437 -8.078 3.903 6.287 -40.314 -0.153 -208.214 2127.714 -3531.549 2.963 -0.875 0.048 0.02 -0.55 0.84 0.01
1 8.57 857 -1.561 -8.045 4.176 -3.540 -47.821 7.324 -223.205 1992.802 -3471.438 2.084 -0.903 -0.212 0.03 -0.55 0.84 0.01
1 8.58 858 -0.397 -8.366 4.372 -16.876 -41.382 15.808 -223.205 1992.802 -3471.438 0.922 -0.582 -0.409 0.03 -0.55 0.84 0.01
1 8.59 859 0.785 -9.084 4.904 -33.447 -17.029 28.656 -208.214 1977.662 -3456.448 -0.283 0.113 -0.990 0.03 -0.55 0.84 0
1 8.60 860 1.010 -9.366 5.062 -30.945 -0.458 33.203 -238.345 1887.720 -3606.500 -0.540 0.377 -1.188 -0.03 0.55 -0.84 0
1 8.61 861 0.905 -9.548 4.889 -18.189 12.238 31.006 -328.286 2067.753 -3546.540 -0.477 0.543 -1.046 -0.03 0.55 -0.83 0
1 8.62 862 0.589 -9.687 4.693 -0.519 16.693 25.604 -328.286 2067.753 -3546.540 -0.205 0.676 -0.861 -0.03 0.55 -0.83 0
1 8.63 863 0.283 -9.261 4.324 18.402 13.702 19.501 -313.296 2232.795 -3456.448 0.061 0.253 -0.481 -0.02 0.55 -0.83 0.01
1 8.64 864 -0.172 -8.797 4.391 20.905 9.186 15.991 -358.267 2082.743 -3561.530 0.480 -0.201 -0.520 -0.02 0.55 -0.84 0.01
1 8.65 865 -0.091 -8.734 4.501 15.900 6.500 14.069 -358.267 2082.743 -3561.530 0.368 -0.250 -0.597 -0.02 0.55 -0.84 0.01
1 8.66 866 -0.326 -8.643 4.425 9.796 5.310 13.367 -163.244 2052.763 -3456.448 0.551 -0.320 -0.469 -0.02 0.55 -0.84 0.01
1 8.67 867 -0.589 -8.619 4.200 11.688 3.601 15.167 -163.244 1977.662 -3561.530 0.789 -0.336 -0.225 -0.02 0.54 -0.84 0.01
1 8.68 868 -0.670 -8.418 4.118 12.726 2.289 18.158 -358.267 2052.763 -3606.500 0.842 -0.529 -0.123 -0.02 0.54 -0.84 0.01
1 8.69 869 -0.603 -8.279 4.152 9.613 0.366 20.477 -358.267 2052.763 -3606.500 0.742 -0.659 -0.136 -0.02 0.54 -0.84 0.01
1 8.70 870 -0.493 -8.188 4.271 3.143 0.671 21.912 -163.244 2007.792 -3531.549 0.598 -0.743 -0.240 -0.01 0.54 -0.84 0.01
1 8.71 871 -0.503 -8.246 4.367 -4.791 2.289 19.775 -148.253 2022.782 -3396.487 0.574 -0.683 -0.329 -0.01 0.54 -0.84 0.01
1 8.72 872 -0.555 -8.390 4.410 -6.775 3.418 17.242 -148.253 2022.782 -3396.487 0.594 -0.539 -0.372 -0.01 0.54 -0.84 0.02
1 8.73 873 -0.551 -8.763 4.501 -3.754 2.838 14.771 -133.263 2157.694 -3531.549 0.532 -0.169 -0.469 -0.01 0.54 -0.84 0.02
1 8.74 874 -0.632 -8.811 4.458 -1.434 0.854 11.108 -27.282 2005.693 -3356.463 0.591 -0.121 -0.426 -0.01 0.54 -0.84 0.02
1 8.75 875 -0.733 -9.065 4.444 1.251 -2.930 7.080 -192.325 2020.684 -3581.317 0.675 0.134 -0.409 -0.01 0.54 -0.84 0.02
1 8.76 876 -0.895 -8.902 4.530 5.219 -6.805 3.693 -192.325 2020.684 -3581.317 0.827 -0.025 -0.488 -0.01 0.54 -0.84 0.02
1 8.77 877 -0.991 -8.888 4.286 6.348 -11.444 2.899 -147.204 2065.804 -3476.385 0.918 -0.034 -0.231 -0.01 0.54 -0.84 0.02
1 8.78 878 -0.900 -8.605 4.353 4.059 -14.893 4.852 -27.282 1975.713 -3461.395 0.824 -0.311 -0.286 -0.01 0.54 -0.84 0.02
1 8.79 879 -0.905 -8.447 4.295 2.991 -13.672 6.531 -27.282 1975.713 -3461.395 0.826 -0.465 -0.219 -0.01 0.54 -0.84 0.02
1 8.80 880 -0.718 -8.217 4.037 2.625 -9.064 8.240 -27.282 2005.693 -3491.375 0.627 -0.687 0.055 -0.01 0.54 -0.84 0.02
1 8.81 881 -0.694 -8.093 3.702 2.197 -8.606 8.514 -162.194 1885.771 -3536.346 0.593 -0.809 0.397 -0.01 0.54 -0.84 0.03
1 8.82 882 -0.565 -7.959 3.357 -5.341 -10.162 7.996 -117.224 2020.684 -3476.385 0.454 -0.943 0.741 -0.01 0.54 -0.84 0.03
1 8.83 883 -0.469 -7.997 3.180 -13.184 -12.268 7.904 -117.224 2020.684 -3476.385 0.355 -0.908 0.910 -0.01 0.54 -0.84 0.03
1 8.84 884 -0.153 -8.136 3.328 -21.820 -13.275 8.911 -117.224 2095.785 -3506.366 0.037 -0.778 0.742 -0.01 0.54 -0.84 0.03
1 8.85 885 -0.057 -8.538 3.453 -30.182 -9.644 5.463 -102.233 1930.742 -3641.428 -0.062 -0.390 0.586 -0.01 0.54 -0.84 0.03
1 8.86 886 -0.081 -9.141 3.754 -26.154 -4.242 1.862 -102.233 1930.742 -3641.428 -0.039 0.194 0.243 -0.01 0.54 -0.84 0.03
1 8.87 887 -0.215 -9.659 3.869 -14.954 1.160 -1.038 -147.204 1990.703 -3626.438 0.096 0.695 0.090 -0.01 0.55 -0.84 0.03
1 8.88 888 -0.464 -9.764 3.869 2.289 6.042 -5.035 -207.315 1975.713 -3566.327 0.348 0.785 0.056 -0.01 0.55 -0.84 0.03
1 8.89 889 -0.570 -9.706 3.960 9.216 4.578 -7.080 -207.315 2005.693 -3566.327 0.456 0.729 -0.031 -0.01 0.55 -0.84 0.03
1 8.90 890 -0.623 -9.366 3.625 13.794 -0.153 -9.491 -207.315 2005.693 -3566.327 0.515 0.395 0.317 -0.01 0.55 -0.84 0.03
1 8.91 891 -0.666 -9.046 3.352 15.533 -5.859 -9.918 -237.295 2005.693 -3491.375 0.569 0.082 0.608 -0.01 0.55 -0.84 0.03
1 8.92 892 -0.666 -8.998 3.132 4.944 -14.008 -2.136 -207.315 2005.693 -3461.395 0.583 0.042 0.846 -0.01 0.54 -0.84 0.03
1 8.93 893 -0.460 -8.907 3.165 -5.737 -16.357 2.502 -207.315 2005.693 -3461.395 0.385 -0.046 0.819 -0.01 0.54 -0.84 0.03
1 8.94 894 -0.546 -9.089 3.093 -11.993 -14.557 3.937 -162.194 2005.693 -3386.444 0.476 0.132 0.883 -0.01 0.54 -0.84 0.03
1 8.95 895 -0.421 -9.319 3.204 -10.895 -9.918 4.944 -207.315 1930.742 -3461.395 0.352 0.344 0.732 -0.02 0.55 -0.84 0.03
1 8.96 896 -0.579 -9.477 3.314 -6.226 -8.453 4.852 -237.295 2050.664 -3461.395 0.507 0.494 0.605 -0.02 0.55 -0.84 0.03
1 8.97 897 -0.747 -9.414 3.318 -2.686 -9.888 3.937 -237.295 2050.664 -3461.395 0.671 0.427 0.588 -0.02 0.55 -0.84 0.03
1 8.98 898 -0.948 -9.491 3.352 -2.319 -13.825 2.869 -207.315 2125.765 -3491.375 0.869 0.501 0.548 -0.02 0.55 -0.84 0.03
1 8.99 899 -0.996 -9.448 3.486 -3.143 -18.127 1.923 -207.315 1930.742 -3461.395 0.916 0.455 0.408 -0.02 0.55 -0.84 0.03
1 9.00 900 -1.288 -9.433 3.630 -1.038 -23.712 -0.702 -207.315 1930.742 -3461.395 1.211 0.438 0.257 -0.02 0.55 -0.83 0.04
1 9.01 901 -1.317 -9.218 3.558 4.608 -27.222 -0.702 -267.276 2095.785 -3371.454 1.246 0.220 0.325 -0.02 0.55 -0.83 0.04
1 9.02 902 -0.996 -9.127 3.611 7.996 -28.778 0.519 -267.276 2095.785 -3371.454 0.934 0.130 0.275 -0.02 0.55 -0.83 0.04
1 9.03 903 -0.364 -8.739 3.433 7.446 -26.520 6.165 -282.266 2080.794 -3491.375 0.320 -0.249 0.472 -0.02 0.55 -0.84 0.04
1 9.04 904 -0.053 -8.725 3.309 0.305 -20.722 9.064 -282.266 2080.794 -3491.375 0.012 -0.260 0.603 -0.03 0.55 -0.84 0.04
1 9.05 905 -0.005 -8.811 3.194 -8.118 -15.198 10.498 -387.198 2005.693 -3566.327 -0.037 -0.176 0.714 -0.03 0.55 -0.84 0.04
1 9.06 906 -0.244 -8.864 2.978 -14.221 -12.543 10.468 -267.276 2065.804 -3551.336 0.197 -0.130 0.914 -0.03 0.55 -0.83 0.04
1 9.07 907 -0.484 -9.242 3.055 -17.761 -16.419 7.263 -267.276 2065.804 -3551.336 0.430 0.238 0.813 -0.03 0.55 -0.83 0.05
1 9.08 908 -0.627 -9.692 3.304 -17.822 -21.088 5.066 -327.237 2185.726 -3506.366 0.570 0.676 0.535 -0.03 0.55 -0.83 0.05
1 9.09 909 -0.895 -9.783 3.352 -14.801 -27.527 2.228 -327.237 2185.726 -3506.366 0.839 0.754 0.458 -0.03 0.55 -0.83 0.05
1 9.10 910 -1.049 -9.898 3.596 -7.965 -34.332 -1.007 -222.305 1990.703 -3551.336 1.010 0.851 0.170 -0.03 0.55 -0.83 0.05
1 9.11 911 -1.049 -9.874 3.955 -3.906 -37.018 0.610 -222.305 1990.703 -3551.336 1.025 0.822 -0.200 -0.03 0.55 -0.83 0.05
1 9.12 912 -0.972 -9.874 4.372 -0.885 -36.743 4.089 -222.305 2095.785 -3581.317 0.961 0.820 -0.621 -0.04 0.55 -0.83 0.05
1 9.13 913 -0.599 -9.946 4.664 -0.366 -34.058 9.735 -387.198 2125.765 -3461.395 0.597 0.892 -0.913 -0.04 0.55 -0.83 0.06
1 9.14 914 -0.148 -9.821 4.846 -2.136 -28.931 18.189 -387.198 2125.765 -3461.395 0.150 0.768 -1.095 -0.04 0.55 -0.83 0.06
1 9.15 915 0.972 -9.520 4.238 -5.707 -17.334 28.137 -462.299 2050.664 -3536.346 -0.982 0.465 -0.489 -0.04 0.55 -0.83 0.06
1 9.16 916 1.437 -9.524 3.730 -11.200 -9.613 30.426 -461.999 2050.064 -3538.445 -1.469 0.470 0.018 -0.04 0.55 -0.83 0.06
1 9.17 917 1.480 -9.644 3.438 -25.513 2.197 27.374 -447.009 2184.977 -3478.334 -1.565 0.575 0.274 -0.04 0.56 -0.83 0.07
1 9.18 918 1.331 -9.558 3.572 -28.107 6.500 23.377 -447.009 2184.977 -3478.334 -1.442 0.473 0.102 -0.04 0.56 -0.83 0.07
1 9.19 919 0.656 -9.831 4.118 -25.604 7.721 18.158 -402.038 2065.055 -3553.435 -0.790 0.731 -0.483 -0.04 0.56 -0.83 0.07
1 9.20 920 0.206 -10.075 4.496 -22.064 6.195 11.231 -327.087 2290.058 -3553.435 -0.360 0.963 -0.894 -0.04 0.56 -0.82 0.07
1 9.21 921 0.115 -10.353 4.860 -16.296 2.563 4.028 -327.087 2290.058 -3553.435 -0.284 1.229 -1.286 -0.04 0.56 -0.82 0.07
1 9.22 922 -0.201 -10.588 4.908 2.716 -4.242 -8.423 -461.999 2125.016 -3418.373 0.030 1.457 -1.352 -0.04 0.56 -0.82 0.07
1 9.23 923 -0.450 -10.583 4.889 21.942 -7.446 -12.939 -461.999 2125.016 -3418.373 0.290 1.452 -1.334 -0.04 0.56 -0.82 0.07
1 9.24 924 -1.010 -9.936 4.506 50.171 -13.184 -18.616 -372.058 2140.006 -3478.334 0.900 0.836 -0.872 -0.04 0.56 -0.83 0.07
1 9.25 925 -1.317 -9.673 4.477 56.610 -15.717 -20.050 -372.058 2140.006 -3478.334 1.243 0.603 -0.767 -0.04 0.56 -0.83 0.07
1 9.26 926 -1.839 -8.624 4.444 59.784 -25.604 -22.492 -327.087 2184.977 -3508.464 1.797 -0.409 -0.644 -0.04 0.55 -0.83 0.07
1 9.27 927 -1.877 -7.743 4.458 47.669 -30.457 -18.127 -461.999 2125.016 -3493.324 1.869 -1.254 -0.573 -0.04 0.55 -0.83 0.07
1 9.28 928 -1.437 -7.106 4.535 25.269 -30.365 -12.329 -461.999 2125.016 -3493.324 1.456 -1.862 -0.584 -0.05 0.54 -0.83 0.07
1 9.29 929 -0.081 -6.987 4.664 -17.181 -18.738 -0.183 -612.051 2050.064 -3493.324 0.128 -1.968 -0.682 -0.05 0.54 -0.84 0.07
1 9.30 930 0.819 -7.298 4.774 -40.802 -6.775 7.843 -612.051 2050.064 -3493.324 -0.755 -1.662 -0.805 -0.05 0.54 -0.84 0.07
1 9.31 931 1.724 -7.987 4.798 -53.559 4.639 13.733 -552.090 2065.055 -3583.416 -1.662 -0.994 -0.877 -0.05 0.55 -0.83 0.07
1 9.32 932 2.868 -9.467 4.846 -45.654 21.515 18.097 -447.009 2019.934 -3553.435 -2.835 0.431 -1.053 -0.05 0.55 -0.83 0.07
1 9.33 933 3.098 -9.999 4.846 -22.705 31.983 18.066 -476.989 2095.035 -3553.435 -3.094 0.941 -1.105 -0.05 0.55 -0.83 0.07
1 9.34 934 3.338 -9.903 4.429 6.439 38.513 13.397 -402.038 2184.977 -3583.416 -3.376 0.837 -0.709 -0.04 0.56 -0.83 0.07
1 9.35 935 3.352 -9.467 3.994 33.112 38.849 5.432 -402.038 2184.977 -3583.416 -3.428 0.409 -0.254 -0.04 0.55 -0.83 0.07
1 9.36 936 2.921 -8.337 3.314 54.688 28.656 -10.956 -597.061 2019.934 -3508.464 -3.022 -0.698 0.480 -0.04 0.55 -0.83 0.07
1 9.37 937 2.442 -7.623 3.299 53.314 17.609 -19.806 -597.061 2019.934 -3508.464 -2.525 -1.381 0.568 -0.04 0.55 -0.83 0.07
1 9.38 938 1.829 -7.470 3.596 36.774 3.998 -28.015 -372.058 2065.055 -3328.432 -1.877 -1.502 0.345 -0.04 0.55 -0.83 0.06
1 9.39 939 1.097 -8.246 4.645 -4.700 -13.397 -26.520 -357.067 2125.016 -3493.324 -1.062 -0.688 -0.618 -0.04 0.54 -0.84 0.06
1 9.40 940 0.589 -9.184 5.301 -33.814 -16.907 -21.301 -327.087 2065.055 -3553.435 -0.501 0.246 -1.285 -0.04 0.54 -0.84 0.06
1 9.41 941 0.575 -9.975 5.555 -48.096 -13.367 -16.754 -402.038 1944.983 -3448.354 -0.443 1.016 -1.583 -0.05 0.54 -0.84 0.06
1 9.42 942 0.666 -10.391 5.253 -33.447 -4.181 -10.437 -402.038 1944.983 -3448.354 -0.506 1.406 -1.345 -0.05 0.55 -0.83 0.06
1 9.43 943 0.924 -10.233 4.904 1.404 8.942 -4.639 -432.019 2125.016 -3613.396 -0.751 1.233 -1.029 -0.05 0.55 -0.83 0.06
1 9.44 944 1.068 -9.180 4.324 49.439 19.226 -3.754 -432.019 2125.016 -3613.396 -0.895 0.187 -0.433 -0.05 0.55 -0.83 0.05
1 9.45 945 1.149 -8.452 4.271 52.735 14.435 -7.385 -447.009 1989.954 -3508.464 -0.978 -0.514 -0.318 -0.05 0.54 -0.84 0.05
1 9.46 946 1.006 -7.896 4.362 32.623 3.174 -12.177 -522.110 2065.055 -3553.435 -0.828 -1.035 -0.332 -0.04 0.54 -0.84 0.05
1 9.47 947 1.130 -8.136 4.592 -8.759 -10.864 -18.799 -522.110 2095.035 -3583.416 -0.902 -0.758 -0.483 -0.05 0.54 -0.84 0.05
1 9.48 948 1.121 -8.605 4.559 -24.017 -8.942 -19.196 -447.009 2065.055 -3583.416 -0.852 -0.293 -0.461 -0.05 0.54 -0.84 0.05
1 9.49 949 0.929 -9.280 4.640 -24.719 -1.343 -18.494 -447.009 2065.055 -3583.416 -0.623 0.370 -0.571 -0.05 0.54 -0.84 0.05
1 9.50 950 0.857 -9.477 4.597 -11.353 9.552 -15.350 -372.058 2095.035 -3553.435 -0.523 0.556 -0.554 -0.05 0.54 -0.84 0.05
1 9.51 951 0.646 -9.295 4.429 16.480 19.806 -11.871 -372.058 2095.035 -3553.435 -0.294 0.372 -0.391 -0.05 0.54 -0.84 0.05
1 9.52 952 0.555 -8.883 4.310 27.100 20.569 -10.620 -597.061 2095.035 -3658.367 -0.196 -0.030 -0.252 -0.05 0.54 -0.84 0.04
1 9.53 953 0.527 -8.361 4.008 28.839 16.693 -9.186 -461.999 2050.064 -3538.445 -0.164 -0.535 0.087 -0.05 0.54 -0.84 0.04
1 9.54 954 0.886 -7.834 3.706 14.160 9.491 -10.315 -537.100 2004.944 -3613.396 -0.512 -1.025 0.466 -0.05 0.53 -0.84 0.04
1 9.55 955 1.111 -7.858 3.812 0.000 5.096 -10.742 -461.999 2080.045 -3538.445 -0.726 -0.993 0.377 -0.05 0.53 -0.84 0.04
1 9.56 956 1.326 -8.217 3.721 -11.780 2.258 -10.590 -461.999 2080.045 -3538.445 -0.929 -0.635 0.465 -0.05 0.53 -0.84 0.04
1 9.57 957 1.417 -8.619 3.702 -15.411 0.336 -11.017 -402.038 1870.032 -3658.367 -1.000 -0.240 0.467 -0.05 0.53 -0.84 0.04
1 9.58 958 1.456 -8.931 3.783 -15.595 -1.099 -10.590 -402.038 1870.032 -3658.367 -1.015 0.062 0.363 -0.05 0.53 -0.84 0.04
1 9.59 959 1.537 -9.261 3.721 -8.942 -2.106 -10.712 -387.048 1974.963 -3613.396 -1.073 0.384 0.405 -0.05 0.54 -0.84 0.03
1 9.60 960 1.461 -9.309 3.931 -5.371 -0.458 -9.460 -402.038 1915.002 -3628.386 -0.972 0.426 0.178 -0.05 0.54 -0.84 0.03
1 9.61 961 1.542 -9.328 3.745 -0.610 5.371 -6.409 -402.038 2095.035 -3628.386 -1.014 0.440 0.350 -0.05 0.54 -0.84 0.03
1 9.62 962 1.408 -9.261 3.716 1.221 10.010 -4.791 -567.081 2154.996 -3418.373 -0.869 0.373 0.377 -0.05 0.54 -0.84 0.03
1 9.63 963 1.360 -9.237 3.505 1.923 12.878 -4.669 -567.081 2154.996 -3418.373 -0.814 0.350 0.589 -0.05 0.54 -0.84 0.03
1 9.64 964 1.144 -9.055 3.405 1.801 12.939 -5.005 -372.058 1915.002 -3553.435 -0.593 0.168 0.689 -0.05 0.54 -0.84 0.03
1 9.65 965 0.953 -9.175 3.395 1.740 12.024 -5.585 -372.058 1915.002 -3553.435 -0.397 0.288 0.699 -0.05 0.54 -0.84 0.03
1 9.66 966 0.852 -9.060 3.520 2.594 8.057 -5.859 -476.989 1944.983 -3583.416 -0.292 0.174 0.574 -0.05 0.54 -0.84 0.03
1 9.67 967 0.718 -9.170 3.534 2.686 4.761 -5.310 -522.110 2140.006 -3583.416 -0.153 0.285 0.561 -0.05 0.54 -0.84 0.03
1 9.68 968 0.670 -9.065 3.706 3.693 1.068 -5.188 -461.999 2050.064 -3568.425 -0.091 0.182 0.392 -0.05 0.54 -0.84 0.03
1 9.69 969 0.608 -9.113 3.658 3.235 -0.031 -4.730 -461.999 2125.016 -3538.445 -0.020 0.231 0.442 -0.05 0.54 -0.84 0.02
1 9.70 970 0.953 -8.979 3.769 3.540 -1.129 -4.089 -461.999 2125.016 -3538.445 -0.357 0.099 0.334 -0.05 0.54 -0.84 0.02
1 9.71 971 0.934 -8.926 3.888 3.906 -0.824 -3.052 -522.110 2019.934 -3583.416 -0.330 0.048 0.218 -0.05 0.54 -0.84 0.02
1 9.72 972 0.919 -8.859 3.567 4.120 0.977 -2.625 -522.110 2019.934 -3583.416 -0.309 -0.016 0.544 -0.05 0.54 -0.84 0.02
1 9.73 973 1.212 -8.806 3.591 0.702 2.319 -1.495 -507.120 2050.064 -3613.396 -0.595 -0.067 0.523 -0.05 0.54 -0.84 0.02
1 9.74 974 1.307 -8.744 3.462 -2.167 3.693 -2.136 -507.120 2050.064 -3538.445 -0.684 -0.128 0.653 -0.05 0.54 -0.84 0.02
1 9.75 975 1.628 -8.715 3.366 -4.730 6.287 -0.916 -507.120 2050.064 -3538.445 -0.999 -0.158 0.745 -0.05 0.54 -0.84 0.02
1 9.76 976 1.623 -8.868 3.405 -10.376 7.751 -0.824 -236.996 1974.963 -3613.396 -0.983 -0.014 0.686 -0.05 0.54 -0.84 0.02
1 9.77 977 1.681 -8.955 3.515 -11.993 10.193 -0.183 -236.996 1974.963 -3613.396 -1.036 0.065 0.559 -0.05 0.54 -0.84 0.02
1 9.78 978 1.642 -8.888 3.381 -9.369 14.832 1.160 -522.110 2065.055 -3553.435 -0.997 -0.010 0.676 -0.05 0.54 -0.84 0.02
1 9.79 979 1.580 -8.902 3.448 -4.303 19.409 2.747 -522.110 2065.055 -3553.435 -0.939 -0.001 0.597 -0.05 0.54 -0.84 0.02
1 9.80 980 1.427 -8.787 3.371 1.312 24.872 5.707 -357.067 1974.963 -3568.425 -0.795 -0.119 0.669 -0.05 0.54 -0.84 0.02
1 9.81 981 1.575 -8.639 3.376 1.617 27.374 7.935 -447.009 1944.983 -3628.386 -0.958 -0.268 0.664 -0.05 0.54 -0.84 0.02
1 9.82 982 1.681 -8.423 3.433 -0.580 30.701 8.392 -447.009 1944.983 -3628.386 -1.082 -0.484 0.609 -0.05 0.54 -0.84 0.02
1 9.83 983 1.805 -8.356 3.251 -6.256 34.119 7.355 -372.058 2140.006 -3658.367 -1.249 -0.555 0.788 -0.04 0.54 -0.84 0.01
1 9.84 984 1.868 -8.217 3.079 -7.935 36.163 6.165 -372.058 2140.006 -3658.367 -1.332 -0.699 0.952 -0.04 0.54 -0.84 0.01
1 9.85 985 1.762 -8.217 2.988 -8.820 37.689 5.524 -327.087 1989.954 -3553.435 -1.246 -0.706 1.032 -0.04 0.54 -0.84 0.01
1 9.86 986 1.700 -8.203 2.639 -9.857 37.659 6.165 -327.087 1989.954 -3553.435 -1.203 -0.726 1.369 -0.04 0.54 -0.84 0.01
1 9.87 987 1.446 -8.150 2.639 -10.986 34.515 7.111 -282.116 2050.064 -3538.445 -0.976 -0.786 1.357 -0.03 0.54 -0.84 0.01
1 9.88 988 0.795 -8.342 2.615 -17.700 22.308 5.188 -402.038 2140.006 -3583.416 -0.354 -0.601 1.369 -0.03 0.54 -0.84 0.01
1 9.89 989 0.259 -8.825 3.280 -28.076 9.064 -1.312 -402.038 2140.006 -3583.416 0.159 -0.127 0.684 -0.03 0.54 -0.84 0.01
1 9.90 990 -0.192 -9.520 4.204 -36.560 -7.629 -5.554 -387.048 2080.045 -3613.396 0.602 0.551 -0.276 -0.03 0.55 -0.84 0.01
1 9.91 991 -1.302 -11.162 5.449 -47.760 -40.100 -10.132 -207.015 2154.996 -3568.425 1.743 2.149 -1.628 -0.03 0.55 -0.83 0.01
1 9.92 992 -1.312 -11.411 5.397 -41.351 -57.984 -13.214 -236.996 2229.947 -3568.425 1.795 2.371 -1.643 -0.03 0.55 -0.83 0.01
1 9.93 993 -0.479 -10.482 4.769 -7.080 -55.786 -10.193 -236.996 2229.947 -3568.425 1.015 1.425 -1.066 -0.04 0.56 -0.83 0.01
1 9.94 994 0.421 -9.438 4.410 21.149 -28.168 -6.653 -357.067 2080.045 -3613.396 0.156 0.383 -0.708 -0.04 0.56 -0.83 0.01
1 9.95 995 0.828 -8.615 4.008 6.348 31.860 -10.345 -192.025 2259.928 -3628.386 -0.231 -0.426 -0.274 -0.04 0.55 -0.83 0.01
1 9.96 996 0.527 -8.667 3.663 -18.127 51.727 -6.866 -192.025 2259.928 -3628.386 0.074 -0.364 0.094 -0.04 0.55 -0.83 0.01
1 9.97 997 -0.120 -8.844 3.496 -36.499 43.762 -0.549 -312.097 2125.016 -3538.445 0.706 -0.191 0.253 -0.04 0.55 -0.83 0.01
1 9.98 998 -0.752 -9.362 4.008 -50.110 -0.336 -3.571 -432.019 2125.016 -3643.376 1.294 0.283 -0.358 -0.03 0.56 -0.83 0
1 9.99 999 -0.876 -10.075 4.712 -52.979 -28.961 -9.644 -357.067 2199.967 -3568.425 1.422 0.969 -1.132 -0.04 0.56 -0.83 0
1 10.00 1000 -0.800 -10.453 5.363 -44.373 -45.349 -14.557 -357.067 2199.967 -3568.425 1.375 1.321 -1.855 -0.04 0.57 -0.82 0
1 10.01 1001 -0.335 -10.918 5.646 -21.240 -46.265 -14.282 -236.996 2080.045 -3613.396 0.957 1.766 -2.196 -0.04 0.57 -0.82 0
1 10.02 1002 0.546 -10.813 5.574 22.644 -20.783 -2.197 -236.996 2350.019 -3358.412 0.118 1.656 -2.146 -0.04 0.57 -0.82 0
1 10.03 1003 1.073 -10.046 5.402 36.774 2.289 7.477 -236.996 2350.019 -3358.412 -0.387 0.899 -1.953 -0.05 0.57 -0.82 0
1 10.04 1004 1.599 -9.429 5.095 29.755 18.311 12.238 -447.009 2290.058 -3403.383 -0.919 0.300 -1.596 -0.05 0.57 -0.82 0.01
