COL1	TIME	ACC_X	ACC_Y	ACC_Z	GYR_X	GYR_Y	GYR_Z	MAG_X	MAG_Y	MAG_Z	LACC_X	LACC_Y	LACC_Z	QUAT_X	QUAT_Y	QUAT_Z	QUAT_W
1 0.00 0 -0.747 -8.500 4.860 0.366 -4.181 -4.700 -164.893 -1844.998 -3134.908 0.104 -0.028 -0.075 0.02 0.51 -0.86 0.03
1 0.01 1 -0.824 -8.663 4.975 0.183 -4.303 -3.723 -119.922 -1574.874 -2984.855 0.190 0.135 -0.188 0.02 0.51 -0.86 0.03
1 0.02 2 -0.690 -8.710 4.889 0.031 -5.371 -2.716 -164.893 -1724.926 -3134.908 0.072 0.184 -0.098 0.02 0.51 -0.86 0.03
1 0.03 3 -0.785 -8.619 4.908 0.885 -5.127 -2.625 0.000 -1784.887 -3044.966 0.175 0.093 -0.115 0.02 0.51 -0.86 0.03
1 0.04 4 -0.785 -8.715 4.880 0.488 -5.066 -2.960 0.000 -1784.887 -3044.966 0.181 0.190 -0.084 0.02 0.51 -0.86 0.03
1 0.05 5 -0.776 -8.840 4.942 -0.458 -5.280 -2.136 -134.912 -1679.956 -3119.917 0.178 0.315 -0.145 0.02 0.5 -0.86 0.03
1 0.06 6 -0.670 -8.701 4.951 0.183 -5.371 -0.397 -59.961 -1784.887 -3044.966 0.078 0.176 -0.153 0.02 0.5 -0.86 0.03
1 0.07 7 -0.713 -8.610 4.951 0.000 -4.791 0.275 -59.961 -1784.887 -3044.966 0.126 0.086 -0.151 0.02 0.5 -0.86 0.03
1 0.08 8 -0.728 -8.667 4.851 0.061 -4.364 0.885 -44.971 -1694.946 -3029.976 0.143 0.145 -0.048 0.02 0.5 -0.86 0.03
1 0.09 9 -0.536 -8.696 4.951 0.610 -4.395 1.190 -119.922 -1694.946 -2984.855 -0.044 0.176 -0.145 0.01 0.5 -0.86 0.03
1 0.10 10 -0.532 -8.653 5.033 1.007 -3.937 1.312 -44.971 -1724.926 -3059.957 -0.047 0.134 -0.223 0.01 0.5 -0.86 0.03
1 0.11 11 -0.613 -8.777 4.932 1.221 -4.364 1.556 -44.971 -1724.926 -3059.957 0.037 0.260 -0.119 0.01 0.5 -0.86 0.03
1 0.12 12 -0.637 -8.710 5.014 1.221 -4.272 2.045 -119.922 -1724.926 -3029.976 0.062 0.195 -0.198 0.01 0.5 -0.86 0.03
1 0.13 13 -0.680 -8.466 4.990 1.312 -4.272 1.892 -224.854 -1724.926 -3104.927 0.106 -0.048 -0.171 0.01 0.5 -0.86 0.03
1 0.14 14 -0.737 -8.615 4.918 0.916 -4.486 0.977 -224.854 -1724.926 -3104.927 0.165 0.103 -0.095 0.01 0.5 -0.86 0.03
1 0.15 15 -0.661 -8.552 4.951 0.824 -4.181 0.824 -179.883 -1829.858 -2939.885 0.090 0.042 -0.126 0.01 0.5 -0.86 0.03
1 0.16 16 -0.618 -8.514 4.899 1.373 -4.150 0.122 -59.961 -1754.907 -3044.966 0.051 0.008 -0.065 0.01 0.5 -0.86 0.03
1 0.17 17 -0.527 -8.543 5.186 1.099 -4.120 -0.031 -119.922 -1619.995 -2984.855 -0.036 0.039 -0.348 0.01 0.5 -0.86 0.03
1 0.18 18 -0.512 -8.557 5.119 1.251 -4.913 -0.427 -119.922 -1619.995 -2984.855 -0.046 0.055 -0.277 0.01 0.5 -0.86 0.03
1 0.19 19 -0.512 -8.528 4.913 0.854 -5.005 -0.763 -179.883 -1634.985 -2969.865 -0.041 0.029 -0.067 0.01 0.5 -0.86 0.03
1 0.20 20 -0.359 -8.519 5.038 0.397 -4.944 -1.434 -299.955 -1769.897 -3134.908 -0.187 0.021 -0.188 0.01 0.5 -0.86 0.03
1 0.21 21 -0.350 -8.500 5.138 0.610 -4.883 -2.228 -299.955 -1769.897 -3134.908 -0.190 0.003 -0.285 0.01 0.5 -0.86 0.03
1 0.22 22 -0.378 -8.476 5.076 0.885 -4.791 -1.923 -254.984 -1709.936 -3014.986 -0.153 -0.020 -0.220 0.01 0.5 -0.86 0.03
1 0.23 23 -0.350 -8.495 5.100 1.160 -3.967 -2.319 -44.971 -1694.946 -2984.855 -0.175 0.001 -0.240 0.01 0.5 -0.86 0.03
1 0.24 24 -0.369 -8.562 5.176 1.434 -4.364 -2.655 -59.961 -1634.985 -3194.869 -0.139 0.072 -0.308 0.01 0.5 -0.86 0.03
1 0.25 25 -0.393 -8.524 5.071 1.740 -3.967 -2.808 -59.961 -1634.985 -3194.869 -0.107 0.036 -0.198 0.01 0.5 -0.86 0.03
1 0.26 26 -0.345 -8.682 5.153 1.495 -4.303 -2.350 -209.863 -1709.936 -3149.898 -0.146 0.196 -0.274 0.01 0.5 -0.86 0.03
1 0.27 27 -0.259 -8.701 5.162 1.343 -4.059 -1.831 -209.863 -1859.988 -3044.966 -0.224 0.218 -0.279 0.01 0.5 -0.86 0.03
1 0.28 28 -0.407 -8.461 5.133 0.854 -4.181 -1.495 -209.863 -1859.988 -3044.966 -0.068 -0.020 -0.247 0.01 0.5 -0.86 0.03
1 0.29 29 -0.326 -8.524 5.200 0.153 -4.181 -1.465 -89.941 -1769.897 -2984.855 -0.142 0.044 -0.310 0.01 0.5 -0.87 0.03
1 0.30 30 -0.364 -8.519 5.196 -0.458 -4.669 -1.007 -134.912 -1709.936 -2969.865 -0.098 0.041 -0.302 0.01 0.5 -0.87 0.03
1 0.31 31 -0.321 -8.543 5.138 -0.732 -5.219 -1.007 -164.893 -1724.926 -3134.908 -0.130 0.066 -0.241 0.01 0.5 -0.87 0.03
1 0.32 32 -0.393 -8.686 5.234 -0.702 -5.310 -0.305 -164.893 -1724.926 -3134.908 -0.052 0.211 -0.334 0.01 0.5 -0.87 0.03
1 0.33 33 -0.397 -8.519 5.148 -0.610 -5.157 0.671 -194.873 -1724.926 -2954.875 -0.042 0.044 -0.247 0.01 0.5 -0.87 0.03
1 0.34 34 -0.575 -8.485 5.100 -0.641 -5.859 1.312 -89.941 -1769.897 -3029.976 0.139 0.011 -0.197 0.01 0.5 -0.87 0.03
1 0.35 35 -0.412 -8.619 5.157 -0.977 -5.737 1.221 -89.941 -1769.897 -3029.976 -0.021 0.146 -0.253 0.01 0.5 -0.87 0.03
1 0.36 36 -0.182 -8.505 5.234 -0.671 -5.127 1.526 -164.893 -1769.897 -3059.957 -0.248 0.032 -0.328 0.01 0.5 -0.87 0.03
1 0.37 37 -0.230 -8.495 5.157 -0.671 -4.944 0.336 -194.873 -1694.946 -3104.927 -0.196 0.023 -0.249 0.01 0.5 -0.87 0.03
1 0.38 38 -0.316 -8.495 5.224 -0.153 -5.249 0.732 -194.873 -1694.946 -3104.927 -0.105 0.024 -0.314 0.01 0.5 -0.87 0.03
1 0.39 39 -0.517 -8.519 5.196 -0.732 -4.883 0.000 -134.912 -1829.858 -3074.947 0.105 0.050 -0.281 0 0.5 -0.87 0.03
1 0.40 40 -0.383 -8.538 4.994 -2.136 -5.463 -0.244 -269.974 -1724.926 -2984.855 -0.025 0.070 -0.079 0 0.5 -0.87 0.03
1 0.41 41 -0.402 -8.505 5.153 -2.045 -5.768 0.092 -224.854 -1844.998 -3209.859 -0.000 0.036 -0.237 0 0.5 -0.87 0.03
1 0.42 42 -0.321 -8.457 5.066 -1.831 -6.226 0.732 -224.854 -1844.998 -3209.859 -0.076 -0.012 -0.151 0 0.5 -0.87 0.03
1 0.43 43 -0.350 -8.514 5.014 -0.549 -5.829 0.275 -284.964 -1709.936 -3149.898 -0.042 0.045 -0.097 0 0.5 -0.87 0.03
1 0.44 44 -0.235 -8.581 5.172 -0.061 -5.890 0.580 -104.932 -1709.936 -3044.966 -0.152 0.113 -0.254 0 0.5 -0.87 0.03
1 0.45 45 -0.086 -8.634 5.172 0.427 -5.249 0.366 -104.932 -1709.936 -3044.966 -0.296 0.167 -0.252 0 0.5 -0.87 0.03
1 0.46 46 -0.211 -8.591 5.119 0.458 -5.554 -0.061 -254.984 -1709.936 -2969.865 -0.161 0.126 -0.194 0 0.5 -0.87 0.04
1 0.47 47 -0.201 -8.557 5.095 0.000 -5.890 -0.427 -344.925 -1919.949 -3164.888 -0.165 0.094 -0.168 0 0.5 -0.87 0.04
1 0.48 48 -0.268 -8.471 5.162 -0.244 -6.073 0.183 -284.964 -1679.956 -3074.947 -0.091 0.009 -0.233 0 0.5 -0.87 0.04
1 0.49 49 -0.187 -8.466 5.052 -0.183 -6.104 -0.092 -284.964 -1679.956 -3074.947 -0.167 0.004 -0.121 0 0.5 -0.87 0.04
1 0.50 50 -0.273 -8.543 5.200 -0.549 -6.592 0.916 -254.984 -1829.858 -3074.947 -0.074 0.082 -0.268 -0 0.5 -0.87 0.04
1 0.51 51 -0.115 -8.658 5.205 -0.275 -6.104 1.312 -344.925 -1844.998 -2984.855 -0.227 0.198 -0.271 -0 0.5 -0.87 0.04
1 0.52 52 -0.134 -8.591 5.071 -0.275 -5.646 1.221 -344.925 -1844.998 -2984.855 -0.203 0.131 -0.135 -0 0.5 -0.87 0.04
1 0.53 53 -0.172 -8.543 5.062 0.427 -4.791 0.916 -344.925 -1694.946 -3164.888 -0.155 0.085 -0.121 -0 0.5 -0.87 0.04
1 0.54 54 -0.158 -8.533 5.196 0.122 -4.364 0.824 -224.854 -1694.946 -3029.976 -0.165 0.077 -0.253 -0 0.5 -0.87 0.04
1 0.55 55 -0.278 -8.624 5.196 1.465 -5.066 1.434 -254.984 -1904.959 -3044.966 -0.041 0.170 -0.250 -0 0.5 -0.87 0.04
1 0.56 56 -0.096 -8.332 5.162 0.580 -5.493 1.465 -254.984 -1904.959 -3044.966 -0.219 -0.121 -0.213 -0 0.5 -0.87 0.04
1 0.57 57 -0.292 -8.600 5.095 1.251 -5.707 1.373 -224.854 -1694.946 -3134.908 -0.019 0.149 -0.143 -0 0.5 -0.87 0.04
1 0.58 58 -0.201 -8.452 5.243 0.519 -5.096 0.488 -254.984 -1754.907 -3119.917 -0.106 0.003 -0.288 -0 0.5 -0.87 0.04
1 0.59 59 -0.177 -8.452 5.119 1.007 -4.730 0.793 -254.984 -1754.907 -3119.917 -0.126 0.005 -0.159 -0 0.5 -0.87 0.04
1 0.60 60 -0.148 -8.591 5.119 1.465 -3.357 1.038 -224.854 -1844.998 -3104.927 -0.147 0.148 -0.152 -0 0.5 -0.87 0.04
1 0.61 61 -0.091 -8.581 5.143 1.526 -3.082 0.702 -344.925 -1724.926 -3209.859 -0.201 0.140 -0.172 -0 0.5 -0.87 0.04
1 0.62 62 -0.029 -8.524 5.124 2.228 -2.838 1.038 -164.893 -1919.949 -3029.976 -0.261 0.085 -0.149 -0.01 0.5 -0.87 0.04
1 0.63 63 -0.172 -8.576 5.153 2.106 -3.052 0.977 -164.893 -1919.949 -3029.976 -0.114 0.140 -0.174 -0.01 0.5 -0.87 0.04
1 0.64 64 -0.182 -8.653 5.239 2.014 -2.991 1.373 -254.984 -1904.959 -3014.986 -0.102 0.219 -0.256 -0.01 0.5 -0.87 0.04
1 0.65 65 -0.101 -8.461 5.133 0.183 -3.693 1.007 -389.896 -1859.988 -3119.917 -0.181 0.030 -0.147 -0.01 0.5 -0.87 0.04
1 0.66 66 -0.091 -8.519 5.062 0.610 -3.296 0.458 -389.896 -1859.988 -3119.917 -0.188 0.088 -0.073 -0.01 0.5 -0.87 0.04
1 0.67 67 -0.230 -8.452 5.014 0.763 -3.632 0.427 -269.974 -1724.926 -3209.859 -0.046 0.023 -0.022 -0.01 0.5 -0.87 0.04
1 0.68 68 -0.101 -8.557 4.990 0.427 -3.479 1.007 -194.873 -1799.877 -3134.908 -0.168 0.131 0.007 -0.01 0.49 -0.87 0.04
1 0.69 69 -0.220 -8.586 5.157 0.641 -3.174 0.946 -284.964 -1829.858 -2894.914 -0.045 0.161 -0.159 -0.01 0.49 -0.87 0.04
1 0.70 70 -0.182 -8.691 5.052 1.007 -3.296 1.099 -284.964 -1829.858 -2894.914 -0.081 0.268 -0.051 -0.01 0.49 -0.87 0.04
1 0.71 71 -0.062 -8.552 5.018 0.946 -2.777 1.190 -194.873 -1919.949 -3164.888 -0.198 0.130 -0.015 -0.01 0.49 -0.87 0.04
1 0.72 72 -0.077 -8.437 5.100 0.336 -3.082 1.831 -224.854 -1769.897 -2984.855 -0.181 0.016 -0.094 -0.01 0.49 -0.87 0.04
1 0.73 73 -0.096 -8.552 4.961 0.031 -3.632 1.709 -224.854 -1769.897 -2984.855 -0.160 0.133 0.047 -0.01 0.49 -0.87 0.04
1 0.74 74 0.000 -8.466 5.018 -0.519 -4.272 1.831 -389.896 -1784.887 -3194.869 -0.254 0.048 -0.008 -0.01 0.49 -0.87 0.04
1 0.75 75 0.019 -8.581 5.057 0.305 -3.540 0.702 -284.964 -1829.858 -3194.869 -0.267 0.163 -0.046 -0.01 0.49 -0.87 0.04
1 0.76 76 -0.225 -8.548 4.971 1.068 -2.899 1.068 -269.974 -1799.877 -3134.908 -0.019 0.130 0.042 -0.01 0.49 -0.87 0.04
1 0.77 77 0.038 -8.495 4.980 1.373 -2.960 0.916 -269.974 -1799.877 -3134.908 -0.280 0.079 0.035 -0.01 0.49 -0.87 0.04
1 0.78 78 -0.172 -8.624 5.018 0.916 -2.411 0.702 -224.854 -1724.926 -3059.957 -0.065 0.210 -0.001 -0.01 0.49 -0.87 0.04
1 0.79 79 -0.125 -8.619 5.081 1.526 -2.045 0.336 -359.916 -1709.936 -3044.966 -0.110 0.206 -0.061 -0.01 0.49 -0.87 0.04
1 0.80 80 -0.163 -8.648 5.124 1.068 -2.258 -0.244 -359.916 -1709.936 -3044.966 -0.069 0.236 -0.102 -0.01 0.49 -0.87 0.04
1 0.81 81 -0.187 -8.505 5.009 0.793 -1.831 -0.336 -344.925 -1919.949 -3104.927 -0.043 0.094 0.016 -0.01 0.49 -0.87 0.04
1 0.82 82 -0.134 -8.648 4.971 0.977 -1.526 -0.153 -269.974 -1769.897 -3134.908 -0.091 0.239 0.057 -0.01 0.49 -0.87 0.04
1 0.83 83 -0.101 -8.605 4.889 1.099 -1.373 -0.183 -389.896 -1754.907 -3119.917 -0.122 0.197 0.141 -0.01 0.49 -0.87 0.04
1 0.84 84 -0.153 -8.533 4.966 0.854 -1.770 -0.244 -389.896 -1754.907 -3119.917 -0.067 0.126 0.065 -0.01 0.49 -0.87 0.04
1 0.85 85 -0.029 -8.461 5.057 -0.031 -1.892 0.122 -299.955 -1889.969 -3104.927 -0.188 0.055 -0.024 -0.01 0.49 -0.87 0.04
1 0.86 86 -0.081 -8.433 4.990 -0.214 -1.709 -0.275 -209.863 -1784.887 -3044.966 -0.133 0.027 0.044 -0.01 0.49 -0.87 0.04
1 0.87 87 -0.177 -8.567 5.129 0.092 -1.038 -0.305 -209.863 -1784.887 -3044.966 -0.034 0.161 -0.094 -0.01 0.49 -0.87 0.04
1 0.88 88 -0.077 -8.466 4.985 -0.092 -0.977 -0.488 -254.984 -1829.858 -3119.917 -0.132 0.061 0.051 -0.01 0.49 -0.87 0.04
1 0.89 89 -0.206 -8.442 5.105 -0.397 -0.671 -0.946 -254.984 -1829.858 -3119.917 -0.002 0.038 -0.068 -0.01 0.49 -0.87 0.04
1 0.90 90 -0.048 -8.586 5.066 -0.305 0.153 -2.197 -344.925 -1724.926 -3104.927 -0.154 0.182 -0.029 -0.01 0.49 -0.87 0.04
1 0.91 91 -0.091 -8.615 5.066 -0.916 -0.183 -1.556 -344.925 -1724.926 -3104.927 -0.107 0.211 -0.029 -0.01 0.49 -0.87 0.04
1 0.92 92 -0.091 -8.524 5.114 -1.221 -0.519 -1.251 -329.935 -1859.988 -3119.917 -0.103 0.119 -0.077 -0.01 0.49 -0.87 0.04
1 0.93 93 -0.105 -8.648 5.071 -0.336 -1.678 -0.427 -209.863 -1784.887 -3044.966 -0.086 0.244 -0.035 -0.01 0.49 -0.87 0.04
1 0.94 94 -0.196 -8.586 4.980 -0.702 -1.404 0.092 -209.863 -1784.887 -3044.966 0.009 0.181 0.056 -0.01 0.49 -0.87 0.04
1 0.95 95 -0.139 -8.591 4.994 -0.793 -1.801 1.221 -164.893 -1799.877 -3104.927 -0.047 0.186 0.042 -0.01 0.49 -0.87 0.04
1 0.96 96 -0.081 -8.615 5.119 -1.678 -1.648 0.916 -164.893 -1799.877 -3104.927 -0.104 0.209 -0.083 -0.01 0.49 -0.87 0.04
1 0.97 97 0.019 -8.658 5.196 -1.404 -0.977 0.977 -299.955 -1694.946 -3104.927 -0.203 0.252 -0.161 -0.01 0.49 -0.87 0.04
1 0.98 98 0.182 -8.653 4.961 -1.526 -1.129 0.580 -299.955 -1694.946 -3104.927 -0.364 0.247 0.073 -0.01 0.49 -0.87 0.04
1 0.99 99 0.038 -8.605 5.176 -1.007 -1.953 0.397 -209.863 -1829.858 -2894.914 -0.218 0.199 -0.143 -0.01 0.49 -0.87 0.04
1 1.00 100 -0.077 -8.538 5.105 -0.488 -1.526 0.793 -299.955 -1964.920 -3104.927 -0.100 0.131 -0.071 -0.01 0.49 -0.87 0.04
1 1.01 101 -0.148 -8.481 5.066 -0.336 -2.014 0.702 -299.955 -1964.920 -3104.927 -0.027 0.074 -0.033 -0.01 0.49 -0.87 0.04
1 1.02 102 -0.225 -8.572 5.028 -1.282 -2.655 2.167 -299.955 -1964.920 -3059.957 0.050 0.165 0.005 -0.01 0.49 -0.87 0.04
1 1.03 103 -0.225 -8.476 5.076 -1.099 -1.465 1.892 -299.955 -1964.920 -3059.957 0.050 0.069 -0.043 -0.01 0.49 -0.87 0.04
1 1.04 104 -0.105 -8.591 5.090 -1.099 -0.641 1.831 -374.906 -1769.897 -2984.855 -0.070 0.184 -0.057 -0.01 0.49 -0.87 0.04
1 1.05 105 -0.096 -8.538 5.009 -1.068 -0.763 1.221 -374.906 -1769.897 -2984.855 -0.079 0.131 0.024 -0.01 0.49 -0.87 0.04
1 1.06 106 0.019 -8.505 5.138 -1.343 -0.183 0.427 -374.906 -1844.998 -3134.908 -0.192 0.097 -0.106 -0.01 0.49 -0.87 0.04
1 1.07 107 -0.043 -8.461 5.124 -1.617 -0.366 0.214 -329.935 -1979.910 -3119.917 -0.129 0.054 -0.092 -0.01 0.49 -0.87 0.04
1 1.08 108 -0.125 -8.557 5.148 -0.763 -0.946 0.641 -329.935 -1979.910 -3119.917 -0.046 0.150 -0.115 -0.01 0.49 -0.87 0.04
1 1.09 109 -0.139 -8.524 5.220 -1.038 -0.702 0.519 -284.964 -1904.959 -3119.917 -0.031 0.116 -0.187 -0.01 0.49 -0.87 0.04
1 1.10 110 -0.043 -8.591 5.162 -0.275 -0.824 -0.275 -284.964 -1904.959 -3119.917 -0.126 0.183 -0.130 -0.01 0.49 -0.87 0.04
1 1.11 111 -0.163 -8.490 5.105 -0.793 -0.946 -0.458 -254.984 -1754.907 -3044.966 -0.005 0.083 -0.071 -0.01 0.49 -0.87 0.04
1 1.12 112 -0.038 -8.418 5.143 -0.549 0.092 -0.092 -224.854 -1844.998 -3164.888 -0.126 0.012 -0.109 -0.01 0.49 -0.87 0.04
1 1.13 113 -0.139 -8.481 5.272 -1.373 -0.214 -0.763 -359.916 -1709.936 -3044.966 -0.024 0.074 -0.238 -0.01 0.49 -0.87 0.04
1 1.14 114 0.038 -8.428 5.176 -1.617 -0.610 -0.458 -344.925 -1799.877 -3104.927 -0.199 0.022 -0.141 -0.01 0.49 -0.87 0.04
1 1.15 115 -0.062 -8.366 5.172 -1.953 -0.366 -0.122 -344.925 -1799.877 -3104.927 -0.096 -0.040 -0.136 -0.01 0.49 -0.87 0.04
1 1.16 116 -0.014 -8.481 5.148 -2.716 -0.488 0.153 -344.925 -1769.897 -3104.927 -0.143 0.075 -0.112 -0.01 0.49 -0.87 0.04
1 1.17 117 -0.034 -8.342 5.248 -3.204 -0.610 0.977 -344.925 -1769.897 -3104.927 -0.122 -0.065 -0.214 -0.01 0.49 -0.87 0.04
1 1.18 118 0.014 -8.337 5.124 -3.235 -0.610 1.129 -419.876 -1844.998 -3059.957 -0.168 -0.071 -0.092 -0.01 0.49 -0.87 0.04
1 1.19 119 -0.010 -8.538 5.186 -3.082 0.000 1.068 -344.925 -1799.877 -3104.927 -0.142 0.127 -0.158 -0.01 0.49 -0.87 0.04
1 1.20 120 -0.081 -8.490 5.258 -2.350 -0.122 0.397 -299.955 -1649.975 -3134.908 -0.069 0.078 -0.232 -0.01 0.49 -0.87 0.04
1 1.21 121 -0.139 -8.548 5.181 -1.923 -0.488 0.275 -254.984 -1679.956 -3014.986 -0.011 0.135 -0.156 -0.01 0.49 -0.87 0.04
1 1.22 122 0.038 -8.528 5.143 -2.045 -0.153 -0.275 -254.984 -1679.956 -3014.986 -0.188 0.116 -0.118 -0.01 0.49 -0.87 0.04
1 1.23 123 0.029 -8.505 5.191 -2.838 0.336 0.427 -284.964 -1859.988 -3014.986 -0.176 0.091 -0.168 -0.01 0.49 -0.87 0.04
1 1.24 124 0.053 -8.572 5.354 -2.441 0.214 0.275 -284.964 -1859.988 -3014.986 -0.200 0.157 -0.332 -0.01 0.49 -0.87 0.04
1 1.25 125 0.024 -8.552 5.186 -2.319 -0.183 0.305 -344.925 -1889.969 -3164.888 -0.169 0.137 -0.166 -0.01 0.49 -0.87 0.04
1 1.26 126 -0.019 -8.648 5.315 -2.716 0.458 -0.214 -344.925 -1724.926 -3134.908 -0.121 0.231 -0.298 -0.01 0.49 -0.87 0.04
1 1.27 127 0.067 -8.591 5.229 -2.960 0.580 0.549 -329.935 -1859.988 -3074.947 -0.207 0.173 -0.213 -0.01 0.49 -0.87 0.04
1 1.28 128 -0.139 -8.471 5.330 -1.709 0.488 0.916 -284.964 -1859.988 -3014.986 0.000 0.053 -0.314 -0.01 0.49 -0.87 0.04
1 1.29 129 -0.057 -8.500 5.239 -2.014 0.946 1.617 -284.964 -1859.988 -3014.986 -0.081 0.081 -0.223 -0.01 0.49 -0.87 0.04
1 1.30 130 0.057 -8.533 5.148 -0.702 0.854 2.106 -284.964 -1859.988 -2969.865 -0.198 0.115 -0.132 -0.01 0.49 -0.87 0.04
1 1.31 131 0.034 -8.548 5.205 -1.312 0.977 1.495 -284.964 -1859.988 -2969.865 -0.175 0.131 -0.188 -0.01 0.49 -0.87 0.04
1 1.32 132 0.125 -8.528 5.148 -2.167 0.946 2.502 -464.997 -1709.936 -3149.898 -0.267 0.112 -0.130 -0.01 0.49 -0.87 0.04
1 1.33 133 -0.043 -8.471 5.148 -1.923 0.732 2.106 -254.984 -1709.936 -3119.917 -0.100 0.054 -0.130 -0.01 0.49 -0.87 0.04
1 1.34 134 -0.024 -8.615 5.148 -1.984 1.923 1.068 -329.935 -1754.907 -3044.966 -0.122 0.196 -0.133 -0.01 0.49 -0.87 0.04
1 1.35 135 -0.053 -8.605 5.205 -1.343 2.380 1.068 -269.974 -1769.897 -3209.859 -0.095 0.186 -0.191 -0.01 0.49 -0.87 0.04
1 1.36 136 -0.091 -8.519 5.018 -0.885 1.831 1.129 -269.974 -1769.897 -3209.859 -0.059 0.100 -0.004 -0.01 0.49 -0.87 0.04
1 1.37 137 -0.115 -8.528 5.105 -1.068 2.838 1.556 -344.925 -1919.949 -3104.927 -0.037 0.110 -0.091 -0.01 0.49 -0.87 0.04
1 1.38 138 -0.278 -8.514 5.081 -1.587 1.862 1.648 -344.925 -1919.949 -3104.927 0.123 0.095 -0.067 -0.01 0.49 -0.87 0.04
1 1.39 139 -0.139 -8.519 5.119 -2.197 1.709 1.862 -419.876 -1799.877 -3104.927 -0.020 0.099 -0.107 -0.01 0.49 -0.87 0.04
1 1.40 140 -0.110 -8.346 5.095 -1.251 1.068 2.777 -164.893 -1844.998 -2954.875 -0.052 -0.074 -0.084 -0.01 0.49 -0.87 0.04
1 1.41 141 -0.153 -8.552 5.138 -2.167 0.397 4.211 -209.863 -1829.858 -3119.917 -0.016 0.132 -0.128 -0.01 0.49 -0.87 0.04
1 1.42 142 -0.038 -8.581 5.109 -2.502 1.007 3.784 -284.964 -1829.858 -3014.986 -0.135 0.160 -0.101 -0.01 0.49 -0.87 0.04
1 1.43 143 -0.038 -8.552 4.975 -2.136 1.099 3.326 -284.964 -1829.858 -3014.986 -0.139 0.130 0.032 -0.01 0.49 -0.87 0.04
1 1.44 144 0.038 -8.466 5.138 -1.831 2.380 2.686 -374.906 -1919.949 -3104.927 -0.219 0.043 -0.133 -0.01 0.49 -0.87 0.04
1 1.45 145 -0.153 -8.485 4.994 -1.923 2.106 2.106 -374.906 -1919.949 -3104.927 -0.031 0.061 0.010 -0.01 0.49 -0.87 0.04
1 1.46 146 -0.014 -8.543 5.071 -2.991 1.709 1.434 -194.873 -1694.946 -3104.927 -0.173 0.118 -0.069 -0.01 0.49 -0.87 0.04
1 1.47 147 -0.062 -8.619 5.014 -2.136 1.892 1.831 -209.863 -1829.858 -3044.966 -0.128 0.193 -0.014 -0.01 0.49 -0.87 0.04
1 1.48 148 -0.129 -8.548 5.066 -0.885 0.488 2.625 -194.873 -1769.897 -3134.908 -0.065 0.120 -0.069 -0.01 0.49 -0.87 0.04
1 1.49 149 0.062 -8.643 5.172 -0.977 0.977 2.838 -374.906 -1919.949 -3104.927 -0.260 0.215 -0.175 -0.01 0.49 -0.87 0.04
1 1.50 150 -0.091 -8.653 5.018 -1.862 1.068 2.075 -374.906 -1919.949 -3104.927 -0.108 0.225 -0.022 -0.01 0.49 -0.87 0.04
1 1.51 151 -0.110 -8.629 5.028 -1.923 1.587 2.502 -269.974 -1889.969 -3104.927 -0.092 0.200 -0.033 -0.01 0.5 -0.87 0.04
1 1.52 152 -0.091 -8.586 5.028 -2.075 2.625 2.075 -269.974 -1889.969 -3104.927 -0.114 0.156 -0.035 -0.01 0.5 -0.87 0.04
1 1.53 153 -0.278 -8.423 5.038 -2.258 2.716 1.434 -209.863 -1859.988 -3074.947 0.070 -0.008 -0.046 -0.01 0.5 -0.87 0.04
1 1.54 154 -0.168 -8.562 5.124 -2.747 2.441 0.732 -269.974 -1799.877 -2984.855 -0.043 0.130 -0.134 -0.01 0.5 -0.87 0.04
1 1.55 155 -0.268 -8.639 5.133 -2.472 2.319 0.793 -269.974 -1799.877 -2984.855 0.055 0.206 -0.145 -0.01 0.5 -0.87 0.04
1 1.56 156 -0.168 -8.528 5.038 -2.045 1.892 0.732 -194.873 -1889.969 -3239.989 -0.050 0.093 -0.054 -0.01 0.5 -0.87 0.04
1 1.57 157 -0.239 -8.653 5.028 -1.160 0.671 1.434 -194.873 -1889.969 -3239.989 0.020 0.216 -0.047 -0.01 0.5 -0.87 0.04
1 1.58 158 -0.254 -8.639 4.999 -2.289 0.732 2.350 -269.974 -1799.877 -3134.908 0.033 0.201 -0.019 -0.01 0.5 -0.87 0.04
1 1.59 159 -0.244 -8.514 5.018 -2.991 0.122 2.289 -269.974 -1799.877 -3134.908 0.020 0.076 -0.040 -0.01 0.5 -0.87 0.04
1 1.60 160 -0.249 -8.414 4.971 -3.510 -0.427 2.655 -164.893 -1799.877 -3059.957 0.022 -0.026 0.005 -0.01 0.5 -0.87 0.04
1 1.61 161 -0.278 -8.404 4.999 -2.930 -0.305 1.862 -269.974 -1769.897 -2984.855 0.048 -0.037 -0.026 -0.01 0.5 -0.87 0.04
1 1.62 162 -0.201 -8.476 5.129 -3.967 -0.610 1.801 -269.974 -1769.897 -2984.855 -0.031 0.033 -0.158 -0.01 0.5 -0.87 0.04
1 1.63 163 -0.302 -8.433 5.071 -5.127 -1.709 3.113 -134.912 -1589.864 -3044.966 0.067 -0.014 -0.108 -0.01 0.5 -0.87 0.04
1 1.64 164 -0.335 -8.423 5.033 -5.219 -2.319 2.777 -134.912 -1589.864 -3044.966 0.098 -0.027 -0.075 -0.01 0.5 -0.87 0.04
1 1.65 165 -0.225 -8.605 5.042 -4.669 -1.190 3.204 -299.955 -1799.877 -2984.855 -0.015 0.152 -0.089 -0.01 0.5 -0.87 0.04
1 1.66 166 -0.244 -8.418 4.975 -4.730 -1.190 3.693 -299.955 -1799.877 -2984.855 0.002 -0.037 -0.027 -0.01 0.5 -0.87 0.04
1 1.67 167 -0.153 -8.567 4.918 -4.883 -0.122 2.869 -269.974 -1889.969 -3059.957 -0.093 0.109 0.026 -0.01 0.5 -0.87 0.04
1 1.68 168 -0.254 -8.624 4.923 -5.157 0.641 3.265 -224.854 -1889.969 -3134.908 0.005 0.163 0.016 -0.01 0.5 -0.87 0.04
1 1.69 169 -0.148 -8.730 4.927 -5.798 0.122 3.937 -224.854 -1889.969 -3134.908 -0.104 0.266 0.007 -0.01 0.5 -0.87 0.04
1 1.70 170 -0.153 -8.720 5.042 -6.012 0.732 4.211 -194.873 -1889.969 -3029.976 -0.105 0.248 -0.123 -0.01 0.5 -0.87 0.04
1 1.71 171 -0.187 -8.744 4.980 -4.761 0.732 4.639 -194.873 -1889.969 -3029.976 -0.076 0.269 -0.067 -0.01 0.5 -0.87 0.04
1 1.72 172 -0.101 -8.763 5.081 -5.280 1.160 5.096 -209.863 -1634.985 -3044.966 -0.168 0.285 -0.173 -0.01 0.5 -0.87 0.04
1 1.73 173 -0.211 -8.777 4.942 -4.730 2.350 4.730 -209.863 -1634.985 -3044.966 -0.063 0.296 -0.040 -0.01 0.5 -0.87 0.04
1 1.74 174 -0.244 -8.801 4.990 -4.913 2.808 4.669 -209.863 -1754.907 -3044.966 -0.037 0.317 -0.093 -0.01 0.5 -0.87 0.04
1 1.75 175 -0.196 -8.773 5.047 -4.883 3.143 4.456 -209.863 -1784.887 -3194.869 -0.092 0.285 -0.156 -0.01 0.5 -0.86 0.04
1 1.76 176 -0.244 -8.758 5.009 -4.334 2.380 3.876 -209.863 -1784.887 -3194.869 -0.051 0.268 -0.123 -0 0.5 -0.86 0.04
1 1.77 177 -0.383 -8.691 4.894 -3.784 2.289 4.730 -329.935 -1754.907 -3074.947 0.082 0.199 -0.013 -0 0.5 -0.86 0.04
1 1.78 178 -0.393 -8.672 4.942 -3.479 2.930 5.066 -104.932 -1709.936 -3074.947 0.077 0.175 -0.069 -0 0.5 -0.86 0.04
1 1.79 179 -0.321 -8.552 5.062 -3.967 2.686 5.829 -134.912 -1709.936 -3074.947 -0.003 0.054 -0.193 -0 0.5 -0.86 0.04
1 1.80 180 -0.378 -8.653 4.966 -4.883 2.991 6.226 -134.912 -1709.936 -3074.947 0.046 0.152 -0.101 -0 0.5 -0.86 0.04
1 1.81 181 -0.326 -8.552 4.865 -5.554 3.326 6.744 -104.932 -1754.907 -3119.917 -0.017 0.049 -0.006 -0 0.5 -0.86 0.04
1 1.82 182 -0.268 -8.610 4.880 -4.913 4.028 6.500 -254.984 -1934.939 -3014.986 -0.085 0.104 -0.025 -0 0.5 -0.86 0.04
1 1.83 183 -0.302 -8.505 4.793 -4.425 4.486 6.378 -254.984 -1934.939 -3014.986 -0.062 -0.004 0.055 -0 0.5 -0.86 0.04
1 1.84 184 -0.527 -8.533 4.813 -4.272 5.188 5.951 -194.873 -1649.975 -3104.927 0.152 0.022 0.031 -0 0.5 -0.86 0.04
1 1.85 185 -0.613 -8.447 4.860 -3.143 5.371 5.402 -134.912 -1829.858 -3044.966 0.216 -0.069 -0.027 0 0.5 -0.86 0.04
1 1.86 186 -0.623 -8.437 4.803 -2.380 5.249 4.150 -224.854 -1619.995 -3029.976 0.214 -0.080 0.027 0 0.5 -0.86 0.04
1 1.87 187 -0.752 -8.461 4.741 -3.113 5.219 4.089 -224.854 -1619.995 -3029.976 0.333 -0.057 0.087 0 0.5 -0.86 0.04
1 1.88 188 -0.752 -8.428 4.745 -4.334 5.188 3.815 -194.873 -1694.946 -3059.957 0.323 -0.092 0.078 0 0.5 -0.86 0.04
1 1.89 189 -0.795 -8.366 4.822 -5.859 4.364 4.150 -194.873 -1769.897 -3164.888 0.356 -0.157 -0.004 0 0.5 -0.86 0.04
1 1.90 190 -0.522 -8.557 4.793 -8.789 3.326 3.235 -194.873 -1769.897 -3164.888 0.073 0.031 0.017 0 0.5 -0.86 0.04
1 1.91 191 -0.503 -8.725 4.707 -9.522 3.143 2.808 -164.893 -1724.926 -2954.875 0.045 0.193 0.093 0 0.51 -0.86 0.04
1 1.92 192 -0.455 -8.873 4.865 -10.742 3.693 2.808 -224.854 -1889.969 -3059.957 -0.014 0.329 -0.089 0.01 0.51 -0.86 0.04
1 1.93 193 -0.460 -8.787 4.937 -11.780 6.409 2.197 -134.912 -1634.985 -3044.966 -0.015 0.235 -0.174 0.01 0.51 -0.86 0.04
1 1.94 194 -0.335 -8.629 4.894 -10.864 11.536 1.984 -134.912 -1634.985 -3044.966 -0.147 0.070 -0.145 0.01 0.51 -0.86 0.04
1 1.95 195 -0.675 -8.888 4.631 -9.033 12.451 1.099 -179.883 -1754.907 -3044.966 0.183 0.322 0.105 0.01 0.51 -0.86 0.04
1 1.96 196 -0.632 -8.983 4.918 -8.148 14.923 0.580 -44.971 -1694.946 -3029.976 0.129 0.411 -0.195 0.01 0.51 -0.86 0.04
1 1.97 197 -0.872 -8.873 4.693 -6.989 10.376 1.038 -44.971 -1694.946 -3029.976 0.356 0.297 0.021 0.01 0.51 -0.86 0.04
1 1.98 198 -0.584 -8.830 4.813 -8.820 9.918 -1.709 -179.883 -1784.887 -2894.914 0.059 0.249 -0.108 0.01 0.51 -0.86 0.04
1 1.99 199 -0.455 -8.959 4.798 -6.958 14.404 -1.495 -179.883 -1784.887 -3014.986 -0.077 0.373 -0.105 0.01 0.51 -0.86 0.04
1 2.00 200 -0.924 -8.773 4.468 -1.373 14.313 -1.709 -89.941 -1619.995 -2984.855 0.379 0.178 0.210 0.01 0.51 -0.86 0.03
1 2.01 201 -1.097 -8.935 4.482 -4.272 7.690 -1.801 -89.941 -1619.995 -2984.855 0.542 0.339 0.191 0.01 0.51 -0.86 0.03
1 2.02 202 -0.982 -8.677 4.492 -8.881 5.096 -2.930 -104.932 -1784.887 -3149.898 0.421 0.076 0.172 0.01 0.51 -0.86 0.03
1 2.03 203 -0.905 -8.878 4.453 -9.247 6.683 -3.479 -59.961 -1589.864 -3014.986 0.341 0.270 0.197 0.01 0.51 -0.86 0.03
1 2.04 204 -0.905 -9.223 4.214 -5.127 18.433 -3.784 -59.961 -1589.864 -3014.986 0.339 0.609 0.424 0.02 0.51 -0.86 0.03
1 2.05 205 -0.857 -9.376 4.477 -4.303 15.472 -3.998 0.000 -1709.936 -3044.966 0.288 0.757 0.152 0.02 0.51 -0.86 0.03
1 2.06 206 -1.087 -9.194 4.209 -4.730 10.590 1.190 -194.873 -1574.874 -2984.855 0.510 0.570 0.409 0.02 0.51 -0.86 0.03
1 2.07 207 -0.891 -9.204 4.271 -7.324 7.996 1.373 -14.990 -1469.942 -3029.976 0.297 0.570 0.328 0.02 0.51 -0.86 0.03
1 2.08 208 -1.039 -9.290 4.300 -5.219 2.899 3.021 -14.990 -1469.942 -3029.976 0.435 0.651 0.287 0.02 0.52 -0.86 0.03
1 2.09 209 -0.469 -9.242 4.597 -0.183 14.587 -3.632 -44.971 -1799.877 -3029.976 -0.141 0.599 -0.019 0.02 0.52 -0.86 0.03
1 2.10 210 -1.279 -8.849 4.013 4.486 12.512 1.465 -89.941 -1619.995 -2954.875 0.660 0.207 0.566 0.02 0.52 -0.86 0.03
1 2.11 211 -1.288 -8.821 4.099 -1.038 2.472 4.456 -89.941 -1619.995 -2954.875 0.657 0.179 0.480 0.02 0.52 -0.86 0.03
1 2.12 212 -1.111 -8.744 4.252 -3.662 -0.580 3.265 -119.922 -1619.995 -2984.855 0.469 0.102 0.324 0.02 0.52 -0.86 0.03
1 2.13 213 -1.001 -8.701 4.094 -3.204 0.183 3.265 59.961 -1679.956 -2939.885 0.350 0.056 0.476 0.02 0.52 -0.86 0.03
1 2.14 214 -0.383 -8.715 4.549 1.465 6.897 -2.899 -59.961 -1709.936 -2969.865 -0.282 0.067 0.013 0.02 0.52 -0.86 0.03
1 2.15 215 -0.852 -8.840 3.917 6.073 17.639 2.014 -59.961 -1709.936 -2969.865 0.184 0.193 0.647 0.02 0.52 -0.86 0.03
1 2.16 216 -1.221 -8.773 3.888 1.251 1.831 4.608 44.971 -1544.894 -2954.875 0.539 0.129 0.679 0.03 0.52 -0.86 0.03
1 2.17 217 -0.828 -8.710 4.238 -5.890 -5.707 4.791 -119.922 -1619.995 -3059.957 0.137 0.065 0.325 0.03 0.52 -0.86 0.03
1 2.18 218 -0.661 -9.041 4.089 -6.042 -0.732 3.174 -119.922 -1619.995 -3059.957 -0.034 0.390 0.463 0.03 0.52 -0.86 0.03
1 2.19 219 -0.862 -8.868 3.903 -1.953 -2.014 3.998 -119.922 -1619.995 -3029.976 0.163 0.214 0.642 0.03 0.52 -0.86 0.03
1 2.20 220 -0.828 -8.926 4.013 -3.479 -2.533 3.632 -44.971 -1469.942 -2984.855 0.126 0.268 0.525 0.03 0.52 -0.85 0.03
1 2.21 221 -0.603 -8.892 4.022 -3.265 -1.282 2.441 -44.971 -1469.942 -2984.855 -0.103 0.232 0.509 0.03 0.52 -0.85 0.03
1 2.22 222 -0.991 -9.003 3.644 2.686 9.155 -1.007 -209.863 -1634.985 -2939.885 0.285 0.337 0.878 0.03 0.52 -0.85 0.03
1 2.23 223 -1.130 -8.902 3.893 0.061 -3.815 1.678 -29.980 -1589.864 -2894.914 0.421 0.235 0.627 0.03 0.52 -0.85 0.03
1 2.24 224 -0.661 -9.026 4.257 -4.089 -5.463 -0.519 14.990 -1619.995 -2879.924 -0.049 0.357 0.258 0.03 0.52 -0.85 0.03
1 2.25 225 -0.790 -9.050 4.018 -2.899 -0.885 -0.793 14.990 -1619.995 -2879.924 0.084 0.377 0.490 0.03 0.52 -0.85 0.03
1 2.26 226 -0.852 -9.146 4.032 -0.671 -5.157 0.092 -119.922 -1724.926 -2909.904 0.149 0.470 0.470 0.03 0.52 -0.85 0.03
1 2.27 227 -0.986 -9.012 4.051 -0.275 -4.913 0.580 -14.990 -1574.874 -2954.875 0.286 0.334 0.448 0.03 0.52 -0.85 0.03
1 2.28 228 -0.991 -8.912 3.860 -0.122 -5.951 0.519 -14.990 -1574.874 -2954.875 0.293 0.231 0.636 0.03 0.52 -0.85 0.03
1 2.29 229 -1.058 -8.916 3.730 1.160 -8.484 0.458 0.000 -1754.907 -3074.947 0.365 0.233 0.760 0.02 0.52 -0.85 0.03
1 2.30 230 -1.049 -8.979 3.826 1.221 -10.590 1.617 0.000 -1709.936 -3014.986 0.359 0.294 0.663 0.02 0.52 -0.85 0.03
1 2.31 231 -1.336 -9.098 3.740 0.061 -12.970 3.113 -29.980 -1559.884 -2969.865 0.649 0.413 0.747 0.02 0.52 -0.85 0.03
1 2.32 232 -1.370 -9.161 3.658 -0.458 -15.625 4.669 -29.980 -1559.884 -2969.865 0.684 0.473 0.825 0.02 0.52 -0.85 0.03
1 2.33 233 -1.465 -9.012 3.783 -0.732 -16.724 4.761 14.990 -1649.975 -2954.875 0.780 0.323 0.696 0.02 0.52 -0.85 0.03
1 2.34 234 -1.384 -9.256 3.601 -3.876 -17.548 4.669 -119.922 -1619.995 -2909.904 0.699 0.565 0.874 0.02 0.52 -0.85 0.03
1 2.35 235 -1.240 -9.017 3.702 -3.326 -22.217 6.287 -119.922 -1619.995 -2909.904 0.559 0.322 0.767 0.02 0.52 -0.85 0.03
1 2.36 236 -1.001 -9.137 3.639 -0.702 -22.736 6.622 -14.990 -1574.874 -2909.904 0.325 0.435 0.817 0.02 0.52 -0.85 0.03
1 2.37 237 -0.972 -8.988 3.697 -0.671 -23.651 6.866 -44.971 -1724.926 -2954.875 0.301 0.284 0.756 0.02 0.52 -0.85 0.03
1 2.38 238 -0.895 -9.074 3.663 -0.031 -24.750 6.836 -164.893 -1574.874 -2984.855 0.230 0.368 0.786 0.02 0.52 -0.85 0.04
1 2.39 239 -0.766 -9.089 3.769 0.702 -25.421 6.012 -164.893 -1574.874 -2984.855 0.108 0.381 0.679 0.02 0.52 -0.85 0.04
1 2.40 240 -0.862 -8.964 3.663 1.465 -25.208 6.226 -209.863 -1589.864 -3074.947 0.211 0.256 0.784 0.02 0.52 -0.85 0.04
1 2.41 241 -0.828 -9.271 3.769 0.183 -25.940 6.805 -89.941 -1694.946 -2984.855 0.186 0.562 0.679 0.01 0.52 -0.85 0.04
1 2.42 242 -0.771 -9.242 3.778 1.526 -26.093 7.294 -89.941 -1694.946 -2984.855 0.136 0.532 0.668 0.01 0.52 -0.85 0.04
1 2.43 243 -0.718 -9.170 3.721 2.563 -26.215 7.080 -89.941 -1619.995 -2804.973 0.091 0.459 0.725 0.01 0.52 -0.85 0.04
1 2.44 244 -0.670 -9.194 3.544 2.075 -24.628 8.331 -104.932 -1634.985 -3149.898 0.061 0.483 0.904 0.01 0.52 -0.85 0.05
1 2.45 245 -0.728 -9.165 3.740 4.181 -27.130 6.622 -284.964 -1709.936 -3014.986 0.126 0.454 0.708 0.01 0.52 -0.85 0.05
1 2.46 246 -0.819 -9.213 3.778 6.134 -25.452 6.531 -284.964 -1709.936 -3014.986 0.225 0.503 0.674 0.01 0.52 -0.85 0.05
1 2.47 247 -0.929 -9.089 3.754 6.836 -26.184 6.897 -269.974 -1694.946 -2849.943 0.344 0.381 0.704 0 0.52 -0.85 0.05
1 2.48 248 -1.030 -9.295 3.721 8.911 -27.100 6.653 -134.912 -1589.864 -2939.885 0.452 0.590 0.745 0 0.52 -0.85 0.05
1 2.49 249 -1.034 -9.266 3.965 8.728 -27.863 7.935 -134.912 -1589.864 -2939.885 0.465 0.566 0.510 0 0.52 -0.85 0.05
1 2.50 250 -1.044 -9.252 4.008 7.599 -28.015 8.514 -344.925 -1574.874 -2984.855 0.480 0.556 0.476 0 0.52 -0.85 0.05
1 2.51 251 -1.226 -9.457 4.013 6.897 -27.405 7.935 -194.873 -1649.975 -2954.875 0.672 0.770 0.488 -0 0.52 -0.85 0.06
1 2.52 252 -1.173 -9.323 4.008 7.446 -29.541 11.444 -299.955 -1649.975 -2954.875 0.623 0.639 0.500 -0 0.52 -0.85 0.06
1 2.53 253 -1.049 -9.319 4.252 7.813 -30.212 13.001 -299.955 -1649.975 -2954.875 0.500 0.639 0.264 -0 0.52 -0.85 0.06
1 2.54 254 -1.393 -9.194 4.243 6.500 -29.114 14.252 -254.984 -1559.884 -3044.966 0.844 0.519 0.283 -0 0.52 -0.85 0.06
1 2.55 255 -0.986 -8.586 4.506 2.930 -26.764 10.925 -299.955 -1724.926 -2909.904 0.433 -0.084 0.028 -0.01 0.52 -0.85 0.06
1 2.56 256 -0.469 -9.290 5.430 0.946 -15.076 9.522 -299.955 -1724.926 -2909.904 -0.083 0.622 -0.891 -0.01 0.52 -0.85 0.07
1 2.57 257 -0.163 -10.070 5.804 -0.092 -4.028 9.918 -209.863 -1709.936 -2864.934 -0.391 1.405 -1.260 -0.01 0.52 -0.85 0.07
1 2.58 258 0.383 -10.631 5.617 -12.878 0.427 13.092 -344.925 -1724.926 -3029.976 -0.956 1.964 -1.077 -0.01 0.52 -0.85 0.07
1 2.59 259 0.699 -9.979 5.445 -5.402 5.920 14.832 -254.984 -1634.985 -2939.885 -1.291 1.307 -0.920 -0.01 0.52 -0.85 0.07
1 2.60 260 0.584 -9.266 5.258 10.620 10.437 12.787 -254.984 -1634.985 -2939.885 -1.198 0.594 -0.734 -0 0.52 -0.85 0.07
1 2.61 261 -0.412 -9.026 5.085 17.212 8.637 12.573 -299.955 -1649.975 -2954.875 -0.221 0.366 -0.543 -0 0.52 -0.85 0.07
1 2.62 262 -0.982 -8.888 5.133 18.890 4.883 9.064 -359.916 -1784.887 -2939.885 0.334 0.242 -0.564 -0 0.52 -0.85 0.07
1 2.63 263 -1.446 -9.548 5.277 18.036 -0.214 4.334 -359.916 -1784.887 -2939.885 0.784 0.919 -0.679 -0 0.52 -0.85 0.07
1 2.64 264 -1.657 -9.553 5.004 16.968 2.441 2.289 -434.867 -1679.956 -3014.986 0.980 0.938 -0.382 -0 0.51 -0.86 0.07
1 2.65 265 -2.002 -9.486 4.817 11.536 -1.404 1.099 -434.867 -1679.956 -3014.986 1.321 0.885 -0.171 -0 0.51 -0.86 0.07
1 2.66 266 -2.294 -9.132 4.645 4.852 -9.735 2.411 -329.935 -1784.887 -3014.986 1.610 0.546 0.030 -0 0.51 -0.86 0.07
1 2.67 267 -2.265 -9.117 4.315 2.472 -13.092 3.052 -329.935 -1784.887 -3014.986 1.574 0.535 0.366 -0 0.51 -0.86 0.07
1 2.68 268 -1.863 -9.232 4.353 -1.678 -14.404 4.272 -299.955 -1799.877 -3029.976 1.167 0.651 0.328 -0 0.51 -0.86 0.07
1 2.69 269 -1.561 -9.232 4.238 -4.669 -14.862 7.416 -329.935 -1859.988 -2969.865 0.860 0.649 0.439 -0 0.51 -0.86 0.07
1 2.70 270 -0.953 -9.113 4.171 -9.613 -17.761 10.895 -329.935 -1859.988 -2969.865 0.246 0.524 0.496 -0 0.51 -0.86 0.07
1 2.71 271 -0.584 -9.266 4.286 -12.573 -17.883 10.803 -284.964 -1829.858 -3014.986 -0.127 0.671 0.368 -0 0.51 -0.86 0.07
1 2.72 272 -0.474 -9.170 4.410 -13.519 -16.846 9.430 -284.964 -1829.858 -3014.986 -0.239 0.566 0.227 -0 0.51 -0.85 0.07
1 2.73 273 -0.335 -9.266 4.511 -10.254 -13.489 7.629 -359.916 -1754.907 -3014.986 -0.374 0.644 0.093 -0 0.51 -0.85 0.08
1 2.74 274 0.000 -9.050 4.621 -8.545 -11.993 4.089 -359.916 -1754.907 -3014.986 -0.704 0.421 -0.030 -0 0.52 -0.85 0.08
1 2.75 275 0.034 -9.070 4.793 -3.235 -6.958 -0.580 -464.997 -1754.907 -2969.865 -0.729 0.435 -0.211 -0.01 0.52 -0.85 0.08
1 2.76 276 0.000 -8.840 4.736 2.991 -3.296 -2.014 -494.978 -1724.926 -2879.924 -0.684 0.204 -0.153 -0.01 0.52 -0.85 0.08
1 2.77 277 -0.024 -8.734 4.635 5.981 -3.448 -3.845 -494.978 -1724.926 -2879.924 -0.648 0.102 -0.045 -0.01 0.52 -0.85 0.08
1 2.78 278 -0.417 -8.457 4.650 9.644 -6.226 -7.538 -359.916 -1784.887 -3014.986 -0.241 -0.172 -0.050 -0.01 0.52 -0.85 0.08
1 2.79 279 -0.742 -8.433 4.736 9.644 -8.179 -10.193 -359.916 -1784.887 -3014.986 0.102 -0.189 -0.121 -0.01 0.51 -0.85 0.08
1 2.80 280 -1.077 -8.433 4.932 12.512 -19.836 -15.289 -389.896 -1904.959 -2969.865 0.480 -0.175 -0.286 -0.01 0.51 -0.86 0.08
1 2.81 281 -1.322 -8.490 4.985 16.815 -26.398 -20.111 -389.896 -1904.959 -2969.865 0.757 -0.108 -0.317 -0.01 0.51 -0.86 0.07
1 2.82 282 -1.293 -8.572 5.215 18.921 -31.525 -18.585 -374.906 -1844.998 -2954.875 0.771 -0.014 -0.518 -0.01 0.51 -0.86 0.07
1 2.83 283 -0.924 -8.447 5.641 16.327 -35.126 -15.045 -569.929 -1799.877 -3059.957 0.444 -0.124 -0.914 -0.02 0.51 -0.86 0.07
1 2.84 284 -0.603 -8.208 5.698 17.670 -35.767 -7.294 -569.929 -1799.877 -3059.957 0.162 -0.349 -0.941 -0.02 0.51 -0.86 0.08
1 2.85 285 -0.110 -7.604 5.856 24.414 -32.929 -6.897 -569.929 -1919.949 -3029.976 -0.298 -0.935 -1.065 -0.02 0.51 -0.86 0.08
1 2.86 286 0.326 -7.303 6.120 25.757 -31.708 -5.432 -569.929 -1919.949 -3029.976 -0.699 -1.215 -1.287 -0.02 0.5 -0.86 0.08
1 2.87 287 0.651 -7.082 6.120 23.254 -29.755 -3.967 -629.890 -1964.920 -3029.976 -0.992 -1.411 -1.242 -0.02 0.5 -0.86 0.08
1 2.88 288 1.154 -6.891 6.038 19.348 -21.912 -4.608 -659.870 -1904.959 -2939.885 -1.426 -1.554 -1.074 -0.03 0.5 -0.86 0.08
1 2.89 289 1.451 -6.436 5.646 16.846 -19.714 1.038 -599.909 -1889.969 -2984.855 -1.694 -1.988 -0.644 -0.03 0.49 -0.87 0.08
1 2.90 290 1.666 -6.685 5.703 13.763 -18.433 2.472 -629.890 -1964.920 -2984.855 -1.889 -1.723 -0.674 -0.03 0.49 -0.87 0.08
1 2.91 291 1.863 -6.872 5.928 7.416 -15.778 6.317 -629.890 -1964.920 -2984.855 -2.069 -1.524 -0.877 -0.03 0.49 -0.87 0.08
1 2.92 292 1.499 -7.599 5.727 -1.221 -12.634 9.949 -674.860 -1964.920 -2954.875 -1.688 -0.785 -0.657 -0.03 0.49 -0.87 0.08
1 2.93 293 0.963 -7.911 5.818 -4.700 -14.832 9.735 -674.860 -1964.920 -2954.875 -1.140 -0.467 -0.737 -0.04 0.49 -0.87 0.08
1 2.94 294 0.804 -8.327 5.780 -6.531 -14.038 8.423 -659.870 -1934.939 -3044.966 -0.971 -0.049 -0.696 -0.04 0.49 -0.87 0.08
1 2.95 295 0.412 -8.835 5.483 -5.981 -13.580 4.517 -764.952 -1784.887 -3074.947 -0.561 0.455 -0.405 -0.04 0.49 -0.87 0.08
1 2.96 296 0.230 -8.816 5.737 -0.977 -18.982 4.822 -734.971 -1859.988 -3074.947 -0.368 0.433 -0.662 -0.04 0.49 -0.87 0.09
1 2.97 297 0.235 -8.830 5.765 4.639 -20.355 1.160 -794.932 -2009.891 -2894.914 -0.359 0.450 -0.686 -0.04 0.49 -0.87 0.09
1 2.98 298 0.177 -8.576 5.478 8.820 -16.357 0.000 -794.932 -2009.891 -2894.914 -0.284 0.203 -0.388 -0.04 0.49 -0.87 0.09
1 2.99 299 0.177 -8.471 5.473 11.719 -15.747 -5.890 -674.860 -1994.900 -2954.875 -0.267 0.107 -0.367 -0.04 0.49 -0.87 0.09
1 3.00 300 0.268 -8.629 4.990 17.273 -12.360 -4.944 -674.860 -1994.900 -2954.875 -0.336 0.276 0.135 -0.05 0.49 -0.87 0.09
1 3.01 301 0.450 -8.509 4.803 19.623 -12.512 -6.958 -734.971 -2099.982 -3044.966 -0.499 0.170 0.344 -0.05 0.49 -0.87 0.09
1 3.02 302 0.589 -8.734 4.726 21.088 -16.937 -2.655 -674.860 -1994.900 -3134.908 -0.594 0.426 0.470 -0.05 0.48 -0.87 0.09
1 3.03 303 0.915 -8.447 4.755 19.562 -16.357 -3.540 -824.913 -1994.900 -2984.855 -0.896 0.153 0.465 -0.05 0.48 -0.87 0.09
1 3.04 304 1.101 -8.088 4.554 16.724 -13.489 -3.693 -779.942 -2189.923 -2849.943 -1.060 -0.192 0.688 -0.05 0.48 -0.87 0.09
1 3.05 305 1.144 -8.054 4.530 13.489 -9.857 -3.906 -779.942 -2189.923 -2849.943 -1.080 -0.214 0.730 -0.05 0.48 -0.87 0.09
1 3.06 306 1.231 -8.131 4.535 11.505 -6.165 -5.219 -764.952 -1979.910 -3224.999 -1.146 -0.128 0.739 -0.05 0.48 -0.87 0.09
1 3.07 307 1.480 -8.270 4.444 12.177 -0.092 -4.974 -764.952 -1979.910 -3224.999 -1.375 0.019 0.843 -0.05 0.48 -0.87 0.09
1 3.08 308 1.393 -8.567 4.334 13.702 2.258 -4.547 -764.952 -1979.910 -3194.869 -1.271 0.324 0.965 -0.05 0.48 -0.87 0.09
1 3.09 309 1.077 -8.490 4.070 16.144 -0.397 -1.251 -914.854 -2054.861 -3044.966 -0.940 0.255 1.241 -0.06 0.48 -0.87 0.09
1 3.10 310 1.863 -7.935 4.271 12.756 11.200 -4.639 -794.932 -1979.910 -3074.947 -1.705 -0.282 1.067 -0.06 0.47 -0.87 0.09
1 3.11 311 1.518 -7.858 3.898 13.855 22.369 -5.066 -764.952 -2129.962 -3074.947 -1.355 -0.350 1.453 -0.06 0.47 -0.88 0.08
1 3.12 312 1.494 -7.757 3.836 14.160 22.400 -4.578 -764.952 -2129.962 -3074.947 -1.332 -0.442 1.529 -0.05 0.47 -0.88 0.08
1 3.13 313 1.710 -7.853 3.951 12.116 23.834 -5.707 -914.854 -2054.861 -2969.865 -1.554 -0.336 1.430 -0.05 0.47 -0.88 0.08
1 3.14 314 1.901 -8.179 3.481 9.460 34.119 -6.714 -914.854 -2054.861 -2969.865 -1.747 -0.004 1.908 -0.05 0.47 -0.88 0.08
1 3.15 315 1.705 -8.236 2.955 10.956 38.361 -3.479 -869.883 -2009.891 -3194.869 -1.555 0.057 2.441 -0.05 0.47 -0.88 0.08
1 3.16 316 1.125 -8.418 2.710 4.395 43.457 -3.143 -899.864 -2219.904 -2984.855 -1.007 0.245 2.696 -0.05 0.47 -0.88 0.08
1 3.17 317 0.910 -8.423 2.600 1.129 45.563 -3.204 -794.932 -2099.982 -3119.917 -0.816 0.244 2.797 -0.04 0.47 -0.88 0.07
1 3.18 318 -0.019 -8.648 2.615 -8.911 49.591 -8.820 -584.919 -2129.962 -3074.947 0.082 0.460 2.770 -0.04 0.47 -0.88 0.07
1 3.19 319 -0.393 -8.979 2.677 -6.958 54.413 -14.435 -584.919 -2129.962 -3074.947 0.428 0.779 2.690 -0.04 0.47 -0.88 0.07
1 3.20 320 -0.555 -8.634 2.768 -3.662 52.887 -19.409 -599.909 -2189.923 -3134.908 0.565 0.419 2.576 -0.04 0.48 -0.88 0.07
1 3.21 321 -0.575 -8.993 2.868 -6.622 52.033 -12.634 -599.909 -2189.923 -3134.908 0.562 0.765 2.455 -0.03 0.48 -0.88 0.06
1 3.22 322 -0.742 -8.380 2.883 -14.160 37.048 2.411 -704.991 -2069.852 -3104.927 0.696 0.136 2.416 -0.03 0.48 -0.88 0.06
1 3.23 323 -0.014 -8.471 2.777 -10.986 40.436 -1.007 -674.860 -2144.953 -3059.957 -0.075 0.208 2.490 -0.03 0.48 -0.87 0.06
1 3.24 324 0.000 -8.777 2.739 -2.533 46.509 -4.883 -659.870 -2174.933 -3119.917 -0.146 0.487 2.484 -0.02 0.48 -0.87 0.06
1 3.25 325 -0.613 -8.299 4.396 1.862 33.844 -3.113 -599.909 -2069.852 -2909.904 0.439 -0.002 0.811 -0.02 0.48 -0.87 0.05
1 3.26 326 -0.838 -8.677 7.494 -11.017 18.707 -9.460 -599.909 -2069.852 -2909.904 0.644 0.373 -2.294 -0.02 0.48 -0.87 0.05
1 3.27 327 -1.508 -10.238 8.236 -58.258 7.965 -7.416 -449.857 -2039.871 -2954.875 1.312 1.919 -3.061 -0.02 0.49 -0.87 0.05
1 3.28 328 -1.963 -10.051 6.685 -80.780 -16.968 -16.846 -449.857 -2039.871 -2954.875 1.775 1.678 -1.596 -0.02 0.49 -0.87 0.05
1 3.29 329 -2.763 -8.528 5.866 -30.243 -17.731 -19.989 -584.919 -2054.861 -3074.947 2.618 0.099 -0.869 -0.02 0.49 -0.87 0.05
1 3.30 330 -3.740 -7.595 6.192 -22.736 -20.233 -23.071 -419.876 -2039.871 -2984.855 3.637 -0.863 -1.242 -0.02 0.5 -0.87 0.05
1 3.31 331 -2.605 -7.738 6.081 -25.635 -27.771 -21.820 -419.876 -2039.871 -2984.855 2.524 -0.732 -1.154 -0.02 0.5 -0.87 0.05
1 3.32 332 1.408 -9.884 7.394 -32.837 -15.045 -13.611 -464.997 -1979.910 -3014.986 -1.433 1.384 -2.515 -0.03 0.5 -0.86 0.05
1 3.33 333 3.026 -11.478 8.002 -46.967 11.993 -0.885 -464.997 -1979.910 -3014.986 -3.031 2.953 -3.168 -0.03 0.5 -0.86 0.05
1 3.34 334 4.410 -12.661 8.423 -86.548 14.343 5.066 -584.919 -2009.891 -2939.885 -4.426 4.096 -3.661 -0.03 0.51 -0.86 0.05
1 3.35 335 5.200 -12.958 7.959 -107.727 3.784 5.981 -584.919 -2009.891 -2939.885 -5.231 4.325 -3.321 -0.03 0.51 -0.86 0.05
1 3.36 336 5.287 -10.683 7.532 -46.723 8.972 1.862 -464.997 -2009.891 -2894.914 -5.326 1.980 -3.028 -0.03 0.52 -0.85 0.05
1 3.37 337 3.366 -9.448 7.504 -6.195 28.259 -3.357 -659.870 -1784.887 -2894.914 -3.413 0.704 -3.079 -0.03 0.52 -0.85 0.05
1 3.38 338 1.207 -9.256 7.255 5.646 43.091 -9.125 -659.870 -1784.887 -2894.914 -1.267 0.503 -2.849 -0.03 0.52 -0.85 0.05
1 3.39 339 -1.259 -9.587 6.177 9.888 27.069 -14.191 -569.929 -1889.969 -2849.943 1.176 0.841 -1.757 -0.02 0.52 -0.85 0.04
1 3.40 340 -1.633 -9.065 6.072 14.130 11.688 -11.475 -569.929 -1889.969 -2849.943 1.553 0.327 -1.636 -0.02 0.52 -0.85 0.04
1 3.41 341 -0.958 -7.844 6.565 11.993 6.561 -11.688 -524.958 -1769.897 -2849.943 0.887 -0.884 -2.108 -0.02 0.52 -0.85 0.04
1 3.42 342 -0.565 -7.130 6.536 3.510 31.860 -10.956 -524.958 -1769.897 -2849.943 0.496 -1.583 -2.051 -0.02 0.52 -0.85 0.04
1 3.43 343 -1.307 -7.154 5.746 -9.216 42.328 -8.881 -509.968 -1634.985 -2789.982 1.224 -1.550 -1.243 -0.02 0.52 -0.85 0.04
1 3.44 344 -1.935 -7.360 5.109 -24.872 23.804 -4.761 -509.968 -1559.884 -2864.934 1.826 -1.345 -0.609 -0.02 0.52 -0.85 0.04
1 3.45 345 -1.781 -7.939 5.157 -33.966 13.092 1.862 -509.968 -1559.884 -2864.934 1.650 -0.775 -0.677 -0.01 0.52 -0.85 0.04
1 3.46 346 -0.302 -8.696 5.378 -37.506 14.069 -1.495 -389.896 -1754.907 -2819.963 0.135 -0.056 -0.972 -0.01 0.52 -0.85 0.04
1 3.47 347 0.096 -9.165 5.306 -34.699 17.853 -1.556 -389.896 -1754.907 -2819.963 -0.273 0.392 -0.942 -0.01 0.53 -0.85 0.03
1 3.48 348 -0.101 -9.529 5.253 -25.116 18.890 5.096 -374.906 -1769.897 -2774.992 -0.086 0.738 -0.927 -0.01 0.53 -0.85 0.03
1 3.49 349 -0.134 -9.074 5.138 -9.857 16.632 7.416 -374.906 -1769.897 -2774.992 -0.074 0.269 -0.840 -0.01 0.53 -0.85 0.03
1 3.50 350 -0.656 -8.279 5.196 10.681 20.691 9.125 -434.867 -1754.907 -2819.963 0.427 -0.526 -0.901 -0.01 0.53 -0.85 0.03
1 3.51 351 -1.092 -7.556 5.124 14.404 21.362 11.353 -494.978 -1574.874 -2699.891 0.838 -1.240 -0.811 -0.01 0.53 -0.85 0.03
1 3.52 352 -1.456 -7.422 5.100 13.153 18.646 11.566 -494.978 -1574.874 -2699.891 1.170 -1.360 -0.761 -0 0.53 -0.85 0.03
1 3.53 353 -1.326 -7.063 4.927 8.698 15.625 15.808 -524.958 -1694.946 -2669.911 0.972 -1.691 -0.537 -0 0.53 -0.85 0.03
1 3.54 354 -1.417 -6.848 5.004 7.263 10.834 14.038 -524.958 -1694.946 -2669.911 1.031 -1.898 -0.598 0 0.52 -0.85 0.04
1 3.55 355 -0.666 -6.747 4.927 0.763 12.787 12.116 -284.964 -1754.907 -2789.982 0.258 -1.994 -0.516 0 0.52 -0.85 0.04
1 3.56 356 -0.464 -7.418 4.908 2.563 21.698 7.538 -284.964 -1754.907 -2789.982 0.036 -1.322 -0.495 0 0.52 -0.85 0.04
1 3.57 357 -0.541 -7.331 4.631 5.463 20.691 4.852 -209.863 -1709.936 -2969.865 0.089 -1.403 -0.209 0.01 0.52 -0.85 0.04
1 3.58 358 -0.656 -7.164 4.645 -0.183 9.918 5.493 -359.916 -1634.985 -2759.852 0.183 -1.566 -0.217 0.01 0.52 -0.85 0.04
1 3.59 359 -0.503 -7.255 4.813 -5.432 10.101 4.211 -359.916 -1634.985 -2759.852 0.015 -1.473 -0.382 0.01 0.52 -0.85 0.04
1 3.60 360 -0.953 -7.753 4.674 -10.010 7.965 1.160 -344.925 -1769.897 -2774.992 0.445 -0.981 -0.256 0.01 0.52 -0.85 0.04
1 3.61 361 -0.953 -7.791 4.511 -9.644 7.111 2.960 -344.925 -1769.897 -2774.992 0.436 -0.945 -0.101 0.01 0.52 -0.85 0.04
1 3.62 362 -1.063 -8.150 4.544 -9.522 1.038 2.899 -329.935 -1679.956 -2759.852 0.536 -0.590 -0.143 0.01 0.52 -0.85 0.04
1 3.63 363 -1.537 -8.054 4.329 -12.024 -5.249 6.744 -329.935 -1679.956 -2759.852 1.000 -0.690 0.063 0.01 0.53 -0.85 0.04
1 3.64 364 -1.432 -8.323 4.401 -13.031 -7.233 3.387 -269.974 -1769.897 -2804.973 0.885 -0.428 -0.022 0.01 0.53 -0.85 0.04
1 3.65 365 -1.393 -8.615 4.262 -10.925 -2.075 2.350 -389.896 -1784.887 -2789.982 0.842 -0.142 0.103 0.01 0.53 -0.85 0.04
1 3.66 366 -1.547 -8.878 3.975 -6.622 -6.500 3.845 -389.896 -1784.887 -2789.982 0.988 0.116 0.379 0.01 0.53 -0.85 0.04
1 3.67 367 -1.484 -8.926 3.884 -5.066 -9.277 4.547 -374.906 -1799.877 -2729.872 0.918 0.160 0.461 0.01 0.53 -0.85 0.04
1 3.68 368 -1.432 -8.897 3.778 -7.721 -7.141 7.721 -254.984 -1634.985 -2759.852 0.852 0.123 0.548 0.01 0.53 -0.85 0.04
1 3.69 369 -1.609 -8.940 3.477 -3.906 -12.970 7.996 -359.916 -1709.936 -2684.901 1.019 0.162 0.839 0.01 0.53 -0.85 0.04
1 3.70 370 -1.441 -8.758 3.443 0.427 -17.548 8.179 -359.916 -1709.936 -2684.901 0.843 -0.023 0.866 0.01 0.53 -0.85 0.04
1 3.71 371 -1.144 -8.572 3.520 0.641 -17.242 7.050 -299.955 -1694.946 -2549.989 0.541 -0.211 0.787 0.01 0.53 -0.85 0.04
1 3.72 372 -1.269 -8.926 3.515 -0.519 -17.120 7.629 -344.925 -1574.874 -2624.940 0.662 0.143 0.790 0.01 0.53 -0.85 0.05
1 3.73 373 -1.159 -9.271 3.496 0.488 -20.996 7.538 -344.925 -1574.874 -2624.940 0.550 0.487 0.807 0.01 0.53 -0.85 0.05
1 3.74 374 -1.053 -9.438 3.644 1.465 -19.409 6.775 -419.876 -1619.995 -2729.872 0.444 0.654 0.657 0.01 0.53 -0.85 0.05
1 3.75 375 -1.178 -9.266 3.788 5.981 -21.607 6.744 -359.916 -1589.864 -2639.930 0.570 0.481 0.513 0 0.53 -0.85 0.05
1 3.76 376 -1.212 -8.916 3.864 9.979 -23.102 7.202 -344.925 -1724.926 -2699.891 0.606 0.135 0.444 0 0.53 -0.85 0.05
1 3.77 377 -1.173 -8.787 3.907 12.207 -23.529 6.470 -344.925 -1724.926 -2699.891 0.570 0.013 0.415 0 0.53 -0.85 0.05
1 3.78 378 -1.231 -8.500 3.802 11.841 -23.316 5.798 -269.974 -1694.946 -2909.904 0.631 -0.267 0.537 0 0.53 -0.85 0.06
1 3.79 379 -1.312 -8.552 3.840 10.407 -23.804 6.226 -434.867 -1634.985 -2714.881 0.716 -0.207 0.514 0 0.53 -0.85 0.06
1 3.80 380 -1.360 -8.691 4.128 9.125 -25.940 7.965 -434.867 -1634.985 -2714.881 0.767 -0.061 0.241 -0 0.53 -0.85 0.06
1 3.81 381 -1.446 -8.792 4.233 6.866 -27.893 9.369 -569.929 -1799.877 -2699.891 0.856 0.046 0.149 -0 0.53 -0.85 0.06
1 3.82 382 -1.547 -9.003 4.420 3.540 -29.968 11.383 -524.958 -1619.995 -2729.872 0.958 0.263 -0.026 -0 0.53 -0.85 0.06
1 3.83 383 -1.753 -8.974 4.482 0.244 -33.600 12.360 -419.876 -1574.874 -2729.872 1.162 0.241 -0.074 -0.01 0.52 -0.85 0.07
1 3.84 384 -1.753 -9.189 4.367 -0.671 -36.194 13.458 -419.876 -1574.874 -2729.872 1.161 0.459 0.045 -0.01 0.52 -0.85 0.07
1 3.85 385 -1.609 -9.395 4.176 -1.831 -38.757 13.886 -659.870 -1709.936 -2609.950 1.015 0.666 0.238 -0.01 0.52 -0.85 0.07
1 3.86 386 -1.614 -9.467 3.946 -0.977 -39.642 14.557 -539.948 -1709.936 -2894.914 1.021 0.737 0.467 -0.01 0.52 -0.85 0.08
1 3.87 387 -1.226 -9.630 3.946 0.671 -39.703 14.099 -539.948 -1709.936 -2894.914 0.634 0.899 0.466 -0.01 0.52 -0.85 0.08
1 3.88 388 -0.895 -10.382 3.946 5.524 -38.086 15.442 -524.958 -1844.998 -2624.940 0.308 1.651 0.467 -0.01 0.52 -0.85 0.08
1 3.89 389 -0.804 -10.554 4.583 8.820 -36.713 14.343 -584.919 -1754.907 -2639.930 0.224 1.828 -0.160 -0.02 0.52 -0.85 0.08
1 3.90 390 -0.618 -10.947 5.880 2.319 -34.363 19.165 -509.968 -1754.907 -2609.950 0.046 2.236 -1.427 -0.02 0.52 -0.85 0.09
1 3.91 391 0.220 -11.320 6.647 -13.702 -26.886 5.646 -509.968 -1754.907 -2609.950 -0.789 2.610 -2.191 -0.02 0.52 -0.85 0.09
1 3.92 392 0.129 -12.053 6.062 -22.278 -14.404 13.886 -674.860 -1694.946 -2774.992 -0.692 3.332 -1.627 -0.02 0.52 -0.85 0.09
1 3.93 393 -0.125 -11.445 5.727 -7.172 -15.808 26.184 -599.909 -1844.998 -2699.891 -0.451 2.713 -1.315 -0.02 0.52 -0.85 0.09
1 3.94 394 0.254 -9.955 5.560 1.526 -15.015 23.834 -599.909 -1844.998 -2699.891 -0.854 1.224 -1.151 -0.02 0.52 -0.85 0.09
1 3.95 395 -0.192 -9.524 4.525 -0.092 -2.960 20.325 -690.000 -1784.887 -2759.852 -0.428 0.796 -0.112 -0.02 0.52 -0.85 0.1
1 3.96 396 -0.953 -9.932 4.439 3.601 -7.751 22.797 -629.890 -1769.897 -2729.872 0.309 1.206 -0.025 -0.02 0.52 -0.85 0.1
1 3.97 397 -1.020 -10.128 4.765 6.226 -6.989 13.886 -764.952 -1709.936 -2684.901 0.337 1.411 -0.339 -0.02 0.52 -0.85 0.1
1 3.98 398 -1.168 -10.295 4.492 3.021 -5.585 13.336 -764.952 -1709.936 -2684.901 0.472 1.584 -0.058 -0.02 0.52 -0.85 0.1
1 3.99 399 -1.662 -10.942 4.410 -5.676 -10.834 13.275 -824.913 -1799.877 -2699.891 0.953 2.230 0.022 -0.02 0.52 -0.85 0.1
1 4.00 400 -1.801 -10.674 4.707 -2.228 -10.498 13.214 -614.899 -1709.936 -2759.852 1.083 1.960 -0.280 -0.02 0.52 -0.85 0.1
1 4.01 401 -1.839 -10.252 4.774 0.519 -9.583 13.123 -614.899 -1709.936 -2759.852 1.111 1.540 -0.346 -0.02 0.52 -0.85 0.11
1 4.02 402 -1.551 -9.424 4.990 -5.341 -14.130 13.397 -584.919 -1709.936 -2684.901 0.814 0.714 -0.559 -0.02 0.52 -0.85 0.11
1 4.03 403 -1.058 -9.127 5.071 -7.385 -14.801 11.780 -614.899 -1784.887 -2684.901 0.312 0.416 -0.643 -0.02 0.52 -0.85 0.11
1 4.04 404 -0.330 -8.907 5.229 -3.784 -12.604 7.874 -674.860 -1694.946 -2594.959 -0.431 0.193 -0.810 -0.02 0.52 -0.84 0.11
1 4.05 405 -0.057 -8.777 5.397 -2.380 -10.925 5.341 -674.860 -1694.946 -2594.959 -0.701 0.065 -0.975 -0.02 0.52 -0.84 0.11
1 4.06 406 0.306 -8.423 5.756 4.242 -10.254 -0.519 -704.991 -1799.877 -2729.872 -1.055 -0.286 -1.326 -0.02 0.52 -0.84 0.11
1 4.07 407 0.541 -8.054 5.856 15.442 -8.606 -6.531 -690.000 -1784.887 -2534.999 -1.271 -0.647 -1.407 -0.02 0.52 -0.85 0.11
1 4.08 408 0.575 -7.508 5.914 29.785 -5.981 -15.472 -690.000 -1784.887 -2534.999 -1.277 -1.176 -1.427 -0.03 0.52 -0.85 0.11
1 4.09 409 0.129 -6.771 5.823 44.098 -13.184 -22.430 -690.000 -1904.959 -2684.901 -0.795 -1.886 -1.279 -0.03 0.52 -0.85 0.11
1 4.10 410 -0.120 -6.134 5.943 37.323 -25.391 -18.738 -794.932 -1754.907 -2714.881 -0.501 -2.489 -1.327 -0.03 0.51 -0.85 0.11
1 4.11 411 -0.326 -5.957 5.943 22.766 -35.767 -11.749 -794.932 -1754.907 -2714.881 -0.250 -2.635 -1.265 -0.03 0.51 -0.85 0.11
1 4.12 412 0.479 -5.368 6.034 9.674 -32.196 -3.815 -734.971 -1709.936 -2714.881 -0.977 -3.196 -1.295 -0.04 0.51 -0.85 0.11
1 4.13 413 0.503 -5.545 5.789 7.507 -25.879 1.648 -674.860 -2039.871 -2699.891 -0.975 -3.011 -1.035 -0.04 0.51 -0.85 0.11
1 4.14 414 0.766 -5.670 5.933 -0.549 -21.851 7.538 -734.971 -1754.907 -2759.852 -1.223 -2.882 -1.168 -0.04 0.51 -0.85 0.11
1 4.15 415 0.623 -6.297 5.991 -14.954 -21.149 10.986 -734.971 -1754.907 -2759.852 -1.075 -2.256 -1.228 -0.04 0.51 -0.85 0.11
1 4.16 416 0.833 -7.408 6.321 -39.734 -19.348 6.989 -929.994 -1889.969 -2729.872 -1.283 -1.158 -1.582 -0.04 0.51 -0.85 0.11
1 4.17 417 0.292 -9.817 6.024 -42.725 -22.308 2.441 -1019.936 -1904.959 -2609.950 -0.728 1.232 -1.317 -0.04 0.51 -0.85 0.12
1 4.18 418 0.335 -10.449 5.837 -36.102 -24.017 0.610 -1019.936 -1904.959 -2609.950 -0.752 1.839 -1.175 -0.04 0.51 -0.85 0.12
1 4.19 419 0.292 -10.066 5.306 5.463 -25.910 -3.479 -839.903 -1859.988 -2684.901 -0.671 1.416 -0.714 -0.05 0.51 -0.85 0.12
1 4.20 420 0.704 -8.773 5.196 34.149 -22.369 -5.402 -989.955 -1859.988 -2609.950 -1.059 0.133 -0.583 -0.05 0.51 -0.85 0.12
1 4.21 421 1.111 -7.868 5.119 45.563 -14.710 -4.486 -869.883 -1859.988 -2714.881 -1.438 -0.743 -0.452 -0.05 0.51 -0.85 0.12
1 4.22 422 1.183 -7.331 4.932 38.971 -9.186 -9.064 -869.883 -1859.988 -2714.881 -1.482 -1.245 -0.200 -0.05 0.51 -0.85 0.12
1 4.23 423 1.063 -8.203 4.607 31.769 -4.913 -7.935 -839.903 -1904.959 -2534.999 -1.331 -0.344 0.180 -0.05 0.5 -0.85 0.12
1 4.24 424 0.886 -8.131 4.396 38.300 -11.627 -7.721 -974.965 -1919.949 -2699.891 -1.129 -0.391 0.436 -0.05 0.5 -0.86 0.12
1 4.25 425 0.996 -7.743 4.698 37.628 -6.928 -9.308 -974.965 -1919.949 -2699.891 -1.213 -0.753 0.183 -0.06 0.5 -0.86 0.12
1 4.26 426 1.288 -7.552 4.650 27.985 -1.556 -12.054 -929.994 -1844.998 -2729.872 -1.477 -0.915 0.281 -0.06 0.5 -0.86 0.12
1 4.27 427 1.475 -7.576 4.281 15.106 2.075 -13.977 -989.955 -1859.988 -2564.979 -1.610 -0.851 0.721 -0.06 0.49 -0.86 0.12
1 4.28 428 1.705 -7.772 4.353 12.787 7.233 -12.817 -944.984 -1934.939 -2714.881 -1.824 -0.643 0.669 -0.06 0.49 -0.86 0.12
1 4.29 429 1.087 -8.447 4.142 15.595 8.942 -11.047 -944.984 -1934.939 -2714.881 -1.181 0.042 0.896 -0.06 0.49 -0.86 0.11
1 4.30 430 0.819 -8.294 4.228 21.393 -1.953 -10.590 -944.984 -1934.939 -2759.852 -0.894 -0.100 0.829 -0.06 0.49 -0.86 0.11
1 4.31 431 0.891 -8.380 4.300 21.484 0.702 -5.066 -1004.945 -2039.871 -2699.891 -0.945 0.000 0.781 -0.06 0.49 -0.86 0.11
1 4.32 432 1.212 -7.992 4.257 14.404 15.595 -7.599 -1004.945 -2039.871 -2699.891 -1.252 -0.374 0.847 -0.06 0.49 -0.86 0.11
1 4.33 433 1.154 -7.350 3.797 13.580 24.170 -9.583 -989.955 -1979.910 -2819.963 -1.185 -1.004 1.325 -0.06 0.48 -0.87 0.11
1 4.34 434 0.766 -7.432 3.247 13.550 32.440 -5.310 -869.883 -1934.939 -2789.982 -0.810 -0.901 1.911 -0.06 0.48 -0.87 0.11
1 4.35 435 0.704 -7.532 3.218 6.866 31.799 -4.181 -944.984 -2099.982 -2789.982 -0.767 -0.790 1.956 -0.06 0.48 -0.87 0.11
1 4.36 436 0.924 -8.260 3.275 -1.312 36.163 -4.456 -944.984 -2099.982 -2789.982 -1.007 -0.057 1.906 -0.05 0.48 -0.87 0.1
1 4.37 437 1.365 -8.265 3.137 -9.308 40.741 -7.935 -1094.887 -2174.933 -2684.901 -1.467 -0.058 2.036 -0.05 0.48 -0.87 0.1
1 4.38 438 1.518 -8.461 2.725 -8.911 44.342 -6.134 -989.955 -1979.910 -2789.982 -1.632 0.125 2.425 -0.05 0.48 -0.87 0.1
1 4.39 439 1.140 -8.112 2.581 -8.728 47.577 -1.129 -989.955 -1979.910 -2789.982 -1.270 -0.239 2.545 -0.05 0.49 -0.87 0.1
1 4.40 440 0.546 -8.246 2.753 -10.254 55.023 -1.709 -764.952 -1979.910 -2759.852 -0.702 -0.120 2.348 -0.04 0.49 -0.87 0.1
1 4.41 441 -0.306 -8.394 2.873 -9.064 56.793 -8.698 -764.952 -2054.861 -2819.963 0.071 0.013 2.200 -0.04 0.49 -0.87 0.09
1 4.42 442 -0.412 -8.615 3.002 -8.392 55.298 -12.085 -779.942 -2339.976 -2774.992 0.147 0.219 2.046 -0.03 0.49 -0.87 0.09
1 4.43 443 -0.642 -8.404 3.596 -10.284 52.796 -17.059 -779.942 -2339.976 -2774.992 0.354 -0.005 1.429 -0.03 0.49 -0.87 0.09
1 4.44 444 -1.010 -8.394 3.654 -13.794 48.096 -14.038 -824.913 -2039.871 -2669.911 0.703 -0.028 1.347 -0.03 0.49 -0.87 0.08
1 4.45 445 -1.355 -8.294 3.338 -15.442 41.382 -7.965 -794.932 -2009.891 -2819.963 1.024 -0.144 1.635 -0.03 0.5 -0.86 0.08
1 4.46 446 -1.231 -8.064 2.792 -13.916 34.973 -2.655 -794.932 -2009.891 -2819.963 0.870 -0.390 2.152 -0.02 0.5 -0.86 0.08
1 4.47 447 -1.183 -8.155 2.840 -6.165 33.020 1.892 -584.919 -2099.982 -2714.881 0.794 -0.312 2.079 -0.02 0.5 -0.86 0.08
1 4.48 448 -1.140 -7.863 7.279 10.864 25.818 2.472 -524.958 -2039.871 -2804.973 0.694 -0.608 -2.371 -0.02 0.5 -0.86 0.08
1 4.49 449 -1.355 -8.136 9.347 15.015 14.984 -2.319 -524.958 -2039.871 -2729.872 0.890 -0.319 -4.414 -0.02 0.5 -0.86 0.07
1 4.50 450 -2.064 -11.406 10.022 -75.714 -3.540 -22.430 -524.958 -2039.871 -2729.872 1.614 2.944 -5.101 -0.02 0.5 -0.86 0.07
1 4.51 451 -2.088 -11.052 6.527 -104.950 -26.703 -24.780 -674.860 -2114.972 -2699.891 1.676 2.519 -1.724 -0.02 0.5 -0.86 0.07
1 4.52 452 -3.041 -9.271 6.536 -39.368 -30.914 -23.193 -584.919 -1934.939 -2639.930 2.685 0.672 -1.848 -0.02 0.51 -0.86 0.07
1 4.53 453 -4.099 -7.154 7.082 -7.202 -23.041 -23.590 -584.919 -1934.939 -2639.930 3.795 -1.465 -2.429 -0.02 0.51 -0.86 0.07
1 4.54 454 -0.613 -7.044 6.608 -34.912 -35.797 -20.416 -539.948 -1859.988 -2684.901 0.358 -1.580 -1.961 -0.03 0.51 -0.86 0.07
1 4.55 455 3.050 -10.961 7.523 -56.824 -21.210 -13.702 -539.948 -1859.988 -2684.901 -3.275 2.328 -2.890 -0.03 0.51 -0.86 0.07
1 4.56 456 5.425 -14.600 7.020 -73.364 18.585 4.974 -674.860 -1844.998 -2669.911 -5.607 5.891 -2.532 -0.03 0.52 -0.85 0.07
1 4.57 457 5.296 -13.628 6.910 -62.988 1.129 5.798 -674.860 -1844.998 -2669.911 -5.495 4.869 -2.519 -0.03 0.52 -0.85 0.07
1 4.58 458 4.990 -10.884 7.274 -20.325 -5.188 2.228 -674.860 -1724.926 -2699.891 -5.193 2.090 -2.954 -0.03 0.53 -0.85 0.07
1 4.59 459 3.366 -8.816 7.456 11.169 10.681 2.625 -659.870 -1709.936 -2609.950 -3.571 0.015 -3.149 -0.03 0.53 -0.85 0.07
1 4.60 460 -0.819 -8.749 6.910 -1.740 24.262 -7.050 -659.870 -1709.936 -2609.950 0.602 -0.043 -2.585 -0.03 0.53 -0.85 0.07
1 4.61 461 -2.524 -9.362 6.512 -19.013 18.250 -17.426 -989.955 -1679.956 -2684.901 2.301 0.578 -2.172 -0.03 0.53 -0.85 0.07
1 4.62 462 -2.993 -9.611 5.837 -19.959 4.974 -21.271 -989.955 -1679.956 -2684.901 2.780 0.817 -1.517 -0.03 0.53 -0.85 0.07
1 4.63 463 -1.719 -9.343 6.125 -2.625 -13.825 -18.433 -764.952 -1709.936 -2609.950 1.557 0.528 -1.845 -0.03 0.53 -0.85 0.07
1 4.64 464 0.230 -8.964 6.824 -1.221 -2.808 -18.005 -764.952 -1709.936 -2609.950 -0.360 0.148 -2.546 -0.03 0.53 -0.84 0.07
1 4.65 465 0.441 -8.739 6.067 -2.472 20.416 -6.104 -659.870 -1634.985 -2384.946 -0.552 -0.077 -1.790 -0.03 0.53 -0.85 0.06
1 4.66 466 -0.048 -8.624 5.502 -3.571 18.829 2.655 -704.991 -1619.995 -2549.989 -0.070 -0.191 -1.222 -0.03 0.53 -0.85 0.06
1 4.67 467 -0.249 -8.548 5.287 -5.249 12.451 7.690 -704.991 -1619.995 -2549.989 0.117 -0.266 -1.003 -0.03 0.53 -0.85 0.06
1 4.68 468 0.345 -8.433 5.737 -9.247 11.322 6.256 -764.952 -1784.887 -2459.897 -0.494 -0.380 -1.453 -0.03 0.53 -0.85 0.06
1 4.69 469 -0.081 -8.476 5.627 -3.540 14.893 11.231 -764.952 -1784.887 -2459.897 -0.081 -0.338 -1.345 -0.03 0.53 -0.85 0.06
1 4.70 470 -0.594 -8.442 5.387 5.432 16.968 7.202 -614.899 -1709.936 -2639.930 0.411 -0.369 -1.102 -0.03 0.53 -0.85 0.06
1 4.71 471 -1.116 -7.939 5.191 14.404 16.571 10.498 -734.971 -1634.985 -2609.950 0.887 -0.853 -0.869 -0.03 0.53 -0.85 0.06
1 4.72 472 -1.365 -7.772 5.301 15.869 15.442 9.796 -629.890 -1724.926 -2594.959 1.107 -1.006 -0.951 -0.02 0.53 -0.85 0.06
1 4.73 473 -1.666 -7.705 5.009 13.123 14.893 10.284 -674.860 -1724.926 -2474.888 1.379 -1.057 -0.629 -0.02 0.53 -0.85 0.07
1 4.74 474 -1.355 -7.063 5.023 9.460 12.329 10.315 -674.860 -1724.926 -2474.888 1.035 -1.686 -0.619 -0.02 0.52 -0.85 0.07
1 4.75 475 -1.125 -7.159 5.071 6.683 18.433 9.186 -674.860 -1724.926 -2444.907 0.781 -1.580 -0.650 -0.02 0.52 -0.85 0.07
1 4.76 476 -0.713 -6.599 4.803 3.662 16.510 11.444 -674.860 -1724.926 -2444.907 0.340 -2.130 -0.364 -0.02 0.52 -0.85 0.07
1 4.77 477 -0.785 -7.116 4.683 2.045 12.054 14.618 -584.919 -1754.907 -2639.930 0.385 -1.609 -0.238 -0.02 0.52 -0.85 0.07
1 4.78 478 0.393 -6.330 5.263 -3.784 5.737 8.453 -599.909 -1694.946 -2669.911 -0.845 -2.389 -0.813 -0.01 0.52 -0.85 0.07
1 4.79 479 -0.340 -7.408 4.726 -1.801 21.393 8.057 -734.971 -1679.956 -2609.950 -0.129 -1.313 -0.281 -0.01 0.52 -0.85 0.07
1 4.80 480 -0.488 -7.389 4.592 0.916 18.250 3.906 -449.857 -1724.926 -2594.959 0.001 -1.330 -0.144 -0.01 0.52 -0.85 0.07
1 4.81 481 -0.982 -7.236 4.707 -0.366 9.277 3.693 -449.857 -1724.926 -2594.959 0.478 -1.481 -0.257 -0.01 0.52 -0.85 0.07
1 4.82 482 -1.101 -7.130 4.851 -3.906 2.838 2.686 -494.978 -1769.897 -2474.888 0.586 -1.586 -0.401 -0.01 0.52 -0.85 0.07
1 4.83 483 -1.039 -7.216 4.741 -6.805 -0.977 -0.061 -494.978 -1769.897 -2474.888 0.519 -1.502 -0.296 -0.01 0.52 -0.85 0.07
1 4.84 484 -1.087 -7.729 4.707 -6.775 2.930 -2.045 -569.929 -1769.897 -2624.940 0.560 -0.990 -0.263 -0.01 0.52 -0.85 0.07
1 4.85 485 -1.164 -7.398 4.741 -4.761 -8.759 -1.770 -419.876 -1799.877 -2519.858 0.631 -1.326 -0.308 -0.01 0.52 -0.85 0.07
1 4.86 486 -1.140 -8.289 4.745 -4.242 -2.502 1.373 -434.867 -1589.864 -2504.868 0.608 -0.435 -0.313 -0.01 0.52 -0.85 0.07
1 4.87 487 -1.001 -8.318 4.860 -5.615 -0.305 -4.547 -584.919 -1754.907 -2459.897 0.466 -0.407 -0.430 -0.01 0.52 -0.85 0.07
1 4.88 488 -1.121 -8.380 4.372 -5.676 2.014 0.977 -584.919 -1754.907 -2459.897 0.583 -0.346 0.056 -0.01 0.52 -0.85 0.07
1 4.89 489 -1.374 -8.433 4.109 -4.303 -4.456 8.423 -569.929 -1694.946 -2624.940 0.831 -0.295 0.315 -0.01 0.52 -0.85 0.07
1 4.90 490 -1.097 -8.437 4.324 -5.188 -4.669 3.754 -569.929 -1694.946 -2624.940 0.543 -0.293 0.093 -0.01 0.52 -0.85 0.07
1 4.91 491 -1.144 -8.811 4.176 -5.188 -3.906 2.655 -584.919 -1634.985 -2459.897 0.585 0.078 0.236 -0.01 0.52 -0.85 0.07
1 4.92 492 -1.111 -9.022 4.051 -6.012 -7.904 2.594 -599.909 -1694.946 -2549.989 0.543 0.282 0.347 -0.01 0.52 -0.85 0.07
1 4.93 493 -1.030 -8.998 3.951 -5.219 -9.186 2.808 -674.860 -1649.975 -2549.989 0.461 0.254 0.439 -0.01 0.53 -0.85 0.07
1 4.94 494 -1.010 -8.950 3.946 0.885 -8.820 2.197 -539.948 -1679.956 -2504.868 0.443 0.204 0.439 -0.01 0.53 -0.85 0.07
1 4.95 495 -1.164 -8.868 3.955 3.967 -9.552 0.366 -539.948 -1679.956 -2504.868 0.597 0.123 0.431 -0.01 0.53 -0.85 0.07
1 4.96 496 -1.317 -8.844 3.716 4.059 -11.871 2.350 -584.919 -1709.936 -2429.917 0.751 0.101 0.674 -0.01 0.53 -0.85 0.08
1 4.97 497 -1.049 -8.787 3.869 4.822 -14.313 0.275 -584.919 -1709.936 -2429.917 0.484 0.045 0.525 -0.01 0.53 -0.85 0.08
1 4.98 498 -0.953 -8.868 3.812 6.226 -12.360 -1.923 -569.929 -1649.975 -2549.989 0.393 0.129 0.586 -0.01 0.52 -0.85 0.08
1 4.99 499 -1.001 -8.840 3.821 8.942 -13.214 -3.845 -584.919 -1709.936 -2609.950 0.449 0.103 0.584 -0.01 0.52 -0.85 0.08
1 5.00 500 -0.862 -8.686 3.850 9.308 -16.235 -4.395 -614.899 -1709.936 -2354.966 0.334 -0.041 0.576 -0.02 0.52 -0.85 0.08
1 5.01 501 -1.135 -8.787 3.783 9.613 -17.120 -3.326 -584.919 -1679.956 -2459.897 0.621 0.064 0.654 -0.02 0.52 -0.85 0.08
1 5.02 502 -1.173 -8.821 4.022 11.017 -17.670 -2.136 -584.919 -1679.956 -2459.897 0.673 0.103 0.427 -0.02 0.52 -0.85 0.08
1 5.03 503 -1.116 -8.801 4.262 12.299 -18.951 -1.312 -749.961 -1769.897 -2624.940 0.626 0.091 0.202 -0.02 0.52 -0.85 0.08
1 5.04 504 -1.121 -8.849 4.243 9.705 -18.951 2.167 -749.961 -1769.897 -2624.940 0.641 0.147 0.238 -0.02 0.52 -0.85 0.08
1 5.05 505 -1.269 -8.763 4.458 9.308 -22.095 4.181 -659.870 -1754.907 -2564.979 0.797 0.068 0.038 -0.02 0.52 -0.85 0.08
1 5.06 506 -1.274 -8.682 4.353 8.118 -23.499 5.096 -599.909 -1694.946 -2624.940 0.806 -0.007 0.156 -0.02 0.52 -0.85 0.08
1 5.07 507 -1.432 -8.773 4.463 7.080 -24.841 9.491 -749.961 -1694.946 -2624.940 0.969 0.096 0.070 -0.03 0.52 -0.85 0.09
1 5.08 508 -1.408 -8.739 4.247 5.432 -26.917 12.512 -690.000 -1709.936 -2459.897 0.944 0.069 0.296 -0.03 0.52 -0.85 0.09
1 5.09 509 -1.413 -8.897 4.315 2.655 -27.405 14.893 -690.000 -1709.936 -2459.897 0.944 0.231 0.237 -0.03 0.52 -0.85 0.09
1 5.10 510 -1.298 -9.046 4.013 -0.458 -25.879 17.914 -734.971 -1784.887 -2384.946 0.822 0.381 0.541 -0.03 0.52 -0.85 0.09
1 5.11 511 -1.030 -9.141 4.228 -1.892 -26.550 17.548 -734.971 -1784.887 -2384.946 0.543 0.477 0.324 -0.03 0.52 -0.85 0.1
1 5.12 512 -0.781 -9.620 4.190 1.068 -25.910 17.609 -749.961 -1724.926 -2624.940 0.286 0.955 0.360 -0.03 0.52 -0.85 0.1
1 5.13 513 -0.618 -9.812 4.209 3.601 -22.797 17.670 -674.860 -1844.998 -2549.989 0.115 1.146 0.340 -0.03 0.52 -0.85 0.1
1 5.14 514 -0.953 -9.678 4.224 9.125 -26.489 17.395 -674.860 -1844.998 -2549.989 0.444 1.015 0.330 -0.03 0.52 -0.85 0.1
1 5.15 515 -1.197 -9.524 4.702 12.451 -24.811 16.846 -704.991 -1574.874 -2669.911 0.677 0.876 -0.123 -0.03 0.52 -0.85 0.11
1 5.16 516 -1.374 -9.390 5.473 7.904 -20.996 18.799 -704.991 -1574.874 -2669.911 0.845 0.751 -0.878 -0.03 0.51 -0.85 0.11
1 5.17 517 -0.910 -9.036 6.632 -12.054 -18.280 4.486 -899.864 -1799.877 -2549.989 0.371 0.401 -2.029 -0.03 0.51 -0.85 0.11
1 5.18 518 -0.704 -11.162 6.647 -42.938 -9.644 20.325 -899.864 -1799.877 -2549.989 0.166 2.517 -2.064 -0.04 0.51 -0.85 0.11
1 5.19 519 0.010 -11.603 5.488 -39.124 -3.448 29.358 -749.961 -1769.897 -2594.959 -0.569 2.926 -0.966 -0.04 0.52 -0.85 0.11
1 5.20 520 0.934 -9.788 5.545 -16.235 -1.526 23.590 -779.942 -1769.897 -2414.927 -1.524 1.083 -1.082 -0.04 0.52 -0.85 0.11
1 5.21 521 0.852 -9.793 5.636 -12.573 11.566 13.245 -779.942 -1769.897 -2414.927 -1.475 1.076 -1.201 -0.03 0.52 -0.84 0.12
1 5.22 522 -0.996 -11.100 4.405 -6.928 12.573 15.869 -690.000 -1829.858 -2534.999 0.318 2.369 -0.006 -0.03 0.52 -0.84 0.12
1 5.23 523 -1.178 -11.047 4.496 15.839 8.484 2.716 -690.000 -1829.858 -2534.999 0.476 2.318 -0.098 -0.03 0.52 -0.84 0.12
1 5.24 524 -1.379 -11.009 4.745 22.766 14.252 -4.059 -929.994 -1799.877 -2519.858 0.669 2.293 -0.322 -0.03 0.52 -0.84 0.12
1 5.25 525 -1.920 -10.937 4.573 13.733 12.787 -6.592 -929.994 -1799.877 -2519.858 1.208 2.235 -0.122 -0.03 0.52 -0.84 0.12
1 5.26 526 -2.073 -10.937 4.578 8.087 6.836 -7.446 -734.971 -1634.985 -2564.979 1.363 2.243 -0.111 -0.03 0.52 -0.85 0.12
1 5.27 527 -1.824 -10.339 4.659 11.475 8.667 -4.334 -734.971 -1784.887 -2429.917 1.120 1.650 -0.181 -0.03 0.52 -0.85 0.12
1 5.28 528 -1.595 -9.615 4.372 8.270 8.911 -0.244 -734.971 -1784.887 -2429.917 0.893 0.934 0.121 -0.03 0.52 -0.85 0.11
1 5.29 529 -0.661 -9.141 4.640 -2.228 7.416 2.899 -824.913 -1574.874 -2594.959 -0.057 0.469 -0.134 -0.03 0.52 -0.85 0.11
1 5.30 530 -0.177 -8.868 4.860 -2.747 11.078 3.296 -824.913 -1574.874 -2594.959 -0.550 0.194 -0.358 -0.03 0.52 -0.85 0.11
1 5.31 531 -0.038 -8.538 4.908 0.031 12.573 1.465 -690.000 -1829.858 -2459.897 -0.696 -0.136 -0.407 -0.03 0.52 -0.85 0.11
1 5.32 532 0.024 -8.256 5.081 3.052 12.238 -2.686 -690.000 -1829.858 -2459.897 -0.762 -0.417 -0.576 -0.02 0.52 -0.85 0.11
1 5.33 533 0.115 -8.054 5.368 6.958 12.634 -8.331 -494.978 -1694.946 -2594.959 -0.851 -0.613 -0.854 -0.02 0.52 -0.85 0.11
1 5.34 534 -0.057 -7.858 5.583 16.541 11.536 -17.609 -690.000 -1754.907 -2564.979 -0.667 -0.801 -1.053 -0.02 0.52 -0.85 0.11
1 5.35 535 -0.383 -7.595 5.718 22.278 -0.793 -22.339 -690.000 -1754.907 -2564.979 -0.323 -1.052 -1.160 -0.02 0.52 -0.85 0.11
1 5.36 536 -0.694 -6.972 6.014 18.829 -18.066 -16.602 -704.991 -1724.926 -2699.891 0.054 -1.639 -1.380 -0.03 0.51 -0.85 0.11
1 5.37 537 -0.666 -6.656 5.947 16.296 -21.820 -15.167 -704.991 -1724.926 -2699.891 0.061 -1.936 -1.274 -0.03 0.51 -0.85 0.11
1 5.38 538 -0.129 -5.866 6.144 11.780 -20.477 -11.261 -734.971 -1634.985 -2609.950 -0.441 -2.710 -1.436 -0.03 0.51 -0.85 0.11
1 5.39 539 0.215 -5.435 5.976 10.284 -20.142 -4.761 -734.971 -1634.985 -2609.950 -0.759 -3.133 -1.250 -0.03 0.51 -0.85 0.11
1 5.40 540 0.441 -5.488 6.019 7.599 -18.005 0.641 -734.971 -1679.956 -2609.950 -0.964 -3.073 -1.278 -0.03 0.51 -0.85 0.11
1 5.41 541 1.077 -5.895 5.995 -5.127 -13.519 7.202 -690.000 -1634.985 -2609.950 -1.588 -2.661 -1.243 -0.03 0.51 -0.85 0.11
1 5.42 542 1.221 -6.321 6.067 -16.052 -12.482 12.268 -690.000 -1634.985 -2609.950 -1.728 -2.235 -1.316 -0.03 0.51 -0.85 0.11
1 5.43 543 1.307 -7.063 5.861 -28.473 -10.803 14.557 -764.952 -1709.936 -2609.950 -1.820 -1.501 -1.125 -0.03 0.51 -0.85 0.11
1 5.44 544 0.982 -8.442 5.904 -40.833 -14.191 12.054 -839.903 -1784.887 -2564.979 -1.488 -0.150 -1.218 -0.04 0.51 -0.85 0.11
1 5.45 545 0.627 -9.663 5.751 -38.696 -16.632 4.334 -794.932 -1709.936 -2684.901 -1.126 1.047 -1.109 -0.04 0.51 -0.85 0.11
1 5.46 546 0.369 -9.965 5.722 -26.215 -18.036 -2.319 -794.932 -1709.936 -2684.901 -0.859 1.324 -1.125 -0.04 0.51 -0.85 0.11
1 5.47 547 0.359 -9.730 5.445 -1.923 -15.625 -9.155 -899.864 -1649.975 -2624.940 -0.830 1.075 -0.873 -0.04 0.51 -0.85 0.11
1 5.48 548 0.278 -8.414 5.363 30.365 -15.198 -6.561 -749.961 -1694.946 -2594.959 -0.724 -0.239 -0.784 -0.04 0.51 -0.85 0.11
1 5.49 549 0.666 -7.738 5.459 35.065 -9.644 -11.658 -749.961 -1694.946 -2594.959 -1.088 -0.895 -0.841 -0.04 0.51 -0.85 0.11
1 5.50 550 0.579 -7.647 5.076 28.748 -5.005 -12.787 -824.913 -1724.926 -2474.888 -0.975 -0.958 -0.404 -0.04 0.51 -0.85 0.11
1 5.51 551 0.881 -8.356 4.717 16.022 -5.890 -16.754 -824.913 -1694.946 -2549.989 -1.211 -0.207 0.038 -0.05 0.51 -0.85 0.11
1 5.52 552 0.709 -8.581 4.722 18.799 -6.653 -12.756 -899.864 -1769.897 -2519.858 -1.005 0.031 0.058 -0.05 0.5 -0.86 0.11
1 5.53 553 0.666 -8.686 4.616 24.201 -6.744 -9.491 -899.864 -1769.897 -2519.858 -0.932 0.151 0.191 -0.05 0.5 -0.86 0.11
1 5.54 554 0.824 -7.848 4.616 21.576 -4.486 -8.667 -899.864 -1889.969 -2624.940 -1.067 -0.670 0.222 -0.05 0.5 -0.86 0.11
1 5.55 555 0.872 -8.308 4.559 18.921 -0.702 -7.294 -854.893 -1724.926 -2669.911 -1.092 -0.195 0.308 -0.05 0.5 -0.86 0.11
1 5.56 556 0.814 -8.490 4.760 16.113 1.038 -4.639 -854.893 -1724.926 -2669.911 -1.017 0.000 0.131 -0.05 0.5 -0.86 0.11
1 5.57 557 0.498 -8.275 4.367 16.754 -6.226 5.188 -929.994 -1799.877 -2594.959 -0.687 -0.203 0.546 -0.05 0.5 -0.86 0.11
1 5.58 558 1.116 -8.648 4.899 18.616 -6.897 -1.770 -914.854 -1904.959 -2639.930 -1.301 0.183 0.035 -0.05 0.5 -0.86 0.11
1 5.59 559 1.274 -8.423 5.052 18.585 1.953 -1.068 -989.955 -1829.858 -2639.930 -1.436 -0.014 -0.069 -0.05 0.49 -0.86 0.11
1 5.60 560 1.092 -8.457 4.678 20.233 5.463 -0.122 -989.955 -1829.858 -2639.930 -1.242 0.034 0.330 -0.05 0.49 -0.86 0.11
1 5.61 561 1.130 -8.074 4.784 20.447 4.272 0.763 -929.994 -1799.877 -2624.940 -1.276 -0.333 0.251 -0.05 0.49 -0.86 0.11
1 5.62 562 1.274 -8.174 4.583 19.898 13.336 -2.930 -929.994 -1769.897 -2699.891 -1.412 -0.217 0.478 -0.05 0.49 -0.86 0.11
1 5.63 563 1.010 -7.762 4.099 24.475 19.135 -1.221 -929.994 -1769.897 -2699.891 -1.148 -0.613 0.988 -0.05 0.49 -0.86 0.11
1 5.64 564 1.279 -7.796 4.233 23.346 18.677 -3.998 -914.854 -1784.887 -2639.930 -1.420 -0.563 0.881 -0.05 0.49 -0.87 0.11
1 5.65 565 1.590 -7.853 4.319 20.203 23.041 -6.561 -869.883 -1859.988 -2684.901 -1.732 -0.488 0.823 -0.05 0.48 -0.87 0.11
1 5.66 566 1.465 -7.839 3.912 21.607 28.046 -11.200 -854.893 -1964.920 -2774.992 -1.602 -0.474 1.275 -0.05 0.48 -0.87 0.1
1 5.67 567 1.341 -7.619 3.615 24.628 30.884 -12.238 -854.893 -1964.920 -2774.992 -1.473 -0.680 1.596 -0.05 0.48 -0.87 0.1
1 5.68 568 1.073 -7.638 3.180 24.078 33.112 -11.566 -974.965 -1889.969 -2729.872 -1.214 -0.640 2.064 -0.05 0.48 -0.87 0.1
1 5.69 569 0.441 -7.695 2.974 17.395 32.806 -9.033 -989.955 -1784.887 -2819.963 -0.594 -0.564 2.299 -0.04 0.48 -0.87 0.1
1 5.70 570 0.211 -8.131 3.041 7.446 32.623 -8.606 -989.955 -1784.887 -2819.963 -0.379 -0.115 2.251 -0.04 0.48 -0.87 0.1
1 5.71 571 -0.225 -9.079 3.371 -6.348 34.027 -7.477 -899.864 -1919.949 -2624.940 0.041 0.837 1.927 -0.04 0.48 -0.87 0.09
1 5.72 572 -0.311 -9.247 3.362 -9.735 34.577 -6.897 -899.864 -1964.920 -2624.940 0.110 0.993 1.918 -0.04 0.48 -0.87 0.09
1 5.73 573 -0.594 -9.362 3.477 -9.247 32.471 7.629 -824.913 -1919.949 -2849.943 0.350 1.077 1.753 -0.03 0.48 -0.87 0.09
1 5.74 574 0.105 -8.653 3.539 -6.592 22.675 3.387 -824.913 -1919.949 -2849.943 -0.385 0.354 1.666 -0.03 0.48 -0.87 0.09
1 5.75 575 0.517 -8.629 3.472 -4.608 27.405 0.854 -674.860 -1889.969 -2804.973 -0.818 0.319 1.715 -0.03 0.48 -0.87 0.09
1 5.76 576 0.249 -8.792 3.036 -4.364 30.792 1.282 -704.991 -2039.871 -2699.891 -0.568 0.473 2.134 -0.03 0.49 -0.87 0.09
1 5.77 577 -0.239 -8.883 2.447 -0.793 26.398 8.148 -704.991 -2039.871 -2699.891 -0.103 0.554 2.706 -0.03 0.49 -0.87 0.09
1 5.78 578 -0.211 -8.892 3.256 5.737 28.198 11.017 -539.948 -1859.988 -2819.963 -0.162 0.555 1.881 -0.03 0.49 -0.87 0.09
1 5.79 579 -1.111 -8.964 6.872 10.407 20.874 4.913 -659.870 -1754.907 -2819.963 0.706 0.621 -1.746 -0.02 0.49 -0.87 0.08
1 5.80 580 -1.389 -10.932 9.462 -33.966 -5.066 -24.658 -599.909 -1994.900 -2669.911 0.968 2.595 -4.329 -0.02 0.49 -0.87 0.08
1 5.81 581 -1.073 -11.311 7.863 -60.761 -7.996 -24.567 -599.909 -1994.900 -2669.911 0.690 2.935 -2.789 -0.02 0.49 -0.87 0.08
1 5.82 582 -2.303 -9.596 6.517 -24.506 -16.663 -16.083 -524.958 -1919.949 -2729.872 1.953 1.177 -1.513 -0.03 0.49 -0.87 0.08
1 5.83 583 -3.472 -8.988 8.533 -10.162 -26.154 -15.778 -674.860 -1919.949 -2624.940 3.157 0.555 -3.550 -0.03 0.49 -0.86 0.08
1 5.84 584 -2.035 -8.825 8.663 -34.454 -24.475 -14.191 -674.860 -1919.949 -2624.940 1.762 0.381 -3.696 -0.03 0.5 -0.86 0.08
1 5.85 585 0.479 -11.502 7.508 -42.297 -28.992 3.235 -674.860 -1799.877 -2729.872 -0.716 3.028 -2.592 -0.03 0.5 -0.86 0.08
1 5.86 586 1.868 -12.029 7.805 -29.205 -13.031 13.489 -734.971 -1754.907 -2789.982 -2.080 3.521 -2.946 -0.03 0.5 -0.86 0.08
1 5.87 587 2.888 -11.660 8.165 -28.076 4.639 11.627 -734.971 -1754.907 -2789.982 -3.102 3.130 -3.345 -0.04 0.5 -0.86 0.08
1 5.88 588 3.697 -10.056 7.772 -26.611 8.575 5.737 -629.890 -1724.926 -2729.872 -3.947 1.486 -3.026 -0.03 0.51 -0.86 0.08
1 5.89 589 3.290 -9.194 7.609 -11.139 10.132 3.235 -614.899 -1829.858 -2684.901 -3.552 0.607 -2.893 -0.03 0.51 -0.86 0.08
1 5.90 590 2.121 -8.011 7.456 7.629 12.085 -2.686 -764.952 -1754.907 -2759.852 -2.392 -0.579 -2.747 -0.03 0.51 -0.86 0.08
1 5.91 591 0.484 -6.843 7.183 13.031 16.357 -12.970 -764.952 -1754.907 -2759.852 -0.758 -1.740 -2.460 -0.03 0.51 -0.86 0.08
1 5.92 592 -1.690 -6.829 6.556 -5.096 21.759 -20.874 -599.909 -1799.877 -2669.911 1.431 -1.736 -1.800 -0.03 0.51 -0.86 0.08
1 5.93 593 -2.121 -7.020 6.201 -15.015 10.040 -20.111 -749.961 -1769.897 -2624.940 1.868 -1.536 -1.429 -0.03 0.51 -0.86 0.08
1 5.94 594 -1.772 -6.977 6.330 -18.036 0.488 -19.013 -749.961 -1769.897 -2624.940 1.524 -1.580 -1.560 -0.03 0.51 -0.86 0.08
1 5.95 595 -1.489 -6.924 6.062 -21.027 6.226 -11.139 -599.909 -1694.946 -2879.924 1.254 -1.644 -1.312 -0.03 0.51 -0.86 0.08
1 5.96 596 -1.829 -7.327 5.789 -22.858 10.651 -5.371 -629.890 -1844.998 -2729.872 1.592 -1.250 -1.054 -0.03 0.51 -0.86 0.07
1 5.97 597 -1.585 -7.054 5.909 -25.818 6.592 -0.854 -584.919 -1559.884 -2714.881 1.335 -1.533 -1.193 -0.03 0.51 -0.86 0.07
1 5.98 598 -1.322 -7.049 5.770 -30.945 5.432 1.373 -584.919 -1559.884 -2714.881 1.056 -1.550 -1.077 -0.03 0.51 -0.86 0.07
1 5.99 599 -0.795 -7.580 5.684 -35.919 9.674 4.883 -659.870 -1709.936 -2684.901 0.514 -1.035 -1.022 -0.03 0.51 -0.86 0.07
1 6.00 600 -0.532 -8.040 5.210 -32.196 11.658 8.087 -434.867 -1754.907 -2759.852 0.232 -0.595 -0.585 -0.03 0.51 -0.85 0.07
1 6.01 601 -0.292 -7.580 5.042 -19.409 5.920 10.864 -434.867 -1754.907 -2759.852 -0.028 -1.074 -0.455 -0.03 0.52 -0.85 0.07
1 6.02 602 -0.493 -7.906 5.076 -6.134 5.737 7.874 -674.860 -1544.894 -2669.911 0.151 -0.760 -0.513 -0.02 0.52 -0.85 0.07
1 6.03 603 -0.694 -7.738 5.143 2.686 9.583 -1.617 -584.919 -1589.864 -2684.901 0.327 -0.927 -0.580 -0.02 0.52 -0.85 0.08
1 6.04 604 -1.164 -8.026 4.947 2.472 11.566 -2.075 -569.929 -1694.946 -2624.940 0.789 -0.634 -0.374 -0.02 0.52 -0.85 0.07
1 6.05 605 -1.279 -7.638 5.076 -1.526 4.547 -0.031 -569.929 -1694.946 -2624.940 0.894 -1.018 -0.496 -0.02 0.52 -0.85 0.07
1 6.06 606 -1.279 -7.130 5.090 -8.026 -2.106 7.172 -494.978 -1544.894 -2624.940 0.881 -1.523 -0.507 -0.02 0.52 -0.85 0.07
1 6.07 607 -0.972 -7.365 5.052 -13.550 1.617 8.392 -494.978 -1619.995 -2699.891 0.563 -1.290 -0.474 -0.02 0.52 -0.85 0.08
1 6.08 608 -0.479 -7.451 5.176 -13.519 5.768 2.838 -494.978 -1619.995 -2699.891 0.056 -1.207 -0.605 -0.02 0.52 -0.85 0.08
1 6.09 609 -0.594 -7.475 4.702 -14.130 5.798 10.986 -434.867 -1589.864 -2639.930 0.160 -1.190 -0.145 -0.02 0.52 -0.85 0.08
1 6.10 610 -0.570 -7.853 4.664 -16.937 -5.951 12.604 -704.991 -1619.995 -2699.891 0.102 -0.824 -0.133 -0.02 0.52 -0.85 0.08
1 6.11 611 -0.153 -7.939 4.832 -17.914 -4.700 10.468 -539.948 -1679.956 -2609.950 -0.327 -0.746 -0.319 -0.02 0.52 -0.85 0.08
1 6.12 612 -0.081 -8.088 4.631 -16.174 2.869 8.789 -539.948 -1679.956 -2609.950 -0.407 -0.607 -0.136 -0.02 0.52 -0.85 0.08
1 6.13 613 -0.388 -8.749 4.501 -10.834 6.775 6.683 -614.899 -1514.913 -2504.868 -0.109 0.046 -0.023 -0.02 0.52 -0.85 0.08
1 6.14 614 -0.852 -8.313 4.089 -5.554 -4.211 10.345 -569.929 -1499.923 -2774.992 0.343 -0.394 0.379 -0.02 0.52 -0.85 0.08
1 6.15 615 -0.670 -8.514 4.635 -3.906 -2.899 8.240 -569.929 -1499.923 -2774.992 0.151 -0.196 -0.173 -0.02 0.52 -0.85 0.08
1 6.16 616 -0.843 -8.045 4.305 -5.676 -1.801 7.874 -629.890 -1424.972 -2624.940 0.314 -0.665 0.155 -0.02 0.52 -0.85 0.08
1 6.17 617 -1.408 -8.552 4.056 -6.836 -2.258 9.583 -494.978 -1619.995 -2594.959 0.859 -0.162 0.393 -0.02 0.52 -0.85 0.08
1 6.18 618 -1.125 -8.380 4.343 -6.989 -8.209 6.500 -569.929 -1724.926 -2669.911 0.562 -0.338 0.097 -0.02 0.52 -0.85 0.08
1 6.19 619 -0.948 -8.816 4.367 -8.392 -2.167 7.202 -569.929 -1724.926 -2669.911 0.378 0.094 0.065 -0.02 0.52 -0.85 0.08
1 6.20 620 -1.020 -8.916 4.386 -8.270 -3.784 4.486 -509.968 -1484.933 -2534.999 0.441 0.190 0.036 -0.02 0.52 -0.85 0.08
1 6.21 621 -0.876 -8.787 4.070 -8.759 -9.522 6.165 -524.958 -1649.975 -2624.940 0.291 0.056 0.343 -0.02 0.52 -0.85 0.09
1 6.22 622 -0.886 -8.830 4.286 -6.866 -9.674 5.219 -524.958 -1649.975 -2624.940 0.298 0.094 0.116 -0.02 0.52 -0.85 0.09
1 6.23 623 -0.651 -8.433 4.267 -5.402 -8.392 1.221 -539.948 -1439.962 -2504.868 0.062 -0.308 0.126 -0.02 0.52 -0.85 0.09
1 6.24 624 -0.876 -9.026 4.037 -2.991 -10.254 3.448 -524.958 -1379.851 -2549.989 0.286 0.280 0.345 -0.02 0.53 -0.85 0.09
1 6.25 625 -0.872 -8.768 3.946 -2.106 -11.231 5.707 -584.919 -1409.981 -2564.979 0.282 0.020 0.432 -0.02 0.53 -0.85 0.09
1 6.26 626 -0.857 -8.730 4.061 1.343 -17.029 5.432 -584.919 -1409.981 -2564.979 0.268 -0.019 0.317 -0.02 0.53 -0.85 0.09
1 6.27 627 -0.761 -8.514 3.884 3.754 -15.167 5.310 -539.948 -1364.861 -2564.979 0.174 -0.233 0.497 -0.02 0.53 -0.85 0.09
1 6.28 628 -1.030 -8.629 3.697 3.235 -11.902 6.683 -494.978 -1544.894 -2594.959 0.444 -0.115 0.689 -0.02 0.53 -0.85 0.09
1 6.29 629 -0.991 -8.682 3.730 5.096 -16.480 5.157 -494.978 -1544.894 -2594.959 0.404 -0.060 0.659 -0.02 0.52 -0.85 0.09
1 6.30 630 -1.030 -8.825 3.812 4.761 -15.381 3.082 -464.997 -1364.861 -2504.868 0.444 0.085 0.583 -0.02 0.52 -0.85 0.09
1 6.31 631 -1.020 -8.950 3.773 4.425 -14.343 1.740 -464.997 -1364.861 -2504.868 0.438 0.212 0.626 -0.02 0.52 -0.85 0.09
1 6.32 632 -0.924 -9.098 3.812 4.517 -17.487 1.587 -539.948 -1409.981 -2609.950 0.353 0.364 0.596 -0.02 0.52 -0.85 0.1
1 6.33 633 -0.824 -9.237 3.860 4.547 -19.287 2.625 -539.948 -1409.981 -2609.950 0.260 0.504 0.552 -0.03 0.52 -0.85 0.1
1 6.34 634 -0.934 -9.194 4.027 4.639 -19.867 3.235 -524.958 -1379.851 -2594.959 0.378 0.463 0.389 -0.03 0.52 -0.85 0.1
1 6.35 635 -0.967 -8.744 4.099 4.669 -20.355 3.357 -584.919 -1514.913 -2609.950 0.418 0.015 0.322 -0.03 0.52 -0.85 0.1
1 6.36 636 -0.872 -8.533 4.056 3.143 -20.569 4.425 -584.919 -1514.913 -2609.950 0.329 -0.193 0.371 -0.03 0.52 -0.85 0.1
1 6.37 637 -0.713 -8.466 3.975 2.441 -20.813 5.127 -629.890 -1499.923 -2549.989 0.176 -0.258 0.458 -0.03 0.52 -0.85 0.1
1 6.38 638 -0.646 -8.246 3.735 0.641 -19.013 6.470 -629.890 -1499.923 -2549.989 0.114 -0.476 0.702 -0.03 0.52 -0.85 0.1
1 6.39 639 -0.421 -8.595 3.855 2.594 -16.083 4.334 -629.890 -1574.874 -2549.989 -0.101 -0.125 0.586 -0.03 0.52 -0.85 0.1
1 6.40 640 -0.555 -8.854 3.860 6.928 -17.273 3.845 -629.890 -1574.874 -2549.989 0.039 0.136 0.586 -0.03 0.52 -0.85 0.1
1 6.41 641 -0.608 -9.175 3.936 9.033 -22.461 5.737 -704.991 -1349.871 -2624.940 0.100 0.461 0.518 -0.03 0.52 -0.85 0.11
1 6.42 642 -0.843 -9.481 4.156 11.719 -25.238 7.385 -839.903 -1514.913 -2684.901 0.343 0.772 0.309 -0.04 0.52 -0.85 0.11
1 6.43 643 -1.216 -9.520 4.319 12.970 -27.710 9.613 -839.903 -1514.913 -2684.901 0.722 0.818 0.161 -0.04 0.52 -0.85 0.11
1 6.44 644 -1.738 -9.841 4.372 14.160 -31.036 11.231 -629.890 -1469.942 -2879.924 1.247 1.148 0.126 -0.04 0.52 -0.85 0.11
1 6.45 645 -1.997 -9.635 4.429 14.618 -34.546 14.526 -629.890 -1469.942 -2879.924 1.509 0.952 0.089 -0.04 0.52 -0.85 0.11
1 6.46 646 -2.050 -9.577 4.501 15.717 -36.713 15.015 -690.000 -1439.962 -2639.930 1.562 0.906 0.039 -0.04 0.52 -0.85 0.11
1 6.47 647 -1.987 -9.309 4.683 14.160 -37.995 18.890 -704.991 -1544.894 -2699.891 1.494 0.661 -0.099 -0.04 0.51 -0.85 0.12
1 6.48 648 -1.882 -9.295 4.832 9.888 -38.086 22.339 -779.942 -1499.923 -2729.872 1.379 0.658 -0.228 -0.04 0.51 -0.85 0.12
1 6.49 649 -1.446 -9.481 5.402 1.617 -35.736 27.344 -824.913 -1499.923 -2699.891 0.929 0.852 -0.785 -0.04 0.51 -0.85 0.13
1 6.50 650 -0.876 -9.936 5.732 -14.648 -30.579 34.119 -824.913 -1499.923 -2699.891 0.341 1.309 -1.114 -0.05 0.51 -0.85 0.13
1 6.51 651 0.359 -11.157 5.679 -39.978 -15.533 16.785 -839.903 -1484.933 -2894.914 -0.913 2.519 -1.084 -0.05 0.51 -0.85 0.13
1 6.52 652 0.340 -11.311 5.368 -30.029 -7.843 23.102 -839.903 -1484.933 -2894.914 -0.900 2.648 -0.819 -0.05 0.52 -0.85 0.13
1 6.53 653 0.958 -10.468 5.560 -14.648 -5.890 21.149 -674.860 -1619.995 -2774.992 -1.541 1.785 -1.054 -0.05 0.52 -0.84 0.13
1 6.54 654 0.297 -10.315 5.296 -8.209 5.219 16.998 -824.913 -1499.923 -2804.973 -0.933 1.617 -0.826 -0.05 0.52 -0.84 0.14
1 6.55 655 -0.713 -10.386 4.702 0.519 2.228 17.456 -899.864 -1574.874 -2729.872 0.051 1.686 -0.241 -0.04 0.52 -0.84 0.14
1 6.56 656 -0.967 -9.850 4.702 10.468 -3.662 11.871 -824.913 -1544.894 -2594.959 0.281 1.154 -0.236 -0.04 0.52 -0.84 0.14
1 6.57 657 -1.087 -9.735 4.664 11.749 3.021 4.089 -824.913 -1544.894 -2594.959 0.390 1.049 -0.181 -0.04 0.52 -0.84 0.14
1 6.58 658 -1.762 -10.468 3.984 5.920 4.089 3.784 -764.952 -1514.913 -2684.901 1.058 1.789 0.514 -0.04 0.52 -0.84 0.14
1 6.59 659 -1.882 -10.947 4.180 0.793 -2.777 4.303 -764.952 -1514.913 -2684.901 1.173 2.272 0.324 -0.04 0.52 -0.84 0.14
1 6.60 660 -1.729 -10.884 4.291 0.488 -0.549 3.143 -704.991 -1349.871 -2774.992 1.016 2.211 0.216 -0.04 0.52 -0.84 0.14
1 6.61 661 -1.437 -10.535 4.338 -0.854 -7.172 4.669 -734.971 -1364.861 -2714.881 0.718 1.865 0.173 -0.04 0.52 -0.84 0.14
1 6.62 662 -0.857 -10.142 4.731 -1.343 -11.292 7.507 -749.961 -1499.923 -2624.940 0.138 1.472 -0.219 -0.04 0.52 -0.84 0.14
1 6.63 663 -0.613 -9.592 4.793 1.251 -12.665 9.705 -690.000 -1484.933 -2714.881 -0.108 0.923 -0.280 -0.04 0.52 -0.84 0.14
1 6.64 664 -0.508 -9.046 5.023 5.646 -13.947 9.003 -690.000 -1484.933 -2714.881 -0.216 0.380 -0.505 -0.04 0.52 -0.84 0.14
1 6.65 665 -0.278 -8.634 5.143 9.857 -12.116 5.707 -764.952 -1559.884 -2759.852 -0.446 -0.025 -0.611 -0.04 0.52 -0.84 0.14
1 6.66 666 -0.072 -8.696 5.813 15.625 -4.334 0.977 -764.952 -1559.884 -2759.852 -0.647 0.047 -1.262 -0.04 0.52 -0.84 0.14
1 6.67 667 0.177 -8.691 5.876 22.766 0.031 -3.845 -794.932 -1559.884 -2609.950 -0.890 0.055 -1.298 -0.04 0.51 -0.84 0.14
1 6.68 668 -0.057 -7.901 5.991 32.898 -0.610 -12.634 -794.932 -1514.913 -2684.901 -0.630 -0.693 -1.331 -0.04 0.51 -0.85 0.14
1 6.69 669 -0.201 -8.002 6.177 35.339 -3.204 -14.435 -704.991 -1469.942 -2624.940 -0.461 -0.564 -1.462 -0.04 0.51 -0.85 0.14
1 6.70 670 -0.345 -6.977 6.316 33.814 -19.531 -18.189 -794.932 -1514.913 -2714.881 -0.283 -1.558 -1.541 -0.04 0.5 -0.85 0.14
1 6.71 671 -0.215 -6.038 5.986 27.100 -31.891 -8.301 -794.932 -1514.913 -2714.881 -0.371 -2.465 -1.150 -0.05 0.5 -0.85 0.14
1 6.72 672 0.335 -5.167 6.469 15.839 -39.063 -5.493 -854.893 -1619.995 -2849.943 -0.884 -3.315 -1.591 -0.05 0.5 -0.85 0.14
1 6.73 673 0.771 -5.028 6.230 9.155 -27.008 -1.678 -854.893 -1619.995 -2849.943 -1.285 -3.443 -1.329 -0.05 0.5 -0.85 0.14
1 6.74 674 0.977 -4.956 6.062 7.233 -21.088 2.686 -914.854 -1589.864 -2819.963 -1.465 -3.507 -1.146 -0.05 0.5 -0.85 0.14
1 6.75 675 0.953 -5.052 5.737 4.486 -17.975 9.033 -989.955 -1364.861 -2639.930 -1.426 -3.405 -0.808 -0.05 0.5 -0.86 0.14
1 6.76 676 0.996 -5.957 5.818 -8.728 -10.590 13.550 -869.883 -1514.913 -2864.934 -1.466 -2.494 -0.879 -0.06 0.49 -0.86 0.14
1 6.77 677 0.670 -6.603 6.110 -23.804 -9.491 16.022 -854.893 -1619.995 -2699.891 -1.152 -1.855 -1.185 -0.06 0.5 -0.85 0.14
1 6.78 678 0.579 -7.705 6.086 -38.513 -11.749 10.284 -854.893 -1619.995 -2699.891 -1.069 -0.769 -1.189 -0.06 0.5 -0.85 0.15
1 6.79 679 0.168 -9.405 5.761 -42.267 -17.548 10.437 -929.994 -1544.894 -2804.973 -0.653 0.907 -0.903 -0.06 0.5 -0.85 0.15
1 6.80 680 0.096 -9.932 5.574 -29.389 -24.597 0.549 -929.994 -1544.894 -2804.973 -0.574 1.406 -0.766 -0.06 0.5 -0.85 0.15
1 6.81 681 0.163 -9.529 5.402 -2.930 -23.773 -3.876 -974.965 -1499.923 -2729.872 -0.625 0.979 -0.634 -0.06 0.5 -0.85 0.15
1 6.82 682 0.263 -8.509 5.167 24.872 -22.034 -5.310 -899.864 -1544.894 -2774.992 -0.703 -0.048 -0.410 -0.06 0.5 -0.85 0.15
1 6.83 683 0.852 -7.408 5.138 38.544 -15.808 -8.057 -1004.945 -1544.894 -2774.992 -1.237 -1.107 -0.303 -0.06 0.5 -0.85 0.15
1 6.84 684 1.159 -7.006 4.999 27.191 -12.116 -16.266 -914.854 -1559.884 -2759.852 -1.511 -1.480 -0.109 -0.07 0.5 -0.85 0.15
1 6.85 685 1.039 -7.552 4.453 14.893 -13.641 -11.627 -914.854 -1559.884 -2759.852 -1.362 -0.916 0.470 -0.07 0.49 -0.85 0.15
1 6.86 686 1.010 -8.557 4.540 13.794 -12.756 -11.749 -929.994 -1424.972 -2879.924 -1.296 0.101 0.405 -0.07 0.49 -0.85 0.15
1 6.87 687 1.058 -8.538 4.473 21.942 -12.451 -10.620 -929.994 -1424.972 -2879.924 -1.309 0.092 0.492 -0.07 0.49 -0.86 0.15
1 6.88 688 1.331 -8.289 4.520 16.846 -7.294 -9.125 -1004.945 -1649.975 -2804.973 -1.549 -0.142 0.471 -0.07 0.49 -0.86 0.15
1 6.89 689 1.331 -8.418 4.458 9.369 -2.045 -5.554 -914.854 -1514.913 -2819.963 -1.523 0.001 0.556 -0.07 0.49 -0.86 0.15
1 6.90 690 1.542 -8.667 4.348 7.782 3.143 -7.904 -914.854 -1514.913 -2939.885 -1.688 0.260 0.686 -0.07 0.49 -0.86 0.14
1 6.91 691 1.461 -8.792 4.310 8.881 4.700 -7.355 -974.965 -1694.946 -2804.973 -1.587 0.388 0.731 -0.07 0.49 -0.86 0.14
1 6.92 692 0.757 -8.739 4.271 11.108 3.357 1.801 -974.965 -1694.946 -2804.973 -0.872 0.341 0.778 -0.07 0.49 -0.86 0.14
1 6.93 693 1.111 -8.232 4.501 15.259 3.357 -4.700 -944.984 -1679.956 -2894.914 -1.220 -0.160 0.560 -0.07 0.49 -0.86 0.14
1 6.94 694 1.183 -8.256 4.415 14.618 11.902 -3.357 -944.984 -1679.956 -2894.914 -1.282 -0.126 0.663 -0.07 0.49 -0.86 0.14
1 6.95 695 1.585 -7.777 4.046 9.033 18.829 -6.439 -1064.906 -1679.956 -2969.865 -1.679 -0.595 1.047 -0.07 0.48 -0.86 0.14
1 6.96 696 1.207 -7.786 3.711 7.538 20.538 -2.808 -1064.906 -1634.985 -2939.885 -1.298 -0.578 1.394 -0.07 0.48 -0.86 0.14
1 6.97 697 1.216 -7.858 3.726 7.080 20.325 -2.472 -1064.906 -1634.985 -2939.885 -1.313 -0.501 1.389 -0.07 0.48 -0.86 0.14
1 6.98 698 1.173 -7.686 3.620 9.857 26.733 -5.463 -974.965 -1769.897 -2909.904 -1.294 -0.660 1.516 -0.07 0.48 -0.86 0.13
1 6.99 699 1.504 -7.786 3.453 8.423 31.036 -8.759 -974.965 -1769.897 -2909.904 -1.638 -0.551 1.697 -0.07 0.48 -0.86 0.13
1 7.00 700 1.700 -8.088 3.486 2.930 34.851 -7.385 -944.984 -1754.907 -2819.963 -1.849 -0.243 1.673 -0.06 0.48 -0.86 0.13
1 7.01 701 1.604 -8.452 3.227 -1.343 40.589 -4.761 -944.984 -1754.907 -2819.963 -1.765 0.120 1.930 -0.06 0.48 -0.86 0.13
1 7.02 702 1.082 -8.591 3.299 0.549 45.288 -3.571 -944.984 -1679.956 -2864.934 -1.257 0.252 1.847 -0.06 0.48 -0.86 0.13
1 7.03 703 0.043 -8.868 3.553 4.120 51.148 -8.789 -974.965 -1649.975 -2849.943 -0.238 0.525 1.584 -0.06 0.48 -0.86 0.12
1 7.04 704 -0.431 -8.840 3.663 -0.702 53.253 -12.970 -974.965 -1649.975 -2849.943 0.212 0.493 1.468 -0.06 0.48 -0.86 0.12
1 7.05 705 -0.599 -8.907 4.267 -5.920 49.622 -17.883 -839.903 -1784.887 -2969.865 0.334 0.546 0.838 -0.05 0.49 -0.86 0.12
1 7.06 706 -0.963 -9.237 4.554 -7.294 47.363 -16.663 -839.903 -1784.887 -2969.865 0.681 0.866 0.534 -0.05 0.49 -0.86 0.11
1 7.07 707 -1.283 -9.467 4.362 -7.263 39.887 1.007 -794.932 -1634.985 -2969.865 0.976 1.087 0.709 -0.04 0.49 -0.86 0.11
1 7.08 708 -0.766 -8.744 4.171 -3.418 32.013 -0.763 -794.932 -1634.985 -2969.865 0.423 0.355 0.884 -0.04 0.49 -0.86 0.11
1 7.09 709 -0.254 -8.236 4.042 0.793 35.309 -4.150 -779.942 -1619.995 -2804.973 -0.118 -0.157 1.003 -0.04 0.49 -0.86 0.11
1 7.10 710 -0.833 -8.988 3.702 8.240 31.738 3.754 -734.971 -1709.936 -2939.885 0.439 0.593 1.339 -0.04 0.49 -0.86 0.11
1 7.11 711 -0.718 -8.926 5.876 10.681 21.912 4.150 -734.971 -1709.936 -2939.885 0.294 0.532 -0.836 -0.03 0.49 -0.86 0.1
1 7.12 712 -1.030 -10.750 8.825 -26.398 5.890 -14.038 -704.991 -1649.975 -2909.904 0.571 2.364 -3.777 -0.03 0.49 -0.86 0.1
1 7.13 713 -0.948 -11.512 8.323 -51.056 3.265 -17.120 -704.991 -1649.975 -2909.904 0.507 3.095 -3.323 -0.03 0.49 -0.86 0.1
1 7.14 714 -0.804 -9.917 5.785 -34.088 -6.165 -13.825 -599.909 -1694.946 -2984.855 0.385 1.454 -0.861 -0.03 0.5 -0.86 0.1
1 7.15 715 -1.197 -8.686 6.383 2.228 -8.820 -13.489 -599.909 -1694.946 -2984.855 0.801 0.206 -1.488 -0.03 0.5 -0.86 0.1
1 7.16 716 -1.355 -9.113 7.197 -2.319 -8.698 -15.686 -704.991 -1694.946 -2879.924 0.985 0.635 -2.295 -0.03 0.5 -0.86 0.1
1 7.17 717 0.354 -10.631 6.977 -33.966 -10.162 -11.108 -764.952 -1559.884 -3044.966 -0.698 2.147 -2.083 -0.04 0.5 -0.86 0.1
1 7.18 718 1.853 -11.732 7.384 -34.729 -2.502 -2.838 -764.952 -1559.884 -3044.966 -2.173 3.226 -2.527 -0.04 0.5 -0.86 0.1
1 7.19 719 2.145 -11.995 7.331 -16.663 13.458 4.089 -749.961 -1619.995 -2984.855 -2.452 3.463 -2.520 -0.04 0.5 -0.86 0.1
1 7.20 720 2.265 -10.908 7.068 6.744 7.660 5.371 -690.000 -1709.936 -2864.934 -2.596 2.361 -2.285 -0.04 0.5 -0.86 0.1
1 7.21 721 2.208 -9.711 7.561 3.876 6.744 4.822 -779.942 -1649.975 -2954.875 -2.549 1.170 -2.769 -0.04 0.5 -0.86 0.1
1 7.22 722 1.820 -8.562 7.279 -1.953 9.399 4.944 -779.942 -1649.975 -2954.875 -2.173 0.023 -2.483 -0.04 0.5 -0.86 0.1
1 7.23 723 1.010 -7.844 7.010 -5.768 9.064 3.906 -614.899 -1904.959 -3014.986 -1.377 -0.697 -2.218 -0.03 0.5 -0.86 0.1
1 7.24 724 -0.215 -7.743 6.498 -12.360 24.597 -1.617 -764.952 -1484.933 -2939.885 -0.158 -0.798 -1.708 -0.03 0.5 -0.86 0.1
1 7.25 725 -0.670 -7.590 6.105 -9.491 23.926 -2.686 -764.952 -1484.933 -2939.885 0.282 -0.956 -1.324 -0.03 0.5 -0.86 0.09
1 7.26 726 -1.039 -7.858 6.067 -2.960 20.538 -7.416 -704.991 -1574.874 -2804.973 0.639 -0.688 -1.288 -0.03 0.51 -0.86 0.09
1 7.27 727 -1.111 -7.346 5.856 -0.641 18.707 -10.895 -704.991 -1499.923 -2954.875 0.699 -1.192 -1.063 -0.03 0.5 -0.86 0.09
1 7.28 728 -1.370 -7.168 6.034 -5.188 20.172 -13.458 -494.978 -1649.975 -2909.904 0.953 -1.364 -1.232 -0.03 0.5 -0.86 0.09
1 7.29 729 -1.805 -7.389 5.603 -9.857 21.423 -12.268 -494.978 -1649.975 -2909.904 1.386 -1.143 -0.799 -0.03 0.5 -0.86 0.09
1 7.30 730 -1.757 -7.183 5.674 -12.268 15.900 -9.888 -449.857 -1574.874 -2984.855 1.329 -1.351 -0.875 -0.03 0.5 -0.86 0.09
1 7.31 731 -1.590 -7.121 5.387 -13.916 13.916 -6.104 -599.909 -1424.972 -2954.875 1.151 -1.417 -0.595 -0.02 0.5 -0.86 0.08
1 7.32 732 -0.771 -6.867 5.402 -18.280 13.886 -4.028 -599.909 -1424.972 -2954.875 0.319 -1.676 -0.621 -0.02 0.51 -0.86 0.08
1 7.33 733 -0.742 -7.614 5.109 -20.477 15.717 -0.946 -569.929 -1379.851 -2909.904 0.281 -0.936 -0.343 -0.02 0.51 -0.86 0.08
1 7.34 734 -1.039 -8.021 5.114 -17.944 11.749 1.221 -539.948 -1589.864 -2969.865 0.552 -0.554 -0.395 -0.02 0.51 -0.86 0.08
1 7.35 735 -0.737 -7.805 5.229 -15.228 11.505 -1.465 -509.968 -1409.981 -2894.914 0.240 -0.778 -0.527 -0.02 0.51 -0.86 0.08
1 7.36 736 -0.790 -8.045 5.004 -7.843 14.435 -0.061 -509.968 -1409.981 -2894.914 0.283 -0.543 -0.311 -0.02 0.51 -0.86 0.08
1 7.37 737 -0.934 -7.877 5.100 -3.967 12.726 -0.031 -449.857 -1574.874 -2879.924 0.415 -0.713 -0.412 -0.02 0.51 -0.86 0.08
1 7.38 738 -1.159 -7.738 5.105 -1.434 11.658 0.275 -569.929 -1379.851 -2954.875 0.628 -0.851 -0.417 -0.02 0.51 -0.86 0.08
1 7.39 739 -1.154 -7.322 5.081 -2.319 12.695 1.190 -569.929 -1379.851 -2954.875 0.609 -1.266 -0.391 -0.01 0.51 -0.86 0.08
1 7.40 740 -1.283 -7.303 4.851 -2.533 13.031 2.136 -690.000 -1439.962 -3014.986 0.725 -1.284 -0.161 -0.01 0.51 -0.86 0.08
1 7.41 741 -1.389 -7.044 4.659 -3.998 5.920 5.341 -569.929 -1379.851 -2954.875 0.815 -1.542 0.031 -0.01 0.51 -0.86 0.08
1 7.42 742 -0.785 -7.623 4.961 -3.784 4.242 1.892 -509.968 -1484.933 -2939.885 0.178 -0.962 -0.275 -0.01 0.51 -0.86 0.08
1 7.43 743 -1.039 -7.777 4.607 -2.930 3.357 8.484 -509.968 -1484.933 -2939.885 0.421 -0.808 0.080 -0.01 0.51 -0.86 0.08
1 7.44 744 -0.915 -7.901 4.865 -3.448 -3.479 5.371 -524.958 -1424.972 -2879.924 0.283 -0.683 -0.179 -0.01 0.51 -0.86 0.08
1 7.45 745 -0.804 -7.844 5.062 -6.409 -1.709 4.852 -599.909 -1349.871 -2954.875 0.166 -0.740 -0.376 -0.01 0.51 -0.86 0.08
1 7.46 746 -0.244 -7.552 5.287 -5.554 17.883 -4.639 -599.909 -1349.871 -2954.875 -0.399 -1.034 -0.605 -0.01 0.51 -0.86 0.08
1 7.47 747 -1.609 -8.002 4.520 -3.784 11.658 -2.258 -494.978 -1379.851 -2909.904 0.965 -0.585 0.159 -0.01 0.51 -0.86 0.08
1 7.48 748 -1.786 -8.006 4.750 -5.829 -3.784 1.709 -509.968 -1484.933 -2894.914 1.133 -0.581 -0.074 -0.01 0.51 -0.86 0.08
1 7.49 749 -1.451 -7.939 5.229 -13.519 -6.256 2.106 -584.919 -1364.861 -2864.934 0.781 -0.654 -0.566 -0.01 0.51 -0.86 0.08
1 7.50 750 -1.590 -8.078 4.865 -14.740 -1.556 1.984 -584.919 -1364.861 -2864.934 0.914 -0.521 -0.214 -0.01 0.51 -0.85 0.08
1 7.51 751 -1.714 -8.270 4.793 -12.726 -4.456 2.106 -524.958 -1349.871 -3059.957 1.031 -0.337 -0.157 -0.01 0.51 -0.85 0.08
1 7.52 752 -1.403 -8.294 4.894 -12.970 -5.188 3.998 -494.978 -1424.972 -2729.872 0.715 -0.320 -0.271 -0.01 0.51 -0.85 0.08
1 7.53 753 -1.408 -8.404 4.765 -13.336 -8.728 5.280 -494.978 -1424.972 -2729.872 0.713 -0.216 -0.154 -0.01 0.51 -0.85 0.08
1 7.54 754 -1.140 -8.696 4.846 -15.778 -1.404 3.845 -434.867 -1514.913 -2864.934 0.439 0.069 -0.250 -0.01 0.52 -0.85 0.08
1 7.55 755 -1.350 -8.682 4.540 -11.169 -8.881 5.005 -539.948 -1334.880 -2894.914 0.646 0.046 0.040 -0.01 0.52 -0.85 0.08
1 7.56 756 -0.895 -8.854 4.602 -10.376 -6.470 4.944 -494.978 -1499.923 -3029.976 0.185 0.206 -0.048 -0.01 0.52 -0.85 0.08
1 7.57 757 -1.240 -8.883 4.372 -7.935 -13.733 6.470 -494.978 -1499.923 -3029.976 0.528 0.229 0.172 -0.01 0.52 -0.85 0.09
1 7.58 758 -0.924 -8.902 4.453 -4.852 -17.273 5.371 -434.867 -1259.929 -2864.934 0.211 0.244 0.082 -0.01 0.52 -0.85 0.09
1 7.59 759 -0.790 -8.706 4.473 -3.052 -13.611 4.425 -464.997 -1484.933 -2894.914 0.080 0.045 0.058 -0.01 0.52 -0.85 0.09
1 7.60 760 -1.001 -8.840 4.195 0.031 -12.299 5.280 -464.997 -1484.933 -2894.914 0.293 0.178 0.335 -0.01 0.52 -0.85 0.09
1 7.61 761 -0.872 -8.710 4.247 3.601 -14.069 3.418 -509.968 -1289.910 -2894.914 0.165 0.050 0.284 -0.01 0.52 -0.85 0.09
1 7.62 762 -1.188 -8.830 4.324 4.730 -13.794 5.066 -449.857 -1274.919 -2954.875 0.482 0.172 0.211 -0.01 0.52 -0.85 0.09
1 7.63 763 -1.245 -8.830 4.315 6.104 -17.517 4.669 -449.857 -1274.919 -2954.875 0.540 0.175 0.227 -0.01 0.52 -0.85 0.09
1 7.64 764 -1.149 -8.730 4.214 4.486 -17.975 3.967 -449.857 -1424.972 -2954.875 0.451 0.082 0.344 -0.01 0.52 -0.85 0.09
1 7.65 765 -1.087 -8.615 4.180 2.319 -19.470 5.463 -509.968 -1439.962 -2939.885 0.392 -0.030 0.384 -0.01 0.52 -0.85 0.09
1 7.66 766 -1.049 -8.619 4.161 0.916 -21.912 5.768 -509.968 -1484.933 -3044.966 0.359 -0.023 0.407 -0.02 0.52 -0.85 0.09
1 7.67 767 -1.168 -8.725 3.970 0.000 -21.149 6.928 -509.968 -1484.933 -3044.966 0.485 0.082 0.600 -0.02 0.52 -0.85 0.09
1 7.68 768 -1.039 -8.710 4.113 1.038 -22.095 5.066 -449.857 -1349.871 -2984.855 0.360 0.067 0.456 -0.02 0.52 -0.85 0.1
1 7.69 769 -0.948 -8.739 4.228 0.397 -22.156 3.418 -734.971 -1364.861 -2864.934 0.275 0.096 0.342 -0.02 0.52 -0.85 0.1
1 7.70 770 -0.895 -8.787 4.291 0.275 -22.553 3.296 -734.971 -1364.861 -2864.934 0.230 0.144 0.281 -0.02 0.52 -0.85 0.1
1 7.71 771 -0.982 -8.754 4.324 3.571 -23.987 3.815 -659.870 -1334.880 -2969.865 0.337 0.112 0.252 -0.02 0.52 -0.85 0.1
1 7.72 772 -1.149 -8.773 4.415 6.439 -26.459 5.127 -599.909 -1544.894 -2984.855 0.514 0.134 0.169 -0.02 0.52 -0.85 0.1
1 7.73 773 -1.255 -8.763 4.621 8.118 -29.968 5.646 -599.909 -1379.851 -2984.855 0.630 0.130 -0.026 -0.02 0.51 -0.85 0.1
1 7.74 774 -1.451 -8.931 4.717 6.805 -30.731 6.744 -599.909 -1379.851 -2984.855 0.835 0.304 -0.108 -0.03 0.51 -0.85 0.1
1 7.75 775 -1.743 -8.892 4.683 3.693 -31.281 7.507 -659.870 -1289.910 -2864.934 1.134 0.271 -0.063 -0.03 0.51 -0.85 0.11
1 7.76 776 -1.595 -8.921 4.444 0.580 -34.668 9.216 -614.899 -1409.981 -2969.865 0.992 0.304 0.184 -0.03 0.51 -0.85 0.11
1 7.77 777 -1.374 -9.170 4.496 -0.793 -36.621 9.613 -614.899 -1409.981 -2969.865 0.776 0.554 0.134 -0.03 0.51 -0.85 0.11
1 7.78 778 -0.781 -9.376 4.310 0.275 -36.194 7.874 -569.929 -1469.942 -3059.957 0.200 0.760 0.324 -0.03 0.51 -0.85 0.11
1 7.79 779 -0.733 -9.572 4.338 2.258 -35.126 8.209 -749.961 -1349.871 -2909.904 0.166 0.956 0.297 -0.04 0.51 -0.85 0.12
1 7.80 780 -0.599 -9.553 4.061 7.599 -34.760 8.759 -914.854 -1289.910 -3014.986 0.046 0.938 0.578 -0.04 0.51 -0.85 0.12
1 7.81 781 -0.618 -9.457 4.104 12.848 -33.203 11.078 -914.854 -1289.910 -3014.986 0.078 0.847 0.545 -0.04 0.51 -0.85 0.12
1 7.82 782 -0.948 -9.433 4.008 15.961 -33.417 13.031 -854.893 -1349.871 -3059.957 0.417 0.831 0.656 -0.04 0.51 -0.85 0.12
1 7.83 783 -1.283 -9.620 4.109 13.977 -32.318 13.672 -839.903 -1439.962 -3014.986 0.757 1.028 0.574 -0.04 0.51 -0.85 0.12
1 7.84 784 -1.159 -9.649 4.214 10.895 -34.241 11.963 -839.903 -1439.962 -3014.986 0.635 1.065 0.485 -0.04 0.51 -0.85 0.13
1 7.85 785 -1.259 -9.702 4.391 7.751 -33.844 14.404 -734.971 -1439.962 -2969.865 0.738 1.124 0.320 -0.04 0.51 -0.85 0.13
1 7.86 786 -0.785 -9.994 5.579 -2.594 -34.851 18.036 -929.994 -1544.894 -2984.855 0.271 1.426 -0.849 -0.05 0.51 -0.85 0.13
1 7.87 787 -0.306 -10.583 6.182 -18.036 -32.929 23.010 -899.864 -1424.972 -3134.908 -0.208 2.012 -1.457 -0.05 0.51 -0.85 0.13
1 7.88 788 0.637 -10.147 6.330 -31.250 -25.513 18.005 -899.864 -1424.972 -3134.908 -1.159 1.563 -1.631 -0.05 0.51 -0.85 0.14
1 7.89 789 0.852 -11.660 6.125 -28.412 -10.895 7.965 -824.913 -1574.874 -3029.976 -1.371 3.055 -1.464 -0.05 0.51 -0.85 0.14
1 7.90 790 0.704 -9.639 4.985 2.441 -7.629 17.548 -869.883 -1484.933 -3044.966 -1.231 1.018 -0.355 -0.05 0.51 -0.85 0.14
1 7.91 791 0.144 -9.323 5.133 14.923 0.061 12.817 -869.883 -1484.933 -3044.966 -0.687 0.702 -0.506 -0.05 0.51 -0.85 0.14
1 7.92 792 -0.627 -8.782 4.856 16.449 2.838 13.641 -734.971 -1259.929 -2969.865 0.074 0.171 -0.210 -0.05 0.51 -0.85 0.14
1 7.93 793 -0.479 -9.271 4.688 25.299 9.155 -2.441 -1019.936 -1514.913 -3044.966 -0.098 0.689 0.010 -0.05 0.51 -0.85 0.14
1 7.94 794 -0.680 -9.165 4.329 25.543 7.843 -5.829 -779.942 -1379.851 -3134.908 0.102 0.602 0.402 -0.05 0.51 -0.85 0.14
1 7.95 795 -0.857 -9.252 4.449 16.174 1.068 -5.829 -779.942 -1379.851 -3134.908 0.283 0.703 0.309 -0.05 0.5 -0.85 0.14
1 7.96 796 -1.101 -9.213 4.674 6.744 -2.594 -2.594 -989.955 -1559.884 -3044.966 0.533 0.673 0.098 -0.05 0.5 -0.85 0.14
1 7.97 797 -1.355 -9.113 4.717 0.763 -4.791 2.533 -899.864 -1424.972 -2984.855 0.788 0.575 0.060 -0.05 0.5 -0.85 0.14
1 7.98 798 -1.566 -8.878 4.856 -7.355 -7.843 10.712 -899.864 -1424.972 -2984.855 0.993 0.339 -0.080 -0.05 0.5 -0.85 0.14
1 7.99 799 -1.331 -8.500 5.052 -12.054 -10.040 13.580 -914.854 -1409.981 -3014.986 0.745 -0.042 -0.284 -0.05 0.5 -0.85 0.14
1 8.00 800 -0.364 -8.150 5.220 -16.510 -9.369 15.991 -794.932 -1484.933 -2969.865 -0.254 -0.405 -0.480 -0.05 0.51 -0.85 0.14
1 8.01 801 -0.053 -7.983 5.272 -17.700 -8.057 15.045 -914.854 -1334.880 -3044.966 -0.578 -0.581 -0.549 -0.05 0.51 -0.85 0.14
1 8.02 802 0.321 -7.954 5.469 -16.815 -5.188 13.519 -914.854 -1334.880 -3044.966 -0.961 -0.618 -0.762 -0.05 0.51 -0.85 0.14
1 8.03 803 0.330 -7.973 5.435 -13.397 -2.319 8.972 -854.893 -1349.871 -3059.957 -0.977 -0.606 -0.743 -0.05 0.51 -0.85 0.14
1 8.04 804 0.493 -7.705 5.478 -9.033 -3.479 2.197 -1004.945 -1469.942 -3104.927 -1.138 -0.879 -0.793 -0.05 0.51 -0.85 0.14
1 8.05 805 0.431 -7.930 5.627 2.502 -4.822 -6.500 -1004.945 -1469.942 -3104.927 -1.066 -0.655 -0.943 -0.05 0.51 -0.85 0.14
1 8.06 806 0.283 -7.848 5.770 12.054 -8.453 -5.615 -929.994 -1379.851 -3059.957 -0.899 -0.733 -1.077 -0.05 0.51 -0.85 0.14
1 8.07 807 0.014 -7.145 5.986 15.686 -13.580 -0.183 -929.994 -1379.851 -3059.957 -0.609 -1.425 -1.269 -0.05 0.51 -0.85 0.14
1 8.08 808 0.546 -6.704 6.149 11.963 -11.658 1.648 -914.854 -1289.910 -3119.917 -1.106 -1.831 -1.365 -0.05 0.5 -0.85 0.14
1 8.09 809 0.781 -6.623 5.943 3.021 -5.951 4.822 -914.854 -1289.910 -3119.917 -1.328 -1.897 -1.130 -0.05 0.5 -0.85 0.14
1 8.10 810 1.130 -6.852 5.718 -6.805 1.312 3.906 -944.984 -1334.880 -2969.865 -1.668 -1.658 -0.889 -0.05 0.5 -0.85 0.14
1 8.11 811 1.010 -6.632 5.507 -17.883 -0.916 13.672 -974.965 -1349.871 -3209.859 -1.552 -1.882 -0.684 -0.05 0.5 -0.85 0.14
1 8.12 812 0.833 -7.643 5.660 -32.257 -1.862 11.719 -974.965 -1349.871 -3209.859 -1.389 -0.885 -0.863 -0.05 0.5 -0.85 0.15
1 8.13 813 0.623 -8.514 5.382 -36.591 4.578 5.829 -854.893 -1424.972 -3209.859 -1.180 -0.029 -0.614 -0.05 0.5 -0.85 0.15
1 8.14 814 0.527 -8.931 5.311 -34.821 2.655 -0.061 -854.893 -1424.972 -3209.859 -1.083 0.366 -0.580 -0.05 0.51 -0.85 0.14
1 8.15 815 -0.268 -9.505 5.124 -18.829 -5.493 -3.174 -839.903 -1484.933 -2969.865 -0.277 0.898 -0.470 -0.05 0.51 -0.85 0.14
1 8.16 816 -0.158 -9.275 5.229 -1.617 -5.920 -7.263 -839.903 -1484.933 -2969.865 -0.376 0.658 -0.593 -0.05 0.51 -0.85 0.14
1 8.17 817 -0.053 -9.055 5.253 13.428 0.732 -9.979 -899.864 -1424.972 -2984.855 -0.463 0.440 -0.611 -0.05 0.51 -0.85 0.14
1 8.18 818 0.005 -8.701 5.196 19.348 2.167 -9.857 -1004.945 -1199.968 -3059.957 -0.506 0.097 -0.531 -0.05 0.51 -0.85 0.14
1 8.19 819 0.412 -8.342 5.085 19.959 0.885 -11.780 -1004.945 -1199.968 -3059.957 -0.898 -0.247 -0.392 -0.05 0.51 -0.85 0.14
1 8.20 820 0.752 -8.619 4.865 15.472 4.883 -12.787 -929.994 -1424.972 -3059.957 -1.215 0.045 -0.143 -0.06 0.51 -0.85 0.14
1 8.21 821 0.809 -8.528 4.755 14.343 2.991 -10.864 -929.994 -1424.972 -3059.957 -1.250 -0.034 -0.009 -0.06 0.5 -0.85 0.14
1 8.22 822 0.872 -8.797 4.851 16.266 9.064 -12.726 -869.883 -1334.880 -2939.885 -1.266 0.255 -0.063 -0.06 0.5 -0.85 0.14
1 8.23 823 0.766 -9.022 4.650 17.883 8.850 -7.599 -869.883 -1334.880 -2939.885 -1.141 0.492 0.161 -0.06 0.5 -0.85 0.13
1 8.24 824 0.584 -8.509 4.693 22.217 4.700 -2.869 -1019.936 -1289.910 -3044.966 -0.949 -0.008 0.141 -0.06 0.5 -0.85 0.13
1 8.25 825 1.053 -8.538 5.153 23.987 10.376 -15.137 -794.932 -1364.861 -3149.898 -1.406 0.037 -0.290 -0.06 0.5 -0.85 0.13
1 8.26 826 0.570 -8.672 4.899 23.285 16.632 -10.834 -794.932 -1364.861 -3149.898 -0.903 0.190 -0.002 -0.06 0.5 -0.86 0.13
1 8.27 827 0.623 -8.299 4.851 23.590 4.669 -7.843 -1004.945 -1304.900 -3059.957 -0.947 -0.167 0.076 -0.06 0.5 -0.86 0.13
1 8.28 828 0.757 -8.313 5.191 27.374 7.874 -11.231 -1004.945 -1304.900 -3059.957 -1.072 -0.136 -0.235 -0.06 0.49 -0.86 0.13
1 8.29 829 1.039 -7.930 5.042 28.381 13.580 -15.320 -824.913 -1424.972 -3059.957 -1.338 -0.499 -0.051 -0.06 0.49 -0.86 0.13
1 8.30 830 1.010 -7.805 4.832 24.628 11.444 -16.327 -929.994 -1469.942 -3314.940 -1.271 -0.579 0.236 -0.05 0.49 -0.86 0.12
1 8.31 831 1.058 -7.767 4.755 23.834 13.367 -15.198 -914.854 -1514.913 -3149.898 -1.297 -0.598 0.345 -0.05 0.49 -0.86 0.12
1 8.32 832 0.963 -7.638 4.659 22.980 14.801 -14.587 -839.903 -1589.864 -3224.999 -1.184 -0.708 0.472 -0.05 0.49 -0.86 0.12
1 8.33 833 1.006 -7.657 4.487 17.975 18.707 -14.038 -839.903 -1589.864 -3224.999 -1.212 -0.672 0.673 -0.05 0.48 -0.87 0.12
1 8.34 834 1.231 -7.901 4.305 8.026 23.071 -12.726 -764.952 -1559.884 -3224.999 -1.426 -0.416 0.875 -0.05 0.48 -0.87 0.12
1 8.35 835 1.542 -8.366 4.405 4.944 24.201 -14.404 -764.952 -1559.884 -3224.999 -1.729 0.055 0.784 -0.05 0.48 -0.87 0.11
1 8.36 836 1.753 -8.600 4.247 5.951 27.771 -16.510 -899.864 -1619.995 -3134.908 -1.930 0.292 0.946 -0.05 0.48 -0.87 0.11
1 8.37 837 1.556 -8.725 3.596 11.719 31.983 -17.395 -854.893 -1574.874 -3134.908 -1.707 0.421 1.605 -0.05 0.48 -0.87 0.11
1 8.38 838 1.020 -8.959 3.534 15.381 34.851 -17.029 -824.913 -1694.946 -3284.960 -1.161 0.660 1.675 -0.05 0.48 -0.87 0.1
1 8.39 839 0.215 -9.295 3.706 16.022 38.025 -15.930 -854.893 -1544.894 -3134.908 -0.353 1.001 1.512 -0.05 0.48 -0.87 0.1
1 8.40 840 -0.335 -8.979 3.673 17.456 34.088 -9.705 -854.893 -1544.894 -3134.908 0.187 0.691 1.556 -0.05 0.48 -0.87 0.1
1 8.41 841 -0.211 -8.696 3.663 17.761 35.339 -19.257 -824.913 -1469.942 -3239.989 0.049 0.416 1.576 -0.04 0.48 -0.87 0.1
1 8.42 842 -0.656 -8.782 3.658 14.984 40.894 -21.545 -824.913 -1469.942 -3239.989 0.491 0.510 1.593 -0.04 0.48 -0.87 0.09
1 8.43 843 -1.192 -8.988 3.658 15.228 33.173 -8.820 -839.903 -1589.864 -3374.901 1.020 0.722 1.603 -0.04 0.48 -0.87 0.09
1 8.44 844 -0.220 -8.725 3.984 9.552 30.762 -15.961 -734.971 -1829.858 -3194.869 0.015 0.469 1.292 -0.04 0.48 -0.87 0.09
1 8.45 845 0.062 -8.423 3.692 4.242 34.943 -13.977 -749.961 -1619.995 -3359.911 -0.276 0.169 1.586 -0.03 0.48 -0.87 0.09
1 8.46 846 0.010 -8.710 3.352 6.897 31.311 -10.315 -690.000 -1679.956 -3299.950 -0.231 0.454 1.923 -0.03 0.48 -0.87 0.08
1 8.47 847 0.086 -8.390 2.974 10.040 26.489 -3.265 -690.000 -1679.956 -3299.950 -0.319 0.133 2.300 -0.03 0.48 -0.87 0.08
1 8.48 848 0.000 -8.256 3.055 7.782 25.360 0.000 -569.929 -1619.995 -3209.859 -0.248 -0.001 2.219 -0.03 0.48 -0.87 0.08
1 8.49 849 -0.201 -8.390 4.372 1.862 23.407 -5.920 -569.929 -1619.995 -3209.859 -0.066 0.136 0.904 -0.03 0.48 -0.87 0.08
1 8.50 850 -0.139 -8.959 5.732 -10.498 21.240 -14.496 -764.952 -1679.956 -3254.979 -0.141 0.703 -0.461 -0.03 0.48 -0.87 0.08
1 8.51 851 -0.460 -9.788 7.255 -21.820 9.888 -16.357 -614.899 -1709.936 -3374.901 0.178 1.523 -1.995 -0.03 0.48 -0.87 0.08
1 8.52 852 -1.087 -9.620 7.063 -38.971 -12.543 -18.494 -584.919 -1589.864 -3374.901 0.844 1.315 -1.867 -0.03 0.48 -0.87 0.07
1 8.53 853 -1.690 -8.787 6.733 -31.555 -13.214 -19.623 -629.890 -1619.995 -3389.892 1.483 0.451 -1.583 -0.03 0.49 -0.87 0.07
1 8.54 854 -2.873 -9.060 6.829 -22.766 -12.726 -22.034 -629.890 -1619.995 -3389.892 2.703 0.702 -1.715 -0.03 0.49 -0.87 0.07
1 8.55 855 -2.615 -9.117 6.900 -23.193 -18.555 -16.205 -584.919 -1514.913 -3254.979 2.483 0.742 -1.814 -0.03 0.49 -0.87 0.07
1 8.56 856 0.129 -9.999 7.566 -30.579 -19.104 -2.502 -584.919 -1514.913 -3254.979 -0.227 1.604 -2.510 -0.03 0.49 -0.87 0.07
1 8.57 857 1.451 -11.296 7.461 -41.077 -8.484 5.341 -629.890 -1649.975 -3239.989 -1.526 2.880 -2.441 -0.04 0.49 -0.87 0.07
1 8.58 858 2.064 -11.727 7.408 -50.598 -4.028 7.446 -749.961 -1574.874 -3284.960 -2.135 3.283 -2.436 -0.04 0.49 -0.87 0.07
1 8.59 859 2.634 -10.645 7.288 -31.494 6.653 1.068 -734.971 -1589.864 -3299.950 -2.716 2.130 -2.437 -0.04 0.5 -0.86 0.07
1 8.60 860 2.509 -9.587 6.987 -10.376 12.756 -3.967 -629.890 -1544.894 -3164.888 -2.597 1.053 -2.169 -0.04 0.5 -0.86 0.07
1 8.61 861 1.963 -9.065 7.111 1.099 22.278 -9.308 -629.890 -1544.894 -3164.888 -2.054 0.527 -2.301 -0.04 0.5 -0.86 0.07
1 8.62 862 0.488 -8.524 6.618 9.979 25.299 -11.322 -584.919 -1439.962 -3329.931 -0.584 -0.011 -1.802 -0.03 0.5 -0.86 0.07
1 8.63 863 -0.215 -8.457 6.512 19.562 17.395 -17.517 -584.919 -1439.962 -3329.931 0.120 -0.068 -1.679 -0.03 0.5 -0.86 0.07
1 8.64 864 -0.848 -7.796 6.517 18.402 15.595 -18.982 -779.942 -1469.942 -3239.989 0.764 -0.711 -1.652 -0.03 0.5 -0.86 0.07
1 8.65 865 -0.819 -7.422 6.589 11.047 12.024 -19.287 -659.870 -1559.884 -3449.853 0.744 -1.063 -1.686 -0.03 0.5 -0.86 0.06
1 8.66 866 -0.646 -6.876 6.431 -2.563 10.071 -14.465 -764.952 -1484.933 -3224.999 0.591 -1.579 -1.477 -0.03 0.5 -0.87 0.06
1 8.67 867 -1.116 -6.594 5.976 -10.132 15.808 -5.005 -659.870 -1484.933 -3374.901 1.060 -1.857 -1.015 -0.03 0.5 -0.87 0.06
1 8.68 868 -1.480 -6.613 6.005 -12.512 14.740 -2.014 -659.870 -1484.933 -3374.901 1.410 -1.838 -1.044 -0.03 0.5 -0.87 0.06
1 8.69 869 -1.676 -6.627 5.856 -13.580 10.498 6.744 -704.991 -1544.894 -3314.940 1.591 -1.829 -0.905 -0.03 0.5 -0.87 0.06
1 8.70 870 -1.532 -6.632 5.809 -18.280 6.958 11.932 -704.991 -1544.894 -3314.940 1.420 -1.828 -0.864 -0.03 0.5 -0.87 0.06
1 8.71 871 -1.719 -7.427 5.536 -22.949 9.766 17.639 -690.000 -1409.981 -3224.999 1.576 -1.041 -0.605 -0.03 0.5 -0.86 0.06
1 8.72 872 -1.484 -7.374 5.555 -21.912 8.881 14.587 -749.961 -1349.871 -3239.989 1.304 -1.104 -0.643 -0.03 0.5 -0.86 0.06
1 8.73 873 -1.298 -7.221 5.272 -21.515 8.545 14.557 -749.961 -1349.871 -3239.989 1.082 -1.268 -0.381 -0.02 0.5 -0.86 0.06
1 8.74 874 -1.235 -7.662 5.109 -20.569 6.348 11.017 -539.948 -1484.933 -3254.979 0.947 -0.850 -0.261 -0.02 0.5 -0.86 0.07
1 8.75 875 -0.915 -7.753 5.057 -17.670 6.256 10.101 -539.948 -1484.933 -3254.979 0.600 -0.769 -0.228 -0.02 0.5 -0.86 0.07
1 8.76 876 -1.178 -8.074 4.990 -16.754 5.005 17.059 -524.958 -1304.900 -3164.888 0.840 -0.457 -0.179 -0.02 0.5 -0.86 0.07
1 8.77 877 -0.527 -7.815 5.042 -18.463 3.540 9.094 -524.958 -1304.900 -3164.888 0.164 -0.725 -0.250 -0.02 0.51 -0.86 0.07
1 8.78 878 -0.565 -8.097 4.851 -19.684 10.742 2.991 -584.919 -1484.933 -3149.898 0.188 -0.454 -0.079 -0.02 0.51 -0.86 0.07
1 8.79 879 -0.771 -8.370 4.789 -15.198 5.493 1.556 -464.997 -1364.861 -3149.898 0.381 -0.193 -0.039 -0.02 0.51 -0.86 0.07
1 8.80 880 -0.512 -8.117 4.827 -11.139 -2.716 5.615 -464.997 -1364.861 -3149.898 0.111 -0.456 -0.096 -0.02 0.51 -0.86 0.07
1 8.81 881 -0.599 -8.663 4.937 -10.437 -0.610 9.033 -599.909 -1304.900 -3359.911 0.188 0.082 -0.220 -0.02 0.51 -0.86 0.07
1 8.82 882 -0.436 -8.624 5.129 -7.751 -9.094 6.439 -524.958 -1229.949 -3134.908 0.010 0.034 -0.431 -0.02 0.51 -0.86 0.07
1 8.83 883 -0.417 -8.308 5.109 -4.700 -3.632 8.362 -569.929 -1349.871 -3134.908 -0.013 -0.285 -0.417 -0.02 0.51 -0.86 0.07
1 8.84 884 -0.776 -8.174 4.990 -4.089 -3.174 9.827 -569.929 -1349.871 -3134.908 0.337 -0.419 -0.299 -0.02 0.51 -0.86 0.07
1 8.85 885 -0.915 -8.126 4.937 -8.026 -1.953 10.742 -584.919 -1364.861 -3194.869 0.464 -0.468 -0.249 -0.02 0.51 -0.86 0.07
1 8.86 886 -0.623 -8.059 5.277 -5.737 3.418 6.042 -464.997 -1259.929 -3149.898 0.158 -0.538 -0.595 -0.02 0.51 -0.86 0.07
1 8.87 887 -1.283 -8.203 4.726 -2.716 10.956 9.460 -464.997 -1259.929 -3149.898 0.806 -0.395 -0.047 -0.02 0.51 -0.86 0.07
1 8.88 888 -1.518 -8.126 4.683 -6.714 -7.874 12.421 -524.958 -1349.871 -3029.976 0.999 -0.470 -0.007 -0.01 0.51 -0.86 0.08
1 8.89 889 -1.049 -8.064 4.880 -10.498 -7.935 10.742 -524.958 -1349.871 -3029.976 0.511 -0.536 -0.211 -0.01 0.51 -0.86 0.08
1 8.90 890 -0.886 -8.179 4.793 -10.742 -4.242 11.231 -659.870 -1214.958 -3119.917 0.334 -0.425 -0.134 -0.01 0.51 -0.86 0.08
1 8.91 891 -0.350 -8.552 4.875 -9.888 12.634 5.096 -659.870 -1214.958 -3119.917 -0.212 -0.057 -0.226 -0.01 0.51 -0.85 0.08
1 8.92 892 -0.857 -8.610 4.396 -5.554 9.033 8.606 -524.958 -1274.919 -3164.888 0.283 -0.003 0.244 -0.01 0.51 -0.85 0.08
1 8.93 893 -0.819 -8.126 4.817 -4.608 -10.956 11.383 -524.958 -1379.851 -3104.927 0.229 -0.489 -0.183 -0.01 0.51 -0.85 0.08
1 8.94 894 -0.441 -8.394 4.980 -5.280 -4.089 5.463 -524.958 -1379.851 -3104.927 -0.162 -0.222 -0.351 -0.01 0.51 -0.85 0.08
1 8.95 895 -0.862 -8.595 4.573 -3.448 0.793 7.324 -464.997 -1214.958 -3014.986 0.255 -0.022 0.054 -0.01 0.51 -0.85 0.08
1 8.96 896 -0.833 -8.394 4.453 1.282 -4.700 6.348 -494.978 -1304.900 -3134.908 0.210 -0.223 0.172 -0.01 0.51 -0.85 0.08
1 8.97 897 -1.240 -8.414 4.358 1.434 -5.280 9.247 -690.000 -1214.958 -3149.898 0.609 -0.201 0.271 -0.01 0.51 -0.85 0.08
1 8.98 898 -0.963 -8.452 4.434 0.580 -8.179 7.996 -690.000 -1214.958 -3149.898 0.321 -0.161 0.197 -0.01 0.51 -0.85 0.08
1 8.99 899 -0.790 -8.327 4.449 -1.007 -3.815 8.057 -464.997 -1214.958 -3119.917 0.141 -0.284 0.184 -0.01 0.51 -0.85 0.08
1 9.00 900 -0.910 -8.868 4.415 1.892 -2.533 5.127 -419.876 -1124.867 -3164.888 0.255 0.257 0.217 -0.01 0.51 -0.85 0.08
1 9.01 901 -0.867 -8.476 4.520 3.143 -8.942 6.531 -419.876 -1124.867 -3164.888 0.207 -0.134 0.114 -0.01 0.51 -0.85 0.08
1 9.02 902 -0.589 -8.399 4.607 -0.122 -7.050 5.402 -374.906 -1424.972 -3164.888 -0.077 -0.208 0.032 -0.01 0.51 -0.85 0.09
1 9.03 903 -1.039 -8.600 4.353 -1.495 -6.897 3.265 -599.909 -1349.871 -3104.927 0.371 -0.006 0.287 -0.01 0.51 -0.85 0.09
1 9.04 904 -1.173 -8.619 4.310 1.740 -7.599 1.465 -374.906 -1229.949 -3239.989 0.505 0.013 0.329 -0.01 0.51 -0.85 0.09
1 9.05 905 -1.336 -8.706 4.362 3.326 -7.324 0.061 -374.906 -1229.949 -3239.989 0.668 0.100 0.279 -0.01 0.51 -0.85 0.09
1 9.06 906 -1.312 -8.701 4.300 3.326 -7.904 -1.434 -569.929 -1199.968 -3239.989 0.646 0.098 0.345 -0.01 0.51 -0.85 0.09
1 9.07 907 -1.063 -8.696 4.238 3.326 -9.735 -2.502 -674.860 -1274.919 -3209.859 0.401 0.095 0.412 -0.01 0.51 -0.85 0.09
1 9.08 908 -1.087 -8.821 4.252 3.387 -12.238 -1.892 -674.860 -1274.919 -3209.859 0.432 0.221 0.401 -0.01 0.51 -0.85 0.09
1 9.09 909 -1.135 -8.935 4.262 3.052 -13.977 -1.953 -599.909 -1154.998 -3239.989 0.489 0.337 0.396 -0.01 0.51 -0.85 0.09
1 9.10 910 -1.355 -8.873 4.262 3.723 -15.991 -0.214 -524.958 -1154.998 -3104.927 0.728 0.277 0.402 -0.02 0.51 -0.85 0.09
1 9.11 911 -1.403 -8.648 4.156 1.617 -16.480 0.397 -629.890 -1304.900 -3134.908 0.783 0.053 0.511 -0.02 0.51 -0.85 0.09
1 9.12 912 -1.489 -8.878 4.003 -0.153 -15.839 2.258 -629.890 -1304.900 -3134.908 0.874 0.283 0.665 -0.02 0.51 -0.85 0.09
1 9.13 913 -1.250 -8.921 4.042 -1.923 -15.869 2.411 -584.919 -1334.880 -3254.979 0.637 0.325 0.624 -0.02 0.51 -0.85 0.09
1 9.14 914 -0.977 -9.055 4.065 -4.334 -14.923 3.235 -539.948 -1259.929 -3194.869 0.366 0.456 0.595 -0.02 0.51 -0.85 0.09
1 9.15 915 -0.785 -9.285 3.960 -5.920 -15.503 3.387 -539.948 -1259.929 -3194.869 0.178 0.681 0.692 -0.02 0.51 -0.85 0.09
1 9.16 916 -0.733 -9.448 4.080 -2.655 -14.984 4.089 -509.968 -1259.929 -3149.898 0.129 0.838 0.561 -0.02 0.51 -0.85 0.09
1 9.17 917 -0.958 -9.352 4.003 2.563 -15.564 6.317 -539.948 -1214.958 -3329.931 0.360 0.737 0.629 -0.02 0.51 -0.85 0.09
1 9.18 918 -1.279 -9.180 4.133 5.005 -18.250 11.139 -629.890 -1229.949 -3284.960 0.681 0.565 0.501 -0.02 0.51 -0.85 0.1
1 9.19 919 -1.518 -9.170 4.228 4.272 -20.081 12.177 -629.890 -1229.949 -3284.960 0.915 0.558 0.410 -0.02 0.51 -0.85 0.1
1 9.20 920 -1.824 -9.285 4.257 5.127 -22.888 11.627 -614.899 -1139.857 -3194.869 1.214 0.676 0.386 -0.02 0.51 -0.85 0.1
1 9.21 921 -2.059 -9.290 4.367 5.463 -24.567 10.834 -629.890 -1274.919 -3284.960 1.443 0.684 0.281 -0.02 0.51 -0.85 0.1
1 9.22 922 -2.064 -9.520 4.233 4.181 -27.680 9.338 -629.890 -1274.919 -3284.960 1.442 0.918 0.421 -0.02 0.51 -0.85 0.1
1 9.23 923 -1.915 -9.481 4.104 6.195 -29.175 8.118 -794.932 -1364.861 -3224.999 1.291 0.882 0.555 -0.03 0.51 -0.85 0.1
1 9.24 924 -1.489 -9.625 4.161 8.728 -32.318 8.667 -704.991 -1199.968 -3209.859 0.868 1.033 0.511 -0.03 0.51 -0.85 0.11
1 9.25 925 -1.384 -9.462 4.089 8.911 -32.166 9.399 -690.000 -1259.929 -3149.898 0.768 0.875 0.592 -0.03 0.51 -0.85 0.11
1 9.26 926 -1.226 -9.390 4.300 5.096 -33.844 -2.197 -690.000 -1259.929 -3149.898 0.618 0.807 0.390 -0.03 0.51 -0.85 0.11
1 9.27 927 -0.809 -9.927 4.717 -2.075 -30.487 6.592 -674.860 -1199.968 -3239.989 0.223 1.344 -0.023 -0.03 0.51 -0.85 0.11
1 9.28 928 -0.503 -10.113 5.852 -7.935 -23.560 13.702 -779.942 -1199.968 -3164.888 -0.074 1.528 -1.161 -0.03 0.51 -0.85 0.11
1 9.29 929 0.350 -10.224 6.345 -24.658 -14.435 4.913 -779.942 -1199.968 -3164.888 -0.929 1.632 -1.666 -0.03 0.51 -0.85 0.12
1 9.30 930 0.814 -11.325 5.464 -40.772 3.143 14.160 -734.971 -1259.929 -3254.979 -1.388 2.713 -0.822 -0.04 0.51 -0.85 0.12
1 9.31 931 1.207 -10.884 5.617 -19.501 4.944 9.979 -734.971 -1169.988 -3194.869 -1.797 2.245 -1.029 -0.04 0.51 -0.85 0.12
1 9.32 932 0.642 -9.568 4.927 1.343 19.714 5.646 -779.942 -1229.949 -3164.888 -1.268 0.910 -0.379 -0.03 0.52 -0.85 0.12
1 9.33 933 -0.316 -9.515 4.343 3.082 17.487 9.705 -779.942 -1229.949 -3164.888 -0.328 0.859 0.207 -0.03 0.52 -0.85 0.12
1 9.34 934 -0.172 -10.018 4.506 14.862 16.815 -4.456 -734.971 -1169.988 -3119.917 -0.487 1.365 0.048 -0.03 0.52 -0.85 0.12
1 9.35 935 -0.532 -10.224 4.583 27.741 20.020 -9.247 -839.903 -1334.880 -3119.917 -0.131 1.583 -0.006 -0.03 0.52 -0.85 0.11
1 9.36 936 -1.140 -10.200 4.554 23.560 11.627 -8.698 -839.903 -1334.880 -3119.917 0.478 1.578 0.058 -0.03 0.51 -0.85 0.11
1 9.37 937 -1.738 -9.960 4.951 7.721 0.244 -6.378 -764.952 -1214.958 -3254.979 1.081 1.353 -0.312 -0.03 0.51 -0.85 0.11
1 9.38 938 -1.676 -9.587 5.205 5.920 -1.129 -3.632 -674.860 -1229.949 -3209.859 1.028 0.986 -0.553 -0.03 0.51 -0.85 0.11
1 9.39 939 -1.829 -8.682 5.148 4.913 -3.082 2.655 -779.942 -1379.851 -3239.989 1.189 0.090 -0.477 -0.03 0.51 -0.85 0.11
1 9.40 940 -1.044 -8.279 5.267 -1.373 -10.864 3.326 -779.942 -1379.851 -3239.989 0.395 -0.307 -0.589 -0.03 0.51 -0.85 0.11
1 9.41 941 -0.441 -7.810 5.229 -3.967 -7.660 7.935 -734.971 -1169.988 -3254.979 -0.213 -0.775 -0.548 -0.03 0.51 -0.85 0.11
1 9.42 942 0.024 -7.762 5.220 -2.228 0.031 8.087 -824.913 -1274.919 -3164.888 -0.683 -0.821 -0.537 -0.03 0.51 -0.85 0.11
1 9.43 943 0.187 -7.465 5.196 -2.106 6.409 7.355 -824.913 -1274.919 -3164.888 -0.854 -1.115 -0.509 -0.03 0.51 -0.85 0.11
1 9.44 944 -0.043 -7.197 5.196 -3.021 -1.953 1.526 -659.870 -1169.988 -3149.898 -0.631 -1.381 -0.506 -0.03 0.51 -0.85 0.11
1 9.45 945 0.316 -7.312 5.598 -3.723 -13.031 -2.319 -599.909 -1349.871 -3029.976 -0.988 -1.264 -0.904 -0.03 0.51 -0.85 0.11
1 9.46 946 1.312 -6.896 6.374 0.244 -16.480 -2.930 -599.909 -1349.871 -3029.976 -1.965 -1.679 -1.673 -0.03 0.51 -0.85 0.11
1 9.47 947 1.279 -6.517 6.043 9.399 -7.813 0.275 -779.942 -1229.949 -3134.908 -1.881 -2.040 -1.306 -0.03 0.51 -0.85 0.11
1 9.48 948 0.809 -6.335 6.105 10.345 -6.989 2.106 -779.942 -1304.900 -3284.960 -1.392 -2.207 -1.338 -0.03 0.51 -0.85 0.11
1 9.49 949 0.555 -6.014 6.091 3.632 -11.597 8.789 -749.961 -1154.998 -3164.888 -1.126 -2.513 -1.295 -0.03 0.5 -0.86 0.11
1 9.50 950 0.699 -6.029 6.259 -4.120 -7.690 8.637 -749.961 -1154.998 -3164.888 -1.270 -2.496 -1.458 -0.03 0.5 -0.86 0.11
1 9.51 951 0.479 -6.125 6.029 -14.496 -6.958 11.292 -749.961 -1124.867 -3284.960 -1.057 -2.403 -1.235 -0.03 0.5 -0.86 0.12
1 9.52 952 -0.196 -7.398 5.919 -30.304 -9.522 13.336 -764.952 -1259.929 -3149.898 -0.392 -1.141 -1.146 -0.03 0.51 -0.85 0.12
1 9.53 953 -0.709 -8.533 5.718 -34.149 -11.627 11.383 -764.952 -1259.929 -3149.898 0.113 -0.018 -0.968 -0.03 0.51 -0.85 0.12
1 9.54 954 -1.106 -9.213 5.555 -31.372 -20.783 8.301 -734.971 -1259.929 -3194.869 0.500 0.624 -0.875 -0.04 0.51 -0.85 0.12
1 9.55 955 -0.958 -9.788 5.540 -22.156 -21.698 3.326 -839.903 -1259.929 -3224.999 0.359 1.178 -0.897 -0.04 0.51 -0.85 0.12
1 9.56 956 -0.728 -9.477 5.445 -5.127 -21.973 1.129 -779.942 -1049.916 -3209.859 0.142 0.855 -0.822 -0.04 0.51 -0.85 0.12
1 9.57 957 -0.397 -9.084 5.291 12.878 -20.050 -0.397 -779.942 -1049.916 -3209.859 -0.173 0.462 -0.667 -0.04 0.51 -0.85 0.12
1 9.58 958 -0.211 -8.629 5.306 22.339 -16.144 -1.404 -839.903 -1214.958 -3149.898 -0.342 0.021 -0.655 -0.04 0.51 -0.85 0.12
1 9.59 959 0.383 -8.418 5.196 14.191 -14.313 -9.552 -794.932 -1289.910 -3194.869 -0.916 -0.172 -0.510 -0.04 0.51 -0.85 0.12
1 9.60 960 0.603 -8.471 4.980 8.270 -15.656 -9.125 -794.932 -1289.910 -3194.869 -1.107 -0.106 -0.266 -0.04 0.51 -0.85 0.12
1 9.61 961 0.991 -8.653 4.803 10.925 -14.679 -10.529 -839.903 -1214.958 -3119.917 -1.430 0.091 -0.055 -0.05 0.51 -0.85 0.12
1 9.62 962 1.082 -8.586 4.836 11.658 -12.054 -10.407 -899.864 -1304.900 -3164.888 -1.487 0.032 -0.071 -0.05 0.5 -0.85 0.12
1 9.63 963 0.618 -8.404 4.415 7.507 -10.712 -8.240 -929.994 -1199.968 -3104.927 -0.995 -0.143 0.365 -0.05 0.5 -0.85 0.12
1 9.64 964 0.632 -9.070 4.434 7.874 -9.644 -9.857 -929.994 -1199.968 -3104.927 -0.979 0.527 0.356 -0.05 0.5 -0.85 0.12
1 9.65 965 0.441 -9.189 4.233 12.116 -12.665 -3.021 -704.991 -1079.896 -3164.888 -0.762 0.652 0.568 -0.05 0.5 -0.85 0.12
1 9.66 966 0.709 -8.830 4.544 18.585 -11.414 -6.165 -869.883 -1214.958 -3149.898 -1.012 0.300 0.271 -0.05 0.5 -0.86 0.12
1 9.67 967 0.690 -9.132 4.415 21.179 -6.714 -5.707 -869.883 -1214.958 -3149.898 -0.971 0.613 0.421 -0.05 0.5 -0.86 0.12
1 9.68 968 1.073 -8.581 4.621 23.163 -3.357 -6.744 -929.994 -1304.900 -2984.855 -1.311 0.090 0.266 -0.06 0.5 -0.86 0.12
1 9.69 969 1.216 -8.318 4.654 23.346 -1.099 -2.838 -869.883 -1169.988 -3074.947 -1.437 -0.157 0.262 -0.06 0.5 -0.86 0.12
1 9.70 970 1.518 -8.097 4.592 21.515 5.280 -4.517 -974.965 -1304.900 -3209.859 -1.719 -0.361 0.353 -0.06 0.49 -0.86 0.12
1 9.71 971 1.312 -7.916 4.429 19.013 5.676 -1.495 -974.965 -1304.900 -3209.859 -1.500 -0.527 0.543 -0.06 0.49 -0.86 0.12
1 9.72 972 1.245 -7.719 4.468 18.494 7.538 -1.373 -899.864 -1274.919 -3164.888 -1.423 -0.709 0.529 -0.06 0.49 -0.86 0.12
1 9.73 973 1.168 -7.556 4.233 17.426 13.275 -1.617 -764.952 -1334.880 -3119.917 -1.340 -0.858 0.787 -0.06 0.49 -0.86 0.12
1 9.74 974 1.250 -7.916 4.032 11.017 18.005 -3.601 -764.952 -1334.880 -3119.917 -1.430 -0.486 1.010 -0.06 0.49 -0.86 0.12
1 9.75 975 1.542 -8.136 3.998 8.759 22.949 -5.249 -1019.936 -1439.962 -3194.869 -1.726 -0.257 1.059 -0.05 0.49 -0.86 0.11
1 9.76 976 1.326 -8.265 3.975 11.902 29.022 -8.026 -974.965 -1229.949 -3239.989 -1.508 -0.117 1.099 -0.05 0.49 -0.86 0.11
1 9.77 977 1.312 -8.303 3.692 12.421 33.264 -10.040 -839.903 -1409.981 -3224.999 -1.494 -0.073 1.392 -0.05 0.49 -0.86 0.11
1 9.78 978 0.915 -8.370 3.457 11.231 37.750 -10.925 -839.903 -1409.981 -3224.999 -1.098 -0.000 1.635 -0.05 0.49 -0.87 0.11
1 9.79 979 0.742 -8.126 3.323 9.766 39.581 -9.125 -854.893 -1424.972 -3209.859 -0.932 -0.242 1.774 -0.05 0.49 -0.87 0.11
1 9.80 980 0.187 -8.495 3.477 6.805 40.833 -12.024 -734.971 -1364.861 -3149.898 -0.390 0.132 1.628 -0.05 0.49 -0.87 0.1
1 9.81 981 -0.225 -8.749 3.280 -0.366 40.955 -10.040 -734.971 -1364.861 -3149.898 0.009 0.384 1.821 -0.04 0.49 -0.87 0.1
1 9.82 982 -0.268 -8.859 3.457 -3.021 40.192 -9.399 -704.991 -1379.851 -3164.888 0.035 0.489 1.635 -0.04 0.49 -0.87 0.1
1 9.83 983 -0.134 -9.022 3.615 -3.906 38.635 -8.667 -749.961 -1349.871 -3164.888 -0.137 0.635 1.447 -0.04 0.49 -0.87 0.09
1 9.84 984 -0.091 -8.581 3.520 -5.615 37.293 0.397 -704.991 -1349.871 -3314.940 -0.201 0.185 1.527 -0.03 0.49 -0.87 0.09
1 9.85 985 0.215 -8.572 3.630 -4.181 34.302 -4.761 -704.991 -1349.871 -3314.940 -0.532 0.166 1.399 -0.03 0.49 -0.87 0.09
1 9.86 986 0.316 -8.476 3.453 -1.038 36.591 -7.050 -674.860 -1379.851 -3209.859 -0.649 0.063 1.563 -0.03 0.49 -0.86 0.09
1 9.87 987 0.024 -8.821 3.381 -0.580 36.011 -2.625 -690.000 -1334.880 -3299.950 -0.373 0.402 1.624 -0.03 0.49 -0.86 0.09
1 9.88 988 -0.110 -8.768 3.271 -4.242 32.227 -0.977 -690.000 -1334.880 -3299.950 -0.260 0.343 1.721 -0.03 0.49 -0.86 0.08
1 9.89 989 0.010 -8.993 3.117 -3.662 33.966 -2.869 -524.958 -1499.923 -3239.989 -0.401 0.559 1.859 -0.02 0.5 -0.86 0.08
