COL1	TIME	ACC_X	ACC_Y	ACC_Z	GYR_X	GYR_Y	GYR_Z	MAG_X	MAG_Y	MAG_Z	LACC_X	LACC_Y	LACC_Z	QUAT_X	QUAT_Y	QUAT_Z	QUAT_W
1 0.00 0 0.872 -8.097 5.794 -1.160 -10.742 1.526 -509.968 -1934.939 -4064.902 0.004 0.242 -0.001 -0.07 0.45 -0.89 0.03
1 0.01 1 0.982 -7.925 5.727 2.350 -9.003 2.289 -464.997 -1784.887 -4199.964 -0.099 0.069 0.065 -0.07 0.45 -0.89 0.03
1 0.02 2 0.905 -7.834 5.785 3.967 -7.080 2.869 -629.890 -2039.871 -4079.892 -0.016 -0.019 0.010 -0.07 0.45 -0.89 0.03
1 0.03 3 0.895 -7.604 5.885 1.617 -5.066 2.625 -629.890 -2039.871 -4079.892 -0.004 -0.246 -0.086 -0.07 0.45 -0.89 0.03
1 0.04 4 0.967 -7.523 5.890 -6.500 -4.791 3.418 -569.929 -1844.998 -4154.993 -0.075 -0.325 -0.089 -0.07 0.45 -0.89 0.03
1 0.05 5 0.848 -7.585 5.971 -12.817 -5.402 3.296 -569.929 -1844.998 -4154.993 0.045 -0.266 -0.175 -0.07 0.45 -0.89 0.03
1 0.06 6 0.857 -7.714 5.952 -17.456 -5.646 3.448 -569.929 -1964.920 -4184.974 0.037 -0.145 -0.167 -0.07 0.45 -0.89 0.03
1 0.07 7 0.986 -7.858 5.847 -18.616 -6.653 3.021 -569.929 -1964.920 -4184.974 -0.091 -0.014 -0.080 -0.07 0.45 -0.89 0.03
1 0.08 8 1.073 -8.150 5.722 -13.397 -7.111 2.899 -734.971 -1979.910 -4064.902 -0.170 0.249 0.004 -0.07 0.45 -0.89 0.03
1 0.09 9 1.164 -8.203 5.737 -6.378 -7.385 2.594 -690.000 -1859.988 -4139.853 -0.256 0.291 -0.025 -0.07 0.45 -0.89 0.03
1 0.10 10 1.235 -8.275 5.813 0.549 -7.050 2.350 -690.000 -1859.988 -4139.853 -0.323 0.360 -0.107 -0.07 0.45 -0.89 0.03
1 0.11 11 1.307 -8.078 5.880 5.188 -5.981 2.716 -599.909 -1919.949 -4079.892 -0.389 0.165 -0.172 -0.07 0.45 -0.89 0.03
1 0.12 12 1.207 -8.097 6.081 3.479 -5.859 2.686 -599.909 -1919.949 -4079.892 -0.283 0.190 -0.366 -0.07 0.45 -0.89 0.03
1 0.13 13 1.245 -8.035 6.182 -0.885 -5.798 2.747 -690.000 -1859.988 -4064.902 -0.317 0.133 -0.461 -0.07 0.45 -0.89 0.04
1 0.14 14 1.365 -7.968 6.053 -6.195 -4.211 2.197 -690.000 -1859.988 -4064.902 -0.431 0.067 -0.330 -0.07 0.45 -0.89 0.04
1 0.15 15 1.259 -8.016 6.177 -11.780 -0.977 -0.397 -584.919 -2054.861 -4169.983 -0.317 0.107 -0.467 -0.07 0.45 -0.89 0.04
1 0.16 16 1.226 -8.016 6.110 -12.329 0.549 -2.258 -494.978 -2039.871 -4109.873 -0.279 0.100 -0.411 -0.07 0.45 -0.89 0.03
1 0.17 17 1.255 -7.858 5.804 -10.712 1.831 -4.181 -494.978 -2039.871 -4109.873 -0.302 -0.066 -0.116 -0.07 0.45 -0.89 0.03
1 0.18 18 1.212 -7.920 5.866 -6.775 1.862 -5.096 -674.860 -1889.969 -3974.960 -0.253 -0.009 -0.188 -0.07 0.45 -0.89 0.03
1 0.19 19 1.183 -7.820 5.646 0.977 -0.244 -7.080 -629.890 -1964.920 -4079.892 -0.218 -0.112 0.028 -0.07 0.45 -0.89 0.03
1 0.20 20 1.144 -7.925 5.670 5.157 -2.228 -6.989 -464.997 -1934.939 -3944.980 -0.169 -0.005 0.004 -0.07 0.45 -0.89 0.03
1 0.21 21 1.231 -7.772 5.607 5.737 -3.510 -7.263 -464.997 -1934.939 -3944.980 -0.244 -0.153 0.073 -0.07 0.45 -0.89 0.03
1 0.22 22 1.470 -7.781 5.852 3.632 -2.075 -7.507 -389.896 -1859.988 -4064.902 -0.456 -0.128 -0.155 -0.07 0.45 -0.89 0.03
1 0.23 23 1.480 -7.820 5.847 0.671 0.641 -7.843 -569.929 -1919.949 -4079.892 -0.451 -0.084 -0.145 -0.07 0.45 -0.89 0.03
1 0.24 24 1.461 -7.753 6.038 -2.228 4.425 -8.362 -569.929 -1919.949 -4079.892 -0.420 -0.148 -0.334 -0.07 0.45 -0.89 0.03
1 0.25 25 1.360 -7.614 5.837 -4.639 8.057 -9.491 -584.919 -1829.858 -4094.882 -0.309 -0.285 -0.133 -0.07 0.45 -0.89 0.03
1 0.26 26 1.173 -7.820 5.674 -7.294 11.658 -11.688 -434.867 -1754.907 -4094.882 -0.116 -0.080 0.028 -0.07 0.45 -0.89 0.03
1 0.27 27 1.001 -7.844 5.770 -9.766 13.001 -12.268 -614.899 -1904.959 -4169.983 0.062 -0.058 -0.072 -0.07 0.45 -0.89 0.03
1 0.28 28 0.766 -7.834 5.660 -13.214 13.763 -13.153 -614.899 -1904.959 -4169.983 0.301 -0.072 0.031 -0.07 0.45 -0.89 0.02
1 0.29 29 0.790 -7.973 5.698 -15.961 13.977 -13.977 -524.958 -1724.926 -4154.993 0.282 0.059 -0.018 -0.07 0.45 -0.89 0.02
1 0.30 30 0.488 -8.112 5.698 -19.806 13.794 -13.794 -569.929 -1844.998 -4004.941 0.590 0.175 -0.052 -0.07 0.45 -0.89 0.02
1 0.31 31 0.460 -8.232 5.655 -19.653 13.336 -13.031 -569.929 -1844.998 -4004.941 0.620 0.280 -0.029 -0.07 0.46 -0.89 0.02
1 0.32 32 0.340 -8.342 5.516 -17.975 13.062 -10.956 -539.948 -1829.858 -3915.000 0.739 0.376 0.089 -0.07 0.46 -0.89 0.02
1 0.33 33 0.302 -8.543 5.435 -14.191 11.780 -8.118 -434.867 -1679.956 -4169.983 0.774 0.564 0.152 -0.07 0.46 -0.89 0.01
1 0.34 34 0.326 -8.557 5.406 -7.690 8.972 -5.493 -659.870 -1859.988 -4064.902 0.745 0.567 0.166 -0.07 0.46 -0.89 0.01
1 0.35 35 0.235 -8.595 5.473 -2.686 6.928 -2.502 -659.870 -1859.988 -4064.902 0.828 0.597 0.089 -0.07 0.46 -0.89 0.01
1 0.36 36 0.498 -8.816 5.507 1.648 4.639 0.336 -584.919 -1859.988 -4064.902 0.556 0.812 0.050 -0.07 0.46 -0.89 0.01
1 0.37 37 0.584 -8.715 5.660 6.134 2.045 3.113 -539.948 -1829.858 -4019.931 0.452 0.714 -0.098 -0.07 0.46 -0.89 0.01
1 0.38 38 0.857 -8.782 5.909 7.111 2.014 5.157 -539.948 -1829.858 -4019.931 0.171 0.785 -0.339 -0.07 0.46 -0.89 0.01
1 0.39 39 0.919 -8.663 5.991 7.324 2.594 5.798 -539.948 -1709.936 -3989.951 0.098 0.671 -0.411 -0.07 0.46 -0.89 0.01
1 0.40 40 1.087 -8.691 6.058 7.599 3.235 6.531 -539.948 -1754.907 -3989.951 -0.081 0.705 -0.467 -0.07 0.46 -0.89 0.01
1 0.41 41 1.164 -8.567 5.991 8.118 3.784 6.073 -509.968 -1709.936 -4019.931 -0.168 0.587 -0.389 -0.07 0.46 -0.89 0.02
1 0.42 42 1.255 -8.370 5.746 10.864 4.608 5.646 -509.968 -1709.936 -4019.931 -0.269 0.398 -0.133 -0.06 0.46 -0.89 0.02
1 0.43 43 1.370 -8.040 5.660 12.299 4.547 4.486 -449.857 -1844.998 -4049.912 -0.394 0.077 -0.032 -0.06 0.46 -0.89 0.02
1 0.44 44 1.350 -7.844 5.627 10.254 3.387 1.923 -569.929 -1799.877 -4229.944 -0.387 -0.099 0.033 -0.06 0.46 -0.89 0.02
1 0.45 45 1.159 -7.757 5.727 7.263 3.937 0.122 -569.929 -1799.877 -4229.944 -0.197 -0.175 -0.054 -0.06 0.45 -0.89 0.02
1 0.46 46 1.250 -7.552 5.607 3.815 4.913 -1.984 -494.978 -1889.969 -4049.912 -0.289 -0.374 0.076 -0.06 0.45 -0.89 0.02
1 0.47 47 1.408 -7.480 5.727 0.488 6.866 -3.632 -599.909 -1769.897 -4229.944 -0.446 -0.441 -0.038 -0.06 0.45 -0.89 0.02
1 0.48 48 1.465 -7.523 5.627 -3.204 11.688 -4.089 -539.948 -1829.858 -4019.931 -0.501 -0.396 0.066 -0.06 0.45 -0.89 0.01
1 0.49 49 1.456 -7.542 5.598 -4.852 15.839 -3.906 -539.948 -1829.858 -4019.931 -0.492 -0.377 0.095 -0.06 0.45 -0.89 0.01
1 0.50 50 1.451 -7.547 5.627 -5.737 20.203 -2.960 -614.899 -1904.959 -3989.951 -0.491 -0.373 0.065 -0.06 0.45 -0.89 0.01
1 0.51 51 1.465 -7.638 5.636 -6.744 24.262 -3.113 -569.929 -1919.949 -4049.912 -0.513 -0.285 0.053 -0.06 0.45 -0.89 0.01
1 0.52 52 1.374 -7.719 5.684 -7.202 27.680 -3.906 -569.929 -1919.949 -4049.912 -0.448 -0.210 0.001 -0.06 0.45 -0.89 0.01
1 0.53 53 1.164 -7.662 5.742 -7.568 29.389 -4.852 -494.978 -1694.946 -4049.912 -0.253 -0.271 -0.059 -0.06 0.45 -0.89 0.01
1 0.54 54 0.977 -7.695 5.646 -7.843 29.053 -5.249 -359.916 -1859.988 -3989.951 -0.083 -0.241 0.033 -0.05 0.46 -0.89 0.01
1 0.55 55 1.049 -7.801 5.507 -8.118 27.985 -6.195 -374.906 -1844.998 -4079.892 -0.171 -0.141 0.168 -0.05 0.46 -0.89 0.01
1 0.56 56 1.049 -7.949 5.545 -8.331 25.086 -6.928 -374.906 -1844.998 -4079.892 -0.185 0.003 0.125 -0.05 0.46 -0.89 0
1 0.57 57 0.929 -8.232 5.603 -8.759 22.400 -6.836 -389.896 -1904.959 -4169.983 -0.079 0.280 0.061 -0.05 0.46 -0.89 0
1 0.58 58 0.943 -8.356 5.670 -8.392 19.287 -7.446 -359.916 -1709.936 -4094.882 -0.102 0.398 -0.013 -0.05 0.46 -0.89 0
1 0.59 59 0.953 -8.543 5.799 -6.622 15.961 -7.355 -359.916 -1709.936 -4094.882 -0.124 0.573 -0.156 0.05 -0.46 0.89 0
1 0.60 60 0.958 -8.639 5.861 -5.096 14.008 -7.294 -359.916 -1934.939 -4019.931 -0.132 0.665 -0.224 0.05 -0.46 0.89 0
1 0.61 61 1.015 -8.509 5.904 -2.869 13.611 -7.294 -389.896 -1859.988 -4139.853 -0.192 0.533 -0.271 0.05 -0.46 0.89 0
1 0.62 62 0.857 -8.342 5.971 -2.258 13.184 -7.111 -389.896 -1859.988 -4139.853 -0.035 0.365 -0.338 0.05 -0.46 0.89 0
1 0.63 63 0.876 -8.346 6.067 -3.143 14.069 -6.104 -269.974 -1889.969 -4079.892 -0.056 0.369 -0.434 0.04 -0.46 0.89 0
1 0.64 64 0.785 -8.294 6.081 -5.035 15.259 -6.073 -434.867 -1754.907 -4019.931 0.031 0.317 -0.448 0.04 -0.46 0.89 0.01
1 0.65 65 0.704 -8.256 6.005 -6.073 16.480 -5.127 -179.883 -1829.858 -3944.980 0.107 0.277 -0.372 0.04 -0.46 0.89 0.01
1 0.66 66 0.555 -8.404 5.765 -2.960 17.792 -3.387 -179.883 -1829.858 -3944.980 0.238 0.420 -0.138 0.04 -0.46 0.89 0.01
1 0.67 67 0.421 -8.256 5.564 2.045 18.097 -2.197 -419.876 -1724.926 -4049.912 0.360 0.271 0.064 0.04 -0.46 0.89 0.01
1 0.68 68 0.460 -8.241 5.497 7.477 17.029 -0.671 -284.964 -1904.959 -4019.931 0.307 0.260 0.138 0.04 -0.46 0.89 0.01
1 0.69 69 0.407 -8.097 5.492 10.590 14.954 0.336 -284.964 -1904.959 -4019.931 0.344 0.124 0.155 0.04 -0.46 0.89 0.01
1 0.70 70 0.302 -8.006 5.425 8.789 10.590 0.824 -209.863 -1934.939 -3944.980 0.435 0.042 0.237 0.04 -0.46 0.89 0.01
1 0.71 71 0.148 -8.112 5.617 4.761 6.683 1.190 -269.974 -1769.897 -3974.960 0.574 0.155 0.058 0.04 -0.46 0.89 0.01
1 0.72 72 0.187 -8.256 5.718 1.404 3.662 2.258 -89.941 -1844.998 -4049.912 0.524 0.304 -0.034 0.04 -0.46 0.89 0.01
1 0.73 73 0.125 -8.241 5.780 -0.732 2.106 2.869 -89.941 -1844.998 -4049.912 0.577 0.291 -0.092 0.04 -0.46 0.89 0.01
1 0.74 74 -0.101 -8.303 5.856 -1.312 -0.824 3.906 -254.984 -1784.887 -4064.902 0.784 0.352 -0.169 0.03 -0.46 0.89 0.01
1 0.75 75 -0.086 -8.337 5.775 -0.549 -3.876 5.219 -194.873 -1889.969 -4004.941 0.761 0.384 -0.089 0.03 -0.46 0.89 0.01
1 0.76 76 -0.038 -8.232 5.775 1.587 -6.592 6.775 -194.873 -1889.969 -4004.941 0.705 0.278 -0.088 0.03 -0.46 0.89 0.01
1 0.77 77 0.148 -8.198 5.837 2.777 -11.139 7.690 -89.941 -1844.998 -4109.873 0.512 0.246 -0.148 0.03 -0.46 0.89 0.01
1 0.78 78 0.096 -8.217 5.761 6.012 -15.991 9.430 -134.912 -1829.858 -4019.931 0.561 0.268 -0.068 0.03 -0.46 0.89 0.01
1 0.79 79 0.364 -8.107 5.636 7.843 -18.036 11.200 -134.912 -1784.887 -4064.902 0.293 0.161 0.062 0.03 -0.46 0.89 0.01
1 0.80 80 0.503 -8.131 5.742 8.789 -19.959 12.878 -134.912 -1784.887 -4064.902 0.153 0.191 -0.035 0.04 -0.46 0.89 0
1 0.81 81 0.618 -8.150 5.583 8.911 -21.149 14.526 -134.912 -1754.907 -4019.931 0.039 0.224 0.142 0.04 -0.45 0.89 0
1 0.82 82 0.862 -8.050 5.722 7.751 -21.240 16.205 -284.964 -1709.936 -4199.964 -0.205 0.129 0.011 -0.04 0.45 -0.89 0
1 0.83 83 0.857 -8.064 5.660 5.829 -22.461 17.670 -284.964 -1709.936 -4199.964 -0.200 0.149 0.080 -0.04 0.45 -0.89 0
1 0.84 84 0.963 -7.877 5.646 4.700 -23.010 19.013 -224.854 -1844.998 -4229.944 -0.305 -0.035 0.100 -0.04 0.45 -0.89 0
1 0.85 85 1.073 -7.671 5.713 5.554 -22.644 19.226 -254.984 -2009.891 -3989.951 -0.415 -0.238 0.036 -0.04 0.45 -0.89 0.01
1 0.86 86 1.001 -7.614 5.703 6.042 -21.088 18.433 -284.964 -1904.959 -4064.902 -0.343 -0.291 0.052 -0.04 0.45 -0.89 0.01
1 0.87 87 0.943 -7.604 5.603 4.608 -20.111 16.907 -284.964 -1904.959 -4064.902 -0.286 -0.296 0.159 -0.04 0.45 -0.89 0.01
1 0.88 88 0.934 -7.667 5.651 0.458 -18.127 14.496 -299.955 -1844.998 -4079.892 -0.275 -0.227 0.120 -0.04 0.45 -0.89 0.01
1 0.89 89 1.058 -7.676 5.737 -2.380 -17.670 12.939 -194.873 -1964.920 -4004.941 -0.398 -0.217 0.034 -0.05 0.45 -0.89 0.01
1 0.90 90 1.116 -7.743 5.507 -4.639 -16.541 12.085 -194.873 -1964.920 -4004.941 -0.452 -0.153 0.259 -0.05 0.45 -0.89 0.02
1 0.91 91 1.063 -7.805 5.660 -5.005 -15.900 12.054 -284.964 -1904.959 -3989.951 -0.396 -0.096 0.099 -0.05 0.45 -0.89 0.02
1 0.92 92 1.197 -7.839 5.689 -2.380 -15.167 11.688 -329.935 -1979.910 -4094.882 -0.526 -0.066 0.064 -0.05 0.45 -0.89 0.02
1 0.93 93 1.192 -7.690 5.727 -0.977 -14.984 11.322 -419.876 -1919.949 -4079.892 -0.518 -0.218 0.021 -0.05 0.45 -0.89 0.02
1 0.94 94 1.202 -7.848 5.674 0.153 -15.808 10.651 -419.876 -1919.949 -4079.892 -0.523 -0.061 0.071 -0.05 0.45 -0.89 0.02
1 0.95 95 1.317 -7.772 5.765 0.305 -17.181 9.888 -269.974 -1724.926 -4004.941 -0.633 -0.138 -0.020 -0.05 0.45 -0.89 0.02
1 0.96 96 1.307 -7.853 6.005 -1.831 -18.646 7.690 -374.906 -1799.877 -4079.892 -0.606 -0.055 -0.260 -0.05 0.45 -0.89 0.02
1 0.97 97 1.408 -7.877 6.077 -3.693 -18.066 5.737 -374.906 -1799.877 -4079.892 -0.694 -0.032 -0.334 -0.05 0.45 -0.89 0.02
1 0.98 98 1.370 -7.892 6.096 -5.798 -17.822 3.448 -419.876 -1844.998 -4109.873 -0.640 -0.019 -0.357 -0.05 0.45 -0.89 0.02
1 0.99 99 1.441 -8.217 6.177 -6.592 -15.320 1.221 -449.857 -1889.969 -4049.912 -0.695 0.303 -0.445 -0.06 0.45 -0.89 0.02
1 1.00 100 1.480 -8.203 6.034 -4.334 -11.231 -2.167 -389.896 -1859.988 -4064.902 -0.716 0.285 -0.309 -0.06 0.45 -0.89 0.02
1 1.01 101 1.350 -8.083 6.101 -1.160 -8.179 -3.540 -389.896 -1859.988 -4064.902 -0.570 0.164 -0.381 -0.06 0.45 -0.89 0.02
1 1.02 102 1.312 -8.093 5.952 2.960 -6.989 -5.463 -374.906 -1769.897 -4184.974 -0.515 0.174 -0.235 -0.06 0.45 -0.89 0.02
1 1.03 103 1.164 -7.963 5.861 5.493 -5.219 -7.996 -389.896 -1934.939 -4094.882 -0.332 0.055 -0.133 -0.06 0.45 -0.89 0.02
1 1.04 104 1.197 -7.939 5.818 4.913 -4.852 -10.193 -389.896 -1934.939 -4094.882 -0.347 0.039 -0.083 -0.06 0.45 -0.89 0.02
1 1.05 105 1.111 -7.925 5.799 1.831 -3.906 -11.200 -374.906 -1964.920 -4079.892 -0.243 0.031 -0.057 -0.06 0.45 -0.89 0.02
1 1.06 106 1.092 -8.006 5.665 -0.977 -4.639 -11.231 -374.906 -1964.920 -4079.892 -0.204 0.116 0.079 -0.06 0.45 -0.89 0.02
1 1.07 107 1.025 -8.188 5.727 -5.676 -5.341 -9.705 -389.896 -1904.959 -4019.931 -0.118 0.299 0.015 -0.06 0.45 -0.89 0.02
1 1.08 108 1.111 -8.107 5.737 -6.500 -6.348 -8.301 -389.896 -1904.959 -4019.931 -0.185 0.215 -0.001 -0.06 0.45 -0.89 0.02
1 1.09 109 1.164 -8.279 5.842 -5.554 -6.805 -6.287 -509.968 -1829.858 -4094.882 -0.220 0.383 -0.115 -0.06 0.45 -0.89 0.02
1 1.10 110 1.144 -8.265 5.880 -1.617 -7.355 -3.784 -494.978 -1964.920 -4109.873 -0.171 0.363 -0.167 -0.07 0.45 -0.89 0.02
1 1.11 111 1.039 -8.236 5.794 0.336 -6.409 -2.502 -494.978 -1964.920 -4109.873 -0.054 0.334 -0.082 -0.07 0.45 -0.89 0.02
1 1.12 112 1.049 -8.165 5.938 1.587 -5.188 -1.221 -464.997 -1859.988 -4274.915 -0.054 0.264 -0.225 -0.07 0.45 -0.89 0.02
1 1.13 113 1.140 -7.997 5.900 2.289 -3.479 0.214 -464.997 -1859.988 -4274.915 -0.139 0.099 -0.184 -0.07 0.45 -0.89 0.02
1 1.14 114 1.121 -7.868 5.876 1.740 0.793 1.282 -539.948 -1829.858 -4169.983 -0.117 -0.027 -0.157 -0.07 0.45 -0.89 0.02
1 1.15 115 1.092 -7.657 5.679 1.617 2.686 0.885 -539.948 -1829.858 -4169.983 -0.088 -0.235 0.043 -0.07 0.45 -0.89 0.02
1 1.16 116 0.809 -7.643 5.574 1.434 4.303 -1.251 -524.958 -1799.877 -4184.974 0.192 -0.247 0.153 -0.07 0.45 -0.89 0.02
1 1.17 117 0.824 -7.623 5.540 -0.183 4.334 -2.686 -539.948 -1904.959 -4094.882 0.176 -0.263 0.190 -0.07 0.45 -0.89 0.02
1 1.18 118 0.757 -7.734 5.646 -5.035 2.167 -4.608 -539.948 -1904.959 -4094.882 0.243 -0.152 0.087 -0.07 0.45 -0.89 0.02
1 1.19 119 0.704 -7.829 5.703 -8.331 1.556 -4.974 -419.876 -1844.998 -3929.990 0.299 -0.059 0.024 -0.07 0.45 -0.89 0.02
1 1.20 120 0.546 -8.083 5.718 -9.308 2.075 -4.120 -419.876 -1844.998 -3929.990 0.459 0.189 0.001 -0.07 0.45 -0.89 0.02
1 1.21 121 0.723 -8.284 5.684 -7.629 2.655 -2.930 -509.968 -1784.887 -4169.983 0.282 0.383 0.026 -0.07 0.45 -0.89 0.02
1 1.22 122 0.752 -8.289 5.708 -2.197 2.380 -1.862 -509.968 -1784.887 -4169.983 0.253 0.382 -0.006 -0.07 0.45 -0.89 0.02
1 1.23 123 0.723 -8.366 5.670 0.580 1.373 -1.099 -599.909 -1769.897 -4049.912 0.281 0.456 0.029 -0.07 0.45 -0.89 0.02
1 1.24 124 0.771 -8.299 5.737 1.160 -0.031 -1.312 -494.978 -1844.998 -3974.960 0.232 0.390 -0.037 -0.07 0.45 -0.89 0.02
1 1.25 125 0.651 -8.294 5.746 -0.854 -2.136 -1.404 -494.978 -1844.998 -3974.960 0.352 0.386 -0.045 -0.07 0.45 -0.89 0.02
1 1.26 126 0.661 -8.241 5.947 -4.028 -2.991 -1.007 -449.857 -1994.900 -4154.993 0.344 0.332 -0.249 -0.07 0.45 -0.89 0.02
1 1.27 127 0.661 -8.203 5.880 -6.378 -3.357 -0.366 -449.857 -1994.900 -4154.993 0.344 0.290 -0.187 -0.07 0.45 -0.89 0.02
1 1.28 128 0.742 -8.284 5.885 -8.057 -4.089 -0.153 -494.978 -1694.946 -3929.990 0.264 0.366 -0.199 -0.07 0.45 -0.89 0.02
1 1.29 129 0.613 -8.136 5.914 -8.179 -4.089 0.702 -494.978 -1694.946 -3929.990 0.394 0.211 -0.237 -0.07 0.45 -0.89 0.02
1 1.30 130 0.642 -8.179 5.900 -5.219 -5.005 1.099 -569.929 -1724.926 -4184.974 0.366 0.248 -0.231 -0.07 0.45 -0.89 0.02
1 1.31 131 0.646 -8.265 5.780 -0.977 -5.524 1.617 -629.890 -1724.926 -4109.873 0.362 0.330 -0.119 -0.07 0.45 -0.89 0.02
1 1.32 132 0.761 -8.160 5.794 5.157 -7.080 1.648 -629.890 -1724.926 -4109.873 0.249 0.225 -0.132 -0.07 0.45 -0.89 0.02
1 1.33 133 0.766 -8.030 5.871 8.972 -7.477 2.075 -614.899 -1709.936 -3989.951 0.246 0.102 -0.201 -0.07 0.45 -0.89 0.02
1 1.34 134 0.919 -8.050 5.871 11.292 -7.782 1.434 -614.899 -1709.936 -3989.951 0.095 0.130 -0.189 -0.07 0.45 -0.89 0.02
1 1.35 135 1.020 -8.026 5.904 11.780 -8.331 1.221 -449.857 -1799.877 -4079.892 -0.000 0.117 -0.208 -0.07 0.45 -0.89 0.02
1 1.36 136 1.101 -8.188 5.895 10.681 -7.172 0.397 -539.948 -1904.959 -4094.882 -0.076 0.291 -0.184 -0.07 0.45 -0.89 0.02
1 1.37 137 1.197 -8.270 5.856 8.637 -6.653 -1.038 -449.857 -1889.969 -4184.974 -0.165 0.382 -0.133 -0.07 0.45 -0.89 0.02
1 1.38 138 1.326 -8.246 5.818 6.744 -6.195 -1.099 -494.978 -1889.969 -4004.941 -0.286 0.367 -0.084 -0.07 0.45 -0.89 0.02
1 1.39 139 1.283 -8.390 5.775 5.646 -6.104 -2.686 -494.978 -1889.969 -4004.941 -0.235 0.518 -0.033 -0.07 0.45 -0.89 0.02
1 1.40 140 1.307 -8.677 5.880 5.615 -6.012 -2.869 -584.919 -1829.858 -4169.983 -0.238 0.816 -0.127 -0.07 0.45 -0.89 0.02
1 1.41 141 1.532 -8.730 6.029 6.897 -6.470 -2.045 -584.919 -1829.858 -4169.983 -0.452 0.874 -0.270 -0.07 0.45 -0.89 0.02
1 1.42 142 1.446 -8.758 6.010 8.881 -6.653 -1.770 -464.997 -1859.988 -4139.853 -0.355 0.909 -0.245 -0.07 0.45 -0.89 0.02
1 1.43 143 1.518 -8.686 5.919 11.566 -7.690 -0.122 -509.968 -1784.887 -3989.951 -0.417 0.845 -0.145 -0.07 0.45 -0.89 0.02
1 1.44 144 1.475 -8.318 5.880 15.137 -8.698 0.092 -584.919 -2009.891 -4139.853 -0.363 0.486 -0.095 -0.07 0.45 -0.89 0.02
1 1.45 145 1.475 -8.088 5.832 16.815 -9.033 -0.519 -509.968 -1859.988 -4139.853 -0.353 0.269 -0.032 -0.07 0.45 -0.89 0.02
1 1.46 146 1.437 -8.016 5.684 18.189 -8.728 -2.533 -509.968 -1859.988 -4139.853 -0.304 0.212 0.135 -0.07 0.44 -0.89 0.02
1 1.47 147 1.413 -7.657 5.775 17.304 -9.247 -4.272 -539.948 -1979.910 -4139.853 -0.252 -0.112 0.084 -0.08 0.44 -0.89 0.02
1 1.48 148 1.446 -7.580 5.780 15.259 -10.040 -5.524 -539.948 -1979.910 -4139.853 -0.269 -0.172 0.099 -0.08 0.44 -0.89 0.02
1 1.49 149 1.422 -7.513 5.536 13.916 -10.071 -5.646 -734.971 -1979.910 -4169.983 -0.227 -0.223 0.360 -0.08 0.44 -0.89 0.02
1 1.50 150 1.437 -7.274 5.765 12.512 -11.200 -6.134 -569.929 -1799.877 -4259.925 -0.224 -0.449 0.145 -0.08 0.44 -0.9 0.02
1 1.51 151 1.489 -7.202 5.722 12.085 -11.780 -4.608 -584.919 -1904.959 -4094.882 -0.256 -0.507 0.202 -0.08 0.44 -0.9 0.02
1 1.52 152 1.686 -7.197 5.713 12.634 -10.681 -3.510 -659.870 -1979.910 -4199.964 -0.434 -0.498 0.225 -0.08 0.44 -0.9 0.02
1 1.53 153 1.729 -7.240 5.708 12.421 -9.216 -1.862 -659.870 -1979.910 -4199.964 -0.459 -0.441 0.244 -0.08 0.44 -0.9 0.02
1 1.54 154 1.935 -7.197 5.780 10.956 -5.249 0.061 -599.909 -2039.871 -4154.993 -0.638 -0.457 0.201 -0.08 0.43 -0.9 0.02
1 1.55 155 2.030 -7.317 5.871 8.789 -1.770 0.702 -599.909 -2039.871 -4154.993 -0.726 -0.326 0.122 -0.08 0.43 -0.9 0.02
1 1.56 156 2.140 -7.394 5.938 6.348 1.831 1.709 -749.961 -2069.852 -4259.925 -0.830 -0.240 0.066 -0.08 0.43 -0.9 0.02
1 1.57 157 2.188 -7.599 5.995 5.066 5.402 3.387 -659.870 -2054.861 -4319.886 -0.875 -0.027 0.017 -0.08 0.43 -0.9 0.02
1 1.58 158 2.198 -7.700 5.871 1.648 10.315 5.005 -614.899 -2099.982 -4169.983 -0.888 0.079 0.149 -0.08 0.43 -0.9 0.02
1 1.59 159 2.164 -7.671 5.943 0.671 12.116 5.371 -839.903 -2099.982 -4199.964 -0.862 0.052 0.082 -0.08 0.43 -0.9 0.02
1 1.60 160 2.313 -7.647 5.933 0.153 13.397 5.829 -839.903 -2099.982 -4199.964 -1.020 0.029 0.095 -0.08 0.43 -0.9 0.02
1 1.61 161 2.169 -7.465 5.828 0.275 15.015 4.578 -629.890 -2039.871 -4259.925 -0.888 -0.152 0.203 -0.08 0.43 -0.9 0.02
1 1.62 162 1.959 -7.365 5.832 -1.251 16.022 1.556 -629.890 -2039.871 -4259.925 -0.701 -0.252 0.204 -0.08 0.43 -0.9 0.02
1 1.63 163 2.083 -7.403 5.885 -4.669 17.456 -0.549 -464.997 -2054.861 -4019.931 -0.836 -0.214 0.154 -0.08 0.43 -0.9 0.02
1 1.64 164 1.858 -7.274 6.101 -8.881 20.050 -3.815 -569.929 -1994.900 -4154.993 -0.620 -0.346 -0.064 -0.08 0.43 -0.9 0.02
1 1.65 165 1.882 -7.298 6.086 -14.465 23.804 -6.165 -569.929 -2069.852 -4109.873 -0.652 -0.328 -0.055 -0.08 0.43 -0.9 0.02
1 1.66 166 1.494 -7.360 5.952 -16.968 26.032 -7.935 -584.919 -2099.982 -4139.853 -0.273 -0.275 0.069 -0.08 0.43 -0.9 0.01
1 1.67 167 1.432 -7.470 6.005 -18.982 26.550 -8.698 -584.919 -2099.982 -4139.853 -0.222 -0.176 0.004 -0.07 0.43 -0.9 0.01
1 1.68 168 1.255 -7.552 5.804 -19.836 26.489 -8.575 -584.919 -2054.861 -4274.915 -0.057 -0.108 0.191 -0.07 0.43 -0.9 0.01
1 1.69 169 1.034 -7.643 5.871 -21.057 25.421 -5.493 -584.919 -2054.861 -4274.915 0.135 -0.049 0.089 -0.07 0.44 -0.9 0.01
1 1.70 170 0.891 -7.844 5.804 -20.111 23.743 -3.815 -539.948 -1904.959 -4244.935 0.262 0.135 0.136 -0.07 0.44 -0.9 0.01
1 1.71 171 0.852 -7.968 5.919 -19.379 22.339 -1.312 -509.968 -1979.910 -4094.882 0.281 0.241 0.002 -0.07 0.44 -0.9 0.01
1 1.72 172 0.761 -7.997 6.048 -18.616 21.271 1.709 -539.948 -2099.982 -4169.983 0.351 0.253 -0.146 -0.07 0.44 -0.9 0
1 1.73 173 0.637 -7.896 6.062 -17.487 20.722 3.143 -464.997 -1934.939 -4139.853 0.452 0.136 -0.177 -0.06 0.44 -0.89 0
1 1.74 174 0.364 -7.863 6.101 -17.181 19.501 5.829 -464.997 -1934.939 -4139.853 0.699 0.087 -0.231 -0.06 0.44 -0.89 0
1 1.75 175 0.239 -7.820 5.947 -16.937 17.090 6.592 -419.876 -1844.998 -4289.905 0.797 0.029 -0.093 -0.06 0.44 -0.89 0
1 1.76 176 0.311 -7.810 6.019 -15.686 13.214 8.514 -419.876 -1844.998 -4289.905 0.670 -0.010 -0.195 -0.06 0.45 -0.89 0
1 1.77 177 0.129 -7.844 5.919 -14.557 9.766 8.942 -449.857 -1919.949 -4154.993 0.826 0.010 -0.108 -0.06 0.45 -0.89 0
1 1.78 178 0.211 -7.671 5.813 -12.421 6.195 9.003 -374.906 -1799.877 -4154.993 0.720 -0.175 -0.016 -0.06 0.45 -0.89 0
1 1.79 179 0.302 -7.700 5.871 -9.888 3.052 8.179 -374.906 -1799.877 -4154.993 0.609 -0.157 -0.085 -0.05 0.45 -0.89 0
1 1.80 180 0.335 -7.628 5.770 -7.599 -1.099 5.859 -269.974 -1964.920 -4259.925 0.559 -0.237 0.007 -0.05 0.45 -0.89 0
1 1.81 181 0.393 -7.767 5.842 -5.371 -2.502 4.150 -269.974 -1964.920 -4259.925 0.491 -0.104 -0.071 -0.05 0.45 -0.89 0
1 1.82 182 0.532 -7.801 5.785 -5.402 -2.747 3.204 -419.876 -1799.877 -4154.993 0.346 -0.075 -0.019 -0.05 0.45 -0.89 0.01
1 1.83 183 0.642 -8.040 5.895 -6.805 -2.350 3.174 -419.876 -1799.877 -4154.993 0.230 0.160 -0.134 -0.05 0.45 -0.89 0.01
1 1.84 184 0.680 -8.030 5.890 -10.986 -0.610 3.723 -254.984 -1859.988 -4019.931 0.184 0.139 -0.144 -0.05 0.45 -0.89 0.01
1 1.85 185 0.680 -8.035 5.837 -13.245 0.366 3.510 -254.984 -1904.959 -4019.931 0.178 0.134 -0.104 -0.05 0.45 -0.89 0.01
1 1.86 186 0.579 -8.040 5.976 -15.076 1.770 3.296 -254.984 -1904.959 -4019.931 0.273 0.127 -0.258 -0.05 0.45 -0.89 0.01
1 1.87 187 0.737 -8.050 5.713 -15.930 3.052 3.235 -284.964 -1859.988 -4019.931 0.108 0.123 -0.012 -0.05 0.45 -0.89 0.01
1 1.88 188 0.718 -8.121 5.531 -15.869 3.693 2.594 -284.964 -1859.988 -4019.931 0.121 0.181 0.152 -0.05 0.46 -0.89 0.01
1 1.89 189 0.690 -8.059 5.536 -14.557 4.974 3.174 -389.896 -1829.858 -3989.951 0.142 0.105 0.128 -0.05 0.46 -0.89 0.01
1 1.90 190 0.579 -8.165 5.397 -13.275 5.585 3.510 -389.896 -1829.858 -3989.951 0.244 0.197 0.250 -0.05 0.46 -0.89 0.01
1 1.91 191 0.584 -8.303 5.368 -10.895 5.402 4.395 -284.964 -1934.939 -4064.902 0.219 0.313 0.249 -0.05 0.46 -0.89 0.01
1 1.92 192 0.666 -8.270 5.301 -8.850 5.127 4.669 -299.955 -1799.877 -3929.990 0.126 0.269 0.303 -0.05 0.46 -0.89 0.01
1 1.93 193 0.426 -8.471 5.320 -6.165 5.005 5.066 -299.955 -1799.877 -3929.990 0.354 0.461 0.272 -0.05 0.46 -0.89 0.01
1 1.94 194 0.412 -8.461 5.306 -4.425 3.143 4.242 -374.906 -1799.877 -4154.993 0.357 0.445 0.279 -0.05 0.46 -0.89 0.01
1 1.95 195 0.536 -8.562 5.344 -3.540 2.594 2.686 -434.867 -1829.858 -4169.983 0.223 0.540 0.234 -0.05 0.46 -0.89 0.01
1 1.96 196 0.330 -8.538 5.617 -6.256 2.899 0.366 -389.896 -1829.858 -4064.902 0.420 0.512 -0.044 -0.05 0.46 -0.89 0.01
1 1.97 197 0.464 -8.615 5.660 -11.627 3.174 -2.197 -389.896 -1829.858 -4064.902 0.281 0.583 -0.094 -0.05 0.46 -0.89 0.01
1 1.98 198 0.206 -8.576 5.421 -17.609 4.852 -4.791 -254.984 -1709.936 -4094.882 0.534 0.523 0.114 -0.05 0.46 -0.88 0.01
1 1.99 199 0.158 -8.787 5.387 -19.867 6.470 -3.906 -179.883 -1754.907 -4094.882 0.580 0.718 0.125 -0.05 0.47 -0.88 0.01
1 2.00 200 0.206 -8.806 5.153 -18.189 7.111 -1.434 -179.883 -1754.907 -4094.882 0.527 0.720 0.335 -0.04 0.47 -0.88 0
1 2.01 201 -0.057 -8.921 5.085 -14.526 7.263 0.305 -164.893 -1724.926 -4079.892 0.781 0.818 0.379 -0.04 0.47 -0.88 0
1 2.02 202 -0.148 -8.715 4.951 -6.042 4.669 1.373 -254.984 -1634.985 -4064.902 0.860 0.599 0.494 -0.04 0.47 -0.88 0
1 2.03 203 -0.053 -8.739 4.851 0.946 1.465 0.916 -344.925 -1694.946 -4004.941 0.753 0.613 0.583 -0.04 0.47 -0.88 0
1 2.04 204 -0.177 -8.691 4.755 6.744 -2.258 -0.305 -344.925 -1694.946 -4004.941 0.868 0.562 0.674 -0.04 0.47 -0.88 0
1 2.05 205 -0.297 -8.701 4.789 10.315 -5.737 -0.977 -254.984 -1634.985 -4019.931 0.984 0.573 0.643 -0.04 0.47 -0.88 0
1 2.06 206 -0.378 -8.648 5.028 7.263 -10.559 -1.404 -329.935 -1559.884 -4064.902 1.064 0.530 0.419 -0.04 0.47 -0.88 0.01
1 2.07 207 -0.287 -8.701 5.100 1.984 -12.848 -1.312 -329.935 -1559.884 -4064.902 0.977 0.586 0.351 -0.04 0.47 -0.88 0.01
1 2.08 208 -0.120 -8.797 5.239 -3.357 -14.099 -0.641 -359.916 -1679.956 -4169.983 0.815 0.680 0.209 -0.04 0.47 -0.88 0.01
1 2.09 209 0.005 -9.022 5.363 -7.782 -15.442 0.885 -254.984 -1679.956 -4199.964 0.696 0.899 0.075 -0.04 0.47 -0.88 0.01
1 2.10 210 0.148 -9.113 5.406 -12.482 -16.876 6.409 -359.916 -1514.913 -4169.983 0.558 0.981 0.017 -0.04 0.47 -0.88 0.01
1 2.11 211 0.321 -9.089 5.301 -11.627 -16.693 9.186 -359.916 -1514.913 -4169.983 0.388 0.944 0.103 -0.05 0.47 -0.88 0.01
1 2.12 212 0.187 -9.070 5.267 -6.042 -15.717 10.986 -374.906 -1619.995 -4079.892 0.521 0.912 0.117 -0.05 0.47 -0.88 0.01
1 2.13 213 0.374 -8.777 5.215 3.906 -14.313 10.315 -344.925 -1724.926 -4109.873 0.328 0.607 0.151 -0.05 0.47 -0.88 0.01
1 2.14 214 0.287 -8.720 5.445 7.660 -14.221 8.667 -344.925 -1724.926 -4109.873 0.411 0.551 -0.076 -0.05 0.47 -0.88 0.01
1 2.15 215 0.374 -8.658 5.320 8.392 -13.031 7.751 -434.867 -1709.936 -4094.882 0.323 0.494 0.057 -0.05 0.47 -0.88 0.01
1 2.16 216 0.306 -8.543 5.172 7.690 -11.902 5.615 -524.958 -1574.874 -4079.892 0.389 0.385 0.214 -0.05 0.47 -0.88 0.02
1 2.17 217 0.215 -8.514 5.282 6.958 -9.766 5.096 -419.876 -1724.926 -4154.993 0.480 0.361 0.111 -0.05 0.47 -0.88 0.02
1 2.18 218 0.220 -8.600 5.215 6.714 -8.301 2.441 -419.876 -1724.926 -4154.993 0.475 0.451 0.184 -0.05 0.47 -0.88 0.02
1 2.19 219 0.187 -8.567 5.176 4.913 -8.179 1.862 -524.958 -1649.975 -4109.873 0.508 0.422 0.229 -0.05 0.47 -0.88 0.02
1 2.20 220 0.201 -8.543 5.047 4.120 -10.162 1.465 -359.916 -1634.985 -3989.951 0.497 0.403 0.365 -0.05 0.47 -0.88 0.02
1 2.21 221 0.158 -8.619 4.956 5.310 -11.261 1.923 -359.916 -1634.985 -3989.951 0.543 0.481 0.459 -0.05 0.47 -0.88 0.02
1 2.22 222 0.211 -8.653 4.980 7.111 -13.641 2.045 -524.958 -1694.946 -3899.859 0.494 0.517 0.437 -0.05 0.47 -0.88 0.02
1 2.23 223 0.397 -8.595 5.018 8.606 -15.045 1.953 -299.955 -1724.926 -4154.993 0.314 0.463 0.404 -0.05 0.47 -0.88 0.02
1 2.24 224 0.503 -8.672 5.267 10.437 -15.350 2.869 -449.857 -1799.877 -3929.990 0.216 0.546 0.162 -0.05 0.47 -0.88 0.02
1 2.25 225 0.508 -8.624 5.176 11.810 -15.411 2.228 -449.857 -1799.877 -3929.990 0.219 0.504 0.262 -0.05 0.47 -0.88 0.02
1 2.26 226 0.512 -8.548 5.301 11.108 -15.472 2.655 -419.876 -1694.946 -4154.993 0.222 0.435 0.148 -0.05 0.47 -0.88 0.02
1 2.27 227 0.584 -8.457 5.349 8.972 -14.343 2.563 -419.876 -1724.926 -4079.892 0.160 0.352 0.110 -0.06 0.47 -0.88 0.02
1 2.28 228 0.623 -8.366 5.153 6.836 -13.977 2.960 -419.876 -1724.926 -4079.892 0.137 0.274 0.323 -0.06 0.47 -0.88 0.02
1 2.29 229 0.555 -8.318 5.148 5.859 -13.458 3.632 -524.958 -1619.995 -4004.941 0.212 0.230 0.333 -0.06 0.47 -0.88 0.03
1 2.30 230 0.464 -8.246 5.009 6.287 -13.062 3.784 -434.867 -1679.956 -4094.882 0.309 0.162 0.477 -0.06 0.47 -0.88 0.03
1 2.31 231 0.402 -8.337 4.990 6.622 -12.360 3.387 -389.896 -1754.907 -4019.931 0.376 0.257 0.501 -0.06 0.47 -0.88 0.03
1 2.32 232 0.374 -8.361 5.047 8.637 -10.193 2.838 -389.896 -1754.907 -4019.931 0.408 0.285 0.449 -0.06 0.46 -0.88 0.03
1 2.33 233 0.326 -8.246 4.947 9.644 -9.796 1.495 -374.906 -1889.969 -4079.892 0.459 0.175 0.557 -0.06 0.46 -0.88 0.03
1 2.34 234 0.220 -8.303 5.033 10.315 -9.064 1.068 -734.971 -1784.887 -4019.931 0.568 0.239 0.479 -0.06 0.46 -0.88 0.03
1 2.35 235 0.053 -8.404 5.042 10.590 -10.864 1.404 -734.971 -1784.887 -4019.931 0.743 0.353 0.488 -0.06 0.46 -0.88 0.03
1 2.36 236 0.029 -8.557 4.966 9.674 -12.177 1.343 -434.867 -1784.887 -4094.882 0.770 0.512 0.574 -0.06 0.46 -0.88 0.03
1 2.37 237 0.043 -8.457 5.114 8.637 -13.458 0.397 -524.958 -1769.897 -4079.892 0.760 0.417 0.432 -0.06 0.46 -0.88 0.03
1 2.38 238 0.158 -8.318 5.105 7.446 -15.381 0.000 -524.958 -1769.897 -4079.892 0.651 0.283 0.448 -0.06 0.46 -0.88 0.03
1 2.39 239 0.187 -8.385 5.038 8.423 -16.144 -1.190 -539.948 -1784.887 -4169.983 0.632 0.355 0.520 -0.06 0.46 -0.88 0.03
1 2.40 240 0.244 -8.495 5.038 9.155 -16.663 -2.289 -389.896 -1859.988 -4199.964 0.586 0.470 0.526 -0.06 0.46 -0.88 0.03
1 2.41 241 0.378 -8.528 5.215 9.460 -16.724 -2.960 -434.867 -1859.988 -4064.902 0.464 0.509 0.355 -0.07 0.46 -0.88 0.03
1 2.42 242 0.388 -8.457 5.105 11.292 -16.510 -3.082 -434.867 -1859.988 -4064.902 0.483 0.451 0.480 -0.07 0.46 -0.89 0.03
1 2.43 243 0.421 -8.543 5.124 11.780 -15.289 -3.143 -599.909 -1844.998 -4289.905 0.464 0.545 0.470 -0.07 0.46 -0.89 0.03
1 2.44 244 0.441 -8.648 5.038 13.214 -14.465 -2.991 -599.909 -1649.975 -4079.892 0.458 0.659 0.567 -0.07 0.46 -0.89 0.03
1 2.45 245 0.378 -8.888 5.009 14.923 -12.299 -1.709 -599.909 -1649.975 -4079.892 0.532 0.908 0.606 -0.07 0.46 -0.89 0.03
1 2.46 246 0.201 -8.993 4.971 16.113 -11.902 0.061 -614.899 -1754.907 -4199.964 0.718 1.023 0.657 -0.07 0.46 -0.89 0.03
1 2.47 247 0.321 -8.998 4.932 16.266 -12.848 3.113 -614.899 -1829.858 -4169.983 0.604 1.037 0.708 -0.07 0.46 -0.89 0.03
1 2.48 248 0.254 -9.084 4.865 17.487 -14.008 5.188 -674.860 -1889.969 -4049.912 0.675 1.132 0.787 -0.07 0.45 -0.89 0.04
1 2.49 249 0.239 -9.094 4.803 18.982 -14.954 6.714 -674.860 -1889.969 -4049.912 0.691 1.151 0.862 -0.07 0.45 -0.89 0.04
1 2.50 250 0.450 -8.988 4.693 18.524 -17.914 7.965 -674.860 -1889.969 -4049.912 0.481 1.066 1.001 -0.07 0.45 -0.89 0.04
1 2.51 251 0.417 -8.825 4.755 16.052 -19.653 8.698 -674.860 -1844.998 -4049.912 0.518 0.912 0.950 -0.07 0.45 -0.89 0.04
1 2.52 252 0.632 -8.734 4.564 14.710 -19.775 8.179 -674.860 -1844.998 -4049.912 0.306 0.828 1.151 -0.07 0.45 -0.89 0.04
1 2.53 253 0.833 -8.734 4.449 15.747 -16.937 7.904 -734.971 -1979.910 -4169.983 0.109 0.835 1.274 -0.08 0.45 -0.89 0.04
1 2.54 254 0.675 -8.916 4.626 19.135 -12.116 6.195 -629.890 -1994.900 -4334.876 0.271 1.024 1.106 -0.08 0.45 -0.89 0.04
1 2.55 255 0.694 -9.074 5.023 19.348 -11.719 7.751 -690.000 -2009.891 -4169.983 0.254 1.191 0.721 -0.08 0.45 -0.89 0.04
1 2.56 256 0.508 -8.931 5.382 14.496 -14.710 11.597 -690.000 -2009.891 -4169.983 0.440 1.058 0.376 -0.08 0.45 -0.89 0.05
1 2.57 257 0.828 -8.777 6.110 6.409 -17.914 20.874 -749.961 -2114.972 -4004.941 0.110 0.917 -0.334 -0.08 0.45 -0.89 0.05
1 2.58 258 0.967 -8.777 6.426 0.580 -18.951 27.832 -524.958 -1769.897 -4079.892 -0.041 0.917 -0.647 -0.08 0.45 -0.89 0.05
1 2.59 259 1.302 -8.447 6.431 -4.242 -19.775 36.438 -524.958 -1769.897 -4079.892 -0.395 0.582 -0.655 -0.08 0.45 -0.89 0.05
1 2.60 260 1.815 -8.045 6.431 -4.486 -17.792 41.596 -690.000 -2129.962 -4094.882 -0.933 0.173 -0.661 -0.08 0.45 -0.89 0.05
1 2.61 261 2.155 -7.734 6.326 1.160 -11.871 43.762 -914.854 -2054.861 -4199.964 -1.303 -0.144 -0.559 -0.08 0.45 -0.89 0.06
1 2.62 262 2.308 -7.566 6.125 13.641 -0.244 43.793 -734.971 -2009.891 -4244.935 -1.491 -0.310 -0.351 -0.08 0.45 -0.89 0.06
1 2.63 263 2.361 -7.317 6.005 20.020 11.292 42.236 -734.971 -2009.891 -4244.935 -1.584 -0.550 -0.213 -0.08 0.45 -0.89 0.06
1 2.64 264 1.791 -7.269 5.928 22.644 29.755 38.941 -734.971 -2054.861 -4019.931 -1.115 -0.564 -0.078 -0.07 0.44 -0.89 0.07
1 2.65 265 1.293 -7.283 5.765 20.203 41.474 35.889 -794.932 -2009.891 -4094.882 -0.683 -0.530 0.118 -0.07 0.44 -0.89 0.07
1 2.66 266 0.977 -7.283 5.555 16.174 50.080 31.647 -794.932 -2009.891 -4094.882 -0.441 -0.513 0.359 -0.06 0.44 -0.89 0.07
1 2.67 267 0.350 -7.394 5.550 11.688 53.070 26.672 -704.991 -2114.972 -4154.993 0.108 -0.390 0.387 -0.06 0.44 -0.89 0.07
1 2.68 268 -0.364 -7.552 5.684 -2.441 50.049 16.419 -690.000 -2099.982 -4199.964 0.744 -0.225 0.268 -0.06 0.44 -0.89 0.07
1 2.69 269 -0.915 -7.695 6.010 -17.090 44.251 7.782 -599.909 -2069.852 -4184.974 1.224 -0.082 -0.054 -0.05 0.44 -0.89 0.07
1 2.70 270 -1.322 -7.954 6.455 -36.713 35.431 -2.014 -599.909 -2069.852 -4184.974 1.571 0.165 -0.512 -0.05 0.44 -0.89 0.07
1 2.71 271 -1.475 -8.366 6.647 -57.312 23.590 -11.139 -524.958 -1994.900 -4154.993 1.681 0.550 -0.738 -0.04 0.44 -0.89 0.07
1 2.72 272 -1.619 -8.964 6.948 -74.982 4.456 -19.836 -539.948 -1979.910 -4169.983 1.801 1.044 -1.179 -0.04 0.45 -0.89 0.06
1 2.73 273 -1.604 -9.247 6.814 -69.550 -4.944 -22.400 -539.948 -1979.910 -4169.983 1.810 1.262 -1.136 -0.04 0.46 -0.89 0.06
1 2.74 274 -1.470 -9.232 6.647 -53.070 -13.214 -24.078 -524.958 -2114.972 -4049.912 1.711 1.192 -1.048 -0.04 0.46 -0.88 0.06
1 2.75 275 -1.149 -8.830 6.053 -28.534 -22.644 -23.834 -509.968 -1904.959 -4064.902 1.434 0.752 -0.512 -0.05 0.46 -0.88 0.06
1 2.76 276 -0.642 -8.117 5.569 13.123 -37.628 -21.088 -419.876 -1889.969 -4004.941 0.972 0.022 -0.055 -0.05 0.47 -0.88 0.06
1 2.77 277 -0.005 -7.585 5.387 37.506 -45.044 -15.320 -419.876 -1889.969 -4004.941 0.382 -0.503 0.134 -0.05 0.46 -0.88 0.06
1 2.78 278 0.579 -7.030 5.210 54.382 -48.859 -8.728 -599.909 -1919.949 -4154.993 -0.150 -1.029 0.349 -0.05 0.46 -0.88 0.06
1 2.79 279 1.580 -6.330 5.473 56.580 -48.615 0.580 -569.929 -1889.969 -4184.974 -1.050 -1.630 0.217 -0.06 0.45 -0.89 0.06
1 2.80 280 2.126 -6.101 5.612 43.915 -44.006 5.341 -569.929 -1889.969 -4184.974 -1.555 -1.812 0.141 -0.06 0.45 -0.89 0.06
1 2.81 281 2.662 -5.885 5.914 23.804 -38.147 7.935 -524.958 -1964.920 -4184.974 -2.060 -1.992 -0.116 -0.07 0.45 -0.89 0.06
1 2.82 282 3.151 -6.014 6.086 0.092 -29.785 9.857 -524.958 -1964.920 -4184.974 -2.526 -1.847 -0.269 -0.07 0.45 -0.89 0.06
1 2.83 283 3.778 -6.149 6.354 -27.863 -13.458 7.843 -749.961 -2039.871 -4154.993 -3.121 -1.710 -0.536 -0.07 0.45 -0.89 0.06
1 2.84 284 3.979 -6.431 6.489 -39.826 -2.747 5.096 -749.961 -2039.871 -4154.993 -3.296 -1.441 -0.691 -0.07 0.45 -0.89 0.06
1 2.85 285 4.300 -6.666 6.302 -44.953 6.073 -0.580 -690.000 -2054.861 -4094.882 -3.594 -1.231 -0.541 -0.07 0.45 -0.89 0.06
1 2.86 286 4.348 -6.819 6.129 -38.941 18.127 -9.460 -734.971 -2054.861 -4064.902 -3.599 -1.138 -0.457 -0.07 0.45 -0.89 0.06
1 2.87 287 4.300 -7.121 6.067 -29.755 28.504 -16.754 -734.971 -2054.861 -4064.902 -3.527 -0.859 -0.431 -0.07 0.45 -0.89 0.06
1 2.88 288 3.979 -7.307 6.206 -19.928 41.504 -25.879 -690.000 -2009.891 -3989.951 -3.182 -0.687 -0.594 -0.07 0.46 -0.89 0.05
1 2.89 289 3.697 -7.695 6.421 -13.672 56.610 -33.417 -690.000 -2009.891 -3989.951 -2.879 -0.304 -0.820 -0.07 0.46 -0.89 0.05
1 2.90 290 3.194 -8.227 6.503 -10.956 75.318 -43.335 -614.899 -1934.939 -4139.853 -2.361 0.227 -0.904 -0.07 0.46 -0.89 0.04
1 2.91 291 2.255 -8.557 6.244 -11.627 80.475 -47.180 -614.899 -1934.939 -4139.853 -1.424 0.557 -0.646 -0.07 0.46 -0.89 0.04
1 2.92 292 1.733 -8.600 6.081 -12.207 77.179 -49.561 -569.929 -1964.920 -4004.941 -0.912 0.597 -0.486 -0.06 0.46 -0.89 0.03
1 2.93 293 1.293 -8.667 5.986 -14.374 67.780 -50.232 -509.968 -1904.959 -4064.902 -0.478 0.661 -0.393 -0.06 0.46 -0.89 0.03
1 2.94 294 0.872 -8.519 5.823 -22.034 44.739 -48.889 -509.968 -1904.959 -4064.902 -0.035 0.500 -0.252 -0.06 0.46 -0.89 0.01
1 2.95 295 0.761 -8.471 5.670 -28.290 29.419 -46.906 -449.857 -1799.877 -4229.944 0.100 0.439 -0.121 -0.05 0.46 -0.88 0.01
1 2.96 296 0.843 -8.533 5.660 -31.159 17.670 -43.915 -449.857 -1799.877 -4229.944 0.053 0.483 -0.143 -0.05 0.46 -0.88 0.01
1 2.97 297 0.996 -8.600 5.612 -28.137 12.177 -38.849 -539.948 -1784.887 -4199.964 -0.061 0.531 -0.130 -0.06 0.47 -0.88 0
1 2.98 298 1.154 -8.873 5.387 -13.214 11.810 -29.846 -539.948 -1784.887 -4199.964 -0.182 0.787 0.064 0.06 -0.47 0.88 0
1 2.99 299 1.068 -8.816 5.272 1.068 13.825 -23.529 -494.978 -1694.946 -3974.960 -0.066 0.721 0.160 0.06 -0.47 0.88 0
1 3.00 300 0.867 -8.490 5.148 19.318 15.015 -13.886 -449.857 -1724.926 -4109.873 0.167 0.406 0.295 0.06 -0.47 0.88 0.01
1 3.01 301 0.948 -8.466 5.215 23.468 14.099 -11.505 -449.857 -1724.926 -4109.873 0.088 0.401 0.255 0.06 -0.47 0.88 0.01
1 3.02 302 0.795 -8.059 5.234 28.137 6.866 -6.012 -374.906 -1844.998 -4049.912 0.241 0.017 0.270 0.06 -0.46 0.88 0.01
1 3.03 303 0.685 -7.767 5.315 25.238 0.153 -4.547 -374.906 -1844.998 -4049.912 0.353 -0.251 0.224 0.06 -0.46 0.88 0.01
1 3.04 304 0.881 -7.599 5.497 18.250 -10.040 -6.073 -434.867 -1829.858 -4019.931 0.162 -0.397 0.072 0.06 -0.46 0.89 0.01
1 3.05 305 0.958 -7.647 5.373 12.421 -15.259 -7.050 -434.867 -1829.858 -4019.931 0.099 -0.330 0.220 0.06 -0.46 0.89 0.01
1 3.06 306 1.326 -8.016 5.641 7.721 -17.090 -8.698 -599.909 -1844.998 -4154.993 -0.250 0.053 -0.031 0.06 -0.46 0.89 0.01
1 3.07 307 1.590 -8.035 5.775 3.448 -17.365 -8.728 -464.997 -1904.959 -3989.951 -0.487 0.082 -0.156 0.06 -0.46 0.89 0.01
1 3.08 308 1.901 -8.145 5.722 0.702 -13.397 -7.477 -464.997 -1904.959 -3989.951 -0.742 0.203 -0.100 0.06 -0.46 0.89 0.01
1 3.09 309 2.026 -8.078 5.588 1.373 -7.660 -5.127 -449.857 -1889.969 -3929.990 -0.842 0.139 0.033 0.06 -0.46 0.89 0.01
1 3.10 310 2.160 -7.978 5.627 3.845 1.434 -3.296 -449.857 -1889.969 -3929.990 -0.959 0.042 -0.003 0.07 -0.46 0.89 0.01
1 3.11 311 2.198 -7.796 5.402 8.606 12.451 -1.678 -569.929 -1964.920 -4049.912 -0.989 -0.133 0.229 0.07 -0.46 0.89 0.01
1 3.12 312 1.944 -7.786 5.253 15.320 26.825 0.732 -509.968 -1904.959 -4019.931 -0.739 -0.133 0.393 0.07 -0.46 0.89 0.01
1 3.13 313 1.925 -7.767 5.296 16.144 32.044 2.502 -584.919 -2009.891 -4019.931 -0.734 -0.139 0.371 0.06 -0.45 0.89 0.01
1 3.14 314 1.815 -7.724 5.325 13.672 33.783 4.181 -539.948 -1904.959 -4019.931 -0.646 -0.168 0.367 0.06 -0.45 0.89 0.01
1 3.15 315 1.695 -7.585 5.296 9.369 31.830 5.249 -539.948 -1904.959 -4019.931 -0.554 -0.294 0.419 0.06 -0.45 0.89 0.01
1 3.16 316 1.686 -7.576 5.406 3.174 26.459 4.730 -524.958 -1889.969 -4049.912 -0.599 -0.289 0.339 0.06 -0.45 0.89 0.01
1 3.17 317 1.676 -7.489 5.291 -0.671 22.614 3.845 -524.958 -1889.969 -4049.912 -0.612 -0.373 0.462 0.06 -0.45 0.89 0.01
1 3.18 318 1.595 -7.523 5.076 -3.906 17.975 1.892 -374.906 -1994.900 -4049.912 -0.548 -0.340 0.679 0.05 -0.45 0.89 0.01
1 3.19 319 1.441 -7.652 5.277 -7.904 13.458 -0.427 -434.867 -2009.891 -4094.882 -0.406 -0.215 0.474 0.05 -0.45 0.89 0.01
1 3.20 320 1.494 -7.868 5.196 -11.078 6.928 -3.387 -419.876 -1964.920 -4049.912 -0.465 -0.007 0.546 0.05 -0.45 0.89 0.01
1 3.21 321 1.494 -8.112 5.243 -10.437 4.364 -4.181 -419.876 -1919.949 -4049.912 -0.465 0.228 0.485 0.05 -0.45 0.89 0.01
1 3.22 322 1.403 -8.174 5.473 -7.599 3.082 -4.456 -419.876 -1919.949 -4049.912 -0.369 0.281 0.242 0.05 -0.45 0.89 0.01
1 3.23 323 1.532 -8.313 5.641 -1.801 2.350 -3.326 -374.906 -1844.998 -4004.941 -0.485 0.407 0.055 0.05 -0.45 0.89 0.01
1 3.24 324 1.595 -8.313 5.473 2.594 2.899 -3.418 -374.906 -1844.998 -4004.941 -0.542 0.407 0.221 0.05 -0.45 0.89 0.01
1 3.25 325 1.408 -8.332 5.531 7.111 3.296 -2.228 -494.978 -1994.900 -4109.873 -0.350 0.429 0.167 0.05 -0.45 0.89 0.01
1 3.26 326 1.528 -8.246 5.574 9.949 4.181 -1.740 -329.935 -1904.959 -3989.951 -0.467 0.350 0.133 0.05 -0.45 0.89 0.01
1 3.27 327 1.451 -8.208 5.732 12.024 3.204 0.031 -464.997 -1934.939 -3989.951 -0.389 0.321 -0.012 0.05 -0.45 0.89 0.01
1 3.28 328 1.422 -8.260 5.421 11.414 2.655 1.526 -359.916 -1904.959 -3989.951 -0.359 0.384 0.313 0.05 -0.45 0.89 0.01
1 3.29 329 1.614 -8.083 5.531 11.078 1.099 2.502 -359.916 -1904.959 -3989.951 -0.552 0.217 0.217 0.05 -0.45 0.89 0.01
1 3.30 330 1.791 -8.208 5.459 11.688 -0.946 4.730 -389.896 -1859.988 -4244.935 -0.729 0.359 0.312 0.05 -0.45 0.89 0.01
1 3.31 331 1.796 -8.251 5.157 12.970 -2.228 4.913 -389.896 -1859.988 -4244.935 -0.734 0.411 0.626 0.05 -0.45 0.89 0.01
1 3.32 332 2.117 -8.169 5.296 13.336 -2.502 4.456 -509.968 -1934.939 -3989.951 -1.052 0.339 0.500 0.05 -0.45 0.89 0.01
1 3.33 333 2.265 -8.117 5.382 12.665 -2.747 2.747 -509.968 -2009.891 -4139.853 -1.195 0.296 0.426 0.06 -0.45 0.89 0.01
1 3.34 334 2.289 -8.155 5.354 9.247 -0.793 0.549 -359.916 -1979.910 -4094.882 -1.210 0.344 0.466 0.06 -0.45 0.89 0.01
1 3.35 335 2.275 -8.045 5.325 6.989 1.953 0.092 -374.906 -1964.920 -3974.960 -1.187 0.241 0.503 0.06 -0.45 0.89 0.01
1 3.36 336 2.184 -8.026 5.583 4.852 4.608 0.458 -374.906 -1964.920 -3974.960 -1.087 0.229 0.251 0.06 -0.45 0.89 0.01
1 3.37 337 2.160 -7.786 5.880 3.418 6.958 0.793 -284.964 -2009.891 -4094.882 -1.058 -0.006 -0.040 0.06 -0.45 0.89 0.01
1 3.38 338 2.164 -7.887 6.407 5.066 14.160 -0.244 -284.964 -2009.891 -4094.882 -1.062 0.104 -0.555 0.06 -0.45 0.89 0.01
1 3.39 339 1.944 -8.016 7.015 7.538 22.156 -4.150 -299.955 -1964.920 -4079.892 -0.847 0.241 -1.151 0.06 -0.44 0.89 0.01
1 3.40 340 1.461 -8.212 7.370 3.510 28.992 -11.169 -494.978 -2114.972 -4049.912 -0.375 0.448 -1.490 0.05 -0.44 0.89 0.01
1 3.41 341 0.872 -8.710 7.504 -9.155 30.396 -21.576 -344.925 -2069.852 -4109.873 0.204 0.950 -1.616 0.05 -0.44 0.89 0.02
1 3.42 342 0.259 -9.826 7.456 -34.577 18.036 -27.741 -419.876 -2039.871 -3974.960 0.819 2.059 -1.579 0.05 -0.44 0.89 0.02
1 3.43 343 0.431 -10.358 7.125 -40.131 6.317 -22.492 -419.876 -2039.871 -3974.960 0.661 2.568 -1.280 0.05 -0.45 0.89 0.02
1 3.44 344 0.666 -10.501 6.354 -16.327 -3.326 -9.430 -344.925 -1994.900 -4109.873 0.466 2.657 -0.591 0.05 -0.45 0.89 0.02
1 3.45 345 0.680 -10.271 5.991 -3.754 -4.852 -5.890 -344.925 -1994.900 -4109.873 0.465 2.420 -0.238 0.05 -0.45 0.89 0.02
1 3.46 346 1.001 -9.520 5.483 27.863 -8.301 -1.648 -419.876 -1919.949 -4079.892 0.154 1.683 0.287 0.05 -0.45 0.89 0.02
1 3.47 347 1.097 -8.854 5.392 36.621 -8.240 -1.190 -329.935 -2009.891 -4064.902 0.068 1.046 0.414 0.06 -0.45 0.89 0.02
1 3.48 348 1.125 -8.260 5.478 33.722 -8.026 1.343 -254.984 -2054.861 -3915.000 0.047 0.481 0.366 0.06 -0.45 0.89 0.02
1 3.49 349 1.111 -7.872 5.325 16.327 -8.453 4.089 -344.925 -1994.900 -3929.990 0.067 0.119 0.552 0.06 -0.44 0.89 0.02
1 3.50 350 0.862 -7.451 5.636 1.190 -11.505 6.775 -344.925 -1994.900 -3929.990 0.319 -0.286 0.261 0.06 -0.44 0.89 0.02
1 3.51 351 0.757 -7.288 5.742 -13.916 -18.158 9.766 -359.916 -2009.891 -4094.882 0.426 -0.446 0.160 0.06 -0.44 0.89 0.02
1 3.52 352 0.685 -6.977 6.158 -31.433 -32.196 13.275 -359.916 -2009.891 -4094.882 0.507 -0.788 -0.300 0.06 -0.44 0.89 0.02
1 3.53 353 0.790 -6.905 6.297 -38.208 -42.633 15.381 -374.906 -2114.972 -4079.892 0.414 -0.889 -0.480 0.06 -0.45 0.89 0.01
1 3.54 354 0.828 -6.670 6.699 -40.741 -49.622 16.937 -464.997 -2099.982 -3915.000 0.395 -1.157 -0.930 0.06 -0.45 0.89 0.01
1 3.55 355 1.001 -6.340 6.891 -36.957 -53.223 19.318 -464.997 -2099.982 -3915.000 0.244 -1.519 -1.170 0.07 -0.45 0.89 0.01
1 3.56 356 1.068 -5.928 6.943 -24.689 -47.516 19.928 -464.997 -1979.910 -3839.898 0.198 -1.956 -1.263 0.07 -0.45 0.89 0.01
1 3.57 357 1.188 -5.761 6.838 -14.465 -40.131 20.020 -464.997 -1979.910 -3839.898 0.096 -2.141 -1.186 0.07 -0.45 0.89 0
1 3.58 358 1.149 -5.607 6.862 -7.111 -31.067 18.127 -569.929 -2114.972 -3854.889 0.146 -2.303 -1.223 0.07 -0.45 0.89 0
1 3.59 359 1.149 -5.512 6.761 -2.075 -20.447 15.259 -569.929 -2114.972 -3854.889 0.153 -2.399 -1.125 -0.08 0.45 -0.89 0
1 3.60 360 1.034 -5.890 6.805 -0.702 -2.625 7.629 -599.909 -1994.900 -3974.960 0.265 -2.013 -1.157 -0.08 0.45 -0.89 0.01
1 3.61 361 0.627 -6.326 6.599 0.061 12.909 -1.648 -464.997 -2054.861 -3915.000 0.664 -1.573 -0.943 -0.08 0.45 -0.89 0.01
1 3.62 362 0.431 -7.063 6.580 0.793 28.626 -11.231 -464.997 -2054.861 -3915.000 0.847 -0.826 -0.908 -0.08 0.45 -0.89 0
1 3.63 363 -0.287 -8.505 6.546 0.824 38.880 -19.623 -509.968 -2009.891 -3989.951 1.549 0.625 -0.857 -0.07 0.45 -0.89 0
1 3.64 364 -0.733 -9.376 6.575 -6.104 30.701 -19.470 -509.968 -2009.891 -3989.951 1.974 1.505 -0.870 -0.07 0.45 -0.89 0
1 3.65 365 -0.680 -9.869 6.809 -15.503 9.949 -16.052 -659.870 -1979.910 -3944.980 1.911 2.000 -1.100 0.07 -0.45 0.89 0
1 3.66 366 -0.345 -9.668 6.632 -21.729 -15.350 -11.902 -659.870 -1979.910 -3944.980 1.583 1.791 -0.935 0.07 -0.45 0.89 0
1 3.67 367 0.201 -8.983 6.651 -18.097 -45.777 -9.216 -599.909 -1994.900 -3854.889 1.103 1.076 -1.012 0.07 -0.45 0.89 0
1 3.68 368 0.737 -8.686 6.426 -5.951 -52.185 -8.484 -464.997 -1904.959 -3839.898 0.620 0.768 -0.814 0.08 -0.46 0.89 0
1 3.69 369 0.972 -8.040 6.249 7.996 -48.950 -7.538 -464.997 -1904.959 -3839.898 0.442 0.123 -0.649 0.08 -0.46 0.89 0
1 3.70 370 1.087 -7.657 6.029 20.874 -38.178 -6.134 -584.919 -1979.910 -3809.918 0.372 -0.247 -0.421 -0.08 0.45 -0.89 0
1 3.71 371 0.608 -7.039 5.785 29.602 -15.656 -3.174 -690.000 -2009.891 -3884.869 0.885 -0.841 -0.153 -0.09 0.45 -0.89 0
1 3.72 372 0.359 -7.078 5.713 27.771 -2.380 -0.092 -734.971 -2009.891 -3915.000 1.152 -0.774 -0.046 -0.09 0.45 -0.89 0
1 3.73 373 0.024 -7.097 5.526 21.271 7.294 3.174 -734.971 -2009.891 -3915.000 1.488 -0.727 0.178 -0.09 0.45 -0.89 0
1 3.74 374 -0.335 -7.245 5.516 5.798 11.993 6.897 -749.961 -1919.949 -3794.928 1.807 -0.545 0.245 -0.09 0.45 -0.89 0.01
1 3.75 375 -0.646 -7.571 5.378 -6.165 8.698 8.514 -690.000 -1979.910 -3884.869 2.088 -0.218 0.393 -0.09 0.45 -0.89 0.01
1 3.76 376 -0.627 -7.920 5.368 -15.320 0.763 11.688 -690.000 -1979.910 -3884.869 2.038 0.121 0.396 -0.08 0.45 -0.89 0.01
1 3.77 377 -0.814 -8.222 5.416 -20.264 -9.827 13.519 -824.913 -1964.920 -4049.912 2.198 0.403 0.328 -0.08 0.45 -0.89 0.01
1 3.78 378 -0.417 -8.509 5.449 -13.184 -27.008 18.158 -794.932 -1904.959 -3764.947 1.779 0.667 0.268 -0.08 0.45 -0.89 0.01
1 3.79 379 0.139 -8.500 5.607 0.153 -36.133 21.484 -674.860 -1964.920 -3854.889 1.209 0.637 0.085 -0.08 0.45 -0.89 0.01
1 3.80 380 0.512 -8.442 5.507 15.442 -42.145 24.811 -674.860 -1964.920 -3854.889 0.829 0.570 0.173 -0.08 0.45 -0.89 0.02
1 3.81 381 0.986 -8.222 5.722 29.511 -43.671 27.130 -749.961 -1799.877 -3929.990 0.353 0.353 -0.037 -0.09 0.45 -0.89 0.02
1 3.82 382 1.781 -7.681 5.732 39.948 -38.178 28.381 -734.971 -1934.939 -3809.918 -0.440 -0.146 0.011 -0.09 0.45 -0.89 0.03
1 3.83 383 1.997 -7.317 5.660 38.757 -29.327 27.680 -734.971 -1934.939 -3809.918 -0.655 -0.479 0.125 -0.09 0.44 -0.89 0.03
1 3.84 384 2.131 -7.025 5.842 30.151 -16.724 25.177 -764.952 -1934.939 -3839.898 -0.794 -0.741 -0.016 -0.09 0.44 -0.89 0.03
1 3.85 385 2.006 -7.101 5.890 16.876 -3.174 22.430 -734.971 -2099.982 -3884.869 -0.679 -0.642 -0.032 -0.09 0.44 -0.89 0.03
1 3.86 386 1.585 -7.034 5.780 -5.066 16.205 16.632 -764.952 -2009.891 -3915.000 -0.277 -0.698 0.097 -0.09 0.44 -0.89 0.04
1 3.87 387 1.111 -7.226 5.512 -18.097 22.797 11.292 -764.952 -2009.891 -3915.000 0.170 -0.508 0.369 -0.09 0.44 -0.89 0.04
1 3.88 388 0.565 -7.461 5.100 -29.022 23.621 4.822 -704.991 -1994.900 -3824.908 0.653 -0.310 0.747 -0.09 0.44 -0.89 0.04
1 3.89 389 0.249 -7.690 4.947 -29.785 21.545 3.296 -704.991 -1799.877 -3899.859 0.940 -0.108 0.868 -0.09 0.44 -0.89 0.04
1 3.90 390 -0.086 -8.083 4.616 -23.651 10.651 -2.289 -704.991 -1799.877 -3899.859 1.254 0.257 1.165 -0.08 0.44 -0.89 0.03
1 3.91 391 -0.503 -8.222 4.487 -14.343 1.007 -4.822 -749.961 -2114.972 -3899.859 1.660 0.373 1.266 -0.08 0.45 -0.89 0.03
1 3.92 392 -0.661 -8.332 4.626 -3.601 -10.498 -6.226 -779.942 -1994.900 -3824.908 1.815 0.468 1.107 -0.08 0.45 -0.89 0.03
1 3.93 393 -0.761 -8.418 4.841 7.080 -26.764 -6.989 -690.000 -2054.861 -3809.918 1.923 0.548 0.882 -0.08 0.45 -0.89 0.03
1 3.94 394 -0.709 -8.677 5.167 11.810 -35.156 -5.920 -690.000 -2054.861 -3809.918 1.887 0.808 0.554 -0.09 0.45 -0.89 0.04
1 3.95 395 -0.541 -8.768 5.636 15.167 -39.703 -3.906 -704.991 -1919.949 -3824.908 1.742 0.905 0.089 -0.09 0.45 -0.89 0.04
1 3.96 396 -0.268 -8.629 5.713 16.724 -40.741 3.174 -764.952 -1979.910 -3884.869 1.521 0.787 0.030 -0.09 0.45 -0.89 0.04
1 3.97 397 -0.024 -8.476 5.876 14.801 -39.429 9.369 -764.952 -1979.910 -3884.869 1.295 0.645 -0.122 -0.09 0.44 -0.89 0.04
1 3.98 398 0.254 -8.356 5.607 12.604 -36.591 15.717 -839.903 -2009.891 -3734.967 1.028 0.535 0.156 -0.1 0.44 -0.89 0.04
1 3.99 399 0.508 -8.160 5.339 14.191 -31.555 20.203 -989.955 -2009.891 -3915.000 0.777 0.345 0.433 -0.1 0.44 -0.89 0.05
1 4.00 400 0.757 -7.815 4.990 21.240 -23.621 25.360 -944.984 -1934.939 -3764.947 0.523 0.007 0.793 -0.1 0.44 -0.89 0.05
1 4.01 401 1.030 -7.906 4.750 26.978 -19.013 25.665 -944.984 -1934.939 -3764.947 0.239 0.109 1.050 -0.1 0.44 -0.89 0.05
1 4.02 402 1.125 -7.729 4.980 29.053 -16.632 24.811 -869.883 -1979.910 -3915.000 0.128 -0.053 0.844 -0.1 0.44 -0.89 0.05
1 4.03 403 1.221 -7.868 5.119 25.726 -15.839 22.736 -794.932 -2129.962 -3839.898 0.016 0.104 0.732 -0.1 0.44 -0.89 0.06
1 4.04 404 1.283 -8.054 5.028 12.085 -16.815 17.914 -794.932 -2129.962 -3839.898 -0.068 0.321 0.867 -0.1 0.44 -0.89 0.06
1 4.05 405 1.456 -8.256 5.119 2.350 -18.036 12.756 -1064.906 -2054.861 -3839.898 -0.243 0.525 0.781 -0.1 0.43 -0.89 0.06
1 4.06 406 1.374 -8.576 5.181 -4.883 -16.663 9.003 -779.942 -2144.953 -3974.960 -0.158 0.841 0.711 -0.1 0.43 -0.89 0.06
1 4.07 407 1.374 -8.840 5.153 -8.331 -16.419 6.653 -1079.896 -2189.923 -3929.990 -0.151 1.094 0.725 -0.1 0.44 -0.89 0.07
1 4.08 408 1.149 -9.333 5.258 -9.094 -12.695 6.866 -1079.896 -2189.923 -3929.990 0.082 1.574 0.600 -0.1 0.44 -0.89 0.07
1 4.09 409 0.963 -9.491 5.425 -8.453 -9.094 9.460 -929.994 -2114.972 -3824.908 0.273 1.717 0.413 -0.1 0.44 -0.89 0.07
1 4.10 410 0.747 -9.347 5.713 -9.308 -4.974 14.801 -914.854 -2279.865 -3839.898 0.486 1.559 0.106 -0.1 0.44 -0.89 0.07
1 4.11 411 0.168 -8.844 6.450 -9.155 0.244 22.125 -914.854 -2279.865 -3839.898 1.036 1.035 -0.654 -0.1 0.44 -0.89 0.07
1 4.12 412 0.129 -8.562 7.116 -3.571 -0.946 25.421 -1004.945 -2219.904 -3794.928 1.046 0.742 -1.328 -0.1 0.44 -0.89 0.07
1 4.13 413 0.172 -8.198 7.485 5.035 -2.014 26.245 -989.955 -2279.865 -3809.918 0.974 0.373 -1.697 -0.1 0.44 -0.89 0.07
1 4.14 414 0.484 -8.437 7.705 10.559 -2.838 26.520 -914.854 -2174.933 -3839.898 0.634 0.615 -1.909 -0.1 0.44 -0.89 0.07
1 4.15 415 1.106 -8.983 7.748 -0.580 -0.519 31.494 -914.854 -2174.933 -3839.898 -0.018 1.166 -1.939 -0.1 0.44 -0.89 0.08
1 4.16 416 1.753 -9.314 7.892 -14.954 6.012 39.642 -899.864 -2069.852 -3974.960 -0.700 1.495 -2.078 -0.1 0.44 -0.89 0.08
1 4.17 417 1.824 -9.486 7.772 -20.233 24.445 43.030 -914.854 -2249.884 -3809.918 -0.820 1.652 -1.971 -0.1 0.44 -0.89 0.08
1 4.18 418 1.240 -10.022 7.456 -2.167 44.983 34.882 -914.854 -2249.884 -3809.918 -0.386 2.149 -1.684 -0.09 0.44 -0.89 0.08
1 4.19 419 0.608 -10.238 6.934 15.045 42.053 23.773 -1064.906 -2009.891 -3884.869 0.168 2.363 -1.152 -0.09 0.44 -0.89 0.08
1 4.20 420 0.129 -10.276 6.963 18.768 26.245 13.977 -1094.887 -1934.939 -3809.918 0.587 2.415 -1.155 -0.08 0.44 -0.89 0.08
1 4.21 421 0.077 -9.740 6.704 5.096 4.364 9.613 -1094.887 -1934.939 -3809.918 0.606 1.893 -0.873 -0.08 0.44 -0.89 0.08
1 4.22 422 0.354 -8.639 6.431 -11.353 -19.348 4.486 -824.913 -1994.900 -3974.960 0.318 0.792 -0.598 -0.08 0.44 -0.89 0.08
1 4.23 423 0.733 -7.710 5.890 -4.913 -24.719 -0.336 -929.994 -2114.972 -3899.859 -0.052 -0.146 -0.070 -0.08 0.44 -0.89 0.08
1 4.24 424 0.939 -6.761 5.512 5.890 -27.008 -6.165 -794.932 -2054.861 -3839.898 -0.240 -1.100 0.298 -0.08 0.44 -0.89 0.08
1 4.25 425 1.068 -5.694 5.186 9.369 -26.581 -14.252 -794.932 -2054.861 -3839.898 -0.301 -2.151 0.637 -0.09 0.44 -0.89 0.08
1 4.26 426 1.197 -5.425 5.239 0.854 -21.973 -15.381 -839.903 -1934.939 -3884.869 -0.389 -2.410 0.592 -0.09 0.44 -0.89 0.08
1 4.27 427 1.135 -4.745 5.492 -12.390 -14.404 -13.397 -854.893 -2219.904 -3899.859 -0.290 -3.089 0.334 -0.09 0.44 -0.89 0.08
1 4.28 428 1.355 -4.645 5.770 -26.428 -5.646 -8.820 -854.893 -2219.904 -3899.859 -0.484 -3.201 0.037 -0.09 0.44 -0.89 0.08
1 4.29 429 1.513 -4.774 6.000 -37.872 3.510 -1.923 -914.854 -2204.914 -3809.918 -0.629 -3.096 -0.228 -0.09 0.44 -0.89 0.08
1 4.30 430 1.872 -4.975 6.316 -45.014 17.761 10.315 -1019.936 -2054.861 -3734.967 -0.993 -2.929 -0.590 -0.09 0.45 -0.89 0.08
1 4.31 431 2.164 -5.516 6.412 -42.572 28.870 16.815 -974.965 -2039.871 -3854.889 -1.308 -2.427 -0.737 -0.09 0.45 -0.88 0.08
1 4.32 432 2.610 -6.321 6.781 -32.898 46.723 20.935 -974.965 -2039.871 -3854.889 -1.844 -1.690 -1.188 -0.09 0.46 -0.88 0.08
1 4.33 433 2.624 -6.967 6.694 -29.816 53.040 21.210 -989.955 -2054.861 -3764.947 -1.912 -1.063 -1.122 -0.08 0.46 -0.88 0.08
1 4.34 434 2.768 -8.519 7.010 -20.294 70.954 18.921 -854.893 -2219.904 -3749.957 -2.119 0.473 -1.453 -0.08 0.46 -0.88 0.08
1 4.35 435 2.457 -9.170 6.934 -14.313 75.409 12.512 -854.893 -2219.904 -3749.957 -1.891 1.108 -1.392 -0.07 0.46 -0.88 0.08
1 4.36 436 1.949 -9.098 7.001 -4.242 68.085 1.434 -914.854 -1934.939 -3734.967 -1.458 1.026 -1.466 -0.07 0.46 -0.88 0.07
1 4.37 437 1.379 -8.883 7.288 11.871 41.443 -17.487 -854.893 -1919.949 -3719.977 -0.940 0.810 -1.749 -0.06 0.46 -0.88 0.07
1 4.38 438 0.828 -8.208 7.293 11.810 21.301 -26.886 -690.000 -1934.939 -3704.986 -0.410 0.146 -1.737 -0.06 0.46 -0.88 0.07
1 4.39 439 0.666 -7.643 6.833 2.930 7.416 -33.875 -690.000 -1934.939 -3704.986 -0.238 -0.406 -1.259 -0.06 0.46 -0.88 0.07
1 4.40 440 0.589 -7.355 6.120 -13.123 -3.418 -36.591 -674.860 -1919.949 -3824.908 -0.084 -0.679 -0.531 -0.06 0.46 -0.88 0.06
1 4.41 441 0.848 -7.312 5.469 -17.578 -8.637 -35.065 -614.899 -1979.910 -3734.967 -0.292 -0.727 0.109 -0.06 0.46 -0.88 0.06
1 4.42 442 1.154 -7.355 5.119 -15.228 -14.648 -30.212 -614.899 -1979.910 -3734.967 -0.546 -0.693 0.440 -0.06 0.46 -0.88 0.06
1 4.43 443 1.504 -7.336 4.980 -10.315 -17.578 -24.017 -779.942 -2069.852 -3749.957 -0.843 -0.719 0.562 -0.07 0.46 -0.88 0.05
1 4.44 444 2.131 -7.494 5.114 -3.326 -15.869 -14.801 -659.870 -2099.982 -3734.967 -1.421 -0.566 0.415 -0.07 0.46 -0.88 0.05
1 4.45 445 2.059 -7.499 5.224 -0.214 -8.911 -9.552 -794.932 -1904.959 -3839.898 -1.305 -0.562 0.298 -0.07 0.46 -0.88 0.05
1 4.46 446 2.231 -7.499 5.416 2.594 0.244 -5.341 -794.932 -1904.959 -3839.898 -1.443 -0.560 0.105 -0.07 0.46 -0.88 0.05
1 4.47 447 2.279 -7.489 5.583 4.547 9.460 -2.167 -869.883 -1859.988 -3764.947 -1.470 -0.565 -0.060 -0.07 0.46 -0.88 0.05
1 4.48 448 2.093 -7.485 5.900 7.416 19.714 1.526 -734.971 -1904.959 -3734.967 -1.276 -0.554 -0.354 -0.07 0.46 -0.88 0.05
1 4.49 449 1.810 -7.686 6.172 7.416 22.492 2.441 -734.971 -1904.959 -3734.967 -1.002 -0.343 -0.611 -0.07 0.46 -0.88 0.05
1 4.50 450 1.599 -7.825 6.240 6.256 20.233 4.120 -779.942 -1919.949 -3674.856 -0.805 -0.194 -0.662 -0.07 0.46 -0.88 0.05
1 4.51 451 1.571 -7.959 6.536 4.547 14.008 3.601 -854.893 -1919.949 -3719.977 -0.790 -0.051 -0.944 -0.07 0.46 -0.88 0.05
1 4.52 452 1.422 -8.093 6.450 6.500 1.160 -0.397 -749.961 -1964.920 -3674.856 -0.649 0.091 -0.845 -0.07 0.46 -0.89 0.05
1 4.53 453 1.480 -7.987 6.283 11.383 -5.981 -5.981 -749.961 -1964.920 -3674.856 -0.704 -0.005 -0.665 -0.07 0.46 -0.89 0.05
1 4.54 454 1.638 -7.705 6.086 16.449 -9.186 -12.238 -704.991 -1964.920 -3599.905 -0.848 -0.274 -0.452 -0.07 0.46 -0.89 0.05
1 4.55 455 1.767 -7.623 5.761 19.501 -4.486 -19.684 -629.890 -2114.972 -3794.928 -0.918 -0.315 -0.078 -0.07 0.45 -0.89 0.05
1 4.56 456 1.882 -7.614 5.464 16.327 2.716 -20.447 -629.890 -2114.972 -3794.928 -0.998 -0.303 0.244 -0.07 0.45 -0.89 0.04
1 4.57 457 1.839 -7.508 5.301 8.514 11.353 -19.074 -734.971 -2054.861 -3809.918 -0.927 -0.391 0.427 -0.07 0.45 -0.89 0.04
1 4.58 458 1.705 -7.485 4.994 0.793 19.623 -16.785 -824.913 -1964.920 -3854.889 -0.775 -0.405 0.743 -0.07 0.45 -0.89 0.04
1 4.59 459 1.748 -7.628 4.755 -5.463 30.853 -12.238 -764.952 -1904.959 -3764.947 -0.810 -0.260 0.984 -0.07 0.45 -0.89 0.04
1 4.60 460 1.384 -7.662 4.492 -2.838 35.919 -10.376 -764.952 -1904.959 -3764.947 -0.449 -0.230 1.242 -0.07 0.45 -0.89 0.04
1 4.61 461 1.212 -7.647 4.391 1.404 37.750 -9.491 -690.000 -1979.910 -3734.967 -0.288 -0.249 1.340 -0.07 0.45 -0.89 0.04
1 4.62 462 0.881 -7.432 4.348 9.033 34.454 -10.620 -674.860 -1919.949 -3644.875 0.006 -0.460 1.394 -0.07 0.45 -0.89 0.03
1 4.63 463 0.891 -7.599 4.386 12.329 29.053 -11.444 -674.860 -1919.949 -3644.875 -0.019 -0.281 1.373 -0.06 0.45 -0.89 0.03
1 4.64 464 0.790 -7.465 4.607 12.390 21.240 -12.360 -734.971 -2009.891 -3764.947 0.072 -0.402 1.173 -0.06 0.45 -0.89 0.03
1 4.65 465 0.733 -7.614 4.769 9.338 11.169 -12.146 -734.971 -2009.891 -3764.947 0.128 -0.240 1.029 -0.06 0.45 -0.89 0.03
1 4.66 466 0.651 -7.872 5.392 -1.617 -4.669 -11.200 -629.890 -2189.923 -3824.908 0.216 0.025 0.414 -0.06 0.45 -0.89 0.03
1 4.67 467 0.785 -7.872 5.459 -9.399 -14.710 -9.369 -629.890 -2189.923 -3824.908 0.097 0.025 0.345 -0.06 0.45 -0.89 0.03
1 4.68 468 1.192 -8.021 5.665 -13.794 -21.851 -7.660 -704.991 -1994.900 -3854.889 -0.288 0.168 0.127 -0.06 0.45 -0.89 0.03
1 4.69 469 1.355 -8.088 5.531 -14.496 -23.377 -6.409 -614.899 -1904.959 -3884.869 -0.424 0.224 0.243 -0.07 0.45 -0.89 0.03
1 4.70 470 1.882 -8.428 5.646 -9.552 -16.937 -5.280 -614.899 -1904.959 -3884.869 -0.889 0.542 0.087 -0.07 0.45 -0.89 0.03
1 4.71 471 2.097 -8.624 5.674 -3.876 -8.637 -5.127 -569.929 -2189.923 -3794.928 -1.079 0.732 0.045 -0.07 0.45 -0.89 0.03
1 4.72 472 2.231 -8.595 5.579 3.937 2.655 -5.341 -569.929 -2189.923 -3794.928 -1.194 0.702 0.136 -0.07 0.45 -0.89 0.03
1 4.73 473 2.112 -8.615 5.856 12.665 13.123 -5.707 -749.961 -2114.972 -3674.856 -1.064 0.727 -0.136 -0.07 0.45 -0.89 0.03
1 4.74 474 1.710 -8.457 5.617 23.254 25.452 -6.683 -749.961 -2114.972 -3674.856 -0.660 0.582 0.122 -0.07 0.45 -0.89 0.02
1 4.75 475 1.580 -8.366 5.555 25.543 29.266 -6.073 -614.899 -1979.910 -3809.918 -0.537 0.511 0.212 -0.07 0.45 -0.89 0.02
1 4.76 476 0.929 -8.169 5.085 21.210 27.069 -5.981 -704.991 -1994.900 -3749.957 0.087 0.358 0.745 -0.07 0.44 -0.89 0.02
1 4.77 477 0.943 -8.174 4.980 17.670 24.872 -5.920 -704.991 -1994.900 -3749.957 0.057 0.379 0.874 -0.07 0.44 -0.89 0.02
1 4.78 478 0.886 -8.303 4.798 9.857 11.536 -4.120 -584.919 -2204.914 -3884.869 0.104 0.517 1.069 -0.07 0.44 -0.89 0.02
1 4.79 479 0.910 -8.457 5.186 6.805 -1.007 -1.801 -584.919 -2204.914 -3884.869 0.076 0.675 0.688 -0.07 0.44 -0.89 0.02
1 4.80 480 1.044 -8.270 5.847 9.979 -13.031 1.038 -614.899 -2099.982 -3734.967 -0.053 0.491 0.030 -0.07 0.44 -0.89 0.02
1 4.81 481 0.939 -8.184 6.915 14.954 -25.024 -0.549 -614.899 -2099.982 -3734.967 0.066 0.413 -1.029 -0.07 0.44 -0.89 0.02
1 4.82 482 0.996 -8.212 8.471 10.284 -27.741 -4.150 -524.958 -2144.953 -3674.856 0.029 0.457 -2.568 -0.07 0.44 -0.89 0.02
1 4.83 483 0.919 -8.720 8.691 -8.698 -27.741 -12.360 -690.000 -2204.914 -3734.967 0.135 0.977 -2.777 -0.07 0.44 -0.9 0.02
1 4.84 484 0.982 -9.362 8.299 -42.755 -29.053 -19.959 -690.000 -2204.914 -3734.967 0.159 1.598 -2.428 -0.08 0.44 -0.89 0.02
1 4.85 485 1.317 -10.061 7.781 -46.875 -27.405 -16.388 -629.890 -2264.875 -3794.928 -0.127 2.261 -1.969 -0.08 0.44 -0.89 0.02
1 4.86 486 1.518 -10.468 7.154 -31.677 -17.914 -13.153 -629.890 -2264.875 -3794.928 -0.286 2.633 -1.398 -0.08 0.45 -0.89 0.02
1 4.87 487 1.666 -10.607 6.532 -4.456 -9.888 -8.331 -854.893 -2114.972 -3824.908 -0.406 2.753 -0.808 -0.08 0.45 -0.89 0.02
1 4.88 488 1.642 -9.951 6.086 26.306 -10.010 -3.510 -704.991 -1994.900 -3749.957 -0.365 2.101 -0.360 -0.08 0.45 -0.89 0.02
1 4.89 489 1.504 -9.328 6.129 31.708 -15.595 -2.045 -749.961 -2039.871 -3674.856 -0.212 1.500 -0.376 -0.08 0.45 -0.89 0.02
1 4.90 490 1.595 -8.519 6.091 28.229 -21.484 0.092 -869.883 -1979.910 -3809.918 -0.287 0.720 -0.302 -0.09 0.44 -0.89 0.02
1 4.91 491 1.628 -7.365 6.062 15.198 -27.374 2.869 -869.883 -1979.910 -3809.918 -0.280 -0.385 -0.218 -0.09 0.44 -0.89 0.02
1 4.92 492 1.604 -6.795 6.182 0.885 -32.990 5.035 -734.971 -2129.962 -3809.918 -0.232 -0.942 -0.326 -0.09 0.44 -0.89 0.03
1 4.93 493 1.724 -6.359 6.105 -17.914 -42.328 8.453 -734.971 -2129.962 -3809.918 -0.324 -1.378 -0.256 -0.09 0.44 -0.89 0.03
1 4.94 494 1.676 -5.861 6.287 -38.696 -52.796 11.536 -764.952 -2174.933 -3764.947 -0.244 -1.893 -0.468 -0.1 0.44 -0.89 0.03
1 4.95 495 1.829 -5.713 6.508 -57.709 -61.524 13.336 -854.893 -1994.900 -3749.957 -0.362 -2.082 -0.751 -0.1 0.44 -0.89 0.03
1 4.96 496 2.088 -5.507 6.685 -74.036 -69.062 14.374 -794.932 -2009.891 -3704.986 -0.577 -2.335 -1.005 -0.1 0.45 -0.89 0.03
1 4.97 497 2.102 -5.349 6.599 -74.707 -64.453 14.160 -1079.896 -2144.953 -3854.889 -0.546 -2.553 -1.014 -0.11 0.45 -0.89 0.04
1 4.98 498 2.260 -5.315 6.570 -66.010 -51.666 12.421 -1079.896 -2144.953 -3854.889 -0.659 -2.641 -1.077 -0.11 0.46 -0.88 0.04
1 4.99 499 2.164 -5.636 6.675 -39.612 -16.174 8.270 -989.955 -1934.939 -3659.866 -0.508 -2.415 -1.338 -0.12 0.46 -0.88 0.04
1 5.00 500 1.844 -6.149 6.752 -15.533 16.419 1.892 -989.955 -1934.939 -3659.866 -0.183 -1.919 -1.442 -0.12 0.46 -0.88 0.04
1 5.01 501 1.302 -7.111 6.484 9.522 52.338 -7.416 -1034.926 -1889.969 -3719.977 0.341 -0.953 -1.163 -0.12 0.46 -0.88 0.04
1 5.02 502 0.709 -8.380 6.450 28.992 82.337 -14.954 -1004.945 -1799.877 -3494.973 0.897 0.338 -1.084 -0.11 0.46 -0.88 0.04
1 5.03 503 -0.105 -9.773 6.244 41.901 89.173 -13.641 -974.965 -1844.998 -3644.875 1.654 1.767 -0.810 -0.11 0.46 -0.88 0.04
1 5.04 504 -1.379 -10.118 6.311 29.907 58.350 -6.256 -989.955 -1829.858 -3704.986 2.869 2.151 -0.803 -0.1 0.46 -0.88 0.03
1 5.05 505 -1.499 -9.338 6.642 7.599 7.599 -5.768 -989.955 -1829.858 -3704.986 2.942 1.402 -1.075 -0.1 0.45 -0.88 0.03
1 5.06 506 -0.694 -8.390 7.082 -26.795 -61.402 -12.146 -944.984 -1904.959 -3704.986 2.163 0.461 -1.513 -0.1 0.45 -0.89 0.03
1 5.07 507 0.081 -8.203 6.852 -38.971 -82.459 -15.656 -944.984 -1904.959 -3704.986 1.463 0.252 -1.335 -0.11 0.46 -0.88 0.03
1 5.08 508 0.637 -8.021 6.594 -37.384 -79.193 -15.442 -854.893 -1919.949 -3644.875 0.983 0.045 -1.135 -0.11 0.46 -0.88 0.03
1 5.09 509 0.872 -7.858 6.263 -21.881 -58.197 -10.590 -944.984 -1754.907 -3629.885 0.820 -0.139 -0.858 -0.12 0.46 -0.88 0.04
1 5.10 510 0.618 -7.623 5.315 17.883 -14.893 1.862 -989.955 -2009.891 -3659.866 1.120 -0.381 0.065 -0.12 0.46 -0.88 0.04
1 5.11 511 0.249 -7.350 4.918 42.664 8.087 11.017 -1109.877 -1844.998 -3599.905 1.501 -0.643 0.475 -0.12 0.46 -0.88 0.04
1 5.12 512 -0.077 -7.121 4.544 58.533 18.097 19.013 -1109.877 -1844.998 -3599.905 1.806 -0.845 0.897 -0.12 0.46 -0.88 0.04
1 5.13 513 -0.383 -6.900 4.559 57.343 12.299 25.269 -1064.906 -1904.959 -3659.866 2.032 -0.975 1.036 -0.12 0.45 -0.89 0.04
1 5.14 514 -0.464 -6.819 4.683 40.802 1.740 27.466 -1064.906 -1904.959 -3659.866 2.074 -1.015 0.980 -0.11 0.44 -0.89 0.04
1 5.15 515 -0.235 -7.154 5.062 16.632 -10.773 26.245 -1034.926 -1724.926 -3674.856 1.813 -0.655 0.645 -0.11 0.44 -0.89 0.05
1 5.16 516 -0.110 -7.475 5.334 -8.789 -21.942 25.147 -1079.896 -1919.949 -3569.924 1.670 -0.331 0.382 -0.11 0.44 -0.89 0.05
1 5.17 517 0.038 -7.757 5.660 -28.992 -30.884 23.834 -974.965 -2114.972 -3749.957 1.501 -0.067 0.036 -0.11 0.44 -0.89 0.05
1 5.18 518 0.694 -8.256 5.694 -41.962 -37.872 23.407 -944.984 -1934.939 -3509.963 0.834 0.397 -0.042 -0.12 0.45 -0.89 0.05
1 5.19 519 1.183 -8.500 5.737 -35.797 -37.506 22.797 -944.984 -1934.939 -3509.963 0.341 0.600 -0.141 -0.12 0.45 -0.88 0.06
1 5.20 520 1.662 -8.696 5.818 -20.142 -32.837 22.156 -1079.896 -1994.900 -3674.856 -0.138 0.733 -0.313 -0.12 0.45 -0.88 0.06
1 5.21 521 2.299 -8.581 5.718 13.519 -20.660 20.111 -1079.896 -1994.900 -3674.856 -0.776 0.610 -0.224 -0.12 0.45 -0.88 0.06
1 5.22 522 2.485 -8.246 5.583 34.088 -10.040 18.097 -1019.936 -1829.858 -3659.866 -0.966 0.287 -0.071 -0.12 0.45 -0.88 0.07
1 5.23 523 2.375 -7.863 5.378 47.424 0.793 15.015 -1004.945 -1889.969 -3644.875 -0.865 -0.067 0.179 -0.12 0.45 -0.88 0.07
1 5.24 524 2.184 -7.312 5.200 50.446 10.284 11.902 -1079.896 -1889.969 -3644.875 -0.686 -0.577 0.417 -0.12 0.45 -0.88 0.07
1 5.25 525 1.992 -7.121 4.832 36.316 23.163 7.813 -1199.968 -2009.891 -3629.885 -0.512 -0.727 0.848 -0.12 0.44 -0.89 0.07
1 5.26 526 1.312 -6.963 4.338 19.226 29.511 4.974 -1199.968 -2009.891 -3629.885 0.145 -0.852 1.393 -0.12 0.44 -0.89 0.07
1 5.27 527 0.915 -7.489 4.099 0.488 32.410 2.319 -1019.936 -1934.939 -3704.986 0.511 -0.304 1.669 -0.12 0.44 -0.89 0.07
1 5.28 528 0.139 -8.011 3.788 -20.447 28.626 2.869 -1019.936 -1934.939 -3704.986 1.224 0.212 1.988 -0.11 0.44 -0.89 0.07
1 5.29 529 -0.412 -8.428 3.884 -27.313 17.883 4.425 -944.984 -1979.910 -3704.986 1.744 0.606 1.868 -0.11 0.44 -0.89 0.07
1 5.30 530 -0.646 -8.686 3.951 -26.978 3.845 6.470 -1019.936 -1934.939 -3704.986 1.950 0.831 1.761 -0.11 0.44 -0.89 0.07
1 5.31 531 -0.785 -8.701 4.022 -22.339 -12.421 8.545 -1019.936 -1934.939 -3704.986 2.068 0.812 1.648 -0.11 0.45 -0.89 0.07
1 5.32 532 -0.747 -8.619 4.449 -11.963 -36.835 9.949 -1019.936 -1859.988 -3659.866 2.019 0.702 1.185 -0.11 0.45 -0.88 0.07
1 5.33 533 -0.752 -8.639 4.760 -5.737 -49.652 11.719 -1019.936 -1859.988 -3659.866 2.025 0.700 0.844 -0.11 0.45 -0.88 0.07
1 5.34 534 -0.546 -8.332 5.076 -0.641 -58.197 13.489 -1019.936 -1934.939 -3629.885 1.831 0.379 0.505 -0.11 0.45 -0.88 0.07
1 5.35 535 -0.129 -7.973 5.267 6.165 -62.378 16.724 -1019.936 -1934.939 -3629.885 1.453 0.007 0.285 -0.12 0.45 -0.88 0.08
1 5.36 536 0.043 -7.839 5.411 13.733 -58.655 18.280 -1169.988 -1979.910 -3704.986 1.301 -0.126 0.138 -0.12 0.45 -0.88 0.08
1 5.37 537 0.215 -7.801 5.708 22.278 -50.873 20.111 -1154.998 -1919.949 -3719.977 1.145 -0.155 -0.149 -0.12 0.45 -0.88 0.09
1 5.38 538 0.594 -8.050 5.938 28.717 -42.023 22.064 -1154.998 -1919.949 -3719.977 0.775 0.111 -0.357 -0.12 0.45 -0.88 0.09
1 5.39 539 0.723 -8.184 5.909 31.189 -31.036 24.445 -1139.857 -2009.891 -3629.885 0.646 0.267 -0.297 -0.13 0.44 -0.88 0.09
1 5.40 540 0.852 -8.236 5.847 25.848 -14.587 27.008 -1139.857 -2009.891 -3629.885 0.506 0.342 -0.201 -0.13 0.44 -0.88 0.1
1 5.41 541 1.015 -8.375 5.607 20.111 -3.845 26.886 -1184.978 -1964.920 -3539.944 0.323 0.501 0.071 -0.13 0.44 -0.88 0.1
1 5.42 542 1.092 -8.821 5.378 14.984 4.913 25.848 -1184.978 -1964.920 -3539.944 0.216 0.959 0.326 -0.13 0.44 -0.88 0.1
1 5.43 543 1.034 -9.323 4.836 11.047 8.331 21.454 -1274.919 -1979.910 -3659.866 0.200 1.473 0.898 -0.12 0.44 -0.88 0.1
1 5.44 544 0.958 -9.558 4.894 5.615 0.854 18.463 -1229.949 -2039.871 -3719.977 0.244 1.707 0.846 -0.12 0.44 -0.88 0.1
1 5.45 545 0.867 -9.625 5.363 -3.235 -13.092 14.771 -1229.949 -2039.871 -3719.977 0.313 1.767 0.372 -0.12 0.44 -0.88 0.11
1 5.46 546 0.646 -9.280 6.307 -9.552 -30.090 11.078 -1154.998 -1919.949 -3599.905 0.533 1.416 -0.579 -0.12 0.44 -0.88 0.11
1 5.47 547 1.216 -9.031 7.317 1.251 -50.446 11.688 -1154.998 -1919.949 -3599.905 -0.019 1.158 -1.606 -0.12 0.44 -0.88 0.11
1 5.48 548 1.528 -9.170 7.877 15.930 -52.216 15.991 -1394.991 -2174.933 -3704.986 -0.302 1.294 -2.176 -0.13 0.44 -0.88 0.11
1 5.49 549 2.117 -9.582 8.117 21.088 -46.570 22.247 -1394.991 -2174.933 -3704.986 -0.862 1.715 -2.409 -0.13 0.44 -0.88 0.11
1 5.50 550 3.184 -9.821 8.524 0.458 -33.203 35.401 -1199.968 -2054.861 -3659.866 -1.910 1.977 -2.790 -0.13 0.44 -0.88 0.12
1 5.51 551 3.390 -9.917 8.792 -10.712 -11.902 41.718 -1244.939 -2054.861 -3584.915 -2.135 2.063 -3.066 -0.13 0.44 -0.88 0.12
1 5.52 552 3.285 -9.879 8.734 -6.439 17.426 43.976 -1244.939 -2054.861 -3584.915 -2.076 2.009 -3.021 -0.13 0.44 -0.88 0.12
1 5.53 553 2.825 -9.831 7.896 10.132 42.023 39.612 -1424.972 -1859.988 -3584.915 -1.690 1.952 -2.181 -0.13 0.44 -0.88 0.13
1 5.54 554 1.312 -9.213 6.690 24.872 59.082 22.583 -1304.900 -1994.900 -3644.875 -0.262 1.341 -0.948 -0.12 0.44 -0.88 0.13
1 5.55 555 0.335 -8.232 6.268 13.977 53.955 12.634 -1274.919 -1904.959 -3509.963 0.633 0.378 -0.487 -0.12 0.44 -0.88 0.13
1 5.56 556 -0.302 -7.695 5.842 -5.127 40.833 4.517 -1274.919 -1904.959 -3509.963 1.202 -0.144 -0.030 -0.11 0.44 -0.88 0.13
1 5.57 557 -0.565 -6.776 5.421 -28.534 20.783 -3.021 -1169.988 -1934.939 -3509.963 1.377 -1.079 0.383 -0.11 0.44 -0.88 0.12
1 5.58 558 -0.441 -6.230 5.162 -36.987 4.700 -7.660 -1229.949 -2039.871 -3749.957 1.238 -1.650 0.609 -0.11 0.44 -0.88 0.12
1 5.59 559 -0.139 -5.746 4.904 -43.427 -13.580 -11.505 -1229.949 -2039.871 -3749.957 0.947 -2.166 0.822 -0.11 0.44 -0.88 0.12
1 5.60 560 0.139 -5.421 4.870 -47.608 -30.396 -12.543 -1169.988 -2099.982 -3659.866 0.700 -2.528 0.800 -0.11 0.45 -0.88 0.12
1 5.61 561 0.718 -5.320 5.172 -47.974 -47.394 -9.277 -1139.857 -1979.910 -3629.885 0.166 -2.668 0.436 -0.11 0.45 -0.88 0.12
1 5.62 562 1.144 -5.325 5.382 -40.955 -49.988 -3.632 -1154.998 -1964.920 -3644.875 -0.208 -2.703 0.160 -0.12 0.45 -0.88 0.12
1 5.63 563 1.585 -5.521 5.421 -27.191 -47.455 3.479 -1154.998 -1964.920 -3644.875 -0.599 -2.541 0.062 -0.12 0.45 -0.87 0.12
1 5.64 564 2.184 -5.742 5.919 1.770 -29.938 12.665 -1139.857 -1904.959 -3584.915 -1.135 -2.358 -0.502 -0.13 0.46 -0.87 0.12
1 5.65 565 2.854 -6.278 6.278 11.566 -20.844 15.839 -1169.988 -1904.959 -3659.866 -1.795 -1.814 -0.851 -0.13 0.46 -0.87 0.12
1 5.66 566 3.745 -7.125 6.675 34.668 14.740 19.806 -1169.988 -1904.959 -3659.866 -2.691 -0.939 -1.207 -0.13 0.45 -0.87 0.12
1 5.67 567 4.195 -7.992 7.154 37.628 37.933 21.607 -1199.968 -1829.858 -3509.963 -3.164 -0.035 -1.628 -0.12 0.45 -0.88 0.12
1 5.68 568 4.377 -8.294 7.413 26.520 54.260 21.362 -1259.929 -1769.897 -3569.924 -3.408 0.295 -1.835 -0.12 0.45 -0.88 0.12
1 5.69 569 4.195 -7.920 7.738 -9.827 60.456 12.177 -1274.919 -1859.988 -3584.915 -3.300 -0.063 -2.125 -0.12 0.45 -0.88 0.12
1 5.70 570 3.577 -7.446 7.719 -32.868 54.749 -1.038 -1274.919 -1859.988 -3584.915 -2.752 -0.541 -2.101 -0.11 0.45 -0.88 0.12
1 5.71 571 3.156 -7.398 7.714 -48.676 49.805 -16.541 -1229.949 -1919.949 -3749.957 -2.382 -0.612 -2.122 -0.11 0.45 -0.88 0.12
1 5.72 572 2.413 -7.542 7.006 -55.878 51.514 -34.943 -1139.857 -1754.907 -3509.963 -1.674 -0.546 -1.522 -0.1 0.46 -0.88 0.11
1 5.73 573 2.078 -7.753 6.125 -46.448 56.091 -41.870 -1139.857 -1754.907 -3509.963 -1.324 -0.368 -0.690 -0.1 0.46 -0.88 0.11
1 5.74 574 1.571 -7.944 5.224 -26.642 58.319 -45.166 -1079.896 -1769.897 -3569.924 -0.799 -0.200 0.172 -0.1 0.46 -0.87 0.1
1 5.75 575 1.221 -7.844 4.353 0.946 53.803 -45.349 -1094.887 -1784.887 -3659.866 -0.433 -0.309 1.027 -0.1 0.46 -0.87 0.1
1 5.76 576 1.231 -7.456 4.061 34.851 37.140 -40.802 -1034.926 -1799.877 -3644.875 -0.424 -0.687 1.333 -0.1 0.46 -0.88 0.09
1 5.77 577 1.346 -7.006 4.291 40.833 26.550 -38.025 -1034.926 -1799.877 -3644.875 -0.519 -1.107 1.145 -0.09 0.46 -0.88 0.09
1 5.78 578 1.480 -6.857 4.736 30.884 19.043 -35.614 -1064.906 -1754.907 -3554.934 -0.629 -1.215 0.755 -0.09 0.46 -0.88 0.08
1 5.79 579 1.494 -6.852 5.220 -5.066 18.250 -33.051 -1034.926 -1724.926 -3569.924 -0.587 -1.167 0.339 -0.09 0.46 -0.88 0.08
1 5.80 580 1.518 -7.255 5.713 -31.067 21.881 -30.670 -1034.926 -1724.926 -3569.924 -0.583 -0.768 -0.163 -0.09 0.46 -0.88 0.08
1 5.81 581 1.336 -7.757 5.885 -51.453 26.367 -27.832 -974.965 -1769.897 -3539.944 -0.379 -0.289 -0.373 -0.09 0.46 -0.88 0.07
1 5.82 582 1.039 -8.136 5.981 -59.204 29.785 -22.858 -944.984 -1859.988 -3629.885 -0.069 0.051 -0.527 -0.09 0.46 -0.88 0.07
1 5.83 583 0.943 -8.629 5.722 -51.788 31.891 -17.242 -929.994 -1769.897 -3674.856 0.030 0.502 -0.332 -0.09 0.47 -0.88 0.07
1 5.84 584 0.551 -8.988 5.742 -18.524 27.832 -10.437 -929.994 -1769.897 -3674.856 0.416 0.826 -0.404 -0.09 0.47 -0.88 0.06
1 5.85 585 0.512 -9.050 5.761 9.460 20.142 -7.385 -1034.926 -1844.998 -3599.905 0.444 0.870 -0.449 -0.09 0.47 -0.88 0.06
1 5.86 586 0.546 -8.754 5.727 33.569 10.376 -5.981 -989.955 -1754.907 -3584.915 0.400 0.577 -0.409 -0.09 0.47 -0.88 0.06
1 5.87 587 0.421 -8.643 5.837 50.781 0.458 -6.958 -989.955 -1754.907 -3584.915 0.518 0.490 -0.481 -0.09 0.47 -0.88 0.06
1 5.88 588 0.824 -7.925 5.588 59.937 -7.874 -10.773 -824.913 -1619.995 -3644.875 0.131 -0.138 -0.100 -0.09 0.46 -0.88 0.06
1 5.89 589 1.111 -7.676 5.521 52.826 -10.040 -14.008 -929.994 -1889.969 -3644.875 -0.136 -0.334 0.040 -0.09 0.46 -0.88 0.06
1 5.90 590 1.446 -7.432 5.449 36.621 -10.803 -15.930 -944.984 -1979.910 -3629.885 -0.443 -0.532 0.173 -0.09 0.45 -0.89 0.06
1 5.91 591 1.690 -7.370 5.167 6.470 -7.751 -15.198 -944.984 -1979.910 -3629.885 -0.656 -0.563 0.494 -0.09 0.45 -0.89 0.06
1 5.92 592 1.863 -7.461 4.894 -8.942 -3.693 -13.641 -1004.945 -1724.926 -3539.944 -0.797 -0.458 0.780 -0.09 0.45 -0.89 0.06
1 5.93 593 2.078 -7.456 4.860 -19.592 4.211 -10.559 -944.984 -1979.910 -3509.963 -0.985 -0.465 0.806 -0.09 0.45 -0.89 0.06
1 5.94 594 2.140 -7.815 4.640 -18.951 20.935 -6.042 -944.984 -1979.910 -3509.963 -1.021 -0.137 0.977 -0.09 0.45 -0.89 0.06
1 5.95 595 2.054 -7.820 4.559 -9.827 33.173 -2.991 -944.984 -1904.959 -3659.866 -0.940 -0.146 1.039 -0.09 0.45 -0.88 0.05
1 5.96 596 1.863 -8.088 4.597 2.625 42.084 -0.885 -854.893 -1889.969 -3749.957 -0.768 0.115 0.995 -0.09 0.45 -0.88 0.05
1 5.97 597 1.614 -8.217 4.568 10.559 45.685 0.549 -854.893 -1889.969 -3749.957 -0.548 0.246 1.032 -0.09 0.45 -0.88 0.05
1 5.98 598 1.451 -8.121 5.028 15.076 41.565 0.610 -929.994 -1889.969 -3539.944 -0.420 0.157 0.589 -0.08 0.45 -0.89 0.05
1 5.99 599 1.192 -8.193 5.325 15.228 34.851 -0.793 -854.893 -1964.920 -3494.973 -0.195 0.240 0.313 -0.08 0.45 -0.89 0.05
1 6.00 600 1.159 -8.107 5.708 13.550 26.245 -1.587 -869.883 -1859.988 -3584.915 -0.189 0.165 -0.049 -0.08 0.45 -0.89 0.05
1 6.01 601 1.106 -7.901 5.919 7.446 12.421 -5.463 -869.883 -1859.988 -3584.915 -0.168 -0.018 -0.222 -0.08 0.45 -0.89 0.05
1 6.02 602 0.963 -7.585 5.866 0.732 5.371 -7.141 -914.854 -1904.959 -3734.967 -0.024 -0.326 -0.159 -0.08 0.45 -0.89 0.04
1 6.03 603 1.149 -7.470 5.655 -6.470 1.862 -9.369 -839.903 -1934.939 -3704.986 -0.204 -0.439 0.054 -0.08 0.45 -0.89 0.04
1 6.04 604 1.092 -7.523 5.445 -11.841 2.319 -10.498 -839.903 -1934.939 -3704.986 -0.135 -0.390 0.257 -0.08 0.45 -0.89 0.04
1 6.05 605 1.212 -7.499 5.162 -15.045 5.402 -11.078 -869.883 -1859.988 -3659.866 -0.242 -0.422 0.526 -0.08 0.45 -0.89 0.04
1 6.06 606 1.379 -7.690 4.865 -12.421 13.855 -9.827 -749.961 -1889.969 -3644.875 -0.400 -0.242 0.806 -0.08 0.45 -0.89 0.04
1 6.07 607 1.551 -7.882 4.631 -6.348 19.592 -6.470 -839.903 -1979.910 -3764.947 -0.566 -0.061 1.025 -0.08 0.45 -0.89 0.04
1 6.08 608 1.547 -8.217 4.664 8.331 25.513 0.214 -839.903 -1979.910 -3764.947 -0.575 0.266 0.982 -0.08 0.45 -0.89 0.04
1 6.09 609 1.638 -8.466 4.750 13.458 26.245 1.984 -929.994 -1844.998 -3674.856 -0.684 0.521 0.908 -0.07 0.45 -0.89 0.04
1 6.10 610 1.714 -8.749 5.004 25.513 25.116 5.981 -854.893 -1889.969 -3719.977 -0.783 0.818 0.677 -0.07 0.45 -0.89 0.04
1 6.11 611 1.547 -8.950 5.287 28.198 22.247 6.317 -854.893 -1889.969 -3719.977 -0.639 1.038 0.424 -0.07 0.45 -0.89 0.04
1 6.12 612 1.604 -8.792 5.459 25.238 15.595 3.754 -779.942 -1889.969 -3749.957 -0.717 0.900 0.284 -0.07 0.45 -0.89 0.04
1 6.13 613 1.504 -8.658 5.852 10.498 3.479 -2.289 -824.913 -1919.949 -3599.905 -0.627 0.784 -0.083 -0.07 0.45 -0.89 0.04
1 6.14 614 1.379 -8.572 6.254 0.275 -5.493 -7.050 -734.971 -1829.858 -3584.915 -0.500 0.708 -0.471 -0.07 0.45 -0.89 0.04
1 6.15 615 1.283 -8.452 6.785 -7.477 -8.484 -13.947 -734.971 -1829.858 -3584.915 -0.389 0.591 -1.002 -0.07 0.45 -0.89 0.04
1 6.16 616 1.044 -8.935 7.456 -15.350 -4.120 -24.109 -779.942 -1844.998 -3599.905 -0.096 1.067 -1.691 -0.07 0.45 -0.89 0.04
1 6.17 617 0.675 -9.410 7.667 -23.499 -1.404 -30.060 -704.991 -1799.877 -3644.875 0.307 1.531 -1.922 -0.07 0.45 -0.89 0.03
1 6.18 618 0.316 -10.176 7.690 -31.860 -4.120 -35.645 -704.991 -1799.877 -3644.875 0.707 2.280 -1.976 -0.07 0.45 -0.89 0.03
1 6.19 619 0.397 -10.908 7.518 -34.638 -10.315 -35.828 -690.000 -1859.988 -3704.986 0.675 2.990 -1.844 -0.08 0.45 -0.89 0.03
1 6.20 620 1.097 -11.545 6.421 -14.343 -17.212 -28.168 -914.854 -2009.891 -3659.866 0.029 3.605 -0.788 -0.08 0.45 -0.89 0.03
1 6.21 621 1.484 -11.483 5.967 13.580 -19.348 -22.919 -854.893 -1724.926 -3719.977 -0.307 3.532 -0.359 -0.08 0.46 -0.89 0.03
1 6.22 622 1.786 -11.014 5.507 37.567 -22.675 -19.165 -854.893 -1724.926 -3719.977 -0.563 3.074 0.106 -0.08 0.45 -0.89 0.03
1 6.23 623 2.026 -10.243 5.483 42.633 -32.715 -13.184 -734.971 -1934.939 -3704.986 -0.714 2.379 0.216 -0.09 0.45 -0.89 0.03
1 6.24 624 2.289 -8.840 5.689 33.081 -35.950 -7.874 -854.893 -1919.949 -3749.957 -0.933 1.015 0.054 -0.09 0.45 -0.89 0.03
1 6.25 625 2.327 -7.810 5.813 20.935 -33.936 -2.197 -854.893 -1919.949 -3749.957 -0.929 0.013 -0.044 -0.09 0.44 -0.89 0.03
1 6.26 626 2.337 -6.910 5.703 8.881 -29.907 2.747 -899.864 -1889.969 -3749.957 -0.901 -0.870 0.080 -0.1 0.44 -0.89 0.03
1 6.27 627 2.054 -6.115 5.713 -2.472 -29.175 7.599 -794.932 -1904.959 -3734.967 -0.590 -1.658 0.074 -0.1 0.44 -0.89 0.03
1 6.28 628 1.848 -5.287 5.674 -21.637 -36.286 12.329 -899.864 -1919.949 -3674.856 -0.366 -2.490 0.102 -0.1 0.44 -0.89 0.03
1 6.29 629 1.700 -4.616 5.564 -35.156 -43.884 14.313 -899.864 -1919.949 -3674.856 -0.200 -3.178 0.184 -0.1 0.44 -0.89 0.03
1 6.30 630 1.748 -4.319 5.914 -46.387 -49.408 14.832 -944.984 -1859.988 -3704.986 -0.227 -3.505 -0.212 -0.11 0.45 -0.89 0.04
1 6.31 631 1.662 -3.960 6.086 -56.824 -49.622 10.620 -989.955 -1904.959 -3704.986 -0.088 -3.952 -0.522 -0.11 0.45 -0.88 0.04
1 6.32 632 1.686 -4.089 6.278 -58.014 -41.840 6.104 -989.955 -1904.959 -3704.986 -0.082 -3.872 -0.793 -0.11 0.46 -0.88 0.04
1 6.33 633 1.839 -4.267 6.302 -53.894 -28.046 -1.160 -929.994 -1889.969 -3599.905 -0.208 -3.743 -0.895 -0.12 0.46 -0.88 0.04
1 6.34 634 1.868 -5.038 6.532 -45.502 -7.080 -9.949 -1034.926 -1799.877 -3599.905 -0.213 -3.013 -1.194 -0.12 0.46 -0.88 0.04
1 6.35 635 1.724 -6.838 6.709 -26.428 38.696 -25.940 -974.965 -1889.969 -3749.957 -0.053 -1.244 -1.424 -0.12 0.46 -0.88 0.04
1 6.36 636 1.197 -8.782 6.967 -8.087 75.531 -37.537 -974.965 -1889.969 -3749.957 0.479 0.687 -1.704 -0.12 0.47 -0.88 0.04
1 6.37 637 0.172 -10.966 6.943 14.557 102.112 -41.321 -1079.896 -1574.874 -3644.875 1.493 2.877 -1.667 -0.12 0.47 -0.88 0.04
1 6.38 638 -1.743 -12.431 7.054 37.079 72.205 -23.499 -1094.887 -1709.936 -3584.915 3.345 4.396 -1.677 -0.11 0.46 -0.88 0.02
1 6.39 639 -2.581 -11.426 7.561 23.926 11.810 -11.841 -1094.887 -1709.936 -3584.915 4.159 3.425 -2.126 -0.1 0.46 -0.88 0.02
1 6.40 640 -2.059 -10.133 7.939 -11.780 -48.767 -4.517 -1004.945 -1694.946 -3644.875 3.653 2.149 -2.484 -0.1 0.46 -0.88 0.02
1 6.41 641 -0.948 -9.213 7.748 -45.441 -86.426 1.068 -1004.945 -1694.946 -3644.875 2.597 1.214 -2.332 -0.11 0.46 -0.88 0.02
1 6.42 642 0.508 -8.514 6.829 -52.429 -90.424 4.089 -899.864 -1769.897 -3599.905 1.214 0.474 -1.496 -0.11 0.46 -0.88 0.03
1 6.43 643 1.039 -8.141 6.168 -26.611 -67.108 4.272 -899.864 -1769.897 -3599.905 0.754 0.056 -0.927 -0.12 0.47 -0.88 0.03
1 6.44 644 1.226 -7.820 5.243 11.719 -36.408 3.998 -1154.998 -1694.946 -3719.977 0.617 -0.291 -0.062 -0.13 0.47 -0.87 0.03
1 6.45 645 1.020 -7.303 4.520 65.216 1.953 6.256 -1139.857 -1709.936 -3554.934 0.850 -0.773 0.707 -0.13 0.47 -0.87 0.04
1 6.46 646 0.690 -7.073 4.180 83.222 13.550 10.071 -1139.857 -1709.936 -3554.934 1.167 -0.947 1.137 -0.13 0.46 -0.88 0.04
1 6.47 647 0.527 -6.919 4.453 84.442 14.801 16.052 -1184.978 -1499.923 -3539.944 1.305 -1.033 0.973 -0.13 0.46 -0.88 0.04
1 6.48 648 0.321 -6.919 4.932 70.862 9.430 21.393 -1184.978 -1499.923 -3539.944 1.478 -0.968 0.599 -0.12 0.45 -0.88 0.04
1 6.49 649 0.225 -7.173 5.512 45.807 2.167 25.848 -1079.896 -1799.877 -3599.905 1.541 -0.663 0.102 -0.12 0.45 -0.89 0.04
1 6.50 650 0.354 -7.432 6.206 -0.671 -7.965 28.320 -1079.896 -1799.877 -3599.905 1.370 -0.378 -0.542 -0.12 0.44 -0.89 0.05
1 6.51 651 0.393 -7.389 6.048 -29.480 -13.397 28.900 -1154.998 -1799.877 -3494.973 1.294 -0.420 -0.371 -0.12 0.44 -0.89 0.05
1 6.52 652 0.445 -7.513 5.837 -54.688 -21.118 24.201 -1109.877 -1919.949 -3719.977 1.183 -0.363 -0.238 -0.12 0.45 -0.88 0.05
1 6.53 653 0.565 -7.647 5.588 -56.030 -23.316 21.973 -1109.877 -1919.949 -3719.977 1.047 -0.280 -0.057 -0.12 0.45 -0.88 0.06
1 6.54 654 0.848 -8.050 5.129 -37.903 -27.649 18.494 -1019.936 -1859.988 -3734.967 0.756 0.076 0.338 -0.12 0.45 -0.88 0.06
1 6.55 655 1.087 -8.174 5.129 -11.353 -26.550 21.240 -1019.936 -1859.988 -3734.967 0.511 0.169 0.293 -0.12 0.46 -0.88 0.06
1 6.56 656 1.437 -8.327 5.105 18.738 -22.430 26.672 -1184.978 -1724.926 -3674.856 0.152 0.312 0.306 -0.12 0.46 -0.88 0.06
1 6.57 657 1.532 -7.963 5.287 55.481 -13.763 33.661 -1184.978 -1724.926 -3674.856 0.039 -0.038 0.149 -0.12 0.46 -0.88 0.06
1 6.58 658 1.638 -7.695 5.397 67.597 -7.355 36.896 -1154.998 -1769.897 -3569.924 -0.093 -0.272 0.097 -0.12 0.45 -0.88 0.07
1 6.59 659 1.547 -7.221 5.469 67.230 0.702 37.384 -1064.906 -1709.936 -3509.963 -0.037 -0.699 0.102 -0.12 0.45 -0.88 0.07
1 6.60 660 1.221 -6.747 5.421 46.753 14.099 34.485 -1064.906 -1709.936 -3509.963 0.199 -1.075 0.310 -0.12 0.44 -0.89 0.08
1 6.61 661 0.814 -6.728 5.124 23.651 21.729 30.090 -1094.887 -1829.858 -3734.967 0.554 -1.063 0.662 -0.12 0.44 -0.89 0.08
1 6.62 662 0.393 -6.647 4.813 -1.801 24.353 25.665 -1094.887 -1829.858 -3734.967 0.920 -1.134 1.000 -0.11 0.44 -0.89 0.08
1 6.63 663 -0.134 -6.982 4.415 -23.804 22.888 21.423 -1079.896 -1889.969 -3644.875 1.396 -0.809 1.394 -0.11 0.44 -0.89 0.08
1 6.64 664 -0.637 -7.499 3.831 -43.335 11.078 15.106 -989.955 -1904.959 -3704.986 1.856 -0.320 1.950 -0.11 0.44 -0.89 0.08
1 6.65 665 -1.020 -7.949 3.745 -42.999 -1.465 11.841 -1019.936 -1859.988 -3839.898 2.208 0.092 1.991 -0.11 0.44 -0.89 0.08
1 6.66 666 -0.996 -8.236 3.840 -35.919 -16.419 9.064 -944.984 -1859.988 -3659.866 2.168 0.339 1.843 -0.11 0.45 -0.89 0.08
1 6.67 667 -0.910 -8.447 4.061 -16.205 -39.765 6.378 -944.984 -1859.988 -3659.866 2.066 0.477 1.523 -0.11 0.45 -0.88 0.08
1 6.68 668 -0.469 -8.777 4.564 -0.885 -54.169 5.554 -1079.896 -1769.897 -3719.977 1.642 0.789 0.991 -0.11 0.45 -0.88 0.09
1 6.69 669 0.010 -8.777 5.023 12.451 -63.690 5.127 -1079.896 -1769.897 -3719.977 1.192 0.785 0.518 -0.11 0.45 -0.88 0.09
1 6.70 670 0.350 -8.892 5.425 24.170 -69.855 6.317 -1019.936 -1829.858 -3704.986 0.891 0.907 0.119 -0.12 0.45 -0.88 0.09
1 6.71 671 1.001 -8.744 5.856 32.196 -71.289 7.660 -1169.988 -1754.907 -3629.885 0.284 0.777 -0.296 -0.12 0.45 -0.88 0.09
1 6.72 672 1.551 -8.543 6.431 37.781 -68.634 8.942 -1034.926 -1799.877 -3749.957 -0.219 0.602 -0.844 -0.13 0.45 -0.88 0.1
1 6.73 673 2.035 -8.275 6.776 34.607 -62.500 9.613 -1139.857 -1859.988 -3659.866 -0.654 0.365 -1.156 -0.13 0.44 -0.88 0.1
1 6.74 674 2.155 -8.088 6.723 27.344 -51.911 10.071 -1139.857 -1859.988 -3659.866 -0.729 0.210 -1.072 -0.13 0.44 -0.88 0.1
1 6.75 675 2.255 -8.251 6.479 13.611 -29.694 11.719 -1274.919 -1829.858 -3659.866 -0.767 0.415 -0.784 -0.14 0.44 -0.88 0.11
1 6.76 676 2.184 -8.366 5.947 5.493 -13.489 13.397 -1274.919 -1829.858 -3659.866 -0.682 0.541 -0.241 -0.14 0.43 -0.88 0.11
1 6.77 677 2.050 -8.615 5.775 3.540 -0.671 15.259 -1304.900 -1844.998 -3719.977 -0.550 0.793 -0.065 -0.14 0.43 -0.88 0.11
1 6.78 678 1.815 -8.739 5.928 7.141 3.845 17.273 -1319.890 -1859.988 -3809.918 -0.331 0.917 -0.214 -0.14 0.43 -0.88 0.11
1 6.79 679 1.729 -8.974 6.163 17.700 2.594 20.599 -1304.900 -1844.998 -3719.977 -0.268 1.154 -0.439 -0.14 0.43 -0.88 0.11
1 6.80 680 1.896 -9.055 6.790 21.851 2.411 25.116 -1484.933 -1889.969 -3794.928 -0.461 1.245 -1.047 -0.14 0.43 -0.88 0.11
1 6.81 681 1.801 -8.935 7.183 14.099 4.456 30.975 -1484.933 -1889.969 -3794.928 -0.396 1.140 -1.412 -0.14 0.43 -0.88 0.11
1 6.82 682 1.772 -8.988 7.738 -8.301 14.618 41.168 -1319.890 -2054.861 -3764.947 -0.455 1.198 -1.940 -0.13 0.43 -0.88 0.12
1 6.83 683 1.695 -9.319 7.877 -15.411 30.121 46.906 -1319.890 -2054.861 -3764.947 -0.445 1.512 -2.087 -0.13 0.43 -0.88 0.12
1 6.84 684 1.154 -9.644 7.599 -18.799 41.748 48.615 -1319.890 -2009.891 -3764.947 0.010 1.815 -1.821 -0.13 0.43 -0.88 0.12
1 6.85 685 0.948 -9.984 7.030 -19.318 43.793 45.258 -1394.991 -1934.939 -3704.986 0.120 2.131 -1.266 -0.12 0.44 -0.88 0.12
1 6.86 686 0.321 -10.386 6.738 -14.679 36.591 35.553 -1184.978 -1844.998 -3824.908 0.656 2.510 -0.989 -0.12 0.44 -0.88 0.12
1 6.87 687 -0.029 -10.310 6.412 -10.559 28.320 28.687 -1259.929 -1889.969 -3854.889 0.928 2.415 -0.675 -0.11 0.44 -0.88 0.12
1 6.88 688 -0.306 -9.898 6.029 -3.387 15.411 20.477 -1259.929 -1889.969 -3854.889 1.142 1.990 -0.302 -0.11 0.44 -0.88 0.12
1 6.89 689 -0.431 -9.333 6.043 8.423 -5.371 8.911 -989.955 -1709.936 -3809.918 1.202 1.420 -0.314 -0.11 0.44 -0.88 0.12
1 6.90 690 -0.268 -8.385 5.952 10.590 -18.189 4.028 -989.955 -1709.936 -3809.918 1.038 0.480 -0.211 -0.11 0.44 -0.88 0.12
1 6.91 691 -0.239 -7.705 6.259 3.235 -27.313 0.732 -1094.887 -1829.858 -3989.951 1.016 -0.193 -0.508 -0.11 0.44 -0.88 0.13
1 6.92 692 -0.053 -7.101 6.508 -10.193 -31.036 -2.960 -1139.857 -1709.936 -3704.986 0.847 -0.793 -0.756 -0.11 0.44 -0.88 0.13
1 6.93 693 0.148 -6.690 6.469 -24.201 -29.846 -4.517 -1169.988 -1904.959 -3839.898 0.672 -1.212 -0.731 -0.11 0.44 -0.88 0.13
1 6.94 694 0.498 -6.134 6.287 -35.309 -26.672 -1.953 -1334.880 -1769.897 -3719.977 0.349 -1.784 -0.576 -0.11 0.44 -0.88 0.13
1 6.95 695 0.713 -5.684 6.192 -32.349 -25.665 1.404 -1334.880 -1769.897 -3719.977 0.156 -2.256 -0.514 -0.11 0.44 -0.88 0.13
1 6.96 696 0.900 -5.229 6.048 -17.334 -26.795 7.538 -1199.968 -1979.910 -3839.898 0.010 -2.762 -0.448 -0.12 0.45 -0.88 0.13
1 6.97 697 1.250 -4.932 5.794 -11.414 -27.588 9.369 -1199.968 -1979.910 -3839.898 -0.326 -3.071 -0.215 -0.12 0.45 -0.88 0.13
1 6.98 698 2.040 -4.631 5.900 5.951 -24.201 15.869 -1154.998 -1724.926 -3749.957 -1.108 -3.376 -0.326 -0.12 0.45 -0.88 0.13
1 6.99 699 2.528 -4.913 6.149 11.505 -14.008 19.348 -1184.978 -1769.897 -3719.977 -1.598 -3.088 -0.567 -0.12 0.45 -0.88 0.13
1 7.00 700 3.098 -5.703 6.421 9.186 14.862 20.447 -1199.968 -1589.864 -3839.898 -2.182 -2.290 -0.825 -0.12 0.45 -0.88 0.13
1 7.01 701 3.591 -6.560 6.694 1.801 38.300 18.402 -1334.880 -1919.949 -3824.908 -2.708 -1.426 -1.083 -0.12 0.45 -0.88 0.13
1 7.02 702 3.754 -7.580 6.781 -7.416 55.451 14.832 -1334.880 -1919.949 -3824.908 -2.903 -0.394 -1.148 -0.12 0.45 -0.88 0.13
1 7.03 703 3.529 -8.461 6.867 -14.710 61.829 9.247 -1229.949 -1694.946 -3749.957 -2.721 0.490 -1.224 -0.11 0.45 -0.88 0.13
1 7.04 704 2.873 -8.572 7.370 -17.273 44.098 -4.059 -1229.949 -1694.946 -3749.957 -2.183 0.574 -1.748 -0.1 0.45 -0.88 0.13
1 7.05 705 2.629 -8.145 7.738 -17.670 25.574 -15.625 -1079.896 -1769.897 -3719.977 -1.963 0.135 -2.133 -0.1 0.45 -0.88 0.12
1 7.06 706 2.222 -8.045 7.839 -20.844 12.299 -26.367 -1094.887 -1784.887 -3734.967 -1.551 0.021 -2.252 -0.1 0.45 -0.88 0.12
1 7.07 707 2.035 -7.987 7.489 -23.071 9.460 -33.722 -1094.887 -1784.887 -3734.967 -1.339 -0.051 -1.927 -0.1 0.45 -0.88 0.12
1 7.08 708 1.796 -7.925 6.330 -19.043 16.327 -41.840 -974.965 -1649.975 -3794.928 -1.064 -0.128 -0.794 -0.1 0.46 -0.88 0.12
1 7.09 709 1.532 -7.887 5.497 -8.728 20.783 -43.671 -974.965 -1649.975 -3794.928 -0.758 -0.175 0.020 -0.1 0.46 -0.88 0.11
1 7.10 710 1.585 -7.777 5.071 4.395 22.492 -43.457 -1109.877 -1574.874 -3749.957 -0.767 -0.286 0.439 -0.1 0.46 -0.88 0.11
1 7.11 711 1.662 -7.748 4.860 21.484 20.447 -38.880 -1109.877 -1574.874 -3749.957 -0.763 -0.290 0.674 -0.1 0.45 -0.88 0.1
1 7.12 712 1.815 -7.609 5.052 24.719 18.311 -33.936 -1034.926 -1574.874 -3644.875 -0.880 -0.404 0.512 -0.1 0.45 -0.88 0.1
1 7.13 713 2.021 -7.389 5.315 22.553 18.494 -28.839 -1154.998 -1769.897 -3854.889 -1.055 -0.598 0.281 -0.1 0.45 -0.88 0.09
1 7.14 714 2.126 -7.432 5.588 14.465 21.118 -24.536 -1154.998 -1769.897 -3854.889 -1.133 -0.531 0.037 -0.1 0.45 -0.88 0.09
1 7.15 715 2.073 -7.293 5.727 5.798 26.947 -20.660 -1109.877 -1724.926 -3674.856 -1.063 -0.653 -0.081 -0.1 0.45 -0.88 0.09
1 7.16 716 1.982 -7.259 5.430 -6.226 35.614 -16.907 -1109.877 -1724.926 -3674.856 -0.964 -0.677 0.228 -0.1 0.45 -0.88 0.08
1 7.17 717 1.657 -7.298 5.277 -11.292 37.232 -14.313 -1154.998 -1724.926 -3854.889 -0.637 -0.636 0.385 -0.1 0.45 -0.88 0.08
1 7.18 718 1.393 -7.259 5.038 -12.268 34.546 -12.787 -1154.998 -1724.926 -3854.889 -0.380 -0.678 0.619 -0.1 0.45 -0.88 0.08
1 7.19 719 0.943 -7.384 4.817 -8.209 22.919 -13.489 -1064.906 -1784.887 -3809.918 0.055 -0.568 0.822 -0.1 0.45 -0.88 0.08
1 7.20 720 0.795 -7.470 4.870 -0.732 12.146 -14.191 -1034.926 -1724.926 -3749.957 0.205 -0.485 0.765 -0.1 0.45 -0.88 0.07
1 7.21 721 0.555 -7.619 4.836 6.897 2.563 -15.137 -1034.926 -1724.926 -3749.957 0.453 -0.335 0.800 -0.09 0.45 -0.88 0.07
1 7.22 722 0.685 -7.652 5.076 12.573 -5.127 -15.228 -899.864 -1649.975 -3899.859 0.339 -0.292 0.570 -0.1 0.45 -0.88 0.07
1 7.23 723 0.848 -7.676 5.176 16.113 -10.498 -14.435 -899.864 -1649.975 -3899.859 0.198 -0.255 0.484 -0.1 0.45 -0.89 0.07
1 7.24 724 1.101 -7.628 5.387 16.113 -10.468 -13.123 -944.984 -1784.887 -3884.869 -0.031 -0.287 0.291 -0.1 0.45 -0.89 0.07
1 7.25 725 1.154 -7.623 5.200 16.388 -7.813 -11.841 -944.984 -1784.887 -3884.869 -0.058 -0.276 0.495 -0.1 0.45 -0.89 0.07
1 7.26 726 1.619 -7.643 5.129 16.632 -0.671 -10.925 -989.955 -1754.907 -3839.898 -0.480 -0.223 0.605 -0.1 0.44 -0.89 0.07
1 7.27 727 1.963 -7.719 5.119 13.397 6.714 -9.979 -1079.896 -1649.975 -3929.990 -0.809 -0.131 0.633 -0.1 0.44 -0.89 0.07
1 7.28 728 2.164 -7.700 5.133 8.453 15.350 -9.277 -1079.896 -1649.975 -3929.990 -0.999 -0.138 0.633 -0.1 0.44 -0.89 0.07
1 7.29 729 2.342 -7.686 5.090 3.387 26.367 -7.629 -899.864 -1724.926 -3899.859 -1.173 -0.144 0.686 -0.1 0.44 -0.89 0.06
1 7.30 730 2.275 -7.705 5.052 0.458 43.427 -5.585 -1094.887 -1754.907 -3989.951 -1.114 -0.122 0.731 -0.1 0.44 -0.89 0.06
1 7.31 731 2.093 -7.829 5.109 -0.305 50.720 -4.334 -1004.945 -1844.998 -3854.889 -0.951 0.004 0.678 -0.1 0.44 -0.89 0.06
1 7.32 732 1.748 -7.786 5.196 -3.784 54.260 -2.716 -1004.945 -1844.998 -3854.889 -0.635 -0.039 0.598 -0.09 0.44 -0.89 0.06
1 7.33 733 1.422 -7.604 5.239 -10.864 49.500 -3.204 -929.994 -1799.877 -4004.941 -0.384 -0.230 0.556 -0.09 0.44 -0.89 0.05
1 7.34 734 1.106 -7.762 5.153 -15.442 42.572 -4.059 -1094.887 -1754.907 -3884.869 -0.103 -0.082 0.635 -0.08 0.44 -0.89 0.05
1 7.35 735 0.958 -7.901 5.234 -17.365 34.180 -4.547 -1094.887 -1754.907 -3884.869 0.016 0.042 0.539 -0.08 0.45 -0.89 0.05
1 7.36 736 0.848 -7.848 5.258 -17.365 26.428 -4.944 -869.883 -1679.956 -3944.980 0.104 -0.027 0.496 -0.08 0.45 -0.89 0.05
1 7.37 737 0.948 -8.160 5.454 -14.923 18.433 -5.219 -779.942 -1799.877 -4049.912 -0.011 0.269 0.282 -0.08 0.45 -0.89 0.05
1 7.38 738 1.063 -8.691 5.636 -8.362 9.979 -7.355 -794.932 -1784.887 -3915.000 -0.134 0.788 0.084 -0.08 0.45 -0.89 0.05
1 7.39 739 1.073 -8.773 5.794 -3.845 7.111 -7.507 -794.932 -1784.887 -3915.000 -0.145 0.861 -0.086 -0.08 0.45 -0.89 0.05
1 7.40 740 1.140 -8.883 5.823 2.472 5.829 -6.287 -929.994 -1844.998 -3974.960 -0.205 0.966 -0.123 -0.08 0.45 -0.89 0.04
1 7.41 741 1.279 -9.055 5.876 5.524 6.348 -4.883 -929.994 -1844.998 -4004.941 -0.341 1.142 -0.172 -0.08 0.45 -0.89 0.04
1 7.42 742 1.326 -8.897 5.751 8.789 7.660 -0.519 -929.994 -1844.998 -4004.941 -0.390 0.990 -0.038 -0.08 0.45 -0.89 0.04
1 7.43 743 1.413 -8.686 5.742 12.146 8.392 1.770 -749.961 -1769.897 -3929.990 -0.481 0.786 -0.018 -0.08 0.45 -0.89 0.04
1 7.44 744 1.307 -8.648 5.492 14.069 8.881 2.686 -764.952 -1679.956 -3884.869 -0.382 0.758 0.245 -0.08 0.45 -0.89 0.04
1 7.45 745 1.518 -8.562 5.272 14.587 6.836 0.397 -794.932 -1784.887 -4019.931 -0.600 0.682 0.481 -0.07 0.45 -0.89 0.04
1 7.46 746 1.518 -8.600 5.291 13.550 5.005 -4.303 -794.932 -1784.887 -4019.931 -0.605 0.731 0.477 -0.07 0.45 -0.89 0.04
1 7.47 747 1.461 -8.629 5.497 12.482 1.190 -8.667 -839.903 -1754.907 -3884.869 -0.544 0.770 0.285 -0.07 0.45 -0.89 0.04
1 7.48 748 1.350 -8.370 6.718 14.099 -6.439 -12.787 -914.854 -1829.858 -4064.902 -0.401 0.533 -0.912 -0.08 0.45 -0.89 0.04
1 7.49 749 1.384 -8.394 7.561 15.106 -5.524 -15.808 -914.854 -1829.858 -4064.902 -0.411 0.573 -1.737 -0.08 0.44 -0.89 0.04
1 7.50 750 1.240 -8.361 8.184 11.200 -1.678 -17.273 -734.971 -1754.907 -3884.869 -0.243 0.556 -2.341 -0.08 0.44 -0.89 0.04
1 7.51 751 0.872 -8.332 8.169 -3.876 3.876 -20.447 -749.961 -1769.897 -3929.990 0.148 0.539 -2.316 -0.08 0.44 -0.89 0.04
1 7.52 752 0.431 -8.931 7.609 -41.718 5.005 -28.229 -690.000 -1709.936 -3915.000 0.611 1.133 -1.765 -0.08 0.44 -0.89 0.04
1 7.53 753 0.431 -9.711 6.685 -60.761 1.678 -24.628 -690.000 -1709.936 -3915.000 0.640 1.887 -0.881 -0.08 0.44 -0.89 0.04
1 7.54 754 0.685 -10.209 5.976 -56.000 -2.808 -17.273 -779.942 -1799.877 -4004.941 0.415 2.340 -0.239 -0.08 0.45 -0.89 0.03
1 7.55 755 0.814 -10.252 5.301 -5.737 -4.181 -5.493 -779.942 -1799.877 -3974.960 0.330 2.310 0.324 -0.08 0.45 -0.89 0.03
1 7.56 756 0.852 -9.501 5.167 28.229 -8.209 0.702 -779.942 -1799.877 -3974.960 0.301 1.562 0.463 -0.08 0.45 -0.89 0.03
1 7.57 757 0.929 -8.500 5.320 43.091 -16.327 4.852 -690.000 -1784.887 -4094.882 0.231 0.591 0.350 -0.08 0.45 -0.89 0.03
1 7.58 758 1.030 -7.633 5.607 38.361 -27.100 5.737 -704.991 -1619.995 -3899.859 0.139 -0.242 0.107 -0.08 0.45 -0.89 0.03
1 7.59 759 1.216 -6.512 5.871 12.878 -40.314 7.477 -704.991 -1724.926 -3929.990 -0.030 -1.333 -0.119 -0.09 0.45 -0.89 0.03
1 7.60 760 1.274 -6.005 6.058 -8.179 -47.791 9.583 -704.991 -1724.926 -3929.990 -0.061 -1.823 -0.287 -0.09 0.44 -0.89 0.04
1 7.61 761 1.298 -5.684 5.928 -30.151 -53.345 10.712 -824.913 -1844.998 -3929.990 -0.055 -2.145 -0.166 -0.09 0.44 -0.89 0.04
1 7.62 762 1.307 -5.397 6.072 -49.164 -60.242 12.268 -989.955 -1754.907 -4064.902 -0.030 -2.455 -0.349 -0.09 0.45 -0.89 0.04
1 7.63 763 1.652 -5.176 6.364 -72.968 -71.503 11.108 -989.955 -1754.907 -4064.902 -0.294 -2.771 -0.793 -0.1 0.45 -0.88 0.05
1 7.64 764 1.920 -5.196 6.618 -82.062 -74.372 9.430 -899.864 -1724.926 -4049.912 -0.513 -2.817 -1.154 -0.11 0.46 -0.88 0.05
1 7.65 765 2.265 -5.358 6.843 -83.832 -72.052 5.341 -1034.926 -1694.946 -4049.912 -0.806 -2.724 -1.497 -0.11 0.46 -0.88 0.05
1 7.66 766 2.504 -5.631 7.087 -77.271 -62.134 -0.488 -974.965 -1574.874 -3929.990 -0.989 -2.512 -1.850 -0.12 0.47 -0.87 0.05
1 7.67 767 2.840 -6.546 7.604 -49.103 -26.611 -10.437 -974.965 -1574.874 -3929.990 -1.267 -1.642 -2.453 -0.12 0.47 -0.87 0.05
1 7.68 768 2.811 -7.690 7.887 -21.790 12.146 -19.440 -1034.926 -1544.894 -3854.889 -1.192 -0.524 -2.793 -0.12 0.47 -0.87 0.05
1 7.69 769 2.270 -8.983 7.992 8.453 55.145 -27.496 -1244.939 -1364.861 -3809.918 -0.625 0.759 -2.924 -0.12 0.48 -0.87 0.05
1 7.70 770 0.929 -10.578 7.346 41.321 94.666 -29.999 -1244.939 -1364.861 -3809.918 0.690 2.392 -2.207 -0.12 0.47 -0.87 0.04
1 7.71 771 -0.201 -10.650 6.599 43.945 84.137 -24.506 -1064.906 -1409.981 -3839.898 1.782 2.506 -1.381 -0.11 0.47 -0.87 0.04
1 7.72 772 -0.972 -10.022 6.316 30.335 47.638 -19.959 -1019.936 -1484.933 -3915.000 2.521 1.919 -1.028 -0.11 0.47 -0.88 0.04
1 7.73 773 -1.264 -9.103 6.086 5.219 1.678 -18.707 -1019.936 -1484.933 -3915.000 2.808 1.025 -0.757 -0.11 0.47 -0.88 0.03
1 7.74 774 -0.450 -8.265 6.216 -35.095 -47.455 -17.242 -929.994 -1574.874 -3974.960 2.024 0.190 -0.890 -0.11 0.47 -0.88 0.03
1 7.75 775 0.043 -8.083 6.086 -46.448 -55.725 -14.618 -1064.906 -1784.887 -3989.951 1.578 -0.010 -0.803 -0.11 0.47 -0.88 0.03
1 7.76 776 0.479 -7.906 5.828 -42.420 -47.882 -13.336 -1139.857 -1589.864 -3944.980 1.190 -0.218 -0.607 -0.12 0.47 -0.87 0.03
1 7.77 777 0.690 -7.892 5.445 -9.949 -17.487 -9.369 -1139.857 -1589.864 -3944.980 1.058 -0.279 -0.323 -0.12 0.47 -0.87 0.04
1 7.78 778 0.464 -7.805 5.186 15.961 3.021 -6.653 -1064.906 -1559.884 -3809.918 1.296 -0.364 -0.067 -0.12 0.47 -0.87 0.04
1 7.79 779 0.254 -7.801 5.047 38.025 17.975 -3.174 -1079.896 -1544.894 -3899.859 1.501 -0.349 0.105 -0.12 0.47 -0.87 0.04
1 7.80 780 -0.034 -7.858 4.985 50.903 24.262 2.289 -1079.896 -1544.894 -3899.859 1.766 -0.258 0.228 -0.12 0.47 -0.87 0.04
1 7.81 781 -0.316 -7.983 5.009 50.202 23.560 7.019 -1199.968 -1409.981 -3839.898 2.013 -0.094 0.276 -0.12 0.47 -0.88 0.04
1 7.82 782 -0.508 -7.916 5.368 29.602 11.902 13.855 -1229.949 -1499.923 -3749.957 2.163 -0.125 -0.016 -0.12 0.46 -0.88 0.04
1 7.83 783 -0.421 -7.987 5.607 7.202 -0.580 17.609 -1184.978 -1424.972 -3929.990 2.035 -0.030 -0.207 -0.11 0.46 -0.88 0.04
1 7.84 784 -0.287 -7.963 5.483 -23.132 -20.477 20.844 -1184.978 -1424.972 -3929.990 1.833 -0.061 -0.073 -0.11 0.46 -0.88 0.04
1 7.85 785 -0.101 -7.997 5.445 -29.389 -26.733 22.278 -1109.877 -1694.946 -3929.990 1.626 -0.054 -0.070 -0.11 0.46 -0.88 0.04
1 7.86 786 0.579 -8.126 5.267 -31.860 -37.201 23.010 -974.965 -1649.975 -4004.941 0.935 0.042 0.061 -0.11 0.46 -0.88 0.05
1 7.87 787 0.747 -8.121 4.994 -18.616 -38.788 24.262 -974.965 -1649.975 -4004.941 0.762 0.008 0.291 -0.11 0.47 -0.88 0.05
1 7.88 788 1.164 -7.987 4.836 2.777 -35.706 25.665 -1064.906 -1439.962 -3989.951 0.341 -0.143 0.424 -0.12 0.47 -0.87 0.05
1 7.89 789 1.494 -7.906 4.755 36.896 -26.062 29.663 -1034.926 -1619.995 -4004.941 0.003 -0.224 0.508 -0.12 0.47 -0.87 0.06
1 7.90 790 1.609 -7.686 4.808 52.094 -17.731 33.112 -1034.926 -1649.975 -3899.859 -0.126 -0.425 0.489 -0.12 0.46 -0.88 0.06
1 7.91 791 1.724 -7.576 4.822 55.664 -11.322 35.095 -1034.926 -1649.975 -3899.859 -0.264 -0.503 0.530 -0.12 0.46 -0.88 0.06
1 7.92 792 1.614 -7.087 4.951 42.725 -4.242 35.797 -1139.857 -1634.985 -3884.869 -0.217 -0.917 0.527 -0.12 0.45 -0.88 0.07
1 7.93 793 1.575 -6.833 4.894 27.222 -0.366 33.630 -1199.968 -1559.884 -3915.000 -0.219 -1.144 0.634 -0.12 0.45 -0.88 0.07
1 7.94 794 1.279 -6.824 4.875 10.284 1.678 28.961 -1199.968 -1559.884 -3915.000 0.038 -1.140 0.683 -0.11 0.45 -0.88 0.07
1 7.95 795 1.077 -6.982 4.789 -6.073 3.723 23.529 -1169.988 -1634.985 -4019.931 0.204 -0.981 0.778 -0.11 0.45 -0.88 0.08
1 7.96 796 0.632 -7.331 4.530 -25.299 3.571 14.710 -1094.887 -1559.884 -4019.931 0.620 -0.643 1.027 -0.11 0.45 -0.88 0.08
1 7.97 797 0.345 -7.714 4.487 -29.633 2.411 8.667 -944.984 -1829.858 -4064.902 0.885 -0.282 1.044 -0.11 0.45 -0.88 0.08
1 7.98 798 0.014 -8.236 4.540 -27.527 -0.580 3.937 -944.984 -1829.858 -4064.902 1.198 0.214 0.956 -0.11 0.46 -0.88 0.08
1 7.99 799 -0.206 -8.844 4.626 -14.374 -7.629 -1.831 -1079.896 -1619.995 -3974.960 1.400 0.772 0.801 -0.11 0.46 -0.88 0.08
1 8.00 800 -0.369 -8.998 4.937 -2.106 -15.717 -3.357 -1004.945 -1499.923 -3929.990 1.564 0.912 0.470 -0.11 0.46 -0.88 0.08
1 8.01 801 -0.239 -9.156 5.267 8.118 -24.811 -3.448 -1004.945 -1499.923 -3929.990 1.443 1.067 0.133 -0.11 0.46 -0.88 0.08
1 8.02 802 -0.134 -9.108 5.612 15.411 -33.081 -2.289 -1019.936 -1559.884 -3915.000 1.352 1.025 -0.207 -0.11 0.46 -0.88 0.08
1 8.03 803 0.105 -9.055 5.871 19.196 -40.039 0.122 -1079.896 -1499.923 -3974.960 1.133 0.984 -0.453 -0.11 0.46 -0.88 0.08
1 8.04 804 0.646 -8.974 6.038 19.745 -42.236 3.906 -1169.988 -1559.884 -3989.951 0.620 0.918 -0.604 -0.12 0.46 -0.88 0.08
1 8.05 805 1.020 -8.830 6.081 17.975 -41.077 6.042 -1169.988 -1559.884 -3989.951 0.278 0.791 -0.629 -0.12 0.46 -0.88 0.08
1 8.06 806 1.293 -8.447 6.192 15.533 -38.300 9.369 -1229.949 -1544.894 -4049.912 0.034 0.424 -0.723 -0.12 0.45 -0.88 0.09
1 8.07 807 1.465 -8.284 6.034 12.329 -32.501 12.878 -1259.929 -1619.995 -4004.941 -0.104 0.285 -0.538 -0.12 0.45 -0.88 0.09
1 8.08 808 1.475 -8.059 5.679 12.268 -26.795 14.893 -1259.929 -1619.995 -4004.941 -0.104 0.069 -0.173 -0.13 0.45 -0.88 0.09
1 8.09 809 1.604 -7.968 5.550 15.656 -19.806 16.968 -1169.988 -1634.985 -3989.951 -0.230 -0.012 -0.031 -0.13 0.45 -0.88 0.09
1 8.10 810 1.484 -8.083 5.215 19.989 -10.376 18.005 -1304.900 -1649.975 -4049.912 -0.115 0.114 0.323 -0.13 0.45 -0.88 0.09
1 8.11 811 1.307 -8.409 5.057 25.787 4.486 20.630 -1229.949 -1649.975 -4049.912 0.048 0.454 0.504 -0.13 0.45 -0.88 0.1
1 8.12 812 1.130 -8.624 4.889 25.787 14.221 21.942 -1229.949 -1649.975 -4049.912 0.200 0.686 0.701 -0.13 0.45 -0.88 0.1
1 8.13 813 0.723 -9.046 4.923 22.339 20.477 22.186 -1334.880 -1619.995 -3974.960 0.571 1.122 0.698 -0.12 0.44 -0.88 0.1
1 8.14 814 0.225 -9.433 4.942 11.536 18.951 22.461 -1154.998 -1694.946 -4109.873 0.974 1.528 0.724 -0.12 0.44 -0.88 0.1
1 8.15 815 -0.287 -9.568 5.368 2.747 11.169 23.407 -1154.998 -1694.946 -4109.873 1.437 1.660 0.305 -0.12 0.44 -0.88 0.1
1 8.16 816 -0.560 -9.381 6.144 -5.951 -2.045 25.818 -1109.877 -1694.946 -4154.993 1.669 1.466 -0.472 -0.12 0.44 -0.88 0.1
1 8.17 817 -0.474 -9.285 6.714 -10.071 -15.869 27.466 -1109.877 -1694.946 -4154.993 1.556 1.361 -1.050 -0.11 0.44 -0.88 0.1
1 8.18 818 0.029 -9.587 7.240 -6.836 -29.877 33.173 -1244.939 -1709.936 -3989.951 1.036 1.650 -1.592 -0.11 0.45 -0.88 0.11
1 8.19 819 0.876 -10.032 7.264 -3.265 -33.569 39.765 -1244.939 -1709.936 -3989.951 0.174 2.084 -1.628 -0.12 0.45 -0.88 0.11
1 8.20 820 1.767 -10.329 7.379 -2.899 -31.098 47.028 -1259.929 -1724.926 -4184.974 -0.734 2.372 -1.752 -0.12 0.45 -0.88 0.11
1 8.21 821 2.480 -10.142 7.082 5.951 -8.484 53.497 -1304.900 -1649.975 -4184.974 -1.518 2.170 -1.465 -0.12 0.45 -0.88 0.12
1 8.22 822 2.251 -9.673 6.508 22.278 11.475 50.690 -1304.900 -1649.975 -4184.974 -1.350 1.702 -0.878 -0.11 0.45 -0.88 0.12
1 8.23 823 1.628 -9.079 5.938 40.650 21.576 44.129 -1169.988 -1634.985 -3944.980 -0.800 1.126 -0.272 -0.11 0.45 -0.88 0.12
1 8.24 824 1.183 -8.572 5.627 49.896 21.637 33.936 -1169.988 -1634.985 -3944.980 -0.424 0.653 0.097 -0.11 0.44 -0.88 0.13
1 8.25 825 0.651 -8.246 5.612 39.765 12.238 24.841 -1154.998 -1724.926 -4154.993 0.057 0.365 0.170 -0.1 0.44 -0.88 0.13
1 8.26 826 0.690 -7.753 6.134 -0.763 -5.829 11.017 -1154.998 -1724.926 -4154.993 -0.016 -0.102 -0.312 -0.1 0.44 -0.88 0.13
1 8.27 827 0.747 -7.676 6.369 -24.445 -12.665 3.510 -1229.949 -1799.877 -4109.873 -0.087 -0.173 -0.539 -0.1 0.44 -0.88 0.13
1 8.28 828 0.728 -7.068 6.278 -40.070 -13.733 -4.791 -1064.906 -1829.858 -4199.964 -0.049 -0.823 -0.506 -0.1 0.44 -0.88 0.13
1 8.29 829 0.713 -6.987 6.053 -41.657 -13.519 -7.690 -1064.906 -1829.858 -4199.964 -0.014 -0.935 -0.326 -0.11 0.44 -0.88 0.13
1 8.30 830 0.867 -6.326 6.010 -40.070 -15.076 -14.191 -989.955 -1754.907 -4139.853 -0.140 -1.626 -0.328 -0.11 0.45 -0.88 0.13
1 8.31 831 0.843 -5.799 5.823 -35.339 -14.618 -15.137 -989.955 -1754.907 -4139.853 -0.083 -2.182 -0.187 -0.11 0.45 -0.88 0.13
1 8.32 832 1.020 -5.492 5.909 -29.053 -12.787 -13.428 -1229.949 -1619.995 -4109.873 -0.230 -2.515 -0.315 -0.11 0.45 -0.88 0.12
1 8.33 833 1.389 -4.937 5.780 -18.127 -5.463 -4.791 -1229.949 -1619.995 -4109.873 -0.573 -3.091 -0.219 -0.11 0.45 -0.88 0.12
1 8.34 834 1.681 -4.750 5.971 -14.160 3.540 1.648 -1229.949 -1649.975 -4079.892 -0.850 -3.293 -0.435 -0.11 0.45 -0.88 0.12
1 8.35 835 2.073 -4.947 6.105 -14.557 18.799 7.568 -1274.919 -1589.864 -4094.882 -1.243 -3.109 -0.586 -0.11 0.45 -0.88 0.12
1 8.36 836 2.514 -5.785 6.441 -23.224 54.169 14.740 -1274.919 -1589.864 -4094.882 -1.746 -2.298 -0.952 -0.11 0.46 -0.88 0.12
1 8.37 837 2.500 -6.733 6.594 -31.281 80.719 16.907 -1229.949 -1649.975 -4109.873 -1.795 -1.367 -1.122 -0.1 0.46 -0.87 0.12
1 8.38 838 2.375 -7.916 6.412 -37.567 102.021 16.937 -1229.949 -1649.975 -4109.873 -1.749 -0.204 -0.961 -0.1 0.46 -0.87 0.11
1 8.39 839 2.011 -9.237 6.417 -38.513 107.209 14.008 -1064.906 -1439.962 -4094.882 -1.478 1.091 -0.995 -0.09 0.46 -0.87 0.11
1 8.40 840 0.977 -10.056 6.623 -24.872 75.897 3.418 -1094.887 -1679.956 -4139.853 -0.547 1.879 -1.239 -0.08 0.47 -0.87 0.11
1 8.41 841 0.532 -9.836 7.068 -12.848 37.018 -9.430 -944.984 -1484.933 -4094.882 -0.177 1.636 -1.713 -0.08 0.47 -0.87 0.1
1 8.42 842 0.316 -9.381 7.480 -3.937 0.427 -21.912 -869.883 -1409.981 -4094.882 0.008 1.169 -2.141 -0.07 0.47 -0.87 0.1
1 8.43 843 0.359 -8.385 7.221 5.096 -30.792 -36.621 -869.883 -1409.981 -4094.882 0.035 0.174 -1.885 -0.08 0.47 -0.87 0.1
1 8.44 844 0.469 -8.088 6.833 8.301 -34.607 -42.145 -929.994 -1574.874 -4229.944 0.001 -0.114 -1.491 -0.08 0.47 -0.87 0.1
1 8.45 845 0.666 -7.686 6.201 11.993 -31.128 -43.274 -929.994 -1574.874 -4229.944 -0.114 -0.502 -0.845 -0.08 0.47 -0.87 0.09
1 8.46 846 0.843 -7.537 5.641 19.013 -24.262 -40.131 -914.854 -1559.884 -4019.931 -0.212 -0.630 -0.262 -0.09 0.47 -0.88 0.09
1 8.47 847 1.173 -7.322 5.167 25.360 -18.341 -33.203 -944.984 -1634.985 -4094.882 -0.473 -0.821 0.241 -0.09 0.46 -0.88 0.09
1 8.48 848 1.714 -7.087 4.726 28.778 -11.688 -17.792 -1019.936 -1589.864 -4139.853 -0.958 -1.028 0.716 -0.09 0.46 -0.88 0.09
1 8.49 849 2.217 -6.996 4.918 23.193 -6.317 -7.172 -944.984 -1679.956 -4064.902 -1.424 -1.091 0.560 -0.09 0.46 -0.88 0.09
1 8.50 850 2.639 -6.886 5.229 15.991 1.465 0.488 -944.984 -1679.956 -4064.902 -1.826 -1.178 0.280 -0.09 0.46 -0.88 0.09
1 8.51 851 3.280 -6.972 5.627 7.446 18.463 2.930 -1034.926 -1424.972 -4154.993 -2.449 -1.061 -0.075 -0.09 0.46 -0.88 0.09
1 8.52 852 3.069 -7.049 5.976 2.625 29.877 0.061 -1034.926 -1424.972 -4154.993 -2.242 -0.974 -0.410 -0.09 0.46 -0.88 0.09
1 8.53 853 2.753 -7.250 5.962 -2.869 37.293 -4.334 -974.965 -1694.946 -4154.993 -1.934 -0.766 -0.384 -0.09 0.46 -0.88 0.08
1 8.54 854 2.260 -7.441 5.799 -7.202 38.696 -8.972 -1109.877 -1574.874 -4049.912 -1.451 -0.572 -0.216 -0.09 0.46 -0.88 0.08
1 8.55 855 1.614 -7.523 5.387 -13.092 28.534 -14.832 -974.965 -1769.897 -4229.944 -0.812 -0.493 0.194 -0.09 0.46 -0.88 0.08
1 8.56 856 1.235 -7.585 5.291 -13.611 15.411 -19.074 -1004.945 -1619.995 -4229.944 -0.434 -0.436 0.282 -0.09 0.46 -0.88 0.08
1 8.57 857 1.087 -7.738 5.138 -10.010 0.092 -24.353 -1004.945 -1619.995 -4229.944 -0.273 -0.291 0.422 -0.09 0.46 -0.88 0.07
1 8.58 858 0.991 -7.906 5.272 2.533 -17.639 -30.823 -974.965 -1544.894 -4184.974 -0.104 -0.128 0.269 -0.09 0.46 -0.88 0.07
1 8.59 859 1.221 -8.126 5.622 10.407 -20.844 -32.745 -974.965 -1544.894 -4184.974 -0.278 0.101 -0.077 -0.09 0.46 -0.88 0.07
1 8.60 860 1.360 -8.083 5.804 17.334 -17.242 -31.799 -974.965 -1619.995 -4079.892 -0.358 0.074 -0.246 -0.09 0.46 -0.88 0.07
1 8.61 861 1.508 -8.040 6.038 20.142 -8.484 -28.717 -1004.945 -1619.995 -4154.993 -0.453 0.053 -0.459 -0.09 0.45 -0.88 0.07
1 8.62 862 1.743 -7.935 5.775 19.470 10.071 -22.705 -1034.926 -1769.897 -4109.873 -0.645 -0.028 -0.169 -0.1 0.45 -0.88 0.06
1 8.63 863 1.896 -7.724 5.464 17.883 22.156 -18.402 -944.984 -1559.884 -4169.983 -0.771 -0.216 0.170 -0.1 0.45 -0.89 0.06
1 8.64 864 1.978 -7.705 5.243 16.937 32.959 -16.113 -944.984 -1559.884 -4169.983 -0.841 -0.213 0.418 -0.1 0.45 -0.89 0.06
1 8.65 865 2.217 -7.643 4.841 16.754 43.915 -13.092 -1004.945 -1649.975 -4184.974 -1.089 -0.240 0.872 -0.09 0.45 -0.89 0.06
1 8.66 866 2.184 -7.729 4.817 16.815 47.150 -10.407 -1004.945 -1649.975 -4184.974 -1.071 -0.137 0.921 -0.09 0.45 -0.89 0.05
1 8.67 867 2.102 -7.724 4.975 16.693 47.486 -9.277 -1154.998 -1574.874 -4184.974 -1.010 -0.127 0.788 -0.09 0.45 -0.89 0.05
1 8.68 868 1.987 -7.542 4.971 14.282 44.678 -6.500 -899.864 -1649.975 -4109.873 -0.917 -0.294 0.817 -0.09 0.44 -0.89 0.05
1 8.69 869 1.762 -7.461 5.057 11.444 40.466 -5.737 -794.932 -1754.907 -4319.886 -0.716 -0.362 0.752 -0.08 0.44 -0.89 0.05
1 8.70 870 1.623 -7.145 5.191 6.317 34.577 -6.287 -839.903 -1634.985 -4274.915 -0.598 -0.669 0.635 -0.08 0.44 -0.89 0.04
1 8.71 871 1.508 -7.006 5.330 3.479 32.288 -7.874 -839.903 -1634.985 -4274.915 -0.501 -0.800 0.510 -0.08 0.44 -0.89 0.04
1 8.72 872 1.202 -7.049 5.253 -3.906 28.565 -13.031 -899.864 -1799.877 -4184.974 -0.220 -0.748 0.603 -0.08 0.44 -0.89 0.04
1 8.73 873 1.140 -7.327 5.215 -7.233 27.466 -15.137 -899.864 -1799.877 -4184.974 -0.163 -0.472 0.640 -0.07 0.44 -0.89 0.04
1 8.74 874 0.852 -7.667 5.181 -20.844 22.339 -19.348 -899.864 -1649.975 -4409.977 0.125 -0.142 0.660 -0.07 0.44 -0.89 0.04
1 8.75 875 0.910 -8.021 5.220 -27.222 19.470 -21.484 -659.870 -1784.887 -4244.935 0.072 0.195 0.597 -0.07 0.44 -0.89 0.03
1 8.76 876 1.010 -8.437 5.243 -28.442 19.898 -21.027 -749.961 -1889.969 -4289.905 -0.020 0.589 0.541 -0.07 0.45 -0.89 0.03
1 8.77 877 1.063 -8.830 5.430 -18.707 24.628 -17.609 -764.952 -1709.936 -4319.886 -0.065 0.958 0.321 -0.07 0.45 -0.89 0.03
1 8.78 878 1.010 -9.074 5.397 -8.820 28.809 -12.421 -764.952 -1709.936 -4319.886 -0.011 1.185 0.330 -0.07 0.45 -0.89 0.03
1 8.79 879 0.872 -9.113 5.397 0.824 33.630 -7.477 -584.919 -1634.985 -4274.915 0.122 1.213 0.317 -0.07 0.45 -0.89 0.02
1 8.80 880 0.685 -9.122 5.521 14.191 37.598 -0.275 -584.919 -1634.985 -4274.915 0.262 1.224 0.202 -0.07 0.45 -0.89 0.02
1 8.81 881 0.675 -9.352 5.344 18.829 34.882 1.770 -659.870 -1589.864 -4319.886 0.236 1.464 0.399 -0.06 0.45 -0.89 0.02
1 8.82 882 0.694 -9.295 5.287 20.447 28.565 2.563 -599.909 -1694.946 -4259.925 0.184 1.422 0.482 -0.06 0.45 -0.89 0.02
1 8.83 883 0.785 -9.366 5.153 18.005 17.609 1.892 -599.909 -1694.946 -4259.925 0.066 1.506 0.638 -0.06 0.45 -0.89 0.02
1 8.84 884 1.216 -9.620 5.363 11.047 -1.495 0.549 -734.971 -1784.887 -4319.886 -0.380 1.770 0.443 -0.06 0.45 -0.89 0.02
1 8.85 885 1.255 -9.524 5.751 6.226 -13.245 -0.824 -734.971 -1784.887 -4319.886 -0.420 1.682 0.066 -0.06 0.45 -0.89 0.02
1 8.86 886 1.427 -9.218 6.656 5.249 -22.949 -1.129 -704.991 -1724.926 -4154.993 -0.582 1.384 -0.830 -0.06 0.45 -0.89 0.02
1 8.87 887 1.666 -8.792 7.528 4.730 -23.651 -4.395 -704.991 -1724.926 -4154.993 -0.775 0.969 -1.692 -0.06 0.45 -0.89 0.02
1 8.88 888 1.537 -8.572 7.805 -0.336 -17.334 -7.477 -659.870 -1709.936 -4454.948 -0.620 0.754 -1.967 -0.06 0.45 -0.89 0.02
1 8.89 889 1.173 -8.155 7.518 -12.085 -9.644 -13.977 -584.919 -1634.985 -4349.866 -0.231 0.337 -1.684 -0.06 0.45 -0.89 0.02
1 8.90 890 0.666 -8.337 7.207 -27.588 -2.869 -21.729 -584.919 -1634.985 -4349.866 0.304 0.509 -1.391 -0.07 0.45 -0.89 0.02
1 8.91 891 0.603 -8.701 6.704 -40.619 2.411 -23.254 -690.000 -1679.956 -4349.866 0.395 0.849 -0.925 -0.07 0.45 -0.89 0.02
1 8.92 892 0.407 -9.429 5.986 -35.706 6.928 -18.555 -690.000 -1679.956 -4349.866 0.617 1.545 -0.256 -0.07 0.45 -0.89 0.02
1 8.93 893 0.383 -9.572 5.761 -15.228 8.026 -10.193 -674.860 -1799.877 -4289.905 0.660 1.658 -0.076 -0.07 0.45 -0.89 0.02
1 8.94 894 0.249 -9.266 5.665 8.118 2.533 -0.854 -674.860 -1799.877 -4289.905 0.802 1.336 -0.003 -0.07 0.45 -0.89 0.01
1 8.95 895 0.445 -8.346 5.818 23.743 -13.733 5.676 -674.860 -1499.923 -4334.876 0.603 0.436 -0.129 -0.07 0.45 -0.89 0.02
1 8.96 896 0.474 -7.633 6.134 19.592 -28.046 5.371 -614.899 -1754.907 -4349.866 0.578 -0.259 -0.420 -0.07 0.45 -0.89 0.02
1 8.97 897 0.623 -7.034 6.412 8.911 -42.206 6.378 -614.899 -1754.907 -4349.866 0.446 -0.841 -0.678 -0.07 0.45 -0.89 0.02
1 8.98 898 0.776 -6.417 6.426 -4.791 -54.077 6.378 -614.899 -1754.907 -4274.915 0.322 -1.451 -0.687 -0.07 0.45 -0.89 0.02
1 8.99 899 1.293 -5.756 6.431 -26.703 -69.519 9.674 -614.899 -1754.907 -4274.915 -0.155 -2.113 -0.702 -0.08 0.45 -0.89 0.02
1 9.00 900 1.652 -5.330 6.374 -43.183 -76.569 11.993 -764.952 -1754.907 -4349.866 -0.465 -2.552 -0.672 -0.08 0.45 -0.89 0.03
1 9.01 901 2.054 -5.014 6.268 -60.639 -80.719 14.099 -764.952 -1754.907 -4349.866 -0.815 -2.903 -0.627 -0.09 0.45 -0.89 0.03
1 9.02 902 2.557 -4.803 6.244 -78.400 -74.768 12.268 -839.903 -1634.985 -4454.948 -1.214 -3.226 -0.788 -0.1 0.46 -0.88 0.04
1 9.03 903 2.634 -5.014 6.326 -77.240 -56.397 6.439 -1094.887 -1559.884 -4319.886 -1.245 -3.082 -0.981 -0.1 0.47 -0.88 0.04
1 9.04 904 2.509 -5.435 6.196 -63.294 -25.818 -3.143 -1094.887 -1559.884 -4319.886 -1.085 -2.721 -0.954 -0.1 0.47 -0.88 0.04
1 9.05 905 2.035 -6.273 6.273 -39.398 10.407 -15.564 -1154.998 -1499.923 -4154.993 -0.589 -1.927 -1.106 -0.11 0.47 -0.87 0.04
1 9.06 906 1.413 -8.313 6.091 -2.350 57.007 -31.281 -1034.926 -1379.851 -4289.905 0.045 0.096 -0.953 -0.11 0.48 -0.87 0.04
1 9.07 907 0.675 -9.726 6.436 16.419 69.855 -36.347 -1199.968 -1214.958 -4244.935 0.783 1.516 -1.287 -0.1 0.48 -0.87 0.03
1 9.08 908 -0.067 -10.631 6.766 23.438 62.561 -38.178 -1199.968 -1214.958 -4244.935 1.517 2.441 -1.583 -0.1 0.47 -0.87 0.03
1 9.09 909 -0.508 -10.573 7.595 4.120 18.646 -34.943 -1154.998 -1424.972 -4229.944 1.964 2.434 -2.335 -0.1 0.47 -0.88 0.02
1 9.10 910 -0.378 -9.888 7.911 -23.132 -17.090 -31.159 -914.854 -1364.861 -4199.964 1.870 1.756 -2.650 -0.1 0.47 -0.88 0.02
1 9.11 911 -0.034 -9.323 7.700 -49.317 -40.680 -24.902 -914.854 -1364.861 -4199.964 1.583 1.174 -2.482 -0.1 0.47 -0.88 0.02
1 9.12 912 0.316 -8.964 7.269 -58.808 -47.211 -19.562 -1064.906 -1364.861 -4199.964 1.298 0.779 -2.127 -0.1 0.48 -0.87 0.02
1 9.13 913 0.527 -8.682 6.632 -47.730 -40.619 -15.228 -1064.906 -1439.962 -4199.964 1.147 0.457 -1.573 -0.11 0.48 -0.87 0.02
1 9.14 914 0.718 -8.327 5.665 0.427 -17.090 -10.345 -1169.988 -1334.880 -4274.915 1.003 0.076 -0.666 -0.11 0.48 -0.87 0.02
1 9.15 915 0.560 -8.050 5.095 38.025 -0.793 -6.042 -1169.988 -1334.880 -4274.915 1.182 -0.203 -0.105 -0.11 0.48 -0.87 0.02
1 9.16 916 0.192 -7.638 4.587 77.271 12.573 3.235 -1139.857 -1169.988 -4244.935 1.543 -0.543 0.523 -0.11 0.48 -0.87 0.02
1 9.17 917 0.062 -7.427 4.496 83.832 13.702 10.712 -1109.877 -1349.871 -4229.944 1.647 -0.693 0.718 -0.11 0.47 -0.87 0.02
1 9.18 918 -0.225 -7.058 4.913 72.693 8.637 14.862 -1109.877 -1349.871 -4229.944 1.905 -0.998 0.408 -0.11 0.47 -0.88 0.02
1 9.19 919 -0.101 -7.054 5.157 46.753 -0.183 16.815 -1139.857 -1334.880 -4244.935 1.756 -0.951 0.249 -0.11 0.46 -0.88 0.02
1 9.20 920 -0.125 -7.097 5.540 11.261 -10.376 18.341 -1244.939 -1364.861 -4349.866 1.762 -0.879 -0.086 -0.11 0.46 -0.88 0.03
1 9.21 921 0.158 -7.298 5.732 -40.161 -24.078 21.942 -1019.936 -1559.884 -4169.983 1.455 -0.680 -0.273 -0.11 0.46 -0.88 0.03
1 9.22 922 0.402 -7.633 5.636 -61.157 -29.236 24.353 -1019.936 -1559.884 -4169.983 1.192 -0.374 -0.216 -0.11 0.46 -0.88 0.03
1 9.23 923 0.488 -7.853 5.603 -66.559 -30.518 26.306 -1064.906 -1484.933 -4349.866 1.090 -0.204 -0.253 -0.11 0.46 -0.88 0.03
1 9.24 924 0.809 -8.169 5.315 -45.807 -26.154 29.999 -1154.998 -1544.894 -4364.856 0.735 0.001 -0.126 -0.11 0.47 -0.87 0.04
1 9.25 925 0.953 -8.490 5.358 -18.372 -22.644 31.433 -1154.998 -1544.894 -4364.856 0.569 0.284 -0.221 -0.11 0.47 -0.87 0.04
1 9.26 926 1.092 -8.160 5.334 11.536 -19.165 31.830 -1139.857 -1439.962 -4319.886 0.403 -0.061 -0.214 -0.11 0.48 -0.87 0.04
1 9.27 927 1.379 -8.208 5.354 37.018 -16.113 31.220 -1229.949 -1304.900 -4109.873 0.088 -0.005 -0.212 -0.11 0.47 -0.87 0.05
1 9.28 928 1.489 -7.796 5.483 56.336 -12.268 29.358 -1064.906 -1364.861 -4244.935 -0.050 -0.389 -0.290 -0.11 0.47 -0.87 0.05
1 9.29 929 1.633 -7.571 5.454 55.115 -9.705 25.818 -1064.906 -1364.861 -4244.935 -0.219 -0.575 -0.193 -0.11 0.47 -0.87 0.05
1 9.30 930 1.398 -7.336 5.406 44.739 -6.317 22.003 -1094.887 -1364.861 -4319.886 -0.009 -0.767 -0.073 -0.11 0.46 -0.88 0.06
1 9.31 931 1.130 -7.010 5.138 19.775 -0.336 14.893 -1169.988 -1409.981 -4274.915 0.220 -1.029 0.301 -0.11 0.46 -0.88 0.06
1 9.32 932 0.958 -7.054 4.923 1.373 2.930 11.047 -1169.988 -1409.981 -4274.915 0.376 -0.976 0.536 -0.11 0.46 -0.88 0.06
1 9.33 933 0.584 -7.307 4.511 -14.679 3.052 6.531 -1094.887 -1439.962 -4139.853 0.735 -0.725 0.946 -0.11 0.46 -0.88 0.06
1 9.34 934 0.345 -7.528 4.382 -25.238 0.580 2.930 -1139.857 -1409.981 -4094.882 0.966 -0.520 1.055 -0.11 0.46 -0.88 0.06
1 9.35 935 0.086 -7.848 4.099 -28.259 -3.662 -0.275 -1244.939 -1409.981 -4244.935 1.223 -0.220 1.307 -0.11 0.46 -0.88 0.06
1 9.36 936 -0.139 -8.481 3.936 -17.700 -13.641 -2.289 -1244.939 -1409.981 -4244.935 1.450 0.388 1.434 -0.11 0.46 -0.88 0.06
1 9.37 937 -0.029 -8.639 4.018 -3.754 -21.332 -2.716 -1139.857 -1409.981 -4274.915 1.344 0.525 1.319 -0.11 0.46 -0.88 0.06
1 9.38 938 -0.148 -8.945 4.319 10.071 -29.022 -2.136 -944.984 -1409.981 -4244.935 1.473 0.820 0.998 -0.11 0.47 -0.88 0.06
1 9.39 939 0.249 -9.031 4.894 25.421 -38.757 0.427 -944.984 -1409.981 -4244.935 1.110 0.917 0.430 -0.11 0.46 -0.88 0.07
1 9.40 940 0.235 -8.974 5.320 27.222 -42.542 2.777 -1139.857 -1259.929 -4169.983 1.147 0.876 0.024 -0.12 0.46 -0.88 0.07
1 9.41 941 0.570 -8.859 5.512 23.407 -43.915 6.104 -1229.949 -1469.942 -4184.974 0.834 0.780 -0.146 -0.12 0.46 -0.88 0.07
1 9.42 942 0.752 -8.734 5.588 14.893 -43.091 10.742 -1094.887 -1364.861 -4199.964 0.673 0.670 -0.206 -0.12 0.46 -0.88 0.07
1 9.43 943 1.034 -8.404 5.598 1.007 -37.995 17.365 -1094.887 -1364.861 -4199.964 0.405 0.346 -0.208 -0.12 0.46 -0.88 0.07
1 9.44 944 1.288 -8.423 5.425 -4.822 -33.295 20.874 -1334.880 -1574.874 -4229.944 0.160 0.365 -0.040 -0.12 0.46 -0.88 0.08
1 9.45 945 1.403 -8.495 5.066 -4.822 -28.412 23.041 -1349.871 -1484.933 -4274.915 0.047 0.430 0.308 -0.13 0.46 -0.88 0.08
1 9.46 946 1.537 -8.658 4.994 2.441 -23.285 23.621 -1349.871 -1484.933 -4274.915 -0.100 0.575 0.358 -0.13 0.46 -0.88 0.08
1 9.47 947 1.686 -8.725 5.033 11.322 -22.919 23.102 -1319.890 -1439.962 -4349.866 -0.258 0.639 0.317 -0.13 0.46 -0.88 0.09
1 9.48 948 1.619 -8.888 5.133 20.050 -21.637 23.224 -1394.991 -1409.981 -4319.886 -0.199 0.806 0.226 -0.13 0.46 -0.88 0.09
1 9.49 949 1.729 -8.940 5.234 27.985 -20.447 23.132 -1394.991 -1409.981 -4319.886 -0.319 0.870 0.145 -0.13 0.46 -0.88 0.09
1 9.50 950 1.705 -9.132 5.497 37.079 -15.503 22.644 -1364.861 -1424.972 -4259.925 -0.305 1.080 -0.089 -0.13 0.46 -0.88 0.09
1 9.51 951 1.628 -8.993 5.603 37.048 -11.688 21.393 -1274.919 -1364.861 -4139.853 -0.241 0.965 -0.155 -0.13 0.45 -0.88 0.09
1 9.52 952 1.437 -8.734 5.411 29.205 -9.338 19.684 -1424.972 -1559.884 -4274.915 -0.064 0.733 0.079 -0.13 0.45 -0.88 0.1
1 9.53 953 0.948 -8.706 5.210 11.017 -6.134 17.151 -1424.972 -1559.884 -4274.915 0.393 0.738 0.336 -0.13 0.45 -0.88 0.1
1 9.54 954 0.843 -8.754 5.138 1.190 -3.510 17.304 -1394.991 -1439.962 -4349.866 0.480 0.787 0.414 -0.13 0.45 -0.88 0.1
1 9.55 955 0.690 -8.916 5.473 -2.441 0.580 19.959 -1469.942 -1484.933 -4274.915 0.610 0.943 0.075 -0.13 0.45 -0.88 0.1
1 9.56 956 0.484 -9.026 5.832 1.709 1.495 23.193 -1469.942 -1484.933 -4274.915 0.785 1.045 -0.289 -0.13 0.45 -0.88 0.1
1 9.57 957 0.747 -9.433 6.642 15.442 1.404 28.015 -1364.861 -1499.923 -4259.925 0.485 1.449 -1.094 -0.13 0.45 -0.88 0.11
1 9.58 958 1.092 -9.745 7.283 21.545 1.251 33.875 -1514.913 -1349.871 -4289.905 0.106 1.768 -1.719 -0.12 0.45 -0.88 0.11
1 9.59 959 1.417 -9.879 7.513 11.810 -1.434 40.497 -1364.861 -1469.942 -4289.905 -0.260 1.914 -1.922 -0.12 0.45 -0.88 0.11
1 9.60 960 1.710 -9.376 7.700 -15.961 -1.678 45.288 -1364.861 -1469.942 -4289.905 -0.650 1.410 -2.092 -0.12 0.45 -0.88 0.11
1 9.61 961 1.700 -9.362 7.638 -20.294 1.801 45.258 -1229.949 -1499.923 -4409.977 -0.695 1.373 -2.050 -0.12 0.45 -0.88 0.12
1 9.62 962 1.082 -9.223 6.551 -12.970 13.763 35.462 -1259.929 -1499.923 -4259.925 -0.136 1.212 -0.985 -0.12 0.45 -0.88 0.12
1 9.63 963 0.575 -9.366 5.732 4.303 12.024 25.055 -1259.929 -1499.923 -4259.925 0.320 1.344 -0.174 -0.11 0.45 -0.88 0.12
1 9.64 964 0.316 -9.721 5.258 22.492 6.378 19.379 -1304.900 -1304.900 -4229.944 0.541 1.704 0.314 -0.11 0.45 -0.88 0.12
1 9.65 965 0.244 -9.630 5.248 28.320 -8.667 17.029 -1274.919 -1484.933 -4244.935 0.587 1.633 0.356 -0.11 0.45 -0.88 0.12
1 9.66 966 0.517 -9.098 5.593 20.111 -14.984 15.625 -1229.949 -1349.871 -4259.925 0.299 1.125 0.047 -0.11 0.45 -0.88 0.12
1 9.67 967 0.493 -8.710 5.746 14.648 -15.320 12.756 -1229.949 -1349.871 -4259.925 0.316 0.756 -0.080 -0.11 0.45 -0.88 0.12
1 9.68 968 0.670 -7.561 5.813 8.484 -12.482 7.172 -1409.981 -1499.923 -4229.944 0.131 -0.375 -0.120 -0.11 0.44 -0.88 0.13
1 9.69 969 0.670 -7.001 5.933 -0.610 -13.886 1.617 -1274.919 -1484.933 -4274.915 0.134 -0.928 -0.231 -0.11 0.44 -0.88 0.13
1 9.70 970 0.503 -6.311 6.110 -15.442 -14.801 -1.678 -1274.919 -1484.933 -4274.915 0.313 -1.618 -0.409 -0.11 0.44 -0.88 0.13
1 9.71 971 0.704 -5.785 6.402 -29.846 -14.648 -1.709 -1364.861 -1619.995 -4334.876 0.128 -2.160 -0.725 -0.11 0.44 -0.88 0.13
1 9.72 972 0.828 -5.301 6.417 -40.161 -8.057 2.563 -1274.919 -1514.913 -4199.964 0.018 -2.671 -0.780 -0.11 0.45 -0.88 0.13
1 9.73 973 1.015 -4.860 6.484 -37.140 -1.434 7.629 -1394.991 -1514.913 -4274.915 -0.163 -3.145 -0.895 -0.11 0.45 -0.88 0.13
1 9.74 974 1.025 -4.573 6.426 -28.381 5.524 13.886 -1394.991 -1514.913 -4274.915 -0.177 -3.465 -0.885 -0.11 0.45 -0.88 0.13
1 9.75 975 1.365 -4.482 6.580 -13.550 17.578 22.369 -1364.861 -1424.972 -4184.974 -0.566 -3.601 -1.097 -0.11 0.46 -0.87 0.13
1 9.76 976 1.489 -4.942 6.733 -9.583 27.008 26.062 -1439.962 -1424.972 -4229.944 -0.736 -3.154 -1.261 -0.11 0.46 -0.87 0.13
1 9.77 977 1.695 -5.531 6.924 -12.970 39.856 28.320 -1439.962 -1424.972 -4229.944 -1.000 -2.575 -1.461 -0.11 0.46 -0.87 0.13
1 9.78 978 1.834 -6.781 6.872 -20.752 54.169 28.046 -1304.900 -1379.851 -4184.974 -1.206 -1.334 -1.413 -0.1 0.46 -0.87 0.13
1 9.79 979 1.925 -8.528 6.479 -26.764 64.423 23.224 -1424.972 -1364.861 -4319.886 -1.368 0.403 -1.029 -0.1 0.46 -0.87 0.13
1 9.80 980 1.743 -10.631 6.402 -16.327 53.803 15.900 -1229.949 -1424.972 -4229.944 -1.262 2.485 -0.975 -0.09 0.46 -0.87 0.12
1 9.81 981 1.652 -10.803 6.843 3.265 26.062 9.705 -1229.949 -1424.972 -4229.944 -1.240 2.640 -1.435 -0.09 0.46 -0.87 0.12
1 9.82 982 1.590 -10.343 7.619 18.036 -8.209 0.488 -1319.890 -1439.962 -4094.882 -1.220 2.179 -2.210 -0.09 0.47 -0.87 0.12
1 9.83 983 1.901 -8.792 8.184 17.029 -40.192 -14.465 -1034.926 -1229.949 -4079.892 -1.501 0.659 -2.730 -0.09 0.46 -0.87 0.12
1 9.84 984 1.810 -8.366 7.911 8.972 -36.774 -21.179 -1034.926 -1229.949 -4079.892 -1.355 0.248 -2.440 -0.09 0.46 -0.87 0.12
