COL1	TIME	ACC_X	ACC_Y	ACC_Z	GYR_X	GYR_Y	GYR_Z	MAG_X	MAG_Y	MAG_Z	LACC_X	LACC_Y	LACC_Z	QUAT_X	QUAT_Y	QUAT_Z	QUAT_W
1 0.00 0 0.666 -7.868 6.134 -0.519 -1.495 1.129 -539.948 -2174.933 -3509.963 -0.081 0.120 -0.162 -0.05 0.44 -0.9 0.04
1 0.01 1 0.565 -7.872 6.096 0.336 -1.190 1.129 -539.948 -2174.933 -3509.963 0.020 0.125 -0.123 -0.05 0.44 -0.9 0.04
1 0.02 2 0.575 -7.853 6.120 -0.702 -1.038 1.190 -584.919 -2354.966 -3449.853 0.011 0.107 -0.145 -0.05 0.44 -0.9 0.04
1 0.03 3 0.618 -7.877 5.971 -1.373 -0.671 0.977 -509.968 -2444.907 -3479.983 -0.032 0.131 0.003 -0.05 0.44 -0.9 0.04
1 0.04 4 0.656 -7.834 6.029 -1.984 -0.946 0.427 -509.968 -2444.907 -3479.983 -0.070 0.088 -0.054 -0.05 0.44 -0.9 0.04
1 0.05 5 0.532 -7.872 6.081 -2.716 -0.580 0.854 -584.919 -2444.907 -3479.983 0.056 0.126 -0.107 -0.05 0.44 -0.9 0.04
1 0.06 6 0.589 -7.844 5.986 -2.441 -1.007 1.343 -584.919 -2324.985 -3554.934 -0.002 0.097 -0.012 -0.05 0.44 -0.9 0.04
1 0.07 7 0.675 -7.801 6.077 -1.404 -0.244 1.282 -584.919 -2354.966 -3659.866 -0.088 0.054 -0.103 -0.05 0.44 -0.9 0.04
1 0.08 8 0.685 -7.939 6.101 -0.977 -0.916 1.221 -584.919 -2354.966 -3659.866 -0.098 0.192 -0.127 -0.05 0.44 -0.9 0.04
1 0.09 9 0.670 -7.853 6.058 -0.763 -0.824 0.946 -599.909 -2384.946 -3719.977 -0.084 0.106 -0.085 -0.05 0.44 -0.9 0.04
1 0.10 10 0.589 -7.786 6.101 -0.183 -1.495 0.671 -524.958 -2339.976 -3644.875 -0.002 0.039 -0.128 -0.05 0.44 -0.9 0.04
1 0.11 11 0.503 -7.911 5.967 -0.977 -2.014 0.580 -524.958 -2339.976 -3644.875 0.084 0.164 0.007 -0.05 0.44 -0.9 0.04
1 0.12 12 0.532 -7.872 5.938 -1.343 -2.380 0.885 -539.948 -2324.985 -3584.915 0.056 0.125 0.035 -0.05 0.44 -0.9 0.04
1 0.13 13 0.632 -7.844 6.086 -1.282 -2.197 0.977 -449.857 -2459.897 -3569.924 -0.044 0.096 -0.114 -0.05 0.44 -0.9 0.04
1 0.14 14 0.579 -7.877 6.014 -1.709 -1.617 0.580 -674.860 -2414.927 -3539.944 0.009 0.130 -0.042 -0.05 0.44 -0.9 0.04
1 0.15 15 0.656 -7.944 6.058 -1.312 -1.068 0.946 -674.860 -2414.927 -3539.944 -0.068 0.197 -0.085 -0.05 0.44 -0.9 0.04
1 0.16 16 0.555 -7.839 5.976 -1.282 -0.580 0.885 -629.890 -2489.878 -3464.993 0.033 0.091 -0.004 -0.05 0.44 -0.9 0.04
1 0.17 17 0.608 -8.021 6.139 -1.587 -0.854 0.854 -659.870 -2354.966 -3629.885 -0.019 0.273 -0.167 -0.06 0.44 -0.9 0.04
1 0.18 18 0.766 -7.959 6.125 -1.648 -1.434 0.885 -659.870 -2354.966 -3629.885 -0.177 0.210 -0.154 -0.06 0.44 -0.9 0.04
1 0.19 19 0.656 -7.796 6.005 -1.648 -1.160 1.099 -704.991 -2384.946 -3464.993 -0.066 0.047 -0.034 -0.06 0.44 -0.9 0.04
1 0.20 20 0.613 -7.906 6.048 -1.617 -1.404 0.732 -539.948 -2324.985 -3449.853 -0.022 0.157 -0.077 -0.06 0.44 -0.9 0.04
1 0.21 21 0.656 -7.844 5.947 -1.373 -1.160 -0.031 -659.870 -2474.888 -3554.934 -0.065 0.095 0.023 -0.06 0.44 -0.9 0.04
1 0.22 22 0.646 -7.911 6.034 -1.190 -0.977 0.275 -659.870 -2474.888 -3554.934 -0.055 0.162 -0.063 -0.06 0.44 -0.9 0.04
1 0.23 23 0.642 -8.064 6.153 -0.549 -1.282 0.397 -509.968 -2324.985 -3629.885 -0.051 0.315 -0.183 -0.06 0.44 -0.9 0.04
1 0.24 24 0.642 -7.844 5.991 -0.793 -0.824 1.160 -539.948 -2174.933 -3554.934 -0.051 0.095 -0.020 -0.06 0.44 -0.9 0.04
1 0.25 25 0.522 -7.906 6.086 -0.397 -1.465 0.793 -539.948 -2174.933 -3554.934 0.069 0.157 -0.116 -0.06 0.44 -0.9 0.04
1 0.26 26 0.733 -7.896 5.995 -0.336 -1.801 0.946 -599.909 -2459.897 -3569.924 -0.142 0.147 -0.026 -0.06 0.44 -0.9 0.04
1 0.27 27 0.623 -7.868 5.952 -0.824 -1.465 0.000 -539.948 -2324.985 -3734.967 -0.031 0.118 0.017 -0.06 0.44 -0.9 0.04
1 0.28 28 0.517 -7.920 6.038 -1.587 -1.434 0.427 -614.899 -2324.985 -3629.885 0.074 0.170 -0.070 -0.06 0.44 -0.9 0.04
1 0.29 29 0.656 -7.896 5.967 -1.740 -0.397 1.373 -614.899 -2324.985 -3629.885 -0.065 0.146 0.002 -0.06 0.44 -0.9 0.04
1 0.30 30 0.737 -7.959 6.058 -1.862 -0.305 0.824 -509.968 -2519.858 -3584.915 -0.146 0.208 -0.089 -0.06 0.44 -0.9 0.04
1 0.31 31 0.656 -7.911 6.081 -1.923 0.092 1.038 -674.860 -2309.995 -3539.944 -0.065 0.160 -0.114 -0.06 0.44 -0.9 0.04
1 0.32 32 0.575 -7.925 6.010 -1.373 -0.031 0.916 -674.860 -2309.995 -3539.944 0.017 0.174 -0.042 -0.06 0.44 -0.9 0.04
1 0.33 33 0.503 -7.853 5.995 -1.404 -0.366 1.251 -614.899 -2399.937 -3554.934 0.088 0.102 -0.028 -0.06 0.44 -0.9 0.04
1 0.34 34 0.522 -7.872 6.038 -0.671 -1.251 0.458 -539.948 -2354.966 -3404.882 0.069 0.121 -0.071 -0.06 0.44 -0.9 0.04
1 0.35 35 0.575 -7.959 6.014 -1.007 -0.977 0.641 -539.948 -2354.966 -3404.882 0.016 0.208 -0.047 -0.06 0.44 -0.9 0.04
1 0.36 36 0.637 -7.944 6.014 -1.190 -1.282 1.068 -494.978 -2309.995 -3494.973 -0.046 0.193 -0.047 -0.06 0.44 -0.9 0.04
1 0.37 37 0.479 -7.935 5.995 -0.977 -1.312 0.519 -494.978 -2384.946 -3464.993 0.112 0.183 -0.029 -0.06 0.44 -0.9 0.04
1 0.38 38 0.570 -7.949 6.096 -0.610 -0.946 0.977 -539.948 -2519.858 -3329.931 0.021 0.197 -0.129 -0.06 0.44 -0.9 0.04
1 0.39 39 0.646 -7.973 6.067 -0.732 -0.549 0.641 -539.948 -2519.858 -3329.931 -0.056 0.221 -0.101 -0.06 0.44 -0.9 0.04
1 0.40 40 0.680 -7.892 6.058 -0.946 -0.519 1.526 -539.948 -2279.865 -3554.934 -0.090 0.140 -0.091 -0.06 0.44 -0.9 0.04
1 0.41 41 0.646 -7.896 6.172 -0.275 -0.916 0.610 -629.890 -2384.946 -3464.993 -0.056 0.144 -0.206 -0.06 0.44 -0.9 0.04
1 0.42 42 0.656 -7.892 6.096 -0.336 -0.885 0.916 -629.890 -2384.946 -3464.993 -0.065 0.140 -0.130 -0.06 0.44 -0.9 0.04
1 0.43 43 0.551 -8.002 6.048 -1.038 -0.397 0.427 -539.948 -2399.937 -3584.915 0.040 0.250 -0.082 -0.06 0.44 -0.9 0.04
1 0.44 44 0.661 -7.892 5.900 -1.465 -0.671 1.129 -584.919 -2354.966 -3554.934 -0.070 0.139 0.067 -0.06 0.44 -0.9 0.04
1 0.45 45 0.733 -7.901 6.010 -1.038 -0.183 1.190 -674.860 -2264.875 -3539.944 -0.142 0.149 -0.044 -0.06 0.44 -0.9 0.04
1 0.46 46 0.603 -8.021 6.182 -0.763 0.031 1.801 -674.860 -2264.875 -3539.944 -0.012 0.268 -0.217 -0.06 0.44 -0.9 0.04
1 0.47 47 0.546 -7.896 6.067 0.092 -0.305 1.373 -599.909 -2309.995 -3749.957 0.044 0.143 -0.102 -0.06 0.44 -0.9 0.04
1 0.48 48 0.656 -7.858 6.000 0.854 -0.031 1.221 -629.890 -2309.995 -3539.944 -0.067 0.106 -0.033 -0.06 0.44 -0.9 0.04
1 0.49 49 0.728 -7.944 5.995 0.397 -0.610 0.336 -629.890 -2309.995 -3539.944 -0.138 0.194 -0.027 -0.06 0.44 -0.9 0.04
1 0.50 50 0.690 -7.916 6.134 -0.305 -0.519 1.129 -584.919 -2324.985 -3554.934 -0.100 0.167 -0.163 -0.06 0.44 -0.9 0.04
1 0.51 51 0.613 -7.796 6.105 -0.763 -0.549 0.427 -524.958 -2339.976 -3719.977 -0.023 0.048 -0.134 -0.06 0.44 -0.9 0.04
1 0.52 52 0.694 -7.877 6.077 -1.160 -0.885 0.885 -659.870 -2519.858 -3509.963 -0.104 0.129 -0.105 -0.06 0.44 -0.9 0.04
1 0.53 53 0.551 -7.801 6.043 -1.465 -0.183 1.038 -659.870 -2519.858 -3509.963 0.040 0.053 -0.071 -0.06 0.44 -0.9 0.04
1 0.54 54 0.728 -7.863 6.196 -1.343 0.549 0.488 -690.000 -2354.966 -3584.915 -0.137 0.115 -0.224 -0.06 0.44 -0.9 0.04
1 0.55 55 0.555 -7.911 6.058 -1.312 0.153 1.160 -599.909 -2459.897 -3539.944 0.035 0.163 -0.085 -0.06 0.44 -0.9 0.04
1 0.56 56 0.584 -7.896 6.010 -1.312 0.458 0.793 -599.909 -2459.897 -3539.944 0.005 0.149 -0.037 -0.06 0.44 -0.9 0.04
1 0.57 57 0.627 -7.853 5.995 -0.580 -0.092 1.038 -569.929 -2339.976 -3599.905 -0.038 0.106 -0.023 -0.06 0.44 -0.9 0.04
1 0.58 58 0.699 -7.939 6.048 -0.671 -0.244 0.214 -584.919 -2249.884 -3404.882 -0.109 0.192 -0.076 -0.06 0.44 -0.9 0.04
1 0.59 59 0.666 -7.935 5.995 -0.763 -0.366 1.129 -509.968 -2279.865 -3659.866 -0.075 0.187 -0.023 -0.06 0.44 -0.9 0.04
1 0.60 60 0.642 -7.887 6.134 -0.641 -0.519 0.824 -509.968 -2279.865 -3659.866 -0.051 0.139 -0.162 -0.06 0.44 -0.9 0.04
1 0.61 61 0.589 -7.916 6.168 0.366 -0.397 0.610 -464.997 -2324.985 -3554.934 0.002 0.168 -0.196 -0.06 0.44 -0.9 0.04
1 0.62 62 0.575 -7.872 6.129 -0.153 0.183 0.977 -614.899 -2594.959 -3479.983 0.017 0.126 -0.156 -0.06 0.44 -0.9 0.04
1 0.63 63 0.646 -7.844 6.168 -0.549 0.183 1.068 -614.899 -2594.959 -3479.983 -0.056 0.098 -0.193 -0.06 0.44 -0.9 0.04
1 0.64 64 0.555 -7.829 6.096 -0.854 0.519 1.129 -690.000 -2399.937 -3659.866 0.035 0.084 -0.121 -0.06 0.44 -0.9 0.04
1 0.65 65 0.493 -7.805 6.139 -1.160 0.275 0.366 -539.948 -2279.865 -3584.915 0.096 0.060 -0.164 -0.06 0.44 -0.9 0.04
1 0.66 66 0.512 -7.901 6.062 -1.221 -0.305 1.190 -659.870 -2324.985 -3584.915 0.076 0.156 -0.087 -0.06 0.44 -0.9 0.04
1 0.67 67 0.623 -7.959 6.072 -0.854 -0.305 1.160 -659.870 -2324.985 -3584.915 -0.034 0.213 -0.097 -0.06 0.44 -0.9 0.04
1 0.68 68 0.589 -7.853 6.034 -1.282 -0.519 1.312 -449.857 -2339.976 -3494.973 -0.002 0.108 -0.058 -0.06 0.44 -0.9 0.04
1 0.69 69 0.474 -7.930 6.091 -0.641 -1.587 1.251 -734.971 -2519.858 -3584.915 0.113 0.185 -0.115 -0.06 0.44 -0.9 0.04
1 0.70 70 0.594 -7.872 6.172 -0.061 -1.282 1.129 -734.971 -2519.858 -3584.915 -0.008 0.127 -0.197 -0.06 0.44 -0.9 0.04
1 0.71 71 0.570 -7.925 6.129 -0.580 -1.404 1.160 -494.978 -2339.976 -3359.911 0.016 0.180 -0.153 -0.06 0.44 -0.9 0.04
1 0.72 72 0.508 -7.834 6.091 -0.885 -1.129 1.282 -539.948 -2444.907 -3659.866 0.078 0.089 -0.115 -0.06 0.44 -0.9 0.04
1 0.73 73 0.795 -7.834 6.134 -1.129 -1.312 1.221 -524.958 -2309.995 -3494.973 -0.209 0.090 -0.158 -0.06 0.44 -0.9 0.04
1 0.74 74 0.541 -7.848 6.091 -1.099 -0.916 1.465 -524.958 -2309.995 -3494.973 0.046 0.104 -0.114 -0.06 0.44 -0.9 0.04
1 0.75 75 0.613 -7.901 6.182 -1.587 -0.916 0.977 -599.909 -2339.976 -3599.905 -0.026 0.157 -0.206 -0.06 0.44 -0.9 0.04
1 0.76 76 0.613 -7.887 6.120 -0.732 -1.801 1.282 -614.899 -2474.888 -3479.983 -0.026 0.142 -0.143 -0.06 0.44 -0.9 0.04
1 0.77 77 0.455 -7.834 6.096 -0.702 -1.495 0.610 -614.899 -2474.888 -3479.983 0.132 0.090 -0.119 -0.06 0.44 -0.9 0.04
1 0.78 78 0.464 -7.901 6.134 -0.519 -2.106 1.465 -690.000 -2324.985 -3704.986 0.122 0.158 -0.156 -0.06 0.44 -0.9 0.05
1 0.79 79 0.632 -7.901 6.091 -0.549 -2.258 1.007 -690.000 -2324.985 -3704.986 -0.046 0.158 -0.112 -0.06 0.44 -0.9 0.05
1 0.80 80 0.800 -7.848 6.149 -1.160 -1.801 1.495 -584.919 -2474.888 -3629.885 -0.212 0.106 -0.169 -0.06 0.44 -0.9 0.05
1 0.81 81 0.455 -7.868 6.240 -1.312 -1.740 1.465 -584.919 -2474.888 -3629.885 0.133 0.125 -0.260 -0.06 0.44 -0.9 0.05
1 0.82 82 0.570 -7.872 6.192 -1.068 -0.916 1.160 -494.978 -2459.897 -3674.856 0.018 0.131 -0.212 -0.06 0.44 -0.9 0.05
1 0.83 83 0.575 -7.882 6.014 -1.801 -0.458 1.190 -539.948 -2444.907 -3584.915 0.013 0.141 -0.034 -0.06 0.44 -0.9 0.05
1 0.84 84 0.579 -7.935 6.048 -1.343 -1.190 0.977 -539.948 -2444.907 -3584.915 0.008 0.193 -0.068 -0.06 0.44 -0.9 0.05
1 0.85 85 0.599 -7.762 6.172 -1.770 -1.892 0.885 -629.890 -2489.878 -3539.944 -0.011 0.021 -0.192 -0.06 0.44 -0.9 0.05
1 0.86 86 0.613 -7.925 6.043 -1.373 -1.984 1.068 -629.890 -2489.878 -3539.944 -0.026 0.184 -0.062 -0.06 0.44 -0.9 0.05
1 0.87 87 0.517 -7.939 6.220 -1.160 -2.258 1.373 -419.876 -2384.946 -3569.924 0.070 0.198 -0.240 -0.06 0.44 -0.9 0.05
1 0.88 88 0.623 -7.801 5.995 -1.648 -2.045 1.434 -419.876 -2384.946 -3569.924 -0.036 0.059 -0.015 -0.06 0.44 -0.9 0.04
1 0.89 89 0.627 -7.858 6.043 -0.854 -1.526 1.068 -524.958 -2309.995 -3674.856 -0.040 0.117 -0.062 -0.06 0.44 -0.9 0.04
1 0.90 90 0.685 -7.896 6.153 -1.434 -1.740 0.793 -734.971 -2204.914 -3554.934 -0.098 0.155 -0.172 -0.06 0.44 -0.9 0.04
1 0.91 91 0.498 -7.892 6.081 -0.977 -1.282 1.129 -734.971 -2204.914 -3554.934 0.090 0.151 -0.100 -0.06 0.44 -0.9 0.04
1 0.92 92 0.737 -7.801 6.105 -1.282 -1.495 0.793 -464.997 -2324.985 -3584.915 -0.150 0.060 -0.124 -0.06 0.44 -0.9 0.04
1 0.93 93 0.623 -7.906 6.077 -1.526 -1.129 0.793 -464.997 -2324.985 -3584.915 -0.035 0.165 -0.095 -0.06 0.44 -0.9 0.04
1 0.94 94 0.656 -7.877 6.158 -0.793 -0.732 1.190 -614.899 -2399.937 -3509.963 -0.068 0.137 -0.177 -0.06 0.44 -0.9 0.04
1 0.95 95 0.713 -8.011 6.177 -1.648 -0.610 0.641 -569.929 -2489.878 -3599.905 -0.126 0.271 -0.196 -0.06 0.44 -0.9 0.04
1 0.96 96 0.623 -7.863 6.149 -1.587 -1.160 0.732 -584.919 -2354.966 -3554.934 -0.035 0.122 -0.167 -0.06 0.44 -0.9 0.04
1 0.97 97 0.642 -7.805 6.101 -1.221 -0.458 0.458 -569.929 -2459.897 -3569.924 -0.054 0.065 -0.119 -0.06 0.44 -0.9 0.04
1 0.98 98 0.642 -7.896 6.067 -1.221 0.549 1.099 -569.929 -2459.897 -3569.924 -0.054 0.156 -0.085 -0.06 0.44 -0.9 0.04
1 0.99 99 0.594 -7.935 6.096 -1.221 0.427 0.946 -569.929 -2309.995 -3539.944 -0.006 0.195 -0.114 -0.06 0.44 -0.9 0.04
1 1.00 100 0.594 -7.906 5.957 -0.580 0.427 0.763 -569.929 -2309.995 -3539.944 -0.007 0.166 0.026 -0.06 0.44 -0.9 0.04
1 1.01 101 0.637 -7.892 5.962 -1.068 0.366 0.854 -764.952 -2279.865 -3584.915 -0.051 0.152 0.021 -0.06 0.44 -0.9 0.04
1 1.02 102 0.594 -7.872 6.053 -0.793 -0.061 0.671 -690.000 -2279.865 -3659.866 -0.008 0.133 -0.070 -0.06 0.44 -0.9 0.05
1 1.03 103 0.565 -7.810 6.220 -1.190 -0.061 0.946 -734.971 -2474.888 -3659.866 0.021 0.070 -0.238 -0.06 0.44 -0.9 0.05
1 1.04 104 0.670 -7.772 6.062 -0.671 -0.122 0.458 -614.899 -2354.966 -3404.882 -0.085 0.032 -0.079 -0.06 0.44 -0.9 0.05
1 1.05 105 0.603 -7.853 5.991 -1.129 0.153 0.702 -614.899 -2354.966 -3404.882 -0.018 0.114 -0.007 -0.06 0.44 -0.9 0.05
1 1.06 106 0.560 -7.772 6.077 -1.190 0.397 0.153 -539.948 -2324.985 -3629.885 0.026 0.033 -0.093 -0.06 0.44 -0.9 0.05
1 1.07 107 0.527 -7.872 6.048 -1.251 0.244 0.244 -539.948 -2324.985 -3629.885 0.059 0.134 -0.063 -0.06 0.44 -0.9 0.05
1 1.08 108 0.651 -7.863 6.115 -0.824 0.458 0.580 -629.890 -2414.927 -3569.924 -0.066 0.125 -0.130 -0.06 0.44 -0.9 0.05
1 1.09 109 0.589 -7.877 5.986 -1.495 0.763 0.397 -629.890 -2339.976 -3569.924 -0.004 0.139 -0.001 -0.06 0.44 -0.9 0.05
1 1.10 110 0.613 -7.963 6.058 -1.495 -0.092 0.488 -690.000 -2354.966 -3584.915 -0.029 0.225 -0.073 -0.06 0.44 -0.9 0.05
1 1.11 111 0.512 -7.772 6.014 -1.038 0.061 1.007 -569.929 -2414.927 -3674.856 0.072 0.034 -0.029 -0.06 0.44 -0.9 0.05
1 1.12 112 0.541 -7.892 6.115 -1.709 -0.977 1.007 -569.929 -2414.927 -3674.856 0.043 0.154 -0.130 -0.06 0.44 -0.9 0.05
1 1.13 113 0.642 -7.868 6.110 -0.732 -1.129 0.702 -569.929 -2219.904 -3569.924 -0.058 0.130 -0.125 -0.06 0.44 -0.9 0.05
1 1.14 114 0.661 -7.911 6.067 -0.641 -0.397 0.458 -569.929 -2219.904 -3569.924 -0.077 0.173 -0.082 -0.06 0.44 -0.9 0.05
1 1.15 115 0.623 -7.892 5.991 -0.397 -0.397 0.000 -584.919 -2279.865 -3554.934 -0.038 0.154 -0.005 -0.06 0.44 -0.9 0.05
1 1.16 116 0.565 -7.882 6.144 -0.549 -0.305 0.488 -569.929 -2414.927 -3464.993 0.020 0.144 -0.159 -0.06 0.44 -0.9 0.05
1 1.17 117 0.584 -8.059 5.967 -0.244 0.214 0.854 -434.867 -2354.966 -3584.915 -0.000 0.322 0.019 -0.06 0.44 -0.9 0.05
1 1.18 118 0.527 -7.877 6.091 -0.244 0.397 1.282 -569.929 -2309.995 -3599.905 0.056 0.139 -0.106 -0.06 0.44 -0.9 0.05
1 1.19 119 0.623 -7.877 6.129 -0.214 -0.305 1.221 -569.929 -2309.995 -3599.905 -0.041 0.140 -0.143 -0.06 0.44 -0.9 0.05
1 1.20 120 0.642 -7.801 6.158 -0.092 -1.373 1.099 -659.870 -2444.907 -3704.986 -0.061 0.063 -0.172 -0.06 0.44 -0.9 0.05
1 1.21 121 0.709 -7.916 6.230 -0.397 -1.648 1.465 -659.870 -2444.907 -3704.986 -0.128 0.178 -0.243 -0.06 0.44 -0.9 0.05
1 1.22 122 0.608 -7.801 6.105 -0.427 -1.465 0.702 -509.968 -2399.937 -3479.983 -0.026 0.064 -0.118 -0.06 0.44 -0.9 0.05
1 1.23 123 0.603 -7.839 6.125 -0.946 -1.526 1.312 -629.890 -2339.976 -3644.875 -0.022 0.103 -0.137 -0.06 0.44 -0.9 0.05
1 1.24 124 0.651 -7.839 6.149 -0.793 -1.160 1.526 -599.909 -2414.927 -3569.924 -0.070 0.103 -0.160 -0.06 0.44 -0.9 0.05
1 1.25 125 0.675 -7.810 6.120 -0.610 -0.183 1.312 -614.899 -2324.985 -3554.934 -0.093 0.074 -0.132 -0.06 0.44 -0.9 0.05
1 1.26 126 0.656 -7.892 6.134 -0.427 -0.366 1.404 -614.899 -2324.985 -3554.934 -0.074 0.156 -0.146 -0.06 0.44 -0.9 0.05
1 1.27 127 0.541 -7.834 6.058 -0.977 0.153 0.610 -614.899 -2399.937 -3509.963 0.042 0.099 -0.069 -0.06 0.44 -0.9 0.05
1 1.28 128 0.503 -7.844 6.096 -1.617 -0.092 1.007 -614.899 -2399.937 -3509.963 0.080 0.108 -0.107 -0.06 0.44 -0.9 0.05
1 1.29 129 0.632 -7.853 6.129 -1.770 -0.732 1.556 -449.857 -2489.878 -3539.944 -0.049 0.118 -0.140 -0.06 0.44 -0.9 0.05
1 1.30 130 0.627 -7.916 6.149 -1.770 -0.641 1.251 -629.890 -2414.927 -3569.924 -0.044 0.180 -0.160 -0.06 0.44 -0.9 0.05
1 1.31 131 0.651 -7.863 6.125 -1.648 -1.740 0.977 -690.000 -2444.907 -3479.983 -0.068 0.128 -0.136 -0.06 0.44 -0.9 0.05
1 1.32 132 0.670 -7.872 6.096 -0.732 -0.977 1.129 -509.968 -2399.937 -3509.963 -0.087 0.137 -0.107 -0.06 0.44 -0.9 0.05
1 1.33 133 0.670 -7.853 6.149 -0.580 -0.946 1.038 -509.968 -2399.937 -3509.963 -0.087 0.118 -0.160 -0.06 0.44 -0.9 0.05
1 1.34 134 0.589 -7.925 6.110 -0.061 -0.549 1.129 -509.968 -2444.907 -3554.934 -0.005 0.190 -0.122 -0.06 0.44 -0.9 0.05
1 1.35 135 0.618 -7.896 6.053 0.122 -0.336 0.854 -509.968 -2444.907 -3554.934 -0.033 0.162 -0.062 -0.06 0.44 -0.9 0.05
1 1.36 136 0.565 -7.872 5.995 -0.336 -0.610 1.434 -629.890 -2219.904 -3569.924 0.020 0.139 -0.004 -0.06 0.44 -0.9 0.05
1 1.37 137 0.546 -7.810 6.115 -1.526 -0.793 0.946 -674.860 -2384.946 -3494.973 0.039 0.077 -0.124 -0.06 0.44 -0.9 0.05
1 1.38 138 0.675 -7.839 6.115 -1.953 -1.404 0.732 -674.860 -2384.946 -3494.973 -0.091 0.105 -0.124 -0.06 0.44 -0.9 0.05
1 1.39 139 0.733 -7.868 6.024 -1.740 -0.763 1.099 -614.899 -2324.985 -3554.934 -0.148 0.134 -0.033 -0.06 0.44 -0.9 0.05
1 1.40 140 0.656 -7.868 6.062 -1.862 -0.793 0.824 -614.899 -2324.985 -3554.934 -0.071 0.134 -0.071 -0.06 0.44 -0.9 0.05
1 1.41 141 0.699 -7.839 6.072 -1.526 0.519 0.610 -494.978 -2489.878 -3644.875 -0.113 0.105 -0.081 -0.06 0.44 -0.9 0.05
1 1.42 142 0.646 -7.916 6.024 -0.885 0.793 0.549 -494.978 -2489.878 -3644.875 -0.060 0.182 -0.033 -0.06 0.44 -0.9 0.05
1 1.43 143 0.541 -7.959 6.139 -1.007 0.702 0.305 -509.968 -2324.985 -3704.986 0.045 0.226 -0.147 -0.06 0.44 -0.9 0.04
1 1.44 144 0.661 -7.916 6.058 -1.038 0.336 0.275 -494.978 -2339.976 -3569.924 -0.075 0.183 -0.066 -0.06 0.44 -0.9 0.04
1 1.45 145 0.627 -7.877 6.168 -1.648 -0.519 0.610 -494.978 -2339.976 -3569.924 -0.042 0.145 -0.176 -0.06 0.44 -0.9 0.04
1 1.46 146 0.627 -7.892 6.077 -1.221 -1.404 1.251 -569.929 -2384.946 -3539.944 -0.042 0.159 -0.085 -0.06 0.44 -0.9 0.04
1 1.47 147 0.599 -7.796 6.139 -0.977 -1.892 0.885 -569.929 -2384.946 -3539.944 -0.014 0.063 -0.147 -0.06 0.44 -0.9 0.04
1 1.48 148 0.646 -7.853 6.091 -0.824 -1.556 0.427 -659.870 -2324.985 -3554.934 -0.061 0.121 -0.099 -0.06 0.44 -0.9 0.04
1 1.49 149 0.646 -7.896 6.072 -0.458 -0.977 0.916 -659.870 -2324.985 -3554.934 -0.061 0.164 -0.080 -0.06 0.44 -0.9 0.04
1 1.50 150 0.670 -7.825 6.120 0.153 -0.946 0.824 -509.968 -2399.937 -3479.983 -0.084 0.092 -0.128 -0.06 0.44 -0.9 0.04
1 1.51 151 0.637 -7.777 6.225 -0.671 -0.519 0.793 -599.909 -2459.897 -3464.993 -0.050 0.045 -0.232 -0.06 0.44 -0.9 0.04
1 1.52 152 0.579 -7.786 6.168 -0.977 -0.885 1.099 -599.909 -2459.897 -3464.993 0.008 0.055 -0.174 -0.06 0.44 -0.9 0.04
1 1.53 153 0.546 -7.791 6.038 -2.441 -0.702 0.580 -539.948 -2354.966 -3509.963 0.042 0.060 -0.045 -0.06 0.44 -0.9 0.04
1 1.54 154 0.589 -7.734 6.144 -2.350 -0.549 1.190 -539.948 -2354.966 -3509.963 -0.002 0.003 -0.149 -0.06 0.44 -0.9 0.04
1 1.55 155 0.623 -7.772 6.187 -2.136 -0.336 1.251 -524.958 -2414.927 -3419.872 -0.036 0.041 -0.193 -0.06 0.44 -0.9 0.04
1 1.56 156 0.570 -7.848 6.163 -2.563 -0.305 1.007 -524.958 -2414.927 -3419.872 0.017 0.118 -0.168 -0.06 0.44 -0.9 0.04
1 1.57 157 0.589 -7.844 6.053 -1.526 0.336 0.580 -659.870 -2324.985 -3629.885 -0.003 0.113 -0.058 -0.06 0.44 -0.9 0.04
1 1.58 158 0.522 -7.987 6.187 -0.641 -0.031 1.190 -569.929 -2339.976 -3569.924 0.064 0.257 -0.192 -0.06 0.44 -0.9 0.04
1 1.59 159 0.378 -7.796 6.062 -0.732 -0.763 1.343 -569.929 -2339.976 -3569.924 0.207 0.066 -0.067 -0.06 0.44 -0.9 0.04
1 1.60 160 0.484 -7.906 5.971 -0.519 -1.801 0.763 -599.909 -2384.946 -3539.944 0.101 0.176 0.024 -0.06 0.44 -0.9 0.04
1 1.61 161 0.661 -7.853 6.053 -0.061 -1.556 1.343 -599.909 -2384.946 -3539.944 -0.076 0.123 -0.057 -0.06 0.44 -0.9 0.04
1 1.62 162 0.512 -7.868 6.206 -0.458 -2.197 0.854 -599.909 -2384.946 -3419.872 0.073 0.138 -0.210 -0.06 0.44 -0.9 0.05
1 1.63 163 0.570 -7.916 6.086 -1.160 -1.434 0.763 -599.909 -2384.946 -3419.872 0.016 0.186 -0.090 -0.06 0.44 -0.9 0.05
1 1.64 164 0.646 -7.868 6.086 -1.312 -0.610 1.160 -599.909 -2414.927 -3419.872 -0.061 0.138 -0.090 -0.06 0.44 -0.9 0.05
1 1.65 165 0.651 -7.863 6.163 -1.343 0.214 0.977 -464.997 -2279.865 -3629.885 -0.066 0.134 -0.167 -0.06 0.44 -0.9 0.05
1 1.66 166 0.512 -7.959 6.129 -1.343 -0.305 0.916 -464.997 -2279.865 -3629.885 0.074 0.230 -0.133 -0.06 0.44 -0.9 0.04
1 1.67 167 0.560 -7.868 6.120 -2.075 -1.007 1.343 -539.948 -2324.985 -3509.963 0.025 0.139 -0.123 -0.06 0.44 -0.9 0.04
1 1.68 168 0.546 -7.863 6.105 -1.068 -1.587 0.732 -569.929 -2489.878 -3494.973 0.040 0.134 -0.109 -0.06 0.44 -0.9 0.04
1 1.69 169 0.522 -7.810 6.096 -1.160 -1.495 1.740 -539.948 -2519.858 -3479.983 0.063 0.081 -0.099 -0.06 0.44 -0.9 0.04
1 1.70 170 0.709 -7.868 6.120 -0.763 -1.831 1.312 -539.948 -2519.858 -3479.983 -0.123 0.139 -0.123 -0.06 0.44 -0.9 0.04
1 1.71 171 0.694 -7.839 6.105 -0.275 -1.465 1.648 -614.899 -2399.937 -3659.866 -0.109 0.110 -0.108 -0.06 0.44 -0.9 0.04
1 1.72 172 0.560 -7.877 6.101 -0.214 -1.617 1.282 -690.000 -2444.907 -3629.885 0.026 0.150 -0.102 -0.06 0.44 -0.9 0.05
1 1.73 173 0.723 -7.844 6.139 -0.763 -1.831 1.282 -690.000 -2444.907 -3629.885 -0.137 0.116 -0.141 -0.06 0.44 -0.9 0.05
1 1.74 174 0.670 -7.825 6.211 -0.244 -1.282 1.221 -599.909 -2459.897 -3719.977 -0.083 0.098 -0.212 -0.06 0.44 -0.9 0.05
1 1.75 175 0.579 -7.825 6.101 -0.519 -1.434 1.373 -569.929 -2414.927 -3569.924 0.008 0.098 -0.101 -0.06 0.44 -0.9 0.05
1 1.76 176 0.709 -7.820 6.072 -1.129 -1.343 0.977 -524.958 -2339.976 -3599.905 -0.121 0.093 -0.072 -0.06 0.44 -0.9 0.05
1 1.77 177 0.584 -7.839 6.172 -0.824 -1.709 0.977 -524.958 -2339.976 -3599.905 0.004 0.113 -0.173 -0.06 0.44 -0.9 0.05
1 1.78 178 0.646 -7.901 6.149 -1.251 -0.977 1.373 -524.958 -2309.995 -3539.944 -0.058 0.175 -0.148 -0.06 0.44 -0.9 0.04
1 1.79 179 0.651 -7.848 6.024 -0.397 -1.343 1.007 -584.919 -2474.888 -3509.963 -0.062 0.123 -0.023 -0.06 0.44 -0.9 0.04
1 1.80 180 0.565 -7.753 6.034 -0.824 -1.007 1.404 -584.919 -2474.888 -3509.963 0.024 0.027 -0.033 -0.06 0.44 -0.9 0.04
1 1.81 181 0.603 -7.801 6.058 -0.916 -2.045 0.854 -539.948 -2519.858 -3479.983 -0.014 0.075 -0.057 -0.06 0.44 -0.9 0.04
1 1.82 182 0.656 -7.834 6.163 -1.221 -2.411 1.129 -734.971 -2279.865 -3479.983 -0.066 0.109 -0.162 -0.06 0.44 -0.9 0.05
1 1.83 183 0.532 -8.026 6.149 -1.465 -2.899 1.526 -614.899 -2474.888 -3509.963 0.059 0.300 -0.148 -0.06 0.44 -0.9 0.05
1 1.84 184 0.646 -7.916 6.206 -1.556 -2.075 1.556 -614.899 -2474.888 -3509.963 -0.055 0.190 -0.205 -0.06 0.44 -0.9 0.05
1 1.85 185 0.718 -7.901 6.120 -1.556 -2.228 1.282 -599.909 -2189.923 -3494.973 -0.126 0.175 -0.120 -0.06 0.44 -0.9 0.05
1 1.86 186 0.747 -7.868 6.081 -0.916 -1.892 1.587 -674.860 -2459.897 -3569.924 -0.154 0.142 -0.081 -0.06 0.44 -0.9 0.05
1 1.87 187 0.608 -7.877 6.101 -0.793 -1.801 1.038 -674.860 -2459.897 -3569.924 -0.014 0.152 -0.100 -0.06 0.44 -0.9 0.05
1 1.88 188 0.584 -7.781 6.062 -0.397 -1.465 1.312 -539.948 -2354.966 -3584.915 0.010 0.056 -0.061 -0.06 0.44 -0.9 0.05
1 1.89 189 0.666 -7.729 5.971 -0.397 -1.892 1.038 -524.958 -2384.946 -3719.977 -0.071 0.004 0.030 -0.06 0.44 -0.9 0.05
1 1.90 190 0.666 -7.920 6.129 -0.519 -2.502 1.434 -599.909 -2459.897 -3539.944 -0.070 0.196 -0.128 -0.06 0.44 -0.9 0.05
1 1.91 191 0.661 -7.949 6.153 -0.793 -2.045 1.495 -599.909 -2459.897 -3539.944 -0.065 0.225 -0.152 -0.06 0.44 -0.9 0.05
1 1.92 192 0.694 -7.825 6.158 -0.763 -1.984 0.793 -690.000 -2354.966 -3449.853 -0.098 0.100 -0.157 -0.06 0.44 -0.9 0.05
1 1.93 193 0.704 -7.882 6.091 -0.275 -2.197 0.427 -584.919 -2249.884 -3509.963 -0.107 0.157 -0.090 -0.06 0.44 -0.9 0.05
1 1.94 194 0.742 -7.882 6.086 0.671 -2.411 0.427 -584.919 -2249.884 -3509.963 -0.141 0.160 -0.082 -0.06 0.44 -0.9 0.05
1 1.95 195 0.733 -7.892 6.077 0.793 -1.862 -0.061 -659.870 -2474.888 -3584.915 -0.129 0.172 -0.070 -0.06 0.44 -0.9 0.05
1 1.96 196 0.656 -7.753 6.105 0.610 -2.533 0.122 -569.929 -2339.976 -3644.875 -0.050 0.034 -0.097 -0.06 0.44 -0.9 0.05
1 1.97 197 0.699 -7.863 6.101 1.007 -2.960 -0.122 -524.958 -2384.946 -3599.905 -0.091 0.146 -0.090 -0.06 0.44 -0.9 0.05
1 1.98 198 0.771 -7.796 6.144 0.397 -2.258 -0.092 -524.958 -2384.946 -3599.905 -0.159 0.081 -0.131 -0.06 0.44 -0.9 0.05
1 1.99 199 0.661 -7.868 6.101 0.427 -2.838 0.244 -690.000 -2399.937 -3509.963 -0.046 0.155 -0.086 -0.06 0.44 -0.9 0.05
1 2.00 200 0.718 -7.930 6.192 0.671 -3.235 1.251 -524.958 -2459.897 -3389.892 -0.098 0.221 -0.172 -0.06 0.44 -0.9 0.05
1 2.01 201 0.771 -7.858 6.153 -0.031 -3.815 1.404 -524.958 -2459.897 -3389.892 -0.148 0.151 -0.132 -0.06 0.44 -0.9 0.05
1 2.02 202 0.948 -7.829 6.139 -0.458 -4.669 1.984 -749.961 -2414.927 -3569.924 -0.322 0.123 -0.118 -0.06 0.44 -0.9 0.05
1 2.03 203 0.963 -7.805 6.196 -0.275 -3.845 1.160 -539.948 -2399.937 -3554.934 -0.332 0.099 -0.175 -0.06 0.44 -0.9 0.05
1 2.04 204 0.924 -7.892 6.230 0.549 -2.075 1.404 -674.860 -2459.897 -3464.993 -0.290 0.187 -0.207 -0.06 0.44 -0.9 0.05
1 2.05 205 0.872 -7.954 6.125 1.495 1.099 1.892 -674.860 -2459.897 -3464.993 -0.236 0.251 -0.099 -0.06 0.43 -0.9 0.05
1 2.06 206 0.867 -7.858 6.134 1.648 3.235 2.899 -659.870 -2399.937 -3554.934 -0.232 0.158 -0.105 -0.06 0.43 -0.9 0.05
1 2.07 207 0.857 -8.002 6.235 1.404 3.418 3.326 -629.890 -2414.927 -3494.973 -0.227 0.304 -0.203 -0.06 0.43 -0.9 0.05
1 2.08 208 0.804 -7.863 6.110 1.740 2.441 3.418 -629.890 -2414.927 -3494.973 -0.183 0.169 -0.072 -0.06 0.43 -0.9 0.05
1 2.09 209 0.771 -7.949 6.187 1.434 0.122 4.028 -584.919 -2474.888 -3629.885 -0.154 0.258 -0.145 -0.06 0.43 -0.9 0.05
1 2.10 210 0.910 -7.892 6.144 1.801 -1.465 3.876 -509.968 -2444.907 -3629.885 -0.296 0.203 -0.099 -0.06 0.43 -0.9 0.05
1 2.11 211 0.790 -7.834 6.225 3.143 -2.869 4.150 -509.968 -2444.907 -3629.885 -0.177 0.148 -0.177 -0.06 0.43 -0.9 0.05
1 2.12 212 0.862 -7.839 6.129 3.967 -4.395 3.845 -629.890 -2414.927 -3599.905 -0.249 0.156 -0.076 -0.06 0.43 -0.9 0.05
1 2.13 213 0.881 -7.868 6.134 4.639 -4.730 4.334 -659.870 -2399.937 -3449.853 -0.267 0.190 -0.075 -0.06 0.43 -0.9 0.05
1 2.14 214 0.943 -7.748 6.163 5.524 -4.334 4.150 -539.948 -2474.888 -3509.963 -0.328 0.074 -0.098 -0.06 0.43 -0.9 0.05
1 2.15 215 0.934 -7.786 6.091 5.676 -3.143 4.761 -539.948 -2474.888 -3509.963 -0.318 0.118 -0.020 -0.06 0.43 -0.9 0.05
1 2.16 216 0.862 -7.633 5.986 5.646 -0.977 4.791 -629.890 -2384.946 -3494.973 -0.248 -0.023 0.101 -0.06 0.43 -0.9 0.05
1 2.17 217 0.886 -7.643 6.000 4.700 -0.641 5.157 -569.929 -2534.999 -3569.924 -0.275 -0.008 0.094 -0.06 0.43 -0.9 0.05
1 2.18 218 0.766 -7.858 6.010 3.693 -0.702 5.707 -569.929 -2534.999 -3569.924 -0.158 0.212 0.090 -0.06 0.43 -0.9 0.05
1 2.19 219 0.857 -7.796 6.034 2.441 -1.099 5.432 -599.909 -2414.927 -3539.944 -0.254 0.153 0.071 -0.06 0.43 -0.9 0.05
1 2.20 220 0.843 -7.825 6.101 1.312 -3.754 5.219 -524.958 -2459.897 -3539.944 -0.242 0.184 0.007 -0.06 0.43 -0.9 0.05
1 2.21 221 0.872 -7.858 6.158 1.892 -5.371 4.456 -569.929 -2459.897 -3599.905 -0.272 0.219 -0.049 -0.06 0.43 -0.9 0.05
1 2.22 222 1.063 -7.848 6.058 2.136 -5.493 4.608 -569.929 -2459.897 -3599.905 -0.462 0.211 0.053 -0.06 0.43 -0.9 0.05
1 2.23 223 0.986 -7.829 6.158 3.845 -5.737 3.998 -599.909 -2459.897 -3539.944 -0.380 0.197 -0.041 -0.06 0.43 -0.9 0.05
1 2.24 224 1.030 -7.868 6.139 4.761 -5.096 4.334 -599.909 -2459.897 -3539.944 -0.420 0.240 -0.017 -0.06 0.43 -0.9 0.05
1 2.25 225 0.824 -7.719 6.139 5.554 -4.669 5.096 -599.909 -2459.897 -3539.944 -0.212 0.096 -0.011 -0.06 0.43 -0.9 0.05
1 2.26 226 0.843 -7.825 6.216 5.219 -3.296 5.981 -659.870 -2519.858 -3479.983 -0.231 0.207 -0.081 -0.06 0.43 -0.9 0.05
1 2.27 227 0.713 -7.734 6.029 3.754 -3.387 6.500 -779.942 -2564.979 -3644.875 -0.104 0.121 0.113 -0.06 0.43 -0.9 0.05
1 2.28 228 0.723 -7.853 6.120 3.204 -4.272 5.981 -614.899 -2444.907 -3509.963 -0.116 0.245 0.027 -0.06 0.43 -0.9 0.05
1 2.29 229 0.709 -7.700 6.000 2.747 -5.890 5.188 -614.899 -2444.907 -3509.963 -0.104 0.095 0.151 -0.06 0.43 -0.9 0.05
1 2.30 230 0.795 -7.690 6.101 2.502 -8.637 5.219 -659.870 -2549.989 -3659.866 -0.189 0.090 0.056 -0.06 0.43 -0.9 0.05
1 2.31 231 0.776 -7.743 6.139 3.387 -9.338 4.730 -674.860 -2609.950 -3569.924 -0.165 0.145 0.021 -0.06 0.43 -0.9 0.05
1 2.32 232 0.862 -7.767 6.134 4.486 -10.407 4.150 -674.860 -2609.950 -3569.924 -0.247 0.173 0.030 -0.06 0.43 -0.9 0.06
1 2.33 233 0.939 -7.829 6.201 5.829 -10.651 4.608 -614.899 -2474.888 -3629.885 -0.317 0.240 -0.033 -0.06 0.43 -0.9 0.06
1 2.34 234 0.953 -7.805 6.302 7.141 -8.301 4.700 -569.929 -2459.897 -3599.905 -0.325 0.222 -0.126 -0.06 0.43 -0.9 0.06
1 2.35 235 0.742 -7.676 6.273 7.202 -6.775 3.113 -674.860 -2564.979 -3464.993 -0.110 0.100 -0.089 -0.06 0.42 -0.9 0.06
1 2.36 236 0.733 -7.595 6.398 6.592 -4.883 2.808 -674.860 -2564.979 -3464.993 -0.095 0.026 -0.205 -0.06 0.42 -0.9 0.06
1 2.37 237 0.709 -7.580 6.474 5.005 -3.510 1.740 -659.870 -2399.937 -3584.915 -0.067 0.027 -0.264 -0.06 0.42 -0.9 0.06
1 2.38 238 0.704 -7.532 6.450 4.883 -4.364 1.373 -569.929 -2489.878 -3674.856 -0.061 -0.015 -0.232 -0.06 0.42 -0.9 0.06
1 2.39 239 0.747 -7.422 6.474 3.937 -5.341 0.397 -569.929 -2489.878 -3674.856 -0.100 -0.118 -0.248 -0.06 0.42 -0.9 0.06
1 2.40 240 0.800 -7.446 6.297 4.334 -6.073 0.427 -629.890 -2564.979 -3569.924 -0.147 -0.089 -0.065 -0.06 0.42 -0.9 0.06
1 2.41 241 0.795 -7.350 6.359 5.219 -7.263 -0.214 -794.932 -2549.989 -3734.967 -0.135 -0.179 -0.121 -0.06 0.42 -0.9 0.06
1 2.42 242 0.776 -7.298 6.436 6.714 -7.141 -1.190 -704.991 -2459.897 -3599.905 -0.107 -0.224 -0.189 -0.06 0.42 -0.9 0.06
1 2.43 243 0.776 -7.231 6.354 7.751 -7.019 -1.831 -704.991 -2459.897 -3599.905 -0.098 -0.281 -0.098 -0.07 0.42 -0.9 0.06
1 2.44 244 0.613 -7.240 6.484 4.761 -6.104 -3.448 -584.919 -2549.989 -3509.963 0.085 -0.253 -0.207 -0.07 0.42 -0.9 0.06
1 2.45 245 0.680 -7.259 6.431 3.204 -5.920 -3.876 -674.860 -2564.979 -3494.973 0.028 -0.227 -0.147 -0.07 0.42 -0.9 0.06
1 2.46 246 0.757 -7.403 6.627 -1.373 -4.974 -3.723 -674.860 -2564.979 -3494.973 -0.039 -0.079 -0.339 -0.07 0.42 -0.9 0.06
1 2.47 247 0.541 -7.599 6.699 -3.662 -4.181 -3.571 -599.909 -2489.878 -3599.905 0.185 0.119 -0.410 -0.07 0.42 -0.9 0.06
1 2.48 248 0.838 -7.599 6.781 -3.632 -3.021 -2.075 -734.971 -2549.989 -3554.934 -0.106 0.118 -0.494 -0.07 0.42 -0.9 0.06
1 2.49 249 0.723 -7.820 6.843 -2.838 1.404 -2.441 -704.991 -2534.999 -3599.905 0.014 0.337 -0.557 -0.07 0.42 -0.9 0.06
1 2.50 250 0.886 -8.026 6.943 -0.641 5.676 -2.197 -704.991 -2534.999 -3599.905 -0.147 0.542 -0.659 -0.07 0.42 -0.9 0.06
1 2.51 251 0.852 -8.054 6.733 2.960 9.003 -2.258 -659.870 -2549.989 -3449.853 -0.115 0.572 -0.447 -0.07 0.42 -0.9 0.06
1 2.52 252 0.953 -7.987 6.991 8.240 13.641 -2.350 -690.000 -2624.940 -3509.963 -0.227 0.517 -0.690 -0.07 0.42 -0.9 0.05
1 2.53 253 0.828 -8.107 7.097 14.526 20.538 -2.289 -690.000 -2624.940 -3509.963 -0.113 0.648 -0.780 -0.06 0.42 -0.91 0.05
1 2.54 254 0.905 -8.069 7.001 19.165 25.330 -2.686 -599.909 -2534.999 -3539.944 -0.208 0.627 -0.663 -0.06 0.42 -0.91 0.05
1 2.55 255 0.881 -8.078 7.097 20.630 26.428 -3.479 -599.909 -2534.999 -3539.944 -0.205 0.657 -0.732 -0.06 0.41 -0.91 0.05
1 2.56 256 0.814 -7.935 7.063 18.982 27.649 -3.235 -674.860 -2729.872 -3674.856 -0.160 0.536 -0.670 -0.06 0.41 -0.91 0.05
1 2.57 257 0.579 -7.743 7.283 16.693 28.687 -3.540 -674.860 -2729.872 -3674.856 0.053 0.367 -0.863 -0.06 0.41 -0.91 0.05
1 2.58 258 0.781 -7.580 7.049 15.167 30.426 -4.608 -674.860 -2564.979 -3644.875 -0.172 0.224 -0.603 -0.06 0.41 -0.91 0.05
1 2.59 259 0.565 -7.528 6.891 14.923 34.210 -5.981 -704.991 -2564.979 -3644.875 -0.006 0.207 -0.399 -0.05 0.41 -0.91 0.05
1 2.60 260 0.321 -7.331 6.575 15.991 36.621 -7.111 -704.991 -2564.979 -3644.875 0.211 0.029 -0.061 -0.05 0.41 -0.91 0.04
1 2.61 261 0.110 -7.212 6.220 16.693 37.445 -8.545 -509.968 -2669.911 -3629.885 0.392 -0.073 0.316 -0.05 0.41 -0.91 0.04
1 2.62 262 0.043 -7.168 6.067 16.724 36.347 -9.399 -509.968 -2669.911 -3629.885 0.429 -0.098 0.492 -0.04 0.4 -0.91 0.04
1 2.63 263 -0.053 -7.111 5.861 17.059 33.905 -10.132 -539.948 -2774.992 -3554.934 0.497 -0.138 0.719 -0.04 0.4 -0.91 0.04
1 2.64 264 -0.316 -7.197 5.679 14.862 27.252 -13.641 -539.948 -2774.992 -3554.934 0.734 -0.035 0.920 -0.04 0.4 -0.91 0.04
1 2.65 265 -0.421 -7.403 5.665 13.855 23.804 -16.724 -419.876 -2654.920 -3719.977 0.819 0.185 0.952 -0.04 0.4 -0.91 0.04
1 2.66 266 -0.575 -7.499 5.938 12.756 20.569 -20.508 -299.955 -2654.920 -3569.924 0.960 0.294 0.693 -0.04 0.4 -0.91 0.03
1 2.67 267 -0.843 -7.829 6.005 11.383 18.311 -22.034 -299.955 -2654.920 -3569.924 1.217 0.646 0.651 -0.03 0.4 -0.92 0.03
1 2.68 268 -0.967 -7.987 5.919 10.712 17.029 -21.118 -599.909 -2804.973 -3674.856 1.338 0.813 0.747 -0.03 0.4 -0.92 0.03
1 2.69 269 -0.972 -7.949 5.809 12.238 15.015 -19.836 -599.909 -2804.973 -3674.856 1.339 0.783 0.866 -0.03 0.4 -0.92 0.03
1 2.70 270 -1.097 -7.959 5.746 14.648 11.139 -17.975 -449.857 -2684.901 -3644.875 1.461 0.802 0.938 -0.03 0.4 -0.92 0.02
1 2.71 271 -1.025 -7.906 5.828 18.921 3.723 -15.595 -449.857 -2684.901 -3644.875 1.388 0.760 0.869 -0.03 0.4 -0.92 0.02
1 2.72 272 -0.943 -8.265 6.388 22.736 -0.519 -11.871 -389.896 -2894.914 -3659.866 1.307 1.133 0.324 -0.03 0.4 -0.92 0.02
1 2.73 273 -0.532 -8.476 6.661 23.590 -1.251 -5.920 -359.916 -2699.891 -3509.963 0.898 1.362 0.070 -0.03 0.39 -0.92 0.02
1 2.74 274 -0.110 -8.346 6.584 16.907 4.944 6.470 -359.916 -2699.891 -3509.963 0.476 1.277 0.193 -0.03 0.39 -0.92 0.02
1 2.75 275 0.259 -7.877 6.254 11.444 12.573 11.200 -419.876 -2954.875 -3719.977 0.089 0.822 0.539 -0.03 0.39 -0.92 0.02
1 2.76 276 0.268 -7.681 6.201 12.726 18.219 8.637 -419.876 -2954.875 -3719.977 0.052 0.633 0.601 -0.03 0.39 -0.92 0.02
1 2.77 277 -0.048 -8.016 6.196 13.641 19.348 5.341 -344.925 -2954.875 -3569.924 0.340 0.978 0.617 -0.03 0.39 -0.92 0.02
1 2.78 278 -0.239 -8.308 6.235 1.312 18.616 6.866 -299.955 -2834.953 -3794.928 0.504 1.278 0.588 -0.02 0.39 -0.92 0.02
1 2.79 279 -0.306 -8.351 5.876 -6.897 16.388 9.888 -359.916 -2864.934 -3764.947 0.541 1.320 0.947 -0.02 0.39 -0.92 0.02
1 2.80 280 -0.450 -8.251 5.713 -9.247 11.780 9.674 -269.974 -2954.875 -3719.977 0.653 1.208 1.098 -0.02 0.39 -0.92 0.02
1 2.81 281 -0.560 -8.346 5.770 -1.434 5.035 10.010 -269.974 -2954.875 -3719.977 0.711 1.273 1.011 -0.02 0.39 -0.92 0.02
1 2.82 282 -0.661 -8.308 5.703 7.935 0.763 11.261 -254.984 -2864.934 -3704.986 0.791 1.228 1.072 -0.02 0.39 -0.92 0.02
1 2.83 283 -0.733 -8.126 5.603 15.625 -3.326 12.970 -254.984 -2864.934 -3704.986 0.844 1.049 1.176 -0.02 0.39 -0.92 0.02
1 2.84 284 -0.723 -7.973 5.670 21.637 -7.874 15.717 -164.893 -2804.973 -3644.875 0.818 0.907 1.120 -0.02 0.39 -0.92 0.03
1 2.85 285 -0.393 -7.590 5.598 25.086 -12.177 16.785 -374.906 -2879.924 -3569.924 0.473 0.540 1.209 -0.02 0.39 -0.92 0.03
1 2.86 286 -0.110 -7.192 5.473 25.055 -17.456 14.984 -284.964 -2939.885 -3584.915 0.182 0.164 1.355 -0.02 0.39 -0.92 0.03
1 2.87 287 -0.010 -7.068 5.694 21.637 -18.066 13.214 -344.925 -2954.875 -3539.944 0.080 0.061 1.157 -0.02 0.39 -0.92 0.03
1 2.88 288 -0.005 -7.020 5.689 14.008 -15.961 10.010 -344.925 -2954.875 -3539.944 0.083 0.048 1.198 -0.02 0.39 -0.92 0.03
1 2.89 289 -0.005 -7.145 5.871 8.545 -14.252 8.209 -269.974 -2879.924 -3719.977 0.089 0.183 1.026 -0.02 0.38 -0.92 0.03
1 2.90 290 -0.105 -7.303 5.933 4.181 -13.306 5.707 -269.974 -2879.924 -3719.977 0.197 0.345 0.968 -0.02 0.38 -0.92 0.03
1 2.91 291 -0.163 -7.394 5.976 1.678 -13.519 5.096 -164.893 -2984.855 -3749.957 0.261 0.436 0.924 -0.02 0.38 -0.92 0.04
1 2.92 292 -0.455 -7.350 5.794 -1.190 -14.008 5.188 -359.916 -2864.934 -3764.947 0.561 0.389 1.103 -0.02 0.38 -0.92 0.04
1 2.93 293 -0.666 -7.360 5.813 -2.960 -16.937 6.836 -389.896 -2939.885 -3704.986 0.777 0.393 1.078 -0.02 0.38 -0.92 0.04
1 2.94 294 -0.781 -7.389 5.698 -2.869 -19.989 8.179 -284.964 -2969.865 -3704.986 0.897 0.414 1.185 -0.02 0.39 -0.92 0.04
1 2.95 295 -0.919 -7.422 5.583 -3.296 -21.820 8.942 -284.964 -2969.865 -3704.986 1.042 0.440 1.292 -0.02 0.39 -0.92 0.04
1 2.96 296 -1.073 -7.264 5.469 -5.798 -22.766 10.040 -434.867 -2969.865 -3659.866 1.205 0.263 1.388 -0.02 0.39 -0.92 0.04
1 2.97 297 -1.063 -7.164 5.220 -8.637 -21.576 10.864 -434.867 -2969.865 -3659.866 1.200 0.152 1.625 -0.03 0.39 -0.92 0.04
1 2.98 298 -1.164 -7.149 5.066 -13.367 -19.623 10.498 -389.896 -2969.865 -3839.898 1.302 0.121 1.762 -0.03 0.39 -0.92 0.04
1 2.99 299 -1.125 -7.451 4.745 -19.409 -18.768 9.949 -509.968 -2864.934 -3704.986 1.263 0.401 2.060 -0.03 0.39 -0.92 0.05
1 3.00 300 -1.106 -7.853 5.358 -25.879 -19.409 9.644 -329.935 -2939.885 -3704.986 1.247 0.778 1.422 -0.03 0.39 -0.92 0.05
1 3.01 301 -0.828 -8.188 6.244 -25.818 -21.637 9.033 -494.978 -3029.976 -3749.957 0.969 1.080 0.500 -0.03 0.39 -0.92 0.05
1 3.02 302 -0.555 -8.505 7.930 -19.470 -22.461 7.172 -494.978 -3029.976 -3749.957 0.699 1.363 -1.221 -0.03 0.4 -0.92 0.05
1 3.03 303 0.096 -9.003 9.539 1.678 -14.435 7.507 -584.919 -2969.865 -3629.885 0.072 1.829 -2.865 -0.03 0.4 -0.92 0.05
1 3.04 304 1.202 -9.582 10.564 6.653 1.587 16.022 -584.919 -2969.865 -3629.885 -1.033 2.413 -3.884 -0.03 0.4 -0.92 0.05
1 3.05 305 2.121 -9.347 9.266 -2.625 19.745 28.748 -374.906 -2909.904 -3719.977 -1.980 2.184 -2.579 -0.03 0.4 -0.92 0.05
1 3.06 306 2.447 -8.346 7.346 -13.336 30.670 38.269 -494.978 -2909.904 -3749.957 -2.364 1.179 -0.663 -0.03 0.4 -0.92 0.05
1 3.07 307 2.303 -7.097 6.168 -16.724 29.602 35.065 -464.997 -2864.934 -3554.934 -2.294 -0.085 0.500 -0.02 0.4 -0.91 0.05
1 3.08 308 1.877 -6.790 5.651 -14.282 19.165 16.510 -434.867 -2864.934 -3704.986 -1.914 -0.408 0.999 -0.02 0.4 -0.91 0.06
1 3.09 309 1.470 -6.972 5.976 -19.257 16.632 9.979 -434.867 -2864.934 -3704.986 -1.533 -0.241 0.657 -0.02 0.4 -0.91 0.06
1 3.10 310 1.053 -6.967 6.412 -27.771 16.357 6.409 -344.925 -2879.924 -3674.856 -1.133 -0.265 0.201 -0.02 0.4 -0.91 0.06
1 3.11 311 0.388 -7.413 7.130 -37.628 12.970 -1.495 -344.925 -2879.924 -3674.856 -0.492 0.123 -0.582 -0.02 0.41 -0.91 0.05
1 3.12 312 -0.062 -7.916 7.532 -44.800 12.512 -9.094 -284.964 -2864.934 -3734.967 -0.047 0.589 -1.025 -0.02 0.41 -0.91 0.05
1 3.13 313 -0.378 -8.663 8.212 -58.991 16.022 -14.526 -329.935 -2744.862 -3584.915 0.270 1.290 -1.757 -0.02 0.41 -0.91 0.05
1 3.14 314 -0.924 -9.524 8.634 -74.921 22.797 -15.930 -359.916 -2864.934 -3764.947 0.815 2.091 -2.249 -0.02 0.42 -0.91 0.05
1 3.15 315 -1.393 -9.735 8.179 -90.271 31.128 -11.169 -449.857 -2654.920 -3464.993 1.278 2.225 -1.884 -0.02 0.42 -0.9 0.05
1 3.16 316 -1.963 -9.534 7.264 -85.266 28.107 -9.155 -449.857 -2654.920 -3464.993 1.833 1.939 -1.072 -0.01 0.43 -0.9 0.05
1 3.17 317 -2.322 -9.070 6.522 -63.904 17.487 -7.355 -269.974 -2534.999 -3569.924 2.176 1.393 -0.432 -0.01 0.43 -0.9 0.04
1 3.18 318 -2.586 -8.165 5.809 -10.498 -10.986 -8.270 -269.974 -2534.999 -3569.924 2.435 0.388 0.154 -0.01 0.44 -0.9 0.04
1 3.19 319 -2.136 -7.461 5.492 30.823 -37.293 -7.111 -284.964 -2444.907 -3584.915 1.992 -0.317 0.469 -0.01 0.44 -0.9 0.04
1 3.20 320 -1.240 -6.656 5.234 69.947 -64.270 -2.228 -359.916 -2549.989 -3449.853 1.128 -1.084 0.776 -0.01 0.44 -0.9 0.04
1 3.21 321 -0.359 -5.751 5.483 100.342 -85.236 5.707 -359.916 -2549.989 -3449.853 0.306 -1.915 0.622 -0.02 0.43 -0.9 0.04
1 3.22 322 1.307 -4.693 6.220 114.167 -88.166 13.763 -359.916 -2519.858 -3509.963 -1.286 -2.872 0.009 -0.02 0.43 -0.9 0.05
1 3.23 323 2.102 -4.276 6.891 99.671 -66.254 14.557 -359.916 -2519.858 -3509.963 -2.009 -3.178 -0.529 -0.03 0.42 -0.91 0.05
1 3.24 324 2.615 -4.238 7.829 68.939 -29.297 12.695 -494.978 -2609.950 -3644.875 -2.467 -3.112 -1.349 -0.03 0.41 -0.91 0.06
1 3.25 325 2.753 -4.635 8.552 -1.068 30.701 12.817 -494.978 -2609.950 -3644.875 -2.568 -2.575 -1.918 -0.04 0.4 -0.91 0.06
1 3.26 326 2.284 -5.660 8.993 -54.535 58.716 15.869 -599.909 -2879.924 -3569.924 -2.134 -1.548 -2.355 -0.03 0.4 -0.91 0.06
1 3.27 327 1.695 -6.603 8.524 -100.739 67.291 21.545 -494.978 -2804.973 -3494.973 -1.619 -0.663 -1.949 -0.03 0.4 -0.91 0.06
1 3.28 328 1.259 -7.279 7.786 -128.266 54.444 27.100 -494.978 -2804.973 -3494.973 -1.274 -0.097 -1.333 -0.02 0.41 -0.91 0.05
1 3.29 329 0.690 -7.839 6.340 -117.890 11.780 29.389 -509.968 -2774.992 -3704.986 -0.779 0.341 -0.031 -0.02 0.42 -0.9 0.05
1 3.30 330 1.010 -7.925 5.756 -80.231 -15.259 24.811 -509.968 -2774.992 -3704.986 -1.144 0.313 0.415 -0.02 0.43 -0.9 0.06
1 3.31 331 1.197 -7.892 5.497 -30.762 -32.044 17.517 -449.857 -2564.979 -3569.924 -1.346 0.195 0.568 -0.02 0.44 -0.9 0.06
1 3.32 332 1.518 -7.801 5.607 38.269 -32.929 8.575 -449.857 -2564.979 -3569.924 -1.625 0.068 0.412 -0.02 0.44 -0.9 0.06
1 3.33 333 1.628 -7.489 5.919 55.359 -27.039 5.493 -449.857 -2564.979 -3569.924 -1.703 -0.200 0.157 -0.03 0.44 -0.9 0.06
1 3.34 334 1.106 -6.805 6.503 80.750 -4.822 -3.479 -449.857 -2534.999 -3419.872 -1.155 -0.814 -0.339 -0.03 0.43 -0.9 0.06
1 3.35 335 0.421 -6.632 6.675 73.731 6.256 -8.453 -449.857 -2534.999 -3419.872 -0.453 -0.906 -0.413 -0.03 0.42 -0.9 0.06
1 3.36 336 -0.230 -6.316 6.896 48.462 7.660 -10.651 -389.896 -2669.911 -3554.934 0.206 -1.151 -0.549 -0.03 0.42 -0.91 0.06
1 3.37 337 -0.982 -6.747 6.963 -9.827 -9.888 -9.369 -389.896 -2669.911 -3554.934 0.964 -0.676 -0.564 -0.03 0.42 -0.91 0.06
1 3.38 338 -0.991 -7.106 6.963 -46.784 -27.924 -6.409 -614.899 -2699.891 -3479.983 0.985 -0.309 -0.556 -0.03 0.42 -0.91 0.06
1 3.39 339 -0.709 -7.676 6.647 -69.214 -45.288 -5.341 -614.899 -2699.891 -3479.983 0.725 0.229 -0.277 -0.03 0.42 -0.91 0.06
1 3.40 340 0.584 -8.691 6.565 -63.629 -59.479 -4.730 -569.929 -2879.924 -3494.973 -0.476 1.118 -0.347 -0.03 0.43 -0.9 0.06
1 3.41 341 1.341 -8.921 6.326 -37.262 -57.831 -5.981 -584.919 -2774.992 -3554.934 -1.170 1.293 -0.175 -0.04 0.43 -0.9 0.06
1 3.42 342 1.997 -9.022 6.240 -4.395 -49.317 -7.080 -584.919 -2774.992 -3554.934 -1.766 1.368 -0.124 -0.04 0.43 -0.9 0.06
1 3.43 343 2.279 -8.730 6.297 24.048 -37.323 -6.439 -659.870 -2624.940 -3479.983 -1.996 1.080 -0.178 -0.05 0.43 -0.9 0.06
1 3.44 344 2.332 -8.279 6.508 45.288 -18.494 -4.242 -629.890 -2489.878 -3494.973 -2.010 0.659 -0.354 -0.05 0.43 -0.9 0.07
1 3.45 345 2.136 -7.801 6.493 43.213 -9.399 -2.930 -779.942 -2534.999 -3419.872 -1.780 0.222 -0.290 -0.05 0.43 -0.9 0.07
1 3.46 346 1.690 -7.614 6.613 32.257 -5.402 -1.434 -779.942 -2534.999 -3419.872 -1.306 0.079 -0.359 -0.05 0.42 -0.9 0.07
1 3.47 347 1.432 -7.384 6.560 13.214 -5.920 -1.007 -779.942 -2684.901 -3389.892 -1.012 -0.091 -0.236 -0.05 0.42 -0.9 0.07
1 3.48 348 1.355 -7.279 6.283 5.829 -8.667 -0.397 -690.000 -2699.891 -3554.934 -0.920 -0.183 0.056 -0.05 0.42 -0.91 0.07
1 3.49 349 1.513 -7.212 6.139 2.563 -11.810 -4.150 -690.000 -2699.891 -3554.934 -1.060 -0.243 0.207 -0.06 0.42 -0.91 0.07
1 3.50 350 1.595 -7.346 5.995 5.951 -12.421 -5.249 -734.971 -2624.940 -3509.963 -1.117 -0.104 0.354 -0.06 0.42 -0.91 0.06
1 3.51 351 1.614 -7.336 5.976 12.573 -9.796 -5.554 -914.854 -2669.911 -3584.915 -1.110 -0.105 0.381 -0.06 0.42 -0.91 0.06
1 3.52 352 1.652 -7.154 5.919 23.224 -0.977 -5.798 -779.942 -2654.920 -3569.924 -1.126 -0.272 0.454 -0.06 0.41 -0.91 0.06
1 3.53 353 1.599 -7.073 5.876 26.215 4.639 -6.958 -779.942 -2654.920 -3569.924 -1.057 -0.332 0.521 -0.06 0.41 -0.91 0.06
1 3.54 354 1.461 -7.006 5.986 25.452 8.881 -7.782 -869.883 -2699.891 -3449.853 -0.905 -0.373 0.440 -0.06 0.41 -0.91 0.06
1 3.55 355 1.379 -7.097 6.000 22.705 9.369 -7.751 -764.952 -2699.891 -3554.934 -0.810 -0.230 0.484 -0.06 0.41 -0.91 0.06
1 3.56 356 1.240 -7.168 5.900 18.616 6.256 -9.094 -764.952 -2699.891 -3554.934 -0.664 -0.135 0.609 -0.06 0.41 -0.91 0.06
1 3.57 357 1.379 -7.087 5.919 14.435 2.594 -10.345 -779.942 -2729.872 -3494.973 -0.793 -0.198 0.610 -0.06 0.4 -0.91 0.06
1 3.58 358 1.484 -7.130 5.947 11.047 1.251 -10.223 -704.991 -2759.852 -3464.993 -0.882 -0.141 0.595 -0.06 0.4 -0.91 0.06
1 3.59 359 1.705 -7.049 5.689 6.378 4.242 -10.803 -764.952 -2864.934 -3449.853 -1.086 -0.211 0.865 -0.06 0.4 -0.91 0.06
1 3.60 360 1.599 -7.058 5.708 4.608 9.857 -12.024 -764.952 -2864.934 -3449.853 -0.965 -0.194 0.852 -0.06 0.4 -0.91 0.06
1 3.61 361 1.532 -7.111 5.478 3.387 16.022 -13.763 -749.961 -2834.953 -3599.905 -0.885 -0.136 1.087 -0.06 0.4 -0.91 0.06
1 3.62 362 1.235 -7.087 5.392 0.458 21.942 -16.998 -794.932 -2894.914 -3584.915 -0.576 -0.154 1.179 -0.06 0.4 -0.91 0.05
1 3.63 363 1.159 -7.264 5.512 -3.448 22.461 -18.677 -794.932 -2894.914 -3584.915 -0.498 0.023 1.058 -0.06 0.4 -0.91 0.05
1 3.64 364 0.895 -7.542 5.531 -7.355 19.043 -19.959 -824.913 -2759.852 -3464.993 -0.231 0.296 1.033 -0.06 0.4 -0.91 0.05
1 3.65 365 0.809 -7.638 5.622 -13.245 13.153 -18.677 -704.991 -2759.852 -3419.872 -0.138 0.381 0.930 -0.06 0.4 -0.91 0.05
1 3.66 366 0.862 -8.021 5.694 -18.707 4.059 -16.571 -779.942 -2834.953 -3389.892 -0.179 0.749 0.840 -0.06 0.4 -0.91 0.05
1 3.67 367 1.058 -8.011 5.718 -19.806 -0.977 -15.350 -779.942 -2834.953 -3389.892 -0.360 0.719 0.793 -0.06 0.41 -0.91 0.04
1 3.68 368 1.480 -8.002 5.694 -18.555 -4.639 -14.771 -764.952 -2744.862 -3374.901 -0.762 0.688 0.790 -0.06 0.41 -0.91 0.04
1 3.69 369 1.954 -8.021 5.483 -18.341 -4.791 -15.961 -734.971 -2699.891 -3479.983 -1.184 0.666 0.948 -0.06 0.41 -0.91 0.04
1 3.70 370 2.188 -8.097 5.430 -20.020 -0.214 -17.273 -734.971 -2699.891 -3479.983 -1.388 0.723 0.974 -0.06 0.41 -0.91 0.04
1 3.71 371 2.361 -8.040 5.215 -22.736 8.484 -17.914 -704.991 -2834.953 -3539.944 -1.533 0.643 1.160 -0.06 0.41 -0.91 0.04
1 3.72 372 2.184 -8.155 5.085 -26.215 18.219 -16.907 -779.942 -2684.901 -3599.905 -1.335 0.733 1.257 -0.06 0.41 -0.91 0.04
1 3.73 373 2.083 -8.370 5.382 -28.229 25.452 -15.106 -779.942 -2684.901 -3359.911 -1.225 0.920 0.925 -0.06 0.42 -0.91 0.03
1 3.74 374 1.642 -8.634 8.011 -18.189 15.717 -9.460 -779.942 -2684.901 -3359.911 -0.782 1.154 -1.739 -0.06 0.42 -0.9 0.03
1 3.75 375 1.101 -9.275 9.807 -6.805 -0.061 -9.033 -854.893 -2729.872 -3599.905 -0.244 1.776 -3.557 -0.06 0.42 -0.9 0.03
1 3.76 376 0.570 -9.960 10.477 -32.929 -29.389 -23.590 -659.870 -2669.911 -3554.934 0.326 2.447 -4.249 -0.06 0.42 -0.9 0.03
1 3.77 377 0.752 -9.970 9.328 -53.589 -38.452 -26.642 -659.870 -2669.911 -3554.934 0.206 2.420 -3.153 -0.07 0.42 -0.9 0.03
1 3.78 378 0.364 -9.726 7.667 -88.043 -27.496 -20.386 -764.952 -2549.989 -3449.853 0.660 2.107 -1.588 -0.07 0.43 -0.9 0.03
1 3.79 379 -0.158 -10.042 7.097 -72.968 1.434 -15.076 -929.994 -2804.973 -3389.892 1.224 2.348 -1.120 -0.07 0.44 -0.9 0.03
1 3.80 380 -0.603 -10.516 6.383 -51.697 25.543 -10.162 -749.961 -2609.950 -3494.973 1.678 2.764 -0.484 -0.07 0.44 -0.89 0.03
1 3.81 381 -0.843 -10.707 5.617 -33.539 27.710 9.186 -749.961 -2609.950 -3494.973 1.902 2.915 0.231 -0.07 0.44 -0.89 0.03
1 3.82 382 -0.781 -9.888 5.583 -17.059 18.890 21.790 -674.860 -2384.946 -3314.940 1.807 2.064 0.228 -0.07 0.45 -0.89 0.03
1 3.83 383 -0.311 -9.094 6.010 6.226 13.336 29.633 -779.942 -2309.995 -3209.859 1.297 1.249 -0.220 -0.07 0.45 -0.89 0.03
1 3.84 384 0.383 -8.136 6.747 33.722 9.125 33.478 -779.942 -2309.995 -3209.859 0.503 0.304 -0.923 -0.07 0.45 -0.89 0.03
1 3.85 385 0.728 -7.734 7.480 40.466 5.219 33.478 -569.929 -2219.904 -3389.892 0.106 -0.068 -1.607 -0.06 0.44 -0.89 0.03
1 3.86 386 0.886 -7.283 7.757 38.117 -1.190 28.992 -704.991 -2489.878 -3389.892 -0.096 -0.479 -1.828 -0.06 0.44 -0.9 0.03
1 3.87 387 1.039 -6.795 8.131 29.724 -5.402 18.799 -704.991 -2489.878 -3389.892 -0.279 -0.930 -2.148 -0.06 0.44 -0.9 0.04
1 3.88 388 1.111 -6.058 7.882 14.465 -6.866 1.831 -854.893 -2459.897 -3389.892 -0.362 -1.633 -1.854 -0.06 0.43 -0.9 0.04
1 3.89 389 1.125 -5.387 7.700 8.362 -1.343 -5.310 -599.909 -2489.878 -3314.940 -0.372 -2.276 -1.638 -0.06 0.43 -0.9 0.04
1 3.90 390 1.044 -4.990 7.283 6.500 6.470 -2.716 -614.899 -2549.989 -3374.901 -0.280 -2.650 -1.194 -0.06 0.43 -0.9 0.04
1 3.91 391 1.111 -4.607 7.030 17.548 24.201 9.338 -614.899 -2549.989 -3374.901 -0.359 -2.996 -0.892 -0.06 0.43 -0.9 0.04
1 3.92 392 0.919 -3.678 6.249 32.379 40.772 13.977 -690.000 -2549.989 -3299.950 -0.208 -3.905 -0.082 -0.06 0.43 -0.9 0.04
1 3.93 393 0.723 -3.213 5.818 43.549 52.765 15.259 -824.913 -2534.999 -3464.993 -0.070 -4.337 0.396 -0.06 0.42 -0.9 0.04
1 3.94 394 0.182 -2.955 5.473 45.502 57.373 12.970 -824.913 -2534.999 -3464.993 0.402 -4.553 0.799 -0.05 0.42 -0.9 0.04
1 3.95 395 -0.268 -3.113 5.258 34.302 49.683 5.341 -764.952 -2474.888 -3299.950 0.784 -4.352 1.071 -0.05 0.42 -0.91 0.04
1 3.96 396 -1.020 -4.300 5.775 -7.507 12.756 -15.289 -674.860 -2654.920 -3419.872 1.488 -3.135 0.592 -0.04 0.42 -0.91 0.04
1 3.97 397 -1.240 -6.014 6.603 -49.042 -20.722 -34.241 -599.909 -2564.979 -3359.911 1.700 -1.418 -0.232 -0.04 0.42 -0.91 0.04
1 3.98 398 -1.063 -8.188 7.628 -90.882 -46.753 -50.781 -599.909 -2564.979 -3359.911 1.568 0.723 -1.300 -0.04 0.42 -0.91 0.03
1 3.99 399 -0.417 -10.851 9.017 -124.176 -48.371 -51.026 -584.919 -2669.911 -3404.882 1.116 3.215 -2.914 -0.05 0.43 -0.9 0.03
1 4.00 400 -0.148 -11.191 8.595 -103.455 -26.733 -37.018 -659.870 -2624.940 -3254.979 0.945 3.449 -2.640 -0.06 0.44 -0.9 0.03
1 4.01 401 -0.220 -10.889 7.403 -47.852 -1.495 -21.576 -659.870 -2624.940 -3254.979 1.074 3.070 -1.557 -0.06 0.44 -0.89 0.03
1 4.02 402 -0.417 -10.090 6.086 22.095 12.756 -7.660 -704.991 -2309.995 -3389.892 1.290 2.247 -0.275 -0.06 0.45 -0.89 0.03
1 4.03 403 -0.484 -8.380 4.865 108.155 2.808 7.233 -614.899 -2399.937 -3404.882 1.351 0.574 0.996 -0.06 0.44 -0.89 0.02
1 4.04 404 -0.053 -7.398 4.927 135.041 -15.442 12.695 -794.932 -2444.907 -3329.931 0.903 -0.323 1.047 -0.06 0.44 -0.9 0.03
1 4.05 405 0.517 -6.666 5.334 132.813 -31.372 12.177 -794.932 -2444.907 -3329.931 0.320 -0.942 0.786 -0.06 0.43 -0.9 0.03
1 4.06 406 1.571 -5.636 6.498 78.278 -34.973 6.683 -659.870 -2549.989 -3224.999 -0.701 -1.737 -0.102 -0.06 0.41 -0.91 0.03
1 4.07 407 1.901 -5.507 7.370 16.907 -22.034 0.885 -734.971 -2594.959 -3224.999 -1.005 -1.803 -0.904 -0.07 0.41 -0.91 0.04
1 4.08 408 1.973 -5.986 7.820 -42.145 0.519 -6.683 -734.971 -2594.959 -3224.999 -1.052 -1.313 -1.345 -0.07 0.41 -0.91 0.04
1 4.09 409 1.686 -6.761 7.983 -78.797 25.452 -13.428 -749.961 -2684.901 -3359.911 -0.754 -0.576 -1.554 -0.07 0.41 -0.91 0.03
1 4.10 410 0.532 -8.327 7.274 -82.520 52.399 -15.717 -764.952 -2699.891 -3449.853 0.392 0.921 -0.923 -0.07 0.41 -0.91 0.03
1 4.11 411 -0.503 -8.811 6.311 -59.265 56.397 -10.956 -914.854 -2894.914 -3374.901 1.399 1.329 -0.046 -0.06 0.42 -0.9 0.03
1 4.12 412 -1.216 -9.055 5.421 -26.886 49.713 -3.937 -914.854 -2894.914 -3374.901 2.073 1.513 0.778 -0.06 0.42 -0.9 0.03
1 4.13 413 -1.657 -8.782 4.540 15.686 20.172 4.578 -569.929 -2414.927 -3359.911 2.411 1.194 1.616 -0.05 0.43 -0.9 0.02
1 4.14 414 -1.887 -8.174 4.429 31.616 -4.639 7.935 -674.860 -2564.979 -3359.911 2.603 0.595 1.742 -0.05 0.43 -0.9 0.03
1 4.15 415 -1.494 -7.901 4.832 38.330 -26.856 9.888 -674.860 -2564.979 -3359.911 2.191 0.345 1.370 -0.05 0.43 -0.9 0.03
1 4.16 416 -0.915 -7.815 5.607 39.826 -40.436 9.277 -629.890 -2564.979 -3389.892 1.613 0.288 0.630 -0.05 0.42 -0.9 0.03
1 4.17 417 -0.345 -7.796 6.254 38.086 -41.962 8.240 -674.860 -2534.999 -3464.993 1.060 0.302 0.021 -0.06 0.42 -0.91 0.03
1 4.18 418 0.110 -7.753 6.896 30.457 -26.398 9.735 -869.883 -2699.891 -3254.979 0.625 0.293 -0.583 -0.06 0.42 -0.91 0.03
1 4.19 419 0.196 -7.748 6.536 26.032 -13.672 10.773 -869.883 -2699.891 -3254.979 0.551 0.319 -0.189 -0.06 0.42 -0.91 0.04
1 4.20 420 -0.053 -7.667 5.765 23.621 -6.409 14.526 -779.942 -2564.979 -3314.940 0.787 0.286 0.640 -0.06 0.41 -0.91 0.04
1 4.21 421 -0.196 -7.628 5.646 23.834 -8.209 15.320 -764.952 -2669.911 -3254.979 0.915 0.268 0.785 -0.06 0.41 -0.91 0.04
1 4.22 422 -0.220 -7.192 4.860 26.215 -22.125 17.487 -764.952 -2669.911 -3254.979 0.929 -0.149 1.593 -0.06 0.41 -0.91 0.04
1 4.23 423 -0.115 -6.881 4.908 28.595 -30.090 16.235 -749.961 -2759.852 -3539.944 0.824 -0.437 1.571 -0.06 0.41 -0.91 0.05
1 4.24 424 0.168 -6.805 4.947 27.527 -34.302 13.672 -584.919 -2774.992 -3329.931 0.556 -0.485 1.564 -0.06 0.4 -0.91 0.05
1 4.25 425 0.421 -6.503 5.430 14.984 -28.656 10.162 -794.932 -3014.986 -3449.853 0.321 -0.761 1.107 -0.06 0.4 -0.91 0.05
1 4.26 426 0.570 -6.651 5.718 3.052 -19.592 6.348 -794.932 -3014.986 -3449.853 0.192 -0.594 0.837 -0.07 0.4 -0.91 0.05
1 4.27 427 0.388 -6.905 6.024 -8.606 -9.888 3.021 -764.952 -2864.934 -3374.901 0.388 -0.333 0.537 -0.07 0.4 -0.91 0.05
1 4.28 428 -0.120 -7.413 6.101 -22.247 1.312 0.092 -734.971 -2819.963 -3329.931 0.900 0.153 0.436 -0.07 0.4 -0.91 0.05
1 4.29 429 -0.254 -7.724 6.014 -27.557 4.974 0.214 -734.971 -2819.963 -3329.931 1.026 0.440 0.496 -0.07 0.4 -0.91 0.05
1 4.30 430 -0.503 -7.939 5.746 -30.396 5.707 1.221 -764.952 -2864.934 -3329.931 1.261 0.626 0.732 -0.07 0.41 -0.91 0.05
1 4.31 431 -0.388 -8.246 5.248 -30.304 3.448 3.479 -764.952 -2864.934 -3329.931 1.130 0.898 1.194 -0.07 0.41 -0.91 0.05
1 4.32 432 -0.436 -8.327 4.769 -23.407 -2.899 3.998 -764.952 -2744.862 -3329.931 1.162 0.944 1.634 -0.07 0.41 -0.91 0.05
1 4.33 433 -0.321 -8.332 4.745 -16.571 -8.270 4.364 -764.952 -2744.862 -3329.931 1.036 0.918 1.623 -0.07 0.41 -0.91 0.06
1 4.34 434 -0.091 -8.433 4.674 -10.407 -13.123 4.425 -824.913 -2909.904 -3359.911 0.800 0.992 1.664 -0.07 0.42 -0.91 0.06
1 4.35 435 0.287 -8.634 4.927 -10.559 -19.592 6.348 -899.864 -2729.872 -3419.872 0.426 1.155 1.365 -0.07 0.42 -0.9 0.06
1 4.36 436 0.306 -8.591 5.215 -14.618 -22.858 6.928 -899.864 -2729.872 -3419.872 0.415 1.093 1.054 -0.07 0.42 -0.9 0.06
1 4.37 437 0.158 -8.744 7.111 -12.909 -28.626 3.876 -944.984 -2669.911 -3374.901 0.576 1.224 -0.870 -0.07 0.42 -0.9 0.06
1 4.38 438 0.565 -8.840 9.932 6.378 -33.264 -2.838 -944.984 -2669.911 -3374.901 0.192 1.309 -3.706 -0.07 0.42 -0.9 0.06
1 4.39 439 1.446 -9.812 12.273 31.525 -24.933 -5.066 -914.854 -2864.934 -3299.950 -0.654 2.295 -6.036 -0.07 0.42 -0.9 0.06
1 4.40 440 3.208 -10.750 12.920 18.189 18.738 18.463 -914.854 -2864.934 -3299.950 -2.394 3.268 -6.643 -0.08 0.42 -0.9 0.06
1 4.41 441 3.793 -10.248 10.147 -11.932 53.467 44.251 -839.903 -2669.911 -3329.931 -3.002 2.790 -3.839 -0.07 0.42 -0.9 0.06
1 4.42 442 3.836 -9.065 7.049 -26.947 69.153 54.230 -974.965 -2684.901 -3314.940 -3.133 1.599 -0.739 -0.07 0.42 -0.9 0.07
1 4.43 443 2.782 -7.719 4.578 -34.302 48.340 32.654 -974.965 -2684.901 -3314.940 -2.319 0.192 1.681 -0.06 0.42 -0.9 0.07
1 4.44 444 1.982 -7.614 4.966 -34.668 29.907 11.749 -989.955 -2744.862 -3194.869 -1.573 0.047 1.249 -0.06 0.42 -0.9 0.07
1 4.45 445 1.168 -7.753 5.478 -31.006 18.036 -5.219 -989.955 -2744.862 -3194.869 -0.779 0.150 0.694 -0.05 0.43 -0.9 0.07
1 4.46 446 0.445 -7.906 6.225 -23.682 5.829 -14.679 -704.991 -2684.901 -3389.892 -0.053 0.274 -0.090 -0.05 0.43 -0.9 0.07
1 4.47 447 -0.249 -8.160 7.403 -10.895 -7.172 -24.536 -704.991 -2684.901 -3389.892 0.660 0.509 -1.293 -0.05 0.43 -0.9 0.07
1 4.48 448 -0.474 -8.246 8.442 -13.123 -6.409 -26.550 -690.000 -2669.911 -3254.979 0.915 0.588 -2.343 -0.06 0.43 -0.9 0.06
1 4.49 449 -0.589 -8.423 9.194 -28.259 5.798 -23.621 -749.961 -2684.901 -3164.888 1.068 0.758 -3.107 -0.06 0.43 -0.9 0.06
1 4.50 450 -0.833 -8.069 9.084 -65.399 33.600 -5.951 -749.961 -2684.901 -3164.888 1.341 0.343 -3.075 -0.06 0.44 -0.9 0.06
1 4.51 451 -1.001 -7.566 8.299 -82.794 45.044 9.155 -749.961 -2654.920 -3209.859 1.477 -0.223 -2.370 -0.06 0.44 -0.89 0.06
1 4.52 452 -1.293 -6.766 6.948 -83.832 43.854 20.630 -749.961 -2654.920 -3209.859 1.714 -1.098 -1.116 -0.05 0.45 -0.89 0.06
1 4.53 453 -1.571 -5.904 5.967 -65.918 30.884 27.924 -690.000 -2519.858 -3299.950 1.915 -2.025 -0.217 -0.05 0.45 -0.89 0.06
1 4.54 454 -1.456 -4.602 4.712 -7.996 4.547 26.520 -629.890 -2459.897 -3284.960 1.736 -3.375 0.974 -0.05 0.46 -0.89 0.06
1 4.55 455 -1.063 -3.807 4.362 40.589 -13.489 18.097 -704.991 -2459.897 -3164.888 1.302 -4.186 1.302 -0.04 0.46 -0.89 0.06
1 4.56 456 -0.388 -3.247 4.037 86.914 -29.999 8.850 -690.000 -2324.985 -3224.999 0.610 -4.722 1.664 -0.04 0.46 -0.89 0.06
1 4.57 457 0.977 -3.132 4.645 127.686 -41.016 -1.648 -690.000 -2324.985 -3224.999 -0.714 -4.666 1.285 -0.05 0.44 -0.89 0.06
1 4.58 458 1.753 -3.567 5.818 122.498 -31.952 -4.150 -690.000 -2324.985 -3149.898 -1.450 -4.111 0.264 -0.05 0.43 -0.9 0.07
1 4.59 459 2.380 -4.587 7.504 89.020 -8.759 -3.510 -690.000 -2324.985 -3149.898 -2.046 -2.980 -1.285 -0.05 0.42 -0.9 0.07
1 4.60 460 2.710 -6.172 9.098 24.872 26.337 2.747 -794.932 -2474.888 -3224.999 -2.366 -1.314 -2.783 -0.05 0.42 -0.9 0.07
1 4.61 461 2.629 -8.366 10.559 -68.238 59.876 15.137 -674.860 -2564.979 -3359.911 -2.316 0.891 -4.229 -0.05 0.42 -0.9 0.07
1 4.62 462 1.116 -10.123 9.955 -202.820 77.942 29.602 -704.991 -2654.920 -3239.989 -0.887 2.558 -3.730 -0.04 0.42 -0.9 0.06
1 4.63 463 0.005 -10.382 7.623 -215.974 65.644 26.184 -674.860 -2684.901 -3389.892 0.117 2.643 -1.612 -0.04 0.44 -0.9 0.06
1 4.64 464 -0.680 -10.133 4.267 -99.091 19.592 11.139 -674.860 -2684.901 -3389.892 0.643 2.051 1.276 -0.03 0.47 -0.88 0.06
1 4.65 465 -0.613 -9.730 3.663 -43.244 0.122 6.928 -494.978 -2459.897 -3239.989 0.557 1.589 1.792 -0.03 0.47 -0.88 0.06
1 4.66 466 0.287 -8.720 3.793 104.828 -44.953 0.854 -494.978 -2459.897 -3239.989 -0.328 0.601 1.696 -0.03 0.47 -0.88 0.06
1 4.67 467 0.843 -7.777 4.635 159.302 -52.307 -1.099 -629.890 -2459.897 -3134.908 -0.842 -0.246 0.993 -0.03 0.46 -0.88 0.06
1 4.68 468 1.580 -6.603 6.340 157.715 -31.464 -2.655 -690.000 -2249.884 -3194.869 -1.528 -1.279 -0.517 -0.04 0.45 -0.89 0.07
1 4.69 469 1.566 -5.732 7.221 110.413 -8.850 -4.974 -674.860 -2459.897 -3059.957 -1.467 -2.001 -1.202 -0.04 0.44 -0.9 0.07
1 4.70 470 0.876 -5.181 7.729 39.795 9.033 -7.996 -734.971 -2474.888 -3254.979 -0.748 -2.429 -1.555 -0.04 0.43 -0.9 0.07
1 4.71 471 0.268 -5.368 7.667 -34.454 15.045 -9.888 -734.971 -2474.888 -3254.979 -0.127 -2.174 -1.411 -0.04 0.42 -0.9 0.07
1 4.72 472 -0.350 -6.503 6.575 -109.558 -0.244 -8.789 -584.919 -2774.992 -3254.979 0.494 -1.104 -0.398 -0.04 0.43 -0.9 0.06
1 4.73 473 -0.239 -7.872 5.612 -119.385 -17.822 -8.881 -584.919 -2774.992 -3254.979 0.395 0.166 0.439 -0.04 0.44 -0.9 0.06
1 4.74 474 0.292 -9.003 5.133 -97.138 -33.630 -9.552 -734.971 -2699.891 -3194.869 -0.110 1.191 0.782 -0.04 0.44 -0.89 0.06
1 4.75 475 1.049 -9.841 4.971 -51.392 -39.520 -10.040 -674.860 -2609.950 -3239.989 -0.823 1.948 0.834 -0.05 0.45 -0.89 0.06
1 4.76 476 1.901 -9.941 5.550 27.588 -25.116 -6.470 -614.899 -2519.858 -3149.898 -1.629 2.016 0.209 -0.05 0.45 -0.89 0.06
1 4.77 477 2.088 -9.347 5.952 66.071 -5.707 -2.838 -749.961 -2534.999 -3239.989 -1.781 1.438 -0.175 -0.05 0.45 -0.89 0.07
1 4.78 478 1.997 -8.461 6.354 84.259 13.092 1.587 -749.961 -2534.999 -3239.989 -1.675 0.604 -0.506 -0.05 0.45 -0.89 0.07
1 4.79 479 1.403 -7.188 6.460 76.569 29.480 5.005 -749.961 -2459.897 -3164.888 -1.104 -0.516 -0.410 -0.05 0.43 -0.9 0.07
1 4.80 480 1.168 -6.814 6.417 57.434 28.900 5.981 -749.961 -2459.897 -3164.888 -0.894 -0.819 -0.276 -0.05 0.43 -0.9 0.06
1 4.81 481 0.934 -6.699 6.134 36.591 21.515 6.195 -794.932 -2474.888 -3194.869 -0.685 -0.880 0.073 -0.04 0.43 -0.9 0.06
1 4.82 482 0.910 -6.690 5.986 20.172 11.597 5.280 -599.909 -2564.979 -3209.859 -0.682 -0.856 0.264 -0.04 0.42 -0.9 0.06
1 4.83 483 1.087 -6.862 5.674 8.789 2.045 2.106 -659.870 -2549.989 -3149.898 -0.868 -0.664 0.598 -0.04 0.42 -0.9 0.06
1 4.84 484 1.604 -6.886 5.512 2.655 -2.533 -2.777 -749.961 -2729.872 -3209.859 -1.380 -0.632 0.770 -0.04 0.42 -0.9 0.06
1 4.85 485 1.705 -6.766 5.526 4.974 4.486 -5.005 -749.961 -2729.872 -3209.859 -1.476 -0.748 0.761 -0.04 0.42 -0.9 0.06
1 4.86 486 1.580 -6.651 5.540 7.080 15.869 -7.324 -764.952 -2669.911 -3149.898 -1.338 -0.858 0.751 -0.04 0.42 -0.9 0.06
1 4.87 487 1.269 -6.761 5.612 7.233 35.401 -9.522 -764.952 -2669.911 -3149.898 -1.036 -0.731 0.700 -0.04 0.42 -0.9 0.06
1 4.88 488 0.833 -6.833 5.631 3.113 44.342 -11.017 -704.991 -2729.872 -3164.888 -0.621 -0.652 0.690 -0.04 0.42 -0.91 0.06
1 4.89 489 0.455 -6.929 5.536 -3.357 45.380 -12.146 -749.961 -2804.973 -3284.960 -0.268 -0.553 0.790 -0.04 0.42 -0.91 0.06
1 4.90 490 -0.029 -7.236 5.334 -8.179 39.398 -12.787 -690.000 -2519.858 -3299.950 0.190 -0.251 0.988 -0.03 0.42 -0.91 0.05
1 4.91 491 -0.134 -7.705 5.315 -12.573 22.736 -11.444 -614.899 -2669.911 -3299.950 0.274 0.209 0.996 -0.03 0.42 -0.91 0.05
1 4.92 492 -0.096 -7.939 5.306 -12.634 10.986 -10.407 -614.899 -2669.911 -3299.950 0.223 0.430 0.989 -0.03 0.42 -0.9 0.05
1 4.93 493 0.105 -8.050 5.339 -9.522 2.319 -8.911 -509.968 -2699.891 -3224.999 0.019 0.524 0.937 -0.03 0.42 -0.9 0.05
1 4.94 494 0.670 -8.145 5.536 -4.059 -2.167 -6.744 -509.968 -2699.891 -3224.999 -0.529 0.596 0.711 -0.03 0.42 -0.9 0.05
1 4.95 495 1.025 -8.260 5.536 -2.808 -0.916 -4.852 -674.860 -2729.872 -3239.989 -0.871 0.704 0.703 -0.03 0.43 -0.9 0.05
1 4.96 496 1.221 -8.289 5.411 -4.181 3.235 -4.517 -539.948 -2699.891 -3119.917 -1.055 0.727 0.820 -0.03 0.43 -0.9 0.05
1 4.97 497 1.259 -8.227 5.454 -9.308 8.575 -5.310 -539.948 -2699.891 -3119.917 -1.084 0.656 0.766 -0.03 0.43 -0.9 0.05
1 4.98 498 1.073 -8.346 5.263 -23.834 17.181 -7.538 -449.857 -2684.901 -3134.908 -0.892 0.761 0.940 -0.03 0.43 -0.9 0.05
1 4.99 499 0.690 -8.605 5.349 -32.959 21.973 -10.498 -449.857 -2684.901 -3134.908 -0.507 0.997 0.825 -0.03 0.43 -0.9 0.04
1 5.00 500 0.081 -8.897 6.618 -34.882 17.853 -10.620 -599.909 -2654.920 -3164.888 0.099 1.255 -0.485 -0.03 0.43 -0.9 0.04
1 5.01 501 -1.255 -9.726 9.228 -16.571 -10.864 -5.890 -599.909 -2654.920 -3164.888 1.436 2.023 -3.171 -0.03 0.44 -0.9 0.04
1 5.02 502 -1.920 -10.401 9.932 -9.338 -40.650 -5.402 -569.929 -2804.973 -3134.908 2.125 2.687 -3.890 -0.03 0.44 -0.9 0.04
1 5.03 503 -1.949 -10.090 9.347 -29.450 -69.611 -9.857 -674.860 -2729.872 -3059.957 2.206 2.365 -3.321 -0.04 0.44 -0.9 0.04
1 5.04 504 -1.302 -9.419 8.289 -54.535 -84.229 -17.334 -674.860 -2729.872 -3059.957 1.642 1.663 -2.309 -0.04 0.44 -0.9 0.04
1 5.05 505 -0.546 -9.065 7.504 -57.404 -73.212 -21.515 -494.978 -2489.878 -3419.872 0.984 1.259 -1.595 -0.05 0.44 -0.89 0.05
1 5.06 506 -0.244 -9.352 6.987 -45.807 -23.132 -21.881 -494.978 -2489.878 -3419.872 0.769 1.499 -1.148 -0.05 0.45 -0.89 0.05
1 5.07 507 0.086 -9.908 6.493 -38.910 8.301 -12.634 -749.961 -2459.897 -3104.927 0.495 2.015 -0.714 -0.06 0.45 -0.89 0.05
1 5.08 508 0.134 -9.951 5.842 -25.208 29.816 5.493 -749.961 -2459.897 -3104.927 0.450 1.997 -0.147 -0.06 0.45 -0.89 0.04
1 5.09 509 0.125 -9.850 5.799 -18.494 30.518 11.780 -674.860 -2489.878 -3209.859 0.423 1.878 -0.126 -0.05 0.46 -0.89 0.04
1 5.10 510 0.105 -9.146 6.043 1.312 21.668 20.020 -614.899 -2519.858 -3149.898 0.397 1.167 -0.375 -0.05 0.46 -0.89 0.04
1 5.11 511 0.239 -8.653 6.498 8.514 8.179 17.578 -614.899 -2519.858 -3149.898 0.223 0.677 -0.823 -0.05 0.46 -0.89 0.04
1 5.12 512 0.532 -8.045 6.972 11.078 -11.414 10.590 -674.860 -2339.976 -2954.875 -0.092 0.076 -1.284 -0.05 0.46 -0.89 0.05
1 5.13 513 0.948 -6.919 7.307 11.139 -39.520 -6.500 -674.860 -2339.976 -2954.875 -0.504 -1.035 -1.601 -0.05 0.45 -0.89 0.05
1 5.14 514 1.504 -6.134 7.384 12.878 -50.598 -18.555 -659.870 -2519.858 -3194.869 -1.023 -1.803 -1.656 -0.05 0.45 -0.89 0.05
1 5.15 515 1.920 -5.512 7.461 16.571 -49.591 -26.733 -659.870 -2519.858 -3194.869 -1.373 -2.404 -1.708 -0.06 0.45 -0.89 0.05
1 5.16 516 2.265 -4.358 7.159 29.602 -24.139 -28.809 -869.883 -2444.907 -3149.898 -1.552 -3.492 -1.336 -0.07 0.45 -0.89 0.05
1 5.17 517 2.059 -3.582 6.776 43.884 8.026 -24.963 -869.883 -2444.907 -3074.947 -1.291 -4.227 -0.904 -0.07 0.44 -0.89 0.05
1 5.18 518 1.398 -3.041 6.101 58.838 45.593 -21.393 -869.883 -2444.907 -3074.947 -0.617 -4.720 -0.168 -0.07 0.44 -0.89 0.05
1 5.19 519 0.417 -2.710 5.536 69.550 72.907 -21.057 -929.994 -2414.927 -3134.908 0.341 -4.990 0.478 -0.06 0.43 -0.9 0.04
1 5.20 520 -1.413 -2.868 4.913 62.134 70.526 -23.651 -839.903 -2444.907 -3074.947 2.125 -4.763 1.194 -0.06 0.43 -0.9 0.04
1 5.21 521 -2.255 -4.022 5.148 30.060 32.318 -27.039 -764.952 -2594.959 -3119.917 2.924 -3.543 1.045 -0.06 0.43 -0.9 0.04
1 5.22 522 -2.428 -5.732 6.129 -27.954 -24.048 -34.638 -764.952 -2594.959 -3119.917 3.085 -1.792 0.115 -0.05 0.42 -0.9 0.03
1 5.23 523 -0.512 -9.668 9.055 -139.161 -87.036 -48.950 -764.952 -2669.911 -3119.917 1.315 2.067 -2.922 -0.06 0.43 -0.9 0.03
1 5.24 524 1.216 -12.062 9.989 -188.325 -76.233 -43.701 -569.929 -2729.872 -3134.908 -0.275 4.325 -4.048 -0.07 0.44 -0.9 0.03
1 5.25 525 2.088 -12.436 8.744 -171.906 -29.938 -22.339 -569.929 -2729.872 -3134.908 -1.041 4.537 -3.039 -0.07 0.45 -0.89 0.03
1 5.26 526 1.671 -11.162 6.805 -88.410 13.336 -6.287 -794.932 -2624.940 -3044.966 -0.587 3.134 -1.290 -0.08 0.46 -0.88 0.03
1 5.27 527 0.393 -9.170 4.329 67.322 26.672 -3.326 -899.864 -2309.995 -2909.904 0.681 1.092 1.114 -0.08 0.47 -0.88 0.03
1 5.28 528 0.038 -8.083 3.979 137.787 4.272 -3.113 -869.883 -2354.966 -3044.966 1.017 0.043 1.524 -0.08 0.46 -0.88 0.03
1 5.29 529 -0.057 -7.178 4.243 166.962 -23.621 -1.526 -869.883 -2354.966 -3044.966 1.102 -0.763 1.404 -0.07 0.45 -0.89 0.03
1 5.30 530 -0.062 -6.302 4.942 158.143 -42.267 0.092 -869.883 -2279.865 -3119.917 1.121 -1.498 0.896 -0.08 0.44 -0.89 0.03
1 5.31 531 0.163 -5.492 6.249 94.330 -43.274 0.793 -1064.906 -2444.907 -3014.986 0.974 -2.033 -0.076 -0.08 0.42 -0.9 0.04
1 5.32 532 0.656 -5.129 7.159 31.647 -27.161 1.099 -1064.906 -2444.907 -3014.986 0.518 -2.320 -0.900 -0.08 0.42 -0.9 0.04
1 5.33 533 0.833 -5.311 7.585 -29.907 -3.998 1.526 -989.955 -2519.858 -3074.947 0.359 -2.117 -1.305 -0.09 0.42 -0.9 0.04
1 5.34 534 0.781 -5.962 7.667 -74.860 22.125 1.984 -869.883 -2699.891 -3149.898 0.404 -1.495 -1.419 -0.08 0.42 -0.9 0.04
1 5.35 535 0.426 -7.532 6.967 -100.251 51.575 5.737 -989.955 -2774.992 -3074.947 0.727 0.009 -0.794 -0.08 0.42 -0.9 0.04
1 5.36 536 0.110 -8.672 6.230 -95.154 57.831 11.047 -989.955 -2774.992 -3074.947 0.989 1.063 -0.152 -0.08 0.43 -0.9 0.04
1 5.37 537 -0.268 -9.275 5.138 -74.951 50.324 15.106 -914.854 -2594.959 -3194.869 1.298 1.579 0.840 -0.08 0.43 -0.9 0.04
1 5.38 538 -0.441 -9.644 4.065 -24.902 16.022 15.717 -899.864 -2489.878 -3164.888 1.336 1.813 1.758 -0.07 0.45 -0.89 0.04
1 5.39 539 -0.129 -9.635 3.898 12.695 -13.733 14.710 -899.864 -2489.878 -3164.888 0.988 1.778 1.896 -0.07 0.45 -0.89 0.04
1 5.40 540 0.436 -9.271 4.343 46.967 -38.452 14.160 -899.864 -2534.999 -3134.908 0.416 1.420 1.460 -0.07 0.45 -0.89 0.04
1 5.41 541 0.867 -8.844 5.047 71.381 -52.368 14.923 -944.984 -2354.966 -3119.917 0.002 1.031 0.804 -0.07 0.44 -0.89 0.04
1 5.42 542 1.082 -8.016 6.129 83.130 -47.302 16.968 -839.903 -2474.888 -3074.947 -0.185 0.262 -0.204 -0.07 0.44 -0.89 0.05
1 5.43 543 1.087 -7.389 6.254 73.151 -32.929 17.120 -839.903 -2474.888 -3074.947 -0.162 -0.293 -0.239 -0.08 0.43 -0.9 0.05
1 5.44 544 0.757 -6.867 6.316 55.756 -18.646 15.320 -1004.945 -2459.897 -3059.957 0.184 -0.745 -0.216 -0.08 0.43 -0.9 0.05
1 5.45 545 -0.057 -6.517 6.010 25.360 -9.552 11.505 -764.952 -2699.891 -3014.986 0.995 -0.997 0.212 -0.08 0.42 -0.9 0.06
1 5.46 546 -0.512 -6.623 5.497 7.782 -13.641 8.026 -764.952 -2699.891 -3014.986 1.442 -0.870 0.751 -0.08 0.42 -0.9 0.06
1 5.47 547 -0.613 -6.867 5.435 -3.632 -23.132 7.446 -1079.896 -2759.852 -3209.859 1.548 -0.621 0.818 -0.08 0.42 -0.9 0.06
1 5.48 548 -0.651 -7.087 5.200 -7.538 -33.722 10.010 -974.965 -2654.920 -3104.927 1.603 -0.405 1.044 -0.08 0.42 -0.9 0.06
1 5.49 549 -0.311 -7.116 5.018 -4.059 -42.145 13.123 -944.984 -2699.891 -3119.917 1.285 -0.384 1.214 -0.08 0.42 -0.9 0.06
1 5.50 550 0.268 -7.283 5.109 6.958 -43.091 17.059 -944.984 -2699.891 -3119.917 0.726 -0.221 1.114 -0.09 0.42 -0.9 0.07
1 5.51 551 0.747 -7.231 5.186 14.191 -37.140 16.419 -1109.877 -2654.920 -3209.859 0.267 -0.272 1.036 -0.09 0.42 -0.9 0.07
1 5.52 552 1.015 -7.403 5.411 16.266 -24.048 15.717 -1019.936 -2624.940 -3149.898 0.023 -0.080 0.831 -0.09 0.42 -0.9 0.07
1 5.53 553 1.159 -7.556 5.497 13.977 -18.921 15.137 -1019.936 -2624.940 -3149.898 -0.118 0.084 0.757 -0.09 0.41 -0.9 0.08
1 5.54 554 1.006 -7.911 5.861 -2.319 -7.050 13.611 -1094.887 -2594.959 -3119.917 0.033 0.441 0.397 -0.09 0.41 -0.9 0.08
1 5.55 555 0.996 -8.126 5.995 -16.846 0.641 10.010 -1079.896 -2804.973 -3164.888 0.032 0.648 0.254 -0.09 0.42 -0.9 0.08
1 5.56 556 0.857 -8.327 5.866 -27.557 7.355 6.561 -1229.949 -2534.999 -3284.960 0.158 0.827 0.359 -0.09 0.42 -0.9 0.08
1 5.57 557 0.608 -8.821 5.272 -34.332 14.160 0.885 -1229.949 -2534.999 -3284.960 0.391 1.289 0.918 -0.09 0.42 -0.9 0.08
1 5.58 558 0.378 -9.218 4.803 -36.926 13.519 -0.702 -1199.968 -2744.862 -3224.999 0.604 1.651 1.346 -0.09 0.42 -0.9 0.08
1 5.59 559 0.144 -9.553 4.860 -38.941 7.782 -1.190 -989.955 -2624.940 -3044.966 0.822 1.946 1.242 -0.09 0.42 -0.9 0.08
1 5.60 560 0.187 -10.104 7.552 -25.604 -12.421 -4.852 -989.955 -2624.940 -3044.966 0.767 2.415 -1.550 -0.09 0.43 -0.89 0.08
1 5.61 561 0.867 -10.870 9.951 3.357 -20.264 -6.928 -1064.906 -2624.940 -3149.898 0.107 3.166 -3.972 -0.09 0.43 -0.89 0.08
1 5.62 562 1.949 -11.866 11.770 29.205 -15.259 -2.258 -1094.887 -2549.989 -3194.869 -0.949 4.174 -5.780 -0.09 0.43 -0.89 0.08
1 5.63 563 3.357 -11.823 11.833 23.316 -0.153 14.587 -1094.887 -2549.989 -3194.869 -2.347 4.160 -5.807 -0.1 0.43 -0.9 0.08
1 5.64 564 4.161 -10.295 8.643 -11.566 28.504 45.777 -1109.877 -2564.979 -3164.888 -3.180 2.647 -2.596 -0.09 0.43 -0.9 0.08
1 5.65 565 3.975 -8.667 6.527 -20.264 30.762 47.699 -1139.857 -2624.940 -3194.869 -3.065 1.008 -0.482 -0.09 0.43 -0.9 0.08
1 5.66 566 3.754 -7.705 5.952 -18.616 21.423 35.126 -1064.906 -2549.989 -3074.947 -2.930 0.022 0.076 -0.09 0.43 -0.89 0.09
1 5.67 567 2.471 -7.662 5.756 -10.071 15.289 9.064 -1064.906 -2549.989 -3074.947 -1.735 -0.055 0.240 -0.08 0.43 -0.89 0.09
1 5.68 568 1.628 -7.662 6.120 -8.820 13.275 -4.089 -1004.945 -2729.872 -2954.875 -0.897 -0.063 -0.134 -0.08 0.43 -0.89 0.09
1 5.69 569 0.781 -7.719 6.685 -12.054 9.003 -12.177 -989.955 -2624.940 -2969.865 -0.045 -0.011 -0.707 -0.08 0.43 -0.89 0.09
1 5.70 570 -0.192 -7.944 7.350 -19.623 4.425 -15.991 -989.955 -2624.940 -2969.865 0.937 0.206 -1.383 -0.08 0.43 -0.89 0.08
1 5.71 571 -0.637 -8.083 8.131 -32.654 1.709 -15.411 -1064.906 -2624.940 -3119.917 1.398 0.329 -2.186 -0.08 0.44 -0.89 0.08
1 5.72 572 -1.030 -7.863 8.797 -66.467 8.514 -0.397 -1064.906 -2474.888 -3074.947 1.806 0.078 -2.895 -0.08 0.44 -0.89 0.08
1 5.73 573 -1.298 -7.657 8.821 -91.065 17.242 17.090 -1019.936 -2399.937 -2969.865 2.072 -0.180 -2.988 -0.09 0.44 -0.89 0.08
1 5.74 574 -1.173 -6.848 8.332 -104.523 21.820 33.478 -1019.936 -2399.937 -2969.865 1.920 -1.065 -2.599 -0.08 0.45 -0.89 0.08
1 5.75 575 -1.221 -5.636 6.809 -84.229 16.876 49.317 -989.955 -2474.888 -3149.898 1.835 -2.452 -1.309 -0.08 0.46 -0.88 0.08
1 5.76 576 -1.192 -4.731 5.679 -41.901 7.629 47.547 -854.893 -2219.904 -2984.855 1.719 -3.412 -0.253 -0.08 0.47 -0.88 0.09
1 5.77 577 -0.690 -3.663 4.745 15.533 -3.021 40.161 -854.893 -2219.904 -2984.855 1.155 -4.506 0.648 -0.08 0.47 -0.88 0.09
1 5.78 578 -0.158 -3.002 4.176 76.172 -11.231 28.778 -989.955 -2279.865 -2969.865 0.581 -5.143 1.257 -0.07 0.47 -0.88 0.09
1 5.79 579 0.910 -2.658 4.185 144.745 -11.017 11.444 -974.965 -2309.995 -2909.904 -0.508 -5.412 1.361 -0.07 0.46 -0.88 0.1
1 5.80 580 1.614 -2.844 4.956 157.898 -2.563 1.221 -839.903 -2324.985 -2864.934 -1.219 -5.108 0.757 -0.07 0.45 -0.88 0.1
1 5.81 581 1.968 -3.754 6.254 139.618 11.292 -4.120 -839.903 -2324.985 -2864.934 -1.573 -4.058 -0.350 -0.07 0.44 -0.89 0.1
1 5.82 582 2.246 -6.134 8.773 55.359 34.851 2.777 -824.913 -2384.946 -3134.908 -1.873 -1.441 -2.567 -0.07 0.42 -0.9 0.1
1 5.83 583 2.217 -8.533 10.444 -40.375 42.267 15.869 -974.965 -2564.979 -3134.908 -1.880 0.997 -4.188 -0.06 0.42 -0.9 0.1
1 5.84 584 1.891 -10.262 11.469 -160.859 33.356 24.719 -974.965 -2564.979 -3134.908 -1.616 2.659 -5.291 -0.06 0.43 -0.9 0.1
1 5.85 585 1.350 -10.923 10.386 -242.921 19.531 17.426 -944.984 -2699.891 -3149.898 -1.129 3.146 -4.427 -0.06 0.44 -0.89 0.1
1 5.86 586 0.522 -10.731 6.383 -179.017 13.763 10.468 -794.932 -2519.858 -3254.979 -0.336 2.737 -0.718 -0.06 0.46 -0.88 0.1
1 5.87 587 0.388 -9.965 4.516 -60.242 5.280 6.531 -824.913 -2384.946 -3059.957 -0.228 1.800 0.902 -0.06 0.47 -0.88 0.09
1 5.88 588 0.565 -9.050 3.697 64.087 -10.773 3.418 -824.913 -2384.946 -3059.957 -0.420 0.811 1.607 -0.06 0.48 -0.87 0.09
1 5.89 589 1.288 -7.116 4.022 193.696 -31.555 -5.127 -599.909 -2144.953 -2954.875 -1.119 -0.990 1.483 -0.06 0.46 -0.88 0.1
1 5.90 590 1.925 -5.737 4.760 227.082 -33.692 -13.214 -839.903 -2174.933 -2759.852 -1.719 -2.190 0.999 -0.06 0.45 -0.89 0.1
1 5.91 591 2.389 -4.607 5.430 215.729 -27.374 -21.088 -839.903 -2174.933 -2759.852 -2.136 -3.113 0.602 -0.06 0.43 -0.89 0.1
1 5.92 592 2.308 -3.745 6.718 163.941 -15.869 -24.445 -629.890 -2264.875 -3104.927 -2.005 -3.779 -0.446 -0.06 0.42 -0.9 0.1
1 5.93 593 2.016 -3.223 7.690 78.797 -3.235 -22.522 -824.913 -2534.999 -3059.957 -1.672 -4.157 -1.252 -0.06 0.41 -0.91 0.1
1 5.94 594 1.073 -4.190 8.442 -72.846 8.789 -15.930 -899.864 -2759.852 -3134.908 -0.703 -3.134 -1.941 -0.06 0.41 -0.91 0.1
1 5.95 595 0.421 -5.497 8.045 -156.708 11.688 -13.306 -899.864 -2759.852 -3134.908 -0.031 -1.853 -1.575 -0.06 0.41 -0.91 0.09
1 5.96 596 0.048 -8.667 6.307 -211.091 7.965 -14.740 -824.913 -2729.872 -3239.989 0.359 1.026 -0.184 -0.07 0.43 -0.9 0.09
1 5.97 597 -0.029 -9.582 5.770 -204.224 5.554 -15.839 -824.913 -2804.973 -3059.957 0.445 1.753 0.110 -0.07 0.44 -0.89 0.09
1 5.98 598 -0.196 -11.612 3.989 -110.352 -4.211 -16.876 -824.913 -2804.973 -3059.957 0.631 3.637 1.689 -0.07 0.45 -0.88 0.08
1 5.99 599 0.014 -11.837 3.773 -9.705 -11.261 -13.886 -824.913 -2654.920 -2984.855 0.445 3.790 1.800 -0.07 0.46 -0.88 0.08
1 6.00 600 0.287 -10.741 4.334 87.738 -13.702 -10.773 -764.952 -2174.933 -3044.966 0.199 2.709 1.260 -0.07 0.46 -0.88 0.08
1 6.01 601 0.891 -8.481 5.550 171.845 -3.296 -5.035 -779.942 -2459.897 -3029.976 -0.381 0.544 0.176 -0.07 0.45 -0.89 0.08
1 6.02 602 1.173 -6.943 5.933 176.179 11.871 1.129 -779.942 -2459.897 -3029.976 -0.651 -0.850 -0.014 -0.07 0.44 -0.89 0.08
1 6.03 603 1.398 -5.770 6.263 144.593 22.247 3.082 -854.893 -2309.995 -2909.904 -0.879 -1.860 -0.136 -0.07 0.43 -0.9 0.08
1 6.04 604 1.470 -4.813 6.024 60.608 28.839 2.289 -914.854 -2474.888 -2939.885 -0.997 -2.564 0.411 -0.06 0.41 -0.91 0.08
1 6.05 605 1.551 -4.918 5.631 5.524 29.572 1.373 -914.854 -2474.888 -2939.885 -1.110 -2.411 0.859 -0.06 0.41 -0.91 0.08
1 6.06 606 1.389 -5.411 5.306 -34.546 27.100 0.641 -869.883 -2519.858 -3149.898 -0.977 -1.923 1.182 -0.06 0.41 -0.91 0.08
1 6.07 607 1.302 -5.919 4.908 -54.962 24.994 -1.038 -869.883 -2519.858 -3149.898 -0.917 -1.454 1.536 -0.06 0.41 -0.91 0.08
1 6.08 608 1.202 -6.872 4.516 -54.810 26.276 -2.716 -839.903 -2699.891 -3254.979 -0.840 -0.556 1.867 -0.06 0.41 -0.91 0.08
1 6.09 609 0.910 -7.245 4.678 -40.680 28.473 -4.059 -839.903 -2699.891 -3254.979 -0.570 -0.236 1.642 -0.06 0.42 -0.9 0.08
1 6.10 610 0.469 -7.599 4.765 -22.888 28.992 -5.096 -899.864 -2729.872 -3104.927 -0.151 0.076 1.508 -0.05 0.42 -0.9 0.08
1 6.11 611 -0.168 -7.825 5.382 -0.122 24.078 -5.890 -779.942 -2609.950 -3134.908 0.444 0.262 0.844 -0.05 0.42 -0.9 0.07
1 6.12 612 -0.455 -7.834 5.579 9.491 14.954 -3.479 -779.942 -2609.950 -3134.908 0.713 0.271 0.648 -0.05 0.42 -0.9 0.07
1 6.13 613 -0.441 -7.465 5.588 12.695 4.822 -0.549 -779.942 -2609.950 -3239.989 0.686 -0.090 0.649 -0.05 0.42 -0.9 0.07
1 6.14 614 -0.125 -7.403 5.655 9.155 -5.463 4.639 -779.942 -2609.950 -3239.989 0.362 -0.141 0.595 -0.05 0.42 -0.9 0.07
1 6.15 615 0.201 -7.192 5.339 0.275 -11.810 7.477 -614.899 -2624.940 -3224.999 0.034 -0.346 0.918 -0.05 0.42 -0.9 0.07
1 6.16 616 0.943 -7.221 4.899 -22.553 -12.482 5.737 -614.899 -2624.940 -3224.999 -0.706 -0.321 1.354 -0.05 0.42 -0.9 0.07
1 6.17 617 1.154 -7.595 4.506 -41.809 -5.371 1.617 -899.864 -2564.979 -3239.989 -0.912 0.036 1.727 -0.05 0.42 -0.9 0.08
1 6.18 618 1.374 -8.524 4.372 -59.662 7.446 -1.221 -824.913 -2684.901 -3209.859 -1.125 0.928 1.815 -0.05 0.43 -0.9 0.08
1 6.19 619 1.178 -9.826 5.018 -64.331 24.658 0.092 -824.913 -2684.901 -3209.859 -0.931 2.104 1.010 -0.05 0.44 -0.9 0.07
1 6.20 620 0.450 -11.004 7.164 -46.570 19.440 5.188 -749.961 -2489.878 -3239.989 -0.223 3.222 -1.212 -0.05 0.44 -0.89 0.07
1 6.21 621 -0.464 -11.933 9.429 -13.550 -1.282 10.498 -749.961 -2489.878 -3239.989 0.669 4.117 -3.520 -0.05 0.44 -0.89 0.07
1 6.22 622 -1.393 -12.800 10.841 11.505 -35.095 9.735 -629.890 -2459.897 -3239.989 1.593 4.979 -4.939 -0.05 0.44 -0.89 0.07
1 6.23 623 -1.695 -11.253 9.692 -22.675 -81.909 -1.831 -629.890 -2459.897 -3239.989 1.925 3.443 -3.777 -0.05 0.44 -0.89 0.08
1 6.24 624 -1.403 -10.396 8.605 -45.075 -84.656 -10.193 -749.961 -2384.946 -3134.908 1.702 2.574 -2.708 -0.06 0.44 -0.89 0.08
1 6.25 625 -1.053 -9.817 7.595 -47.363 -61.310 -13.153 -704.991 -2219.904 -3059.957 1.441 1.960 -1.750 -0.06 0.44 -0.89 0.08
1 6.26 626 -0.666 -9.750 7.039 -35.980 -18.768 -7.996 -704.991 -2219.904 -3059.957 1.178 1.817 -1.308 -0.07 0.45 -0.89 0.08
1 6.27 627 -0.479 -10.147 6.948 -27.252 -4.822 1.770 -824.913 -2414.927 -3029.976 1.012 2.186 -1.258 -0.07 0.45 -0.89 0.08
1 6.28 628 -0.072 -10.252 6.675 -14.130 -1.404 13.977 -824.913 -2414.927 -3029.976 0.602 2.271 -1.013 -0.07 0.45 -0.88 0.08
1 6.29 629 0.369 -9.778 7.020 0.854 -2.258 22.369 -779.942 -2384.946 -3164.888 0.142 1.788 -1.369 -0.07 0.45 -0.88 0.08
1 6.30 630 1.097 -8.897 7.513 11.993 -0.885 24.963 -974.965 -2264.875 -2909.904 -0.612 0.909 -1.857 -0.07 0.45 -0.88 0.08
1 6.31 631 1.398 -8.323 7.944 11.871 0.366 19.959 -824.913 -2264.875 -3059.957 -0.943 0.344 -2.272 -0.07 0.45 -0.88 0.09
1 6.32 632 1.609 -7.288 8.050 8.514 -3.815 6.378 -974.965 -2384.946 -3059.957 -1.180 -0.680 -2.361 -0.07 0.45 -0.88 0.09
1 6.33 633 1.786 -6.163 7.743 -1.373 -13.763 -16.174 -974.965 -2384.946 -3059.957 -1.349 -1.786 -2.028 -0.07 0.45 -0.89 0.09
1 6.34 634 1.992 -5.181 7.614 -6.989 -18.494 -30.609 -749.961 -2309.995 -3104.927 -1.507 -2.756 -1.886 -0.07 0.45 -0.89 0.09
1 6.35 635 1.987 -4.568 7.456 -7.568 -16.296 -40.161 -749.961 -2309.995 -3104.927 -1.433 -3.358 -1.719 -0.07 0.45 -0.89 0.08
1 6.36 636 1.868 -3.888 6.843 -0.214 -1.343 -43.121 -989.955 -2399.937 -2939.885 -1.240 -4.023 -1.094 -0.08 0.45 -0.89 0.08
1 6.37 637 1.350 -3.180 6.139 19.013 24.689 -39.887 -944.984 -2279.865 -3149.898 -0.676 -4.723 -0.383 -0.08 0.45 -0.89 0.08
1 6.38 638 0.048 -2.284 4.985 60.547 61.218 -29.053 -944.984 -2324.985 -3044.966 0.645 -5.591 0.807 -0.08 0.45 -0.89 0.08
1 6.39 639 -1.192 -2.059 4.070 83.954 63.294 -22.156 -1004.945 -2219.904 -3104.927 1.872 -5.763 1.794 -0.07 0.44 -0.89 0.07
1 6.40 640 -2.284 -2.725 3.553 86.975 9.094 -16.876 -1004.945 -2219.904 -3104.927 2.915 -4.935 2.528 -0.07 0.43 -0.9 0.07
1 6.41 641 -2.164 -3.189 3.893 74.829 -20.905 -18.341 -779.942 -2384.946 -3134.908 2.822 -4.391 2.283 -0.07 0.42 -0.9 0.07
1 6.42 642 -0.690 -6.086 6.589 -1.160 -105.866 -36.987 -779.942 -2384.946 -3134.908 1.441 -1.449 -0.369 -0.07 0.42 -0.9 0.07
1 6.43 643 1.499 -9.347 9.807 -69.733 -109.192 -56.458 -944.984 -2399.937 -3224.999 -0.599 1.804 -3.617 -0.08 0.42 -0.9 0.07
1 6.44 644 2.859 -12.584 12.647 -140.900 -45.441 -57.099 -929.994 -2564.979 -3134.908 -1.800 4.968 -6.571 -0.09 0.43 -0.9 0.07
1 6.45 645 2.021 -12.575 9.213 -173.035 55.725 -13.611 -899.864 -2459.897 -3164.888 -0.877 4.826 -3.324 -0.1 0.44 -0.89 0.06
1 6.46 646 0.737 -10.908 5.885 -99.366 75.409 2.991 -1019.936 -2354.966 -3074.947 0.394 3.007 -0.200 -0.09 0.45 -0.89 0.06
1 6.47 647 -0.125 -9.534 3.941 2.594 61.859 4.456 -1019.936 -2354.966 -3074.947 1.193 1.529 1.610 -0.09 0.46 -0.88 0.06
1 6.48 648 -0.618 -8.265 3.505 123.291 9.277 0.488 -989.955 -2354.966 -3074.947 1.580 0.291 2.110 -0.08 0.45 -0.89 0.05
1 6.49 649 -0.972 -7.556 4.147 163.453 -25.147 -1.770 -989.955 -2354.966 -3074.947 1.923 -0.309 1.621 -0.08 0.45 -0.89 0.05
1 6.50 650 -0.982 -6.685 4.774 173.218 -47.882 -3.845 -989.955 -2054.861 -3014.986 1.965 -1.028 1.191 -0.08 0.43 -0.9 0.06
1 6.51 651 -0.790 -5.703 5.339 155.884 -56.153 -2.472 -1004.945 -2144.953 -3059.957 1.825 -1.849 0.820 -0.09 0.42 -0.9 0.06
1 6.52 652 0.148 -4.180 6.474 85.633 -39.765 4.883 -1019.936 -2399.937 -3074.947 0.941 -3.229 -0.154 -0.09 0.41 -0.9 0.06
1 6.53 653 0.828 -3.864 7.331 19.592 -13.458 7.019 -1139.857 -2624.940 -3254.979 0.300 -3.447 -0.904 -0.09 0.4 -0.91 0.07
1 6.54 654 1.135 -3.955 7.662 -46.814 18.829 6.012 -1139.857 -2624.940 -3254.979 0.006 -3.320 -1.196 -0.09 0.4 -0.91 0.07
1 6.55 655 1.121 -5.502 7.360 -113.953 53.284 -2.838 -974.965 -2654.920 -3284.960 -0.038 -1.886 -1.013 -0.09 0.41 -0.91 0.07
1 6.56 656 0.972 -7.413 6.809 -141.999 63.263 -4.181 -974.965 -2654.920 -3284.960 0.061 -0.079 -0.577 -0.09 0.42 -0.9 0.06
1 6.57 657 0.867 -9.381 5.828 -154.969 62.897 2.106 -1034.926 -2729.872 -3284.960 0.110 1.757 0.253 -0.08 0.43 -0.9 0.06
1 6.58 658 0.733 -10.683 4.774 -142.456 52.399 9.796 -1064.906 -2669.911 -3119.917 0.184 2.919 1.134 -0.08 0.44 -0.89 0.06
1 6.59 659 0.704 -11.124 4.013 -96.314 31.738 11.658 -929.994 -2489.878 -3134.908 0.157 3.240 1.744 -0.08 0.45 -0.89 0.06
1 6.60 660 0.570 -10.693 3.802 15.045 -8.942 8.484 -914.854 -2249.884 -3074.947 0.255 2.739 1.863 -0.08 0.45 -0.89 0.06
1 6.61 661 0.694 -9.702 4.238 81.085 -32.074 8.057 -914.854 -2249.884 -3074.947 0.122 1.744 1.424 -0.08 0.45 -0.89 0.06
1 6.62 662 0.646 -8.672 4.654 120.850 -44.586 9.522 -779.942 -2219.904 -3164.888 0.184 0.773 1.086 -0.08 0.45 -0.89 0.06
1 6.63 663 0.546 -7.255 5.507 126.282 -45.105 10.315 -779.942 -2219.904 -3164.888 0.339 -0.441 0.495 -0.08 0.43 -0.9 0.06
1 6.64 664 0.201 -6.546 5.957 103.943 -37.659 7.935 -854.893 -2339.976 -3059.957 0.711 -1.039 0.181 -0.08 0.42 -0.9 0.07
1 6.65 665 -0.225 -6.144 6.144 69.733 -29.114 5.066 -929.994 -2414.927 -3239.989 1.158 -1.349 0.104 -0.09 0.42 -0.9 0.07
1 6.66 666 -0.584 -5.957 6.110 33.325 -23.132 3.174 -974.965 -2489.878 -3209.859 1.539 -1.477 0.204 -0.09 0.41 -0.9 0.07
1 6.67 667 -0.752 -6.139 5.871 -13.092 -21.149 4.456 -869.883 -2669.911 -3224.999 1.725 -1.270 0.470 -0.09 0.41 -0.9 0.07
1 6.68 668 -0.905 -6.374 5.583 -32.074 -23.468 7.568 -869.883 -2669.911 -3224.999 1.893 -1.041 0.748 -0.09 0.41 -0.9 0.07
1 6.69 669 -0.699 -6.785 5.287 -40.314 -25.696 10.132 -1094.887 -2519.858 -3299.950 1.702 -0.656 1.011 -0.09 0.41 -0.9 0.07
1 6.70 670 -0.283 -7.427 4.927 -35.858 -23.041 12.390 -1094.887 -2519.858 -3299.950 1.310 -0.090 1.275 -0.09 0.42 -0.9 0.08
1 6.71 671 -0.014 -7.643 4.880 -25.482 -17.944 13.153 -1139.857 -2474.888 -3149.898 1.044 0.091 1.281 -0.1 0.42 -0.9 0.08
1 6.72 672 0.029 -7.959 4.779 -13.825 -13.062 13.672 -1139.857 -2624.940 -3224.999 0.994 0.379 1.349 -0.1 0.42 -0.9 0.08
1 6.73 673 0.201 -8.270 4.841 -3.967 -11.322 14.221 -1139.857 -2624.940 -3224.999 0.810 0.673 1.267 -0.1 0.42 -0.9 0.08
1 6.74 674 0.287 -8.562 5.196 1.068 -11.108 14.740 -1169.988 -2399.937 -3149.898 0.712 0.954 0.901 -0.1 0.42 -0.9 0.08
1 6.75 675 0.426 -8.672 5.406 -0.580 -11.963 12.634 -1169.988 -2399.937 -3149.898 0.561 1.057 0.683 -0.1 0.42 -0.9 0.09
1 6.76 676 0.417 -8.787 5.411 -6.622 -10.803 8.606 -1064.906 -2519.858 -3149.898 0.560 1.165 0.671 -0.1 0.42 -0.9 0.09
1 6.77 677 0.283 -8.979 6.675 -15.259 -11.261 2.167 -1064.906 -2519.858 -3149.898 0.688 1.329 -0.627 -0.1 0.43 -0.89 0.09
1 6.78 678 0.283 -9.472 8.634 -8.667 -15.289 -4.517 -1169.988 -2549.989 -3149.898 0.697 1.808 -2.605 -0.1 0.43 -0.89 0.09
1 6.79 679 0.651 -10.588 11.105 11.566 -16.998 -7.721 -1079.896 -2414.927 -3314.940 0.349 2.922 -5.082 -0.1 0.43 -0.89 0.09
1 6.80 680 1.642 -12.211 13.030 27.893 -11.627 -1.495 -1079.896 -2414.927 -3314.940 -0.618 4.564 -6.987 -0.1 0.43 -0.89 0.09
1 6.81 681 3.266 -13.279 12.661 12.878 2.258 21.118 -1109.877 -2534.999 -3209.859 -2.237 5.657 -6.587 -0.1 0.42 -0.9 0.09
1 6.82 682 4.597 -11.622 7.805 -40.283 26.215 60.303 -1109.877 -2534.999 -3209.859 -3.609 4.001 -1.724 -0.1 0.42 -0.9 0.09
1 6.83 683 4.592 -9.352 5.449 -45.227 21.576 61.279 -1094.887 -2444.907 -3149.898 -3.691 1.694 0.599 -0.1 0.43 -0.89 0.09
1 6.84 684 3.754 -7.652 5.564 -0.122 -0.549 29.999 -1094.887 -2444.907 -3149.898 -3.014 -0.084 0.405 -0.09 0.43 -0.89 0.1
1 6.85 685 2.868 -7.365 6.187 25.757 -5.310 11.444 -1094.887 -2549.989 -3074.947 -2.132 -0.367 -0.211 -0.09 0.43 -0.89 0.1
1 6.86 686 1.762 -7.288 6.790 32.593 -7.263 1.709 -1034.926 -2459.897 -3134.908 -1.012 -0.415 -0.779 -0.09 0.43 -0.89 0.1
1 6.87 687 0.967 -7.226 7.480 24.780 -9.094 -4.547 -1034.926 -2459.897 -3134.908 -0.201 -0.443 -1.427 -0.09 0.43 -0.89 0.1
1 6.88 688 0.484 -7.422 8.150 10.345 -10.132 -8.087 -1064.906 -2444.907 -3194.869 0.300 -0.219 -2.065 -0.09 0.43 -0.89 0.1
1 6.89 689 -0.134 -7.470 9.433 -23.254 -1.007 -6.073 -1064.906 -2444.907 -3194.869 0.937 -0.163 -3.341 -0.09 0.42 -0.89 0.1
1 6.90 690 -0.393 -7.552 9.836 -54.840 14.313 1.984 -1109.877 -2489.878 -3209.859 1.207 -0.095 -3.761 -0.09 0.43 -0.89 0.1
1 6.91 691 -0.417 -7.307 9.520 -85.358 32.532 16.266 -1109.877 -2489.878 -3209.859 1.222 -0.381 -3.497 -0.09 0.43 -0.89 0.1
1 6.92 692 -0.967 -6.398 7.762 -103.089 44.342 37.720 -1004.945 -2564.979 -3239.989 1.661 -1.455 -1.941 -0.09 0.44 -0.89 0.1
1 6.93 693 -1.350 -5.301 6.469 -88.013 37.293 44.281 -1094.887 -2324.985 -3254.979 1.952 -2.639 -0.756 -0.09 0.45 -0.88 0.1
1 6.94 694 -1.532 -4.554 5.157 -51.300 23.468 43.427 -1094.887 -2324.985 -3254.979 2.043 -3.453 0.470 -0.08 0.45 -0.88 0.1
1 6.95 695 -1.250 -3.749 4.204 0.916 6.561 34.851 -854.893 -2219.904 -3389.892 1.693 -4.293 1.378 -0.08 0.46 -0.88 0.1
1 6.96 696 -0.230 -3.036 3.879 81.421 -15.778 17.670 -944.984 -2099.982 -3074.947 0.632 -4.994 1.724 -0.08 0.46 -0.88 0.1
1 6.97 697 0.488 -2.993 4.166 118.348 -21.271 6.165 -854.893 -2264.875 -3164.888 -0.101 -4.978 1.522 -0.08 0.45 -0.88 0.11
1 6.98 698 1.053 -3.275 5.287 130.036 -16.296 -4.852 -854.893 -2264.875 -3164.888 -0.659 -4.597 0.536 -0.08 0.44 -0.89 0.11
1 6.99 699 1.719 -4.693 7.307 97.534 7.935 -11.017 -869.883 -2249.884 -3119.917 -1.288 -2.947 -1.185 -0.08 0.43 -0.89 0.11
1 7.00 700 1.829 -6.153 8.710 45.563 29.724 -6.195 -1064.906 -2354.966 -3224.999 -1.393 -1.397 -2.478 -0.08 0.42 -0.9 0.11
1 7.01 701 1.772 -7.901 9.697 -29.114 45.410 3.906 -1064.906 -2354.966 -3224.999 -1.359 0.386 -3.420 -0.07 0.42 -0.9 0.11
1 7.02 702 1.451 -8.998 9.850 -111.115 46.387 13.733 -974.965 -2414.927 -3239.989 -1.090 1.436 -3.627 -0.07 0.42 -0.9 0.11
1 7.03 703 0.852 -9.615 8.725 -165.680 33.142 14.221 -929.994 -2534.999 -3209.859 -0.550 1.933 -2.648 -0.07 0.43 -0.89 0.1
1 7.04 704 0.488 -9.271 5.933 -132.325 6.012 7.050 -794.932 -2444.907 -3329.931 -0.229 1.435 -0.054 -0.07 0.44 -0.89 0.1
1 7.05 705 0.690 -8.830 4.817 -52.368 -12.970 3.082 -794.932 -2444.907 -3329.931 -0.449 0.865 0.887 -0.07 0.45 -0.88 0.1
1 7.06 706 1.135 -8.112 4.329 36.682 -30.060 1.404 -839.903 -2399.937 -3374.901 -0.891 0.082 1.283 -0.07 0.46 -0.88 0.1
1 7.07 707 2.150 -6.900 4.530 134.583 -37.262 -3.235 -869.883 -2354.966 -3254.979 -1.840 -1.044 1.200 -0.07 0.45 -0.88 0.1
1 7.08 708 2.471 -5.967 5.153 159.821 -28.809 -10.193 -869.883 -2354.966 -3254.979 -2.123 -1.848 0.751 -0.07 0.44 -0.89 0.11
1 7.09 709 2.571 -5.263 5.904 151.124 -13.550 -17.700 -794.932 -2099.982 -3374.901 -2.186 -2.403 0.189 -0.07 0.43 -0.89 0.11
1 7.10 710 2.337 -4.712 6.675 111.267 2.625 -21.515 -899.864 -2264.875 -3164.888 -1.920 -2.816 -0.414 -0.07 0.42 -0.9 0.11
1 7.11 711 1.312 -4.856 7.734 5.219 17.487 -15.930 -854.893 -2414.927 -3239.989 -0.877 -2.576 -1.360 -0.07 0.41 -0.9 0.1
1 7.12 712 0.670 -5.311 7.767 -76.081 17.792 -10.925 -854.893 -2414.927 -3239.989 -0.220 -2.082 -1.349 -0.07 0.41 -0.9 0.1
1 7.13 713 0.225 -6.244 7.264 -140.900 13.275 -8.301 -914.854 -2519.858 -3299.950 0.227 -1.187 -0.892 -0.07 0.41 -0.9 0.1
1 7.14 714 -0.196 -8.648 5.876 -170.258 3.143 -11.139 -914.854 -2444.907 -3404.882 0.647 0.958 0.183 -0.07 0.43 -0.89 0.1
1 7.15 715 -0.062 -10.018 5.033 -136.048 -1.801 -13.550 -914.854 -2444.907 -3404.882 0.520 2.179 0.831 -0.07 0.44 -0.89 0.09
1 7.16 716 -0.120 -10.832 4.396 -69.428 -7.416 -13.214 -944.984 -2444.907 -3329.931 0.594 2.885 1.320 -0.07 0.45 -0.88 0.09
1 7.17 717 0.431 -10.827 4.549 10.498 -10.773 -10.101 -929.994 -2219.904 -3209.859 0.067 2.839 1.107 -0.08 0.45 -0.88 0.09
1 7.18 718 1.068 -9.654 5.253 104.035 -7.660 -4.639 -929.994 -2144.953 -3239.989 -0.549 1.694 0.440 -0.08 0.45 -0.88 0.09
1 7.19 719 1.326 -8.390 5.947 129.242 1.953 -2.289 -929.994 -2144.953 -3239.989 -0.793 0.512 -0.142 -0.08 0.44 -0.89 0.09
1 7.20 720 1.714 -7.255 6.383 125.153 13.550 -0.183 -869.883 -2129.962 -3254.979 -1.175 -0.511 -0.429 -0.08 0.44 -0.89 0.09
1 7.21 721 1.705 -6.307 6.431 79.743 27.496 1.984 -929.994 -2489.878 -3209.859 -1.181 -1.237 -0.197 -0.07 0.42 -0.9 0.09
1 7.22 722 1.738 -5.943 6.235 40.741 31.067 -1.221 -929.994 -2489.878 -3209.859 -1.235 -1.528 0.088 -0.07 0.42 -0.9 0.09
1 7.23 723 1.384 -5.938 5.914 7.568 31.799 -4.242 -929.994 -2384.946 -3359.911 -0.904 -1.498 0.451 -0.07 0.41 -0.9 0.09
1 7.24 724 1.188 -6.129 5.349 -14.832 31.555 -6.622 -869.883 -2474.888 -3479.983 -0.733 -1.304 1.021 -0.07 0.41 -0.9 0.09
1 7.25 725 0.905 -6.412 5.023 -26.093 31.159 -8.270 -824.913 -2564.979 -3419.872 -0.474 -1.037 1.330 -0.06 0.41 -0.9 0.09
1 7.26 726 0.838 -6.651 4.884 -23.346 29.358 -8.423 -824.913 -2564.979 -3419.872 -0.428 -0.821 1.443 -0.06 0.42 -0.9 0.08
1 7.27 727 0.560 -6.900 4.880 -16.235 27.435 -8.698 -854.893 -2459.897 -3359.911 -0.169 -0.594 1.423 -0.06 0.42 -0.9 0.08
1 7.28 728 0.397 -7.058 5.133 -3.174 20.996 -8.667 -824.913 -2534.999 -3359.911 -0.037 -0.458 1.144 -0.06 0.42 -0.9 0.08
1 7.29 729 0.283 -7.087 5.186 -0.488 17.700 -9.247 -824.913 -2534.999 -3359.911 0.069 -0.430 1.092 -0.06 0.42 -0.9 0.08
1 7.30 730 0.206 -7.149 5.421 1.617 4.395 -8.759 -690.000 -2474.888 -3374.901 0.146 -0.364 0.861 -0.06 0.42 -0.9 0.08
1 7.31 731 0.488 -7.188 5.435 -3.448 -4.974 -8.545 -690.000 -2474.888 -3329.931 -0.128 -0.325 0.847 -0.06 0.42 -0.9 0.08
1 7.32 732 0.618 -7.283 5.445 -16.907 -15.625 -5.768 -824.913 -2459.897 -3284.960 -0.241 -0.235 0.830 -0.06 0.42 -0.9 0.08
1 7.33 733 1.087 -7.585 5.512 -27.069 -19.013 -5.341 -824.913 -2459.897 -3284.960 -0.687 0.052 0.744 -0.06 0.42 -0.9 0.08
1 7.34 734 1.446 -7.805 5.191 -36.682 -17.731 -4.395 -899.864 -2384.946 -3359.911 -1.018 0.248 1.034 -0.06 0.42 -0.9 0.08
1 7.35 735 1.599 -8.236 5.081 -42.572 -13.153 -4.944 -794.932 -2399.937 -3299.950 -1.143 0.645 1.100 -0.06 0.43 -0.9 0.08
1 7.36 736 1.753 -8.998 4.870 -45.563 1.038 -4.822 -794.932 -2399.937 -3299.950 -1.249 1.319 1.198 -0.06 0.43 -0.9 0.07
1 7.37 737 1.733 -9.501 4.669 -44.068 11.566 -3.021 -749.961 -2384.946 -3464.993 -1.218 1.774 1.337 -0.07 0.44 -0.9 0.07
1 7.38 738 1.642 -10.252 4.789 -39.765 21.332 -0.671 -824.913 -2459.897 -3494.973 -1.128 2.479 1.157 -0.06 0.44 -0.89 0.07
1 7.39 739 1.298 -10.750 5.033 -34.393 27.710 1.984 -824.913 -2459.897 -3494.973 -0.804 2.943 0.870 -0.06 0.44 -0.89 0.07
1 7.40 740 0.330 -11.488 8.289 -12.970 12.268 10.101 -764.952 -2249.884 -3374.901 0.135 3.652 -2.422 -0.06 0.44 -0.89 0.07
1 7.41 741 -0.757 -12.220 10.271 7.050 -13.031 13.092 -899.864 -2264.875 -3209.859 1.197 4.369 -4.423 -0.06 0.44 -0.89 0.07
1 7.42 742 -1.235 -12.355 10.530 9.857 -44.403 10.468 -779.942 -2309.995 -3389.892 1.666 4.506 -4.678 -0.06 0.44 -0.89 0.07
1 7.43 743 -1.595 -10.214 8.505 -35.553 -76.020 2.136 -779.942 -2309.995 -3389.892 2.094 2.364 -2.659 -0.07 0.44 -0.89 0.08
1 7.44 744 -1.130 -9.429 7.700 -41.290 -66.590 -5.157 -824.913 -2309.995 -3359.911 1.697 1.546 -1.905 -0.07 0.45 -0.89 0.08
1 7.45 745 -1.221 -9.232 7.173 -36.774 -39.887 -9.186 -704.991 -2219.904 -3314.940 1.850 1.316 -1.431 -0.08 0.45 -0.89 0.08
1 7.46 746 -1.259 -9.165 6.800 -31.342 -14.557 -7.385 -704.991 -2219.904 -3314.940 1.929 1.220 -1.102 -0.08 0.45 -0.89 0.08
1 7.47 747 -1.073 -9.481 6.398 -27.191 -3.326 1.251 -929.994 -2189.923 -3359.911 1.759 1.511 -0.736 -0.08 0.45 -0.88 0.08
1 7.48 748 -0.498 -9.117 6.196 -10.101 -0.122 20.722 -929.994 -2219.904 -3314.940 1.181 1.126 -0.565 -0.08 0.45 -0.88 0.08
1 7.49 749 0.172 -8.734 6.541 6.775 0.519 31.098 -779.942 -2144.953 -3359.911 0.490 0.730 -0.926 -0.08 0.46 -0.88 0.08
1 7.50 750 0.795 -8.078 6.829 18.494 0.153 35.004 -779.942 -2144.953 -3359.911 -0.168 0.075 -1.208 -0.08 0.46 -0.88 0.08
1 7.51 751 1.422 -7.236 7.346 22.980 -6.104 28.381 -914.854 -2054.861 -3329.931 -0.875 -0.732 -1.666 -0.08 0.45 -0.88 0.09
1 7.52 752 1.762 -6.465 7.552 17.548 -15.198 13.428 -944.984 -2174.933 -3329.931 -1.233 -1.477 -1.835 -0.08 0.45 -0.89 0.09
1 7.53 753 2.030 -5.536 7.087 7.416 -28.504 -4.517 -944.984 -2174.933 -3329.931 -1.488 -2.383 -1.338 -0.08 0.45 -0.89 0.09
1 7.54 754 2.208 -5.248 7.422 -5.249 -41.382 -24.750 -824.913 -2039.871 -3359.911 -1.614 -2.653 -1.655 -0.08 0.45 -0.89 0.09
1 7.55 755 2.538 -4.386 7.202 -18.311 -39.307 -36.499 -779.942 -2189.923 -3314.940 -1.861 -3.505 -1.431 -0.08 0.45 -0.89 0.09
1 7.56 756 2.605 -3.941 6.919 -14.099 -16.937 -35.767 -1019.936 -2204.914 -3224.999 -1.834 -3.946 -1.154 -0.09 0.45 -0.89 0.09
1 7.57 757 2.131 -3.467 6.388 3.540 19.409 -32.379 -1019.936 -2204.914 -3224.999 -1.295 -4.429 -0.643 -0.09 0.45 -0.89 0.09
1 7.58 758 0.733 -2.859 5.114 42.145 69.947 -29.846 -1094.887 -2099.982 -3329.931 0.131 -5.007 0.667 -0.09 0.44 -0.89 0.08
1 7.59 759 -0.527 -2.758 4.544 63.751 78.552 -27.130 -1004.945 -2114.972 -3284.960 1.360 -5.060 1.306 -0.08 0.44 -0.89 0.08
1 7.60 760 -1.551 -3.218 4.152 72.083 56.336 -23.987 -1004.945 -2114.972 -3284.960 2.349 -4.535 1.790 -0.08 0.44 -0.89 0.07
1 7.61 761 -1.944 -4.123 4.353 58.594 8.057 -23.468 -974.965 -2189.923 -3464.993 2.728 -3.561 1.679 -0.08 0.43 -0.9 0.07
1 7.62 762 -0.814 -7.034 6.867 -5.951 -76.447 -35.004 -899.864 -2339.976 -3359.911 1.633 -0.598 -0.774 -0.08 0.43 -0.9 0.07
1 7.63 763 1.408 -10.477 10.147 -81.543 -94.788 -50.232 -929.994 -2189.923 -3464.993 -0.492 2.858 -4.052 -0.08 0.43 -0.9 0.07
1 7.64 764 3.256 -13.892 12.608 -176.911 -54.810 -50.629 -929.994 -2189.923 -3464.993 -2.205 6.226 -6.594 -0.09 0.43 -0.9 0.07
1 7.65 765 2.864 -12.795 8.528 -178.010 38.422 -9.918 -929.994 -2309.995 -3359.911 -1.647 4.825 -2.957 -0.1 0.45 -0.88 0.06
1 7.66 766 1.470 -10.865 5.727 -66.712 69.275 -7.019 -989.955 -2279.865 -3404.882 -0.284 2.769 -0.333 -0.1 0.46 -0.88 0.06
1 7.67 767 0.230 -9.572 4.142 51.605 62.897 -12.329 -989.955 -2279.865 -3404.882 0.909 1.449 1.221 -0.1 0.47 -0.88 0.05
1 7.68 768 -0.541 -8.385 3.644 135.804 31.433 -15.991 -1019.936 -2009.891 -3254.979 1.646 0.324 1.818 -0.09 0.46 -0.88 0.05
1 7.69 769 -1.144 -7.432 3.649 175.660 -7.202 -17.700 -1064.906 -1859.988 -3329.931 2.241 -0.508 1.990 -0.09 0.45 -0.89 0.05
1 7.70 770 -1.302 -6.168 4.635 167.420 -51.087 -13.153 -929.994 -2144.953 -3314.940 2.434 -1.610 1.218 -0.09 0.44 -0.89 0.05
1 7.71 771 -0.843 -5.339 5.402 130.951 -61.066 -5.066 -929.994 -2144.953 -3314.940 2.034 -2.277 0.649 -0.09 0.43 -0.9 0.06
1 7.72 772 0.244 -4.358 6.781 50.903 -45.746 7.843 -854.893 -2264.875 -3284.960 1.064 -3.033 -0.479 -0.1 0.41 -0.9 0.06
1 7.73 773 0.426 -4.391 7.221 20.935 -32.898 10.712 -1154.998 -2339.976 -3599.905 0.910 -2.965 -0.885 -0.1 0.41 -0.91 0.06
1 7.74 774 1.259 -5.052 7.916 -58.991 15.137 10.986 -1154.998 -2339.976 -3599.905 0.073 -2.326 -1.604 -0.1 0.41 -0.9 0.06
1 7.75 775 1.360 -6.187 7.719 -92.163 44.617 7.141 -1094.887 -2444.907 -3554.934 -0.062 -1.243 -1.463 -0.1 0.41 -0.9 0.06
1 7.76 776 1.168 -7.552 7.015 -118.775 66.712 6.348 -1184.978 -2414.927 -3464.993 0.076 0.039 -0.847 -0.1 0.42 -0.9 0.06
1 7.77 777 0.512 -9.295 5.229 -117.951 63.172 10.681 -1169.988 -2474.888 -3404.882 0.664 1.678 0.824 -0.1 0.43 -0.9 0.06
1 7.78 778 0.062 -10.018 4.176 -96.283 45.502 13.184 -1169.988 -2474.888 -3404.882 1.040 2.289 1.748 -0.09 0.44 -0.89 0.06
1 7.79 779 -0.292 -10.094 3.591 -54.413 16.449 13.672 -914.854 -2204.914 -3449.853 1.330 2.268 2.215 -0.09 0.44 -0.89 0.06
1 7.80 780 -0.345 -9.625 3.951 24.384 -28.870 14.282 -914.854 -2174.933 -3374.901 1.325 1.711 1.746 -0.09 0.45 -0.89 0.06
1 7.81 781 -0.259 -9.065 4.425 68.970 -48.126 15.595 -914.854 -2174.933 -3374.901 1.242 1.169 1.297 -0.09 0.45 -0.89 0.06
1 7.82 782 -0.168 -8.227 4.947 98.389 -54.688 16.052 -854.893 -2144.953 -3494.973 1.167 0.389 0.851 -0.09 0.44 -0.89 0.06
1 7.83 783 -0.335 -7.437 5.454 107.209 -51.453 15.167 -854.893 -2144.953 -3494.973 1.356 -0.317 0.451 -0.09 0.44 -0.89 0.07
1 7.84 784 -0.594 -6.527 6.240 88.898 -38.056 13.916 -1004.945 -2144.953 -3539.944 1.633 -1.134 -0.216 -0.09 0.43 -0.9 0.07
1 7.85 785 -0.891 -6.077 6.273 61.310 -29.450 13.519 -1004.945 -2144.953 -3539.944 1.941 -1.497 -0.143 -0.09 0.42 -0.9 0.07
1 7.86 786 -1.068 -5.952 6.364 30.426 -25.024 13.214 -1034.926 -2384.946 -3494.973 2.121 -1.555 -0.153 -0.1 0.42 -0.9 0.08
1 7.87 787 -1.355 -6.120 5.727 -12.665 -27.100 13.733 -1064.906 -2279.865 -3479.983 2.426 -1.344 0.532 -0.1 0.41 -0.9 0.08
1 7.88 788 -1.183 -6.417 5.416 -33.356 -32.868 14.465 -1064.906 -2279.865 -3479.983 2.266 -1.066 0.819 -0.1 0.41 -0.9 0.08
1 7.89 789 -0.843 -6.915 4.994 -42.572 -38.422 16.113 -989.955 -2354.966 -3374.901 1.941 -0.604 1.195 -0.1 0.42 -0.9 0.08
1 7.90 790 -0.374 -7.604 4.899 -41.931 -41.748 17.639 -989.955 -2354.966 -3374.901 1.490 0.044 1.236 -0.1 0.42 -0.9 0.09
1 7.91 791 0.168 -8.136 4.813 -33.051 -39.917 18.738 -1139.857 -2324.985 -3554.934 0.962 0.533 1.268 -0.11 0.42 -0.9 0.09
1 7.92 792 0.905 -8.605 5.148 -13.489 -29.450 21.668 -1139.857 -2324.985 -3554.934 0.231 0.966 0.885 -0.11 0.42 -0.89 0.09
1 7.93 793 1.350 -8.840 5.354 -2.075 -20.355 21.759 -1274.919 -2204.914 -3449.853 -0.215 1.176 0.648 -0.11 0.43 -0.89 0.09
1 7.94 794 1.307 -8.830 5.358 5.646 -11.719 19.409 -1034.926 -2219.904 -3464.993 -0.178 1.155 0.629 -0.11 0.43 -0.89 0.1
1 7.95 795 1.231 -8.706 5.047 5.310 -5.829 11.536 -1034.926 -2219.904 -3464.993 -0.121 1.026 0.939 -0.11 0.43 -0.89 0.1
1 7.96 796 0.833 -8.955 4.765 -5.066 -7.202 6.805 -1079.896 -2309.995 -3599.905 0.271 1.271 1.218 -0.11 0.43 -0.89 0.1
1 7.97 797 0.527 -9.299 5.540 -18.250 -14.038 2.136 -1079.896 -2309.995 -3599.905 0.577 1.601 0.422 -0.11 0.43 -0.89 0.1
1 7.98 798 0.273 -9.831 8.428 -16.419 -27.222 -4.211 -1109.877 -2414.927 -3539.944 0.844 2.112 -2.494 -0.11 0.43 -0.89 0.1
1 7.99 799 1.657 -12.220 12.201 23.163 -29.633 -8.881 -1109.877 -2414.927 -3539.944 -0.506 4.493 -6.285 -0.11 0.43 -0.89 0.1
1 8.00 800 3.419 -13.331 13.202 31.952 -14.679 4.517 -1364.861 -2309.995 -3494.973 -2.228 5.621 -7.271 -0.12 0.43 -0.89 0.1
1 8.01 801 5.114 -12.446 11.555 -3.540 18.066 36.224 -1274.919 -2399.937 -3509.963 -3.906 4.767 -5.587 -0.12 0.43 -0.89 0.1
1 8.02 802 4.971 -9.563 5.785 -30.975 53.742 54.627 -1274.919 -2399.937 -3509.963 -3.902 1.857 0.175 -0.11 0.43 -0.89 0.1
1 8.03 803 4.080 -7.753 3.970 -23.071 46.784 38.361 -1229.949 -2384.946 -3419.872 -3.120 0.013 1.965 -0.11 0.43 -0.89 0.11
1 8.04 804 2.955 -7.202 3.898 -15.137 35.675 18.066 -1229.949 -2384.946 -3419.872 -2.048 -0.565 2.009 -0.1 0.43 -0.89 0.11
1 8.05 805 2.117 -7.370 4.650 -14.648 26.306 4.608 -1304.900 -2339.976 -3314.940 -1.246 -0.414 1.241 -0.1 0.43 -0.89 0.11
1 8.06 806 0.795 -7.609 6.441 -17.273 9.064 -8.575 -1154.998 -2309.995 -3419.872 0.057 -0.189 -0.566 -0.1 0.44 -0.89 0.1
1 8.07 807 0.278 -8.150 7.489 -16.205 -3.418 -14.648 -1169.988 -2249.884 -3554.934 0.576 0.339 -1.632 -0.1 0.44 -0.89 0.1
1 8.08 808 -0.024 -8.361 8.246 -19.989 -12.939 -15.472 -1079.896 -2264.875 -3599.905 0.893 0.542 -2.403 -0.1 0.44 -0.89 0.1
1 8.09 809 -0.235 -8.351 9.477 -41.565 -10.864 -6.348 -1079.896 -2264.875 -3599.905 1.161 0.496 -3.691 -0.1 0.44 -0.89 0.1
1 8.10 810 -0.278 -8.289 9.620 -61.920 2.930 8.026 -1094.887 -2279.865 -3509.963 1.215 0.394 -3.890 -0.1 0.44 -0.88 0.1
1 8.11 811 -0.455 -7.858 9.275 -78.766 20.874 26.581 -1094.887 -2279.865 -3509.963 1.370 -0.096 -3.624 -0.1 0.45 -0.88 0.1
1 8.12 812 -0.627 -7.025 8.327 -84.717 32.257 42.542 -1139.857 -2249.884 -3509.963 1.484 -1.002 -2.770 -0.1 0.45 -0.88 0.1
1 8.13 813 -0.891 -6.120 7.221 -74.646 32.318 52.063 -1019.936 -2174.933 -3479.983 1.664 -1.982 -1.762 -0.1 0.46 -0.88 0.1
1 8.14 814 -1.058 -4.717 5.679 -31.220 19.592 54.566 -989.955 -1979.910 -3479.983 1.728 -3.436 -0.283 -0.09 0.46 -0.87 0.1
1 8.15 815 -0.924 -3.606 4.683 10.407 8.637 47.028 -1019.936 -1859.988 -3449.853 1.507 -4.584 0.667 -0.09 0.47 -0.87 0.11
1 8.16 816 -0.110 -2.409 3.730 80.170 -9.338 27.191 -1019.936 -1859.988 -3449.853 0.574 -5.749 1.681 -0.09 0.47 -0.87 0.11
1 8.17 817 0.326 -2.212 3.668 100.190 -14.069 19.867 -944.984 -1859.988 -3374.901 0.119 -5.870 1.857 -0.09 0.46 -0.88 0.11
1 8.18 818 1.207 -2.366 4.482 131.806 -13.825 1.770 -944.984 -1859.988 -3374.901 -0.760 -5.611 1.193 -0.08 0.45 -0.88 0.11
1 8.19 819 1.748 -3.271 5.789 118.927 -1.343 -4.272 -1064.906 -2129.962 -3404.882 -1.291 -4.590 0.046 -0.08 0.44 -0.89 0.12
1 8.20 820 2.117 -4.836 7.662 46.356 36.499 0.977 -989.955 -2174.933 -3404.882 -1.658 -2.922 -1.693 -0.08 0.43 -0.89 0.12
1 8.21 821 2.275 -8.069 10.497 -31.921 62.134 15.595 -1034.926 -2189.923 -3539.944 -1.835 0.376 -4.441 -0.08 0.43 -0.89 0.11
1 8.22 822 1.911 -10.104 11.564 -128.296 69.275 31.860 -929.994 -2264.875 -3749.957 -1.531 2.409 -5.508 -0.08 0.43 -0.89 0.11
1 8.23 823 1.245 -10.860 10.607 -210.541 49.256 33.814 -929.994 -2264.875 -3749.957 -0.962 3.070 -4.668 -0.07 0.44 -0.89 0.11
1 8.24 824 0.522 -10.808 6.469 -200.257 16.724 10.101 -929.994 -2414.927 -3494.973 -0.385 2.651 -1.039 -0.07 0.47 -0.87 0.11
1 8.25 825 0.321 -10.401 4.348 -106.079 2.350 -1.099 -929.994 -2414.927 -3494.973 -0.203 2.098 0.857 -0.07 0.48 -0.87 0.11
1 8.26 826 0.330 -9.668 3.242 13.641 -11.597 -5.524 -779.942 -1994.900 -3539.944 -0.208 1.306 1.867 -0.07 0.48 -0.87 0.11
1 8.27 827 0.972 -8.797 3.170 120.942 -26.856 -5.463 -779.942 -1889.969 -3464.993 -0.828 0.460 1.980 -0.07 0.48 -0.87 0.11
1 8.28 828 1.757 -7.049 4.085 212.311 -39.948 -5.310 -869.883 -1904.959 -3374.901 -1.577 -1.182 1.232 -0.07 0.47 -0.87 0.11
1 8.29 829 2.318 -5.804 5.248 216.920 -34.973 -8.087 -794.932 -1859.988 -3479.983 -2.093 -2.260 0.317 -0.07 0.46 -0.88 0.11
1 8.30 830 2.533 -4.712 6.460 177.918 -18.890 -14.648 -794.932 -1859.988 -3479.983 -2.268 -3.158 -0.626 -0.07 0.44 -0.89 0.11
1 8.31 831 2.102 -4.123 8.169 60.730 13.367 -23.590 -854.893 -2144.953 -3569.924 -1.774 -3.452 -1.960 -0.07 0.42 -0.9 0.11
1 8.32 832 1.283 -4.401 8.437 -29.999 28.534 -23.316 -854.893 -2144.953 -3569.924 -0.930 -3.118 -2.162 -0.07 0.42 -0.9 0.11
1 8.33 833 0.728 -5.358 7.839 -105.835 32.776 -19.074 -824.913 -2144.953 -3644.875 -0.369 -2.189 -1.598 -0.07 0.42 -0.9 0.1
1 8.34 834 0.196 -6.642 6.728 -150.971 26.947 -15.961 -794.932 -2399.937 -3659.866 0.157 -1.002 -0.605 -0.07 0.43 -0.9 0.1
1 8.35 835 0.259 -8.251 5.402 -158.631 14.557 -14.648 -869.883 -2444.907 -3659.866 0.091 0.473 0.550 -0.07 0.44 -0.89 0.1
1 8.36 836 0.867 -9.917 4.382 -103.150 -5.859 -18.036 -914.854 -2054.861 -3629.885 -0.509 2.004 1.388 -0.07 0.45 -0.89 0.1
1 8.37 837 1.298 -10.401 4.142 -37.628 -13.489 -17.700 -914.854 -2054.861 -3629.885 -0.916 2.382 1.479 -0.07 0.46 -0.88 0.09
1 8.38 838 1.710 -10.358 4.664 27.893 -11.353 -14.557 -899.864 -1994.900 -3599.905 -1.295 2.294 0.890 -0.07 0.46 -0.88 0.09
1 8.39 839 1.614 -8.888 5.732 91.858 6.622 -8.789 -899.864 -1994.900 -3599.905 -1.151 0.896 -0.079 -0.07 0.45 -0.88 0.09
1 8.40 840 1.116 -7.743 6.216 102.997 22.797 -5.463 -824.913 -1919.949 -3539.944 -0.649 -0.163 -0.444 -0.07 0.45 -0.89 0.09
1 8.41 841 0.852 -6.752 6.311 91.156 32.868 -4.883 -914.854 -2054.861 -3584.915 -0.396 -1.062 -0.414 -0.07 0.44 -0.89 0.09
1 8.42 842 0.469 -6.421 6.101 65.003 36.011 -4.059 -749.961 -2069.852 -3674.856 -0.035 -1.309 -0.094 -0.07 0.43 -0.89 0.09
1 8.43 843 0.522 -5.962 5.368 19.928 26.276 -4.334 -899.864 -2264.875 -3674.856 -0.114 -1.710 0.716 -0.06 0.43 -0.9 0.09
1 8.44 844 0.752 -6.211 5.023 -2.991 16.693 -3.937 -899.864 -2264.875 -3674.856 -0.366 -1.435 1.095 -0.06 0.43 -0.9 0.09
1 8.45 845 0.958 -6.417 4.789 -15.625 10.376 -5.127 -899.864 -2219.904 -3599.905 -0.585 -1.226 1.335 -0.06 0.43 -0.9 0.08
1 8.46 846 1.259 -6.723 4.870 -16.388 14.618 -8.026 -899.864 -2219.904 -3599.905 -0.893 -0.945 1.222 -0.06 0.43 -0.9 0.08
1 8.47 847 1.188 -6.982 4.870 -12.146 25.635 -10.620 -794.932 -2249.884 -3704.986 -0.827 -0.699 1.206 -0.06 0.43 -0.9 0.08
1 8.48 848 1.030 -7.092 5.004 -7.629 37.598 -13.001 -869.883 -2249.884 -3629.885 -0.682 -0.597 1.062 -0.06 0.43 -0.9 0.08
1 8.49 849 0.761 -7.164 5.023 -4.181 44.464 -15.167 -869.883 -2249.884 -3629.885 -0.435 -0.530 1.038 -0.06 0.43 -0.9 0.08
1 8.50 850 -0.177 -7.384 5.172 -1.068 39.185 -16.937 -764.952 -2174.933 -3764.947 0.480 -0.311 0.890 -0.05 0.43 -0.9 0.07
1 8.51 851 -0.670 -7.485 5.334 -3.906 23.804 -16.846 -764.952 -2174.933 -3764.947 0.954 -0.212 0.725 -0.05 0.43 -0.9 0.07
1 8.52 852 -0.527 -7.896 5.449 -11.444 3.876 -14.069 -794.932 -2129.962 -3734.967 0.801 0.196 0.606 -0.05 0.43 -0.9 0.07
1 8.53 853 0.153 -8.021 5.445 -19.440 -23.407 -6.287 -794.932 -2129.962 -3734.967 0.139 0.295 0.577 -0.05 0.44 -0.9 0.07
1 8.54 854 0.594 -8.188 5.478 -21.698 -33.600 -2.197 -674.860 -2309.995 -3794.928 -0.274 0.442 0.516 -0.05 0.44 -0.9 0.07
1 8.55 855 1.513 -8.251 5.243 -23.499 -34.393 -0.183 -734.971 -2279.865 -3764.947 -1.158 0.482 0.720 -0.05 0.44 -0.89 0.07
1 8.56 856 2.231 -8.538 5.287 -26.917 -24.750 -1.434 -734.971 -2279.865 -3764.947 -1.839 0.746 0.644 -0.06 0.44 -0.89 0.07
1 8.57 857 2.552 -8.940 4.904 -36.530 4.791 -4.547 -584.919 -2174.933 -3659.866 -2.126 1.120 0.987 -0.06 0.44 -0.89 0.07
1 8.58 858 2.423 -9.635 4.956 -41.474 28.412 -3.937 -584.919 -2174.933 -3659.866 -1.976 1.778 0.885 -0.06 0.45 -0.89 0.07
1 8.59 859 1.906 -10.228 5.732 -41.535 43.854 -2.747 -839.903 -2174.933 -3704.986 -1.466 2.335 0.059 -0.06 0.45 -0.89 0.07
1 8.60 860 0.369 -11.186 8.361 -20.691 37.781 1.495 -839.903 -2174.933 -3704.986 -0.000 3.228 -2.653 -0.05 0.45 -0.89 0.06
1 8.61 861 -0.302 -11.622 9.194 -11.505 27.863 1.007 -749.961 -2114.972 -3599.905 0.640 3.651 -3.503 -0.05 0.45 -0.89 0.06
1 8.62 862 -1.882 -12.345 9.390 -15.869 -24.780 -7.935 -690.000 -2009.891 -3629.885 2.220 4.371 -3.704 -0.05 0.46 -0.89 0.06
1 8.63 863 -2.045 -11.574 7.753 -44.281 -59.998 -14.069 -690.000 -2009.891 -3629.885 2.425 3.581 -2.095 -0.05 0.46 -0.89 0.06
1 8.64 864 -1.331 -10.018 6.196 -37.567 -68.939 -12.268 -614.899 -2054.861 -3584.915 1.786 1.986 -0.600 -0.06 0.46 -0.88 0.06
1 8.65 865 -0.785 -9.625 6.091 -13.062 -50.141 -9.430 -614.899 -2054.861 -3584.915 1.317 1.559 -0.551 -0.06 0.46 -0.88 0.06
1 8.66 866 -0.287 -9.568 6.292 2.716 -27.954 -7.416 -734.971 -2129.962 -3734.967 0.879 1.487 -0.779 -0.07 0.46 -0.88 0.07
1 8.67 867 0.369 -9.735 6.340 4.639 -10.071 -2.472 -734.971 -2129.962 -3734.967 0.261 1.657 -0.828 -0.07 0.46 -0.88 0.07
1 8.68 868 0.551 -9.352 6.512 -1.129 1.984 8.423 -899.864 -2039.871 -3539.944 0.096 1.281 -0.992 -0.07 0.46 -0.88 0.07
1 8.69 869 0.694 -9.175 6.738 -2.472 8.331 14.465 -764.952 -2009.891 -3659.866 -0.062 1.102 -1.217 -0.07 0.46 -0.88 0.07
1 8.70 870 0.910 -8.787 7.025 -2.777 12.421 18.036 -764.952 -2009.891 -3659.866 -0.305 0.712 -1.505 -0.07 0.46 -0.88 0.07
1 8.71 871 1.006 -8.332 7.236 -5.341 10.407 19.867 -869.883 -1859.988 -3629.885 -0.434 0.254 -1.717 -0.07 0.46 -0.88 0.07
1 8.72 872 1.097 -7.365 7.116 -8.362 -6.073 15.961 -779.942 -1964.920 -3494.973 -0.556 -0.719 -1.602 -0.07 0.46 -0.88 0.07
1 8.73 873 1.312 -6.263 6.953 -9.552 -19.959 5.829 -839.903 -1859.988 -3629.885 -0.788 -1.823 -1.442 -0.07 0.46 -0.88 0.07
1 8.74 874 1.355 -5.670 6.694 -10.925 -31.311 -7.233 -839.903 -1859.988 -3629.885 -0.824 -2.416 -1.183 -0.07 0.46 -0.88 0.07
1 8.75 875 1.561 -4.769 6.647 -9.857 -31.494 -24.078 -854.893 -2069.852 -3719.977 -0.941 -3.316 -1.144 -0.07 0.46 -0.88 0.07
1 8.76 876 1.551 -4.042 6.551 -0.244 -18.402 -28.381 -899.864 -1919.949 -3674.856 -0.875 -4.047 -1.059 -0.08 0.46 -0.88 0.07
1 8.77 877 1.480 -3.951 6.297 17.242 6.897 -24.475 -899.864 -1919.949 -3674.856 -0.757 -4.131 -0.800 -0.08 0.46 -0.88 0.07
1 8.78 878 1.058 -3.496 5.971 40.314 37.720 -17.334 -899.864 -1799.877 -3749.957 -0.320 -4.563 -0.443 -0.08 0.46 -0.88 0.07
1 8.79 879 0.196 -3.103 5.512 71.198 71.472 -12.024 -914.854 -1904.959 -3659.866 0.523 -4.913 0.080 -0.08 0.46 -0.88 0.06
1 8.80 880 -1.379 -2.830 4.496 80.963 69.977 -15.900 -944.984 -1979.910 -3734.967 2.056 -5.126 1.186 -0.07 0.45 -0.89 0.06
1 8.81 881 -2.433 -3.151 4.367 76.630 42.603 -21.881 -944.984 -1979.910 -3734.967 3.064 -4.732 1.420 -0.07 0.45 -0.89 0.06
1 8.82 882 -2.883 -4.171 4.726 54.566 -6.317 -31.128 -1004.945 -1964.920 -3824.908 3.493 -3.639 1.163 -0.06 0.44 -0.89 0.06
1 8.83 883 -2.088 -6.991 6.972 -18.250 -87.036 -58.472 -839.903 -2054.861 -3659.866 2.822 -0.731 -0.984 -0.07 0.44 -0.9 0.05
1 8.84 884 -1.044 -9.946 9.678 -88.166 -111.512 -73.334 -839.903 -2054.861 -3659.866 1.930 2.202 -3.737 -0.08 0.44 -0.89 0.05
1 8.85 885 0.340 -12.599 11.957 -159.028 -92.285 -60.852 -734.971 -2099.982 -3809.918 0.732 4.771 -6.159 -0.09 0.44 -0.89 0.05
1 8.86 886 1.714 -13.293 10.679 -188.386 -38.941 -22.217 -914.854 -2099.982 -3839.898 -0.509 5.327 -5.099 -0.09 0.45 -0.88 0.05
1 8.87 887 1.705 -11.449 6.129 -95.734 26.459 13.123 -1109.877 -2039.871 -3644.875 -0.462 3.334 -0.778 -0.1 0.47 -0.88 0.05
1 8.88 888 1.154 -10.396 4.113 13.062 36.102 13.886 -1109.877 -2039.871 -3644.875 0.062 2.184 1.094 -0.1 0.47 -0.87 0.05
1 8.89 889 0.862 -9.271 3.160 111.328 20.172 11.780 -1109.877 -1844.998 -3719.977 0.307 1.045 2.037 -0.09 0.48 -0.87 0.05
1 8.90 890 0.613 -7.695 3.419 188.416 -22.217 7.660 -1034.926 -1844.998 -3644.875 0.507 -0.343 2.074 -0.09 0.46 -0.88 0.05
1 8.91 891 0.690 -6.465 3.965 188.233 -43.152 6.561 -1034.926 -1844.998 -3644.875 0.445 -1.414 1.752 -0.09 0.45 -0.89 0.05
1 8.92 892 0.910 -5.435 4.722 150.940 -51.911 5.768 -1079.896 -1844.998 -3749.957 0.258 -2.281 1.206 -0.09 0.43 -0.89 0.06
1 8.93 893 1.312 -4.654 5.866 86.823 -48.706 4.120 -1019.936 -2054.861 -3704.986 -0.102 -2.935 0.214 -0.1 0.42 -0.9 0.06
1 8.94 894 1.796 -4.808 7.944 -28.320 -19.562 0.397 -1064.906 -2174.933 -3764.947 -0.547 -2.718 -1.793 -0.1 0.42 -0.9 0.06
1 8.95 895 1.475 -5.612 8.097 -83.741 10.895 -2.136 -1064.906 -2174.933 -3764.947 -0.202 -1.922 -1.961 -0.1 0.42 -0.9 0.06
1 8.96 896 1.010 -6.967 7.877 -106.812 40.955 -4.242 -1184.978 -2384.946 -3854.889 0.265 -0.617 -1.803 -0.1 0.42 -0.9 0.06
1 8.97 897 0.125 -8.505 6.479 -106.690 68.878 4.334 -1079.896 -2189.923 -3749.957 1.071 0.749 -0.608 -0.1 0.44 -0.89 0.06
1 8.98 898 -0.369 -9.127 4.870 -95.612 68.665 13.519 -1079.896 -2189.923 -3749.957 1.486 1.280 0.893 -0.09 0.44 -0.89 0.06
1 8.99 899 -0.766 -9.568 3.505 -73.273 48.889 19.653 -1154.998 -2144.953 -3824.908 1.798 1.635 2.155 -0.09 0.45 -0.89 0.05
1 9.00 900 -0.876 -9.884 3.165 -43.610 15.320 19.592 -1139.857 -2129.962 -3734.967 1.836 1.880 2.409 -0.08 0.46 -0.88 0.05
1 9.01 901 -0.129 -9.773 3.726 8.148 -36.957 16.724 -1004.945 -1889.969 -3719.977 1.047 1.725 1.790 -0.08 0.46 -0.88 0.06
1 9.02 902 0.302 -9.419 4.516 38.513 -57.434 14.893 -1004.945 -1889.969 -3719.977 0.608 1.356 0.979 -0.08 0.46 -0.88 0.06
1 9.03 903 0.709 -8.940 5.339 61.463 -61.279 13.458 -854.893 -1994.900 -3674.856 0.220 0.892 0.175 -0.09 0.46 -0.88 0.06
1 9.04 904 0.546 -8.093 6.034 76.050 -45.593 13.397 -1019.936 -1784.887 -3764.947 0.443 0.144 -0.388 -0.09 0.45 -0.89 0.07
1 9.05 905 0.321 -7.877 6.240 75.043 -37.811 12.878 -1019.936 -1784.887 -3764.947 0.686 -0.007 -0.507 -0.09 0.45 -0.89 0.07
1 9.06 906 -0.555 -7.125 6.115 57.953 -21.027 15.289 -1094.887 -1979.910 -3704.986 1.563 -0.698 -0.299 -0.09 0.44 -0.89 0.07
1 9.07 907 -1.001 -6.809 5.521 39.337 -20.325 18.555 -1139.857 -1904.959 -3734.967 1.997 -0.965 0.362 -0.09 0.44 -0.89 0.08
1 9.08 908 -1.413 -6.608 5.109 9.094 -33.905 22.003 -1169.988 -2054.861 -3659.866 2.399 -1.136 0.814 -0.1 0.43 -0.89 0.08
1 9.09 909 -1.413 -6.330 4.473 -6.744 -45.471 23.743 -1169.988 -2054.861 -3659.866 2.401 -1.403 1.464 -0.1 0.43 -0.89 0.08
1 9.10 910 -0.876 -6.455 4.329 -15.045 -54.566 23.651 -1079.896 -2114.972 -3854.889 1.876 -1.284 1.599 -0.1 0.43 -0.89 0.08
1 9.11 911 -0.498 -6.738 4.315 -17.426 -55.786 21.149 -1154.998 -2069.852 -3899.859 1.517 -1.017 1.591 -0.1 0.43 -0.89 0.09
1 9.12 912 0.235 -7.078 4.951 -15.717 -48.462 16.937 -1154.998 -2069.852 -3899.859 0.835 -0.711 0.899 -0.11 0.44 -0.89 0.09
1 9.13 913 0.565 -7.537 5.402 -12.085 -39.398 14.435 -1244.939 -2054.861 -3764.947 0.528 -0.266 0.425 -0.11 0.44 -0.89 0.1
1 9.14 914 0.895 -7.954 6.019 -8.881 -30.457 12.207 -1259.929 -2144.953 -3644.875 0.210 0.138 -0.212 -0.11 0.44 -0.89 0.1
1 9.15 915 1.068 -8.375 6.211 -4.028 -22.278 10.590 -1259.929 -2144.953 -3644.875 0.047 0.551 -0.416 -0.11 0.44 -0.89 0.1
1 9.16 916 1.393 -8.686 6.240 1.648 -10.437 8.392 -1469.942 -2054.861 -3809.918 -0.274 0.859 -0.450 -0.11 0.44 -0.89 0.1
1 9.17 917 1.312 -8.897 6.029 0.488 -4.730 8.301 -1349.871 -2099.982 -3764.947 -0.193 1.070 -0.239 -0.12 0.44 -0.89 0.1
1 9.18 918 1.389 -9.208 5.330 -3.265 -2.441 8.392 -1319.890 -2009.891 -3839.898 -0.273 1.382 0.462 -0.12 0.44 -0.89 0.1
1 9.19 919 1.465 -9.592 4.367 -9.552 -9.918 10.712 -1319.890 -2009.891 -3839.898 -0.362 1.751 1.407 -0.12 0.44 -0.89 0.1
1 9.20 920 1.609 -9.951 3.922 -11.963 -21.423 13.001 -1409.981 -2069.852 -3824.908 -0.506 2.091 1.828 -0.12 0.44 -0.88 0.11
1 9.21 921 1.690 -10.324 3.687 -12.756 -34.302 14.801 -1364.861 -2069.852 -3719.977 -0.581 2.453 2.045 -0.12 0.44 -0.88 0.11
1 9.22 922 1.868 -10.578 4.099 -11.871 -44.891 16.480 -1364.861 -2069.852 -3719.977 -0.745 2.694 1.613 -0.12 0.44 -0.88 0.11
1 9.23 923 2.394 -10.549 7.178 8.423 -50.751 13.519 -1349.871 -2054.861 -3764.947 -1.250 2.655 -1.485 -0.12 0.44 -0.88 0.11
1 9.24 924 3.208 -10.908 9.764 44.525 -36.377 7.416 -1394.991 -2054.861 -3659.866 -2.038 3.015 -4.075 -0.12 0.44 -0.88 0.11
1 9.25 925 3.888 -11.244 11.392 76.325 -6.317 3.113 -1394.991 -2099.982 -3734.967 -2.692 3.380 -5.667 -0.13 0.44 -0.88 0.12
1 9.26 926 4.722 -10.650 11.842 62.134 29.694 9.552 -1394.991 -2099.982 -3734.967 -3.517 2.849 -6.034 -0.13 0.43 -0.88 0.12
1 9.27 927 3.816 -9.453 8.548 -7.996 75.958 27.893 -1439.962 -1919.949 -3599.905 -2.713 1.737 -2.608 -0.12 0.43 -0.89 0.12
1 9.28 928 2.811 -8.777 6.144 -38.422 70.526 30.365 -1559.884 -1994.900 -3674.856 -1.812 1.042 -0.210 -0.11 0.43 -0.89 0.12
1 9.29 929 1.939 -8.739 4.918 -51.392 42.877 24.597 -1559.884 -1994.900 -3674.856 -1.034 0.962 0.976 -0.11 0.43 -0.89 0.12
1 9.30 930 1.480 -9.137 4.899 -51.605 18.433 17.120 -1334.880 -1994.900 -3719.977 -0.624 1.307 0.932 -0.11 0.44 -0.89 0.12
1 9.31 931 0.939 -9.122 5.560 -29.450 -3.326 2.869 -1274.919 -2129.962 -3884.869 -0.107 1.242 0.206 -0.11 0.44 -0.88 0.12
1 9.32 932 0.742 -8.883 6.283 -11.841 -9.705 -5.066 -1334.880 -1964.920 -3794.928 0.087 0.967 -0.564 -0.11 0.44 -0.88 0.12
1 9.33 933 0.311 -8.505 6.910 -2.625 -12.177 -8.820 -1334.880 -1964.920 -3794.928 0.529 0.575 -1.213 -0.11 0.44 -0.88 0.12
1 9.34 934 0.038 -7.892 8.088 -10.620 -7.538 -0.763 -1439.962 -1964.920 -3674.856 0.841 -0.041 -2.400 -0.11 0.44 -0.88 0.11
1 9.35 935 -0.129 -7.303 8.682 -29.114 3.265 11.078 -1169.988 -1934.939 -3764.947 1.011 -0.642 -3.012 -0.11 0.45 -0.88 0.11
1 9.36 936 -0.326 -6.618 8.797 -50.354 19.379 26.917 -1169.988 -1934.939 -3764.947 1.183 -1.357 -3.166 -0.11 0.45 -0.88 0.11
1 9.37 937 -0.474 -5.947 8.514 -71.137 35.339 42.847 -1409.981 -1919.949 -3749.957 1.273 -2.078 -2.947 -0.11 0.45 -0.88 0.12
1 9.38 938 -0.675 -5.076 7.370 -83.710 46.509 56.824 -1319.890 -1934.939 -3584.915 1.377 -3.002 -1.866 -0.1 0.46 -0.88 0.12
1 9.39 939 -0.752 -4.501 6.364 -73.120 42.725 58.838 -1334.880 -1844.998 -3824.908 1.338 -3.637 -0.936 -0.1 0.46 -0.87 0.12
1 9.40 940 -0.747 -4.008 5.430 -46.021 33.325 53.406 -1334.880 -1844.998 -3824.908 1.219 -4.190 -0.082 -0.09 0.47 -0.87 0.12
1 9.41 941 -0.163 -3.146 4.075 24.658 16.449 33.875 -1064.906 -1754.907 -3584.915 0.460 -5.112 1.194 -0.09 0.47 -0.87 0.12
1 9.42 942 0.163 -2.888 3.778 77.881 8.789 16.541 -1064.906 -1559.884 -3734.967 0.086 -5.339 1.541 -0.08 0.47 -0.87 0.13
1 9.43 943 0.479 -3.165 4.372 114.350 7.843 2.411 -1064.906 -1559.884 -3734.967 -0.253 -4.988 1.061 -0.08 0.47 -0.87 0.13
1 9.44 944 0.895 -3.955 5.761 119.416 17.273 -5.829 -1019.936 -1754.907 -3704.986 -0.678 -4.097 -0.179 -0.08 0.46 -0.88 0.13
1 9.45 945 0.881 -6.752 8.777 60.669 46.570 -3.418 -1004.945 -1844.998 -3599.905 -0.674 -1.200 -3.053 -0.08 0.45 -0.88 0.13
1 9.46 946 0.402 -9.596 10.889 -21.729 58.808 6.439 -1064.906 -1904.959 -3704.986 -0.223 1.719 -5.062 -0.07 0.44 -0.88 0.12
1 9.47 947 -0.278 -12.173 11.794 -143.891 37.659 11.414 -1064.906 -1904.959 -3704.986 0.401 4.297 -5.963 -0.07 0.44 -0.88 0.12
1 9.48 948 0.105 -12.790 8.179 -254.304 3.082 6.897 -929.994 -1994.900 -3749.957 -0.056 4.626 -2.759 -0.07 0.47 -0.87 0.12
1 9.49 949 0.081 -12.287 6.690 -232.423 3.448 8.698 -869.883 -1934.939 -3884.869 -0.045 3.927 -1.577 -0.07 0.48 -0.86 0.12
1 9.50 950 0.306 -10.669 3.663 -61.341 2.686 6.470 -869.883 -1934.939 -3884.869 -0.286 2.187 1.246 -0.07 0.49 -0.86 0.12
1 9.51 951 0.474 -9.448 3.060 72.052 -13.641 0.641 -839.903 -1589.864 -3659.866 -0.459 0.947 1.816 -0.07 0.5 -0.86 0.12
1 9.52 952 1.341 -7.403 3.242 213.380 -40.985 -7.080 -929.994 -1499.923 -3464.993 -1.308 -1.029 1.752 -0.07 0.49 -0.86 0.12
1 9.53 953 2.169 -6.120 3.855 250.336 -50.781 -14.191 -764.952 -1514.913 -3584.915 -2.097 -2.162 1.384 -0.07 0.48 -0.87 0.12
1 9.54 954 2.945 -4.717 4.784 243.775 -49.866 -21.912 -764.952 -1514.913 -3584.915 -2.817 -3.361 0.763 -0.07 0.46 -0.88 0.12
1 9.55 955 3.558 -3.706 5.890 199.677 -36.835 -28.565 -974.965 -1619.995 -3539.944 -3.360 -4.153 -0.039 -0.07 0.44 -0.89 0.12
1 9.56 956 3.630 -3.108 7.753 86.243 -0.916 -32.837 -1064.906 -1784.887 -3734.967 -3.305 -4.410 -1.475 -0.07 0.42 -0.9 0.12
1 9.57 957 3.069 -3.524 8.299 -6.073 26.764 -28.961 -1064.906 -1784.887 -3734.967 -2.701 -3.920 -1.935 -0.08 0.41 -0.9 0.12
1 9.58 958 2.346 -4.444 8.016 -88.867 47.974 -22.553 -1064.906 -2129.962 -3809.918 -1.957 -3.004 -1.658 -0.07 0.41 -0.9 0.11
1 9.59 959 1.599 -5.516 7.427 -154.603 58.563 -19.562 -1064.906 -2129.962 -3809.918 -1.218 -2.014 -1.167 -0.07 0.42 -0.9 0.11
1 9.60 960 0.766 -8.184 5.550 -202.149 52.796 -23.956 -1094.887 -2054.861 -3884.869 -0.407 0.510 0.535 -0.07 0.43 -0.89 0.11
1 9.61 961 0.316 -10.123 4.362 -187.073 37.171 -28.046 -1094.887 -2054.861 -3884.869 0.027 2.276 1.498 -0.07 0.44 -0.89 0.1
1 9.62 962 -0.024 -11.660 3.769 -132.142 17.822 -29.450 -869.883 -1979.910 -3734.967 0.366 3.641 1.855 -0.07 0.46 -0.88 0.1
1 9.63 963 -0.244 -11.909 4.156 -1.373 -5.524 -21.576 -1034.926 -1724.926 -3749.957 0.634 3.712 1.199 -0.07 0.47 -0.87 0.09
1 9.64 964 -0.072 -10.573 4.769 81.787 -8.911 -15.686 -1034.926 -1724.926 -3749.957 0.493 2.395 0.614 -0.07 0.47 -0.88 0.09
1 9.65 965 0.326 -8.907 5.239 138.276 -2.106 -12.817 -929.994 -1649.975 -3539.944 0.121 0.813 0.268 -0.07 0.46 -0.88 0.09
1 9.66 966 0.608 -7.604 5.684 158.082 10.223 -9.766 -929.994 -1649.975 -3539.944 -0.147 -0.365 0.001 -0.07 0.45 -0.88 0.09
1 9.67 967 1.240 -5.631 5.593 124.878 30.304 -7.080 -914.854 -1829.858 -3509.963 -0.780 -2.198 0.283 -0.07 0.44 -0.89 0.09
1 9.68 968 1.106 -5.009 5.459 75.623 39.948 -8.240 -914.854 -1829.858 -3509.963 -0.663 -2.696 0.580 -0.07 0.43 -0.89 0.09
1 9.69 969 0.972 -4.956 5.248 21.423 45.319 -10.071 -944.984 -1784.887 -3704.986 -0.554 -2.664 0.899 -0.06 0.43 -0.9 0.09
1 9.70 970 0.819 -5.306 5.081 -25.330 47.852 -12.360 -839.903 -2009.891 -3734.967 -0.431 -2.280 1.112 -0.06 0.42 -0.9 0.08
1 9.71 971 0.632 -6.364 4.980 -64.850 46.539 -15.808 -839.903 -2009.891 -3734.967 -0.306 -1.279 1.146 -0.06 0.43 -0.9 0.08
1 9.72 972 0.488 -7.111 4.961 -68.848 43.335 -18.127 -944.984 -2054.861 -3884.869 -0.186 -0.592 1.090 -0.05 0.43 -0.9 0.08
1 9.73 973 0.249 -7.825 4.875 -56.183 38.391 -20.447 -944.984 -2054.861 -3884.869 0.037 0.062 1.101 -0.05 0.44 -0.89 0.07
1 9.74 974 -0.048 -8.131 4.774 -35.919 30.548 -21.881 -869.883 -1829.858 -3734.967 0.326 0.321 1.139 -0.05 0.44 -0.89 0.07
1 9.75 975 -0.393 -8.136 4.621 -8.606 13.611 -21.484 -869.883 -1829.858 -3734.967 0.670 0.296 1.252 -0.05 0.44 -0.89 0.07
1 9.76 976 -0.450 -8.040 4.707 1.648 2.747 -18.066 -734.971 -1979.910 -3809.918 0.735 0.186 1.147 -0.05 0.45 -0.89 0.07
1 9.77 977 -0.350 -8.002 4.722 5.463 -4.639 -13.611 -899.864 -1844.998 -3599.905 0.647 0.143 1.126 -0.05 0.45 -0.89 0.06
1 9.78 978 0.153 -8.050 4.817 -4.639 -8.331 -7.263 -899.864 -1844.998 -3599.905 0.175 0.192 1.030 -0.05 0.45 -0.89 0.06
1 9.79 979 0.541 -8.165 4.923 -19.165 -4.059 -5.402 -764.952 -1904.959 -3704.986 -0.199 0.297 0.911 -0.05 0.45 -0.89 0.06
1 9.80 980 0.709 -8.725 4.856 -35.889 6.317 -4.395 -764.952 -1904.959 -3704.986 -0.358 0.834 0.946 -0.05 0.45 -0.89 0.06
1 9.81 981 1.015 -9.299 4.889 -49.896 19.409 -3.510 -749.961 -1844.998 -3644.875 -0.665 1.370 0.859 -0.05 0.45 -0.89 0.06
1 9.82 982 1.034 -10.406 5.124 -55.084 38.147 0.824 -749.961 -1799.877 -3749.957 -0.695 2.426 0.555 -0.05 0.46 -0.89 0.06
1 9.83 983 0.603 -11.143 6.560 -39.826 37.109 6.195 -749.961 -1649.975 -3644.875 -0.291 3.113 -0.952 -0.05 0.46 -0.88 0.06
1 9.84 984 -0.302 -11.718 8.466 -9.644 23.346 11.993 -779.942 -1799.877 -3599.905 0.576 3.650 -2.910 -0.05 0.46 -0.88 0.06
1 9.85 985 -1.566 -12.608 9.769 30.762 -20.416 10.071 -779.942 -1799.877 -3599.905 1.785 4.540 -4.211 -0.04 0.46 -0.88 0.06
