COL1	TIME	ACC_X	ACC_Y	ACC_Z	GYR_X	GYR_Y	GYR_Z	MAG_X	MAG_Y	MAG_Z	LACC_X	LACC_Y	LACC_Z	QUAT_X	QUAT_Y	QUAT_Z	QUAT_W
1 0.00 0 0.536 -9.079 3.424 2.258 0.031 1.831 224.854 419.876 3479.083 0.090 -0.034 0.126 0.01 -0.56 0.82 0.04
1 0.01 1 0.575 -9.184 3.467 2.441 0.488 0.977 224.854 419.876 3479.083 0.051 0.072 0.085 0.01 -0.56 0.82 0.04
1 0.02 2 0.718 -9.074 3.539 2.716 0.366 0.824 194.873 419.876 3614.146 -0.093 -0.037 0.016 0.01 -0.56 0.82 0.04
1 0.03 3 0.565 -9.132 3.438 1.984 0.519 1.251 194.873 419.876 3614.146 0.061 0.022 0.120 0.01 -0.56 0.82 0.04
1 0.04 4 0.575 -9.055 3.500 0.916 0.031 2.472 149.902 419.876 3644.126 0.051 -0.053 0.062 0.01 -0.56 0.82 0.04
1 0.05 5 0.479 -9.084 3.424 0.397 -0.946 3.143 149.902 419.876 3644.126 0.145 -0.024 0.139 0.01 -0.56 0.82 0.04
1 0.06 6 0.512 -9.012 3.496 -0.610 -0.763 2.960 59.961 374.906 3704.087 0.108 -0.096 0.067 0.01 -0.56 0.82 0.04
1 0.07 7 0.522 -9.070 3.477 0.275 -1.404 2.716 329.935 389.896 3689.097 0.097 -0.039 0.086 0.01 -0.56 0.82 0.04
1 0.08 8 0.594 -8.979 3.376 0.854 -1.007 2.686 329.935 389.896 3689.097 0.024 -0.130 0.186 0.01 -0.56 0.82 0.04
1 0.09 9 0.603 -9.218 3.453 1.373 -1.007 3.204 239.994 404.886 3704.087 0.014 0.109 0.108 0.01 -0.56 0.82 0.04
1 0.10 10 0.560 -9.060 3.477 1.587 -0.671 3.571 239.994 404.886 3704.087 0.055 -0.049 0.085 0.01 -0.56 0.82 0.04
1 0.11 11 0.589 -9.031 3.491 1.556 -0.793 3.113 119.922 344.925 3689.097 0.022 -0.077 0.074 0.01 -0.56 0.82 0.04
1 0.12 12 0.589 -9.151 3.405 1.862 -1.160 2.960 119.922 344.925 3689.097 0.019 0.043 0.162 0.01 -0.56 0.82 0.04
1 0.13 13 0.512 -9.204 3.419 0.854 -0.610 2.594 269.974 389.896 3584.015 0.095 0.096 0.148 0.01 -0.56 0.82 0.04
1 0.14 14 0.766 -9.103 3.390 1.678 -0.397 2.991 299.955 344.925 3539.044 -0.159 -0.005 0.176 0.01 -0.56 0.82 0.04
1 0.15 15 0.632 -9.055 3.443 1.740 -0.305 2.411 299.955 344.925 3539.044 -0.026 -0.053 0.123 0.01 -0.56 0.82 0.04
1 0.16 16 0.632 -9.314 3.558 1.892 -1.251 2.014 269.974 389.896 3584.015 -0.027 0.207 0.010 0.01 -0.56 0.82 0.04
1 0.17 17 0.627 -9.074 3.462 1.495 -0.977 2.441 269.974 389.896 3584.015 -0.022 -0.032 0.109 0.01 -0.56 0.82 0.04
1 0.18 18 0.651 -9.084 3.520 0.702 -1.221 2.533 194.873 314.945 3509.064 -0.047 -0.022 0.053 0.01 -0.56 0.82 0.04
1 0.19 19 0.646 -9.242 3.572 -0.061 -0.732 2.594 194.873 314.945 3509.064 -0.042 0.136 -0.000 0.01 -0.56 0.82 0.04
1 0.20 20 0.661 -9.156 3.486 -0.641 -0.793 2.197 149.902 389.896 3539.044 -0.056 0.050 0.085 0.01 -0.56 0.82 0.04
1 0.21 21 0.656 -9.113 3.553 -1.160 -0.702 2.563 149.902 464.847 3509.064 -0.051 0.006 0.018 0.01 -0.56 0.82 0.04
1 0.22 22 0.589 -9.132 3.582 -0.641 -0.580 2.319 149.902 464.847 3509.064 0.015 0.025 -0.013 0.01 -0.56 0.82 0.04
1 0.23 23 0.532 -9.132 3.520 0.092 -0.916 1.831 194.873 239.994 3644.126 0.072 0.025 0.049 0.01 -0.56 0.82 0.04
1 0.24 24 0.646 -9.175 3.433 0.671 -0.641 2.228 194.873 239.994 3644.126 -0.043 0.068 0.135 0.01 -0.56 0.82 0.04
1 0.25 25 0.565 -9.218 3.544 1.801 -0.946 2.350 299.955 314.945 3479.083 0.038 0.110 0.024 0.01 -0.56 0.82 0.04
1 0.26 26 0.517 -9.137 3.606 1.617 -0.153 2.258 209.863 329.935 3449.103 0.083 0.030 -0.035 0.01 -0.56 0.82 0.04
1 0.27 27 0.541 -9.175 3.477 1.343 0.000 2.625 239.994 254.984 3599.005 0.058 0.069 0.096 0.01 -0.56 0.82 0.04
1 0.28 28 0.508 -9.132 3.625 1.190 -0.153 2.686 194.873 389.896 3434.113 0.089 0.026 -0.051 0.01 -0.56 0.82 0.04
1 0.29 29 0.603 -9.151 3.429 0.427 -0.153 1.984 194.873 389.896 3434.113 -0.009 0.046 0.147 0.01 -0.56 0.82 0.04
1 0.30 30 0.512 -9.194 3.453 0.305 -0.031 2.197 194.873 344.925 3479.083 0.082 0.089 0.123 0.01 -0.56 0.82 0.04
1 0.31 31 0.661 -9.036 3.553 0.488 0.214 1.312 194.873 344.925 3479.083 -0.066 -0.069 0.022 0.01 -0.56 0.82 0.04
1 0.32 32 0.685 -9.041 3.486 0.305 0.458 1.099 239.994 329.935 3704.087 -0.090 -0.065 0.089 0.01 -0.56 0.82 0.04
1 0.33 33 0.584 -9.065 3.558 0.397 0.916 1.068 239.994 329.935 3704.087 0.011 -0.041 0.017 0.01 -0.56 0.82 0.04
1 0.34 34 0.551 -9.132 3.453 0.000 0.916 1.190 179.883 254.984 3524.054 0.045 0.027 0.123 0.01 -0.56 0.82 0.04
1 0.35 35 0.718 -9.026 3.563 -0.275 0.916 1.556 194.873 464.847 3584.015 -0.122 -0.079 0.013 0.01 -0.56 0.82 0.04
1 0.36 36 0.522 -9.022 3.462 -0.214 1.038 2.686 194.873 464.847 3584.015 0.074 -0.084 0.113 0.01 -0.56 0.82 0.04
1 0.37 37 0.551 -9.117 3.486 -0.824 0.092 2.167 194.873 389.896 3719.077 0.042 0.012 0.088 0.01 -0.56 0.82 0.04
1 0.38 38 0.484 -9.213 3.472 -0.275 0.122 2.350 194.873 389.896 3719.077 0.107 0.107 0.101 0.01 -0.56 0.82 0.04
1 0.39 39 0.546 -9.242 3.462 -0.275 1.465 1.770 179.883 329.935 3704.087 0.044 0.135 0.110 0.01 -0.56 0.82 0.04
1 0.40 40 0.436 -9.256 3.524 0.092 0.854 1.434 149.902 494.978 3539.044 0.152 0.149 0.046 0.01 -0.56 0.82 0.04
1 0.41 41 0.493 -9.117 3.553 0.427 1.007 0.916 44.971 314.945 3584.015 0.093 0.010 0.017 0.01 -0.56 0.82 0.04
1 0.42 42 0.402 -9.151 3.544 0.702 1.038 1.648 149.902 344.925 3644.126 0.183 0.043 0.027 0.01 -0.56 0.82 0.04
1 0.43 43 0.455 -9.204 3.520 1.068 1.190 1.556 149.902 344.925 3644.126 0.129 0.096 0.051 0.01 -0.56 0.82 0.04
1 0.44 44 0.469 -9.036 3.467 0.061 1.373 1.465 224.854 389.896 3539.044 0.113 -0.071 0.105 0.01 -0.56 0.82 0.04
1 0.45 45 0.488 -9.132 3.477 0.214 1.404 1.404 224.854 389.896 3539.044 0.093 0.025 0.096 0.01 -0.56 0.82 0.04
1 0.46 46 0.555 -9.113 3.500 0.427 1.221 1.221 239.994 329.935 3524.054 0.024 0.005 0.072 0.01 -0.56 0.82 0.04
1 0.47 47 0.656 -9.156 3.448 1.312 1.190 0.732 179.883 374.906 3674.106 -0.077 0.049 0.125 0.01 -0.56 0.82 0.04
1 0.48 48 0.546 -8.959 3.500 0.732 1.404 1.465 89.941 539.948 3509.064 0.032 -0.147 0.073 0.01 -0.56 0.82 0.04
1 0.49 49 0.584 -9.026 3.510 -0.488 1.038 0.732 179.883 449.857 3554.035 -0.007 -0.080 0.064 0.01 -0.56 0.82 0.04
1 0.50 50 0.527 -9.113 3.529 -1.343 1.862 1.495 179.883 449.857 3554.035 0.050 0.006 0.044 0.01 -0.56 0.82 0.04
1 0.51 51 0.579 -9.165 3.548 -2.167 1.923 1.831 209.863 374.906 3629.136 -0.004 0.057 0.023 0.01 -0.56 0.82 0.04
1 0.52 52 0.464 -9.098 3.481 -0.427 1.984 1.648 209.863 374.906 3629.136 0.109 -0.011 0.087 0.01 -0.56 0.82 0.04
1 0.53 53 0.555 -9.199 3.572 -0.183 1.617 1.770 239.994 254.984 3599.005 0.017 0.089 -0.007 0.01 -0.56 0.82 0.04
1 0.54 54 0.450 -9.175 3.510 0.885 1.129 1.221 149.902 314.945 3614.146 0.120 0.064 0.055 0.01 -0.56 0.82 0.04
1 0.55 55 0.589 -9.184 3.510 1.190 0.153 1.862 239.994 254.984 3554.035 -0.020 0.074 0.056 0 -0.56 0.82 0.04
1 0.56 56 0.527 -9.175 3.635 0.885 0.275 1.862 59.961 404.886 3674.106 0.042 0.065 -0.068 0 -0.56 0.82 0.04
1 0.57 57 0.570 -9.146 3.529 0.519 0.397 2.197 59.961 404.886 3674.106 -0.003 0.036 0.039 0 -0.56 0.82 0.04
1 0.58 58 0.536 -9.180 3.457 0.946 0.763 2.258 194.873 269.974 3644.126 0.029 0.070 0.111 0 -0.56 0.82 0.04
1 0.59 59 0.618 -9.122 3.630 0.793 0.336 2.319 194.873 269.974 3644.126 -0.054 0.012 -0.062 0 -0.56 0.82 0.04
1 0.60 60 0.517 -9.146 3.405 1.190 0.793 1.495 284.964 449.857 3554.035 0.045 0.036 0.164 0 -0.56 0.82 0.04
1 0.61 61 0.599 -9.189 3.477 0.916 0.336 2.136 284.964 329.935 3674.106 -0.037 0.080 0.094 0 -0.56 0.82 0.04
1 0.62 62 0.603 -9.146 3.591 0.244 1.251 1.251 299.955 164.893 3539.044 -0.043 0.037 -0.020 0 -0.56 0.82 0.04
1 0.63 63 0.522 -9.007 3.505 -0.397 0.885 1.434 59.961 104.932 3554.035 0.038 -0.101 0.067 0 -0.56 0.82 0.04
1 0.64 64 0.579 -8.993 3.481 -0.732 0.916 1.373 59.961 104.932 3554.035 -0.021 -0.116 0.090 0 -0.56 0.82 0.04
1 0.65 65 0.527 -9.031 3.438 -1.587 0.427 1.556 299.955 344.925 3644.126 0.032 -0.079 0.131 0 -0.56 0.82 0.04
1 0.66 66 0.517 -9.055 3.553 -1.953 0.153 1.587 299.955 344.925 3644.126 0.041 -0.056 0.013 0 -0.56 0.82 0.04
1 0.67 67 0.680 -9.103 3.515 -0.092 0.458 1.038 59.961 329.935 3599.005 -0.122 -0.009 0.049 0 -0.56 0.82 0.04
1 0.68 68 0.575 -9.180 3.505 1.495 -0.610 1.160 149.902 344.925 3584.015 -0.017 0.068 0.058 0 -0.56 0.82 0.04
1 0.69 69 0.608 -9.146 3.529 1.892 0.244 1.251 194.873 344.925 3689.097 -0.049 0.035 0.036 0 -0.56 0.82 0.04
1 0.70 70 0.546 -9.036 3.544 2.411 0.763 1.709 179.883 179.883 3674.106 0.013 -0.074 0.024 0 -0.56 0.82 0.04
1 0.71 71 0.551 -9.180 3.529 0.916 0.488 1.953 179.883 179.883 3674.106 0.008 0.070 0.041 0 -0.56 0.82 0.04
1 0.72 72 0.642 -9.055 3.524 0.519 0.092 1.923 299.955 464.847 3434.113 -0.084 -0.054 0.047 0 -0.56 0.82 0.04
1 0.73 73 0.584 -9.170 3.510 -1.343 0.122 1.556 299.955 464.847 3434.113 -0.026 0.061 0.061 0 -0.56 0.82 0.04
1 0.74 74 0.555 -9.089 3.405 -0.793 0.427 1.801 134.912 374.906 3494.074 0.003 -0.021 0.165 0 -0.56 0.82 0.04
1 0.75 75 0.608 -9.065 3.520 -0.305 0.183 2.472 299.955 269.974 3614.146 -0.050 -0.046 0.048 0 -0.56 0.82 0.04
1 0.76 76 0.532 -9.161 3.567 -0.092 0.397 1.343 149.902 389.896 3539.044 0.026 0.049 -0.002 0 -0.56 0.82 0.04
1 0.77 77 0.560 -9.007 3.505 0.214 0.580 1.343 209.863 299.955 3599.005 -0.003 -0.104 0.061 0 -0.56 0.82 0.04
1 0.78 78 0.618 -9.103 3.510 0.092 0.092 1.282 209.863 299.955 3599.005 -0.061 -0.008 0.055 0 -0.56 0.82 0.04
1 0.79 79 0.498 -8.993 3.697 -0.549 0.366 1.465 239.994 329.935 3524.054 0.059 -0.119 -0.133 0 -0.56 0.82 0.04
1 0.80 80 0.493 -9.070 3.481 -0.610 -0.031 1.251 239.994 329.935 3524.054 0.063 -0.042 0.083 0 -0.56 0.82 0.04
1 0.81 81 0.512 -9.094 3.572 -0.336 0.366 2.075 209.863 149.902 3494.074 0.044 -0.019 -0.009 0 -0.56 0.82 0.04
1 0.82 82 0.603 -9.065 3.577 -0.031 0.214 1.587 134.912 449.857 3599.005 -0.048 -0.047 -0.013 0 -0.56 0.82 0.04
1 0.83 83 0.603 -9.065 3.448 -0.092 0.580 1.709 134.912 449.857 3599.005 -0.049 -0.047 0.116 0 -0.56 0.82 0.04
1 0.84 84 0.603 -9.199 3.558 0.092 0.916 1.068 134.912 254.984 3494.074 -0.049 0.087 0.006 0 -0.56 0.82 0.04
1 0.85 85 0.613 -9.170 3.591 0.183 1.282 1.740 134.912 254.984 3494.074 -0.059 0.058 -0.028 0 -0.56 0.82 0.04
1 0.86 86 0.603 -9.237 3.491 1.312 0.366 1.404 224.854 269.974 3644.126 -0.050 0.125 0.073 0 -0.56 0.82 0.04
1 0.87 87 0.541 -9.290 3.601 1.190 0.671 1.251 224.854 269.974 3644.126 0.013 0.178 -0.036 0 -0.56 0.82 0.04
1 0.88 88 0.512 -9.319 3.457 -0.092 0.366 1.617 239.994 224.854 3554.035 0.041 0.207 0.108 0 -0.56 0.82 0.04
1 0.89 89 0.522 -9.194 3.658 -0.610 -0.336 1.556 179.883 179.883 3449.103 0.031 0.082 -0.093 0 -0.56 0.82 0.04
1 0.90 90 0.555 -9.127 3.563 0.092 -0.702 2.106 179.883 179.883 3449.103 -0.002 0.015 0.002 0 -0.56 0.82 0.04
1 0.91 91 0.225 -9.070 3.558 0.305 -0.916 2.563 284.964 404.886 3524.054 0.327 -0.043 0.006 0 -0.56 0.82 0.04
1 0.92 92 0.383 -9.046 3.630 0.183 -1.068 3.510 284.964 404.886 3524.054 0.168 -0.066 -0.065 0 -0.56 0.82 0.04
1 0.93 93 0.464 -9.022 3.486 0.671 -1.038 2.869 239.994 299.955 3674.106 0.083 -0.090 0.080 0 -0.56 0.82 0.04
1 0.94 94 0.551 -9.089 3.544 0.275 -1.099 2.655 239.994 299.955 3674.106 -0.003 -0.023 0.023 0 -0.56 0.82 0.04
1 0.95 95 0.575 -9.055 3.591 0.366 -0.397 2.319 314.945 479.987 3599.005 -0.027 -0.056 -0.025 0 -0.56 0.82 0.04
1 0.96 96 0.551 -9.050 3.544 0.702 0.336 2.014 209.863 449.857 3599.005 -0.004 -0.061 0.024 0 -0.56 0.82 0.04
1 0.97 97 0.694 -9.127 3.500 0.549 1.312 2.411 209.863 449.857 3599.005 -0.148 0.016 0.068 0 -0.56 0.82 0.04
1 0.98 98 0.704 -9.261 3.520 0.488 1.495 1.831 89.941 389.896 3584.015 -0.160 0.150 0.049 0 -0.56 0.82 0.04
1 0.99 99 0.623 -8.993 3.534 0.366 1.068 1.251 89.941 389.896 3584.015 -0.079 -0.118 0.035 0 -0.56 0.82 0.04
1 1.00 100 0.579 -9.165 3.548 0.549 1.068 2.014 224.854 344.925 3614.146 -0.035 0.055 0.021 0 -0.56 0.82 0.04
1 1.01 101 0.570 -9.237 3.448 1.648 0.793 1.831 224.854 344.925 3614.146 -0.025 0.127 0.122 0 -0.56 0.82 0.04
1 1.02 102 0.522 -9.184 3.563 2.075 0.305 1.648 329.935 269.974 3689.097 0.022 0.075 0.009 0 -0.56 0.82 0.04
1 1.03 103 0.570 -9.218 3.625 1.648 0.275 1.404 239.994 224.854 3599.005 -0.027 0.109 -0.050 0 -0.56 0.82 0.04
1 1.04 104 0.551 -9.194 3.515 0.946 -0.214 1.678 239.994 224.854 3599.005 -0.008 0.086 0.062 0 -0.56 0.82 0.04
1 1.05 105 0.469 -9.089 3.572 0.122 -0.885 1.648 329.935 314.945 3584.015 0.073 -0.018 0.006 0 -0.56 0.82 0.04
1 1.06 106 0.306 -9.156 3.577 -1.221 -0.549 2.167 194.873 239.994 3614.146 0.235 0.048 0.001 0 -0.56 0.82 0.04
1 1.07 107 0.627 -9.108 3.625 -0.702 -0.122 2.167 299.955 239.994 3644.126 -0.087 0.000 -0.048 0 -0.56 0.82 0.04
1 1.08 108 0.551 -9.041 3.625 -0.122 -0.793 1.831 299.955 239.994 3644.126 -0.011 -0.067 -0.047 0 -0.56 0.82 0.04
1 1.09 109 0.546 -9.113 3.577 -0.549 -0.641 1.190 179.883 329.935 3704.087 -0.007 0.005 0.001 0 -0.56 0.82 0.04
1 1.10 110 0.623 -9.175 3.505 0.122 0.488 0.549 299.955 419.876 3614.146 -0.083 0.067 0.073 0 -0.56 0.82 0.04
1 1.11 111 0.522 -9.137 3.443 1.007 0.397 0.671 299.955 419.876 3614.146 0.018 0.029 0.134 0 -0.56 0.82 0.04
1 1.12 112 0.498 -9.232 3.529 3.601 0.488 0.366 119.922 269.974 3539.044 0.044 0.126 0.051 0 -0.56 0.83 0.04
1 1.13 113 0.570 -9.089 3.587 2.960 0.092 1.343 119.922 269.974 3539.044 -0.028 -0.016 -0.002 0 -0.56 0.83 0.04
1 1.14 114 0.503 -9.170 3.635 3.204 -0.183 1.801 359.916 374.906 3629.136 0.040 0.067 -0.046 0 -0.56 0.83 0.04
1 1.15 115 0.670 -9.180 3.615 2.991 -0.702 2.136 359.916 374.906 3629.136 -0.128 0.078 -0.023 0 -0.56 0.83 0.04
1 1.16 116 0.541 -8.892 3.606 1.923 0.092 2.441 359.916 329.935 3629.136 0.001 -0.208 -0.009 0 -0.56 0.83 0.04
1 1.17 117 0.613 -9.175 3.587 0.854 -0.610 2.258 209.863 374.906 3494.074 -0.072 0.076 0.013 0 -0.56 0.83 0.04
1 1.18 118 0.680 -9.127 3.390 0.885 -0.397 2.441 209.863 374.906 3494.074 -0.140 0.028 0.209 0 -0.56 0.83 0.04
1 1.19 119 0.575 -9.084 3.443 0.519 -1.129 1.770 224.854 389.896 3614.146 -0.034 -0.015 0.156 0 -0.56 0.83 0.04
1 1.20 120 0.464 -9.046 3.548 0.610 -1.007 1.953 284.964 374.906 3524.054 0.076 -0.054 0.050 0 -0.56 0.83 0.04
1 1.21 121 0.512 -9.036 3.563 0.824 -1.801 1.434 209.863 329.935 3524.054 0.028 -0.063 0.036 0 -0.56 0.83 0.04
1 1.22 122 0.661 -9.031 3.591 0.519 -1.709 0.854 209.863 329.935 3524.054 -0.120 -0.068 0.008 0 -0.56 0.83 0.04
1 1.23 123 0.383 -9.026 3.644 1.038 -1.678 0.000 194.873 239.994 3539.044 0.159 -0.072 -0.044 0 -0.56 0.83 0.04
1 1.24 124 0.412 -9.137 3.620 0.641 -1.831 -0.458 224.854 269.974 3644.126 0.132 0.039 -0.019 0 -0.56 0.83 0.04
1 1.25 125 0.541 -9.065 3.639 0.519 -2.014 -1.099 224.854 269.974 3644.126 0.005 -0.033 -0.037 0 -0.56 0.83 0.04
1 1.26 126 0.508 -9.132 3.668 -0.275 -2.319 -1.617 224.854 239.994 3614.146 0.043 0.035 -0.065 0 -0.56 0.83 0.04
1 1.27 127 0.570 -9.117 3.572 -2.014 -2.838 -1.007 134.912 254.984 3629.136 -0.010 0.020 0.029 0 -0.56 0.83 0.04
1 1.28 128 0.718 -9.156 3.654 -2.960 -2.777 -1.526 224.854 539.948 3614.146 -0.153 0.058 -0.056 0 -0.56 0.83 0.04
1 1.29 129 0.752 -9.031 3.601 -3.998 -2.777 -0.946 224.854 539.948 3614.146 -0.180 -0.069 -0.009 0 -0.56 0.83 0.04
1 1.30 130 0.733 -9.141 3.548 -4.211 -3.784 -0.031 179.883 479.987 3554.035 -0.156 0.039 0.038 0.01 -0.56 0.83 0.04
1 1.31 131 0.761 -9.146 3.496 -3.296 -4.669 -0.702 209.863 374.906 3554.035 -0.179 0.042 0.085 0.01 -0.56 0.83 0.04
1 1.32 132 0.895 -9.055 3.409 -3.113 -4.272 -0.458 209.863 374.906 3554.035 -0.306 -0.051 0.165 0.01 -0.56 0.82 0.04
1 1.33 133 0.929 -9.280 3.572 -2.197 -4.791 -1.923 359.916 299.955 3554.035 -0.332 0.173 -0.003 0.01 -0.56 0.82 0.05
1 1.34 134 0.675 -9.022 3.500 1.862 -4.578 3.632 149.902 194.873 3509.064 -0.069 -0.087 0.064 0.01 -0.56 0.82 0.05
1 1.35 135 0.910 -9.036 3.702 5.859 -9.796 -1.740 209.863 329.935 3554.035 -0.295 -0.070 -0.131 0.01 -0.56 0.82 0.04
1 1.36 136 0.867 -8.907 3.702 6.439 -10.498 -1.251 209.863 329.935 3554.035 -0.241 -0.195 -0.122 0.01 -0.56 0.83 0.04
1 1.37 137 1.049 -8.811 3.649 4.364 -9.033 -1.648 149.902 344.925 3584.015 -0.411 -0.286 -0.061 0.01 -0.56 0.83 0.04
1 1.38 138 0.876 -8.835 3.611 3.693 -7.965 -1.892 284.964 299.955 3629.136 -0.226 -0.259 -0.017 0.01 -0.56 0.83 0.04
1 1.39 139 1.001 -9.041 3.582 3.876 -8.820 -2.747 284.964 299.955 3629.136 -0.339 -0.050 0.017 0.01 -0.56 0.83 0.04
1 1.40 140 0.967 -9.132 3.649 5.920 -10.315 -0.183 329.935 539.948 3719.077 -0.293 0.043 -0.046 0.01 -0.56 0.83 0.04
1 1.41 141 1.015 -9.175 3.515 6.714 -12.299 0.580 179.883 254.984 3599.005 -0.330 0.090 0.095 0.01 -0.56 0.83 0.04
1 1.42 142 1.293 -8.969 3.649 7.355 -14.832 2.991 239.994 224.854 3524.054 -0.588 -0.109 -0.024 0.01 -0.56 0.83 0.04
1 1.43 143 1.384 -9.127 3.754 6.805 -15.137 1.434 239.994 224.854 3524.054 -0.669 0.054 -0.121 0.01 -0.56 0.83 0.04
1 1.44 144 1.393 -8.988 3.663 5.219 -12.054 0.336 179.883 404.886 3734.067 -0.665 -0.081 -0.022 0.02 -0.56 0.83 0.04
1 1.45 145 1.355 -9.055 3.687 4.486 -8.667 1.587 179.883 404.886 3494.074 -0.615 -0.011 -0.040 0.02 -0.56 0.83 0.04
1 1.46 146 1.346 -8.926 3.673 3.967 -8.606 2.594 179.883 404.886 3494.074 -0.596 -0.137 -0.021 0.02 -0.56 0.83 0.04
1 1.47 147 1.235 -8.921 3.567 3.754 -10.590 1.831 104.932 329.935 3629.136 -0.478 -0.140 0.089 0.02 -0.56 0.83 0.04
1 1.48 148 1.288 -8.959 3.529 3.113 -10.559 2.258 284.964 449.857 3599.005 -0.521 -0.099 0.131 0.02 -0.56 0.83 0.04
1 1.49 149 1.178 -8.667 3.218 6.622 -15.808 7.385 194.873 239.994 3509.064 -0.406 -0.388 0.449 0.02 -0.56 0.83 0.04
1 1.50 150 1.556 -8.686 3.362 8.026 -17.242 2.716 194.873 239.994 3509.064 -0.777 -0.365 0.312 0.02 -0.56 0.83 0.04
1 1.51 151 1.518 -8.940 3.500 7.507 -13.489 4.059 149.902 314.945 3614.146 -0.726 -0.107 0.181 0.02 -0.56 0.83 0.04
1 1.52 152 1.465 -8.844 3.477 6.165 -10.162 2.960 29.980 329.935 3524.054 -0.664 -0.199 0.212 0.02 -0.56 0.83 0.04
1 1.53 153 1.484 -8.835 3.405 3.326 -7.263 3.906 29.980 329.935 3524.054 -0.675 -0.206 0.289 0.02 -0.56 0.83 0.04
1 1.54 154 1.365 -8.897 3.448 1.587 -8.057 4.547 29.980 224.854 3599.005 -0.549 -0.142 0.249 0.02 -0.56 0.83 0.04
1 1.55 155 1.322 -8.801 3.477 -0.366 -7.751 4.334 29.980 179.883 3554.035 -0.501 -0.237 0.220 0.02 -0.56 0.83 0.04
1 1.56 156 1.532 -8.959 3.438 -0.885 -6.165 4.150 224.854 269.974 3539.044 -0.702 -0.081 0.252 0.02 -0.56 0.83 0.04
1 1.57 157 1.417 -8.854 3.457 -0.977 -5.463 4.517 224.854 269.974 3539.044 -0.583 -0.188 0.229 0.03 -0.56 0.83 0.04
1 1.58 158 1.384 -8.974 3.443 -1.312 -3.357 5.005 119.922 194.873 3479.083 -0.547 -0.069 0.240 0.03 -0.56 0.83 0.04
1 1.59 159 1.188 -8.979 3.548 -2.075 -2.625 5.280 269.974 314.945 3509.064 -0.349 -0.066 0.130 0.03 -0.56 0.83 0.04
1 1.60 160 1.149 -8.950 3.553 -3.082 -2.686 5.219 269.974 314.945 3509.064 -0.311 -0.097 0.121 0.03 -0.56 0.83 0.04
1 1.61 161 1.025 -9.070 3.558 -5.402 -3.418 5.341 44.971 314.945 3584.015 -0.187 0.021 0.110 0.03 -0.56 0.83 0.04
1 1.62 162 0.872 -8.969 3.630 -6.378 -5.035 4.700 134.912 329.935 3629.136 -0.035 -0.083 0.030 0.03 -0.56 0.83 0.04
1 1.63 163 0.886 -8.921 3.553 -9.277 -5.035 4.730 134.912 329.935 3629.136 -0.050 -0.135 0.097 0.03 -0.56 0.83 0.04
1 1.64 164 0.953 -8.811 3.429 -15.839 -6.042 4.639 59.961 299.955 3554.035 -0.120 -0.258 0.190 0.03 -0.56 0.83 0.04
1 1.65 165 0.857 -8.825 3.347 -18.189 -5.463 4.456 0.000 224.854 3674.106 -0.025 -0.253 0.248 0.03 -0.56 0.83 0.04
1 1.66 166 0.867 -8.749 3.232 -19.440 -4.822 3.845 89.941 464.847 3539.044 -0.035 -0.341 0.336 0.03 -0.56 0.82 0.04
1 1.67 167 0.862 -9.065 3.069 -20.386 -5.005 3.387 89.941 464.847 3539.044 -0.030 -0.036 0.470 0.03 -0.56 0.82 0.04
1 1.68 168 0.833 -9.141 3.089 -21.027 -5.829 0.824 14.990 419.876 3794.028 -0.001 0.029 0.419 0.03 -0.57 0.82 0.04
1 1.69 169 0.953 -9.242 3.218 -23.438 -6.622 -0.488 0.000 374.906 3554.035 -0.119 0.117 0.258 0.03 -0.57 0.82 0.04
1 1.70 170 0.934 -9.467 3.323 -25.055 -4.730 0.427 0.000 374.906 3554.035 -0.094 0.330 0.118 0.03 -0.57 0.82 0.04
1 1.71 171 0.891 -9.582 3.457 -28.290 -1.587 1.373 59.961 449.857 3599.005 -0.043 0.417 -0.092 0.03 -0.57 0.82 0.04
1 1.72 172 0.915 -9.606 3.342 -30.548 1.740 1.770 134.912 404.886 3629.136 -0.067 0.426 -0.019 0.03 -0.57 0.82 0.04
1 1.73 173 0.900 -9.587 3.342 -29.724 7.538 6.805 104.932 329.935 3554.035 -0.055 0.391 -0.063 0.03 -0.58 0.82 0.04
1 1.74 174 0.603 -9.438 3.180 -26.764 9.979 9.125 104.932 329.935 3554.035 0.229 0.227 0.060 0.02 -0.58 0.81 0.04
1 1.75 175 0.613 -9.204 2.907 -26.886 11.383 4.578 -14.990 539.948 3539.044 0.202 -0.022 0.296 0.02 -0.58 0.81 0.04
1 1.76 176 0.402 -9.314 2.758 -28.870 14.435 4.700 14.990 464.847 3539.044 0.403 0.074 0.406 0.02 -0.58 0.81 0.04
1 1.77 177 0.105 -9.390 2.629 -29.877 14.862 4.822 14.990 464.847 3539.044 0.688 0.136 0.495 0.02 -0.58 0.81 0.04
1 1.78 178 -0.086 -9.443 2.284 -24.445 12.451 1.404 29.980 599.909 3674.106 0.848 0.157 0.754 0.02 -0.59 0.81 0.04
1 1.79 179 -0.350 -9.730 2.337 -22.064 10.437 0.427 104.932 554.938 3704.087 1.101 0.431 0.664 0.02 -0.59 0.81 0.04
1 1.80 180 -0.407 -9.697 2.437 -20.874 7.721 2.502 179.883 554.938 3734.067 1.146 0.386 0.528 0.02 -0.59 0.81 0.04
1 1.81 181 -0.369 -9.831 2.351 -19.959 4.211 3.906 179.883 554.938 3734.067 1.093 0.508 0.581 0.02 -0.59 0.8 0.04
1 1.82 182 -0.364 -9.759 2.418 -17.914 1.495 5.310 0.000 674.860 3779.038 1.073 0.425 0.482 0.01 -0.59 0.8 0.04
1 1.83 183 -0.096 -9.773 2.509 -17.212 0.305 8.148 104.932 554.938 3629.136 0.789 0.429 0.362 0.01 -0.59 0.8 0.04
1 1.84 184 -0.010 -9.769 2.447 -15.472 1.251 11.505 104.932 554.938 3629.136 0.686 0.415 0.396 0.01 -0.6 0.8 0.04
1 1.85 185 -0.057 -9.563 2.433 -15.381 1.709 10.956 59.961 554.938 3884.120 0.714 0.200 0.385 0.01 -0.6 0.8 0.04
1 1.86 186 0.014 -9.659 2.389 -15.656 2.258 13.519 209.863 704.991 3734.067 0.602 0.278 0.378 0.01 -0.6 0.8 0.04
1 1.87 187 0.029 -9.793 2.519 -12.299 0.793 11.658 44.971 569.929 3869.129 0.565 0.403 0.224 0.01 -0.6 0.8 0.04
1 1.88 188 0.077 -9.639 2.485 -9.064 -0.183 8.301 44.971 569.929 3869.129 0.499 0.243 0.239 0.01 -0.6 0.8 0.04
1 1.89 189 0.024 -9.668 2.672 -7.660 0.244 6.805 314.945 599.909 3734.067 0.538 0.267 0.037 0.01 -0.6 0.8 0.04
1 1.90 190 -0.029 -9.477 2.725 -7.477 -1.770 7.904 149.902 644.880 3869.129 0.578 0.071 -0.027 0.01 -0.6 0.8 0.04
1 1.91 191 0.110 -9.486 2.571 -7.385 -2.533 5.676 149.902 644.880 3869.129 0.426 0.077 0.115 0.01 -0.6 0.8 0.04
1 1.92 192 0.110 -9.352 2.548 -8.087 -5.707 4.852 209.863 854.893 3959.071 0.407 -0.065 0.115 0.01 -0.6 0.8 0.03
1 1.93 193 0.311 -9.357 2.447 -8.759 -5.310 4.303 149.902 689.851 3929.090 0.201 -0.064 0.202 0.01 -0.6 0.8 0.03
1 1.94 194 0.541 -9.323 2.461 -9.979 -5.768 3.052 104.932 749.961 3734.067 -0.032 -0.102 0.173 0.01 -0.6 0.8 0.03
1 1.95 195 0.608 -9.457 2.375 -6.897 -4.578 1.282 104.932 749.961 3734.067 -0.099 0.028 0.244 0.01 -0.61 0.8 0.03
1 1.96 196 0.517 -9.611 2.303 -4.150 -4.181 1.190 134.912 749.961 3914.100 -0.005 0.178 0.305 0.01 -0.61 0.79 0.03
1 1.97 197 0.369 -9.687 2.389 -1.495 -4.059 1.709 44.971 719.981 3719.077 0.145 0.252 0.210 0.01 -0.61 0.79 0.03
1 1.98 198 0.177 -9.644 2.351 1.465 -5.127 1.892 44.971 719.981 3719.077 0.337 0.208 0.245 0.01 -0.61 0.79 0.03
1 1.99 199 0.153 -9.611 2.322 2.563 -4.608 2.441 194.873 644.880 3794.028 0.361 0.175 0.273 0.01 -0.61 0.79 0.03
1 2.00 200 0.010 -9.486 2.413 3.235 -5.676 2.502 89.941 794.932 4049.012 0.501 0.050 0.184 0.01 -0.61 0.79 0.03
1 2.01 201 -0.110 -9.410 2.576 2.625 -7.629 2.014 14.990 794.932 3929.090 0.617 -0.026 0.023 0.01 -0.61 0.79 0.03
1 2.02 202 -0.101 -9.252 2.404 2.411 -7.813 1.740 14.990 794.932 3929.090 0.606 -0.183 0.198 0.01 -0.61 0.79 0.03
1 2.03 203 -0.220 -9.208 2.394 2.045 -9.003 1.556 29.980 749.961 4019.032 0.724 -0.226 0.209 0.01 -0.61 0.79 0.03
1 2.04 204 -0.182 -9.094 2.442 0.305 -9.827 1.862 104.932 704.991 3779.038 0.684 -0.341 0.162 0.01 -0.61 0.79 0.03
1 2.05 205 -0.096 -9.146 2.270 -0.183 -8.789 1.007 104.932 704.991 3779.038 0.597 -0.289 0.333 0.01 -0.61 0.79 0.03
1 2.06 206 0.057 -9.237 2.548 -0.488 -8.667 0.854 44.971 794.932 3824.009 0.443 -0.198 0.053 0.01 -0.61 0.79 0.03
1 2.07 207 0.168 -9.290 2.418 -2.075 -8.545 1.465 14.990 764.952 3824.009 0.333 -0.147 0.176 0.01 -0.61 0.79 0.03
1 2.08 208 0.038 -9.309 2.533 -4.028 -7.965 1.038 29.980 704.991 3914.100 0.464 -0.129 0.057 0.01 -0.61 0.79 0.03
1 2.09 209 0.148 -9.520 2.552 -6.134 -7.782 0.702 29.980 704.991 3914.100 0.354 0.079 0.029 0.01 -0.61 0.79 0.03
1 2.10 210 0.278 -9.611 2.509 -6.989 -8.484 0.458 89.941 794.932 3899.110 0.226 0.167 0.062 0.01 -0.61 0.79 0.03
1 2.11 211 0.345 -9.625 2.461 -5.341 -7.782 0.641 209.863 629.890 3839.149 0.162 0.179 0.100 0.01 -0.61 0.79 0.03
1 2.12 212 0.393 -9.529 2.519 -0.977 -7.935 -0.854 209.863 629.890 3839.149 0.117 0.081 0.034 0.01 -0.61 0.79 0.03
1 2.13 213 0.441 -9.601 2.538 -0.580 -9.247 -2.106 59.961 824.913 3914.100 0.074 0.153 0.012 0.01 -0.61 0.79 0.03
1 2.14 214 0.278 -9.481 2.495 -1.190 -9.460 -3.601 59.961 824.913 3914.100 0.245 0.033 0.053 0.01 -0.61 0.79 0.03
1 2.15 215 0.474 -9.472 2.490 -1.129 -11.810 -4.334 -89.941 689.851 3869.129 0.070 0.024 0.055 0.01 -0.61 0.79 0.03
1 2.16 216 0.345 -9.778 2.490 -2.441 -10.468 -6.012 -89.941 689.851 3869.129 0.213 0.330 0.051 0.02 -0.61 0.79 0.03
1 2.17 217 0.388 -9.946 2.562 -1.801 -9.003 -4.822 44.971 794.932 3869.129 0.183 0.497 -0.025 0.02 -0.61 0.79 0.03
1 2.18 218 0.340 -9.630 2.524 -0.977 -8.728 -4.669 14.990 689.851 3794.028 0.241 0.181 0.010 0.02 -0.61 0.79 0.03
1 2.19 219 0.311 -9.773 2.562 1.495 -7.111 -3.479 14.990 689.851 3794.028 0.279 0.324 -0.031 0.02 -0.61 0.79 0.03
1 2.20 220 0.259 -9.764 2.500 2.869 -7.904 -2.289 14.990 644.880 3824.009 0.340 0.315 0.032 0.02 -0.61 0.79 0.03
1 2.21 221 0.297 -9.630 2.490 3.296 -10.071 0.336 14.990 644.880 3824.009 0.308 0.182 0.044 0.02 -0.61 0.79 0.03
1 2.22 222 0.555 -9.697 2.562 2.075 -9.644 0.641 14.990 839.903 3899.110 0.058 0.251 -0.024 0.02 -0.61 0.79 0.03
1 2.23 223 0.474 -9.860 2.361 0.763 -9.949 3.937 14.990 839.903 3899.110 0.141 0.414 0.179 0.02 -0.61 0.79 0.03
1 2.24 224 0.589 -9.611 2.504 0.519 -9.064 3.662 119.922 689.851 3974.061 0.025 0.165 0.034 0.02 -0.61 0.79 0.02
1 2.25 225 0.536 -9.596 2.543 1.984 -5.829 3.052 -59.961 704.991 3779.038 0.077 0.151 -0.005 0.02 -0.61 0.79 0.02
1 2.26 226 0.431 -9.563 2.466 0.031 -3.204 4.761 -59.961 704.991 3779.038 0.181 0.117 0.074 0.02 -0.61 0.79 0.02
1 2.27 227 0.340 -9.682 2.423 -0.885 -3.754 5.707 -104.932 749.961 3914.100 0.267 0.236 0.115 0.02 -0.61 0.79 0.02
1 2.28 228 0.340 -9.807 2.519 0.946 -4.181 3.845 -104.932 749.961 3914.100 0.260 0.360 0.016 0.02 -0.61 0.79 0.02
1 2.29 229 0.302 -9.864 2.763 2.136 -2.594 2.075 -44.971 839.903 3869.129 0.291 0.417 -0.227 0.02 -0.61 0.79 0.02
1 2.30 230 0.555 -9.970 2.835 2.533 -2.991 1.251 -44.971 839.903 3869.129 0.036 0.523 -0.295 0.02 -0.61 0.79 0.02
1 2.31 231 0.517 -9.692 2.892 2.991 -2.655 0.519 14.990 689.851 3899.110 0.074 0.246 -0.348 0.02 -0.61 0.79 0.02
1 2.32 232 0.527 -9.654 2.753 4.150 -0.977 -0.214 -89.941 719.981 3869.129 0.066 0.210 -0.204 0.02 -0.61 0.79 0.02
1 2.33 233 0.627 -9.678 2.830 4.578 -1.068 -1.282 -89.941 719.981 3869.129 -0.031 0.236 -0.273 0.02 -0.61 0.79 0.02
1 2.34 234 0.747 -9.649 2.782 6.073 1.221 -0.610 44.971 839.903 3824.009 -0.146 0.210 -0.217 0.02 -0.61 0.79 0.02
1 2.35 235 0.637 -9.673 2.787 7.050 2.197 -0.488 44.971 839.903 3824.009 -0.033 0.237 -0.212 0.02 -0.61 0.79 0.02
1 2.36 236 0.536 -9.606 2.739 7.080 1.892 0.336 -59.961 824.913 3809.019 0.072 0.176 -0.142 0.02 -0.61 0.79 0.02
1 2.37 237 0.536 -9.587 2.801 6.622 2.014 0.397 -59.961 824.913 3809.019 0.073 0.159 -0.194 0.02 -0.61 0.8 0.02
1 2.38 238 0.488 -9.572 2.820 6.928 2.472 0.488 0.000 674.860 3809.019 0.121 0.148 -0.204 0.02 -0.61 0.8 0.02
1 2.39 239 0.441 -9.534 2.710 7.233 2.625 -1.007 89.941 794.932 3899.110 0.168 0.113 -0.082 0.02 -0.6 0.8 0.02
1 2.40 240 0.330 -9.611 2.682 8.179 1.953 -1.068 89.941 794.932 3899.110 0.280 0.193 -0.042 0.02 -0.6 0.8 0.03
1 2.41 241 0.297 -9.524 2.653 10.864 1.984 -1.587 89.941 689.851 3929.090 0.315 0.110 -0.001 0.02 -0.6 0.8 0.03
1 2.42 242 0.330 -9.438 2.744 10.559 0.275 -0.549 89.941 689.851 3929.090 0.283 0.028 -0.077 0.02 -0.6 0.8 0.03
1 2.43 243 0.172 -9.481 2.662 11.902 -0.610 0.916 -29.980 674.860 3914.100 0.442 0.076 0.019 0.02 -0.6 0.8 0.03
1 2.44 244 0.192 -9.309 2.504 12.543 -4.242 2.319 -44.971 719.981 3764.048 0.419 -0.087 0.212 0.02 -0.6 0.8 0.03
1 2.45 245 0.201 -9.189 2.662 13.184 -6.928 -0.214 59.961 599.909 3839.149 0.408 -0.202 0.070 0.02 -0.6 0.8 0.03
1 2.46 246 0.402 -9.103 2.710 12.207 -4.395 0.061 14.990 689.851 3869.129 0.209 -0.283 0.040 0.02 -0.6 0.8 0.03
1 2.47 247 0.292 -9.103 2.643 10.376 -1.709 0.275 14.990 689.851 3869.129 0.321 -0.278 0.123 0.02 -0.6 0.8 0.03
1 2.48 248 0.326 -9.328 2.648 7.050 0.641 -0.031 -44.971 569.929 3824.009 0.288 -0.049 0.132 0.02 -0.6 0.8 0.03
1 2.49 249 0.292 -9.362 2.624 6.592 -0.854 0.305 -44.971 569.929 3824.009 0.321 -0.012 0.167 0.02 -0.6 0.8 0.03
1 2.50 250 0.306 -9.472 2.686 6.592 -2.289 0.031 44.971 614.899 3824.009 0.306 0.100 0.113 0.02 -0.6 0.8 0.03
1 2.51 251 0.431 -9.453 2.682 7.141 -8.423 4.425 -14.990 644.880 3824.009 0.181 0.086 0.135 0.02 -0.6 0.8 0.03
1 2.52 252 0.766 -9.496 2.811 8.331 -10.407 1.221 29.980 704.991 3704.087 -0.155 0.132 0.014 0.02 -0.6 0.8 0.03
1 2.53 253 0.967 -9.917 2.926 10.223 -7.813 2.014 -29.980 479.987 3734.067 -0.350 0.557 -0.090 0.02 -0.6 0.8 0.03
1 2.54 254 1.082 -9.596 3.074 9.552 -5.157 4.639 -29.980 479.987 3734.067 -0.462 0.240 -0.224 0.02 -0.6 0.8 0.02
1 2.55 255 1.240 -9.453 3.022 7.477 -2.075 4.120 14.990 494.978 3824.009 -0.619 0.101 -0.158 0.02 -0.59 0.8 0.02
1 2.56 256 1.642 -9.462 3.036 8.484 5.951 -0.885 14.990 494.978 3824.009 -1.019 0.114 -0.161 0.02 -0.59 0.8 0.02
1 2.57 257 1.207 -9.424 2.806 8.942 11.078 -0.061 14.990 644.880 3824.009 -0.577 0.080 0.082 0.02 -0.59 0.8 0.03
1 2.58 258 0.819 -9.122 2.753 9.583 8.514 0.244 89.941 569.929 3824.009 -0.183 -0.213 0.161 0.02 -0.59 0.8 0.03
1 2.59 259 0.661 -9.194 2.825 10.773 5.524 -1.007 -14.990 644.880 3719.077 -0.024 -0.136 0.104 0.02 -0.59 0.81 0.03
1 2.60 260 0.498 -9.275 2.634 12.207 3.906 -1.129 59.961 524.958 3734.067 0.140 -0.050 0.310 0.02 -0.59 0.81 0.03
1 2.61 261 0.268 -9.400 2.921 12.299 1.709 -0.641 59.961 524.958 3734.067 0.370 0.080 0.039 0.02 -0.59 0.81 0.03
1 2.62 262 0.148 -9.237 2.892 11.658 0.580 0.305 0.000 554.938 3779.038 0.490 -0.078 0.085 0.02 -0.59 0.81 0.03
1 2.63 263 0.172 -9.184 2.902 10.284 -0.397 0.793 0.000 554.938 3779.038 0.464 -0.125 0.091 0.02 -0.59 0.81 0.03
1 2.64 264 0.105 -9.247 2.916 7.904 -1.617 1.068 -59.961 749.961 3734.067 0.529 -0.059 0.092 0.02 -0.59 0.81 0.03
1 2.65 265 0.311 -9.194 2.825 5.890 -2.014 1.282 0.000 554.938 3704.087 0.321 -0.108 0.194 0.02 -0.59 0.81 0.03
1 2.66 266 0.479 -9.405 3.069 7.141 -0.702 1.556 -29.980 524.958 3734.067 0.148 0.108 -0.034 0.02 -0.59 0.81 0.03
1 2.67 267 0.551 -9.347 2.945 8.575 -0.092 1.221 44.971 494.978 3794.028 0.075 0.054 0.101 0.02 -0.59 0.81 0.03
1 2.68 268 0.733 -9.529 2.950 9.613 1.099 -0.183 44.971 494.978 3794.028 -0.107 0.239 0.107 0.02 -0.59 0.81 0.03
1 2.69 269 1.039 -9.534 2.955 10.223 2.472 -0.427 29.980 599.909 3674.106 -0.412 0.248 0.115 0.02 -0.59 0.81 0.03
1 2.70 270 1.101 -9.467 3.218 9.705 3.784 -0.458 29.980 599.909 3674.106 -0.470 0.186 -0.135 0.02 -0.59 0.81 0.03
1 2.71 271 0.963 -9.433 3.093 8.453 4.944 -0.366 0.000 524.958 3809.019 -0.328 0.157 0.003 0.02 -0.58 0.81 0.03
1 2.72 272 1.164 -9.433 3.084 7.477 5.798 -0.153 -14.990 464.847 3764.048 -0.526 0.161 0.024 0.02 -0.58 0.81 0.03
1 2.73 273 1.001 -9.376 3.050 7.568 6.805 1.160 -29.980 449.857 3884.120 -0.358 0.111 0.079 0.02 -0.58 0.81 0.03
1 2.74 274 1.073 -9.242 3.002 6.989 6.928 0.732 0.000 599.909 3809.019 -0.430 -0.019 0.137 0.02 -0.58 0.81 0.03
1 2.75 275 0.982 -9.323 2.959 7.904 6.897 0.916 0.000 599.909 3809.019 -0.338 0.066 0.190 0.02 -0.58 0.81 0.03
1 2.76 276 1.010 -9.285 3.170 8.728 7.751 1.282 29.980 524.958 3704.087 -0.367 0.031 -0.009 0.02 -0.58 0.81 0.03
1 2.77 277 0.838 -9.381 3.031 10.864 7.233 2.625 29.980 524.958 3704.087 -0.196 0.131 0.142 0.02 -0.58 0.81 0.03
1 2.78 278 0.728 -9.414 3.022 11.261 4.852 5.310 0.000 524.958 3734.067 -0.090 0.169 0.166 0.02 -0.58 0.81 0.03
1 2.79 279 0.517 -9.247 3.074 11.627 3.479 6.958 44.971 419.876 3689.097 0.114 0.006 0.128 0.02 -0.58 0.81 0.03
1 2.80 280 0.249 -9.156 3.280 12.299 4.395 7.507 104.932 449.857 3704.087 0.362 -0.075 -0.047 0.01 -0.58 0.81 0.03
1 2.81 281 0.374 -9.055 3.137 11.658 3.479 5.005 89.941 494.978 3719.077 0.226 -0.171 0.114 0.01 -0.58 0.82 0.03
1 2.82 282 0.359 -9.074 3.208 10.651 3.143 5.402 89.941 494.978 3719.077 0.232 -0.146 0.058 0.01 -0.58 0.82 0.03
1 2.83 283 0.594 -9.003 3.137 10.803 4.425 6.195 59.961 524.958 3674.106 -0.012 -0.213 0.146 0.01 -0.58 0.82 0.03
1 2.84 284 0.575 -9.055 3.041 10.498 4.730 6.592 59.961 524.958 3674.106 -0.003 -0.156 0.257 0.01 -0.58 0.82 0.03
1 2.85 285 0.704 -8.998 2.974 8.911 5.585 5.646 59.961 479.987 3629.136 -0.142 -0.209 0.337 0.01 -0.58 0.82 0.03
1 2.86 286 0.895 -9.165 2.993 9.064 7.416 4.608 -44.971 344.925 3614.146 -0.341 -0.038 0.330 0.01 -0.57 0.82 0.03
1 2.87 287 0.991 -9.213 3.098 8.087 9.460 3.143 179.883 449.857 3599.005 -0.449 0.018 0.247 0.01 -0.57 0.82 0.03
1 2.88 288 1.039 -9.170 3.156 6.592 12.299 4.547 59.961 374.906 3629.136 -0.502 -0.022 0.198 0.01 -0.57 0.82 0.03
1 2.89 289 0.996 -9.213 3.151 5.493 14.557 2.686 59.961 374.906 3629.136 -0.466 0.023 0.211 0.01 -0.57 0.82 0.03
1 2.90 290 1.039 -9.386 3.117 3.937 15.991 2.655 149.902 389.896 3644.126 -0.516 0.197 0.251 0.01 -0.57 0.82 0.03
1 2.91 291 0.895 -9.481 2.873 5.157 17.090 1.984 149.902 389.896 3644.126 -0.378 0.294 0.499 0.01 -0.57 0.82 0.04
1 2.92 292 0.838 -9.477 2.931 7.599 15.747 -0.275 -44.971 239.994 3719.077 -0.327 0.291 0.447 0.01 -0.57 0.82 0.04
1 2.93 293 0.800 -9.400 2.897 9.460 16.266 0.305 -59.961 329.935 3599.005 -0.292 0.217 0.487 0.01 -0.57 0.82 0.04
1 2.94 294 0.790 -9.410 2.883 9.766 16.052 0.702 -59.961 329.935 3599.005 -0.287 0.230 0.511 0.01 -0.57 0.82 0.04
1 2.95 295 0.421 -9.333 2.830 7.538 17.731 0.793 59.961 374.906 3449.103 0.070 0.160 0.585 0 -0.57 0.82 0.04
1 2.96 296 0.306 -9.309 2.777 6.409 18.738 2.411 59.961 374.906 3449.103 0.177 0.139 0.645 0 -0.57 0.82 0.04
1 2.97 297 0.287 -9.189 2.830 5.981 17.334 2.045 224.854 314.945 3719.077 0.183 0.021 0.598 0 -0.57 0.82 0.04
1 2.98 298 0.254 -9.271 2.591 6.439 17.090 3.845 224.854 314.945 3719.077 0.205 0.104 0.843 0 -0.57 0.82 0.04
1 2.99 299 0.512 -9.223 2.610 7.538 14.282 5.859 284.964 254.984 3554.035 -0.069 0.057 0.830 -0 -0.57 0.82 0.04
1 3.00 300 0.680 -9.208 2.830 7.965 14.893 5.035 269.974 314.945 3689.097 -0.252 0.044 0.614 -0 -0.57 0.82 0.04
1 3.01 301 0.814 -9.299 2.696 7.629 18.036 6.378 269.974 314.945 3689.097 -0.398 0.137 0.756 -0 -0.57 0.82 0.04
1 3.02 302 0.895 -9.534 2.667 3.693 21.820 9.155 239.994 374.906 3629.136 -0.508 0.374 0.795 -0.01 -0.57 0.82 0.04
1 3.03 303 0.939 -9.592 2.734 2.594 23.163 10.071 239.994 374.906 3629.136 -0.571 0.431 0.728 -0.01 -0.57 0.82 0.04
1 3.04 304 1.121 -9.582 2.816 3.662 24.933 8.179 239.994 404.886 3629.136 -0.773 0.420 0.646 -0.01 -0.57 0.82 0.04
1 3.05 305 1.259 -9.491 2.844 4.852 28.626 7.629 239.994 404.886 3629.136 -0.929 0.329 0.619 -0.01 -0.57 0.82 0.04
1 3.06 306 1.178 -9.472 2.926 5.463 33.386 4.547 329.935 314.945 3509.064 -0.864 0.311 0.541 -0.01 -0.57 0.82 0.05
1 3.07 307 0.881 -9.395 2.825 4.883 39.002 6.012 359.916 449.857 3704.087 -0.584 0.235 0.646 -0.01 -0.57 0.82 0.05
1 3.08 308 0.627 -9.381 2.854 7.202 38.269 2.045 359.916 449.857 3704.087 -0.352 0.222 0.621 -0.02 -0.57 0.82 0.05
1 3.09 309 0.603 -9.184 2.883 10.254 36.133 0.488 389.896 329.935 3674.106 -0.362 0.031 0.608 -0.02 -0.57 0.82 0.05
1 3.10 310 0.426 -9.141 3.103 10.986 32.440 -2.441 389.896 329.935 3674.106 -0.199 -0.008 0.400 -0.02 -0.57 0.82 0.05
1 3.11 311 0.397 -9.132 3.242 11.017 28.565 -4.089 449.857 314.945 3614.146 -0.180 -0.013 0.274 -0.02 -0.57 0.82 0.05
1 3.12 312 -0.005 -9.041 3.199 10.101 24.414 -5.035 449.857 314.945 3614.146 0.217 -0.099 0.331 -0.03 -0.57 0.82 0.06
1 3.13 313 -0.148 -8.892 3.328 7.385 21.149 -5.005 554.938 314.945 3644.126 0.356 -0.243 0.214 -0.03 -0.56 0.82 0.06
1 3.14 314 -0.144 -8.873 3.400 6.012 15.869 -5.585 449.857 389.896 3644.126 0.348 -0.258 0.152 -0.03 -0.56 0.82 0.06
1 3.15 315 -0.235 -8.801 3.615 5.585 13.825 -7.324 449.857 389.896 3644.126 0.437 -0.327 -0.055 -0.03 -0.56 0.82 0.06
1 3.16 316 -0.393 -8.806 3.759 9.491 11.841 -8.667 374.906 164.893 3584.015 0.598 -0.314 -0.179 -0.03 -0.56 0.82 0.06
1 3.17 317 -0.340 -9.050 3.893 10.590 11.932 -8.911 374.906 164.893 3584.015 0.549 -0.064 -0.298 -0.03 -0.56 0.82 0.06
1 3.18 318 -0.536 -9.208 4.037 11.047 10.223 -6.409 389.896 254.984 3629.136 0.744 0.101 -0.425 -0.03 -0.56 0.82 0.06
1 3.19 319 -0.637 -9.228 4.094 10.712 6.683 -6.287 389.896 254.984 3629.136 0.844 0.127 -0.465 -0.03 -0.56 0.83 0.06
1 3.20 320 -0.560 -9.371 4.233 10.040 4.028 -5.768 389.896 179.883 3554.035 0.769 0.277 -0.587 -0.03 -0.56 0.83 0.06
1 3.21 321 -0.445 -9.486 4.334 8.789 1.007 -9.064 464.847 74.951 3599.005 0.656 0.399 -0.671 -0.03 -0.56 0.83 0.06
1 3.22 322 -0.096 -9.592 4.439 8.820 0.275 -13.123 464.847 74.951 3599.005 0.313 0.511 -0.760 -0.03 -0.56 0.83 0.06
1 3.23 323 -0.110 -9.592 4.473 8.453 -1.617 -18.250 479.987 314.945 3614.146 0.341 0.518 -0.778 -0.03 -0.56 0.83 0.06
1 3.24 324 -0.024 -9.534 4.516 10.193 -6.012 -24.872 584.919 194.873 3614.146 0.310 0.475 -0.789 -0.03 -0.56 0.83 0.07
1 3.25 325 0.067 -9.659 4.693 12.116 -10.223 -27.618 509.968 194.873 3584.015 0.258 0.608 -0.948 -0.03 -0.56 0.83 0.07
1 3.26 326 0.010 -9.692 4.798 14.648 -14.160 -29.175 509.968 194.873 3584.015 0.361 0.652 -1.032 -0.02 -0.55 0.83 0.07
1 3.27 327 0.129 -9.520 4.784 20.630 -17.151 -28.107 374.906 239.994 3509.064 0.291 0.492 -0.994 -0.02 -0.55 0.83 0.07
1 3.28 328 0.560 -8.830 4.564 29.022 -24.262 -33.325 419.876 254.984 3599.005 -0.093 -0.181 -0.740 -0.02 -0.55 0.83 0.07
1 3.29 329 0.814 -8.739 4.501 31.494 -25.665 -32.593 419.876 254.984 3599.005 -0.290 -0.251 -0.636 -0.01 -0.55 0.83 0.07
1 3.30 330 1.077 -8.414 4.391 33.814 -24.506 -29.663 404.886 239.994 3539.044 -0.490 -0.553 -0.481 -0.01 -0.55 0.83 0.07
1 3.31 331 1.264 -7.978 3.917 33.051 -19.898 -23.621 209.863 149.902 3704.087 -0.563 -0.939 0.087 -0 -0.54 0.84 0.07
1 3.32 332 1.461 -7.848 3.855 29.114 -13.977 -19.348 329.935 164.893 3614.146 -0.710 -1.045 0.193 -0 -0.54 0.84 0.07
1 3.33 333 1.690 -7.892 4.018 24.994 -6.683 -17.273 329.935 164.893 3614.146 -0.900 -0.981 0.068 -0 -0.54 0.84 0.07
1 3.34 334 1.887 -7.944 4.085 21.637 0.885 -15.045 194.873 164.893 3509.064 -1.062 -0.909 0.036 0 -0.54 0.84 0.08
1 3.35 335 1.834 -8.155 4.200 16.388 4.059 -14.832 209.863 -29.980 3494.074 -0.981 -0.682 -0.049 0 -0.54 0.84 0.08
1 3.36 336 1.523 -8.586 4.549 9.888 -1.770 -12.054 209.863 -29.980 3494.074 -0.643 -0.238 -0.377 0 -0.54 0.84 0.08
1 3.37 337 1.298 -8.801 4.420 8.606 -12.939 -13.550 374.906 164.893 3584.015 -0.395 -0.012 -0.230 0 -0.53 0.84 0.08
1 3.38 338 1.053 -9.146 4.353 12.146 -30.731 -17.120 224.854 119.922 3539.044 -0.082 0.352 -0.139 0.01 -0.53 0.84 0.08
1 3.39 339 1.053 -8.988 4.300 16.968 -35.584 -18.311 209.863 104.932 3389.142 -0.036 0.205 -0.074 0.01 -0.53 0.84 0.08
1 3.40 340 1.178 -8.844 4.252 22.583 -32.745 -18.097 209.863 104.932 3389.142 -0.113 0.076 -0.007 0.01 -0.53 0.84 0.08
1 3.41 341 1.173 -8.998 4.190 25.665 -30.701 -20.722 149.902 -89.941 3509.064 -0.060 0.248 0.081 0.02 -0.53 0.84 0.08
1 3.42 342 1.456 -8.763 4.137 24.201 -29.877 -19.714 209.863 104.932 3599.005 -0.293 0.033 0.161 0.02 -0.53 0.84 0.08
1 3.43 343 1.671 -8.615 3.797 19.745 -28.931 -18.860 209.863 104.932 3599.005 -0.460 -0.096 0.526 0.02 -0.53 0.85 0.08
1 3.44 344 1.877 -8.797 3.745 17.487 -23.285 -14.923 89.941 89.941 3539.044 -0.617 0.102 0.598 0.03 -0.53 0.85 0.08
1 3.45 345 2.294 -8.701 3.548 16.449 -15.503 -9.949 149.902 14.990 3539.044 -0.989 0.021 0.810 0.03 -0.53 0.85 0.08
1 3.46 346 2.720 -8.581 3.256 17.151 -5.585 -4.700 194.873 44.971 3359.012 -1.353 -0.075 1.131 0.03 -0.52 0.85 0.08
1 3.47 347 2.849 -8.121 3.098 21.240 -0.977 -0.519 194.873 44.971 3359.012 -1.462 -0.523 1.304 0.03 -0.52 0.85 0.08
1 3.48 348 3.141 -7.992 3.127 25.452 4.517 3.601 104.932 0.000 3524.054 -1.742 -0.639 1.299 0.03 -0.52 0.85 0.08
1 3.49 349 3.242 -7.585 3.204 23.316 13.153 5.859 -44.971 44.971 3539.044 -1.838 -1.031 1.251 0.04 -0.52 0.85 0.08
1 3.50 350 2.988 -7.528 3.280 11.475 29.663 13.153 -44.971 44.971 3539.044 -1.594 -1.074 1.203 0.03 -0.52 0.85 0.08
1 3.51 351 2.758 -7.623 3.204 3.601 40.039 16.724 89.941 -89.941 3539.044 -1.382 -0.972 1.298 0.03 -0.52 0.85 0.08
1 3.52 352 2.480 -7.796 3.146 -2.380 46.784 23.499 119.922 -119.922 3359.012 -1.206 -0.802 1.380 0.03 -0.52 0.85 0.08
1 3.53 353 2.576 -7.829 3.093 -2.563 47.089 23.865 44.971 -164.893 3434.113 -1.358 -0.775 1.436 0.02 -0.52 0.85 0.08
1 3.54 354 2.605 -8.026 2.926 -5.829 46.875 32.013 44.971 -164.893 3434.113 -1.455 -0.587 1.607 0.02 -0.52 0.85 0.08
1 3.55 355 2.581 -7.710 2.701 -11.902 49.133 37.842 44.971 -119.922 3509.064 -1.494 -0.916 1.822 0.02 -0.52 0.85 0.08
1 3.56 356 2.753 -7.394 2.883 -19.165 50.934 38.361 179.883 0.000 3314.041 -1.750 -1.247 1.630 0.01 -0.52 0.85 0.08
1 3.57 357 2.811 -7.087 2.911 -25.024 54.566 32.532 179.883 0.000 3314.041 -1.891 -1.573 1.582 0.01 -0.52 0.85 0.08
1 3.58 358 2.878 -7.034 3.644 -29.450 58.441 23.071 284.964 29.980 3389.142 -2.036 -1.648 0.822 0 -0.52 0.85 0.08
1 3.59 359 2.576 -7.212 4.075 -28.931 54.627 19.531 224.854 -44.971 3539.044 -1.805 -1.494 0.359 -0 -0.52 0.85 0.08
1 3.60 360 2.184 -7.916 5.430 -31.586 32.593 2.899 419.876 -74.951 3449.103 -1.515 -0.831 -1.061 -0.01 -0.53 0.85 0.08
1 3.61 361 1.954 -9.754 6.450 -38.544 13.397 -9.399 419.876 -74.951 3449.103 -1.289 0.991 -2.115 -0.01 -0.53 0.85 0.08
1 3.62 362 1.710 -11.995 5.995 -61.646 -2.441 -30.731 404.886 -44.971 3539.044 -1.025 3.207 -1.713 -0.01 -0.53 0.84 0.08
1 3.63 363 0.618 -13.571 4.492 -55.206 9.216 -47.241 554.938 89.941 3509.064 0.118 4.745 -0.297 -0.01 -0.53 0.84 0.09
1 3.64 364 -1.039 -13.111 4.358 -4.486 41.657 -35.675 554.938 89.941 3509.064 1.828 4.263 -0.219 -0.01 -0.54 0.84 0.09
1 3.65 365 -2.710 -10.305 4.080 18.341 72.785 -2.502 479.987 44.971 3509.064 3.510 1.464 0.072 -0.01 -0.54 0.84 0.09
1 3.66 366 -1.982 -9.204 3.951 -2.625 55.084 6.531 374.906 164.893 3539.044 2.749 0.377 0.237 -0.02 -0.53 0.84 0.1
1 3.67 367 0.383 -9.673 5.148 14.465 34.973 -8.087 494.978 29.980 3524.054 0.285 0.844 -0.947 -0.02 -0.53 0.84 0.1
1 3.68 368 1.144 -9.529 5.129 36.499 22.308 -3.815 494.978 29.980 3524.054 -0.488 0.715 -0.896 -0.02 -0.53 0.84 0.1
1 3.69 369 1.647 -8.466 5.014 47.180 3.784 1.801 509.968 44.971 3539.044 -0.997 -0.321 -0.725 -0.02 -0.53 0.84 0.1
1 3.70 370 2.050 -7.671 5.090 44.983 -12.238 4.547 494.978 74.951 3524.054 -1.394 -1.082 -0.733 -0.02 -0.53 0.84 0.1
1 3.71 371 2.500 -6.675 5.057 28.229 -15.778 12.543 494.978 74.951 3524.054 -1.831 -2.047 -0.639 -0.02 -0.52 0.85 0.1
1 3.72 372 2.605 -5.919 5.124 -6.348 9.735 11.810 479.987 -14.990 3509.064 -1.935 -2.787 -0.674 -0.02 -0.52 0.85 0.1
1 3.73 373 1.729 -6.426 4.951 -28.687 37.262 16.632 404.886 44.971 3509.064 -1.075 -2.281 -0.502 -0.02 -0.52 0.85 0.1
1 3.74 374 0.857 -7.078 4.702 -41.931 54.566 16.296 404.886 44.971 3509.064 -0.242 -1.647 -0.282 -0.02 -0.52 0.85 0.1
1 3.75 375 -0.407 -8.691 4.238 -43.427 52.155 5.951 509.968 -164.893 3539.044 0.914 -0.092 0.080 -0.03 -0.53 0.84 0.1
1 3.76 376 -0.943 -9.893 4.061 -32.868 36.469 -1.831 734.971 89.941 3509.064 1.411 1.083 0.206 -0.03 -0.53 0.84 0.1
1 3.77 377 -1.202 -10.669 4.195 -9.430 16.296 -7.507 779.942 104.932 3524.054 1.645 1.840 0.034 -0.04 -0.53 0.84 0.1
1 3.78 378 -0.967 -10.324 4.549 17.517 -0.244 -11.383 779.942 104.932 3524.054 1.416 1.494 -0.322 -0.04 -0.53 0.84 0.1
1 3.79 379 -0.057 -9.194 5.052 27.069 -10.254 -15.869 554.938 119.922 3584.015 0.527 0.379 -0.796 -0.04 -0.53 0.84 0.1
1 3.80 380 0.618 -8.619 5.291 16.205 -6.866 -16.724 509.968 44.971 3689.097 -0.119 -0.176 -0.999 -0.03 -0.53 0.84 0.1
1 3.81 381 1.025 -8.442 5.531 2.716 2.563 -13.031 509.968 44.971 3689.097 -0.499 -0.337 -1.209 -0.03 -0.53 0.84 0.1
1 3.82 382 1.403 -8.787 5.588 -7.996 21.820 -1.282 629.890 119.922 3689.097 -0.848 0.018 -1.247 -0.03 -0.53 0.84 0.1
1 3.83 383 1.322 -8.964 5.526 -8.942 33.630 6.348 584.919 44.971 3509.064 -0.777 0.194 -1.187 -0.03 -0.53 0.84 0.1
1 3.84 384 0.910 -8.993 5.378 -8.575 40.527 12.054 644.880 0.000 3599.005 -0.392 0.220 -1.041 -0.03 -0.53 0.84 0.11
1 3.85 385 0.532 -9.117 5.263 -9.277 39.917 14.069 644.880 0.000 3599.005 -0.052 0.341 -0.929 -0.04 -0.53 0.84 0.11
1 3.86 386 0.062 -8.821 5.114 -8.759 33.081 16.876 584.919 194.873 3644.126 0.374 0.040 -0.785 -0.04 -0.53 0.84 0.11
1 3.87 387 -0.273 -8.222 4.975 -8.423 21.545 18.555 629.890 119.922 3584.015 0.666 -0.564 -0.651 -0.04 -0.53 0.84 0.11
1 3.88 388 -0.053 -7.590 4.846 -9.430 18.341 14.465 629.890 119.922 3584.015 0.402 -1.200 -0.527 -0.04 -0.53 0.84 0.1
1 3.89 389 0.077 -7.508 4.712 -15.533 26.672 3.052 599.909 149.902 3629.136 0.211 -1.291 -0.407 -0.05 -0.53 0.84 0.1
1 3.90 390 -0.326 -7.528 4.535 -20.996 34.332 0.610 644.880 74.951 3599.005 0.591 -1.280 -0.246 -0.05 -0.53 0.84 0.1
1 3.91 391 -0.694 -7.686 4.324 -24.536 37.598 -2.106 839.903 44.971 3719.077 0.937 -1.135 -0.060 -0.05 -0.53 0.84 0.1
1 3.92 392 -1.039 -7.944 4.085 -24.811 35.187 -5.890 839.903 44.971 3719.077 1.256 -0.890 0.151 -0.05 -0.53 0.84 0.11
1 3.93 393 -1.250 -8.236 3.807 -23.407 29.144 -5.768 869.883 119.922 3644.126 1.446 -0.613 0.400 -0.06 -0.53 0.84 0.11
1 3.94 394 -1.470 -8.696 3.654 -16.907 14.893 -4.913 734.971 119.922 3644.126 1.648 -0.168 0.523 -0.06 -0.53 0.84 0.11
1 3.95 395 -1.456 -8.926 3.745 -11.566 7.019 -3.326 734.971 119.922 3644.126 1.620 0.050 0.406 -0.06 -0.53 0.84 0.11
1 3.96 396 -1.307 -8.816 3.936 -8.148 -0.610 -1.892 839.903 89.941 3794.028 1.452 -0.077 0.179 -0.06 -0.54 0.84 0.11
1 3.97 397 -1.240 -8.720 4.147 -9.277 -1.587 -1.007 914.854 194.873 3614.146 1.378 -0.179 -0.044 -0.06 -0.54 0.84 0.11
1 3.98 398 -0.872 -8.811 4.262 -15.015 1.038 1.282 854.893 104.932 3779.038 1.001 -0.095 -0.175 -0.06 -0.54 0.84 0.1
1 3.99 399 -0.867 -9.180 4.166 -17.792 6.348 2.655 854.893 104.932 3779.038 0.986 0.264 -0.101 -0.06 -0.54 0.83 0.1
1 4.00 400 -0.709 -8.979 4.013 -15.839 9.552 4.608 944.984 164.893 3719.077 0.814 0.051 0.029 -0.06 -0.54 0.83 0.1
1 4.01 401 -0.651 -9.189 3.874 -6.470 12.756 3.326 749.961 29.980 3884.120 0.739 0.253 0.147 -0.06 -0.54 0.83 0.1
1 4.02 402 -0.747 -8.993 3.845 -1.190 12.878 4.578 749.961 29.980 3884.120 0.819 0.051 0.164 -0.06 -0.54 0.83 0.1
1 4.03 403 -0.872 -8.921 3.888 2.380 10.803 6.439 869.883 194.873 3824.009 0.925 -0.023 0.116 -0.06 -0.54 0.83 0.1
1 4.04 404 -0.857 -8.821 4.003 -2.258 4.334 6.348 944.984 269.974 3794.028 0.873 -0.123 0.004 -0.06 -0.54 0.83 0.1
1 4.05 405 -0.876 -8.950 4.032 -5.585 1.801 6.958 929.994 254.984 3779.038 0.876 0.004 -0.030 -0.07 -0.54 0.83 0.1
1 4.06 406 -0.651 -8.921 4.046 -4.700 0.763 4.608 929.994 254.984 3779.038 0.637 -0.028 -0.053 -0.07 -0.54 0.83 0.1
1 4.07 407 -0.479 -8.979 3.946 0.305 1.617 3.571 839.903 119.922 3824.009 0.455 0.027 0.043 -0.07 -0.54 0.83 0.1
1 4.08 408 -0.441 -8.868 3.821 2.380 -0.549 2.319 809.922 269.974 3869.129 0.410 -0.083 0.169 -0.07 -0.54 0.83 0.1
1 4.09 409 -0.666 -8.801 3.740 1.282 -1.862 2.747 809.922 269.974 3869.129 0.631 -0.148 0.253 -0.07 -0.54 0.83 0.1
1 4.10 410 -0.713 -8.663 3.730 -0.183 -1.648 3.540 869.883 239.994 3719.077 0.674 -0.287 0.263 -0.06 -0.54 0.83 0.1
1 4.11 411 -0.972 -8.686 3.577 -2.014 0.214 2.991 854.893 374.906 3734.067 0.919 -0.265 0.412 -0.06 -0.54 0.83 0.09
1 4.12 412 -1.049 -8.811 3.630 -3.235 -2.594 1.404 854.893 254.984 3884.120 0.987 -0.143 0.354 -0.06 -0.54 0.83 0.09
1 4.13 413 -1.159 -8.892 3.524 -1.068 -5.493 -0.763 854.893 254.984 3884.120 1.092 -0.064 0.453 -0.06 -0.54 0.83 0.09
1 4.14 414 -1.049 -8.892 3.663 0.214 -11.780 -1.495 764.952 194.873 3899.110 0.982 -0.065 0.311 -0.06 -0.54 0.83 0.09
1 4.15 415 -0.958 -8.864 3.644 2.136 -17.548 -1.862 944.984 164.893 3719.077 0.895 -0.095 0.329 -0.06 -0.54 0.83 0.09
1 4.16 416 -0.795 -8.883 3.797 0.610 -21.851 2.014 944.984 164.893 3719.077 0.741 -0.075 0.176 -0.06 -0.54 0.83 0.09
1 4.17 417 -0.800 -8.677 3.702 -0.519 -25.024 2.045 749.961 374.906 3629.136 0.754 -0.282 0.271 -0.06 -0.54 0.83 0.09
1 4.18 418 -0.555 -8.883 3.740 -5.157 -27.710 0.916 824.913 149.902 3809.019 0.530 -0.078 0.227 -0.06 -0.54 0.83 0.09
1 4.19 419 -0.421 -8.931 3.816 -8.240 -27.710 3.479 764.952 119.922 3869.129 0.408 -0.035 0.141 -0.06 -0.54 0.83 0.08
1 4.20 420 -0.575 -8.916 3.625 -10.803 -27.710 4.639 764.952 119.922 3869.129 0.572 -0.055 0.319 -0.05 -0.54 0.83 0.08
1 4.21 421 -0.484 -9.079 3.692 -11.536 -28.839 6.378 719.981 179.883 3674.106 0.489 0.101 0.236 -0.05 -0.54 0.83 0.08
1 4.22 422 -0.330 -9.156 3.692 -12.756 -28.534 6.653 824.913 254.984 3779.038 0.342 0.169 0.218 -0.05 -0.55 0.83 0.08
1 4.23 423 -0.345 -9.309 3.630 -9.369 -28.259 7.843 824.913 254.984 3779.038 0.363 0.315 0.261 -0.05 -0.55 0.83 0.08
1 4.24 424 -0.503 -9.285 3.539 -6.622 -27.191 7.477 749.961 224.854 3734.067 0.526 0.284 0.336 -0.05 -0.55 0.83 0.07
1 4.25 425 -0.187 -9.117 3.539 -4.120 -27.283 6.378 749.961 224.854 3734.067 0.214 0.111 0.324 -0.05 -0.55 0.83 0.07
1 4.26 426 -0.215 -9.127 3.572 -1.770 -28.381 6.653 734.971 314.945 3824.009 0.256 0.114 0.276 -0.04 -0.55 0.83 0.07
1 4.27 427 -0.292 -9.017 3.529 -1.831 -28.198 6.744 734.971 314.945 3824.009 0.340 0.002 0.314 -0.04 -0.55 0.83 0.07
1 4.28 428 -0.249 -9.108 3.491 -1.556 -28.259 8.972 674.860 479.987 3734.067 0.304 0.091 0.347 -0.04 -0.55 0.83 0.07
1 4.29 429 -0.101 -8.959 3.577 -0.702 -28.320 8.606 554.938 269.974 3764.048 0.159 -0.059 0.257 -0.04 -0.55 0.83 0.06
1 4.30 430 -0.278 -8.926 3.635 0.732 -27.771 6.256 554.938 269.974 3764.048 0.342 -0.094 0.196 -0.04 -0.55 0.83 0.06
1 4.31 431 -0.306 -9.003 3.783 0.122 -26.733 4.303 749.961 479.987 3779.038 0.376 -0.018 0.046 -0.04 -0.55 0.83 0.06
1 4.32 432 -0.287 -9.180 3.845 -0.305 -25.543 2.960 749.961 479.987 3779.038 0.366 0.159 -0.017 -0.03 -0.55 0.83 0.06
1 4.33 433 -0.464 -9.127 3.860 -2.289 -25.940 3.296 644.880 104.932 3734.067 0.562 0.104 -0.036 -0.03 -0.55 0.83 0.06
1 4.34 434 -0.493 -9.228 3.879 -2.167 -27.374 0.031 644.880 104.932 3734.067 0.600 0.203 -0.059 -0.03 -0.55 0.83 0.05
1 4.35 435 -0.441 -9.280 3.869 -2.014 -28.809 0.549 494.978 179.883 3704.087 0.560 0.255 -0.053 -0.03 -0.55 0.83 0.05
1 4.36 436 -0.350 -9.319 3.826 -0.610 -29.938 1.862 569.929 224.854 3914.100 0.483 0.292 -0.013 -0.03 -0.55 0.83 0.05
1 4.37 437 -0.306 -9.232 3.764 1.678 -31.036 3.815 569.929 224.854 3914.100 0.452 0.205 0.047 -0.02 -0.55 0.83 0.05
1 4.38 438 -0.254 -9.218 3.769 5.402 -33.600 4.211 584.919 389.896 3869.129 0.412 0.192 0.044 -0.02 -0.55 0.83 0.05
1 4.39 439 -0.019 -9.007 3.826 6.836 -33.264 4.486 584.919 389.896 3869.129 0.191 -0.017 -0.008 -0.02 -0.55 0.83 0.05
1 4.40 440 0.306 -9.228 3.874 6.928 -29.877 6.592 404.886 164.893 3764.048 -0.108 0.210 -0.041 -0.02 -0.55 0.83 0.05
1 4.41 441 0.488 -9.012 3.931 8.637 -27.588 8.820 404.886 164.893 3764.048 -0.281 -0.001 -0.090 -0.02 -0.55 0.83 0.04
1 4.42 442 0.608 -9.055 3.998 8.575 -24.414 8.209 464.847 224.854 3809.019 -0.394 0.047 -0.146 -0.01 -0.55 0.83 0.04
1 4.43 443 0.848 -8.840 4.046 9.827 -20.111 7.568 509.968 239.994 3869.129 -0.626 -0.163 -0.181 -0.01 -0.55 0.83 0.04
1 4.44 444 0.939 -8.955 4.128 7.965 -15.808 4.303 509.968 239.994 3869.129 -0.710 -0.042 -0.249 -0.01 -0.55 0.83 0.04
1 4.45 445 0.699 -9.050 4.291 3.143 -9.338 1.190 494.978 299.955 3629.136 -0.462 0.058 -0.401 -0.01 -0.55 0.83 0.04
1 4.46 446 0.599 -9.213 4.338 1.556 -6.317 2.747 494.978 299.955 3629.136 -0.351 0.225 -0.441 -0.01 -0.55 0.84 0.04
1 4.47 447 0.421 -9.127 4.348 4.089 -6.653 -1.373 359.916 299.955 3839.149 -0.163 0.144 -0.440 -0.01 -0.55 0.84 0.04
1 4.48 448 0.287 -9.165 4.085 4.242 -7.019 -2.502 359.916 299.955 3839.149 -0.019 0.185 -0.169 -0.01 -0.55 0.84 0.04
1 4.49 449 0.359 -8.998 3.989 6.378 -8.698 -3.662 464.847 329.935 3734.067 -0.080 0.021 -0.066 -0.01 -0.55 0.84 0.04
1 4.50 450 0.292 -8.849 3.855 6.866 -10.834 -3.632 329.935 239.994 3719.077 -0.000 -0.123 0.077 -0.01 -0.55 0.84 0.04
1 4.51 451 0.153 -8.744 3.831 8.545 -12.360 -1.831 329.935 239.994 3719.077 0.151 -0.224 0.110 -0.01 -0.55 0.84 0.04
1 4.52 452 0.302 -8.931 3.783 8.759 -13.886 -5.371 389.896 224.854 3734.067 0.014 -0.032 0.169 -0.01 -0.55 0.84 0.04
1 4.53 453 0.134 -8.955 3.884 7.294 -10.742 -4.852 389.896 224.854 3734.067 0.198 -0.002 0.079 -0.01 -0.55 0.84 0.04
1 4.54 454 0.201 -9.046 3.922 6.042 -8.545 -1.465 209.863 299.955 3704.087 0.147 0.093 0.050 -0 -0.55 0.84 0.04
1 4.55 455 0.081 -9.017 3.692 6.592 -8.789 1.587 314.945 299.955 3629.136 0.279 0.071 0.294 -0 -0.54 0.84 0.04
1 4.56 456 0.096 -9.017 4.003 6.775 -9.766 1.617 404.886 119.922 3719.077 0.268 0.074 -0.011 -0 -0.54 0.84 0.04
1 4.57 457 0.187 -8.993 3.927 6.531 -10.101 2.350 374.906 164.893 3899.110 0.181 0.054 0.073 -0 -0.54 0.84 0.04
1 4.58 458 0.364 -8.979 3.989 5.219 -9.094 2.350 374.906 164.893 3899.110 0.008 0.043 0.018 -0 -0.54 0.84 0.04
1 4.59 459 0.364 -9.113 3.955 3.082 -7.294 1.892 329.935 239.994 3869.129 0.011 0.180 0.058 -0 -0.54 0.84 0.04
1 4.60 460 0.460 -9.247 3.994 4.974 -6.195 0.977 329.935 239.994 3869.129 -0.080 0.316 0.022 -0 -0.54 0.84 0.04
1 4.61 461 0.426 -9.170 3.970 6.866 -5.951 0.336 224.854 239.994 3719.077 -0.042 0.241 0.051 -0 -0.54 0.84 0.04
1 4.62 462 0.450 -9.050 4.042 6.744 -6.775 -0.732 269.974 164.893 3644.126 -0.054 0.129 -0.004 0 -0.54 0.84 0.04
1 4.63 463 0.527 -9.079 4.094 6.928 -6.866 -0.671 464.847 224.854 3734.067 -0.123 0.162 -0.049 0 -0.54 0.84 0.04
1 4.64 464 0.383 -9.323 3.965 9.644 -5.249 10.345 359.916 149.902 3779.038 0.026 0.411 0.089 0 -0.54 0.84 0.04
1 4.65 465 0.455 -9.089 4.065 15.411 -9.644 5.859 359.916 149.902 3779.038 -0.055 0.182 0.002 0 -0.54 0.84 0.04
1 4.66 466 0.680 -9.117 3.975 16.144 -9.613 5.829 329.935 164.893 3764.048 -0.279 0.220 0.113 0 -0.54 0.84 0.04
1 4.67 467 0.939 -8.902 4.104 13.672 -4.578 3.693 329.935 164.893 3764.048 -0.536 0.014 0.005 0 -0.54 0.84 0.04
1 4.68 468 0.872 -8.825 3.989 9.491 -0.946 4.150 359.916 149.902 3809.019 -0.465 -0.054 0.138 0 -0.54 0.84 0.04
1 4.69 469 0.939 -8.840 3.931 6.409 1.617 2.686 239.994 104.932 3734.067 -0.528 -0.028 0.219 0 -0.54 0.84 0.04
1 4.70 470 0.690 -8.878 3.955 7.477 0.977 2.625 329.935 194.873 3614.146 -0.278 0.013 0.203 0 -0.54 0.84 0.04
1 4.71 471 0.723 -8.777 4.013 12.268 0.610 0.549 374.906 194.873 3539.044 -0.310 -0.082 0.155 0 -0.54 0.84 0.04
1 4.72 472 0.709 -8.787 3.955 13.458 -0.244 -0.977 374.906 194.873 3539.044 -0.293 -0.065 0.229 0 -0.54 0.84 0.04
1 4.73 473 0.872 -8.912 4.252 11.536 -0.641 -1.862 404.886 164.893 3584.015 -0.449 0.067 -0.052 0 -0.53 0.84 0.04
1 4.74 474 0.804 -9.132 4.453 10.162 -1.007 -3.021 404.886 164.893 3584.015 -0.374 0.295 -0.239 0 -0.53 0.84 0.04
1 4.75 475 0.785 -8.964 4.525 10.437 0.336 -1.251 359.916 74.951 3599.005 -0.345 0.135 -0.296 0 -0.53 0.85 0.04
1 4.76 476 0.670 -8.437 4.089 12.848 -0.458 10.162 224.854 44.971 3644.126 -0.232 -0.378 0.170 0 -0.53 0.85 0.04
1 4.77 477 0.594 -8.346 4.003 11.810 -3.937 5.798 374.906 119.922 3509.064 -0.162 -0.461 0.273 0 -0.53 0.85 0.04
1 4.78 478 1.154 -8.548 4.257 6.287 -5.096 -0.854 284.964 74.951 3554.035 -0.716 -0.254 0.031 0 -0.53 0.85 0.04
1 4.79 479 1.212 -8.629 4.233 2.808 -0.244 -2.533 284.964 74.951 3554.035 -0.763 -0.169 0.061 0 -0.53 0.85 0.04
1 4.80 480 1.240 -8.696 4.070 2.686 6.073 0.580 239.994 29.980 3554.035 -0.783 -0.099 0.228 0 -0.53 0.85 0.04
1 4.81 481 1.020 -8.926 3.994 4.334 7.965 0.305 239.994 29.980 3554.035 -0.561 0.132 0.308 0 -0.53 0.85 0.04
1 4.82 482 1.053 -8.897 4.042 5.859 7.629 2.289 284.964 224.854 3809.019 -0.591 0.106 0.265 0 -0.53 0.85 0.04
1 4.83 483 1.188 -8.916 4.118 6.409 6.622 2.258 314.945 29.980 3674.106 -0.727 0.128 0.194 0 -0.53 0.85 0.04
1 4.84 484 1.178 -8.916 4.080 6.409 8.087 2.258 299.955 -14.990 3509.064 -0.721 0.135 0.246 0 -0.53 0.85 0.04
1 4.85 485 1.140 -8.912 4.243 7.843 8.789 1.465 449.857 119.922 3539.044 -0.684 0.134 0.092 0 -0.53 0.85 0.04
1 4.86 486 1.168 -8.916 4.209 8.057 9.460 0.366 449.857 119.922 3539.044 -0.713 0.144 0.135 0 -0.53 0.85 0.04
1 4.87 487 1.034 -8.725 4.219 9.003 9.247 -2.014 359.916 0.000 3554.035 -0.578 -0.043 0.136 -0 -0.53 0.85 0.04
1 4.88 488 1.106 -8.696 4.372 9.583 8.423 -3.815 359.916 0.000 3554.035 -0.647 -0.065 -0.006 -0 -0.53 0.85 0.05
1 4.89 489 1.140 -8.883 4.291 8.850 8.423 -3.845 449.857 119.922 3644.126 -0.675 0.128 0.088 -0 -0.53 0.85 0.05
1 4.90 490 1.283 -8.849 4.420 6.928 9.186 -4.303 194.873 44.971 3644.126 -0.813 0.101 -0.028 -0 -0.53 0.85 0.05
1 4.91 491 1.274 -8.931 4.453 7.721 10.712 -5.768 449.857 119.922 3689.097 -0.788 0.193 -0.042 -0 -0.52 0.85 0.05
1 4.92 492 1.140 -8.849 4.324 9.430 11.322 -6.897 404.886 -14.990 3644.126 -0.646 0.118 0.098 -0 -0.52 0.85 0.05
1 4.93 493 1.121 -8.801 4.338 11.047 12.085 -8.301 404.886 -14.990 3644.126 -0.618 0.077 0.097 -0 -0.52 0.85 0.05
1 4.94 494 1.068 -8.581 4.362 11.780 11.902 -8.789 299.955 -44.971 3614.146 -0.556 -0.135 0.088 -0 -0.52 0.85 0.05
1 4.95 495 1.015 -8.500 4.262 10.681 11.383 -9.888 299.955 -44.971 3614.146 -0.493 -0.208 0.204 -0 -0.52 0.85 0.05
1 4.96 496 0.848 -8.064 4.310 10.193 10.071 -8.606 389.896 -74.951 3494.074 -0.315 -0.635 0.171 -0 -0.52 0.85 0.06
1 4.97 497 0.910 -7.997 4.252 7.172 9.705 -7.843 449.857 -14.990 3614.146 -0.367 -0.694 0.244 -0 -0.52 0.85 0.06
1 4.98 498 0.675 -7.528 4.003 11.444 7.629 1.648 449.857 164.893 3584.015 -0.134 -1.149 0.520 -0 -0.52 0.85 0.06
1 4.99 499 0.814 -7.686 4.233 4.669 1.801 -5.188 404.886 44.971 3644.126 -0.274 -0.985 0.303 -0 -0.52 0.85 0.06
1 5.00 500 -0.359 -4.870 2.792 -54.566 -42.572 -32.410 404.886 44.971 3644.126 0.914 -3.800 1.742 -0 -0.52 0.85 0.06
1 5.01 501 1.384 -8.078 4.942 -98.389 -45.990 -21.820 494.978 -29.980 3524.054 -0.753 -0.637 -0.506 0 -0.52 0.85 0.06
1 5.02 502 1.944 -9.170 5.076 -96.955 -33.203 -8.972 494.978 -29.980 3524.054 -1.257 0.390 -0.777 0 -0.53 0.85 0.06
1 5.03 503 2.188 -10.310 4.769 -28.900 4.913 -8.881 479.987 -89.941 3509.064 -1.462 1.476 -0.588 0.01 -0.54 0.84 0.06
1 5.04 504 1.547 -9.874 4.578 19.562 26.062 -6.195 389.896 104.932 3629.136 -0.805 1.015 -0.454 0.01 -0.54 0.84 0.06
1 5.05 505 0.848 -9.285 4.621 38.178 26.856 -7.599 389.896 104.932 3629.136 -0.109 0.432 -0.483 0.01 -0.54 0.84 0.06
1 5.06 506 0.359 -8.797 4.827 7.813 -1.526 -9.247 314.945 179.883 3914.100 0.377 -0.012 -0.595 0 -0.53 0.84 0.07
1 5.07 507 0.613 -8.816 4.477 -10.468 -15.900 -7.080 314.945 179.883 3914.100 0.138 0.011 -0.241 0 -0.53 0.84 0.07
1 5.08 508 0.656 -9.036 4.267 -10.559 -18.005 -7.996 299.955 44.971 3614.146 0.117 0.226 -0.046 0.01 -0.53 0.84 0.07
1 5.09 509 0.972 -9.247 4.085 -0.977 -13.733 -7.416 299.955 44.971 3614.146 -0.177 0.432 0.123 0.01 -0.53 0.84 0.07
1 5.10 510 1.164 -8.878 3.764 12.360 -2.655 -7.294 374.906 119.922 3764.048 -0.348 0.065 0.444 0.01 -0.53 0.84 0.07
1 5.11 511 1.250 -8.825 3.802 11.810 1.984 -5.035 314.945 104.932 3599.005 -0.418 0.020 0.418 0.01 -0.53 0.84 0.07
1 5.12 512 1.192 -8.840 3.486 6.714 3.693 -2.350 314.945 104.932 3599.005 -0.350 0.042 0.748 0.01 -0.53 0.84 0.07
1 5.13 513 1.437 -8.873 3.539 0.000 2.869 -1.251 314.945 104.932 3704.087 -0.583 0.080 0.702 0.01 -0.53 0.84 0.07
1 5.14 514 1.633 -9.414 3.721 1.770 1.801 2.136 314.945 104.932 3704.087 -0.774 0.619 0.516 0.01 -0.53 0.84 0.07
1 5.15 515 1.887 -9.721 3.989 5.676 0.732 4.791 284.964 29.980 3839.149 -1.027 0.925 0.246 0.01 -0.53 0.84 0.07
1 5.16 516 2.073 -10.027 4.271 11.536 -0.519 2.258 284.964 29.980 3839.149 -1.212 1.234 -0.031 0.01 -0.53 0.84 0.07
1 5.17 517 2.131 -9.788 4.171 17.609 -0.977 -1.038 209.863 0.000 3599.005 -1.269 1.003 0.086 0.01 -0.53 0.84 0.07
1 5.18 518 1.906 -9.352 4.008 24.506 -1.801 -5.249 389.896 0.000 3554.035 -1.039 0.580 0.275 0.01 -0.53 0.84 0.07
1 5.19 519 1.772 -8.921 3.754 21.912 -1.556 -8.637 389.896 0.000 3554.035 -0.888 0.164 0.556 0.01 -0.53 0.85 0.07
1 5.20 520 2.059 -8.677 3.477 13.733 0.763 -14.923 314.945 0.000 3554.035 -1.130 -0.052 0.880 0.01 -0.53 0.85 0.07
1 5.21 521 2.265 -8.744 3.376 5.707 4.608 -16.266 314.945 0.000 3554.035 -1.306 0.023 0.991 0.01 -0.53 0.85 0.07
1 5.22 522 2.303 -8.701 3.405 2.106 10.223 -17.181 389.896 74.951 3599.005 -1.315 -0.016 0.963 0.01 -0.53 0.85 0.07
1 5.23 523 2.241 -8.821 3.041 1.984 18.341 -18.738 389.896 74.951 3599.005 -1.226 0.106 1.325 0.01 -0.53 0.85 0.08
1 5.24 524 2.227 -8.959 3.069 1.404 26.032 -17.456 404.886 119.922 3614.146 -1.189 0.246 1.294 0.01 -0.53 0.85 0.08
1 5.25 525 2.174 -8.883 2.969 1.221 34.515 -11.658 299.955 -14.990 3614.146 -1.122 0.170 1.392 0.01 -0.53 0.85 0.08
1 5.26 526 2.174 -8.945 2.753 4.089 37.079 -10.010 299.955 -14.990 3614.146 -1.116 0.232 1.605 0.01 -0.53 0.85 0.08
1 5.27 527 2.083 -8.883 2.634 9.674 36.987 -5.707 239.994 -29.980 3554.035 -1.027 0.172 1.731 0.01 -0.53 0.85 0.09
1 5.28 528 1.939 -8.830 2.710 9.796 37.811 -0.580 239.994 -29.980 3554.035 -0.892 0.122 1.662 0.01 -0.53 0.85 0.09
1 5.29 529 1.906 -8.754 2.706 8.148 40.314 4.334 314.945 74.951 3599.005 -0.875 0.048 1.675 0.01 -0.53 0.85 0.09
1 5.30 530 1.566 -8.806 2.835 5.493 44.708 9.369 314.945 74.951 3599.005 -0.561 0.101 1.552 0 -0.53 0.85 0.09
1 5.31 531 1.456 -8.892 2.725 0.580 48.523 14.679 269.974 44.971 3644.126 -0.489 0.184 1.665 0 -0.53 0.85 0.09
1 5.32 532 1.212 -8.634 2.830 -3.265 53.467 19.287 329.935 89.941 3764.048 -0.292 -0.082 1.556 -0 -0.53 0.85 0.09
1 5.33 533 1.212 -8.658 2.787 -6.409 53.192 18.311 329.935 89.941 3764.048 -0.348 -0.067 1.592 -0.01 -0.53 0.85 0.09
1 5.34 534 1.240 -8.758 2.897 -8.881 52.033 17.212 464.847 0.000 3629.136 -0.432 0.023 1.472 -0.01 -0.53 0.84 0.1
1 5.35 535 1.298 -8.773 2.950 -8.789 50.202 14.282 419.876 104.932 3734.067 -0.591 0.014 1.389 -0.02 -0.53 0.84 0.1
1 5.36 536 1.336 -8.533 3.022 -6.317 50.110 13.733 539.948 -29.980 3629.136 -0.675 -0.236 1.302 -0.02 -0.53 0.84 0.1
1 5.37 537 1.441 -8.500 2.945 -3.387 50.018 13.336 539.948 -29.980 3629.136 -0.824 -0.278 1.368 -0.02 -0.53 0.84 0.1
1 5.38 538 1.595 -8.385 2.825 -3.448 48.767 11.475 629.890 -44.971 3614.146 -1.020 -0.400 1.481 -0.03 -0.53 0.84 0.1
1 5.39 539 1.499 -8.275 3.069 -5.402 48.737 3.479 659.870 119.922 3644.126 -0.960 -0.516 1.228 -0.03 -0.53 0.84 0.1
1 5.40 540 1.638 -8.806 4.496 -15.137 46.814 5.829 659.870 119.922 3644.126 -1.126 0.009 -0.208 -0.03 -0.53 0.84 0.1
1 5.41 541 1.259 -9.328 6.354 -29.053 37.476 3.204 629.890 44.971 3644.126 -0.775 0.522 -2.083 -0.04 -0.53 0.84 0.1
1 5.42 542 0.350 -10.693 7.403 -43.854 16.266 -16.296 779.942 0.000 3674.106 0.104 1.847 -3.210 -0.04 -0.53 0.84 0.11
1 5.43 543 -0.110 -11.608 5.909 -28.473 7.629 -39.795 734.971 44.971 3719.077 0.587 2.736 -1.772 -0.04 -0.54 0.84 0.11
1 5.44 544 -0.627 -12.412 4.410 -0.580 10.773 -48.950 734.971 44.971 3719.077 1.162 3.531 -0.302 -0.04 -0.54 0.84 0.11
1 5.45 545 -1.700 -11.622 3.941 16.968 30.792 -31.006 809.922 89.941 3764.048 2.288 2.748 0.176 -0.04 -0.54 0.83 0.11
1 5.46 546 -2.672 -10.386 3.510 9.369 47.669 -11.444 659.870 164.893 3794.028 3.274 1.525 0.632 -0.04 -0.54 0.84 0.12
1 5.47 547 -2.787 -8.969 3.184 -8.667 36.438 -13.153 659.870 164.893 3794.028 3.372 0.112 0.969 -0.04 -0.54 0.84 0.12
1 5.48 548 -2.255 -9.424 3.031 -0.610 11.780 -15.381 944.984 269.974 3794.028 2.806 0.559 1.110 -0.04 -0.54 0.83 0.12
1 5.49 549 -0.790 -8.557 3.304 40.527 -29.999 -16.876 749.961 254.984 3674.106 1.340 -0.305 0.842 -0.04 -0.54 0.83 0.12
1 5.50 550 0.522 -8.016 4.042 60.517 -42.236 -11.353 1034.926 29.980 3809.019 0.060 -0.818 0.160 -0.04 -0.53 0.84 0.12
1 5.51 551 1.508 -7.336 4.587 60.700 -39.734 -5.310 1034.926 29.980 3809.019 -0.887 -1.457 -0.306 -0.04 -0.53 0.84 0.12
1 5.52 552 2.327 -6.963 5.100 45.777 -27.588 0.031 674.860 104.932 3809.019 -1.675 -1.792 -0.745 -0.03 -0.53 0.84 0.12
1 5.53 553 2.557 -6.987 5.095 18.036 -14.191 4.425 599.909 29.980 3674.106 -1.883 -1.739 -0.685 -0.03 -0.52 0.84 0.12
1 5.54 554 2.231 -7.815 4.712 -23.163 -2.014 6.409 599.909 29.980 3674.106 -1.546 -0.901 -0.285 -0.03 -0.52 0.84 0.11
1 5.55 555 1.733 -8.591 4.559 -31.616 2.594 0.519 719.981 0.000 3704.087 -1.040 -0.133 -0.148 -0.03 -0.52 0.84 0.11
1 5.56 556 1.116 -9.477 4.750 -15.747 6.134 -3.113 854.893 74.951 3704.087 -0.405 0.719 -0.411 -0.03 -0.53 0.84 0.11
1 5.57 557 0.819 -9.649 4.726 -8.514 5.066 -3.693 779.942 0.000 3674.106 -0.102 0.884 -0.402 -0.03 -0.53 0.84 0.12
1 5.58 558 0.196 -9.453 5.153 6.409 -2.258 -1.007 779.942 0.000 3674.106 0.525 0.689 -0.826 -0.03 -0.53 0.84 0.12
1 5.59 559 0.134 -9.285 5.421 2.380 -6.470 2.991 674.860 74.951 3599.005 0.589 0.526 -1.085 -0.03 -0.53 0.84 0.11
1 5.60 560 0.172 -9.046 5.440 -13.763 -2.869 9.033 749.961 0.000 3734.067 0.549 0.287 -1.103 -0.03 -0.53 0.84 0.11
1 5.61 561 -0.091 -8.873 5.090 -18.616 4.334 13.123 749.961 0.000 3734.067 0.802 0.109 -0.763 -0.03 -0.53 0.84 0.11
1 5.62 562 -0.283 -8.912 4.951 -17.670 10.132 15.656 809.922 -164.893 3764.048 0.973 0.137 -0.642 -0.03 -0.53 0.84 0.11
1 5.63 563 -0.364 -8.639 4.899 -9.888 11.749 17.120 674.860 0.000 3809.019 1.023 -0.148 -0.608 -0.03 -0.53 0.84 0.11
1 5.64 564 -0.306 -8.256 4.745 2.350 6.653 15.137 644.880 74.951 3554.035 0.896 -0.541 -0.465 -0.03 -0.53 0.84 0.11
1 5.65 565 -0.086 -7.877 4.774 6.226 0.854 13.763 644.880 74.951 3554.035 0.647 -0.916 -0.484 -0.03 -0.53 0.84 0.11
1 5.66 566 0.101 -7.604 4.813 4.059 -5.219 12.909 749.961 -74.951 3839.149 0.439 -1.183 -0.508 -0.03 -0.53 0.84 0.11
1 5.67 567 0.488 -7.418 4.836 -1.129 -9.308 11.566 629.890 44.971 3689.097 0.037 -1.366 -0.523 -0.03 -0.53 0.84 0.1
1 5.68 568 0.833 -7.523 4.927 -12.421 -6.622 7.385 629.890 44.971 3689.097 -0.315 -1.260 -0.611 -0.03 -0.53 0.84 0.1
1 5.69 569 0.771 -7.772 5.042 -17.822 0.336 6.409 689.851 89.941 3689.097 -0.257 -1.015 -0.733 -0.03 -0.53 0.84 0.1
1 5.70 570 0.431 -7.729 4.870 -21.515 6.378 5.371 764.952 -44.971 3794.028 0.080 -1.065 -0.576 -0.03 -0.53 0.84 0.1
1 5.71 571 -0.201 -8.059 4.468 -23.834 10.712 1.801 629.890 44.971 3869.129 0.695 -0.757 -0.218 -0.03 -0.53 0.84 0.1
1 5.72 572 -0.690 -8.409 4.429 -21.729 8.209 -0.397 629.890 44.971 3869.129 1.173 -0.421 -0.206 -0.03 -0.53 0.84 0.1
1 5.73 573 -0.972 -8.725 4.382 -20.691 -1.282 -0.397 779.942 74.951 3809.019 1.446 -0.118 -0.185 -0.04 -0.53 0.84 0.1
1 5.74 574 -1.144 -8.983 4.444 -18.585 -9.888 0.488 869.883 44.971 3794.028 1.613 0.127 -0.273 -0.04 -0.53 0.84 0.1
1 5.75 575 -0.977 -9.084 4.511 -16.602 -15.198 3.815 869.883 44.971 3794.028 1.441 0.217 -0.364 -0.04 -0.54 0.84 0.1
1 5.76 576 -0.522 -8.916 4.573 -13.794 -13.123 9.766 764.952 89.941 3794.028 0.980 0.039 -0.447 -0.03 -0.54 0.84 0.1
1 5.77 577 -0.536 -8.706 4.525 -12.756 -5.737 13.916 749.961 29.980 3779.038 0.984 -0.180 -0.417 -0.03 -0.54 0.84 0.1
1 5.78 578 -0.551 -8.557 4.391 -19.104 0.458 17.090 539.948 179.883 3779.038 0.955 -0.346 -0.316 -0.04 -0.54 0.84 0.09
1 5.79 579 -0.704 -8.624 4.133 -21.301 1.221 18.372 539.948 179.883 3779.038 1.079 -0.292 -0.082 -0.04 -0.54 0.84 0.09
1 5.80 580 -0.594 -8.811 4.065 -19.348 -1.617 19.074 629.890 119.922 3824.009 0.937 -0.118 -0.042 -0.04 -0.54 0.83 0.09
1 5.81 581 -0.484 -8.734 3.965 -16.266 -4.669 17.456 854.893 149.902 3914.100 0.798 -0.207 0.034 -0.04 -0.54 0.83 0.09
1 5.82 582 -0.378 -8.797 3.912 -13.001 -6.561 16.022 854.893 149.902 3914.100 0.668 -0.155 0.066 -0.04 -0.54 0.83 0.09
1 5.83 583 -0.335 -8.677 4.056 -10.010 -6.439 12.970 809.922 194.873 3869.129 0.604 -0.283 -0.095 -0.04 -0.54 0.83 0.09
1 5.84 584 -0.407 -8.720 3.960 -11.322 -6.500 11.871 599.909 299.955 3884.120 0.658 -0.247 -0.014 -0.04 -0.55 0.83 0.08
1 5.85 585 -0.575 -8.739 3.922 -12.329 -7.172 12.054 599.909 299.955 3884.120 0.810 -0.234 0.011 -0.04 -0.55 0.83 0.08
1 5.86 586 -0.742 -8.868 3.745 -15.320 -10.376 12.299 779.942 179.883 3914.100 0.947 -0.121 0.152 -0.04 -0.55 0.83 0.08
1 5.87 587 -0.790 -8.835 3.836 -16.815 -12.512 12.390 779.942 329.935 3839.149 0.979 -0.164 0.039 -0.04 -0.55 0.83 0.08
1 5.88 588 -0.704 -8.825 3.917 -15.778 -15.564 12.329 854.893 254.984 3959.071 0.879 -0.184 -0.065 -0.04 -0.55 0.83 0.08
1 5.89 589 -0.493 -8.959 3.797 -13.245 -16.205 12.054 854.893 254.984 3959.071 0.656 -0.059 0.033 -0.04 -0.55 0.83 0.08
1 5.90 590 -0.311 -8.749 3.874 -10.284 -14.862 8.270 659.870 269.974 3824.009 0.464 -0.277 -0.060 -0.04 -0.55 0.83 0.07
1 5.91 591 -0.397 -8.777 3.941 -9.460 -14.221 7.721 674.860 254.984 3839.149 0.544 -0.255 -0.141 -0.04 -0.55 0.83 0.07
1 5.92 592 -0.551 -8.859 3.778 -9.033 -14.557 6.714 674.860 254.984 3839.149 0.692 -0.178 0.010 -0.04 -0.55 0.83 0.07
1 5.93 593 -0.733 -8.797 3.702 -5.371 -18.951 7.507 659.870 344.925 3794.028 0.867 -0.250 0.064 -0.04 -0.55 0.83 0.07
1 5.94 594 -0.785 -8.754 3.788 -2.533 -23.377 5.005 839.903 269.974 3899.110 0.918 -0.296 -0.028 -0.04 -0.55 0.83 0.07
1 5.95 595 -0.900 -8.758 3.793 -3.723 -26.581 4.883 554.938 194.873 3929.090 1.035 -0.292 -0.036 -0.04 -0.55 0.83 0.07
1 5.96 596 -0.900 -8.639 3.864 -5.829 -30.762 4.395 554.938 194.873 3929.090 1.039 -0.414 -0.114 -0.03 -0.55 0.83 0.06
1 5.97 597 -0.503 -8.634 3.907 -7.324 -34.058 3.113 779.942 179.883 3884.120 0.648 -0.422 -0.165 -0.03 -0.55 0.83 0.06
1 5.98 598 -0.206 -8.615 4.161 -11.414 -34.912 5.066 749.961 299.955 3989.051 0.363 -0.445 -0.428 -0.03 -0.56 0.83 0.06
1 5.99 599 -0.057 -8.931 4.032 -13.306 -31.830 4.456 749.961 299.955 3989.051 0.227 -0.134 -0.312 -0.03 -0.56 0.83 0.06
1 6.00 600 -0.053 -9.050 3.960 -10.712 -26.062 6.317 659.870 314.945 3974.061 0.243 -0.027 -0.273 -0.03 -0.56 0.83 0.06
1 6.01 601 -0.177 -9.151 3.793 -8.118 -25.147 6.958 599.909 299.955 3839.149 0.373 0.068 -0.118 -0.02 -0.56 0.83 0.05
1 6.02 602 -0.182 -9.199 3.706 -5.585 -26.917 5.798 749.961 374.906 3959.071 0.383 0.112 -0.043 -0.02 -0.56 0.83 0.05
1 6.03 603 -0.163 -9.007 3.658 -2.563 -28.748 5.157 749.961 374.906 3959.071 0.370 -0.083 -0.003 -0.02 -0.56 0.83 0.05
1 6.04 604 -0.086 -9.146 3.606 0.427 -30.670 5.035 584.919 239.994 3974.061 0.302 0.055 0.047 -0.02 -0.56 0.83 0.05
1 6.05 605 -0.086 -8.868 3.194 -1.648 -30.792 6.775 539.948 374.906 3959.071 0.311 -0.223 0.456 -0.02 -0.56 0.83 0.05
1 6.06 606 -0.029 -8.777 2.935 -2.869 -31.067 7.294 539.948 374.906 3959.071 0.263 -0.316 0.712 -0.02 -0.56 0.83 0.05
1 6.07 607 -0.067 -8.849 2.892 -3.784 -32.196 6.042 569.929 374.906 3809.019 0.308 -0.247 0.747 -0.02 -0.56 0.83 0.05
1 6.08 608 -0.129 -8.868 2.811 -3.632 -35.523 4.181 509.968 389.896 4049.012 0.389 -0.235 0.809 -0.01 -0.56 0.83 0.04
1 6.09 609 -0.034 -8.840 2.978 -4.852 -35.584 3.754 554.938 344.925 3824.009 0.306 -0.268 0.630 -0.01 -0.56 0.83 0.04
1 6.10 610 0.101 -9.055 3.146 -6.500 -36.499 3.082 554.938 344.925 3824.009 0.186 -0.057 0.450 -0.01 -0.56 0.83 0.04
1 6.11 611 0.101 -9.132 3.295 -7.324 -36.072 2.747 509.968 269.974 3974.061 0.203 0.015 0.287 -0.01 -0.56 0.83 0.04
1 6.12 612 0.005 -9.137 3.065 -5.676 -39.887 -0.214 314.945 329.935 4019.032 0.315 0.015 0.504 -0.01 -0.56 0.83 0.04
1 6.13 613 -0.034 -9.036 3.184 -5.768 -42.755 -0.702 314.945 329.935 4019.032 0.373 -0.090 0.371 -0 -0.56 0.82 0.04
1 6.14 614 -0.010 -9.036 3.199 -7.141 -44.983 -0.336 404.886 464.847 4004.042 0.372 -0.095 0.343 -0 -0.57 0.82 0.03
1 6.15 615 0.259 -8.955 3.175 -10.803 -45.014 0.214 584.919 344.925 3929.090 0.152 -0.187 0.334 0 -0.57 0.82 0.03
1 6.16 616 0.316 -9.194 3.160 -11.414 -43.030 2.289 389.896 374.906 3884.120 0.118 0.046 0.328 0.01 -0.57 0.82 0.03
1 6.17 617 0.397 -9.252 3.137 -11.414 -41.107 4.181 389.896 374.906 3884.120 0.055 0.096 0.330 0.01 -0.57 0.82 0.03
1 6.18 618 0.589 -9.524 3.151 -10.742 -39.337 6.012 149.902 419.876 3899.110 -0.119 0.362 0.295 0.01 -0.57 0.82 0.03
1 6.19 619 0.685 -9.568 3.247 -5.096 -37.140 2.930 359.916 374.906 4019.032 -0.199 0.399 0.179 0.01 -0.57 0.82 0.02
1 6.20 620 0.551 -9.371 3.069 -2.075 -37.140 0.092 359.916 374.906 4019.032 -0.048 0.198 0.342 0.02 -0.57 0.82 0.02
1 6.21 621 0.527 -9.309 3.127 -3.387 -38.025 -2.594 224.854 344.925 3899.110 -0.003 0.134 0.275 0.02 -0.57 0.82 0.02
1 6.22 622 0.464 -9.682 3.103 -6.348 -35.431 -2.197 269.974 389.896 3974.061 0.109 0.501 0.275 0.02 -0.57 0.82 0.02
1 6.23 623 0.278 -9.553 3.175 -3.357 -35.767 -4.334 239.994 449.857 3959.071 0.319 0.368 0.189 0.02 -0.57 0.82 0.02
1 6.24 624 0.139 -9.539 3.165 0.580 -37.445 -5.707 239.994 449.857 3959.071 0.483 0.352 0.189 0.03 -0.57 0.82 0.02
1 6.25 625 0.201 -9.534 3.261 0.458 -37.933 -6.042 179.883 329.935 4019.032 0.446 0.347 0.089 0.03 -0.57 0.82 0.02
1 6.26 626 0.306 -9.606 3.251 -2.930 -37.262 -5.341 104.932 374.906 4019.032 0.366 0.419 0.093 0.03 -0.57 0.82 0.02
1 6.27 627 0.359 -9.615 3.031 -5.310 -33.447 -3.845 104.932 374.906 4019.032 0.338 0.426 0.302 0.03 -0.57 0.82 0.02
1 6.28 628 0.431 -9.711 2.916 -3.021 -32.135 -2.472 89.941 419.876 3974.061 0.289 0.519 0.404 0.03 -0.57 0.82 0.02
1 6.29 629 0.608 -9.620 3.041 1.282 -30.029 -2.380 59.961 404.886 3959.071 0.150 0.424 0.259 0.04 -0.57 0.82 0.01
1 6.30 630 0.891 -9.472 3.132 2.106 -28.778 -2.106 44.971 464.847 3794.028 -0.113 0.275 0.164 0.04 -0.57 0.82 0.01
1 6.31 631 0.972 -9.510 3.218 1.038 -26.367 -1.099 44.971 464.847 3794.028 -0.175 0.315 0.076 0.04 -0.57 0.82 0.01
1 6.32 632 1.092 -9.433 3.165 -0.397 -25.116 0.641 0.000 299.955 4019.032 -0.278 0.238 0.125 0.04 -0.57 0.82 0.01
1 6.33 633 1.168 -9.496 3.132 -1.678 -23.193 2.594 -29.980 374.906 3989.051 -0.341 0.300 0.153 0.04 -0.57 0.82 0.01
1 6.34 634 1.154 -9.673 3.055 -3.387 -20.355 1.312 -29.980 374.906 3989.051 -0.314 0.476 0.223 0.04 -0.58 0.82 0.01
1 6.35 635 1.140 -9.841 2.988 -2.075 -16.235 0.610 -179.883 524.958 3914.100 -0.287 0.641 0.281 0.05 -0.58 0.82 0.01
1 6.36 636 1.178 -9.979 3.251 0.580 -14.587 -0.458 -134.912 404.886 3959.071 -0.305 0.777 0.003 0.05 -0.58 0.82 0.01
1 6.37 637 1.207 -10.094 3.352 2.899 -13.489 -2.197 29.980 329.935 4064.002 -0.321 0.893 -0.099 0.05 -0.58 0.82 0.01
1 6.38 638 1.255 -10.099 3.362 7.874 -12.878 -3.204 29.980 329.935 4064.002 -0.353 0.900 -0.104 0.05 -0.58 0.82 0.01
1 6.39 639 1.192 -10.022 3.342 12.451 -11.261 -2.197 -89.941 569.929 3929.090 -0.277 0.828 -0.076 0.05 -0.58 0.82 0.01
1 6.40 640 1.302 -9.735 3.309 14.557 -9.430 -1.678 -59.961 329.935 3989.051 -0.375 0.548 -0.027 0.05 -0.57 0.82 0.01
1 6.41 641 1.494 -9.529 3.558 13.397 -3.174 -2.258 -59.961 329.935 3989.051 -0.555 0.349 -0.258 0.05 -0.57 0.82 0.01
1 6.42 642 1.671 -9.553 3.467 11.536 2.106 -3.357 -29.980 449.857 3959.071 -0.721 0.381 -0.149 0.05 -0.57 0.82 0.01
1 6.43 643 1.484 -9.668 3.496 13.336 6.836 -2.655 -29.980 449.857 3959.071 -0.524 0.503 -0.160 0.05 -0.57 0.82 0.01
1 6.44 644 1.178 -9.524 3.251 18.768 7.965 -2.808 -104.932 449.857 3839.149 -0.207 0.376 0.125 0.05 -0.57 0.82 0.02
1 6.45 645 1.135 -9.472 3.371 19.531 5.463 -1.953 -104.932 449.857 3839.149 -0.160 0.333 0.031 0.05 -0.57 0.82 0.02
1 6.46 646 1.250 -9.199 3.409 18.219 3.143 -0.641 -179.883 254.984 3884.120 -0.273 0.070 0.019 0.05 -0.57 0.82 0.02
1 6.47 647 1.427 -9.275 3.395 14.740 3.510 0.000 -14.990 239.994 3974.061 -0.447 0.156 0.056 0.05 -0.57 0.82 0.02
1 6.48 648 1.705 -9.204 3.520 11.200 9.125 1.770 -14.990 239.994 3974.061 -0.723 0.092 -0.049 0.05 -0.57 0.82 0.02
1 6.49 649 1.623 -9.232 3.390 10.651 14.404 2.319 -179.883 449.857 3959.071 -0.641 0.127 0.097 0.05 -0.57 0.82 0.02
1 6.50 650 1.341 -9.237 3.261 11.475 16.815 1.831 -179.883 449.857 3959.071 -0.362 0.138 0.243 0.05 -0.56 0.82 0.02
1 6.51 651 0.958 -9.252 3.204 12.726 16.083 0.000 -89.941 194.873 3929.090 0.010 0.164 0.335 0.04 -0.56 0.82 0.02
1 6.52 652 0.785 -9.175 3.223 14.038 12.695 -1.709 -89.941 194.873 3929.090 0.177 0.094 0.333 0.04 -0.56 0.83 0.02
1 6.53 653 0.560 -9.146 3.486 14.526 10.101 -2.960 -89.941 344.925 3929.090 0.400 0.072 0.089 0.04 -0.56 0.83 0.02
1 6.54 654 0.455 -9.050 3.572 14.648 8.270 -1.862 -29.980 329.935 3839.149 0.503 -0.015 0.024 0.04 -0.56 0.83 0.03
1 6.55 655 0.460 -8.811 3.654 14.710 6.683 0.092 -29.980 329.935 3839.149 0.495 -0.247 -0.036 0.04 -0.56 0.83 0.03
1 6.56 656 0.488 -8.706 3.620 12.604 2.136 -0.061 -89.941 239.994 3869.129 0.460 -0.344 0.019 0.04 -0.56 0.83 0.03
1 6.57 657 0.819 -8.912 3.496 8.209 1.495 1.221 -89.941 239.994 3869.129 0.126 -0.131 0.163 0.04 -0.56 0.83 0.03
1 6.58 658 1.164 -9.261 3.443 4.517 6.683 5.554 44.971 194.873 3974.061 -0.226 0.226 0.236 0.04 -0.56 0.83 0.03
1 6.59 659 1.082 -9.414 3.366 3.723 10.956 8.881 44.971 194.873 3974.061 -0.155 0.381 0.318 0.04 -0.56 0.83 0.03
1 6.60 660 1.259 -9.611 3.132 5.585 15.869 10.742 14.990 119.922 3899.110 -0.350 0.577 0.556 0.04 -0.56 0.83 0.03
1 6.61 661 1.121 -9.783 3.069 7.172 19.196 12.756 0.000 299.955 3884.120 -0.231 0.749 0.624 0.04 -0.56 0.83 0.03
1 6.62 662 0.963 -9.773 3.022 9.613 18.799 12.817 0.000 299.955 3884.120 -0.099 0.740 0.679 0.03 -0.56 0.83 0.03
1 6.63 663 0.627 -9.793 2.959 14.008 18.585 14.130 29.980 179.883 3809.019 0.211 0.761 0.751 0.03 -0.56 0.83 0.03
1 6.64 664 0.809 -9.845 3.050 14.191 17.365 16.235 29.980 179.883 3809.019 0.001 0.817 0.674 0.03 -0.56 0.83 0.03
1 6.65 665 0.651 -9.266 2.926 18.250 18.127 13.214 0.000 254.984 3839.149 0.128 0.241 0.813 0.03 -0.56 0.83 0.03
1 6.66 666 0.833 -9.347 3.093 21.332 19.867 10.284 149.902 164.893 3869.129 -0.106 0.336 0.690 0.02 -0.55 0.83 0.03
1 6.67 667 0.915 -9.132 3.237 20.996 16.968 10.071 14.990 239.994 3974.061 -0.209 0.130 0.572 0.02 -0.55 0.83 0.03
1 6.68 668 0.963 -8.945 3.333 20.172 16.327 12.726 134.912 149.902 3839.149 -0.279 -0.047 0.503 0.02 -0.55 0.83 0.03
1 6.69 669 1.097 -8.452 3.376 18.585 16.754 10.834 134.912 149.902 3839.149 -0.435 -0.532 0.484 0.02 -0.55 0.83 0.03
1 6.70 670 0.982 -8.385 3.668 14.038 22.308 8.209 134.912 104.932 3914.100 -0.339 -0.589 0.217 0.02 -0.55 0.84 0.03
1 6.71 671 0.895 -8.323 3.611 7.568 27.222 9.003 134.912 104.932 3914.100 -0.271 -0.643 0.297 0.02 -0.55 0.84 0.03
1 6.72 672 0.795 -8.409 3.663 2.075 29.816 9.491 104.932 299.955 3599.005 -0.193 -0.552 0.259 0.02 -0.55 0.84 0.03
1 6.73 673 0.493 -8.648 3.745 1.831 27.710 9.735 14.990 89.941 3719.077 0.055 -0.312 0.188 0.01 -0.55 0.84 0.03
1 6.74 674 0.254 -8.835 3.754 4.547 23.254 7.080 209.863 104.932 3839.149 0.268 -0.124 0.183 0.01 -0.55 0.84 0.04
1 6.75 675 0.225 -9.003 3.740 4.730 18.799 4.425 179.883 104.932 3704.087 0.275 0.045 0.205 0.01 -0.55 0.84 0.04
1 6.76 676 -0.091 -9.189 4.027 3.479 13.916 0.885 179.883 104.932 3704.087 0.575 0.234 -0.077 0.01 -0.55 0.84 0.04
1 6.77 677 -0.077 -9.319 4.156 5.737 10.315 0.275 314.945 254.984 3779.038 0.550 0.365 -0.200 0 -0.55 0.84 0.04
1 6.78 678 -0.249 -9.247 4.372 10.193 4.059 3.723 314.945 254.984 3779.038 0.713 0.297 -0.406 0 -0.55 0.84 0.04
1 6.79 679 -0.278 -9.132 4.621 12.299 0.580 -0.214 89.941 -14.990 3794.028 0.731 0.188 -0.641 0 -0.54 0.84 0.04
1 6.80 680 -0.086 -9.022 4.530 10.590 -5.798 -5.554 269.974 14.990 3824.009 0.537 0.094 -0.513 0 -0.54 0.84 0.04
1 6.81 681 0.086 -8.835 4.827 7.141 -11.169 -8.606 209.863 -29.980 3734.067 0.375 -0.085 -0.794 0 -0.54 0.84 0.04
1 6.82 682 0.326 -8.921 5.066 6.073 -15.900 -11.261 269.974 89.941 3719.077 0.155 0.008 -1.020 0 -0.54 0.84 0.04
1 6.83 683 0.335 -9.012 5.263 6.073 -18.433 -14.221 269.974 89.941 3719.077 0.172 0.107 -1.203 0.01 -0.54 0.84 0.04
1 6.84 684 0.594 -9.151 5.382 5.646 -21.027 -11.749 314.945 179.883 3734.067 -0.056 0.254 -1.309 0.01 -0.54 0.84 0.04
1 6.85 685 0.661 -8.945 5.694 10.529 -22.705 -13.001 314.945 179.883 3734.067 -0.092 0.056 -1.608 0.01 -0.54 0.84 0.04
1 6.86 686 0.685 -8.552 5.473 17.975 -23.804 -18.280 149.902 -89.941 3794.028 -0.084 -0.327 -1.370 0.01 -0.54 0.84 0.04
1 6.87 687 0.819 -8.361 5.421 21.393 -24.292 -22.980 59.961 -29.980 3959.071 -0.179 -0.502 -1.288 0.01 -0.54 0.84 0.04
1 6.88 688 0.608 -8.150 5.081 18.005 -25.208 -25.910 194.873 89.941 3869.129 0.130 -0.674 -0.881 0.02 -0.53 0.84 0.04
1 6.89 689 0.733 -8.069 4.813 17.212 -24.445 -24.567 59.961 0.000 3959.071 0.057 -0.737 -0.585 0.02 -0.53 0.84 0.04
1 6.90 690 0.891 -7.930 4.358 20.081 -21.790 -22.430 59.961 0.000 3959.071 -0.051 -0.858 -0.103 0.02 -0.53 0.85 0.04
1 6.91 691 1.030 -7.781 4.051 20.722 -17.059 -17.944 44.971 -14.990 3689.097 -0.147 -0.988 0.232 0.03 -0.53 0.85 0.04
1 6.92 692 1.801 -7.681 3.994 20.325 -10.681 -12.360 44.971 -14.990 3689.097 -0.881 -1.072 0.317 0.03 -0.53 0.85 0.04
1 6.93 693 2.356 -7.781 3.922 16.449 -9.155 -10.712 0.000 179.883 3839.149 -1.410 -0.955 0.415 0.03 -0.53 0.85 0.04
1 6.94 694 2.945 -8.126 4.171 10.101 -7.965 -8.637 -14.990 44.971 3689.097 -1.968 -0.596 0.189 0.03 -0.53 0.85 0.04
1 6.95 695 3.740 -8.667 4.487 9.888 -7.843 -6.714 194.873 -44.971 3689.097 -2.698 -0.035 -0.102 0.03 -0.52 0.85 0.05
1 6.96 696 3.898 -8.672 4.688 14.160 -8.972 -9.369 44.971 14.990 3764.048 -2.820 -0.019 -0.290 0.04 -0.52 0.85 0.05
1 6.97 697 3.678 -8.572 4.549 18.372 -6.775 -13.550 44.971 14.990 3764.048 -2.557 -0.104 -0.132 0.04 -0.52 0.85 0.05
1 6.98 698 3.314 -8.227 4.659 17.365 -2.991 -16.968 14.990 -44.971 3899.110 -2.149 -0.431 -0.219 0.04 -0.52 0.85 0.05
1 6.99 699 2.725 -8.126 4.391 11.139 1.160 -21.088 14.990 -44.971 3899.110 -1.517 -0.515 0.072 0.04 -0.52 0.85 0.05
1 7.00 700 2.073 -8.179 4.214 7.507 1.953 -21.454 -59.961 0.000 3839.149 -0.826 -0.448 0.266 0.04 -0.52 0.85 0.05
1 7.01 701 1.724 -8.658 4.070 4.456 -0.977 -19.104 44.971 -14.990 3719.077 -0.438 0.043 0.421 0.04 -0.52 0.85 0.06
1 7.02 702 1.480 -9.146 4.271 4.761 -1.160 -7.172 -134.912 74.951 3674.106 -0.139 0.542 0.225 0.04 -0.52 0.85 0.06
1 7.03 703 1.283 -8.825 4.147 11.627 2.808 -1.923 14.990 -14.990 3689.097 0.068 0.226 0.355 0.04 -0.52 0.85 0.06
1 7.04 704 1.274 -8.495 3.879 15.625 6.531 -0.031 14.990 -14.990 3689.097 0.079 -0.097 0.637 0.04 -0.52 0.85 0.06
1 7.05 705 1.125 -8.533 3.912 13.611 8.728 1.709 14.990 89.941 3764.048 0.223 -0.050 0.622 0.04 -0.52 0.85 0.06
1 7.06 706 1.020 -8.437 3.836 8.881 11.108 7.172 14.990 89.941 3764.048 0.318 -0.139 0.713 0.04 -0.52 0.85 0.06
1 7.07 707 1.183 -8.447 3.831 10.529 14.343 12.238 -14.990 -89.941 3824.009 0.136 -0.127 0.728 0.04 -0.52 0.85 0.06
1 7.08 708 1.264 -8.552 3.989 15.198 15.167 12.726 0.000 -104.932 3734.067 0.030 -0.019 0.582 0.04 -0.51 0.85 0.06
1 7.09 709 1.528 -8.524 4.056 18.280 19.409 15.411 -14.990 -89.941 3644.126 -0.286 -0.034 0.555 0.04 -0.51 0.86 0.06
1 7.10 710 1.781 -8.533 4.133 15.717 22.705 17.273 59.961 -254.984 3599.005 -0.571 -0.016 0.502 0.04 -0.51 0.86 0.06
1 7.11 711 2.059 -8.519 4.200 11.047 25.452 17.731 59.961 -254.984 3599.005 -0.882 -0.024 0.455 0.03 -0.51 0.86 0.06
1 7.12 712 2.179 -8.442 4.305 8.331 27.008 16.449 -89.941 -119.922 3719.077 -1.035 -0.097 0.365 0.03 -0.51 0.86 0.06
1 7.13 713 2.404 -8.366 3.922 9.216 27.435 14.771 -89.941 -119.922 3719.077 -1.291 -0.171 0.761 0.03 -0.51 0.86 0.06
1 7.14 714 2.763 -8.097 3.884 8.698 29.022 13.702 14.990 -194.873 3719.077 -1.678 -0.435 0.812 0.03 -0.51 0.86 0.06
1 7.15 715 2.978 -7.935 3.611 9.277 34.363 14.160 119.922 -194.873 3869.129 -1.918 -0.595 1.097 0.03 -0.51 0.86 0.06
1 7.16 716 3.275 -7.350 3.548 4.883 50.232 12.634 44.971 -194.873 3644.126 -2.272 -1.172 1.185 0.02 -0.51 0.86 0.06
1 7.17 717 3.390 -7.307 3.429 0.305 57.739 11.719 119.922 -194.873 3689.097 -2.431 -1.215 1.314 0.02 -0.51 0.86 0.06
1 7.18 718 3.275 -7.259 2.950 -17.975 80.841 10.773 119.922 -194.873 3689.097 -2.379 -1.270 1.791 0.01 -0.51 0.86 0.07
1 7.19 719 2.998 -7.183 2.600 -25.787 91.126 10.498 239.994 -254.984 3674.106 -2.174 -1.363 2.126 0.01 -0.51 0.86 0.07
1 7.20 720 2.696 -7.168 2.366 -27.008 95.948 8.392 239.994 -254.984 3674.106 -1.951 -1.397 2.337 0 -0.51 0.86 0.07
1 7.21 721 2.471 -7.542 2.639 -26.093 87.830 8.179 44.971 -269.974 3719.077 -1.804 -1.044 2.039 -0 -0.51 0.86 0.07
1 7.22 722 2.466 -7.906 2.955 -24.414 76.569 10.132 269.974 -164.893 3689.097 -1.872 -0.699 1.697 -0.01 -0.51 0.86 0.08
1 7.23 723 2.433 -8.097 4.065 -21.301 63.355 15.045 269.974 -164.893 3689.097 -1.906 -0.526 0.559 -0.02 -0.51 0.85 0.08
1 7.24 724 2.030 -8.955 7.580 -14.374 39.215 17.578 599.909 0.000 3734.067 -1.601 0.300 -3.003 -0.02 -0.52 0.85 0.08
1 7.25 725 2.045 -9.333 8.955 -19.135 16.907 0.366 599.909 0.000 3734.067 -1.660 0.667 -4.394 -0.03 -0.52 0.85 0.08
1 7.26 726 1.542 -11.555 7.686 -42.114 -0.061 -39.581 494.978 -74.951 3734.067 -1.151 2.872 -3.158 -0.03 -0.52 0.85 0.08
1 7.27 727 0.402 -13.686 4.789 -28.412 7.660 -67.993 494.978 -74.951 3734.067 0.054 4.977 -0.318 -0.03 -0.52 0.85 0.09
1 7.28 728 -3.649 -12.244 4.085 19.501 54.596 -47.272 584.919 -14.990 3794.028 4.188 3.529 0.364 -0.02 -0.52 0.85 0.09
1 7.29 729 -6.623 -10.497 4.319 0.122 88.806 -20.203 599.909 -104.932 3704.087 7.204 1.797 0.155 -0.02 -0.52 0.85 0.1
1 7.30 730 -7.384 -8.844 3.170 -29.602 81.848 4.486 599.909 -104.932 3704.087 7.947 0.152 1.321 -0.03 -0.52 0.85 0.1
1 7.31 731 -4.836 -8.983 3.874 -43.427 14.496 13.519 569.929 0.000 3839.149 5.297 0.246 0.540 -0.04 -0.52 0.85 0.1
1 7.32 732 -2.107 -9.299 4.362 -11.108 -8.179 18.616 569.929 0.000 3839.149 2.518 0.534 0.000 -0.04 -0.53 0.84 0.1
1 7.33 733 -0.426 -8.998 4.702 29.053 -25.360 7.843 494.978 -29.980 3839.149 0.817 0.230 -0.343 -0.04 -0.53 0.84 0.1
1 7.34 734 1.307 -8.749 5.119 64.301 -43.854 -7.538 494.978 -29.980 3839.149 -0.910 0.006 -0.709 -0.04 -0.52 0.85 0.1
1 7.35 735 3.069 -7.997 5.756 81.726 -50.873 2.838 599.909 74.951 3779.038 -2.625 -0.696 -1.253 -0.03 -0.52 0.85 0.1
1 7.36 736 4.468 -5.952 6.168 49.469 -35.370 28.748 629.890 -14.990 4004.042 -3.981 -2.681 -1.555 -0.03 -0.51 0.85 0.09
1 7.37 737 4.587 -4.937 5.885 14.221 -13.031 20.905 629.890 -14.990 4004.042 -4.080 -3.649 -1.188 -0.02 -0.51 0.86 0.09
1 7.38 738 3.496 -5.708 5.492 -22.522 37.201 -7.141 554.938 -239.994 3824.009 -2.973 -2.852 -0.750 -0.02 -0.51 0.86 0.09
1 7.39 739 2.878 -6.489 5.243 -33.203 51.819 -10.895 554.938 -239.994 3824.009 -2.374 -2.091 -0.534 -0.02 -0.51 0.86 0.09
1 7.40 740 0.340 -9.228 4.204 -42.816 58.624 -23.132 569.929 -29.980 3914.100 0.148 0.620 0.456 -0.03 -0.51 0.85 0.1
1 7.41 741 -0.637 -10.702 3.960 -24.201 33.051 -30.792 569.929 -29.980 3914.100 1.125 2.068 0.650 -0.03 -0.51 0.85 0.1
1 7.42 742 -1.092 -11.014 4.501 5.646 2.045 -30.579 569.929 -149.902 3839.149 1.605 2.370 0.088 -0.03 -0.51 0.85 0.1
1 7.43 743 -1.164 -9.625 5.224 38.025 -23.834 -20.599 494.978 -104.932 3884.120 1.720 0.993 -0.618 -0.03 -0.51 0.85 0.1
1 7.44 744 -0.862 -9.089 5.291 28.381 -20.050 -13.825 494.978 -104.932 3884.120 1.465 0.483 -0.641 -0.03 -0.51 0.85 0.1
1 7.45 745 -0.656 -8.586 5.052 4.883 -8.667 -7.935 659.870 -164.893 3764.048 1.290 0.005 -0.361 -0.02 -0.51 0.85 0.1
1 7.46 746 -0.872 -8.208 4.544 -7.904 2.960 -7.813 494.978 -74.951 3839.149 1.518 -0.366 0.159 -0.02 -0.51 0.85 0.1
1 7.47 747 -1.082 -8.026 4.324 -8.942 -0.366 -3.540 509.968 -14.990 3719.077 1.728 -0.553 0.369 -0.02 -0.51 0.85 0.1
1 7.48 748 -1.034 -7.983 4.123 -5.646 -8.789 0.885 509.968 -14.990 3719.077 1.674 -0.603 0.559 -0.02 -0.51 0.85 0.1
1 7.49 749 -0.646 -7.906 4.075 -0.610 -17.548 4.425 629.890 -194.873 3869.129 1.282 -0.684 0.599 -0.02 -0.51 0.85 0.1
1 7.50 750 -0.120 -7.858 4.243 7.660 -27.405 5.554 554.938 -44.971 3794.028 0.759 -0.733 0.430 -0.02 -0.51 0.85 0.1
1 7.51 751 0.417 -7.901 4.717 8.148 -31.677 3.265 554.938 -44.971 3794.028 0.229 -0.686 -0.038 -0.02 -0.51 0.85 0.1
1 7.52 752 0.752 -7.983 4.841 3.296 -32.776 1.190 539.948 -29.980 3809.019 -0.091 -0.598 -0.153 -0.02 -0.51 0.85 0.1
1 7.53 753 0.919 -7.997 4.994 -2.838 -24.017 1.312 404.886 -14.990 3764.048 -0.212 -0.577 -0.302 -0.01 -0.51 0.85 0.09
1 7.54 754 0.963 -8.514 5.100 -6.470 -19.562 5.890 419.876 -224.854 3839.149 -0.239 -0.060 -0.410 -0.01 -0.51 0.85 0.09
1 7.55 755 1.274 -8.806 4.880 -10.284 -17.395 7.843 419.876 -224.854 3839.149 -0.541 0.227 -0.199 -0.01 -0.51 0.85 0.09
1 7.56 756 1.312 -8.955 4.798 -10.071 -14.893 7.111 419.876 -104.932 3839.149 -0.573 0.368 -0.133 -0.01 -0.51 0.85 0.09
1 7.57 757 1.710 -8.955 4.683 -2.930 -7.629 3.754 359.916 -104.932 3704.087 -0.964 0.361 -0.032 -0.01 -0.51 0.85 0.09
1 7.58 758 1.518 -9.094 4.731 -1.984 -0.793 4.425 359.916 -104.932 3704.087 -0.765 0.496 -0.088 -0.01 -0.51 0.85 0.09
1 7.59 759 1.135 -8.844 4.573 -4.425 5.920 6.744 389.896 -29.980 3884.120 -0.377 0.246 0.067 -0.01 -0.51 0.85 0.09
1 7.60 760 0.474 -8.806 4.760 -10.407 8.423 6.744 449.857 -89.941 3869.129 0.267 0.199 -0.133 -0.01 -0.51 0.85 0.09
1 7.61 761 0.091 -8.988 4.678 -16.480 5.219 8.240 449.857 -89.941 3719.077 0.635 0.371 -0.067 -0.01 -0.51 0.85 0.09
1 7.62 762 -0.244 -8.912 4.645 -15.564 -0.702 10.040 449.857 -89.941 3719.077 0.954 0.282 -0.055 -0.01 -0.52 0.85 0.09
1 7.63 763 -0.436 -8.945 4.252 -9.949 -7.629 12.543 479.987 14.990 3719.077 1.129 0.304 0.318 -0.01 -0.52 0.85 0.08
1 7.64 764 -0.235 -8.634 4.372 -4.303 -13.886 13.428 479.987 14.990 3644.126 0.910 -0.016 0.185 -0.01 -0.52 0.85 0.08
1 7.65 765 0.120 -8.313 4.468 -1.038 -18.585 11.597 479.987 14.990 3644.126 0.544 -0.342 0.082 -0.01 -0.52 0.85 0.08
1 7.66 766 0.488 -8.265 4.477 -3.540 -20.111 9.827 494.978 29.980 3884.120 0.168 -0.392 0.069 -0.01 -0.52 0.85 0.08
1 7.67 767 0.527 -8.481 4.674 -7.507 -19.379 9.369 404.886 14.990 3869.129 0.128 -0.179 -0.132 -0.01 -0.52 0.85 0.08
1 7.68 768 0.953 -8.538 4.702 -13.123 -14.740 9.247 449.857 -119.922 3794.028 -0.294 -0.134 -0.185 -0.01 -0.52 0.85 0.08
1 7.69 769 1.039 -8.706 4.765 -14.587 -9.399 9.430 449.857 -119.922 3794.028 -0.380 0.025 -0.265 -0.01 -0.52 0.85 0.07
1 7.70 770 1.077 -8.811 4.520 -14.313 -5.951 8.331 374.906 14.990 3794.028 -0.420 0.121 -0.039 -0.01 -0.52 0.85 0.07
1 7.71 771 1.030 -8.768 4.621 -14.771 -2.930 8.209 464.847 -29.980 3809.019 -0.374 0.068 -0.158 -0.01 -0.52 0.85 0.07
1 7.72 772 1.025 -8.706 4.520 -13.794 -0.031 9.522 464.847 -29.980 3809.019 -0.374 -0.005 -0.076 -0.01 -0.52 0.85 0.07
1 7.73 773 0.804 -8.562 4.530 -16.296 1.801 9.552 449.857 14.990 3794.028 -0.161 -0.158 -0.105 -0.01 -0.52 0.85 0.07
1 7.74 774 0.709 -8.624 4.621 -18.829 2.502 9.460 389.896 -104.932 3779.038 -0.075 -0.107 -0.216 -0.01 -0.52 0.85 0.07
1 7.75 775 0.431 -8.715 4.659 -16.968 4.089 8.209 479.987 14.990 3824.009 0.180 -0.040 -0.300 -0.01 -0.53 0.85 0.07
1 7.76 776 0.402 -8.691 4.784 -14.801 4.456 7.507 479.987 14.990 3824.009 0.196 -0.075 -0.444 -0.01 -0.53 0.85 0.07
1 7.77 777 0.259 -8.591 4.726 -11.688 5.157 9.155 464.847 0.000 3959.071 0.326 -0.184 -0.402 -0.01 -0.53 0.85 0.07
1 7.78 778 0.201 -8.241 4.587 -12.543 5.249 8.759 449.857 -14.990 3974.061 0.367 -0.541 -0.275 -0.01 -0.53 0.85 0.07
1 7.79 779 -0.014 -8.356 4.501 -13.641 6.622 9.155 449.857 -14.990 3974.061 0.566 -0.434 -0.203 -0.01 -0.53 0.85 0.07
1 7.80 780 -0.096 -8.308 4.319 -17.883 7.782 10.956 464.847 -74.951 3884.120 0.627 -0.491 -0.038 -0.01 -0.53 0.84 0.07
1 7.81 781 -0.302 -8.337 4.209 -21.240 6.836 9.003 554.938 14.990 3899.110 0.811 -0.473 0.053 -0.01 -0.53 0.84 0.07
1 7.82 782 -0.259 -8.562 4.171 -21.973 2.777 5.554 569.929 149.902 3989.051 0.730 -0.276 0.036 -0.01 -0.53 0.84 0.07
1 7.83 783 -0.345 -8.773 3.965 -18.860 0.214 5.676 569.929 149.902 3989.051 0.804 -0.080 0.214 -0.02 -0.54 0.84 0.07
1 7.84 784 -0.321 -8.940 3.941 -16.449 -1.373 4.669 479.987 194.873 3929.090 0.769 0.076 0.213 -0.02 -0.54 0.84 0.07
1 7.85 785 -0.311 -9.122 4.137 -14.496 -1.801 4.456 584.919 44.971 3824.009 0.750 0.246 -0.007 -0.02 -0.54 0.84 0.07
1 7.86 786 -0.364 -9.113 4.195 -13.397 -2.258 5.981 584.919 44.971 3824.009 0.794 0.227 -0.085 -0.02 -0.54 0.84 0.07
1 7.87 787 -0.321 -9.161 3.941 -16.022 -2.686 10.834 539.948 29.980 3914.100 0.739 0.265 0.150 -0.02 -0.54 0.84 0.07
1 7.88 788 -0.484 -9.170 3.850 -16.174 -2.869 14.496 389.896 179.883 3914.100 0.885 0.264 0.219 -0.02 -0.54 0.84 0.06
1 7.89 789 -0.388 -8.888 3.726 -13.855 -1.465 18.158 569.929 149.902 4019.032 0.743 -0.041 0.298 -0.02 -0.54 0.84 0.06
1 7.90 790 -0.340 -8.691 3.673 -13.641 -1.160 18.463 569.929 149.902 4019.032 0.668 -0.248 0.331 -0.02 -0.54 0.84 0.06
1 7.91 791 -0.211 -8.734 3.836 -15.442 2.075 19.104 389.896 254.984 3809.019 0.511 -0.214 0.148 -0.02 -0.54 0.84 0.06
1 7.92 792 -0.077 -8.844 3.931 -17.151 4.456 20.294 359.916 149.902 3884.120 0.346 -0.115 0.030 -0.02 -0.55 0.84 0.06
1 7.93 793 -0.110 -8.940 3.884 -20.874 5.798 19.745 359.916 149.902 3884.120 0.348 -0.031 0.053 -0.02 -0.55 0.84 0.06
1 7.94 794 -0.196 -8.907 3.673 -22.583 3.571 17.914 554.938 164.893 3974.061 0.402 -0.078 0.234 -0.02 -0.55 0.83 0.06
1 7.95 795 -0.081 -9.103 3.601 -20.813 0.427 16.174 449.857 44.971 3929.090 0.259 0.103 0.274 -0.03 -0.55 0.83 0.05
1 7.96 796 -0.144 -8.988 3.563 -15.595 -6.165 12.573 554.938 164.893 4079.143 0.279 -0.037 0.254 -0.03 -0.55 0.83 0.05
1 7.97 797 -0.211 -8.931 3.534 -12.390 -7.843 9.644 554.938 164.893 4079.143 0.333 -0.104 0.261 -0.03 -0.55 0.83 0.05
1 7.98 798 -0.306 -9.003 3.386 -9.216 -9.369 7.751 509.968 164.893 4079.143 0.420 -0.039 0.392 -0.03 -0.55 0.83 0.05
1 7.99 799 -0.450 -8.916 3.520 -7.050 -11.658 6.287 479.987 194.873 4079.143 0.558 -0.132 0.244 -0.03 -0.55 0.83 0.05
1 8.00 800 -0.584 -8.916 3.376 -5.829 -13.336 6.195 479.987 194.873 4079.143 0.688 -0.136 0.376 -0.03 -0.55 0.83 0.05
1 8.01 801 -0.498 -8.768 3.405 -5.005 -18.524 3.571 314.945 374.906 3914.100 0.599 -0.289 0.338 -0.03 -0.56 0.83 0.05
1 8.02 802 -0.393 -8.658 3.299 -3.815 -21.149 2.258 419.876 329.935 3989.051 0.495 -0.403 0.434 -0.02 -0.56 0.83 0.05
1 8.03 803 -0.488 -8.686 3.429 -4.944 -22.919 2.777 419.876 329.935 3989.051 0.596 -0.377 0.297 -0.02 -0.56 0.83 0.04
1 8.04 804 -0.345 -8.624 3.299 -10.956 -25.665 5.341 584.919 314.945 3974.061 0.464 -0.447 0.407 -0.02 -0.56 0.83 0.04
1 8.05 805 -0.158 -8.528 3.261 -10.010 -24.780 3.479 449.857 194.873 4049.012 0.283 -0.550 0.428 -0.02 -0.56 0.83 0.04
1 8.06 806 -0.230 -8.615 3.271 -11.047 -22.675 3.143 404.886 269.974 3929.090 0.364 -0.470 0.403 -0.02 -0.56 0.83 0.04
1 8.07 807 -0.225 -8.605 3.170 -11.322 -21.515 2.625 404.886 269.974 3929.090 0.366 -0.486 0.487 -0.02 -0.56 0.83 0.04
1 8.08 808 -0.278 -8.964 2.988 -15.472 -20.599 1.404 464.847 179.883 3989.051 0.426 -0.134 0.650 -0.02 -0.56 0.83 0.04
1 8.09 809 -0.417 -8.998 3.093 -15.289 -20.722 0.397 419.876 404.886 4019.032 0.574 -0.110 0.520 -0.02 -0.56 0.83 0.04
1 8.10 810 -0.306 -9.031 3.050 -13.916 -20.691 -0.031 419.876 404.886 4019.032 0.473 -0.087 0.537 -0.01 -0.56 0.83 0.04
1 8.11 811 -0.512 -8.969 2.955 -12.665 -23.346 -1.648 269.974 314.945 4079.143 0.698 -0.166 0.588 -0.01 -0.56 0.82 0.03
1 8.12 812 -0.527 -9.127 3.132 -15.656 -25.482 -1.434 554.938 344.925 3929.090 0.725 -0.017 0.389 -0.01 -0.57 0.82 0.03
1 8.13 813 -0.493 -9.036 3.079 -15.656 -26.459 -1.099 239.994 254.984 4169.084 0.704 -0.117 0.416 -0.01 -0.57 0.82 0.03
1 8.14 814 -0.541 -9.180 3.204 -14.740 -28.687 -2.258 239.994 254.984 4169.084 0.765 0.017 0.266 -0.01 -0.57 0.82 0.03
1 8.15 815 -0.450 -9.151 3.223 -14.526 -30.518 -1.770 299.955 314.945 4259.025 0.689 -0.020 0.223 -0.01 -0.57 0.82 0.03
1 8.16 816 -0.445 -9.117 3.208 -15.076 -35.889 -1.801 374.906 419.876 4109.123 0.699 -0.062 0.214 -0 -0.57 0.82 0.03
1 8.17 817 -0.292 -9.094 3.280 -14.191 -37.018 -1.007 374.906 419.876 4109.123 0.562 -0.094 0.119 -0 -0.57 0.82 0.03
1 8.18 818 -0.177 -9.266 3.395 -13.336 -40.253 0.488 449.857 314.945 4109.123 0.484 0.063 -0.040 0 -0.57 0.82 0.03
1 8.19 819 -0.354 -9.275 3.256 -13.733 -41.229 1.556 224.854 314.945 4079.143 0.678 0.066 0.078 0 -0.57 0.82 0.02
1 8.20 820 -0.297 -9.156 3.108 -15.015 -46.387 2.625 314.945 299.955 4244.035 0.635 -0.062 0.202 0.01 -0.58 0.82 0.02
1 8.21 821 -0.278 -9.386 2.868 -12.787 -50.324 3.662 314.945 299.955 4244.035 0.633 0.160 0.418 0.01 -0.58 0.82 0.02
1 8.22 822 -0.038 -9.247 2.691 -6.439 -54.993 3.632 284.964 329.935 4199.064 0.411 0.014 0.573 0.01 -0.58 0.82 0.02
1 8.23 823 0.273 -9.323 2.950 -4.334 -54.810 5.676 179.883 299.955 4094.133 0.120 0.086 0.300 0.01 -0.58 0.82 0.02
1 8.24 824 0.469 -9.323 2.921 -10.132 -50.537 7.538 179.883 299.955 4094.133 -0.056 0.083 0.316 0.02 -0.58 0.82 0.01
1 8.25 825 0.484 -9.395 2.864 -13.733 -44.586 8.392 209.863 374.906 4124.113 -0.054 0.149 0.355 0.02 -0.58 0.81 0.01
1 8.26 826 0.594 -9.457 2.854 -10.559 -37.201 9.460 179.883 299.955 4124.113 -0.142 0.195 0.316 0.02 -0.58 0.81 0.01
1 8.27 827 0.493 -9.414 2.844 -4.181 -34.607 8.637 134.912 404.886 4064.002 -0.033 0.147 0.308 0.02 -0.58 0.81 0.01
1 8.28 828 0.551 -9.132 2.744 -1.648 -34.454 7.538 134.912 404.886 4064.002 -0.084 -0.139 0.398 0.03 -0.58 0.81 0
1 8.29 829 0.551 -9.122 2.935 -2.075 -34.393 7.446 0.000 449.857 4094.133 -0.075 -0.150 0.200 0.03 -0.58 0.81 0
1 8.30 830 0.565 -9.122 3.036 -9.705 -30.853 7.385 14.990 419.876 4079.143 -0.082 -0.153 0.091 0.03 -0.58 0.81 0
1 8.31 831 0.603 -9.151 2.964 -13.977 -28.137 5.707 14.990 419.876 4079.143 -0.112 -0.129 0.147 -0.03 0.58 -0.81 0
1 8.32 832 0.570 -9.252 2.902 -12.146 -28.290 2.167 119.922 269.974 4289.006 -0.071 -0.035 0.189 -0.03 0.58 -0.81 0
1 8.33 833 0.804 -9.319 2.753 -8.606 -30.212 0.122 89.941 419.876 4109.123 -0.279 0.021 0.299 -0.03 0.59 -0.81 0
1 8.34 834 0.790 -9.386 2.773 -10.223 -32.684 -0.244 14.990 389.896 4184.074 -0.247 0.083 0.262 -0.04 0.59 -0.81 0
1 8.35 835 0.852 -9.582 2.950 -13.336 -32.684 -0.580 14.990 389.896 4184.074 -0.289 0.274 0.065 -0.04 0.59 -0.81 0
1 8.36 836 0.953 -9.730 3.103 -15.198 -30.975 0.000 0.000 554.938 4169.084 -0.371 0.416 -0.112 -0.04 0.59 -0.81 0
1 8.37 837 0.895 -10.042 2.983 -15.930 -26.550 4.272 -14.990 494.978 4154.094 -0.298 0.720 -0.018 -0.04 0.59 -0.81 0.01
1 8.38 838 1.044 -10.257 3.079 -11.536 -20.630 4.181 -14.990 494.978 4154.094 -0.437 0.928 -0.140 -0.04 0.59 -0.81 0.01
1 8.39 839 1.178 -10.209 3.007 -9.064 -17.365 2.563 -44.971 464.847 4184.074 -0.562 0.874 -0.089 -0.04 0.59 -0.81 0.01
1 8.40 840 1.288 -10.319 3.079 -9.369 -14.618 2.075 -29.980 524.958 4094.133 -0.657 0.976 -0.191 -0.04 0.59 -0.8 0.01
1 8.41 841 1.250 -10.358 3.084 -7.965 -12.939 -0.153 -14.990 389.896 4289.006 -0.611 1.010 -0.211 -0.05 0.59 -0.8 0.01
1 8.42 842 1.379 -10.453 3.089 -5.096 -11.322 -3.387 -14.990 389.896 4289.006 -0.731 1.103 -0.227 -0.05 0.59 -0.8 0.01
1 8.43 843 1.159 -10.310 3.108 -0.458 -10.071 -1.892 -224.854 419.876 4259.025 -0.498 0.958 -0.254 -0.05 0.59 -0.8 0.01
1 8.44 844 0.958 -10.181 2.868 3.265 -10.315 -1.434 -149.902 344.925 4394.087 -0.288 0.829 -0.015 -0.05 0.59 -0.8 0.01
1 8.45 845 0.771 -10.104 2.959 3.845 -12.329 -3.235 -149.902 344.925 4394.087 -0.090 0.754 -0.103 -0.05 0.59 -0.8 0.01
1 8.46 846 0.757 -10.113 3.089 3.754 -9.766 -2.563 -119.922 614.899 4184.074 -0.063 0.765 -0.230 -0.05 0.59 -0.8 0.01
1 8.47 847 0.713 -10.037 3.156 3.967 -5.981 -1.099 -119.922 614.899 4184.074 -0.009 0.691 -0.293 -0.05 0.59 -0.8 0.01
1 8.48 848 0.350 -10.094 3.055 4.700 -4.944 -1.007 -14.990 494.978 4364.107 0.365 0.752 -0.182 -0.05 0.59 -0.8 0
1 8.49 849 0.407 -10.113 3.026 7.172 -5.646 0.610 -14.990 494.978 4364.107 0.310 0.774 -0.147 -0.05 0.59 -0.8 0
1 8.50 850 0.383 -10.109 3.046 10.407 -8.789 1.373 -179.883 554.938 4304.146 0.335 0.772 -0.157 -0.05 0.59 -0.8 0
1 8.51 851 0.464 -9.821 3.084 14.008 -10.101 2.716 -134.912 554.938 4244.035 0.255 0.489 -0.180 -0.05 0.59 -0.81 0
1 8.52 852 0.709 -9.606 3.218 14.618 -8.881 5.615 -134.912 554.938 4244.035 0.011 0.280 -0.294 -0.05 0.59 -0.81 0
1 8.53 853 0.848 -9.414 3.175 11.261 -4.150 5.951 -179.883 449.857 4199.064 -0.130 0.095 -0.231 -0.05 0.59 -0.81 0
1 8.54 854 0.943 -9.510 3.170 8.179 0.031 5.585 -179.883 449.857 4199.064 -0.230 0.196 -0.208 -0.05 0.59 -0.81 0
1 8.55 855 0.967 -9.668 3.026 11.505 3.723 4.669 -194.873 494.978 4109.123 -0.264 0.362 -0.037 -0.05 0.59 -0.81 0
1 8.56 856 1.001 -9.477 2.878 15.442 5.371 6.012 -194.873 494.978 4109.123 -0.303 0.176 0.130 -0.05 0.59 -0.81 0
1 8.57 857 0.934 -9.386 2.787 17.670 6.226 6.195 -224.854 539.948 4079.143 -0.243 0.091 0.243 -0.05 0.59 -0.81 0
1 8.58 858 0.752 -9.242 2.835 18.585 7.599 6.378 -329.935 314.945 4004.042 -0.069 -0.045 0.220 -0.05 0.58 -0.81 0
1 8.59 859 0.752 -9.175 2.907 14.496 9.705 6.592 -329.935 314.945 4004.042 -0.080 -0.105 0.172 -0.04 0.58 -0.81 0
1 8.60 860 0.397 -9.314 3.002 10.345 11.505 4.120 0.000 404.886 4199.064 0.263 0.040 0.095 -0.04 0.58 -0.81 0
1 8.61 861 0.306 -9.496 2.931 13.763 10.956 3.815 0.000 404.886 4199.064 0.344 0.226 0.183 -0.04 0.58 -0.81 0
1 8.62 862 0.330 -9.524 2.739 17.975 7.599 3.296 -29.980 404.886 4094.133 0.300 0.267 0.414 -0.04 0.58 -0.81 0
1 8.63 863 0.215 -9.424 2.744 16.968 4.364 3.448 -29.980 404.886 4094.133 0.406 0.174 0.432 0.04 -0.58 0.81 0
1 8.64 864 0.302 -9.290 2.888 14.984 2.716 2.655 -104.932 449.857 4124.113 0.313 0.046 0.309 0.04 -0.58 0.81 0
1 8.65 865 0.378 -9.204 3.026 13.947 3.296 2.899 -89.941 419.876 4079.143 0.230 -0.034 0.189 0.04 -0.58 0.81 0
1 8.66 866 0.436 -9.501 2.840 13.825 3.326 3.113 -89.941 419.876 4079.143 0.168 0.269 0.394 0.04 -0.58 0.82 0
1 8.67 867 0.675 -9.524 2.849 17.426 4.730 2.441 -104.932 254.984 4169.084 -0.078 0.299 0.402 0.04 -0.58 0.82 0
1 8.68 868 0.728 -9.515 2.897 19.714 4.822 0.488 -104.932 254.984 4169.084 -0.136 0.296 0.375 0.04 -0.58 0.82 0
1 8.69 869 0.709 -9.414 2.840 22.492 4.150 0.610 -134.912 449.857 4124.113 -0.118 0.214 0.483 0.03 -0.57 0.82 0
1 8.70 870 0.895 -9.247 2.878 21.118 5.890 2.472 -134.912 449.857 4124.113 -0.305 0.056 0.472 0.03 -0.57 0.82 0
1 8.71 871 0.939 -9.362 2.931 18.341 10.529 4.883 14.990 119.922 4049.012 -0.351 0.180 0.446 0.03 -0.57 0.82 0
1 8.72 872 0.781 -9.481 2.825 15.991 15.717 6.531 -224.854 389.896 4259.025 -0.202 0.308 0.573 0.03 -0.57 0.82 0
1 8.73 873 0.613 -9.371 2.734 15.228 18.555 6.928 -224.854 389.896 4259.025 -0.049 0.204 0.683 0.03 -0.57 0.82 0.01
1 8.74 874 0.560 -9.395 2.562 17.487 18.585 4.578 -104.932 299.955 4094.133 -0.013 0.234 0.874 0.03 -0.57 0.82 0.01
1 8.75 875 0.536 -9.309 2.543 17.883 17.059 4.517 -104.932 299.955 4094.133 -0.003 0.154 0.912 0.03 -0.57 0.82 0.01
1 8.76 876 0.445 -9.223 2.567 17.456 14.923 3.876 -134.912 329.935 4019.032 0.062 0.081 0.929 0.03 -0.57 0.82 0.01
1 8.77 877 0.455 -9.184 2.605 17.487 14.618 3.815 -134.912 329.935 4019.032 0.041 0.050 0.910 0.02 -0.57 0.82 0.01
1 8.78 878 0.436 -9.079 2.715 15.564 15.259 2.869 -14.990 269.974 4004.042 0.049 -0.049 0.818 0.02 -0.56 0.82 0.01
1 8.79 879 0.426 -9.084 2.634 13.763 15.411 2.289 14.990 164.893 4049.012 0.048 -0.038 0.916 0.02 -0.56 0.83 0.01
1 8.80 880 0.273 -9.328 2.773 13.214 14.404 2.502 14.990 164.893 4049.012 0.191 0.211 0.791 0.02 -0.56 0.83 0.01
1 8.81 881 0.230 -9.410 2.725 10.712 9.766 3.601 179.883 254.984 4019.032 0.223 0.297 0.852 0.02 -0.56 0.83 0.01
1 8.82 882 0.172 -9.309 2.820 10.864 6.409 3.113 179.883 254.984 4019.032 0.270 0.200 0.766 0.02 -0.56 0.83 0.01
1 8.83 883 0.340 -9.343 2.983 10.773 5.524 2.747 -14.990 314.945 4109.123 0.094 0.237 0.613 0.02 -0.56 0.83 0.01
1 8.84 884 0.479 -9.457 3.084 10.864 6.958 4.150 59.961 179.883 3959.071 -0.058 0.359 0.533 0.02 -0.56 0.83 0.01
1 8.85 885 0.464 -9.376 3.079 12.054 9.033 5.859 89.941 314.945 4004.042 -0.052 0.282 0.549 0.02 -0.56 0.83 0.01
1 8.86 886 0.503 -9.170 3.031 13.184 10.376 5.005 -134.912 374.906 3989.051 -0.101 0.081 0.611 0.02 -0.56 0.83 0.01
1 8.87 887 0.350 -9.223 3.108 15.564 11.871 5.798 -134.912 374.906 3989.051 0.041 0.139 0.549 0.01 -0.56 0.83 0.01
1 8.88 888 0.374 -9.079 3.194 15.045 13.641 5.981 -119.922 194.873 3899.110 0.004 0.003 0.482 0.01 -0.56 0.83 0.01
1 8.89 889 0.421 -9.017 3.419 13.886 13.489 5.829 -119.922 194.873 3899.110 -0.057 -0.053 0.275 0.01 -0.56 0.83 0.01
1 8.90 890 0.551 -8.950 3.529 12.634 11.871 4.944 0.000 74.951 3989.051 -0.200 -0.114 0.182 0.01 -0.56 0.83 0.02
1 8.91 891 0.694 -8.955 3.869 10.651 13.275 3.052 14.990 314.945 4049.012 -0.365 -0.096 -0.126 0.01 -0.56 0.83 0.02
1 8.92 892 0.694 -9.074 3.879 6.317 15.595 2.441 44.971 239.994 4004.042 -0.371 0.029 -0.121 0.01 -0.56 0.83 0.02
1 8.93 893 0.555 -8.935 3.879 1.984 15.839 1.251 89.941 89.941 3899.110 -0.240 -0.106 -0.112 0.01 -0.55 0.83 0.02
1 8.94 894 0.316 -9.070 3.816 -0.854 14.893 -2.686 89.941 89.941 3899.110 -0.006 0.029 -0.046 0.01 -0.55 0.83 0.02
1 8.95 895 0.086 -9.424 3.730 -5.768 12.177 -7.111 -29.980 149.902 3989.051 0.224 0.383 0.038 0.01 -0.55 0.83 0.02
1 8.96 896 0.101 -9.860 3.802 -6.714 5.157 -15.839 -29.980 149.902 3989.051 0.215 0.815 -0.043 0.01 -0.56 0.83 0.02
1 8.97 897 0.053 -10.228 4.089 -1.740 2.167 -21.179 59.961 74.951 3959.071 0.279 1.179 -0.342 0.01 -0.56 0.83 0.02
1 8.98 898 0.067 -10.018 4.434 7.599 -4.822 -21.668 134.912 299.955 3989.051 0.322 0.971 -0.687 0.01 -0.56 0.83 0.02
1 8.99 899 -0.153 -9.826 4.429 10.132 -6.561 -22.949 104.932 254.984 3989.051 0.578 0.786 -0.671 0.01 -0.56 0.83 0.03
1 9.00 900 -0.101 -9.180 4.473 14.740 -10.315 -23.316 -14.990 44.971 4049.012 0.560 0.149 -0.694 0.01 -0.55 0.83 0.03
1 9.01 901 -0.029 -8.878 4.358 15.228 -12.543 -23.102 -14.990 44.971 4049.012 0.524 -0.141 -0.555 0.01 -0.55 0.83 0.03
1 9.02 902 0.230 -8.457 4.334 14.221 -15.778 -25.116 -14.990 119.922 3899.110 0.303 -0.550 -0.508 0.01 -0.55 0.83 0.03
1 9.03 903 0.450 -8.323 4.645 12.421 -20.508 -26.856 -14.990 119.922 3899.110 0.127 -0.672 -0.797 0.02 -0.55 0.83 0.03
1 9.04 904 0.656 -8.011 4.698 14.801 -20.783 -25.024 59.961 224.854 3914.100 -0.030 -0.971 -0.828 0.02 -0.55 0.83 0.03
1 9.05 905 0.713 -7.705 4.731 15.564 -21.515 -23.041 -44.971 89.941 4004.042 -0.039 -1.263 -0.837 0.02 -0.55 0.84 0.03
1 9.06 906 1.250 -7.695 4.468 19.562 -18.951 -18.219 -29.980 224.854 3839.149 -0.484 -1.241 -0.517 0.03 -0.55 0.84 0.03
1 9.07 907 1.532 -7.609 4.243 19.318 -15.076 -13.947 -59.961 104.932 3884.120 -0.726 -1.309 -0.261 0.03 -0.54 0.84 0.03
1 9.08 908 1.872 -7.576 4.156 19.013 -9.308 -11.047 -59.961 104.932 3884.120 -1.032 -1.326 -0.144 0.03 -0.54 0.84 0.03
1 9.09 909 2.011 -7.777 3.994 15.259 -2.808 -9.430 -59.961 104.932 3959.071 -1.142 -1.109 0.047 0.03 -0.54 0.84 0.04
1 9.10 910 2.509 -8.016 4.046 10.437 2.411 -6.744 -59.961 104.932 3959.071 -1.617 -0.858 0.016 0.03 -0.54 0.84 0.04
1 9.11 911 2.868 -8.581 4.224 6.409 5.310 -3.876 -179.883 0.000 3989.051 -1.955 -0.284 -0.146 0.03 -0.54 0.84 0.04
1 9.12 912 3.208 -8.892 4.506 10.986 4.211 -4.517 -104.932 149.902 4019.032 -2.277 0.035 -0.417 0.03 -0.54 0.84 0.04
1 9.13 913 3.247 -8.835 4.736 18.921 2.136 -6.531 -104.932 149.902 3839.149 -2.273 -0.000 -0.609 0.03 -0.54 0.84 0.04
1 9.14 914 2.864 -8.730 4.813 18.005 1.587 -11.780 -59.961 74.951 3809.019 -1.862 -0.089 -0.657 0.03 -0.54 0.84 0.04
1 9.15 915 2.471 -8.481 4.554 14.526 3.540 -19.135 -59.961 74.951 3809.019 -1.437 -0.322 -0.372 0.04 -0.53 0.84 0.04
1 9.16 916 2.107 -8.639 4.276 11.932 3.967 -24.323 -134.912 74.951 3989.051 -1.034 -0.149 -0.072 0.04 -0.53 0.84 0.04
1 9.17 917 1.738 -8.782 4.180 6.958 0.336 -27.374 -134.912 74.951 3989.051 -0.625 0.008 0.039 0.04 -0.53 0.84 0.05
1 9.18 918 1.729 -8.979 3.955 5.157 -7.507 -28.259 -89.941 44.971 3869.129 -0.570 0.213 0.272 0.04 -0.53 0.84 0.05
1 9.19 919 1.571 -9.189 4.133 6.866 -10.376 -28.076 -89.941 14.990 3869.129 -0.365 0.432 0.098 0.04 -0.53 0.84 0.05
1 9.20 920 1.772 -9.156 4.185 10.407 -6.104 -24.933 -119.922 -89.941 3764.048 -0.472 0.418 0.057 0.04 -0.53 0.84 0.05
1 9.21 921 1.623 -9.165 4.056 11.475 -0.916 -20.325 -59.961 -29.980 3884.120 -0.283 0.439 0.198 0.05 -0.53 0.84 0.05
1 9.22 922 1.729 -9.036 3.965 15.045 3.571 -16.632 -59.961 -29.980 3884.120 -0.359 0.321 0.303 0.05 -0.53 0.85 0.06
1 9.23 923 1.551 -8.782 3.879 16.480 7.477 -13.153 -209.863 0.000 3884.120 -0.160 0.080 0.409 0.05 -0.53 0.85 0.06
1 9.24 924 1.408 -8.883 3.860 17.639 10.010 -9.155 -209.863 0.000 3884.120 -0.002 0.194 0.449 0.05 -0.53 0.85 0.06
1 9.25 925 1.259 -8.500 3.807 16.663 12.299 -5.859 -224.854 -44.971 3929.090 0.153 -0.177 0.524 0.05 -0.53 0.85 0.06
1 9.26 926 1.121 -8.610 3.907 16.510 16.296 -1.129 -269.974 -14.990 3899.110 0.295 -0.056 0.445 0.05 -0.53 0.85 0.06
1 9.27 927 1.255 -8.581 3.855 15.808 20.416 3.723 -269.974 -14.990 3899.110 0.155 -0.074 0.520 0.05 -0.52 0.85 0.06
1 9.28 928 1.183 -8.505 3.821 13.214 25.604 10.315 -209.863 -74.951 3914.100 0.186 -0.135 0.597 0.04 -0.52 0.85 0.06
1 9.29 929 1.212 -8.385 3.773 12.024 28.137 13.428 -209.863 -74.951 3914.100 0.125 -0.250 0.665 0.04 -0.52 0.85 0.06
1 9.30 930 1.475 -8.193 3.606 11.444 29.144 14.099 -299.955 -119.922 3899.110 -0.174 -0.437 0.851 0.04 -0.52 0.85 0.06
1 9.31 931 1.633 -7.992 3.601 10.162 27.802 14.465 -299.955 -119.922 3899.110 -0.368 -0.635 0.872 0.04 -0.52 0.85 0.06
1 9.32 932 2.131 -7.868 3.567 7.599 25.238 13.886 -119.922 -14.990 3794.028 -0.898 -0.757 0.920 0.04 -0.52 0.85 0.06
1 9.33 933 2.710 -7.796 3.591 5.188 24.902 12.939 -194.873 -14.990 3899.110 -1.512 -0.826 0.911 0.03 -0.52 0.85 0.06
1 9.34 934 3.026 -7.609 3.510 2.899 26.825 12.939 -194.873 -14.990 3899.110 -1.851 -1.011 1.001 0.03 -0.52 0.85 0.06
1 9.35 935 3.520 -7.671 3.338 -3.967 39.002 15.900 -29.980 -149.902 3809.019 -2.389 -0.951 1.181 0.03 -0.52 0.85 0.06
1 9.36 936 3.314 -7.609 3.247 -13.123 54.657 18.951 -29.980 -149.902 3809.019 -2.214 -1.020 1.267 0.03 -0.52 0.85 0.06
1 9.37 937 3.132 -7.652 3.208 -21.118 71.320 18.219 -29.980 -29.980 3734.067 -2.078 -0.991 1.289 0.02 -0.52 0.85 0.07
1 9.38 938 2.773 -7.767 3.189 -26.337 84.564 14.099 -29.980 -29.980 3734.067 -1.773 -0.895 1.285 0.02 -0.52 0.85 0.07
1 9.39 939 2.198 -7.815 2.801 -25.482 91.461 12.054 -44.971 -119.922 3824.009 -1.267 -0.867 1.647 0.01 -0.52 0.85 0.07
1 9.40 940 1.350 -8.227 2.782 -19.135 86.060 9.308 29.980 -104.932 3809.019 -0.496 -0.474 1.646 0.01 -0.52 0.85 0.07
1 9.41 941 1.068 -8.801 2.643 -16.876 72.907 8.301 29.980 -104.932 3809.019 -0.281 0.084 1.765 0 -0.52 0.85 0.08
1 9.42 942 0.948 -8.883 2.782 -10.834 49.652 12.024 329.935 -14.990 3899.110 -0.270 0.136 1.584 -0.01 -0.53 0.85 0.08
1 9.43 943 1.259 -9.031 4.262 -8.087 32.715 7.690 329.935 -14.990 3899.110 -0.621 0.272 0.086 -0.01 -0.53 0.85 0.08
1 9.44 944 1.494 -9.783 6.599 -18.066 21.515 4.089 194.873 -119.922 3899.110 -0.878 1.015 -2.265 -0.01 -0.53 0.85 0.08
1 9.45 945 1.192 -10.468 7.887 -39.795 16.754 -6.348 194.873 -119.922 3899.110 -0.591 1.684 -3.583 -0.01 -0.53 0.84 0.08
1 9.46 946 0.924 -11.670 6.484 -50.354 20.233 -19.440 389.896 0.000 3809.019 -0.318 2.858 -2.238 -0.02 -0.53 0.84 0.08
1 9.47 947 -0.565 -11.478 3.970 5.951 44.281 -23.254 419.876 -29.980 3884.120 1.188 2.640 0.218 -0.02 -0.53 0.84 0.08
1 9.48 948 -2.121 -10.123 3.936 13.275 63.385 -9.308 419.876 -29.980 3884.120 2.754 1.285 0.249 -0.02 -0.53 0.84 0.09
1 9.49 949 -3.204 -9.103 4.338 -30.792 75.531 9.094 284.964 29.980 4019.032 3.759 0.269 -0.132 -0.03 -0.53 0.84 0.09
1 9.50 950 -3.156 -9.333 4.338 -42.053 73.212 14.648 284.964 29.980 4019.032 3.621 0.474 -0.175 -0.03 -0.54 0.84 0.09
1 9.51 951 -2.361 -9.496 3.989 -26.917 45.715 14.923 449.857 14.990 3974.061 2.752 0.609 0.123 -0.04 -0.54 0.84 0.09
1 9.52 952 -1.336 -9.275 3.716 1.495 18.616 11.383 449.857 14.990 3974.061 1.664 0.374 0.369 -0.04 -0.54 0.84 0.09
1 9.53 953 -0.091 -9.079 3.759 29.053 -5.768 7.294 479.987 44.971 3899.110 0.384 0.181 0.336 -0.04 -0.54 0.84 0.09
1 9.54 954 1.585 -8.246 4.573 54.047 -24.139 2.502 539.948 224.854 3959.071 -1.297 -0.633 -0.436 -0.04 -0.54 0.84 0.09
1 9.55 955 2.423 -7.283 5.397 52.246 -17.975 6.866 539.948 224.854 3959.071 -2.119 -1.563 -1.191 -0.04 -0.53 0.84 0.09
1 9.56 956 2.729 -6.311 5.560 19.348 4.700 5.615 314.945 -74.951 3884.120 -2.394 -2.466 -1.214 -0.03 -0.53 0.84 0.09
1 9.57 957 2.528 -6.216 5.354 5.646 11.993 1.007 314.945 -74.951 3884.120 -2.183 -2.546 -0.977 -0.03 -0.52 0.85 0.09
1 9.58 958 1.523 -7.054 4.405 -24.628 29.083 -14.862 464.847 29.980 3839.149 -1.179 -1.716 -0.045 -0.03 -0.53 0.85 0.09
1 9.59 959 0.464 -8.619 3.860 -30.121 27.618 -16.571 464.847 29.980 3839.149 -0.118 -0.167 0.466 -0.04 -0.53 0.84 0.09
1 9.60 960 -0.335 -9.946 3.639 -22.339 13.825 -20.050 404.886 -89.941 3929.090 0.693 1.141 0.649 -0.04 -0.53 0.84 0.09
1 9.61 961 -0.867 -10.291 3.960 2.838 -12.390 -24.689 479.987 164.893 4004.042 1.244 1.472 0.297 -0.04 -0.53 0.84 0.09
1 9.62 962 -0.733 -9.793 4.243 17.761 -21.576 -20.905 479.987 164.893 4004.042 1.150 0.974 0.012 -0.03 -0.53 0.84 0.09
1 9.63 963 -0.752 -9.299 4.458 18.127 -23.895 -15.045 449.857 89.941 4049.012 1.214 0.492 -0.186 -0.03 -0.53 0.84 0.09
1 9.64 964 -0.417 -9.213 4.712 -3.632 -17.609 -1.221 359.916 29.980 3959.071 0.927 0.423 -0.410 -0.03 -0.53 0.84 0.09
1 9.65 965 -0.479 -9.041 4.688 -6.042 -8.545 -0.061 449.857 164.893 3974.061 0.996 0.247 -0.393 -0.03 -0.53 0.84 0.09
1 9.66 966 -0.833 -8.821 4.492 -3.082 -5.402 1.282 449.857 164.893 3974.061 1.349 0.024 -0.202 -0.03 -0.53 0.84 0.09
1 9.67 967 -0.862 -8.773 4.367 -1.343 -8.118 4.120 359.916 0.000 4064.002 1.370 -0.026 -0.081 -0.03 -0.53 0.84 0.09
1 9.68 968 -0.369 -8.442 4.267 2.106 -18.707 8.637 419.876 29.980 3989.051 0.868 -0.357 0.018 -0.03 -0.53 0.84 0.09
1 9.69 969 0.014 -8.342 4.228 3.906 -24.414 8.728 419.876 29.980 3989.051 0.479 -0.458 0.056 -0.02 -0.53 0.84 0.09
1 9.70 970 0.460 -8.006 4.554 3.601 -26.611 10.956 449.857 -14.990 3929.090 0.033 -0.792 -0.265 -0.02 -0.53 0.84 0.08
1 9.71 971 1.063 -8.342 4.506 -4.364 -23.468 10.437 464.847 179.883 3884.120 -0.564 -0.453 -0.211 -0.02 -0.53 0.84 0.08
1 9.72 972 1.207 -8.481 4.520 -10.559 -18.219 7.874 329.935 14.990 3794.028 -0.700 -0.317 -0.233 -0.02 -0.53 0.84 0.08
1 9.73 973 1.216 -8.572 4.535 -11.841 -13.214 5.920 329.935 14.990 3794.028 -0.702 -0.233 -0.261 -0.02 -0.53 0.84 0.08
1 9.74 974 1.259 -8.921 4.434 -10.773 -9.247 6.226 479.987 -44.971 3929.090 -0.738 0.110 -0.175 -0.02 -0.53 0.84 0.08
1 9.75 975 1.288 -9.223 4.477 -8.209 -7.324 7.965 374.906 14.990 3869.129 -0.763 0.406 -0.232 -0.02 -0.53 0.84 0.08
1 9.76 976 1.097 -9.070 4.587 -5.432 -4.791 8.118 374.906 14.990 3869.129 -0.571 0.248 -0.352 -0.02 -0.53 0.84 0.08
1 9.77 977 0.867 -8.926 4.621 -3.998 -0.549 6.256 374.906 44.971 4004.042 -0.342 0.100 -0.393 -0.02 -0.53 0.84 0.07
1 9.78 978 0.733 -8.686 4.439 -4.242 3.082 5.493 359.916 29.980 3914.100 -0.210 -0.142 -0.217 -0.02 -0.53 0.84 0.07
1 9.79 979 0.163 -8.868 4.578 -10.468 4.761 1.495 299.955 14.990 4004.042 0.349 0.035 -0.365 -0.02 -0.53 0.84 0.07
1 9.80 980 -0.139 -8.892 4.516 -12.451 3.235 2.625 299.955 14.990 4004.042 0.645 0.052 -0.316 -0.02 -0.53 0.84 0.07
1 9.81 981 -0.455 -8.859 4.492 -9.125 0.092 3.479 389.896 224.854 3839.149 0.953 0.012 -0.306 -0.02 -0.53 0.84 0.07
1 9.82 982 -0.512 -8.710 4.473 -4.547 -4.883 4.181 389.896 104.932 4064.002 1.001 -0.141 -0.295 -0.02 -0.54 0.84 0.07
1 9.83 983 -0.273 -8.227 4.506 0.458 -13.001 4.669 389.896 104.932 4064.002 0.754 -0.626 -0.331 -0.02 -0.54 0.84 0.07
1 9.84 984 0.081 -8.112 4.583 -1.160 -16.632 6.226 389.896 29.980 3959.071 0.396 -0.740 -0.405 -0.02 -0.54 0.84 0.07
1 9.85 985 0.388 -8.016 4.602 -6.256 -17.883 5.920 314.945 74.951 3989.051 0.089 -0.835 -0.421 -0.01 -0.54 0.84 0.07
1 9.86 986 0.757 -8.030 4.367 -11.383 -17.792 5.219 404.886 89.941 4109.123 -0.272 -0.826 -0.199 -0.01 -0.54 0.84 0.07
1 9.87 987 0.963 -8.160 4.358 -11.932 -16.602 6.226 404.886 89.941 4109.123 -0.470 -0.702 -0.203 -0.01 -0.54 0.84 0.07
1 9.88 988 1.058 -8.299 4.420 -14.160 -12.695 9.369 299.955 89.941 3899.110 -0.561 -0.570 -0.280 -0.01 -0.54 0.84 0.06
1 9.89 989 1.006 -8.284 4.391 -18.555 -7.904 10.407 329.935 194.873 3974.061 -0.509 -0.593 -0.269 -0.01 -0.54 0.84 0.06
1 9.90 990 1.049 -8.241 4.434 -24.262 -2.075 10.498 329.935 194.873 3974.061 -0.556 -0.647 -0.336 -0.01 -0.54 0.84 0.06
1 9.91 991 0.785 -8.600 4.267 -27.954 6.042 4.700 374.906 14.990 3974.061 -0.298 -0.302 -0.199 -0.01 -0.54 0.84 0.06
1 9.92 992 0.517 -8.864 4.286 -24.017 9.705 1.312 329.935 44.971 4109.123 -0.035 -0.055 -0.253 -0.01 -0.54 0.84 0.06
1 9.93 993 0.081 -8.969 4.238 -14.435 9.857 0.427 479.987 239.994 4109.123 0.392 0.025 -0.259 -0.01 -0.54 0.84 0.06
1 9.94 994 -0.302 -8.792 4.291 -11.505 8.362 -0.366 479.987 239.994 4109.123 0.768 -0.159 -0.328 -0.01 -0.55 0.84 0.06
1 9.95 995 -0.517 -8.720 4.243 -12.177 3.876 0.275 374.906 119.922 3974.061 0.976 -0.237 -0.293 -0.01 -0.55 0.84 0.06
1 9.96 996 -0.579 -8.639 4.291 -14.771 0.061 -0.275 374.906 164.893 4109.123 1.031 -0.325 -0.355 -0.01 -0.55 0.83 0.06
1 9.97 997 -0.766 -8.591 3.989 -19.867 -2.197 -0.488 374.906 164.893 4109.123 1.213 -0.381 -0.072 -0.01 -0.55 0.83 0.06
1 9.98 998 -0.651 -8.706 3.903 -21.454 -7.965 -0.031 329.935 164.893 4004.042 1.094 -0.278 -0.012 -0.01 -0.55 0.83 0.06
1 9.99 999 -0.460 -8.830 3.773 -19.104 -10.620 -0.336 554.938 239.994 3974.061 0.900 -0.166 0.090 -0.01 -0.55 0.83 0.06
1 10.00 1000 -0.455 -8.988 3.759 -18.036 -13.733 1.709 374.906 269.974 4079.143 0.897 -0.030 0.051 -0.01 -0.55 0.83 0.06
1 10.01 1001 -0.048 -9.026 3.764 -17.212 -13.947 3.906 374.906 269.974 4079.143 0.489 -0.002 0.021 -0.01 -0.55 0.83 0.06
1 10.02 1002 -0.081 -9.170 3.927 -17.242 -12.939 7.813 239.994 224.854 4064.002 0.521 0.131 -0.167 -0.01 -0.55 0.83 0.06
1 10.03 1003 0.125 -9.199 3.941 -16.327 -9.979 10.895 314.945 299.955 4064.002 0.308 0.149 -0.205 -0.01 -0.56 0.83 0.06
1 10.04 1004 0.153 -8.969 3.888 -15.106 -5.890 12.909 314.945 299.955 4064.002 0.267 -0.090 -0.174 -0.01 -0.56 0.83 0.06
1 10.05 1005 0.086 -9.146 3.745 -16.724 0.000 12.604 284.964 224.854 4244.035 0.318 0.078 -0.050 -0.01 -0.56 0.83 0.05
1 10.06 1006 0.101 -9.165 3.740 -17.334 4.089 12.482 299.955 269.974 4154.094 0.286 0.088 -0.067 -0.01 -0.56 0.83 0.05
1 10.07 1007 -0.239 -8.979 3.563 -18.250 4.974 13.031 299.955 269.974 4154.094 0.606 -0.109 0.086 -0.01 -0.56 0.83 0.05
1 10.08 1008 -0.148 -9.194 3.567 -21.149 2.380 12.939 329.935 239.994 4154.094 0.470 0.084 0.030 -0.02 -0.56 0.83 0.05
1 10.09 1009 -0.158 -9.271 3.433 -20.966 -0.580 12.329 299.955 389.896 4154.094 0.459 0.148 0.134 -0.02 -0.56 0.82 0.05
1 10.10 1010 -0.148 -9.232 3.386 -18.585 -4.791 11.017 374.906 314.945 4109.123 0.433 0.098 0.152 -0.02 -0.57 0.82 0.05
1 10.11 1011 -0.043 -9.137 3.280 -14.008 -8.484 9.888 374.906 314.945 4109.123 0.315 -0.009 0.231 -0.02 -0.57 0.82 0.05
1 10.12 1012 0.249 -9.098 3.338 -9.827 -11.139 6.226 359.916 299.955 4064.002 0.014 -0.055 0.154 -0.02 -0.57 0.82 0.05
1 10.13 1013 0.268 -8.988 3.261 -7.904 -10.712 3.540 389.896 224.854 4124.113 -0.008 -0.171 0.215 -0.02 -0.57 0.82 0.05
1 10.14 1014 0.254 -8.940 3.232 -6.805 -8.911 1.312 389.896 224.854 4124.113 0.009 -0.224 0.231 -0.02 -0.57 0.82 0.05
1 10.15 1015 0.034 -9.060 3.218 -6.958 -9.491 -0.031 284.964 299.955 4169.084 0.240 -0.112 0.223 -0.01 -0.57 0.82 0.04
1 10.16 1016 -0.230 -9.151 3.266 -7.874 -11.841 0.061 479.987 419.876 4214.055 0.509 -0.025 0.164 -0.01 -0.57 0.82 0.04
1 10.17 1017 -0.378 -9.271 3.251 -7.507 -15.411 -1.099 314.945 449.857 4169.084 0.664 0.090 0.166 -0.01 -0.57 0.82 0.04
1 10.18 1018 -0.335 -9.189 3.275 -7.446 -18.372 -2.258 314.945 449.857 4169.084 0.628 0.004 0.129 -0.01 -0.57 0.82 0.04
1 10.19 1019 -0.354 -9.228 3.338 -5.768 -21.515 -3.418 314.945 329.935 4064.002 0.658 0.039 0.055 -0.01 -0.57 0.82 0.04
1 10.20 1020 -0.268 -9.122 3.362 -3.662 -23.254 -4.486 374.906 419.876 4184.074 0.585 -0.070 0.022 -0.01 -0.57 0.82 0.04
1 10.21 1021 -0.139 -9.065 3.472 -4.669 -22.919 -3.815 374.906 419.876 4184.074 0.470 -0.129 -0.096 -0.01 -0.57 0.82 0.04
1 10.22 1022 0.105 -9.161 3.256 -8.881 -21.820 -0.641 359.916 404.886 4169.084 0.256 -0.039 0.103 -0.01 -0.57 0.82 0.04
1 10.23 1023 0.153 -9.194 3.309 -9.033 -21.668 -0.031 314.945 449.857 4274.016 0.219 -0.010 0.036 -0 -0.57 0.82 0.04
1 10.24 1024 -0.029 -9.204 3.151 -7.568 -20.203 0.153 329.935 494.978 4184.074 0.411 -0.005 0.180 -0 -0.57 0.82 0.04
1 10.25 1025 -0.034 -9.261 3.069 -6.531 -18.768 0.763 329.935 494.978 4184.074 0.425 0.048 0.249 -0 -0.58 0.82 0.04
1 10.26 1026 -0.120 -9.323 3.122 -6.805 -17.853 3.357 284.964 479.987 4244.035 0.518 0.107 0.185 -0 -0.58 0.82 0.04
1 10.27 1027 -0.364 -9.304 3.031 -9.399 -19.135 5.798 269.974 419.876 3929.090 0.764 0.083 0.263 -0 -0.58 0.82 0.04
1 10.28 1028 -0.230 -9.122 2.988 -7.874 -21.698 6.256 269.974 419.876 3929.090 0.628 -0.104 0.292 0 -0.58 0.82 0.03
1 10.29 1029 -0.278 -9.137 2.830 -6.317 -24.506 6.500 209.863 374.906 4304.146 0.674 -0.099 0.423 0 -0.58 0.82 0.03
1 10.30 1030 -0.110 -9.156 2.888 -6.042 -25.787 6.378 149.902 419.876 4079.143 0.507 -0.085 0.353 0 -0.58 0.82 0.03
1 10.31 1031 -0.196 -9.084 2.955 -4.913 -27.741 6.653 194.873 494.978 4184.074 0.596 -0.160 0.274 0 -0.58 0.81 0.03
1 10.32 1032 0.163 -9.036 2.911 -4.425 -28.504 6.836 194.873 494.978 4184.074 0.239 -0.212 0.307 0.01 -0.58 0.81 0.03
1 10.33 1033 0.196 -9.007 2.892 -6.989 -27.039 7.660 209.863 449.857 4274.016 0.209 -0.244 0.316 0.01 -0.58 0.81 0.03
1 10.34 1034 0.239 -9.065 2.835 -11.963 -25.848 6.256 59.961 404.886 4199.064 0.168 -0.191 0.359 0.01 -0.58 0.81 0.02
1 10.35 1035 0.354 -9.041 2.777 -13.672 -26.489 5.157 59.961 404.886 4199.064 0.057 -0.221 0.398 0.01 -0.58 0.81 0.02
1 10.36 1036 0.235 -9.146 2.758 -11.200 -28.717 4.211 269.974 344.925 4214.055 0.192 -0.130 0.374 0.01 -0.58 0.81 0.02
1 10.37 1037 0.330 -9.161 2.940 -11.108 -28.381 3.723 239.994 329.935 4304.146 0.105 -0.122 0.172 0.01 -0.58 0.81 0.02
