COL1	TIME	ACC_X	ACC_Y	ACC_Z	GYR_X	GYR_Y	GYR_Z	MAG_X	MAG_Y	MAG_Z	LACC_X	LACC_Y	LACC_Z	QUAT_X	QUAT_Y	QUAT_Z	QUAT_W
1 0.00 0 -0.326 -9.501 2.734 5.890 -4.974 1.221 -59.961 -914.854 -3449.853 -0.056 0.059 -0.137 0.02 0.61 -0.8 0.01
1 0.01 1 -0.268 -9.443 2.725 5.646 -4.913 1.404 29.980 -749.961 -3404.882 -0.112 0.004 -0.116 0.02 0.61 -0.8 0.01
1 0.02 2 -0.287 -9.453 2.667 4.242 -4.059 0.885 59.961 -839.903 -3584.915 -0.089 0.019 -0.038 0.02 0.6 -0.8 0.01
1 0.03 3 -0.364 -9.457 2.715 3.571 -3.815 1.190 44.971 -854.893 -3464.993 -0.011 0.027 -0.077 0.02 0.6 -0.8 0.01
1 0.04 4 -0.182 -9.405 2.576 4.059 -3.906 1.678 44.971 -854.893 -3464.993 -0.192 -0.024 0.069 0.01 0.6 -0.8 0.01
1 0.05 5 -0.172 -9.410 2.749 4.395 -3.296 1.190 -104.932 -719.981 -3404.882 -0.200 -0.017 -0.096 0.01 0.6 -0.8 0.01
1 0.06 6 -0.239 -9.625 2.787 4.334 -2.777 1.221 0.000 -839.903 -3299.950 -0.131 0.201 -0.125 0.01 0.6 -0.8 0.01
1 0.07 7 -0.283 -9.520 2.619 3.876 -2.594 0.793 0.000 -839.903 -3299.950 -0.087 0.098 0.051 0.01 0.6 -0.8 0.01
1 0.08 8 -0.302 -9.611 2.792 4.028 -3.052 0.305 -59.961 -599.909 -3374.901 -0.066 0.191 -0.114 0.01 0.6 -0.8 0.01
1 0.09 9 -0.383 -9.563 2.725 4.608 -3.754 0.458 -14.990 -809.922 -3359.911 0.018 0.147 -0.033 0.01 0.6 -0.8 0.01
1 0.10 10 -0.421 -9.477 2.667 6.378 -3.265 0.336 44.971 -779.942 -3419.872 0.059 0.063 0.034 0.01 0.6 -0.8 0.01
1 0.11 11 -0.340 -9.505 2.729 7.965 -2.747 -0.244 44.971 -779.942 -3419.872 -0.021 0.095 -0.016 0.01 0.6 -0.8 0.01
1 0.12 12 -0.431 -9.376 2.715 7.568 -2.441 0.366 -29.980 -839.903 -3584.915 0.072 -0.030 0.011 0.01 0.6 -0.8 0.01
1 0.13 13 -0.488 -9.501 2.792 5.432 -2.594 0.336 -59.961 -839.903 -3479.983 0.131 0.098 -0.054 0.01 0.6 -0.8 0.01
1 0.14 14 -0.450 -9.501 2.878 2.930 -2.991 0.916 -59.961 -839.903 -3479.983 0.094 0.100 -0.131 0.01 0.6 -0.8 0.01
1 0.15 15 -0.503 -9.577 2.878 2.930 -3.082 0.732 -89.941 -779.942 -3464.993 0.148 0.179 -0.124 0.01 0.6 -0.8 0.01
1 0.16 16 -0.498 -9.592 2.816 6.683 -2.869 1.007 -59.961 -794.932 -3479.983 0.144 0.198 -0.046 0.01 0.6 -0.8 0.01
1 0.17 17 -0.469 -9.553 2.911 8.362 -2.502 1.282 -44.971 -959.975 -3464.993 0.115 0.163 -0.129 0.01 0.6 -0.8 0.01
1 0.18 18 -0.460 -9.505 2.873 9.613 -2.563 1.068 -44.971 -959.975 -3464.993 0.105 0.120 -0.075 0.01 0.6 -0.8 0.01
1 0.19 19 -0.431 -9.410 2.811 8.179 -2.808 1.495 -14.990 -854.893 -3359.911 0.076 0.029 0.002 0.01 0.6 -0.8 0.01
1 0.20 20 -0.503 -9.266 2.935 6.165 -3.082 0.671 -59.961 -839.903 -3509.963 0.148 -0.111 -0.109 0.01 0.6 -0.8 0.01
1 0.21 21 -0.532 -9.376 2.945 5.096 -3.448 0.916 -59.961 -839.903 -3509.963 0.177 0.003 -0.107 0.01 0.6 -0.8 0.01
1 0.22 22 -0.498 -9.366 2.883 5.646 -3.784 0.793 44.971 -809.922 -3494.973 0.144 -0.004 -0.036 0.01 0.6 -0.8 0.01
1 0.23 23 -0.517 -9.515 3.074 6.409 -4.334 1.190 -164.893 -809.922 -3389.892 0.163 0.148 -0.217 0.01 0.6 -0.8 0.01
1 0.24 24 -0.426 -9.448 2.878 7.172 -3.784 1.892 -59.961 -944.984 -3509.963 0.071 0.088 0.003 0.01 0.59 -0.8 0.02
1 0.25 25 -0.354 -9.548 2.969 8.301 -3.235 2.045 -59.961 -944.984 -3509.963 -0.001 0.192 -0.076 0.01 0.59 -0.8 0.02
1 0.26 26 -0.359 -9.558 2.955 8.606 -2.441 2.045 0.000 -869.883 -3479.983 0.004 0.206 -0.048 0.01 0.59 -0.81 0.02
1 0.27 27 -0.431 -9.520 2.950 8.179 -2.075 2.441 -44.971 -854.893 -3464.993 0.074 0.172 -0.029 0.01 0.59 -0.81 0.02
1 0.28 28 -0.484 -9.448 2.964 6.500 -3.021 2.075 -44.971 -854.893 -3464.993 0.125 0.104 -0.031 0.01 0.59 -0.81 0.02
1 0.29 29 -0.426 -9.414 3.108 6.409 -3.571 1.953 -59.961 -944.984 -3509.963 0.066 0.074 -0.163 0.01 0.59 -0.81 0.02
1 0.30 30 -0.302 -9.438 2.921 7.721 -3.754 1.587 29.980 -839.903 -3554.934 -0.059 0.102 0.035 0.01 0.59 -0.81 0.02
1 0.31 31 -0.354 -9.635 3.007 9.216 -3.082 1.495 29.980 -839.903 -3554.934 -0.006 0.302 -0.039 0.01 0.59 -0.81 0.02
1 0.32 32 -0.278 -9.410 3.170 8.301 -2.808 1.953 -59.961 -1094.887 -3479.983 -0.082 0.086 -0.172 0.01 0.59 -0.81 0.02
1 0.33 33 -0.397 -9.242 2.978 7.874 -2.808 1.587 59.961 -944.984 -3449.853 0.038 -0.077 0.032 0.01 0.59 -0.81 0.02
1 0.34 34 -0.527 -9.381 2.964 8.057 -3.326 1.129 -14.990 -1079.896 -3464.993 0.167 0.066 0.060 0.01 0.59 -0.81 0.02
1 0.35 35 -0.503 -9.314 2.950 7.477 -3.174 1.099 -14.990 -1079.896 -3464.993 0.143 0.003 0.087 0.01 0.59 -0.81 0.02
1 0.36 36 -0.417 -9.256 3.184 5.859 -3.174 1.190 -29.980 -914.854 -3479.983 0.057 -0.051 -0.136 0.01 0.59 -0.81 0.02
1 0.37 37 -0.455 -9.338 3.137 3.479 -3.662 1.099 14.990 -959.975 -3569.924 0.097 0.034 -0.077 0.01 0.59 -0.81 0.02
1 0.38 38 -0.421 -9.376 3.137 2.136 -4.181 1.678 14.990 -959.975 -3569.924 0.064 0.075 -0.069 0.01 0.59 -0.81 0.02
1 0.39 39 -0.283 -9.323 3.156 0.885 -3.876 1.617 -89.941 -734.971 -3494.973 -0.075 0.026 -0.079 0.01 0.59 -0.81 0.02
1 0.40 40 -0.441 -9.453 3.074 2.899 -2.838 2.258 14.990 -959.975 -3569.924 0.084 0.156 0.007 0.01 0.59 -0.81 0.02
1 0.41 41 -0.326 -9.290 3.156 4.272 -2.441 2.136 -14.990 -959.975 -3464.993 -0.032 -0.004 -0.068 0.01 0.59 -0.81 0.02
1 0.42 42 -0.421 -9.252 3.160 4.425 -1.678 2.014 -14.990 -959.975 -3464.993 0.063 -0.040 -0.064 0.01 0.58 -0.81 0.02
1 0.43 43 -0.488 -9.208 3.141 1.373 -1.770 2.045 -119.922 -959.975 -3494.973 0.129 -0.080 -0.037 0.01 0.58 -0.81 0.02
1 0.44 44 -0.417 -9.343 3.160 -1.007 -1.434 1.282 44.971 -1049.916 -3494.973 0.056 0.056 -0.051 0.01 0.58 -0.81 0.02
1 0.45 45 -0.479 -9.328 3.093 -1.953 -1.984 1.556 44.971 -1049.916 -3494.973 0.117 0.042 0.017 0.01 0.58 -0.81 0.02
1 0.46 46 -0.354 -9.271 3.227 -2.655 -3.876 1.953 -29.980 -944.984 -3734.967 -0.010 -0.016 -0.119 0.01 0.58 -0.81 0.02
1 0.47 47 -0.249 -9.343 3.247 -3.052 -3.632 2.167 -59.961 -989.955 -3629.885 -0.115 0.055 -0.139 0.01 0.58 -0.81 0.02
1 0.48 48 -0.359 -9.338 3.247 -3.113 -2.747 1.465 29.980 -989.955 -3509.963 -0.005 0.050 -0.141 0.01 0.58 -0.81 0.02
1 0.49 49 -0.292 -9.352 3.247 -2.594 -2.991 2.380 29.980 -989.955 -3509.963 -0.072 0.064 -0.142 0.01 0.58 -0.81 0.02
1 0.50 50 -0.287 -9.151 3.271 -1.404 -2.228 1.312 -119.922 -1004.945 -3464.993 -0.077 -0.137 -0.166 0.01 0.58 -0.81 0.02
1 0.51 51 -0.354 -9.050 3.328 -3.510 -2.106 1.038 -44.971 -959.975 -3644.875 -0.010 -0.237 -0.223 0.01 0.58 -0.81 0.02
1 0.52 52 -0.192 -9.098 3.266 -4.852 -1.831 0.885 -44.971 -959.975 -3644.875 -0.171 -0.190 -0.162 0.01 0.58 -0.81 0.02
1 0.53 53 -0.263 -9.151 3.342 -5.737 -1.709 0.031 -89.941 -884.874 -3539.944 -0.097 -0.140 -0.245 0.01 0.58 -0.81 0.02
1 0.54 54 -0.330 -9.357 3.328 -7.294 -1.862 0.671 -29.980 -914.854 -3479.983 -0.027 0.064 -0.236 0.01 0.58 -0.81 0.02
1 0.55 55 -0.378 -9.256 3.390 -8.484 -2.136 0.488 -119.922 -959.975 -3494.973 0.022 -0.039 -0.306 0.01 0.59 -0.81 0.02
1 0.56 56 -0.306 -9.204 3.318 -8.331 -1.801 -0.031 -119.922 -959.975 -3494.973 -0.049 -0.094 -0.242 0.01 0.59 -0.81 0.02
1 0.57 57 -0.345 -9.395 3.290 -6.989 -1.282 0.519 0.000 -989.955 -3509.963 -0.009 0.095 -0.221 0.01 0.59 -0.81 0.02
1 0.58 58 -0.508 -9.299 3.280 -4.364 -2.716 0.885 -89.941 -959.975 -3494.973 0.155 -0.003 -0.217 0.01 0.59 -0.81 0.02
1 0.59 59 -0.436 -9.204 3.266 -4.700 -2.838 1.831 -89.941 -959.975 -3494.973 0.083 -0.100 -0.206 0.01 0.59 -0.81 0.02
1 0.60 60 -0.397 -9.314 3.266 -8.118 -1.892 1.617 -119.922 -959.975 -3539.944 0.043 0.008 -0.214 0.01 0.59 -0.81 0.02
1 0.61 61 -0.196 -9.386 3.457 -8.911 -2.197 1.129 -119.922 -884.874 -3539.944 -0.158 0.077 -0.413 0.01 0.59 -0.81 0.02
1 0.62 62 -0.249 -9.620 3.462 -10.925 -1.221 1.160 29.980 -914.854 -3404.882 -0.104 0.308 -0.429 0.01 0.59 -0.81 0.02
1 0.63 63 -0.330 -9.486 3.486 -9.766 -0.916 0.916 29.980 -914.854 -3404.882 -0.022 0.170 -0.464 0.01 0.59 -0.81 0.02
1 0.64 64 -0.345 -9.438 3.467 -7.080 -1.465 0.244 -29.980 -869.883 -3554.934 -0.007 0.120 -0.454 0.01 0.59 -0.81 0.02
1 0.65 65 -0.383 -9.414 3.314 -0.366 -1.007 0.885 -59.961 -914.854 -3554.934 0.033 0.094 -0.304 0.01 0.59 -0.81 0.02
1 0.66 66 -0.340 -9.122 3.381 0.671 -0.702 0.641 -59.961 -914.854 -3554.934 -0.010 -0.197 -0.370 0.01 0.59 -0.81 0.02
1 0.67 67 -0.316 -9.065 3.477 -1.495 -0.854 1.190 44.971 -854.893 -3539.944 -0.035 -0.253 -0.460 0.01 0.59 -0.81 0.02
1 0.68 68 -0.254 -9.280 3.510 -8.362 -0.488 1.160 -164.893 -884.874 -3464.993 -0.096 -0.037 -0.493 0.01 0.59 -0.81 0.02
1 0.69 69 -0.297 -9.357 3.520 -10.681 -0.275 1.038 -59.961 -944.984 -3479.983 -0.053 0.037 -0.511 0.01 0.59 -0.81 0.02
1 0.70 70 -0.244 -9.438 3.232 -9.522 -0.580 0.946 -59.961 -944.984 -3479.983 -0.105 0.115 -0.234 0.01 0.59 -0.81 0.02
1 0.71 71 -0.292 -9.242 3.371 -6.195 -0.275 0.153 -14.990 -884.874 -3419.872 -0.056 -0.084 -0.381 0.01 0.59 -0.81 0.02
1 0.72 72 -0.321 -9.290 3.285 -2.594 0.092 1.495 -29.980 -914.854 -3449.853 -0.027 -0.038 -0.298 0.01 0.59 -0.81 0.02
1 0.73 73 -0.086 -9.309 3.141 -2.625 0.061 1.862 -29.980 -914.854 -3449.853 -0.262 -0.019 -0.156 0.01 0.59 -0.81 0.02
1 0.74 74 -0.163 -9.347 3.204 -3.387 1.007 1.526 -104.932 -869.883 -3479.983 -0.186 0.020 -0.218 0.01 0.59 -0.81 0.02
1 0.75 75 -0.263 -9.333 3.208 -8.392 2.075 0.305 29.980 -794.932 -3509.963 -0.085 0.003 -0.229 0.01 0.59 -0.81 0.02
1 0.76 76 -0.263 -9.381 3.280 -12.787 1.862 -1.099 0.000 -944.984 -3479.983 -0.083 0.048 -0.312 0.01 0.59 -0.81 0.02
1 0.77 77 -0.575 -9.501 3.357 -14.893 0.366 -2.106 0.000 -944.984 -3479.983 0.231 0.162 -0.404 0.01 0.59 -0.81 0.02
1 0.78 78 -0.627 -9.568 3.256 -13.641 -2.197 -2.380 -119.922 -884.874 -3464.993 0.286 0.224 -0.320 0.01 0.59 -0.81 0.02
1 0.79 79 -0.699 -9.649 3.247 -8.881 -3.906 -1.831 -29.980 -989.955 -3584.915 0.362 0.301 -0.325 0.01 0.59 -0.81 0.02
1 0.80 80 -0.637 -9.395 3.160 -2.930 -5.096 0.214 -29.980 -989.955 -3584.915 0.302 0.044 -0.247 0.01 0.59 -0.81 0.02
1 0.81 81 -0.560 -9.295 3.050 -1.831 -4.913 1.465 0.000 -914.854 -3404.882 0.226 -0.057 -0.138 0.01 0.59 -0.81 0.02
1 0.82 82 -0.316 -9.079 3.050 -4.028 -4.364 1.587 0.000 -914.854 -3404.882 -0.018 -0.272 -0.137 0.01 0.59 -0.81 0.02
1 0.83 83 -0.053 -9.366 3.122 -8.881 -1.953 2.960 -89.941 -854.893 -3494.973 -0.282 0.013 -0.217 0.01 0.59 -0.8 0.02
1 0.84 84 -0.077 -9.486 3.050 -11.231 -0.549 2.838 -89.941 -854.893 -3494.973 -0.259 0.129 -0.156 0.01 0.59 -0.8 0.02
1 0.85 85 -0.091 -9.706 3.017 -11.383 -0.122 3.448 -14.990 -884.874 -3539.944 -0.246 0.345 -0.137 0.01 0.59 -0.8 0.02
1 0.86 86 -0.287 -9.864 2.801 -10.254 -0.397 2.289 -224.854 -779.942 -3494.973 -0.051 0.499 0.064 0.01 0.59 -0.8 0.02
1 0.87 87 -0.168 -9.850 2.926 -4.730 -2.350 0.946 -224.854 -779.942 -3494.973 -0.172 0.481 -0.073 0.01 0.6 -0.8 0.02
1 0.88 88 -0.321 -9.601 2.931 -3.448 -3.082 0.458 -14.990 -854.893 -3389.892 -0.017 0.230 -0.085 0.01 0.6 -0.8 0.02
1 0.89 89 -0.330 -9.596 2.892 -4.242 -4.150 0.488 -14.990 -854.893 -3389.892 -0.006 0.223 -0.051 0.01 0.6 -0.8 0.02
1 0.90 90 -0.172 -9.592 2.710 -6.226 -3.571 0.732 -59.961 -914.854 -3404.882 -0.159 0.215 0.121 0.01 0.6 -0.8 0.02
1 0.91 91 -0.350 -9.625 2.749 -5.981 -3.967 0.946 -59.961 -914.854 -3404.882 0.020 0.246 0.075 0.01 0.6 -0.8 0.02
1 0.92 92 -0.378 -9.453 2.787 -4.456 -4.181 0.244 -59.961 -719.981 -3554.934 0.051 0.072 0.030 0.01 0.6 -0.8 0.02
1 0.93 93 -0.402 -9.376 2.816 -3.906 -3.723 -0.305 -134.912 -839.903 -3329.931 0.077 -0.006 -0.004 0.01 0.6 -0.8 0.02
1 0.94 94 -0.426 -9.414 2.749 -3.021 -3.784 -0.854 -134.912 -839.903 -3329.931 0.104 0.031 0.060 0.01 0.6 -0.8 0.02
1 0.95 95 -0.565 -9.438 2.734 -3.540 -3.784 0.549 -104.932 -644.880 -3479.983 0.245 0.054 0.071 0.01 0.6 -0.8 0.02
1 0.96 96 -0.378 -9.405 2.639 -4.334 -3.448 1.343 -104.932 -644.880 -3479.983 0.060 0.019 0.163 0.01 0.6 -0.8 0.02
1 0.97 97 -0.350 -9.596 2.619 -3.418 -3.113 1.312 -119.922 -809.922 -3494.973 0.031 0.208 0.172 0.01 0.6 -0.8 0.02
1 0.98 98 -0.297 -9.706 2.600 -2.502 -2.899 1.221 -119.922 -809.922 -3494.973 -0.022 0.316 0.186 0 0.6 -0.8 0.02
1 0.99 99 -0.225 -9.855 2.686 -1.099 -2.716 1.068 -104.932 -674.860 -3554.934 -0.092 0.463 0.096 0 0.6 -0.8 0.02
1 1.00 100 -0.297 -9.812 2.672 0.580 -2.167 1.495 -89.941 -884.874 -3419.872 -0.019 0.420 0.109 0 0.6 -0.8 0.02
1 1.01 101 -0.287 -9.999 2.677 1.312 -1.984 0.427 -89.941 -884.874 -3419.872 -0.028 0.607 0.104 0 0.6 -0.8 0.02
1 1.02 102 -0.464 -9.927 2.533 2.747 -3.204 0.275 -29.980 -869.883 -3404.882 0.150 0.536 0.251 0 0.6 -0.8 0.02
1 1.03 103 -0.417 -9.879 2.418 3.357 -4.120 0.854 -29.980 -869.883 -3404.882 0.104 0.489 0.368 0 0.6 -0.8 0.02
1 1.04 104 -0.345 -9.836 2.519 4.334 -5.890 1.160 14.990 -734.971 -3464.993 0.035 0.447 0.274 0 0.6 -0.8 0.02
1 1.05 105 -0.402 -9.855 2.514 5.280 -5.676 1.862 14.990 -734.971 -3464.993 0.093 0.468 0.285 0 0.6 -0.8 0.02
1 1.06 106 -0.445 -9.639 2.447 7.019 -5.096 2.441 0.000 -794.932 -3299.950 0.135 0.255 0.360 0 0.6 -0.8 0.02
1 1.07 107 -0.498 -9.625 2.413 7.843 -5.096 2.838 -134.912 -839.903 -3449.853 0.187 0.244 0.403 0 0.6 -0.8 0.02
1 1.08 108 -0.464 -9.524 2.227 7.751 -6.256 2.777 -134.912 -839.903 -3449.853 0.151 0.146 0.599 0 0.6 -0.8 0.02
1 1.09 109 -0.503 -9.505 2.212 6.622 -6.653 3.143 -29.980 -719.981 -3449.853 0.188 0.129 0.622 0 0.6 -0.8 0.02
1 1.10 110 -0.211 -9.524 2.351 4.578 -6.805 3.876 -29.980 -719.981 -3449.853 -0.104 0.150 0.489 0 0.6 -0.8 0.02
1 1.11 111 -0.091 -9.606 2.231 3.082 -5.585 3.784 -59.961 -794.932 -3509.963 -0.224 0.233 0.613 0 0.6 -0.8 0.02
1 1.12 112 -0.072 -9.773 2.418 3.235 -2.960 4.334 -59.961 -749.961 -3404.882 -0.245 0.402 0.431 0 0.6 -0.8 0.02
1 1.13 113 -0.139 -9.558 2.279 4.517 -2.777 4.547 -119.922 -809.922 -3359.911 -0.180 0.187 0.572 0 0.6 -0.8 0.02
1 1.14 114 -0.115 -9.539 2.184 5.859 -3.265 3.571 -119.922 -884.874 -3464.993 -0.206 0.170 0.672 0 0.6 -0.8 0.02
1 1.15 115 -0.273 -9.424 2.380 6.195 -3.723 3.143 -119.922 -884.874 -3464.993 -0.049 0.056 0.481 0 0.6 -0.8 0.02
1 1.16 116 -0.139 -9.347 2.375 4.150 -4.303 2.136 -59.961 -869.883 -3449.853 -0.184 -0.018 0.493 0 0.59 -0.8 0.02
1 1.17 117 -0.067 -9.381 2.500 2.686 -4.059 1.801 -59.961 -869.883 -3449.853 -0.255 0.017 0.373 0 0.59 -0.8 0.02
1 1.18 118 -0.139 -9.414 2.289 1.740 -2.777 2.075 -224.854 -929.994 -3539.944 -0.181 0.051 0.587 0 0.59 -0.8 0.02
1 1.19 119 -0.187 -9.529 2.442 1.160 -1.740 2.258 -119.922 -959.975 -3464.993 -0.132 0.167 0.436 0 0.59 -0.8 0.03
1 1.20 120 -0.153 -9.529 2.452 0.702 -1.923 2.441 -179.883 -869.883 -3404.882 -0.166 0.167 0.426 0 0.59 -0.8 0.03
1 1.21 121 -0.139 -9.501 2.500 0.244 -2.136 2.930 -44.971 -809.922 -3539.944 -0.181 0.138 0.377 0 0.59 -0.8 0.03
1 1.22 122 -0.115 -9.572 2.605 -0.488 -2.930 2.502 -44.971 -809.922 -3539.944 -0.206 0.209 0.271 0 0.59 -0.8 0.03
1 1.23 123 -0.038 -9.510 2.610 -1.068 -1.892 1.862 -59.961 -914.854 -3554.934 -0.282 0.147 0.264 0 0.59 -0.8 0.03
1 1.24 124 -0.043 -9.582 2.418 -0.244 -1.251 2.350 -59.961 -914.854 -3554.934 -0.276 0.218 0.454 0 0.59 -0.8 0.03
1 1.25 125 -0.062 -9.405 2.385 0.946 -1.007 2.380 -179.883 -869.883 -3479.983 -0.256 0.040 0.486 0 0.59 -0.8 0.03
1 1.26 126 0.029 -9.596 2.500 0.031 -0.214 2.899 -254.984 -869.883 -3509.963 -0.347 0.231 0.371 0 0.59 -0.8 0.03
1 1.27 127 -0.235 -9.587 2.514 -3.418 -0.610 2.808 -119.922 -779.942 -3389.892 -0.086 0.221 0.352 0 0.59 -0.8 0.03
1 1.28 128 -0.110 -9.510 2.586 -2.808 -1.129 2.167 -134.912 -914.854 -3629.885 -0.212 0.142 0.274 0 0.6 -0.8 0.03
1 1.29 129 -0.177 -9.553 2.567 -1.801 -1.678 2.350 -134.912 -914.854 -3629.885 -0.144 0.184 0.288 0 0.6 -0.8 0.03
1 1.30 130 -0.158 -9.424 2.490 -0.275 -1.343 1.953 -89.941 -959.975 -3599.905 -0.164 0.054 0.362 0 0.6 -0.8 0.03
1 1.31 131 -0.311 -9.438 2.639 -0.397 -1.343 2.502 -89.941 -959.975 -3599.905 -0.011 0.068 0.213 0 0.6 -0.8 0.03
1 1.32 132 -0.201 -9.395 2.619 -1.862 -1.892 2.014 -29.980 -914.854 -3509.963 -0.121 0.024 0.231 0 0.6 -0.8 0.03
1 1.33 133 -0.225 -9.443 2.557 -4.578 -2.228 0.977 -119.922 -854.893 -3419.872 -0.098 0.072 0.291 0 0.6 -0.8 0.03
1 1.34 134 -0.120 -9.366 2.682 -4.883 -1.617 2.197 -14.990 -929.994 -3464.993 -0.200 -0.009 0.153 0 0.6 -0.8 0.03
1 1.35 135 -0.038 -9.539 2.624 -4.181 -1.587 1.007 -59.961 -944.984 -3509.963 -0.280 0.162 0.205 0 0.6 -0.8 0.03
1 1.36 136 0.024 -9.620 2.792 -2.411 -0.641 1.282 -59.961 -944.984 -3509.963 -0.341 0.241 0.033 0 0.6 -0.8 0.03
1 1.37 137 -0.134 -9.505 2.643 -1.038 -0.061 1.190 0.000 -869.883 -3449.853 -0.180 0.126 0.180 0 0.6 -0.8 0.03
1 1.38 138 -0.177 -9.601 2.720 -0.702 0.763 0.427 0.000 -869.883 -3449.853 -0.135 0.221 0.102 0 0.6 -0.8 0.03
1 1.39 139 -0.182 -9.524 2.715 -1.862 0.244 1.312 -44.971 -1004.945 -3569.924 -0.129 0.144 0.106 0 0.6 -0.8 0.03
1 1.40 140 -0.105 -9.496 2.739 -1.953 0.397 0.580 -164.893 -734.971 -3674.856 -0.205 0.115 0.080 0 0.6 -0.8 0.02
1 1.41 141 -0.177 -9.448 2.816 -1.831 0.183 0.793 -119.922 -809.922 -3419.872 -0.132 0.066 0.001 0 0.6 -0.8 0.02
1 1.42 142 -0.283 -9.606 2.725 -2.136 -0.092 0.122 29.980 -914.854 -3449.853 -0.026 0.224 0.091 0 0.6 -0.8 0.02
1 1.43 143 -0.263 -9.568 2.926 -2.045 -0.366 -0.366 29.980 -914.854 -3449.853 -0.043 0.185 -0.113 0 0.6 -0.8 0.02
1 1.44 144 -0.292 -9.558 2.753 -1.862 -0.824 -0.732 -209.863 -644.880 -3374.901 -0.012 0.175 0.059 0 0.6 -0.8 0.02
1 1.45 145 -0.321 -9.606 2.859 -1.221 -0.092 -0.763 -209.863 -644.880 -3374.901 0.019 0.223 -0.048 0 0.6 -0.8 0.02
1 1.46 146 -0.421 -9.529 2.782 -0.763 -0.275 -0.427 -104.932 -839.903 -3479.983 0.122 0.146 0.029 0 0.6 -0.8 0.02
1 1.47 147 -0.335 -9.491 2.753 -0.153 0.214 -1.007 -104.932 -839.903 -3449.853 0.038 0.108 0.058 0 0.6 -0.8 0.02
1 1.48 148 -0.374 -9.534 2.844 -0.397 0.244 0.244 -284.964 -869.883 -3449.853 0.079 0.151 -0.031 0 0.6 -0.8 0.02
1 1.49 149 -0.369 -9.529 2.864 -0.519 -0.397 0.183 -29.980 -914.854 -3554.934 0.074 0.146 -0.050 0 0.6 -0.8 0.02
1 1.50 150 -0.359 -9.477 2.888 -1.862 -0.397 0.977 -29.980 -914.854 -3554.934 0.063 0.094 -0.074 0 0.6 -0.8 0.02
1 1.51 151 -0.508 -9.433 3.017 -0.793 -1.587 0.580 -29.980 -989.955 -3509.963 0.210 0.051 -0.202 0 0.6 -0.8 0.02
1 1.52 152 -0.397 -9.410 2.964 0.275 -1.892 0.519 -29.980 -989.955 -3509.963 0.099 0.028 -0.148 0 0.6 -0.8 0.02
1 1.53 153 -0.311 -9.467 2.916 1.282 -2.533 0.000 -59.961 -839.903 -3449.853 0.013 0.086 -0.096 0 0.6 -0.8 0.02
1 1.54 154 -0.192 -9.496 2.959 1.282 -2.197 -0.244 -134.912 -839.903 -3404.882 -0.104 0.116 -0.134 0 0.6 -0.8 0.02
1 1.55 155 -0.168 -9.438 3.012 1.160 -1.709 0.519 -134.912 -839.903 -3404.882 -0.126 0.060 -0.182 0 0.6 -0.8 0.02
1 1.56 156 -0.148 -9.529 3.108 0.458 -1.190 0.458 -14.990 -854.893 -3389.892 -0.141 0.154 -0.270 0 0.6 -0.8 0.02
1 1.57 157 -0.278 -9.491 3.017 0.458 -1.923 0.305 -14.990 -854.893 -3389.892 -0.010 0.116 -0.176 0 0.6 -0.8 0.02
1 1.58 158 -0.383 -9.491 3.055 1.984 -2.380 -0.244 -329.935 -914.854 -3584.915 0.097 0.117 -0.210 0 0.6 -0.8 0.02
1 1.59 159 -0.239 -9.410 2.974 2.441 -3.082 -0.244 -329.935 -914.854 -3584.915 -0.045 0.038 -0.123 0 0.6 -0.8 0.02
1 1.60 160 -0.330 -9.381 2.969 2.533 -3.143 0.183 -224.854 -809.922 -3389.892 0.048 0.011 -0.112 0 0.6 -0.8 0.02
1 1.61 161 -0.359 -9.515 3.127 1.282 -3.723 -0.275 -164.893 -704.991 -3494.973 0.079 0.147 -0.263 -0 0.59 -0.8 0.02
1 1.62 162 -0.330 -9.472 3.041 0.946 -2.930 0.336 -164.893 -704.991 -3494.973 0.053 0.105 -0.172 -0 0.59 -0.8 0.02
1 1.63 163 -0.268 -9.558 3.184 2.594 -2.625 0.824 -134.912 -719.981 -3554.934 -0.006 0.194 -0.306 -0 0.59 -0.8 0.02
1 1.64 164 -0.134 -9.529 3.046 3.845 -1.984 1.434 -134.912 -719.981 -3554.934 -0.140 0.168 -0.160 -0 0.59 -0.8 0.02
1 1.65 165 -0.306 -9.611 3.132 3.571 -0.946 1.556 29.980 -839.903 -3629.885 0.034 0.252 -0.238 -0 0.59 -0.8 0.02
1 1.66 166 -0.297 -9.390 3.046 3.693 -0.336 1.831 29.980 -839.903 -3629.885 0.024 0.034 -0.144 -0 0.59 -0.8 0.02
1 1.67 167 -0.306 -9.338 3.055 2.686 -0.885 0.916 29.980 -749.961 -3404.882 0.032 -0.017 -0.146 -0 0.59 -0.8 0.02
1 1.68 168 -0.230 -9.558 2.974 1.678 -2.899 0.641 -104.932 -839.903 -3374.901 -0.044 0.205 -0.059 -0 0.59 -0.81 0.02
1 1.69 169 -0.259 -9.405 3.113 2.258 -3.113 0.031 -104.932 -839.903 -3374.901 -0.014 0.054 -0.193 -0 0.59 -0.81 0.02
1 1.70 170 -0.048 -9.362 3.041 3.265 -2.594 -0.061 -59.961 -839.903 -3329.931 -0.223 0.012 -0.116 -0 0.59 -0.81 0.02
1 1.71 171 -0.239 -9.314 3.012 2.686 -0.702 0.519 -44.971 -854.893 -3494.973 -0.026 -0.032 -0.074 -0 0.59 -0.81 0.02
1 1.72 172 -0.278 -9.414 3.127 2.258 -0.397 0.244 -194.873 -779.942 -3464.993 0.013 0.071 -0.183 -0 0.59 -0.81 0.02
1 1.73 173 -0.244 -9.524 3.065 1.923 -0.702 0.946 -194.873 -779.942 -3464.993 -0.020 0.182 -0.116 -0 0.59 -0.81 0.02
1 1.74 174 -0.153 -9.457 3.060 2.136 -0.977 0.946 -134.912 -914.854 -3374.901 -0.111 0.117 -0.106 -0 0.59 -0.81 0.02
1 1.75 175 -0.278 -9.376 3.098 2.472 0.153 1.404 -29.980 -749.961 -3404.882 0.015 0.037 -0.139 -0 0.59 -0.81 0.02
1 1.76 176 -0.211 -9.395 3.031 3.143 -0.092 0.885 -29.980 -749.961 -3404.882 -0.052 0.058 -0.066 -0 0.59 -0.81 0.02
1 1.77 177 -0.244 -9.352 3.103 1.923 -0.061 -0.214 -209.863 -794.932 -3629.885 -0.018 0.017 -0.131 -0 0.59 -0.81 0.02
1 1.78 178 -0.163 -9.510 3.132 1.892 -0.946 -0.031 -104.932 -794.932 -3629.885 -0.096 0.179 -0.149 -0 0.59 -0.81 0.02
1 1.79 179 -0.254 -9.644 3.194 1.617 -1.343 -0.244 -134.912 -869.883 -3509.963 -0.003 0.314 -0.207 -0 0.59 -0.81 0.02
1 1.80 180 -0.249 -9.520 3.046 1.373 -1.434 -0.427 -134.912 -869.883 -3509.963 -0.006 0.191 -0.054 -0 0.59 -0.81 0.02
1 1.81 181 -0.206 -9.419 3.170 2.075 -1.648 -0.031 -284.964 -749.961 -3329.931 -0.046 0.092 -0.174 -0 0.59 -0.81 0.02
1 1.82 182 -0.302 -9.491 3.218 2.106 -1.892 -0.183 -329.935 -869.883 -3584.915 0.052 0.165 -0.217 -0 0.59 -0.81 0.02
1 1.83 183 -0.393 -9.343 2.878 2.747 -2.197 0.427 -329.935 -869.883 -3584.915 0.146 0.019 0.129 -0 0.59 -0.81 0.02
1 1.84 184 -0.244 -9.386 2.993 3.448 -3.204 0.549 -254.984 -839.903 -3449.853 -0.001 0.063 0.020 -0 0.59 -0.81 0.02
1 1.85 185 -0.206 -9.328 2.978 3.448 -4.150 1.007 -104.932 -794.932 -3584.915 -0.037 0.010 0.046 -0 0.59 -0.81 0.02
1 1.86 186 -0.215 -9.357 2.931 2.991 -3.693 1.190 -104.932 -944.984 -3704.986 -0.026 0.041 0.101 -0 0.59 -0.81 0.02
1 1.87 187 -0.144 -9.448 2.969 2.197 -3.845 1.190 -104.932 -944.984 -3704.986 -0.096 0.133 0.068 -0 0.59 -0.81 0.02
1 1.88 188 -0.134 -9.515 2.988 1.801 -4.120 1.526 -29.980 -794.932 -3449.853 -0.103 0.202 0.053 -0 0.59 -0.81 0.02
1 1.89 189 -0.148 -9.424 2.888 1.526 -4.700 1.709 -164.893 -884.874 -3569.924 -0.087 0.112 0.157 -0 0.59 -0.81 0.02
1 1.90 190 -0.057 -9.491 2.840 2.136 -4.730 1.862 -164.893 -884.874 -3569.924 -0.176 0.180 0.208 -0 0.59 -0.81 0.02
1 1.91 191 -0.201 -9.510 2.926 2.228 -5.310 2.228 -134.912 -914.854 -3629.885 -0.031 0.200 0.125 -0 0.59 -0.81 0.02
1 1.92 192 -0.038 -9.505 2.902 2.289 -5.280 2.625 -119.922 -959.975 -3464.993 -0.192 0.198 0.156 -0 0.59 -0.81 0.03
1 1.93 193 -0.048 -9.491 2.835 1.892 -5.249 2.502 -179.883 -914.854 -3584.915 -0.181 0.184 0.227 -0 0.59 -0.81 0.03
1 1.94 194 0.057 -9.486 2.806 0.214 -3.815 3.021 -179.883 -914.854 -3584.915 -0.286 0.180 0.257 -0 0.59 -0.81 0.03
1 1.95 195 0.014 -9.371 2.782 -0.732 -3.204 3.662 -164.893 -734.971 -3494.973 -0.243 0.065 0.281 -0 0.59 -0.81 0.03
1 1.96 196 0.048 -9.414 2.763 -0.916 -3.143 3.845 -14.990 -734.971 -3539.944 -0.278 0.108 0.300 -0 0.59 -0.81 0.03
1 1.97 197 0.000 -9.563 2.907 -0.427 -3.815 3.540 -14.990 -734.971 -3539.944 -0.231 0.256 0.154 -0 0.59 -0.81 0.03
1 1.98 198 0.158 -9.467 2.902 0.427 -4.456 2.075 -179.883 -719.981 -3809.918 -0.389 0.160 0.158 -0 0.59 -0.81 0.03
1 1.99 199 0.096 -9.357 2.830 1.862 -4.791 1.648 -179.883 -1019.936 -3584.915 -0.326 0.050 0.230 -0 0.59 -0.81 0.03
1 2.00 200 0.101 -9.347 2.787 1.495 -3.845 1.129 -59.961 -914.854 -3479.983 -0.324 0.041 0.277 -0.01 0.59 -0.81 0.03
1 2.01 201 0.057 -9.347 2.926 0.885 -3.235 0.305 -59.961 -914.854 -3479.983 -0.277 0.042 0.140 -0.01 0.59 -0.81 0.03
1 2.02 202 0.101 -9.386 2.782 -0.519 -3.998 -0.458 -89.941 -929.994 -3569.924 -0.315 0.080 0.284 -0.01 0.59 -0.81 0.03
1 2.03 203 0.153 -9.429 2.797 -2.289 -4.150 -0.488 -179.883 -944.984 -3554.934 -0.362 0.123 0.268 -0.01 0.59 -0.81 0.03
1 2.04 204 0.239 -9.501 2.911 -1.648 -3.418 0.336 -179.883 -944.984 -3554.934 -0.443 0.193 0.151 -0.01 0.59 -0.81 0.03
1 2.05 205 0.278 -9.429 2.816 0.000 -2.777 -0.183 -299.955 -809.922 -3569.924 -0.476 0.121 0.244 -0.01 0.59 -0.81 0.03
1 2.06 206 0.239 -9.410 2.883 0.885 -1.587 -0.122 -284.964 -1019.936 -3584.915 -0.431 0.101 0.177 -0.01 0.59 -0.81 0.03
1 2.07 207 0.158 -9.228 2.998 -0.214 0.000 -1.282 -89.941 -884.874 -3569.924 -0.338 -0.080 0.064 -0.01 0.59 -0.81 0.03
1 2.08 208 0.105 -9.204 2.773 -0.580 0.549 -1.556 -89.941 -884.874 -3569.924 -0.280 -0.104 0.290 -0.01 0.59 -0.81 0.03
1 2.09 209 0.101 -9.165 2.854 -0.732 1.770 -2.655 -284.964 -869.883 -3554.934 -0.269 -0.142 0.208 -0.01 0.59 -0.81 0.03
1 2.10 210 0.153 -9.127 2.706 -0.946 2.197 -3.296 -209.863 -944.984 -3704.986 -0.315 -0.181 0.356 -0.01 0.59 -0.81 0.03
1 2.11 211 0.048 -9.175 2.777 -0.977 2.014 -3.510 -209.863 -944.984 -3704.986 -0.202 -0.134 0.283 -0.01 0.59 -0.81 0.03
1 2.12 212 -0.115 -9.156 2.849 -2.686 2.136 -3.876 -224.854 -854.893 -3599.905 -0.033 -0.153 0.210 -0.01 0.59 -0.81 0.02
1 2.13 213 0.048 -9.323 2.892 -3.571 2.899 -3.693 -44.971 -854.893 -3419.872 -0.190 0.013 0.164 -0.01 0.59 -0.81 0.02
1 2.14 214 0.029 -9.362 2.940 -4.913 3.326 -3.632 -44.971 -854.893 -3419.872 -0.165 0.050 0.112 -0.01 0.59 -0.81 0.02
1 2.15 215 -0.053 -9.366 2.892 -3.876 4.852 -4.150 -134.912 -839.903 -3659.866 -0.071 0.050 0.147 -0.01 0.59 -0.81 0.02
1 2.16 216 -0.072 -9.515 2.897 -3.143 5.951 -4.303 -134.912 -1019.936 -3734.967 -0.046 0.197 0.137 -0.01 0.59 -0.81 0.02
1 2.17 217 -0.144 -9.486 2.911 -1.923 7.355 -5.127 -254.984 -914.854 -3509.963 0.031 0.167 0.119 -0.01 0.59 -0.81 0.02
1 2.18 218 -0.091 -9.438 2.825 -2.106 7.568 -5.280 -254.984 -914.854 -3509.963 -0.017 0.118 0.202 -0.01 0.59 -0.81 0.02
1 2.19 219 -0.273 -9.524 2.897 -1.709 8.240 -6.073 -179.883 -944.984 -3554.934 0.170 0.204 0.128 -0.01 0.59 -0.81 0.02
1 2.20 220 -0.268 -9.663 2.993 -2.106 8.209 -5.554 -164.893 -854.893 -3569.924 0.170 0.342 0.030 -0.01 0.59 -0.81 0.02
1 2.21 221 -0.196 -9.716 3.050 -2.991 9.186 -5.524 -164.893 -854.893 -3569.924 0.103 0.394 -0.030 -0.01 0.59 -0.81 0.02
1 2.22 222 -0.177 -9.721 3.012 -2.167 10.864 -4.547 -59.961 -794.932 -3479.983 0.090 0.396 0.002 -0.01 0.59 -0.81 0.02
1 2.23 223 -0.374 -9.965 2.998 -0.153 10.986 -4.211 -164.893 -854.893 -3539.944 0.287 0.640 0.015 -0.01 0.59 -0.81 0.02
1 2.24 224 -0.479 -9.841 3.098 0.702 11.047 -2.747 -119.922 -809.922 -3464.993 0.393 0.516 -0.085 -0.01 0.59 -0.81 0.02
1 2.25 225 -0.551 -9.989 3.146 0.916 11.383 -1.770 -119.922 -809.922 -3464.993 0.462 0.665 -0.131 -0 0.59 -0.81 0.01
1 2.26 226 -0.541 -9.898 2.940 1.068 12.878 0.183 -104.932 -749.961 -3659.866 0.447 0.574 0.077 -0 0.59 -0.81 0.01
1 2.27 227 -0.848 -9.769 2.978 3.082 14.710 1.648 -89.941 -854.893 -3569.924 0.744 0.446 0.041 -0 0.59 -0.81 0.01
1 2.28 228 -0.982 -9.754 2.801 5.493 13.825 1.740 -89.941 -854.893 -3569.924 0.866 0.433 0.222 -0 0.59 -0.81 0.01
1 2.29 229 -1.030 -9.577 2.682 9.674 11.505 1.740 -164.893 -959.975 -3569.924 0.886 0.261 0.357 0 0.59 -0.81 0.01
1 2.30 230 -1.006 -9.314 2.476 10.437 10.376 0.977 -179.883 -944.984 -3509.963 0.850 0.002 0.576 0 0.59 -0.81 0.01
1 2.31 231 -1.154 -9.414 2.385 9.613 12.329 1.373 -119.922 -779.942 -3494.973 0.987 0.107 0.680 0 0.59 -0.81 0.01
1 2.32 232 -1.288 -9.386 2.394 7.813 12.970 2.075 -119.922 -779.942 -3494.973 1.106 0.082 0.680 0 0.59 -0.81 0.01
1 2.33 233 -1.417 -9.472 2.203 5.127 12.482 2.594 -59.961 -839.903 -3584.915 1.219 0.171 0.879 0 0.59 -0.81 0.01
1 2.34 234 -1.532 -9.654 2.064 4.059 8.179 3.815 -164.893 -854.893 -3464.993 1.316 0.354 1.019 0.01 0.59 -0.81 0.01
1 2.35 235 -1.566 -9.592 1.987 4.761 5.798 5.127 -164.893 -854.893 -3464.993 1.331 0.292 1.097 0.01 0.59 -0.81 0.01
1 2.36 236 -1.269 -9.726 2.121 2.930 3.387 6.165 0.000 -944.984 -3659.866 0.999 0.428 0.963 0.01 0.59 -0.81 0.01
1 2.37 237 -1.240 -9.726 2.222 1.312 4.150 7.690 -164.893 -884.874 -3569.924 0.951 0.427 0.859 0.01 0.59 -0.81 0.01
1 2.38 238 -1.302 -9.955 2.399 -1.953 6.256 10.345 -89.941 -959.975 -3569.924 0.992 0.656 0.676 0.01 0.59 -0.81 0.01
1 2.39 239 -1.197 -10.219 2.289 -0.458 5.585 12.573 -89.941 -959.975 -3569.924 0.863 0.917 0.778 0.01 0.59 -0.81 0.01
1 2.40 240 -1.168 -10.267 2.495 3.601 3.479 13.641 -44.971 -884.874 -3599.905 0.808 0.964 0.567 0.01 0.59 -0.81 0.01
1 2.41 241 -0.934 -10.228 2.629 8.759 0.488 17.456 -209.863 -944.984 -3659.866 0.547 0.928 0.436 0.01 0.59 -0.81 0.02
1 2.42 242 -0.632 -10.008 2.931 6.805 2.289 18.585 -209.863 -944.984 -3659.866 0.218 0.712 0.143 0.01 0.59 -0.81 0.02
1 2.43 243 -0.522 -9.960 3.065 5.188 5.341 19.562 119.922 -854.893 -3464.993 0.079 0.668 0.017 0.02 0.59 -0.81 0.02
1 2.44 244 -0.776 -9.773 2.639 8.301 8.362 17.151 0.000 -989.955 -3479.983 0.273 0.489 0.457 0.02 0.58 -0.81 0.02
1 2.45 245 -0.905 -9.515 2.605 12.116 6.989 14.313 14.990 -884.874 -3599.905 0.375 0.235 0.502 0.02 0.58 -0.81 0.02
1 2.46 246 -1.015 -9.433 2.466 13.855 5.341 12.360 14.990 -884.874 -3599.905 0.461 0.161 0.656 0.02 0.58 -0.81 0.02
1 2.47 247 -0.967 -9.299 2.567 12.573 4.852 11.444 104.932 -914.854 -3704.986 0.392 0.033 0.570 0.02 0.58 -0.81 0.02
1 2.48 248 -1.192 -9.357 2.519 9.491 5.768 10.956 -44.971 -1124.867 -3674.856 0.596 0.096 0.632 0.02 0.58 -0.81 0.02
1 2.49 249 -1.226 -9.510 2.500 10.956 6.836 10.529 -44.971 -1124.867 -3674.856 0.608 0.255 0.662 0.02 0.58 -0.81 0.02
1 2.50 250 -1.250 -9.453 2.284 13.702 5.096 9.827 -59.961 -1019.936 -3554.934 0.611 0.202 0.889 0.02 0.58 -0.81 0.02
1 2.51 251 -1.025 -9.204 2.409 14.313 2.106 8.606 29.980 -989.955 -3509.963 0.346 -0.033 0.794 0.03 0.58 -0.81 0.02
1 2.52 252 -1.025 -9.218 2.394 14.038 3.235 7.690 0.000 -914.854 -3629.885 0.331 -0.012 0.825 0.03 0.58 -0.81 0.02
1 2.53 253 -0.991 -9.271 2.332 13.733 3.357 7.019 0.000 -914.854 -3629.885 0.283 0.047 0.903 0.03 0.58 -0.82 0.02
1 2.54 254 -1.073 -9.328 2.193 14.282 3.387 6.073 194.873 -884.874 -3569.924 0.351 0.111 1.056 0.03 0.58 -0.82 0.02
1 2.55 255 -1.279 -9.347 2.179 13.733 1.556 4.974 -59.961 -1139.857 -3404.882 0.545 0.136 1.084 0.03 0.58 -0.82 0.02
1 2.56 256 -1.255 -9.438 2.188 11.780 -2.136 2.472 -59.961 -1139.857 -3404.882 0.511 0.232 1.088 0.03 0.58 -0.82 0.02
1 2.57 257 -1.350 -9.673 2.164 10.437 -4.242 1.343 59.961 -1094.887 -3659.866 0.600 0.471 1.123 0.03 0.58 -0.82 0.02
1 2.58 258 -1.259 -9.639 2.164 11.353 -6.653 1.587 59.961 -1094.887 -3659.866 0.505 0.441 1.131 0.03 0.58 -0.82 0.02
1 2.59 259 -1.159 -9.510 2.155 14.526 -7.629 1.007 89.941 -1124.867 -3719.977 0.401 0.319 1.161 0.03 0.57 -0.82 0.02
1 2.60 260 -1.030 -9.433 2.083 15.900 -8.728 0.916 89.941 -1124.867 -3719.977 0.273 0.248 1.248 0.03 0.57 -0.82 0.02
1 2.61 261 -1.001 -9.433 2.107 15.717 -8.759 1.190 29.980 -1214.958 -3584.915 0.246 0.254 1.240 0.03 0.57 -0.82 0.03
1 2.62 262 -0.996 -9.381 2.198 13.977 -8.484 0.549 29.980 -1064.906 -3584.915 0.243 0.206 1.164 0.03 0.57 -0.82 0.03
1 2.63 263 -1.049 -9.357 2.265 11.108 -7.080 -0.031 29.980 -1064.906 -3584.915 0.298 0.187 1.110 0.03 0.57 -0.82 0.03
1 2.64 264 -0.982 -9.443 2.279 11.261 -6.134 -0.336 0.000 -1139.857 -3704.986 0.233 0.277 1.106 0.03 0.57 -0.82 0.03
1 2.65 265 -1.073 -9.515 2.270 12.451 -6.195 -1.099 0.000 -1139.857 -3704.986 0.326 0.352 1.125 0.03 0.57 -0.82 0.03
1 2.66 266 -1.269 -9.386 2.332 14.648 -6.775 -1.251 -14.990 -1199.968 -3674.856 0.528 0.231 1.087 0.03 0.57 -0.82 0.03
1 2.67 267 -1.212 -9.390 2.375 15.381 -8.179 -0.732 -14.990 -1199.968 -3674.856 0.473 0.241 1.059 0.03 0.57 -0.82 0.03
1 2.68 268 -1.226 -9.309 2.322 14.740 -9.033 -0.458 -14.990 -1349.871 -3569.924 0.490 0.166 1.127 0.03 0.57 -0.82 0.03
1 2.69 269 -1.068 -9.299 2.279 13.672 -9.583 0.061 29.980 -1169.988 -3629.885 0.335 0.162 1.185 0.03 0.57 -0.82 0.03
1 2.70 270 -1.188 -9.156 2.203 12.634 -9.552 1.160 29.980 -1169.988 -3629.885 0.457 0.023 1.275 0.03 0.57 -0.82 0.03
1 2.71 271 -1.250 -9.165 2.284 11.566 -8.179 1.617 44.971 -1229.949 -3719.977 0.519 0.037 1.204 0.03 0.57 -0.82 0.03
1 2.72 272 -1.140 -9.127 2.169 11.383 -6.836 2.502 44.971 -1229.949 -3719.977 0.408 0.002 1.330 0.03 0.57 -0.82 0.03
1 2.73 273 -1.360 -9.405 2.591 9.155 -3.754 5.432 -104.932 -1289.910 -3764.947 0.621 0.288 0.927 0.03 0.57 -0.82 0.03
1 2.74 274 -1.259 -9.625 3.046 4.395 -2.777 10.956 -104.932 -1289.910 -3764.947 0.509 0.511 0.478 0.03 0.57 -0.82 0.03
1 2.75 275 -0.977 -9.994 3.831 -0.397 -0.580 18.677 0.000 -1259.929 -3659.866 0.208 0.882 -0.306 0.03 0.57 -0.82 0.03
1 2.76 276 -0.498 -10.698 4.391 -4.639 3.265 29.785 -119.922 -1274.919 -3674.856 -0.302 1.588 -0.869 0.03 0.57 -0.82 0.03
1 2.77 277 0.187 -10.808 4.372 -3.784 10.132 40.314 -119.922 -1274.919 -3674.856 -1.034 1.700 -0.855 0.03 0.57 -0.82 0.03
1 2.78 278 -0.402 -9.256 2.931 16.235 19.135 31.830 0.000 -1289.910 -3734.967 -0.508 0.153 0.583 0.03 0.57 -0.82 0.04
1 2.79 279 -1.202 -8.500 1.815 31.342 12.451 19.989 0.000 -1289.910 -3734.967 0.237 -0.592 1.714 0.03 0.56 -0.82 0.04
1 2.80 280 -1.307 -7.992 1.724 21.332 0.885 14.618 -44.971 -1229.949 -3719.977 0.281 -1.062 1.882 0.04 0.56 -0.83 0.04
1 2.81 281 -1.298 -8.246 2.112 7.965 1.373 14.526 -44.971 -1229.949 -3719.977 0.251 -0.798 1.516 0.04 0.56 -0.83 0.04
1 2.82 282 -0.958 -9.836 3.400 -33.661 24.719 19.898 -134.912 -1289.910 -3734.967 -0.116 0.786 0.204 0.04 0.56 -0.83 0.04
1 2.83 283 -1.777 -10.487 3.481 -34.577 41.474 22.644 179.883 -1334.880 -3734.967 0.659 1.420 0.066 0.04 0.56 -0.82 0.04
1 2.84 284 -2.442 -10.698 2.878 -12.756 39.124 17.944 179.883 -1334.880 -3734.967 1.272 1.619 0.621 0.05 0.57 -0.82 0.04
1 2.85 285 -2.514 -10.382 2.744 17.181 14.862 4.700 224.854 -1304.900 -3674.856 1.304 1.303 0.742 0.05 0.57 -0.82 0.04
1 2.86 286 -2.337 -10.310 3.002 10.895 8.057 -0.214 224.854 -1304.900 -3674.856 1.108 1.241 0.502 0.05 0.56 -0.82 0.04
1 2.87 287 -2.318 -10.659 3.548 -11.200 11.231 -1.648 29.980 -1139.857 -3704.986 1.084 1.599 -0.024 0.05 0.56 -0.82 0.04
1 2.88 288 -2.524 -11.291 4.089 -31.708 15.839 0.305 -44.971 -1424.972 -3599.905 1.281 2.214 -0.612 0.05 0.57 -0.82 0.03
1 2.89 289 -2.294 -11.675 3.740 -15.472 9.308 -1.160 119.922 -1349.871 -3674.856 1.044 2.582 -0.304 0.05 0.57 -0.82 0.03
1 2.90 290 -2.164 -11.344 3.754 6.378 -7.538 -5.188 209.863 -1289.910 -3584.915 0.915 2.247 -0.331 0.05 0.57 -0.82 0.03
1 2.91 291 -1.480 -10.410 4.022 13.886 -22.308 -10.620 209.863 -1289.910 -3584.915 0.247 1.317 -0.582 0.05 0.57 -0.82 0.03
1 2.92 292 -0.627 -9.927 4.128 2.594 -22.003 -13.702 134.912 -1169.988 -3584.915 -0.576 0.839 -0.663 0.05 0.57 -0.82 0.03
1 2.93 293 -0.354 -9.563 4.089 -5.829 -14.862 -13.794 134.912 -1169.988 -3584.915 -0.817 0.476 -0.612 0.05 0.57 -0.82 0.03
1 2.94 294 -0.488 -9.386 3.840 -8.331 -10.559 -15.564 179.883 -1334.880 -3554.934 -0.648 0.295 -0.361 0.05 0.57 -0.82 0.03
1 2.95 295 -0.340 -8.979 4.003 -8.240 -10.468 -18.951 44.971 -1199.968 -3599.905 -0.726 -0.124 -0.533 0.05 0.57 -0.82 0.03
1 2.96 296 -0.225 -8.835 4.415 -11.719 -9.399 -20.264 0.000 -1289.910 -3584.915 -0.803 -0.274 -0.950 0.04 0.57 -0.82 0.03
1 2.97 297 -0.268 -8.763 4.453 -14.648 -6.531 -17.609 -14.990 -1154.998 -3674.856 -0.722 -0.353 -0.997 0.04 0.57 -0.82 0.03
1 2.98 298 -0.527 -8.399 4.382 -14.801 -4.272 -16.052 -14.990 -1154.998 -3674.856 -0.430 -0.725 -0.935 0.04 0.57 -0.82 0.03
1 2.99 299 -0.637 -8.390 4.252 -11.658 -4.150 -14.832 0.000 -1214.958 -3584.915 -0.291 -0.741 -0.815 0.04 0.57 -0.82 0.03
1 3.00 300 -0.666 -7.935 4.295 -6.073 -9.094 -11.627 0.000 -1214.958 -3584.915 -0.236 -1.200 -0.863 0.04 0.57 -0.82 0.03
1 3.01 301 -0.680 -7.872 4.247 -3.967 -12.207 -7.538 89.941 -1154.998 -3569.924 -0.200 -1.264 -0.814 0.04 0.57 -0.82 0.03
1 3.02 302 -0.378 -7.839 4.204 -3.204 -13.733 -4.150 89.941 -1199.968 -3719.977 -0.482 -1.298 -0.766 0.04 0.57 -0.82 0.03
1 3.03 303 0.043 -7.935 4.281 -4.120 -8.911 0.732 -29.980 -1169.988 -3509.963 -0.875 -1.199 -0.828 0.03 0.57 -0.82 0.03
1 3.04 304 0.273 -8.246 4.247 -6.897 -2.869 0.763 0.000 -1139.857 -3659.866 -1.095 -0.887 -0.790 0.03 0.57 -0.82 0.03
1 3.05 305 0.350 -8.557 4.271 -12.054 2.502 -0.824 0.000 -1139.857 -3659.866 -1.162 -0.577 -0.816 0.03 0.57 -0.82 0.03
1 3.06 306 0.148 -8.715 4.243 -17.761 4.150 -4.913 -29.980 -1169.988 -3554.934 -0.950 -0.424 -0.798 0.03 0.57 -0.82 0.03
1 3.07 307 -0.369 -9.122 4.109 -16.876 1.495 -10.864 -29.980 -1169.988 -3554.934 -0.419 -0.025 -0.681 0.03 0.57 -0.82 0.02
1 3.08 308 -0.388 -9.204 3.840 -11.414 -1.831 -11.963 59.961 -1364.861 -3509.963 -0.381 0.049 -0.430 0.03 0.57 -0.82 0.02
1 3.09 309 -0.311 -9.352 3.797 -3.174 -4.608 -13.214 -89.941 -1229.949 -3539.944 -0.437 0.191 -0.398 0.03 0.57 -0.82 0.02
1 3.10 310 -0.249 -9.137 3.821 -1.617 -5.493 -15.869 59.961 -1289.910 -3554.934 -0.448 -0.028 -0.421 0.03 0.57 -0.82 0.02
1 3.11 311 -0.067 -8.983 3.534 -6.134 -7.233 -17.456 -194.873 -1274.919 -3494.973 -0.600 -0.183 -0.132 0.03 0.57 -0.82 0.02
1 3.12 312 0.057 -9.026 3.453 -9.674 -9.613 -19.714 -194.873 -1274.919 -3494.973 -0.690 -0.145 -0.057 0.03 0.57 -0.82 0.02
1 3.13 313 0.417 -8.964 3.314 -8.392 -12.573 -22.644 -89.941 -1274.919 -3419.872 -1.009 -0.213 0.073 0.02 0.57 -0.82 0.02
1 3.14 314 0.575 -9.017 3.352 -6.104 -11.749 -22.827 -89.941 -1274.919 -3419.872 -1.121 -0.166 0.027 0.02 0.57 -0.82 0.02
1 3.15 315 0.560 -9.060 3.199 -6.012 -6.958 -22.339 -224.854 -1079.896 -3644.875 -1.061 -0.128 0.175 0.02 0.57 -0.82 0.02
1 3.16 316 0.503 -9.165 3.232 -7.385 -6.348 -22.186 -164.893 -1274.919 -3389.892 -0.959 -0.027 0.135 0.02 0.57 -0.82 0.02
1 3.17 317 0.555 -9.323 3.113 -8.728 -8.545 -23.285 -44.971 -1124.867 -3599.905 -0.926 0.121 0.236 0.01 0.57 -0.82 0.01
1 3.18 318 0.474 -9.194 3.060 -8.270 -10.620 -23.743 -119.922 -1274.919 -3644.875 -0.800 -0.014 0.278 0.01 0.57 -0.82 0.01
1 3.19 319 0.508 -9.156 3.160 -7.721 -10.468 -22.949 -119.922 -1274.919 -3644.875 -0.788 -0.058 0.166 0.01 0.57 -0.82 0.01
1 3.20 320 0.421 -9.242 3.208 -5.615 -9.674 -21.912 -194.873 -1154.998 -3569.924 -0.657 0.023 0.108 0.01 0.58 -0.82 0.01
1 3.21 321 0.192 -9.156 2.854 -2.869 -8.057 -20.691 -194.873 -1154.998 -3569.924 -0.386 -0.066 0.456 0.01 0.58 -0.82 0.01
1 3.22 322 -0.125 -8.888 2.562 -0.183 -9.125 -17.090 -299.955 -1199.968 -3419.872 -0.033 -0.336 0.745 0 0.58 -0.82 0.01
1 3.23 323 -0.292 -8.768 2.586 -1.251 -9.979 -15.289 -299.955 -1199.968 -3494.973 0.166 -0.457 0.719 0 0.58 -0.82 0.01
1 3.24 324 -0.062 -8.859 2.571 -3.601 -9.644 -10.223 -164.893 -1274.919 -3494.973 -0.013 -0.369 0.726 0 0.58 -0.82 0.01
1 3.25 325 -0.034 -8.907 2.662 -4.150 -9.094 -8.667 -164.893 -1004.945 -3359.911 -0.023 -0.324 0.628 -0 0.58 -0.82 0.01
1 3.26 326 0.019 -8.830 2.782 0.427 -9.369 -6.653 -164.893 -1004.945 -3359.911 -0.060 -0.403 0.503 -0 0.58 -0.82 0.01
1 3.27 327 0.192 -8.816 2.916 5.463 -9.399 -6.012 -284.964 -1289.910 -3374.901 -0.217 -0.416 0.371 -0 0.58 -0.82 0.01
1 3.28 328 0.359 -8.849 2.911 7.874 -8.698 -4.944 -284.964 -1289.910 -3374.901 -0.369 -0.380 0.384 -0 0.58 -0.82 0.01
1 3.29 329 0.479 -8.955 2.988 8.057 -5.157 -0.854 -329.935 -1094.887 -3554.934 -0.476 -0.270 0.319 -0 0.58 -0.82 0.01
1 3.30 330 0.642 -8.935 3.002 9.796 -2.960 2.289 -224.854 -1304.900 -3674.856 -0.629 -0.285 0.317 -0.01 0.57 -0.82 0.01
1 3.31 331 0.910 -8.763 2.883 13.214 -2.655 4.669 -224.854 -1304.900 -3674.856 -0.893 -0.453 0.450 -0.01 0.57 -0.82 0.01
1 3.32 332 1.312 -8.720 2.653 14.435 0.275 5.249 -329.935 -1094.887 -3479.983 -1.291 -0.483 0.716 -0.01 0.57 -0.82 0.01
1 3.33 333 1.571 -8.768 2.500 12.238 3.387 5.096 -329.935 -1094.887 -3479.983 -1.547 -0.428 0.888 -0.01 0.57 -0.82 0.01
1 3.34 334 1.695 -8.811 2.461 7.355 5.157 5.249 -269.974 -1229.949 -3494.973 -1.669 -0.380 0.940 -0.01 0.57 -0.82 0.01
1 3.35 335 1.810 -9.156 2.639 1.465 5.310 4.334 -269.974 -1229.949 -3494.973 -1.780 -0.033 0.767 -0.01 0.57 -0.82 0.01
1 3.36 336 1.619 -9.343 2.600 -3.571 9.125 4.395 -359.916 -1064.906 -3509.963 -1.583 0.152 0.802 -0.01 0.57 -0.82 0.01
1 3.37 337 1.480 -9.371 2.667 -0.641 12.848 4.608 -284.964 -1139.857 -3449.853 -1.440 0.178 0.727 -0.01 0.57 -0.82 0.01
1 3.38 338 1.006 -9.438 2.447 3.174 15.503 5.798 -284.964 -1139.857 -3449.853 -0.967 0.243 0.941 -0.01 0.57 -0.82 0.01
1 3.39 339 0.603 -9.390 2.318 6.226 17.426 6.744 -164.893 -1304.900 -3464.993 -0.579 0.195 1.072 -0.01 0.57 -0.82 0.01
1 3.40 340 0.431 -9.261 2.231 3.204 14.130 4.822 -164.893 -1304.900 -3464.993 -0.418 0.067 1.160 -0.01 0.57 -0.82 0.01
1 3.41 341 0.345 -9.285 2.385 -2.869 8.118 3.937 -284.964 -1259.929 -3449.853 -0.340 0.089 1.004 -0 0.57 -0.82 0.01
1 3.42 342 0.460 -9.773 2.543 -8.606 2.380 2.136 -284.964 -1259.929 -3449.853 -0.460 0.573 0.833 -0 0.57 -0.82 0.01
1 3.43 343 0.570 -10.123 2.586 -11.688 -1.129 -0.580 -179.883 -1169.988 -3479.983 -0.569 0.916 0.771 -0 0.57 -0.82 0.01
1 3.44 344 0.819 -10.583 2.720 -10.651 -6.714 1.495 -194.873 -1199.968 -3419.872 -0.811 1.367 0.614 -0 0.57 -0.82 0.01
1 3.45 345 1.274 -10.650 3.017 -5.402 -10.468 4.730 -194.873 -1199.968 -3419.872 -1.258 1.427 0.296 -0.01 0.58 -0.82 0.01
1 3.46 346 1.963 -10.951 3.137 0.244 -8.423 3.937 -269.974 -1274.919 -3539.944 -1.947 1.726 0.168 -0.01 0.58 -0.82 0.01
1 3.47 347 2.140 -11.311 4.463 1.587 5.585 -10.834 -224.854 -1199.968 -3539.944 -2.121 2.087 -1.152 -0.01 0.58 -0.82 0.01
1 3.48 348 0.833 -12.048 5.014 -11.627 12.451 -32.013 -119.922 -1124.867 -3419.872 -0.795 2.825 -1.702 -0.01 0.58 -0.82 0.01
1 3.49 349 -0.905 -12.632 4.698 -31.189 -1.221 -48.920 -119.922 -1124.867 -3419.872 0.992 3.402 -1.407 -0.01 0.58 -0.82 0
1 3.50 350 -1.508 -12.714 3.620 -31.281 -33.966 -42.511 -329.935 -1364.861 -3449.853 1.671 3.468 -0.376 -0.01 0.58 -0.82 0
1 3.51 351 0.699 -11.866 2.030 31.403 -44.006 -11.902 -194.873 -1304.900 -3284.960 -0.463 2.610 1.181 -0.02 0.58 -0.81 0
1 3.52 352 2.299 -10.377 2.227 52.612 -18.463 3.937 -194.873 -1304.900 -3284.960 -2.015 1.132 1.014 -0.02 0.58 -0.82 0
1 3.53 353 2.682 -9.438 2.231 30.457 11.963 11.475 -374.906 -1154.998 -3464.993 -2.385 0.220 1.081 -0.02 0.57 -0.82 0
1 3.54 354 1.413 -9.654 2.509 -44.525 17.456 13.611 -494.978 -1229.949 -3314.940 -1.136 0.448 0.840 -0.02 0.57 -0.82 0
1 3.55 355 0.623 -10.233 3.017 -71.930 2.655 11.078 -434.867 -1139.857 -3509.963 -0.360 0.998 0.251 -0.02 0.58 -0.82 0
1 3.56 356 0.781 -10.798 3.381 -60.028 -4.517 10.376 -434.867 -1139.857 -3509.963 -0.528 1.526 -0.217 -0.02 0.58 -0.81 0
1 3.57 357 1.111 -10.904 3.759 -20.783 4.669 14.313 -344.925 -1229.949 -3464.993 -0.873 1.608 -0.666 -0.02 0.58 -0.81 0.01
1 3.58 358 1.259 -10.324 3.884 14.282 25.391 21.210 -359.916 -1214.958 -3149.898 -1.048 1.023 -0.804 -0.02 0.59 -0.81 0.01
1 3.59 359 0.417 -8.754 4.061 17.517 46.478 20.630 -359.916 -1214.958 -3149.898 -0.251 -0.539 -0.953 -0.02 0.58 -0.81 0.01
1 3.60 360 -0.551 -7.920 4.022 -5.127 39.490 9.155 -374.906 -1274.919 -3464.993 0.671 -1.360 -0.876 -0.01 0.58 -0.81 0.01
1 3.61 361 -1.738 -7.456 4.099 -28.198 17.822 -13.214 -359.916 -1169.988 -3329.931 1.809 -1.829 -0.963 -0.01 0.58 -0.81 0
1 3.62 362 -1.839 -7.216 3.730 -24.506 8.392 -19.989 -164.893 -1049.916 -3464.993 1.925 -2.081 -0.632 -0.01 0.58 -0.81 0
1 3.63 363 -1.537 -7.283 3.673 -8.911 8.179 -22.339 -164.893 -1049.916 -3464.993 1.650 -2.023 -0.603 -0.01 0.59 -0.81 0
1 3.64 364 -1.729 -6.929 3.409 6.866 12.146 -27.893 -194.873 -1199.968 -3284.960 1.872 -2.378 -0.344 0.01 -0.59 0.81 0
1 3.65 365 -1.896 -7.054 3.433 12.268 10.529 -36.652 -419.876 -1199.968 -3419.872 2.077 -2.248 -0.353 0.01 -0.59 0.81 0
1 3.66 366 -2.002 -8.131 3.548 -15.289 -9.308 -38.330 -419.876 -1199.968 -3419.872 2.234 -1.164 -0.451 0.01 -0.58 0.81 0
1 3.67 367 -1.480 -8.883 4.214 -43.701 -22.675 -27.344 -344.925 -1154.998 -3314.940 1.771 -0.414 -1.127 0.01 -0.59 0.81 0.01
1 3.68 368 -0.761 -10.042 4.444 -50.659 -18.890 -7.874 -269.974 -1079.896 -3314.940 1.116 0.711 -1.470 0.02 -0.59 0.81 0.01
1 3.69 369 -0.436 -10.248 4.506 -40.405 -14.557 -1.038 -224.854 -1049.916 -3419.872 0.800 0.898 -1.592 0.02 -0.59 0.81 0.01
1 3.70 370 0.139 -9.932 4.204 6.256 -4.120 13.947 -224.854 -1049.916 -3419.872 0.219 0.575 -1.313 0.02 -0.59 0.8 0
1 3.71 371 0.316 -9.290 4.046 19.196 -2.808 17.395 -359.916 -1214.958 -3374.901 0.021 -0.061 -1.133 0.02 -0.59 0.81 0
1 3.72 372 0.503 -9.012 3.778 9.369 -4.150 18.402 -449.857 -1004.945 -3134.908 -0.190 -0.329 -0.830 0.02 -0.59 0.81 0
1 3.73 373 -0.120 -8.897 3.639 -13.275 1.740 18.341 -449.857 -1004.945 -3134.908 0.410 -0.440 -0.677 0.02 -0.59 0.81 0
1 3.74 374 -0.939 -8.974 3.386 -15.564 8.728 17.822 -419.876 -1049.916 -3464.993 1.204 -0.366 -0.431 -0.02 0.59 -0.81 0
1 3.75 375 -1.844 -9.175 3.433 -8.667 11.902 17.120 -449.857 -1124.867 -3284.960 2.078 -0.171 -0.493 -0.02 0.59 -0.81 0
1 3.76 376 -2.911 -9.180 3.160 4.334 3.540 21.912 -344.925 -1124.867 -3284.960 3.059 -0.170 -0.227 -0.01 0.59 -0.81 0.01
1 3.77 377 -2.926 -8.619 2.883 9.583 -6.622 26.154 -344.925 -1124.867 -3284.960 3.019 -0.727 0.064 -0.01 0.59 -0.81 0.01
1 3.78 378 -2.351 -8.495 2.677 8.423 -15.991 29.877 -509.968 -944.984 -3194.869 2.388 -0.846 0.287 -0.01 0.59 -0.81 0.01
1 3.79 379 -1.532 -8.414 2.729 -0.061 -19.348 32.623 -254.984 -1139.857 -3299.950 1.515 -0.924 0.246 -0.01 0.59 -0.81 0.01
1 3.80 380 -0.484 -8.797 3.194 -18.005 -12.634 38.178 -254.984 -1139.857 -3299.950 0.415 -0.541 -0.221 -0.01 0.59 -0.81 0.02
1 3.81 381 -0.139 -9.161 3.491 -25.238 -4.730 40.192 -284.964 -1214.958 -3224.999 0.018 -0.182 -0.535 -0.01 0.59 -0.81 0.02
1 3.82 382 -0.072 -9.726 3.692 -24.750 2.075 38.727 -269.974 -1004.945 -3164.888 -0.104 0.374 -0.765 -0.01 0.59 -0.81 0.02
1 3.83 383 -0.833 -9.979 3.409 -1.465 1.312 33.936 -344.925 -1154.998 -3239.989 0.551 0.616 -0.530 -0 0.59 -0.8 0.03
1 3.84 384 -1.255 -9.568 2.945 15.839 -6.653 30.457 -344.925 -1154.998 -3239.989 0.924 0.209 -0.057 -0 0.59 -0.8 0.03
1 3.85 385 -1.652 -8.926 2.686 21.179 -17.304 27.222 -194.873 -1049.916 -3059.957 1.278 -0.423 0.230 -0 0.59 -0.8 0.03
1 3.86 386 -1.379 -8.643 2.715 14.374 -25.116 25.330 -224.854 -1124.867 -3209.859 0.968 -0.694 0.233 -0 0.59 -0.81 0.04
1 3.87 387 -1.092 -8.734 3.026 1.709 -26.398 23.316 -224.854 -1124.867 -3209.859 0.650 -0.595 -0.060 -0 0.59 -0.81 0.04
1 3.88 388 -0.895 -9.098 2.940 1.465 -23.010 21.851 -119.922 -1079.896 -3209.859 0.427 -0.228 0.032 -0 0.59 -0.81 0.04
1 3.89 389 -0.881 -9.098 2.921 8.179 -21.973 18.280 -224.854 -1079.896 -3284.960 0.388 -0.225 0.057 -0 0.59 -0.81 0.04
1 3.90 390 -0.934 -9.117 2.888 14.771 -23.682 15.198 -224.854 -1079.896 -3284.960 0.422 -0.201 0.103 -0 0.59 -0.81 0.05
1 3.91 391 -1.006 -8.758 2.653 16.632 -26.337 8.850 -344.925 -1124.867 -3134.908 0.472 -0.543 0.386 -0 0.59 -0.81 0.05
1 3.92 392 -1.374 -8.629 2.543 14.954 -28.229 6.683 -134.912 -1139.857 -3374.901 0.839 -0.664 0.521 -0 0.59 -0.81 0.05
1 3.93 393 -1.312 -8.519 2.174 13.916 -29.755 4.761 -299.955 -1079.896 -3209.859 0.777 -0.767 0.913 -0 0.59 -0.81 0.05
1 3.94 394 -1.341 -8.591 2.006 14.191 -31.464 4.272 -299.955 -1079.896 -3209.859 0.808 -0.688 1.101 -0.01 0.58 -0.81 0.05
1 3.95 395 -1.326 -8.639 1.810 10.468 -34.607 3.998 -284.964 -1214.958 -3404.882 0.798 -0.635 1.315 -0.01 0.58 -0.81 0.06
1 3.96 396 -1.422 -8.567 1.868 7.263 -36.682 3.052 -344.925 -1274.919 -3314.940 0.898 -0.702 1.272 -0.01 0.58 -0.81 0.06
1 3.97 397 -1.192 -8.777 1.801 4.944 -37.506 3.082 -344.925 -1274.919 -3314.940 0.675 -0.489 1.347 -0.01 0.58 -0.81 0.06
1 3.98 398 -1.274 -9.180 1.853 6.042 -40.985 2.838 -359.916 -1214.958 -3404.882 0.775 -0.085 1.302 -0.01 0.58 -0.81 0.06
1 3.99 399 -0.972 -9.347 2.198 4.913 -42.633 2.441 -374.906 -1124.867 -3284.960 0.484 0.083 0.961 -0.02 0.58 -0.81 0.07
1 4.00 400 -0.713 -9.625 2.873 1.221 -42.389 2.563 -389.896 -1214.958 -3329.931 0.239 0.362 0.290 -0.02 0.58 -0.81 0.07
1 4.01 401 -0.263 -9.788 3.089 -2.502 -39.734 3.540 -389.896 -1214.958 -3329.931 -0.196 0.524 0.075 -0.02 0.58 -0.81 0.07
1 4.02 402 0.096 -9.802 3.141 -0.916 -33.508 2.747 -509.968 -1094.887 -3374.901 -0.540 0.537 0.022 -0.02 0.58 -0.81 0.07
1 4.03 403 0.239 -9.783 2.706 10.193 -18.677 -0.854 -449.857 -1154.998 -3239.989 -0.666 0.519 0.461 -0.03 0.58 -0.81 0.07
1 4.04 404 -0.163 -9.505 2.255 17.242 -8.392 -2.197 -449.857 -1154.998 -3239.989 -0.247 0.244 0.923 -0.03 0.58 -0.81 0.07
1 4.05 405 -1.111 -9.046 1.398 15.991 -1.495 -3.876 -524.958 -1304.900 -3164.888 0.723 -0.202 1.822 -0.03 0.58 -0.81 0.07
1 4.06 406 -1.710 -9.347 0.666 6.897 -4.211 -2.136 -434.867 -1214.958 -3329.931 1.324 0.103 2.565 -0.03 0.58 -0.81 0.07
1 4.07 407 -2.294 -9.687 0.527 -6.134 -12.970 -0.122 -599.909 -1304.900 -3209.859 1.906 0.440 2.695 -0.03 0.58 -0.81 0.07
1 4.08 408 -2.270 -10.171 1.135 -17.120 -24.414 0.854 -599.909 -1304.900 -3209.859 1.877 0.914 2.058 -0.03 0.58 -0.81 0.07
1 4.09 409 -1.451 -10.980 4.482 -24.201 -33.081 5.798 -614.899 -1289.910 -3404.882 1.056 1.709 -1.331 -0.03 0.58 -0.81 0.08
1 4.10 410 3.816 -14.610 7.365 -35.278 -30.853 70.709 -464.997 -1139.857 -3329.931 -4.211 5.329 -4.244 -0.03 0.58 -0.81 0.08
1 4.11 411 5.186 -12.450 7.322 -58.167 23.010 80.078 -464.997 -1139.857 -3329.931 -5.643 3.159 -4.239 -0.03 0.58 -0.81 0.08
1 4.12 412 1.753 -11.876 1.877 21.545 60.822 33.051 -419.876 -1349.871 -3134.908 -2.426 2.559 1.087 -0.02 0.59 -0.8 0.09
1 4.13 413 0.316 -10.827 0.895 46.539 57.221 27.771 -614.899 -1214.958 -3254.979 -1.059 1.530 2.112 -0.02 0.59 -0.8 0.09
1 4.14 414 -2.782 -9.022 -0.024 49.622 4.364 -16.815 -524.958 -1154.998 -3059.957 2.008 -0.249 3.104 -0.01 0.59 -0.81 0.09
1 4.15 415 -3.285 -9.965 1.925 0.031 -15.442 -34.760 -524.958 -1154.998 -3059.957 2.533 0.705 1.192 -0.01 0.58 -0.81 0.08
1 4.16 416 -2.940 -10.544 5.038 -77.698 -5.829 -16.022 -494.978 -1154.998 -3164.888 2.222 1.268 -1.959 -0.02 0.59 -0.81 0.08
1 4.17 417 -2.342 -12.220 4.808 -116.059 14.954 13.519 -374.906 -1229.949 -3389.892 1.638 2.901 -1.860 -0.02 0.59 -0.8 0.08
1 4.18 418 -2.227 -12.680 4.291 -52.246 10.010 13.153 -374.906 -1229.949 -3389.892 1.503 3.310 -1.514 -0.02 0.6 -0.8 0.08
1 4.19 419 -1.944 -10.746 4.286 20.599 -10.345 10.681 -449.857 -1079.896 -3239.989 1.196 1.347 -1.611 -0.01 0.6 -0.79 0.08
1 4.20 420 -0.963 -8.045 4.769 56.915 -28.992 14.313 -434.867 -1169.988 -3149.898 0.197 -1.328 -2.011 -0.01 0.6 -0.8 0.08
1 4.21 421 -0.148 -7.010 4.654 31.738 -19.074 25.848 -494.978 -1199.968 -3059.957 -0.631 -2.333 -1.802 -0.02 0.6 -0.8 0.09
1 4.22 422 0.680 -6.738 4.310 -5.646 -5.859 37.628 -494.978 -1199.968 -3059.957 -1.493 -2.589 -1.412 -0.01 0.59 -0.8 0.09
1 4.23 423 1.125 -7.168 3.965 -34.760 3.784 41.077 -584.919 -1064.906 -3149.898 -1.992 -2.159 -1.085 -0.01 0.59 -0.8 0.09
1 4.24 424 1.188 -9.156 4.817 -56.671 19.867 29.175 -509.968 -1169.988 -3194.869 -2.113 -0.183 -1.994 -0.01 0.6 -0.8 0.09
1 4.25 425 0.594 -10.549 5.411 -56.153 28.137 18.066 -509.968 -1169.988 -3194.869 -1.564 1.194 -2.659 -0.01 0.6 -0.79 0.09
1 4.26 426 0.206 -11.272 5.354 -32.776 28.290 7.355 -539.948 -1094.887 -3254.979 -1.207 1.898 -2.678 -0.01 0.6 -0.79 0.09
1 4.27 427 -0.043 -10.257 3.960 33.020 18.951 -10.010 -419.876 -1154.998 -3104.927 -0.989 0.868 -1.349 -0 0.61 -0.79 0.09
1 4.28 428 -0.369 -8.998 3.323 57.495 21.362 -17.487 -524.958 -1124.867 -3134.908 -0.652 -0.376 -0.654 -0 0.6 -0.79 0.09
1 4.29 429 -0.862 -8.054 2.696 44.953 25.910 -21.301 -524.958 -1124.867 -3134.908 -0.135 -1.298 0.059 -0 0.6 -0.8 0.09
1 4.30 430 -1.283 -7.595 2.696 6.470 25.055 -25.147 -344.925 -884.874 -3239.989 0.309 -1.744 0.110 -0 0.6 -0.8 0.09
1 4.31 431 -1.188 -7.676 2.605 -30.396 12.787 -29.205 -374.906 -1124.867 -3164.888 0.242 -1.668 0.194 -0 0.6 -0.8 0.08
1 4.32 432 -0.335 -8.691 2.902 -38.757 -8.667 -37.995 -374.906 -1124.867 -3164.888 -0.569 -0.672 -0.154 -0 0.6 -0.8 0.08
1 4.33 433 0.766 -9.180 3.318 -20.691 -13.489 -44.006 -449.857 -1124.867 -3284.960 -1.613 -0.205 -0.624 -0 0.6 -0.79 0.08
1 4.34 434 1.446 -9.026 3.759 1.129 -9.918 -47.852 -449.857 -1124.867 -3284.960 -2.220 -0.373 -1.096 -0.01 0.6 -0.79 0.08
1 4.35 435 1.671 -8.447 3.414 13.489 5.768 -50.171 -419.876 -1154.998 -3104.927 -2.268 -0.956 -0.720 -0.01 0.6 -0.8 0.07
1 4.36 436 1.226 -8.289 2.983 1.312 15.198 -47.516 -419.876 -1154.998 -3104.927 -1.737 -1.112 -0.264 -0.02 0.6 -0.8 0.06
1 4.37 437 0.508 -8.394 2.993 -18.127 18.372 -44.098 -539.948 -1139.857 -3194.869 -0.944 -1.011 -0.273 -0.02 0.6 -0.8 0.06
1 4.38 438 -0.077 -8.935 2.801 -27.680 12.970 -39.948 -599.909 -1049.916 -3104.927 -0.297 -0.480 -0.108 -0.02 0.6 -0.8 0.06
1 4.39 439 -0.091 -9.505 2.806 -13.611 3.906 -32.196 -599.909 -1049.916 -3104.927 -0.227 0.078 -0.148 -0.02 0.6 -0.8 0.05
1 4.40 440 0.321 -9.266 2.768 2.441 3.510 -26.428 -419.876 -1004.945 -3134.908 -0.589 -0.169 -0.132 -0.02 0.6 -0.79 0.05
1 4.41 441 0.417 -8.591 2.701 12.756 6.561 -22.064 -419.876 -1004.945 -3134.908 -0.643 -0.845 -0.064 -0.02 0.6 -0.79 0.05
1 4.42 442 0.350 -8.217 2.514 5.646 11.505 -19.226 -539.948 -914.854 -3119.917 -0.509 -1.209 0.162 -0.03 0.6 -0.8 0.05
1 4.43 443 -0.014 -8.251 2.461 -5.493 9.125 -18.463 -539.948 -914.854 -3119.917 -0.121 -1.174 0.220 -0.03 0.6 -0.8 0.05
1 4.44 444 0.000 -8.701 2.524 -10.254 5.280 -17.975 -599.909 -1004.945 -3029.976 -0.111 -0.727 0.149 -0.03 0.6 -0.8 0.04
1 4.45 445 0.139 -9.141 2.715 -5.798 3.876 -14.221 -674.860 -959.975 -3059.957 -0.226 -0.290 -0.055 -0.03 0.6 -0.8 0.04
1 4.46 446 0.402 -9.137 2.830 4.028 8.423 -8.545 -674.860 -959.975 -3059.957 -0.470 -0.296 -0.172 -0.03 0.6 -0.8 0.04
1 4.47 447 0.522 -8.878 2.658 17.883 15.472 -4.028 -599.909 -1004.945 -3104.927 -0.579 -0.551 0.014 -0.03 0.6 -0.8 0.04
1 4.48 448 0.613 -8.773 2.552 17.639 15.869 -2.594 -599.909 -1004.945 -3104.927 -0.664 -0.648 0.146 -0.03 0.6 -0.8 0.04
1 4.49 449 0.670 -8.840 2.629 6.256 12.268 -2.747 -629.890 -929.994 -3284.960 -0.714 -0.568 0.117 -0.03 0.6 -0.8 0.04
1 4.50 450 0.613 -8.940 2.576 2.502 10.498 -1.831 -629.890 -929.994 -3284.960 -0.652 -0.464 0.179 -0.03 0.6 -0.8 0.04
1 4.51 451 0.666 -9.007 2.500 5.920 12.085 2.258 -569.929 -1049.916 -3209.859 -0.701 -0.396 0.261 -0.03 0.6 -0.8 0.04
1 4.52 452 0.723 -8.811 2.102 13.641 15.411 6.500 -509.968 -1139.857 -3149.898 -0.763 -0.588 0.671 -0.03 0.6 -0.8 0.04
1 4.53 453 0.915 -8.528 1.920 22.827 20.905 11.444 -509.968 -1139.857 -3149.898 -0.965 -0.864 0.875 -0.02 0.6 -0.8 0.04
1 4.54 454 1.135 -8.251 1.499 21.179 22.553 13.275 -494.978 -1079.896 -3134.908 -1.205 -1.133 1.327 -0.02 0.6 -0.8 0.04
1 4.55 455 1.178 -8.294 1.374 14.587 25.879 14.130 -494.978 -1079.896 -3134.908 -1.275 -1.079 1.485 -0.02 0.59 -0.8 0.04
1 4.56 456 1.111 -8.749 1.346 1.160 32.745 11.169 -374.906 -1124.867 -3209.859 -1.269 -0.612 1.550 -0.02 0.59 -0.8 0.04
1 4.57 457 0.800 -9.146 1.456 -2.533 35.156 8.820 -374.906 -1124.867 -3209.859 -0.976 -0.218 1.430 -0.02 0.59 -0.8 0.04
1 4.58 458 -0.397 -9.553 1.954 -12.360 33.936 5.188 -599.909 -1124.867 -3134.908 0.202 0.184 0.912 -0.01 0.59 -0.8 0.03
1 4.59 459 -1.044 -9.912 2.303 -14.252 23.621 3.876 -584.919 -1139.857 -3119.917 0.829 0.536 0.537 -0.01 0.6 -0.8 0.03
1 4.60 460 -1.116 -10.018 2.490 -7.935 7.263 3.082 -584.919 -1139.857 -3119.917 0.883 0.634 0.328 -0.01 0.6 -0.8 0.03
1 4.61 461 -0.311 -9.663 2.145 9.277 -13.641 -0.885 -464.997 -1064.906 -3119.917 0.068 0.277 0.662 -0.01 0.6 -0.8 0.03
1 4.62 462 0.306 -9.208 2.399 16.602 -15.411 -2.411 -464.997 -1064.906 -3119.917 -0.548 -0.176 0.415 -0.01 0.6 -0.8 0.04
1 4.63 463 1.025 -9.204 2.107 10.956 -8.087 -2.411 -374.906 -1124.867 -3104.927 -1.254 -0.175 0.727 -0.01 0.6 -0.8 0.04
1 4.64 464 1.662 -10.195 2.026 -12.116 7.355 1.495 -494.978 -1154.998 -3059.957 -1.863 0.821 0.824 -0.01 0.6 -0.8 0.04
1 4.65 465 1.532 -10.995 4.204 -26.886 14.313 0.793 -464.997 -1019.936 -3254.979 -1.727 1.611 -1.384 -0.01 0.6 -0.8 0.04
1 4.66 466 0.005 -12.862 3.611 -16.541 43.152 -31.860 -434.867 -1064.906 -3119.917 -0.200 3.468 -0.827 -0.01 0.6 -0.8 0.03
1 4.67 467 -3.108 -12.249 5.512 -41.199 28.381 -62.378 -434.867 -1064.906 -3119.917 2.956 2.847 -2.754 -0.01 0.6 -0.8 0.03
1 4.68 468 -4.075 -13.422 3.409 -52.124 -44.403 -68.451 -464.997 -1064.906 -3194.869 4.010 3.997 -0.726 -0.02 0.6 -0.8 0.03
1 4.69 469 -2.399 -13.657 1.810 6.989 -63.568 -54.779 -464.997 -1064.906 -3194.869 2.448 4.208 0.787 -0.02 0.61 -0.79 0.02
1 4.70 470 -0.479 -11.703 2.677 52.155 -56.214 -21.210 -359.916 -1019.936 -3119.917 0.639 2.252 -0.091 -0.03 0.61 -0.79 0.02
1 4.71 471 1.413 -10.066 2.308 55.512 -7.935 15.533 -449.857 -884.874 -2954.875 -1.173 0.660 0.434 -0.03 0.6 -0.8 0.03
1 4.72 472 1.341 -9.017 3.357 -13.428 -7.568 21.301 -419.876 -1049.916 -3059.957 -1.116 -0.372 -0.557 -0.03 0.6 -0.8 0.03
1 4.73 473 1.489 -8.524 4.645 -90.515 -33.600 23.163 -569.929 -959.975 -3134.908 -1.280 -0.879 -1.891 -0.03 0.6 -0.8 0.03
1 4.74 474 2.275 -9.323 4.851 -114.319 -43.976 17.792 -569.929 -959.975 -3134.908 -2.072 -0.117 -2.228 -0.04 0.6 -0.8 0.03
1 4.75 475 2.567 -10.501 4.573 -79.712 -23.590 11.017 -539.948 -914.854 -3074.947 -2.356 1.023 -2.091 -0.04 0.61 -0.79 0.03
1 4.76 476 1.623 -9.414 4.592 15.900 26.947 14.557 -539.948 -914.854 -3074.947 -1.422 -0.087 -2.202 -0.04 0.61 -0.79 0.04
1 4.77 477 -0.134 -7.719 4.362 52.521 41.412 2.472 -524.958 -1049.916 -3029.976 0.309 -1.782 -1.969 -0.04 0.61 -0.79 0.04
1 4.78 478 -1.820 -6.575 3.907 51.026 29.999 -24.475 -539.948 -914.854 -3074.947 1.979 -2.905 -1.429 -0.04 0.61 -0.79 0.03
1 4.79 479 -2.591 -7.786 2.816 -5.157 -13.336 -55.695 -659.870 -869.883 -3074.947 2.823 -1.657 -0.205 -0.04 0.6 -0.8 0.03
1 4.80 480 -2.212 -9.314 3.376 -50.598 -38.178 -57.007 -569.929 -959.975 -3104.927 2.537 -0.133 -0.789 -0.04 0.61 -0.79 0.03
1 4.81 481 -1.494 -10.832 4.453 -70.069 -45.929 -45.288 -569.929 -959.975 -3104.927 1.894 1.367 -1.945 -0.05 0.61 -0.79 0.03
1 4.82 482 -1.097 -12.120 4.712 -53.497 -41.809 -27.283 -690.000 -989.955 -3074.947 1.574 2.632 -2.304 -0.05 0.61 -0.79 0.03
1 4.83 483 -0.369 -11.746 4.128 8.087 -38.757 0.854 -690.000 -989.955 -3074.947 0.896 2.245 -1.786 -0.05 0.61 -0.79 0.03
1 4.84 484 0.718 -10.401 3.941 36.987 -39.765 13.977 -599.909 -884.874 -2954.875 -0.170 0.899 -1.605 -0.06 0.61 -0.79 0.03
1 4.85 485 1.686 -9.275 3.630 31.433 -41.626 19.440 -704.991 -1004.945 -2984.855 -1.138 -0.215 -1.249 -0.06 0.61 -0.79 0.03
1 4.86 486 2.351 -8.533 3.596 -5.005 -29.968 21.454 -734.971 -794.932 -3044.966 -1.817 -0.938 -1.136 -0.06 0.61 -0.79 0.04
1 4.87 487 1.839 -8.481 3.615 -17.700 -12.573 20.813 -659.870 -869.883 -3074.947 -1.311 -0.992 -1.160 -0.06 0.61 -0.79 0.04
1 4.88 488 0.982 -8.897 3.553 -18.524 4.028 20.203 -659.870 -869.883 -3074.947 -0.468 -0.580 -1.113 -0.07 0.61 -0.79 0.04
1 4.89 489 -0.230 -9.405 3.500 -13.886 12.817 24.139 -659.870 -869.883 -3014.986 0.717 -0.078 -1.074 -0.06 0.61 -0.79 0.04
1 4.90 490 -1.044 -9.635 3.534 -9.674 14.099 29.266 -659.870 -869.883 -3014.986 1.488 0.148 -1.115 -0.06 0.61 -0.79 0.04
1 4.91 491 -1.561 -9.606 2.998 -0.275 7.690 33.630 -690.000 -914.854 -3014.986 1.947 0.117 -0.580 -0.06 0.61 -0.79 0.04
1 4.92 492 -1.542 -9.414 2.442 8.118 1.495 32.868 -839.903 -869.883 -2939.885 1.864 -0.076 -0.018 -0.06 0.61 -0.79 0.05
1 4.93 493 -1.039 -8.840 2.480 7.141 -5.249 27.680 -599.909 -884.874 -2954.875 1.244 -0.646 -0.027 -0.05 0.61 -0.79 0.05
1 4.94 494 -0.579 -8.720 2.485 -2.289 -3.784 26.367 -599.909 -1004.945 -2909.904 0.738 -0.764 -0.022 -0.05 0.61 -0.79 0.05
1 4.95 495 -0.311 -8.859 2.433 -10.895 1.587 26.428 -599.909 -1004.945 -2909.904 0.427 -0.627 0.027 -0.05 0.61 -0.79 0.06
1 4.96 496 -0.460 -8.878 2.126 -10.895 8.514 25.482 -629.890 -584.919 -2954.875 0.534 -0.611 0.321 -0.05 0.61 -0.79 0.06
1 4.97 497 -0.852 -8.782 2.030 -1.648 10.345 23.102 -629.890 -584.919 -2954.875 0.885 -0.710 0.405 -0.05 0.61 -0.79 0.06
1 4.98 498 -1.470 -8.457 1.489 8.118 4.334 16.998 -704.991 -779.942 -2984.855 1.463 -1.036 0.947 -0.05 0.61 -0.79 0.06
1 4.99 499 -1.810 -8.457 1.796 4.974 -3.632 14.923 -584.919 -674.860 -3014.986 1.766 -1.033 0.649 -0.05 0.61 -0.79 0.06
1 5.00 500 -2.150 -8.720 2.284 -6.836 -13.916 15.350 -614.899 -839.903 -2939.885 2.049 -0.768 0.167 -0.04 0.61 -0.79 0.06
1 5.01 501 -2.222 -8.864 2.471 -8.057 -16.113 15.686 -599.909 -809.922 -2909.904 2.090 -0.626 -0.029 -0.04 0.61 -0.79 0.07
1 5.02 502 -2.169 -9.007 2.361 0.366 -22.522 18.189 -599.909 -809.922 -2909.904 2.005 -0.483 0.076 -0.04 0.61 -0.79 0.07
1 5.03 503 -2.140 -8.749 2.054 11.993 -30.792 17.120 -539.948 -839.903 -2894.914 1.945 -0.739 0.390 -0.04 0.61 -0.79 0.07
1 5.04 504 -2.059 -8.337 1.954 20.996 -43.335 12.421 -539.948 -839.903 -2894.914 1.839 -1.145 0.514 -0.04 0.61 -0.79 0.08
1 5.05 505 -1.374 -7.801 1.710 23.712 -59.662 5.371 -749.961 -884.874 -2984.855 1.148 -1.672 0.794 -0.05 0.61 -0.79 0.08
1 5.06 506 -0.910 -7.470 1.805 20.233 -62.470 0.977 -539.948 -794.932 -2939.885 0.698 -1.992 0.737 -0.05 0.61 -0.79 0.08
1 5.07 507 -0.685 -7.379 1.614 13.733 -57.221 -2.167 -539.948 -794.932 -2939.885 0.496 -2.074 0.963 -0.05 0.6 -0.79 0.08
1 5.08 508 -0.757 -8.045 1.178 6.287 -43.091 -2.960 -779.942 -779.942 -2879.924 0.620 -1.398 1.441 -0.06 0.6 -0.79 0.09
1 5.09 509 -0.924 -8.653 1.250 2.319 -37.048 -0.244 -779.942 -779.942 -2879.924 0.809 -0.787 1.379 -0.06 0.6 -0.79 0.09
1 5.10 510 -0.584 -9.161 1.978 -4.150 -34.454 6.714 -914.854 -839.903 -3014.986 0.482 -0.279 0.655 -0.06 0.6 -0.79 0.09
1 5.11 511 0.153 -9.697 2.619 -11.566 -29.236 16.357 -914.854 -839.903 -3014.986 -0.258 0.254 0.001 -0.07 0.6 -0.79 0.1
1 5.12 512 1.216 -10.147 3.165 -10.895 -13.458 24.323 -764.952 -869.883 -3044.966 -1.334 0.700 -0.562 -0.07 0.6 -0.79 0.1
1 5.13 513 0.991 -10.137 3.156 -1.770 0.702 23.102 -929.994 -809.922 -3104.927 -1.129 0.687 -0.565 -0.07 0.6 -0.79 0.1
1 5.14 514 0.354 -9.864 2.557 10.437 10.407 16.174 -929.994 -809.922 -3104.927 -0.513 0.414 0.032 -0.07 0.6 -0.79 0.1
1 5.15 515 -0.637 -9.706 1.437 23.010 8.667 5.188 -659.870 -869.883 -3044.966 0.444 0.268 1.193 -0.06 0.6 -0.79 0.1
1 5.16 516 -1.264 -9.687 1.149 22.888 0.671 0.061 -659.870 -869.883 -3044.966 1.062 0.257 1.508 -0.06 0.6 -0.79 0.1
1 5.17 517 -1.686 -10.104 0.752 12.878 -8.484 -2.655 -764.952 -869.883 -3014.986 1.478 0.679 1.926 -0.06 0.6 -0.79 0.1
1 5.18 518 -2.097 -10.640 0.709 -0.610 -16.754 -3.998 -764.952 -869.883 -3014.986 1.890 1.216 1.971 -0.06 0.6 -0.79 0.1
1 5.19 519 -2.126 -11.062 2.107 -10.284 -22.736 -4.150 -779.942 -884.874 -2909.904 1.926 1.634 0.562 -0.06 0.6 -0.79 0.1
1 5.20 520 0.259 -14.481 3.649 -10.010 -29.541 21.393 -779.942 -809.922 -3104.927 -0.444 5.049 -0.995 -0.07 0.6 -0.79 0.1
1 5.21 521 3.773 -14.203 7.552 -33.386 -15.991 73.639 -779.942 -809.922 -3104.927 -3.966 4.767 -4.913 -0.07 0.6 -0.79 0.11
1 5.22 522 3.869 -13.365 3.227 -17.578 57.373 45.929 -764.952 -869.883 -3044.966 -4.253 3.907 -0.688 -0.06 0.61 -0.79 0.11
1 5.23 523 2.466 -13.442 1.791 20.508 74.677 32.318 -764.952 -869.883 -3044.966 -2.931 3.987 0.748 -0.06 0.61 -0.79 0.11
1 5.24 524 -2.749 -9.826 0.005 75.989 74.585 21.179 -674.860 -779.942 -2909.904 2.211 0.400 2.622 -0.05 0.6 -0.79 0.11
1 5.25 525 -4.200 -9.486 -0.493 36.835 23.804 -7.080 -674.860 -779.942 -2909.904 3.608 0.088 3.206 -0.04 0.6 -0.79 0.11
1 5.26 526 -3.946 -10.176 2.389 -38.178 -5.219 -20.844 -690.000 -794.932 -3044.966 3.342 0.780 0.329 -0.04 0.6 -0.79 0.11
1 5.27 527 -3.477 -11.924 3.405 -106.049 -1.465 -12.604 -659.870 -794.932 -3119.917 2.891 2.502 -0.773 -0.04 0.6 -0.79 0.11
1 5.28 528 -2.586 -13.336 3.261 -76.508 -5.432 -4.486 -659.870 -794.932 -3119.917 2.022 3.873 -0.776 -0.04 0.61 -0.78 0.1
1 5.29 529 -1.628 -12.718 4.027 -13.702 -15.045 3.387 -584.919 -944.984 -3044.966 1.077 3.223 -1.667 -0.05 0.61 -0.78 0.1
1 5.30 530 -0.354 -9.908 4.434 46.356 -26.062 6.012 -539.948 -839.903 -2969.865 -0.193 0.412 -2.075 -0.05 0.61 -0.78 0.11
1 5.31 531 0.297 -8.543 4.444 37.781 -20.416 8.087 -629.890 -809.922 -2879.924 -0.843 -0.935 -2.013 -0.05 0.61 -0.78 0.11
1 5.32 532 0.484 -7.599 4.496 7.874 -7.721 18.951 -629.890 -809.922 -2879.924 -1.033 -1.862 -2.002 -0.05 0.61 -0.78 0.11
1 5.33 533 0.608 -7.547 4.200 -16.541 4.700 32.959 -629.890 -584.919 -3029.976 -1.180 -1.908 -1.685 -0.05 0.61 -0.79 0.11
1 5.34 534 0.723 -7.920 3.802 -23.590 11.658 40.253 -584.919 -644.880 -2939.885 -1.348 -1.538 -1.314 -0.05 0.61 -0.78 0.11
1 5.35 535 1.164 -8.873 4.099 -22.247 12.604 45.960 -584.919 -644.880 -2939.885 -1.853 -0.589 -1.645 -0.04 0.61 -0.78 0.11
1 5.36 536 1.561 -9.491 4.865 -24.597 19.043 41.138 -584.919 -719.981 -3074.947 -2.307 0.028 -2.430 -0.04 0.61 -0.78 0.11
1 5.37 537 1.628 -10.300 5.200 -21.088 36.835 26.032 -674.860 -704.991 -2954.875 -2.475 0.833 -2.815 -0.04 0.61 -0.78 0.12
1 5.38 538 1.025 -10.468 4.458 -0.580 39.063 15.656 -584.919 -749.961 -3014.986 -1.919 0.998 -2.101 -0.03 0.62 -0.78 0.12
1 5.39 539 0.541 -9.635 3.453 29.389 32.929 3.448 -584.919 -749.961 -3014.986 -1.466 0.169 -1.089 -0.03 0.62 -0.78 0.11
1 5.40 540 0.086 -8.892 3.065 49.286 28.870 -7.080 -524.958 -659.870 -3059.957 -1.017 -0.559 -0.648 -0.03 0.61 -0.78 0.11
1 5.41 541 -0.316 -8.423 3.065 42.755 32.166 -14.221 -494.978 -659.870 -2984.855 -0.603 -1.010 -0.573 -0.03 0.61 -0.78 0.11
1 5.42 542 -0.713 -8.165 3.113 -0.549 39.337 -25.208 -494.978 -659.870 -2984.855 -0.189 -1.256 -0.566 -0.02 0.61 -0.79 0.11
1 5.43 543 -0.986 -8.595 2.816 -20.416 32.684 -31.311 -269.974 -779.942 -2909.904 0.104 -0.825 -0.262 -0.02 0.61 -0.79 0.1
1 5.44 544 -0.575 -9.256 2.720 -8.575 10.040 -40.711 -374.906 -779.942 -3029.976 -0.235 -0.184 -0.217 -0.02 0.61 -0.79 0.1
1 5.45 545 -0.345 -9.180 2.753 1.801 4.028 -44.037 -494.978 -704.991 -3134.908 -0.405 -0.266 -0.253 -0.02 0.61 -0.79 0.09
1 5.46 546 0.838 -8.849 3.141 24.811 -2.228 -49.957 -494.978 -704.991 -3134.908 -1.512 -0.595 -0.612 -0.03 0.61 -0.79 0.09
1 5.47 547 1.355 -8.615 3.146 25.360 3.937 -47.089 -434.867 -644.880 -3074.947 -1.946 -0.823 -0.573 -0.03 0.61 -0.79 0.09
1 5.48 548 1.623 -8.160 2.969 17.090 16.113 -41.199 -539.948 -719.981 -3014.986 -2.137 -1.271 -0.354 -0.03 0.6 -0.79 0.08
1 5.49 549 1.164 -8.466 2.691 -1.648 32.196 -33.814 -539.948 -719.981 -3014.986 -1.611 -0.961 -0.051 -0.03 0.6 -0.79 0.08
1 5.50 550 0.555 -8.744 2.686 -8.850 34.454 -32.471 -539.948 -869.883 -3254.979 -0.950 -0.684 -0.040 -0.03 0.6 -0.79 0.07
1 5.51 551 -0.038 -9.285 2.844 -7.568 31.738 -33.203 -419.876 -779.942 -3059.957 -0.312 -0.147 -0.207 -0.03 0.6 -0.79 0.07
1 5.52 552 -0.192 -9.678 2.978 8.362 20.935 -30.518 -419.876 -704.991 -3104.927 -0.080 0.241 -0.349 -0.03 0.6 -0.79 0.06
1 5.53 553 -0.120 -9.386 2.820 19.653 16.998 -26.337 -419.876 -704.991 -3104.927 -0.116 -0.047 -0.172 -0.03 0.6 -0.79 0.06
1 5.54 554 0.034 -9.113 2.830 23.316 16.144 -21.637 -509.968 -569.929 -3149.898 -0.238 -0.311 -0.149 -0.03 0.6 -0.8 0.06
1 5.55 555 0.393 -8.768 3.089 18.677 17.700 -18.036 -584.919 -794.932 -3149.898 -0.572 -0.646 -0.371 -0.03 0.6 -0.8 0.06
1 5.56 556 0.445 -8.907 3.184 7.904 21.484 -14.862 -584.919 -794.932 -3149.898 -0.602 -0.499 -0.438 -0.03 0.6 -0.8 0.05
1 5.57 557 0.340 -9.208 3.041 7.416 21.301 -13.763 -449.857 -704.991 -3029.976 -0.478 -0.192 -0.276 -0.03 0.6 -0.8 0.05
1 5.58 558 0.182 -9.026 2.811 14.587 18.982 -13.672 -614.899 -839.903 -3044.966 -0.304 -0.370 -0.030 -0.03 0.6 -0.8 0.05
1 5.59 559 0.144 -8.581 2.720 28.931 18.494 -13.580 -494.978 -734.971 -3164.888 -0.235 -0.799 0.116 -0.03 0.6 -0.8 0.05
1 5.60 560 0.057 -8.184 2.260 31.250 21.332 -12.665 -494.978 -734.971 -3164.888 -0.135 -1.183 0.621 -0.03 0.59 -0.8 0.05
1 5.61 561 -0.029 -7.925 2.040 26.367 22.736 -10.223 -389.896 -719.981 -3149.898 -0.040 -1.428 0.886 -0.03 0.59 -0.8 0.04
1 5.62 562 0.067 -7.882 1.858 18.890 22.675 -6.653 -539.948 -794.932 -3194.869 -0.132 -1.459 1.105 -0.03 0.59 -0.81 0.04
1 5.63 563 0.163 -8.169 1.805 12.451 22.034 -3.662 -539.948 -794.932 -3194.869 -0.229 -1.163 1.184 -0.03 0.59 -0.81 0.04
1 5.64 564 0.589 -8.270 1.590 10.071 23.316 -0.061 -509.968 -839.903 -3119.917 -0.661 -1.057 1.417 -0.03 0.59 -0.81 0.04
1 5.65 565 0.790 -8.409 1.628 12.451 28.137 1.984 -509.968 -839.903 -3374.901 -0.871 -0.913 1.395 -0.02 0.59 -0.81 0.04
1 5.66 566 0.599 -8.768 1.686 9.613 37.506 5.737 -584.919 -794.932 -3254.979 -0.714 -0.542 1.374 -0.02 0.59 -0.81 0.04
1 5.67 567 0.393 -8.734 1.633 8.423 39.398 7.538 -584.919 -794.932 -3254.979 -0.529 -0.573 1.432 -0.02 0.59 -0.81 0.04
1 5.68 568 0.249 -8.854 1.824 4.944 44.068 9.644 -329.935 -749.961 -3194.869 -0.412 -0.452 1.242 -0.02 0.59 -0.81 0.04
1 5.69 569 0.120 -9.170 1.978 5.188 45.014 11.414 -434.867 -914.854 -3119.917 -0.313 -0.136 1.089 -0.01 0.59 -0.81 0.03
1 5.70 570 -0.239 -9.232 2.413 5.280 43.335 12.146 -434.867 -914.854 -3119.917 0.012 -0.073 0.654 -0.01 0.59 -0.81 0.03
1 5.71 571 -0.776 -9.208 3.089 2.777 28.931 9.186 -299.955 -854.893 -3209.859 0.514 -0.095 -0.018 -0.01 0.59 -0.81 0.03
1 5.72 572 -0.986 -9.429 3.122 -0.549 12.695 2.258 -179.883 -794.932 -3254.979 0.694 0.128 -0.048 -0 0.59 -0.81 0.03
1 5.73 573 -0.809 -9.668 2.557 0.763 -2.502 -4.822 -179.883 -794.932 -3254.979 0.499 0.368 0.519 -0 0.59 -0.81 0.03
1 5.74 574 0.091 -9.615 1.791 9.827 -19.562 -9.430 -254.984 -674.860 -3254.979 -0.385 0.317 1.291 -0 0.59 -0.81 0.03
1 5.75 575 1.288 -9.673 1.484 11.871 -16.968 -6.226 -434.867 -914.854 -3254.979 -1.558 0.377 1.607 -0.01 0.59 -0.81 0.03
1 5.76 576 2.112 -9.927 1.595 4.456 -2.228 -2.930 -269.974 -884.874 -3239.989 -2.357 0.632 1.503 -0.01 0.58 -0.81 0.03
1 5.77 577 2.069 -10.099 2.567 -12.878 16.296 -0.793 -269.974 -884.874 -3239.989 -2.295 0.801 0.520 -0.01 0.59 -0.81 0.03
1 5.78 578 0.570 -10.453 3.879 -25.910 36.224 -10.925 -254.984 -989.955 -3254.979 -0.785 1.145 -0.823 -0.01 0.59 -0.81 0.03
1 5.79 579 -4.616 -11.411 3.510 -37.140 43.884 -57.800 -224.854 -809.922 -3389.892 4.409 2.091 -0.489 -0.01 0.59 -0.81 0.03
1 5.80 580 -6.335 -11.957 3.146 -59.754 -16.357 -67.749 -224.854 -809.922 -3389.892 6.180 2.622 -0.168 -0 0.59 -0.81 0.02
1 5.81 581 -3.951 -13.149 1.571 -3.540 -72.754 -58.075 -284.964 -914.854 -3329.931 4.014 3.772 1.274 -0.01 0.6 -0.8 0.01
1 5.82 582 -1.413 -11.631 2.006 33.814 -74.921 -26.947 -344.925 -779.942 -3314.940 1.584 2.258 0.848 -0.02 0.59 -0.8 0.01
1 5.83 583 0.915 -10.157 2.519 48.157 -48.828 8.026 -584.919 -749.961 -3299.950 -0.686 0.802 0.392 -0.03 0.59 -0.81 0.02
1 5.84 584 2.246 -9.999 2.327 25.543 -17.853 24.384 -584.919 -749.961 -3299.950 -2.015 0.664 0.647 -0.03 0.59 -0.81 0.02
1 5.85 585 2.490 -9.520 3.754 -38.971 -16.022 30.762 -584.919 -719.981 -3224.999 -2.276 0.188 -0.769 -0.03 0.59 -0.81 0.02
1 5.86 586 2.485 -9.481 5.387 -112.488 -33.478 26.856 -344.925 -779.942 -3314.940 -2.289 0.124 -2.480 -0.03 0.59 -0.8 0.02
1 5.87 587 2.394 -10.037 5.282 -93.476 -27.130 12.543 -344.925 -779.942 -3314.940 -2.217 0.635 -2.522 -0.03 0.6 -0.8 0.03
1 5.88 588 1.413 -9.864 4.688 -3.113 6.165 5.585 -449.857 -704.991 -3284.960 -1.250 0.401 -2.147 -0.03 0.61 -0.79 0.03
1 5.89 589 0.905 -9.098 4.496 26.367 14.435 4.028 -464.997 -719.981 -3119.917 -0.752 -0.360 -1.937 -0.03 0.61 -0.79 0.03
1 5.90 590 -1.077 -6.891 3.936 66.040 15.411 -23.193 -449.857 -704.991 -3104.927 1.236 -2.541 -1.279 -0.03 0.6 -0.8 0.03
1 5.91 591 -2.212 -6.364 3.184 47.852 1.953 -46.204 -449.857 -704.991 -3104.927 2.409 -3.040 -0.433 -0.03 0.6 -0.8 0.03
1 5.92 592 -2.543 -7.145 2.701 1.770 -15.900 -57.617 -599.909 -584.919 -3209.859 2.814 -2.241 0.107 -0.04 0.6 -0.8 0.02
1 5.93 593 -2.198 -10.123 4.075 -88.257 -39.246 -53.253 -434.867 -644.880 -3254.979 2.563 0.735 -1.286 -0.04 0.6 -0.8 0.02
1 5.94 594 -2.356 -12.575 4.391 -106.507 -46.356 -36.163 -434.867 -644.880 -3254.979 2.807 3.160 -1.707 -0.04 0.6 -0.8 0.02
1 5.95 595 -1.762 -13.710 4.243 -63.965 -53.375 -11.993 -629.890 -734.971 -3059.957 2.291 4.257 -1.713 -0.05 0.61 -0.79 0.02
1 5.96 596 0.417 -12.000 4.358 40.314 -56.305 17.792 -704.991 -509.968 -3059.957 0.175 2.517 -1.959 -0.06 0.61 -0.79 0.02
1 5.97 597 1.796 -10.032 4.070 61.981 -50.293 27.557 -599.909 -659.870 -3134.908 -1.214 0.566 -1.603 -0.06 0.61 -0.79 0.03
1 5.98 598 2.433 -8.734 3.697 35.614 -39.642 31.952 -599.909 -659.870 -3134.908 -1.873 -0.712 -1.148 -0.06 0.61 -0.79 0.03
1 5.99 599 2.303 -7.992 3.515 -4.822 -22.980 32.654 -704.991 -584.919 -3239.989 -1.762 -1.443 -0.922 -0.06 0.6 -0.79 0.04
1 6.00 600 0.666 -8.299 3.065 -31.098 0.549 28.534 -764.952 -569.929 -3299.950 -0.148 -1.140 -0.480 -0.06 0.6 -0.79 0.04
1 6.01 601 -0.656 -9.084 3.208 -25.574 5.280 30.823 -764.952 -569.929 -3299.950 1.134 -0.368 -0.664 -0.06 0.61 -0.79 0.04
1 6.02 602 -1.393 -9.611 3.299 -15.259 4.425 36.438 -674.860 -539.948 -3284.960 1.826 0.148 -0.788 -0.06 0.61 -0.79 0.04
1 6.03 603 -1.901 -9.596 3.079 1.221 -3.296 43.610 -674.860 -704.991 -3209.859 2.199 0.123 -0.589 -0.06 0.61 -0.79 0.05
1 6.04 604 -1.815 -9.055 2.677 8.667 -9.033 43.518 -599.909 -509.968 -3134.908 2.036 -0.418 -0.175 -0.05 0.61 -0.79 0.05
1 6.05 605 -1.484 -8.797 2.567 6.928 -11.688 39.642 -599.909 -509.968 -3134.908 1.634 -0.673 -0.048 -0.05 0.61 -0.79 0.06
1 6.06 606 -1.178 -8.639 2.437 -2.655 -11.200 36.743 -659.870 -524.958 -3194.869 1.264 -0.829 0.091 -0.05 0.61 -0.79 0.06
1 6.07 607 -0.824 -8.739 2.471 -13.733 -9.888 34.790 -539.948 -644.880 -3224.999 0.853 -0.731 0.052 -0.05 0.61 -0.79 0.06
1 6.08 608 -0.517 -9.060 2.193 -12.756 -9.583 29.389 -539.948 -644.880 -3224.999 0.494 -0.415 0.310 -0.05 0.61 -0.79 0.06
1 6.09 609 -0.675 -9.017 2.136 0.214 -11.719 24.292 -734.971 -569.929 -3404.882 0.608 -0.463 0.348 -0.05 0.61 -0.79 0.07
1 6.10 610 -0.623 -8.768 1.872 11.353 -14.221 20.294 -734.971 -569.929 -3404.882 0.520 -0.713 0.608 -0.05 0.61 -0.79 0.07
1 6.11 611 -0.838 -8.217 1.930 12.573 -15.869 15.137 -569.929 -704.991 -3239.989 0.687 -1.254 0.584 -0.05 0.61 -0.79 0.07
1 6.12 612 -1.025 -8.332 2.145 3.235 -17.883 12.543 -569.929 -704.991 -3239.989 0.860 -1.134 0.386 -0.05 0.61 -0.79 0.07
1 6.13 613 -1.398 -8.567 2.404 -5.157 -20.294 10.986 -464.997 -419.876 -3224.999 1.224 -0.898 0.131 -0.05 0.61 -0.79 0.08
1 6.14 614 -1.547 -8.907 2.442 -3.845 -25.726 11.353 -464.997 -524.958 -3224.999 1.356 -0.559 0.087 -0.05 0.61 -0.79 0.08
1 6.15 615 -1.719 -8.754 2.375 12.390 -37.720 7.813 -464.997 -524.958 -3224.999 1.515 -0.712 0.154 -0.05 0.61 -0.79 0.08
1 6.16 616 -1.365 -8.346 2.164 23.102 -48.981 6.134 -464.997 -599.909 -3119.917 1.152 -1.115 0.381 -0.05 0.61 -0.79 0.08
1 6.17 617 -0.809 -7.872 2.054 28.595 -56.122 2.625 -464.997 -599.909 -3119.917 0.596 -1.580 0.524 -0.05 0.6 -0.79 0.08
1 6.18 618 0.043 -7.322 1.853 25.574 -55.359 -3.906 -449.857 -434.867 -3209.859 -0.214 -2.107 0.814 -0.06 0.6 -0.79 0.09
1 6.19 619 0.211 -7.542 1.657 19.196 -46.173 -6.226 -449.857 -434.867 -3209.859 -0.351 -1.876 1.048 -0.06 0.6 -0.79 0.09
1 6.20 620 0.005 -7.987 1.374 10.864 -34.912 -5.920 -779.942 -659.870 -3209.859 -0.118 -1.423 1.358 -0.06 0.6 -0.79 0.09
1 6.21 621 -0.364 -8.572 1.212 1.465 -28.137 -5.890 -629.890 -659.870 -3284.960 0.274 -0.835 1.536 -0.07 0.6 -0.79 0.09
1 6.22 622 -0.259 -9.146 1.652 -8.209 -26.825 -2.197 -629.890 -659.870 -3284.960 0.189 -0.260 1.096 -0.07 0.6 -0.79 0.09
1 6.23 623 0.484 -9.721 2.888 -21.454 -23.956 8.148 -659.870 -719.981 -3299.950 -0.542 0.308 -0.161 -0.07 0.6 -0.79 0.1
1 6.24 624 1.188 -9.955 3.548 -19.196 -11.505 14.923 -659.870 -719.981 -3299.950 -1.242 0.534 -0.852 -0.07 0.6 -0.79 0.1
1 6.25 625 1.092 -9.917 3.438 0.275 19.745 15.991 -674.860 -539.948 -3239.989 -1.167 0.486 -0.778 -0.07 0.6 -0.79 0.1
1 6.26 626 -0.029 -9.668 2.337 20.722 33.722 13.489 -674.860 -539.948 -3239.989 -0.068 0.241 0.338 -0.07 0.6 -0.79 0.1
1 6.27 627 -1.025 -9.510 1.350 34.882 34.302 10.040 -629.890 -539.948 -3284.960 0.901 0.093 1.360 -0.06 0.6 -0.79 0.1
1 6.28 628 -1.844 -9.639 0.781 31.128 21.515 3.998 -674.860 -659.870 -3464.993 1.689 0.236 1.973 -0.06 0.6 -0.79 0.1
1 6.29 629 -2.437 -10.367 0.503 9.674 3.387 -3.082 -674.860 -659.870 -3464.993 2.262 0.972 2.278 -0.06 0.6 -0.8 0.1
1 6.30 630 -2.964 -11.789 1.638 -28.351 -14.282 -12.421 -524.958 -659.870 -3389.892 2.780 2.391 1.131 -0.06 0.6 -0.8 0.1
1 6.31 631 -2.926 -13.571 4.434 -37.262 -21.301 -8.087 -524.958 -659.870 -3389.892 2.764 4.162 -1.697 -0.06 0.6 -0.79 0.09
1 6.32 632 1.556 -15.074 6.704 -36.286 -37.109 65.430 -794.932 -644.880 -3224.999 -1.709 5.640 -4.056 -0.06 0.6 -0.79 0.1
1 6.33 633 2.715 -13.370 7.020 -44.861 -21.759 76.569 -794.932 -644.880 -3224.999 -2.958 3.922 -4.428 -0.06 0.6 -0.79 0.1
1 6.34 634 2.787 -14.069 2.069 36.469 35.126 30.365 -599.909 -539.948 -3359.911 -3.111 4.617 0.500 -0.06 0.6 -0.79 0.1
1 6.35 635 -0.196 -11.234 1.197 78.278 57.556 29.694 -629.890 -539.948 -3164.888 -0.186 1.804 1.444 -0.05 0.6 -0.79 0.1
1 6.36 636 -2.433 -8.897 0.268 60.517 39.093 15.869 -629.890 -539.948 -3164.888 1.988 -0.498 2.483 -0.05 0.6 -0.79 0.1
1 6.37 637 -3.060 -10.032 2.552 -35.645 3.662 -7.751 -674.860 -629.890 -3314.940 2.579 0.654 0.250 -0.05 0.6 -0.8 0.1
1 6.38 638 -2.811 -10.520 4.305 -92.987 8.575 7.813 -674.860 -629.890 -3314.940 2.320 1.131 -1.543 -0.05 0.6 -0.79 0.1
1 6.39 639 -2.672 -11.703 3.764 -92.469 10.895 15.808 -629.890 -704.991 -3419.872 2.174 2.280 -1.118 -0.05 0.6 -0.79 0.1
1 6.40 640 -2.021 -11.603 3.740 -10.315 0.580 14.008 -464.997 -419.876 -3449.853 1.475 2.124 -1.312 -0.04 0.61 -0.78 0.1
1 6.41 641 -1.556 -9.807 3.869 32.196 -15.167 11.444 -614.899 -569.929 -3299.950 0.993 0.331 -1.436 -0.04 0.61 -0.78 0.1
1 6.42 642 -0.958 -8.433 4.209 38.056 -28.015 12.177 -524.958 -389.896 -3314.940 0.383 -1.027 -1.715 -0.04 0.61 -0.79 0.1
1 6.43 643 -0.211 -7.508 4.425 16.357 -27.832 18.097 -524.958 -389.896 -3314.940 -0.375 -1.933 -1.865 -0.04 0.61 -0.79 0.11
1 6.44 644 0.881 -7.394 3.783 -13.855 -16.724 34.210 -524.958 -509.968 -3314.940 -1.486 -2.040 -1.197 -0.04 0.61 -0.79 0.11
1 6.45 645 1.925 -8.356 3.630 -18.066 -5.280 41.290 -524.958 -509.968 -3314.940 -2.567 -1.078 -1.056 -0.04 0.61 -0.79 0.11
1 6.46 646 2.461 -9.065 4.295 -19.928 12.939 41.046 -569.929 -584.919 -3419.872 -3.156 -0.372 -1.744 -0.04 0.61 -0.79 0.11
1 6.47 647 1.944 -9.893 5.100 -33.630 39.215 23.316 -464.997 -449.857 -3329.931 -2.716 0.452 -2.590 -0.04 0.61 -0.78 0.11
1 6.48 648 0.761 -10.540 4.760 -31.433 43.366 8.331 -494.978 -464.997 -3284.960 -1.576 1.088 -2.303 -0.03 0.61 -0.78 0.11
1 6.49 649 0.000 -10.702 3.946 -5.707 37.476 -4.272 -389.896 -449.857 -3374.901 -0.836 1.241 -1.531 -0.03 0.61 -0.78 0.11
1 6.50 650 -0.862 -10.190 3.390 30.029 32.593 -11.108 -389.896 -449.857 -3374.901 0.024 0.730 -0.974 -0.03 0.61 -0.78 0.11
1 6.51 651 -1.585 -8.979 2.854 45.014 30.975 -14.526 -494.978 -464.997 -3359.911 0.753 -0.469 -0.384 -0.03 0.61 -0.78 0.11
1 6.52 652 -1.719 -8.284 2.648 23.254 26.215 -16.541 -494.978 -464.997 -3359.911 0.894 -1.145 -0.110 -0.03 0.61 -0.79 0.1
1 6.53 653 -1.384 -8.078 2.729 -5.432 14.618 -19.867 -269.974 -509.968 -3314.940 0.565 -1.340 -0.148 -0.02 0.61 -0.79 0.1
1 6.54 654 0.014 -8.404 2.950 -23.712 -3.296 -27.161 -359.916 -569.929 -3374.901 -0.783 -1.025 -0.391 -0.02 0.61 -0.79 0.1
1 6.55 655 0.541 -8.739 3.036 -20.660 -5.768 -30.243 -449.857 -539.948 -3389.892 -1.263 -0.701 -0.505 -0.03 0.61 -0.79 0.09
1 6.56 656 1.844 -9.122 3.635 0.580 -2.197 -38.880 -419.876 -584.919 -3209.859 -2.502 -0.324 -1.111 -0.03 0.61 -0.79 0.09
1 6.57 657 2.006 -9.012 3.644 12.695 7.538 -39.826 -419.876 -584.919 -3209.859 -2.590 -0.435 -1.105 -0.03 0.61 -0.79 0.09
1 6.58 658 2.184 -8.720 3.520 17.914 16.602 -38.086 -419.876 -464.997 -3284.960 -2.693 -0.723 -0.949 -0.03 0.61 -0.79 0.09
1 6.59 659 1.791 -8.385 3.165 7.263 27.893 -36.133 -419.876 -464.997 -3284.960 -2.232 -1.053 -0.561 -0.03 0.6 -0.79 0.08
1 6.60 660 1.197 -8.639 2.945 -4.639 30.426 -36.224 -389.896 -419.876 -3299.950 -1.577 -0.796 -0.319 -0.03 0.6 -0.79 0.08
1 6.61 661 0.718 -9.070 2.964 -11.719 29.144 -35.431 -449.857 -389.896 -3464.993 -1.041 -0.366 -0.335 -0.03 0.6 -0.79 0.07
1 6.62 662 0.321 -9.625 3.060 -4.517 22.369 -34.424 -449.857 -314.945 -3239.989 -0.545 0.181 -0.454 -0.04 0.6 -0.79 0.07
1 6.63 663 0.268 -9.405 3.132 6.348 18.921 -32.410 -419.876 -434.867 -3569.924 -0.447 -0.040 -0.524 -0.04 0.6 -0.79 0.06
1 6.64 664 0.144 -9.366 3.189 15.656 18.402 -29.083 -419.876 -434.867 -3569.924 -0.280 -0.074 -0.563 -0.04 0.6 -0.79 0.06
1 6.65 665 0.273 -9.046 3.069 18.402 18.372 -24.475 -449.857 -434.867 -3389.892 -0.373 -0.387 -0.415 -0.04 0.6 -0.8 0.06
1 6.66 666 0.134 -8.902 3.084 16.541 19.653 -21.271 -449.857 -434.867 -3389.892 -0.204 -0.522 -0.397 -0.04 0.6 -0.8 0.05
1 6.67 667 0.139 -8.821 3.026 12.177 21.545 -16.419 -464.997 -524.958 -3374.901 -0.184 -0.596 -0.312 -0.04 0.6 -0.8 0.05
1 6.68 668 0.196 -8.854 2.926 12.756 23.346 -11.902 -569.929 -434.867 -3389.892 -0.223 -0.555 -0.187 -0.04 0.6 -0.8 0.05
1 6.69 669 0.393 -8.576 2.749 19.684 28.198 -7.538 -254.984 -419.876 -3404.882 -0.402 -0.819 0.039 -0.03 0.6 -0.8 0.05
1 6.70 670 0.522 -8.437 2.318 24.811 32.501 -5.219 -464.997 -419.876 -3479.983 -0.530 -0.948 0.503 -0.03 0.6 -0.8 0.04
1 6.71 671 0.570 -8.179 2.284 24.933 35.431 -3.632 -464.997 -419.876 -3479.983 -0.583 -1.195 0.575 -0.03 0.59 -0.8 0.04
1 6.72 672 0.733 -8.030 2.246 21.423 36.347 -2.563 -359.916 -569.929 -3554.934 -0.755 -1.332 0.649 -0.03 0.59 -0.8 0.04
1 6.73 673 0.603 -8.279 2.366 14.832 37.689 -1.801 -359.916 -569.929 -3554.934 -0.638 -1.074 0.560 -0.03 0.59 -0.8 0.04
1 6.74 674 0.872 -8.524 2.208 10.345 40.772 -0.702 -509.968 -494.978 -3479.983 -0.920 -0.823 0.739 -0.02 0.59 -0.81 0.04
1 6.75 675 1.006 -8.610 2.236 13.489 44.525 1.801 -299.955 -509.968 -3494.973 -1.070 -0.731 0.727 -0.02 0.59 -0.81 0.03
1 6.76 676 1.279 -8.600 1.949 21.942 50.141 4.364 -269.974 -584.919 -3569.924 -1.374 -0.728 1.054 -0.02 0.59 -0.81 0.03
1 6.77 677 1.513 -8.720 2.026 22.278 52.521 4.517 -359.916 -599.909 -3554.934 -1.628 -0.599 1.005 -0.01 0.59 -0.81 0.03
1 6.78 678 1.748 -8.979 2.021 14.221 61.737 7.080 -359.916 -599.909 -3554.934 -1.884 -0.333 1.033 -0.01 0.59 -0.81 0.03
1 6.79 679 1.508 -9.122 2.164 3.693 68.909 6.134 -209.863 -674.860 -3554.934 -1.669 -0.185 0.899 -0.01 0.59 -0.81 0.02
1 6.80 680 0.642 -9.419 2.313 -2.777 73.761 4.425 -209.863 -674.860 -3554.934 -0.829 0.111 0.747 -0 0.59 -0.81 0.02
1 6.81 681 -1.006 -9.764 2.169 1.099 67.810 -1.678 -269.974 -509.968 -3719.977 0.788 0.453 0.881 0 0.59 -0.81 0.02
1 6.82 682 -2.102 -9.639 2.126 8.453 49.622 -6.348 -164.893 -659.870 -3539.944 1.854 0.327 0.917 0.01 0.59 -0.81 0.01
1 6.83 683 -2.648 -9.443 2.342 13.092 23.468 -12.665 -164.893 -659.870 -3539.944 2.374 0.132 0.704 0.01 0.59 -0.81 0.01
1 6.84 684 -2.385 -9.108 2.595 10.803 -8.942 -22.125 -164.893 -659.870 -3644.875 2.104 -0.194 0.476 0.01 0.59 -0.81 0.01
1 6.85 685 -1.949 -9.070 2.897 2.869 -15.533 -23.712 -164.893 -659.870 -3644.875 1.690 -0.229 0.186 0.01 0.59 -0.81 0.01
1 6.86 686 -1.623 -9.433 2.959 -6.256 -11.353 -18.951 -164.893 -704.991 -3599.905 1.391 0.134 0.125 0.01 0.59 -0.81 0.01
1 6.87 687 -1.523 -9.984 2.552 -10.071 -4.028 -12.543 -164.893 -704.991 -3599.905 1.310 0.681 0.522 0.01 0.59 -0.81 0.01
1 6.88 688 -1.092 -10.525 1.839 -4.486 -2.563 -1.770 -104.932 -599.909 -3509.963 0.887 1.217 1.219 0.01 0.59 -0.81 0.01
1 6.89 689 -0.713 -10.506 1.801 0.610 -4.974 1.007 -179.883 -569.929 -3584.915 0.505 1.193 1.243 0.01 0.59 -0.81 0.01
1 6.90 690 -0.374 -10.286 2.251 3.754 -2.777 0.000 -179.883 -569.929 -3584.915 0.164 0.971 0.789 0.01 0.59 -0.81 0.01
1 6.91 691 -1.710 -11.009 2.332 10.010 14.130 -18.555 -179.883 -569.929 -3584.915 1.506 1.694 0.707 0.01 0.59 -0.81 0.01
1 6.92 692 -3.323 -11.325 3.041 -9.033 4.608 -29.785 -179.883 -569.929 -3584.915 3.146 2.014 0.011 0.01 0.59 -0.81 0.01
1 6.93 693 -3.256 -11.402 3.084 -35.919 -24.262 -23.102 -134.912 -674.860 -3509.963 3.123 2.082 -0.055 0 0.59 -0.81 0.01
1 6.94 694 -1.801 -12.192 1.911 -16.205 -30.274 -16.602 -134.912 -674.860 -3509.963 1.712 2.857 1.073 0 0.59 -0.81 0.01
1 6.95 695 -0.651 -11.641 1.595 14.771 -29.877 -3.937 -59.961 -569.929 -3629.885 0.597 2.303 1.380 -0 0.59 -0.81 0.01
1 6.96 696 0.776 -10.195 2.859 15.167 -29.236 18.097 -194.873 -389.896 -3644.875 -0.815 0.866 0.144 -0 0.59 -0.81 0.01
1 6.97 697 1.743 -9.898 3.505 -9.735 -28.229 22.766 -194.873 -389.896 -3644.875 -1.790 0.579 -0.474 -0 0.59 -0.81 0.01
1 6.98 698 1.432 -9.505 4.865 -46.967 -19.440 12.543 -224.854 -584.919 -3494.973 -1.495 0.173 -1.876 -0.01 0.59 -0.81 0.01
1 6.99 699 1.001 -9.386 5.167 -53.955 -18.799 7.294 -224.854 -584.919 -3494.973 -1.063 0.033 -2.242 -0.01 0.59 -0.81 0.02
1 7.00 700 0.522 -9.328 4.425 -35.614 -32.959 -2.655 -269.974 -629.890 -3644.875 -0.568 -0.043 -1.556 -0.01 0.59 -0.8 0.02
1 7.01 701 0.895 -8.964 3.649 -2.045 -35.736 -3.723 -269.974 -629.890 -3644.875 -0.917 -0.414 -0.805 -0.01 0.6 -0.8 0.02
1 7.02 702 0.915 -8.069 3.783 17.792 -21.942 -3.906 -254.984 -674.860 -3584.915 -0.909 -1.305 -0.924 -0.01 0.59 -0.8 0.02
1 7.03 703 -0.857 -6.225 3.836 11.780 1.099 -14.343 -299.955 -389.896 -3599.905 0.884 -3.138 -0.941 -0.02 0.59 -0.8 0.02
1 7.04 704 -1.954 -5.962 3.242 0.153 -1.617 -31.067 -299.955 -389.896 -3599.905 1.999 -3.394 -0.325 -0.02 0.59 -0.81 0.02
1 7.05 705 -2.413 -7.168 2.514 -14.130 -16.052 -44.129 -209.863 -449.857 -3554.934 2.498 -2.185 0.410 -0.02 0.59 -0.81 0.02
1 7.06 706 -2.097 -10.037 2.820 -49.530 -42.786 -46.143 -359.916 -449.857 -3584.915 2.320 0.669 0.048 -0.02 0.59 -0.8 0.01
1 7.07 707 -1.590 -11.540 3.936 -73.090 -54.108 -35.736 -299.955 -509.968 -3419.872 1.879 2.149 -1.152 -0.03 0.6 -0.8 0.01
1 7.08 708 -1.101 -12.216 4.568 -66.956 -59.326 -18.982 -299.955 -509.968 -3419.872 1.461 2.795 -1.892 -0.03 0.6 -0.8 0.01
1 7.09 709 -0.302 -12.201 4.372 -27.130 -57.678 -1.221 -524.958 -359.916 -3569.924 0.707 2.758 -1.783 -0.04 0.61 -0.79 0.02
1 7.10 710 0.723 -11.373 4.204 19.714 -46.082 13.428 -419.876 -389.896 -3464.993 -0.299 1.924 -1.638 -0.04 0.61 -0.79 0.02
1 7.11 711 1.528 -9.716 3.735 35.553 -32.379 26.001 -419.876 -389.896 -3464.993 -1.108 0.278 -1.130 -0.04 0.6 -0.8 0.02
1 7.12 712 1.657 -9.036 3.304 9.522 -29.938 27.618 -509.968 -449.857 -3374.901 -1.258 -0.388 -0.645 -0.04 0.6 -0.8 0.03
1 7.13 713 0.867 -8.993 3.318 -19.409 -19.531 24.445 -659.870 -374.906 -3479.983 -0.503 -0.426 -0.637 -0.05 0.6 -0.8 0.03
1 7.14 714 -0.220 -9.582 3.242 -17.578 -8.911 24.384 -569.929 -434.867 -3419.872 0.562 0.156 -0.583 -0.05 0.6 -0.8 0.03
1 7.15 715 -1.331 -9.922 3.314 -7.996 -2.930 28.046 -569.929 -434.867 -3419.872 1.639 0.490 -0.671 -0.05 0.6 -0.8 0.04
1 7.16 716 -2.337 -10.032 3.309 -1.312 -5.829 32.837 -569.929 -434.867 -3494.973 2.594 0.598 -0.670 -0.05 0.6 -0.8 0.04
1 7.17 717 -2.562 -9.788 3.046 0.702 -17.670 35.736 -629.890 -389.896 -3569.924 2.775 0.353 -0.405 -0.04 0.6 -0.8 0.04
1 7.18 718 -1.705 -9.453 2.902 0.671 -36.347 36.804 -629.890 -389.896 -3569.924 1.855 0.018 -0.257 -0.04 0.6 -0.8 0.04
1 7.19 719 -0.776 -9.319 2.878 1.099 -39.612 37.628 -539.948 -374.906 -3584.915 0.871 -0.116 -0.230 -0.04 0.6 -0.8 0.05
1 7.20 720 0.215 -9.141 3.060 1.038 -30.487 38.849 -434.867 -329.935 -3449.853 -0.212 -0.291 -0.403 -0.04 0.6 -0.8 0.06
1 7.21 721 0.268 -9.165 3.007 1.312 -25.604 38.117 -524.958 -359.916 -3644.875 -0.307 -0.266 -0.344 -0.04 0.6 -0.8 0.06
1 7.22 722 -0.297 -8.921 2.581 6.226 -15.564 33.417 -524.958 -359.916 -3644.875 0.218 -0.507 0.092 -0.04 0.6 -0.8 0.06
1 7.23 723 -0.833 -8.892 2.284 10.590 -16.754 27.893 -599.909 -434.867 -3464.993 0.715 -0.531 0.403 -0.04 0.6 -0.8 0.07
1 7.24 724 -1.398 -8.720 2.021 10.040 -22.369 24.841 -509.968 -374.906 -3479.983 1.246 -0.699 0.682 -0.04 0.6 -0.8 0.07
1 7.25 725 -1.547 -8.629 2.471 3.357 -32.379 23.926 -509.968 -374.906 -3479.983 1.362 -0.785 0.245 -0.04 0.6 -0.8 0.07
1 7.26 726 -1.480 -8.696 2.524 0.031 -35.980 23.407 -569.929 -359.916 -3419.872 1.264 -0.715 0.200 -0.04 0.6 -0.8 0.07
1 7.27 727 -1.451 -8.787 2.490 3.601 -38.269 23.071 -494.978 -359.916 -3599.905 1.207 -0.623 0.237 -0.04 0.6 -0.8 0.08
1 7.28 728 -1.317 -8.509 2.121 15.137 -46.021 19.775 -419.876 -389.896 -3644.875 1.025 -0.893 0.628 -0.04 0.6 -0.8 0.08
1 7.29 729 -1.197 -8.294 1.729 22.217 -53.528 14.984 -419.876 -389.896 -3644.875 0.893 -1.100 1.047 -0.05 0.6 -0.8 0.09
1 7.30 730 -0.723 -7.920 1.604 23.438 -62.073 9.552 -599.909 -359.916 -3569.924 0.423 -1.462 1.209 -0.05 0.6 -0.8 0.09
1 7.31 731 -0.311 -7.762 1.513 18.951 -65.552 4.791 -539.948 -254.984 -3479.983 0.029 -1.610 1.338 -0.05 0.59 -0.8 0.09
1 7.32 732 0.393 -7.777 1.939 9.003 -58.319 0.763 -539.948 -254.984 -3479.983 -0.651 -1.587 0.941 -0.06 0.59 -0.8 0.1
1 7.33 733 0.187 -7.968 1.705 3.754 -48.248 -1.007 -614.899 -329.935 -3509.963 -0.419 -1.390 1.195 -0.06 0.59 -0.8 0.1
1 7.34 734 0.110 -8.409 1.609 1.770 -40.802 -1.648 -734.971 -419.876 -3554.934 -0.318 -0.947 1.301 -0.06 0.59 -0.8 0.1
1 7.35 735 0.072 -8.744 2.073 -1.404 -34.088 0.977 -674.860 -464.997 -3464.993 -0.240 -0.609 0.846 -0.07 0.59 -0.8 0.1
1 7.36 736 0.302 -9.098 2.643 -6.653 -32.868 2.441 -674.860 -464.997 -3464.993 -0.455 -0.256 0.273 -0.07 0.59 -0.8 0.11
1 7.37 737 0.618 -9.362 2.955 -11.810 -31.738 5.096 -674.860 -359.916 -3569.924 -0.757 0.003 -0.049 -0.07 0.59 -0.8 0.11
1 7.38 738 1.207 -9.457 3.333 -11.749 -25.360 6.012 -764.952 -524.958 -3659.866 -1.335 0.094 -0.442 -0.07 0.59 -0.8 0.11
1 7.39 739 1.250 -9.414 3.079 -4.425 -13.062 3.937 -764.952 -524.958 -3659.866 -1.366 0.048 -0.199 -0.07 0.59 -0.8 0.11
1 7.40 740 0.666 -9.357 2.571 15.106 5.005 -0.031 -734.971 -449.857 -3554.934 -0.771 -0.009 0.311 -0.07 0.59 -0.8 0.11
1 7.41 741 -0.139 -9.496 1.762 21.942 9.155 -0.732 -764.952 -419.876 -3404.882 0.041 0.136 1.139 -0.07 0.59 -0.8 0.11
1 7.42 742 -1.053 -9.831 1.264 8.087 3.174 -4.089 -824.913 -314.945 -3569.924 0.957 0.486 1.685 -0.07 0.59 -0.8 0.11
1 7.43 743 -1.341 -9.975 1.077 -1.099 -1.617 -5.646 -824.913 -314.945 -3569.924 1.245 0.628 1.866 -0.07 0.59 -0.8 0.11
1 7.44 744 -1.796 -11.105 1.235 -22.614 -17.731 -11.047 -899.864 -434.867 -3494.973 1.708 1.747 1.675 -0.07 0.59 -0.8 0.11
1 7.45 745 -1.753 -11.775 3.955 -23.010 -26.093 -11.749 -974.965 -359.916 -3539.944 1.692 2.408 -1.076 -0.07 0.59 -0.8 0.11
1 7.46 746 0.407 -14.758 3.160 -6.958 -35.095 12.909 -974.965 -359.916 -3539.944 -0.443 5.383 -0.308 -0.08 0.59 -0.8 0.11
1 7.47 747 3.635 -11.967 5.531 -33.630 -3.510 60.089 -749.961 -359.916 -3494.973 -3.691 2.588 -2.689 -0.08 0.59 -0.8 0.11
1 7.48 748 2.811 -12.546 1.753 1.984 42.328 29.633 -749.961 -359.916 -3419.872 -2.946 3.156 1.048 -0.08 0.59 -0.79 0.11
1 7.49 749 -0.460 -11.157 0.685 38.757 64.423 20.050 -749.961 -359.916 -3419.872 0.257 1.764 2.102 -0.07 0.59 -0.79 0.11
1 7.50 750 -3.563 -9.496 0.709 15.961 16.754 -0.610 -854.893 -209.863 -3389.892 3.257 0.132 2.167 -0.06 0.59 -0.8 0.11
1 7.51 751 -2.911 -10.655 3.711 -41.260 -9.522 -10.529 -704.991 -359.916 -3314.940 2.588 1.288 -0.846 -0.06 0.59 -0.8 0.11
1 7.52 752 -1.805 -11.430 5.909 -99.793 1.801 8.514 -734.971 -224.854 -3509.963 1.496 2.039 -3.125 -0.06 0.59 -0.79 0.11
1 7.53 753 -2.035 -12.513 4.836 -99.060 23.163 21.729 -734.971 -224.854 -3509.963 1.705 3.079 -2.202 -0.06 0.6 -0.79 0.11
1 7.54 754 -2.830 -12.374 3.658 -40.283 25.910 17.944 -659.870 -494.978 -3449.853 2.460 2.908 -1.149 -0.06 0.61 -0.78 0.11
1 7.55 755 -2.720 -9.908 3.362 44.800 -19.318 10.193 -614.899 -224.854 -3329.931 2.320 0.434 -0.885 -0.06 0.61 -0.78 0.11
1 7.56 756 -1.475 -8.543 4.137 49.011 -41.901 14.648 -614.899 -224.854 -3329.931 1.064 -0.916 -1.608 -0.06 0.61 -0.79 0.11
1 7.57 757 0.785 -7.125 4.951 -1.801 -26.032 34.729 -659.870 -179.883 -3254.979 -1.228 -2.294 -2.285 -0.06 0.6 -0.79 0.12
1 7.58 758 1.595 -7.303 4.238 -25.726 -3.113 43.213 -674.860 -209.863 -3419.872 -2.080 -2.115 -1.572 -0.06 0.6 -0.79 0.12
1 7.59 759 1.738 -8.121 3.567 -25.543 14.099 45.288 -779.942 -239.994 -3359.911 -2.287 -1.303 -0.938 -0.06 0.6 -0.79 0.12
1 7.60 760 1.662 -9.070 3.783 -19.257 24.262 46.204 -779.942 -239.994 -3359.911 -2.273 -0.360 -1.183 -0.05 0.6 -0.79 0.12
1 7.61 761 1.140 -9.611 4.664 -22.400 32.013 41.382 -674.860 -284.964 -3359.911 -1.809 0.180 -2.084 -0.05 0.6 -0.79 0.12
1 7.62 762 0.350 -10.267 4.870 -30.518 34.393 24.414 -599.909 -314.945 -3359.911 -1.071 0.834 -2.314 -0.05 0.61 -0.78 0.12
1 7.63 763 0.043 -10.214 4.190 -12.177 30.029 12.177 -599.909 -314.945 -3359.911 -0.817 0.773 -1.680 -0.05 0.61 -0.78 0.12
1 7.64 764 -0.623 -9.309 3.553 31.220 25.452 -0.519 -629.890 -209.863 -3209.859 -0.197 -0.131 -1.052 -0.04 0.61 -0.78 0.12
1 7.65 765 -0.934 -8.983 3.400 37.445 25.391 -4.181 -614.899 -254.984 -3329.931 0.112 -0.442 -0.843 -0.04 0.61 -0.78 0.12
1 7.66 766 -1.216 -8.294 3.093 20.050 25.543 -10.315 -584.919 -224.854 -3224.999 0.394 -1.117 -0.484 -0.04 0.6 -0.79 0.12
1 7.67 767 -1.336 -8.303 2.907 -5.463 19.684 -13.519 -584.919 -224.854 -3224.999 0.517 -1.101 -0.275 -0.04 0.6 -0.79 0.12
1 7.68 768 -0.977 -8.409 2.916 -19.653 8.118 -18.097 -449.857 -164.893 -3464.993 0.169 -0.999 -0.295 -0.04 0.6 -0.79 0.11
1 7.69 769 0.292 -9.074 2.868 -7.141 -9.247 -29.602 -419.876 -284.964 -3209.859 -1.075 -0.342 -0.269 -0.04 0.61 -0.79 0.11
1 7.70 770 1.240 -8.950 3.227 7.782 -13.611 -38.727 -419.876 -284.964 -3209.859 -1.977 -0.473 -0.638 -0.04 0.61 -0.79 0.11
1 7.71 771 1.781 -8.988 3.429 15.442 -8.637 -45.685 -524.958 -119.922 -3239.989 -2.451 -0.436 -0.827 -0.04 0.6 -0.79 0.11
1 7.72 772 1.609 -8.907 3.611 3.479 10.254 -44.312 -569.929 -239.994 -3164.888 -2.108 -0.513 -0.955 -0.05 0.6 -0.79 0.1
1 7.73 773 1.077 -9.050 3.275 -7.660 21.607 -39.490 -690.000 -254.984 -3404.882 -1.503 -0.370 -0.609 -0.05 0.6 -0.79 0.1
1 7.74 774 0.321 -9.472 2.950 -10.742 24.994 -36.408 -690.000 -254.984 -3404.882 -0.686 0.047 -0.291 -0.05 0.6 -0.79 0.09
1 7.75 775 -0.024 -9.778 2.959 -5.188 19.745 -33.661 -629.890 -209.863 -3359.911 -0.292 0.348 -0.311 -0.05 0.6 -0.79 0.09
1 7.76 776 0.115 -9.888 2.811 7.599 8.240 -30.914 -524.958 -239.994 -3419.872 -0.386 0.456 -0.165 -0.05 0.6 -0.79 0.09
1 7.77 777 0.728 -9.592 2.830 15.747 4.852 -30.853 -524.958 -239.994 -3419.872 -0.955 0.161 -0.174 -0.05 0.6 -0.79 0.09
1 7.78 778 0.895 -9.481 2.648 20.325 7.111 -30.335 -749.961 -359.916 -3419.872 -1.076 0.056 0.030 -0.05 0.6 -0.79 0.08
1 7.79 779 0.790 -8.955 2.624 16.968 16.724 -28.229 -494.978 -359.916 -3164.888 -0.875 -0.454 0.115 -0.05 0.6 -0.8 0.08
1 7.80 780 0.555 -8.840 2.763 11.566 21.637 -26.215 -734.971 -299.955 -3299.950 -0.600 -0.562 0.001 -0.05 0.6 -0.8 0.08
1 7.81 781 0.369 -8.959 2.519 9.033 23.560 -23.865 -734.971 -299.955 -3299.950 -0.380 -0.438 0.262 -0.05 0.6 -0.8 0.07
1 7.82 782 0.211 -8.873 2.423 10.651 23.071 -20.874 -779.942 -389.896 -3359.911 -0.194 -0.520 0.372 -0.05 0.6 -0.8 0.07
1 7.83 783 -0.005 -8.921 2.490 15.595 25.391 -17.090 -584.919 -254.984 -3254.979 0.043 -0.466 0.323 -0.05 0.59 -0.8 0.07
1 7.84 784 -0.081 -8.701 2.222 19.348 29.480 -11.810 -584.919 -254.984 -3254.979 0.132 -0.679 0.616 -0.05 0.59 -0.8 0.07
1 7.85 785 -0.354 -8.643 1.911 16.815 28.137 -9.491 -674.860 -389.896 -3539.944 0.411 -0.728 0.955 -0.05 0.59 -0.8 0.06
1 7.86 786 0.005 -8.916 2.069 8.728 19.531 -6.714 -704.991 -284.964 -3284.960 0.051 -0.443 0.836 -0.05 0.59 -0.8 0.06
1 7.87 787 0.187 -8.931 2.265 7.843 17.609 -4.822 -629.890 -389.896 -3389.892 -0.131 -0.426 0.649 -0.05 0.59 -0.8 0.06
1 7.88 788 0.570 -9.122 2.112 11.627 19.653 1.923 -629.890 -389.896 -3389.892 -0.517 -0.232 0.810 -0.05 0.59 -0.8 0.06
1 7.89 789 0.752 -9.007 1.868 17.944 24.567 7.141 -734.971 -374.906 -3329.931 -0.708 -0.342 1.071 -0.05 0.59 -0.8 0.06
1 7.90 790 0.761 -8.576 1.662 23.010 28.931 12.054 -584.919 -374.906 -3374.901 -0.736 -0.765 1.300 -0.04 0.59 -0.8 0.06
1 7.91 791 0.709 -8.366 1.226 22.583 32.410 15.869 -584.919 -374.906 -3374.901 -0.711 -0.966 1.768 -0.04 0.59 -0.81 0.06
1 7.92 792 0.666 -8.380 1.144 16.235 32.562 15.442 -509.968 -374.906 -3404.882 -0.703 -0.940 1.884 -0.04 0.59 -0.81 0.06
1 7.93 793 0.570 -8.634 1.250 7.568 31.647 13.916 -509.968 -374.906 -3404.882 -0.644 -0.677 1.807 -0.04 0.59 -0.81 0.06
1 7.94 794 0.302 -9.098 1.671 -3.876 29.785 11.017 -509.968 -449.857 -3479.983 -0.440 -0.208 1.397 -0.03 0.59 -0.81 0.06
1 7.95 795 -0.086 -9.170 2.088 -5.981 25.330 7.263 -509.968 -449.857 -3479.983 -0.075 -0.140 0.966 -0.03 0.59 -0.81 0.05
1 7.96 796 -0.747 -9.285 2.504 -4.852 17.120 2.991 -524.958 -509.968 -3389.892 0.568 -0.030 0.535 -0.03 0.59 -0.81 0.05
1 7.97 797 -1.058 -9.280 2.629 1.465 5.463 -0.977 -524.958 -359.916 -3419.872 0.868 -0.037 0.402 -0.03 0.59 -0.81 0.05
1 7.98 798 -0.972 -9.175 2.437 11.414 -4.334 -3.418 -524.958 -359.916 -3419.872 0.778 -0.141 0.598 -0.03 0.59 -0.81 0.05
1 7.99 799 -0.833 -8.878 2.193 19.470 -11.536 -4.578 -344.925 -509.968 -3419.872 0.642 -0.432 0.860 -0.03 0.59 -0.81 0.05
1 8.00 800 -0.345 -9.213 2.112 12.451 -11.505 -1.282 -344.925 -509.968 -3419.872 0.161 -0.089 0.966 -0.03 0.59 -0.81 0.05
1 8.01 801 0.915 -9.869 2.749 -4.395 -6.409 6.165 -419.876 -509.968 -3464.993 -1.091 0.573 0.347 -0.03 0.58 -0.81 0.06
1 8.02 802 1.470 -10.707 4.315 -9.979 6.714 3.174 -419.876 -509.968 -3464.993 -1.647 1.407 -1.231 -0.03 0.58 -0.81 0.06
1 8.03 803 0.187 -12.015 4.324 -9.399 37.537 -24.689 -614.899 -329.935 -3374.901 -0.366 2.710 -1.253 -0.03 0.59 -0.81 0.05
1 8.04 804 -2.820 -12.460 4.942 -44.098 30.853 -50.018 -584.919 -449.857 -3404.882 2.670 3.148 -1.892 -0.03 0.59 -0.81 0.05
1 8.05 805 -4.042 -13.121 3.793 -62.439 -23.071 -47.608 -584.919 -449.857 -3404.882 3.956 3.784 -0.818 -0.03 0.59 -0.81 0.05
1 8.06 806 -1.226 -13.686 1.437 32.929 -72.022 -33.051 -494.978 -359.916 -3314.940 1.224 4.326 1.467 -0.03 0.59 -0.8 0.05
1 8.07 807 1.341 -11.564 2.164 85.419 -62.592 -10.437 -494.978 -359.916 -3314.940 -1.258 2.211 0.760 -0.04 0.59 -0.8 0.05
1 8.08 808 2.974 -9.869 2.184 60.517 -9.491 6.104 -524.958 -434.867 -3239.989 -2.821 0.594 0.978 -0.05 0.58 -0.81 0.05
1 8.09 809 2.648 -9.592 2.648 20.538 -2.167 5.066 -524.958 -434.867 -3239.989 -2.479 0.334 0.564 -0.05 0.58 -0.81 0.05
1 8.10 810 1.714 -9.936 3.802 -103.058 -22.949 -4.700 -794.932 -569.929 -3449.853 -1.524 0.655 -0.662 -0.05 0.58 -0.81 0.05
1 8.11 811 2.351 -11.775 3.678 -110.901 -39.215 -7.446 -704.991 -434.867 -3464.993 -2.126 2.444 -0.690 -0.05 0.59 -0.81 0.05
1 8.12 812 3.084 -12.575 3.898 -59.479 -31.403 1.190 -704.991 -434.867 -3464.993 -2.831 3.200 -1.055 -0.06 0.59 -0.8 0.05
1 8.13 813 2.825 -10.880 4.683 33.386 17.365 21.088 -764.952 -494.978 -3299.950 -2.568 1.487 -1.900 -0.06 0.6 -0.8 0.05
1 8.14 814 1.250 -8.916 4.564 50.324 41.290 21.271 -764.952 -494.978 -3299.950 -1.022 -0.468 -1.748 -0.06 0.59 -0.8 0.06
1 8.15 815 -0.431 -7.532 4.295 33.203 42.359 11.078 -569.929 -464.997 -3239.989 0.612 -1.830 -1.407 -0.05 0.59 -0.8 0.06
1 8.16 816 -1.997 -6.556 3.438 -6.317 17.517 -8.728 -659.870 -254.984 -3479.983 2.129 -2.780 -0.459 -0.05 0.59 -0.81 0.05
1 8.17 817 -2.198 -6.445 2.883 -15.503 1.923 -19.226 -839.903 -374.906 -3329.931 2.342 -2.893 0.085 -0.05 0.59 -0.81 0.05
1 8.18 818 -2.227 -6.742 2.844 -9.491 0.244 -28.412 -690.000 -449.857 -3329.931 2.402 -2.602 0.104 -0.05 0.59 -0.8 0.05
1 8.19 819 -2.524 -7.307 2.773 0.336 5.127 -36.255 -690.000 -449.857 -3329.931 2.743 -2.038 0.168 -0.05 0.59 -0.8 0.05
1 8.20 820 -2.969 -8.677 3.290 -10.956 -9.857 -39.520 -839.903 -494.978 -3329.931 3.241 -0.666 -0.345 -0.05 0.59 -0.81 0.05
1 8.21 821 -2.428 -9.730 4.204 -43.701 -31.036 -33.447 -839.903 -494.978 -3329.931 2.749 0.387 -1.265 -0.05 0.59 -0.8 0.05
1 8.22 822 -1.470 -10.822 5.105 -68.939 -39.337 -18.494 -659.870 -374.906 -3149.898 1.830 1.466 -2.210 -0.06 0.59 -0.8 0.04
1 8.23 823 -0.225 -11.378 4.616 -30.731 -22.919 8.637 -704.991 -434.867 -3314.940 0.658 1.971 -1.902 -0.06 0.6 -0.8 0.05
1 8.24 824 0.603 -10.324 4.166 22.675 -13.367 20.111 -914.854 -449.857 -3329.931 -0.179 0.910 -1.476 -0.06 0.6 -0.8 0.05
1 8.25 825 1.374 -9.247 3.836 49.408 -8.881 22.553 -899.864 -389.896 -3164.888 -0.974 -0.155 -1.098 -0.06 0.6 -0.8 0.05
1 8.26 826 1.590 -8.327 3.687 34.332 -6.592 19.348 -899.864 -389.896 -3164.888 -1.210 -1.052 -0.872 -0.06 0.59 -0.8 0.05
1 8.27 827 1.221 -8.203 3.778 -3.082 0.519 15.472 -899.864 -389.896 -3239.989 -0.855 -1.163 -0.917 -0.06 0.59 -0.8 0.05
1 8.28 828 -0.441 -9.098 3.673 -33.630 15.717 13.001 -899.864 -389.896 -3239.989 0.793 -0.270 -0.818 -0.06 0.59 -0.8 0.05
1 8.29 829 -1.901 -10.128 3.635 -24.170 19.775 14.801 -839.903 -569.929 -3374.901 2.230 0.748 -0.814 -0.06 0.59 -0.8 0.06
1 8.30 830 -3.017 -10.085 3.290 6.989 8.850 22.644 -839.903 -494.978 -3254.979 3.275 0.691 -0.510 -0.06 0.6 -0.8 0.06
1 8.31 831 -3.108 -9.826 3.395 15.350 1.923 24.231 -659.870 -374.906 -3194.869 3.331 0.437 -0.598 -0.06 0.59 -0.8 0.06
1 8.32 832 -2.342 -9.252 3.046 18.951 -16.296 25.482 -764.952 -449.857 -3299.950 2.522 -0.130 -0.217 -0.06 0.59 -0.8 0.06
1 8.33 833 -1.125 -8.883 2.806 12.268 -19.959 26.978 -764.952 -449.857 -3299.950 1.257 -0.490 0.051 -0.06 0.59 -0.8 0.06
1 8.34 834 -0.192 -8.648 2.773 4.547 -13.641 27.588 -764.952 -449.857 -3224.999 0.281 -0.720 0.102 -0.05 0.59 -0.8 0.07
1 8.35 835 0.053 -8.423 2.811 -6.256 5.524 24.231 -764.952 -449.857 -3224.999 -0.001 -0.944 0.070 -0.05 0.59 -0.8 0.07
1 8.36 836 -0.603 -8.557 2.634 -12.177 13.702 19.257 -779.942 -509.968 -3239.989 0.619 -0.811 0.243 -0.05 0.59 -0.8 0.07
1 8.37 837 -1.427 -8.974 2.701 -15.259 12.024 11.993 -734.971 -524.958 -3329.931 1.408 -0.398 0.164 -0.05 0.59 -0.8 0.07
1 8.38 838 -2.284 -9.592 2.639 -6.409 -0.336 8.514 -734.971 -449.857 -3374.901 2.208 0.209 0.190 -0.05 0.59 -0.8 0.07
1 8.39 839 -2.428 -9.601 2.552 5.341 -11.414 10.681 -839.903 -569.929 -3224.999 2.326 0.217 0.272 -0.05 0.59 -0.8 0.07
1 8.40 840 -2.188 -9.338 2.605 13.916 -18.524 14.069 -839.903 -569.929 -3224.999 2.060 -0.043 0.229 -0.05 0.59 -0.8 0.08
1 8.41 841 -1.820 -9.127 2.514 16.541 -23.254 15.320 -569.929 -314.945 -3284.960 1.663 -0.246 0.341 -0.05 0.59 -0.8 0.08
1 8.42 842 -1.398 -8.782 2.356 14.252 -25.513 14.526 -569.929 -314.945 -3284.960 1.218 -0.584 0.523 -0.05 0.59 -0.8 0.08
1 8.43 843 -0.986 -8.452 2.375 9.369 -31.311 8.057 -764.952 -374.906 -3299.950 0.789 -0.908 0.523 -0.05 0.59 -0.8 0.08
1 8.44 844 -0.776 -8.327 2.222 9.918 -35.065 2.075 -614.899 -494.978 -3224.999 0.572 -1.027 0.692 -0.05 0.59 -0.8 0.09
1 8.45 845 -0.733 -8.016 1.695 13.275 -41.962 -7.782 -794.932 -524.958 -3254.979 0.559 -1.328 1.254 -0.05 0.59 -0.8 0.09
1 8.46 846 -0.790 -7.920 1.724 13.336 -45.807 -11.749 -854.893 -584.919 -3209.859 0.650 -1.417 1.247 -0.06 0.59 -0.8 0.09
1 8.47 847 -0.479 -7.705 1.700 9.796 -46.662 -14.496 -854.893 -584.919 -3209.859 0.380 -1.627 1.291 -0.06 0.59 -0.8 0.09
1 8.48 848 -0.512 -7.681 1.920 5.219 -44.312 -16.907 -764.952 -569.929 -3374.901 0.457 -1.646 1.086 -0.06 0.59 -0.8 0.09
1 8.49 849 -1.068 -7.681 1.642 -3.815 -40.650 -18.524 -764.952 -569.929 -3374.901 1.058 -1.644 1.371 -0.07 0.58 -0.8 0.09
1 8.50 850 -1.326 -8.069 1.465 -6.226 -38.025 -19.745 -839.903 -644.880 -3299.950 1.363 -1.257 1.547 -0.07 0.58 -0.8 0.09
1 8.51 851 -1.504 -8.284 1.815 -8.301 -36.682 -17.853 -914.854 -494.978 -3299.950 1.587 -1.043 1.191 -0.07 0.58 -0.8 0.09
1 8.52 852 -1.053 -8.768 2.940 -10.773 -37.903 -6.683 -944.984 -644.880 -3194.869 1.213 -0.566 0.041 -0.08 0.58 -0.8 0.1
1 8.53 853 -0.728 -9.079 3.295 -11.414 -36.286 -0.214 -1064.906 -524.958 -3299.950 0.900 -0.260 -0.329 -0.08 0.58 -0.8 0.1
1 8.54 854 0.747 -9.582 4.123 -5.432 -15.198 15.656 -1064.906 -524.958 -3299.950 -0.577 0.240 -1.166 -0.08 0.58 -0.8 0.1
1 8.55 855 1.025 -9.711 4.042 0.000 9.338 19.531 -1109.877 -584.919 -3239.989 -0.872 0.370 -1.081 -0.08 0.58 -0.8 0.1
1 8.56 856 0.278 -9.702 3.108 4.852 30.060 17.395 -1109.877 -584.919 -3239.989 -0.152 0.364 -0.137 -0.08 0.58 -0.8 0.1
1 8.57 857 -1.484 -9.601 1.422 6.256 29.022 3.571 -1139.857 -449.857 -3254.979 1.578 0.267 1.561 -0.08 0.58 -0.8 0.1
1 8.58 858 -2.356 -9.692 0.704 -0.641 1.038 -10.040 -1019.936 -524.958 -3299.950 2.422 0.360 2.287 -0.08 0.58 -0.8 0.1
1 8.59 859 -2.480 -10.109 0.565 -10.193 -34.180 -23.346 -1019.936 -524.958 -3299.950 2.539 0.773 2.416 -0.08 0.58 -0.8 0.1
1 8.60 860 -1.025 -12.062 3.041 -18.646 -71.198 -26.367 -869.883 -644.880 -3449.853 1.155 2.708 -0.122 -0.08 0.59 -0.8 0.1
1 8.61 861 2.801 -13.940 5.200 -29.694 -82.398 15.259 -869.883 -644.880 -3449.853 -2.609 4.578 -2.309 -0.09 0.59 -0.8 0.1
1 8.62 862 5.406 -12.106 7.125 -66.284 -42.267 49.957 -914.854 -599.909 -3374.901 -5.221 2.725 -4.293 -0.09 0.59 -0.8 0.11
1 8.63 863 5.315 -13.111 4.022 -32.166 17.670 28.992 -914.854 -599.909 -3374.901 -5.183 3.704 -1.280 -0.09 0.59 -0.79 0.11
1 8.64 864 0.766 -10.645 1.518 48.950 63.721 15.076 -1094.887 -449.857 -3254.979 -0.681 1.231 1.203 -0.09 0.59 -0.79 0.11
1 8.65 865 -1.781 -9.127 0.508 64.850 41.077 -5.035 -1139.857 -644.880 -3149.898 1.817 -0.271 2.271 -0.09 0.59 -0.79 0.11
1 8.66 866 -3.251 -9.826 1.063 25.818 -1.434 -25.147 -1139.857 -644.880 -3149.898 3.266 0.453 1.796 -0.08 0.59 -0.8 0.11
1 8.67 867 -2.337 -10.947 6.192 -113.068 -17.853 9.430 -1034.926 -584.919 -3164.888 2.380 1.565 -3.359 -0.08 0.59 -0.8 0.11
1 8.68 868 -1.748 -13.034 5.512 -135.498 7.477 31.189 -1034.926 -584.919 -3164.888 1.774 3.601 -2.858 -0.08 0.6 -0.79 0.11
1 8.69 869 -2.337 -14.184 4.334 -69.123 25.574 33.875 -1094.887 -644.880 -3224.999 2.312 4.702 -1.857 -0.08 0.61 -0.78 0.11
1 8.70 870 -2.998 -12.589 3.529 28.351 10.529 33.234 -1094.887 -644.880 -3224.999 2.916 3.092 -1.115 -0.08 0.61 -0.78 0.11
1 8.71 871 -2.346 -10.267 3.836 82.398 -22.369 32.837 -929.994 -464.997 -3059.957 2.217 0.787 -1.353 -0.08 0.61 -0.78 0.11
1 8.72 872 0.110 -7.877 4.540 46.356 -35.584 32.593 -869.883 -449.857 -3074.947 -0.275 -1.568 -1.933 -0.08 0.6 -0.79 0.12
1 8.73 873 1.216 -7.173 4.267 -8.148 -23.804 34.790 -869.883 -449.857 -3074.947 -1.420 -2.244 -1.561 -0.08 0.6 -0.79 0.12
1 8.74 874 1.690 -8.097 3.400 -40.772 -2.167 38.239 -1004.945 -509.968 -3209.859 -1.975 -1.325 -0.723 -0.08 0.6 -0.79 0.13
1 8.75 875 1.628 -8.576 3.520 -36.194 3.357 41.382 -1004.945 -509.968 -3209.859 -1.963 -0.859 -0.892 -0.08 0.6 -0.79 0.13
1 8.76 876 1.192 -9.098 3.893 -10.071 11.749 49.713 -1004.945 -389.896 -3104.927 -1.581 -0.342 -1.291 -0.07 0.6 -0.78 0.13
1 8.77 877 1.298 -8.864 3.807 1.801 12.939 47.180 -1004.945 -389.896 -3104.927 -1.749 -0.574 -1.204 -0.07 0.6 -0.78 0.13
1 8.78 878 1.513 -8.710 3.845 4.425 14.771 40.711 -1094.887 -494.978 -3119.917 -2.022 -0.720 -1.227 -0.07 0.6 -0.78 0.13
1 8.79 879 1.307 -8.672 3.596 -2.106 23.224 27.832 -839.903 -494.978 -3194.869 -1.863 -0.751 -0.962 -0.07 0.6 -0.78 0.14
1 8.80 880 0.804 -8.945 3.409 -8.698 23.529 18.860 -839.903 -494.978 -3194.869 -1.395 -0.474 -0.767 -0.07 0.6 -0.79 0.14
1 8.81 881 0.369 -9.165 3.371 -11.627 18.768 12.238 -794.932 -524.958 -3224.999 -0.985 -0.253 -0.733 -0.06 0.6 -0.79 0.14
1 8.82 882 -0.010 -9.295 3.477 -5.371 9.888 3.754 -854.893 -539.948 -3209.859 -0.631 -0.127 -0.856 -0.06 0.6 -0.78 0.13
1 8.83 883 -0.067 -9.218 3.601 2.716 8.850 0.610 -824.913 -389.896 -3209.859 -0.575 -0.203 -0.979 -0.06 0.6 -0.78 0.13
1 8.84 884 -0.010 -9.055 3.247 9.460 10.895 -0.824 -824.913 -389.896 -3209.859 -0.632 -0.362 -0.610 -0.06 0.6 -0.79 0.13
1 8.85 885 0.072 -8.725 3.103 9.918 11.444 -4.608 -659.870 -569.929 -3299.950 -0.710 -0.687 -0.446 -0.06 0.6 -0.79 0.13
1 8.86 886 0.053 -8.619 2.935 5.463 9.918 -9.705 -899.864 -509.968 -3239.989 -0.681 -0.787 -0.261 -0.06 0.6 -0.79 0.13
1 8.87 887 -0.010 -8.763 3.050 -7.782 -0.580 -18.463 -899.864 -509.968 -3239.989 -0.601 -0.643 -0.367 -0.06 0.6 -0.79 0.13
1 8.88 888 0.278 -9.237 3.333 -11.902 -5.768 -19.806 -869.883 -524.958 -3194.869 -0.859 -0.171 -0.651 -0.06 0.6 -0.79 0.13
1 8.89 889 0.603 -9.745 3.596 -8.087 -3.082 -16.113 -734.971 -449.857 -3374.901 -1.112 0.327 -0.934 -0.06 0.6 -0.79 0.12
1 8.90 890 0.565 -9.750 3.735 0.946 3.082 -11.871 -764.952 -599.909 -3194.869 -1.043 0.330 -1.073 -0.06 0.6 -0.79 0.12
1 8.91 891 0.508 -9.635 3.486 10.895 7.904 -9.705 -764.952 -599.909 -3194.869 -0.961 0.218 -0.811 -0.06 0.6 -0.79 0.12
1 8.92 892 0.503 -9.366 3.232 15.991 8.759 -7.843 -899.864 -434.867 -3164.888 -0.938 -0.044 -0.532 -0.06 0.6 -0.79 0.12
1 8.93 893 0.359 -8.955 3.012 15.717 5.646 -8.270 -869.883 -524.958 -3329.931 -0.778 -0.448 -0.283 -0.06 0.6 -0.79 0.12
1 8.94 894 0.699 -8.830 2.931 5.310 0.580 -10.956 -869.883 -524.958 -3329.931 -1.101 -0.566 -0.176 -0.06 0.6 -0.79 0.12
1 8.95 895 0.828 -9.079 3.031 -2.472 0.641 -13.916 -944.984 -599.909 -3254.979 -1.207 -0.314 -0.262 -0.06 0.6 -0.79 0.12
1 8.96 896 0.761 -9.453 3.309 -6.195 3.357 -20.142 -764.952 -644.880 -3254.979 -1.078 0.057 -0.541 -0.07 0.6 -0.79 0.12
1 8.97 897 0.651 -9.462 3.352 -3.662 3.632 -22.492 -974.965 -464.997 -3209.859 -0.929 0.065 -0.585 -0.07 0.6 -0.79 0.11
1 8.98 898 0.479 -9.548 3.026 10.223 3.510 -27.374 -974.965 -464.997 -3209.859 -0.714 0.153 -0.250 -0.07 0.59 -0.79 0.11
1 8.99 899 0.148 -9.299 2.864 18.707 4.364 -27.954 -929.994 -539.948 -3419.872 -0.338 -0.091 -0.066 -0.07 0.59 -0.79 0.11
1 9.00 900 -0.249 -8.859 2.428 20.172 5.646 -26.398 -929.994 -509.968 -3239.989 0.100 -0.523 0.400 -0.07 0.59 -0.8 0.11
1 9.01 901 -0.536 -8.663 2.083 10.864 9.888 -19.165 -929.994 -509.968 -3239.989 0.423 -0.712 0.772 -0.07 0.59 -0.8 0.11
1 9.02 902 -0.781 -8.696 2.040 2.167 10.071 -12.421 -929.994 -704.991 -3239.989 0.693 -0.673 0.834 -0.07 0.59 -0.8 0.1
1 9.03 903 -1.077 -8.931 1.915 -4.120 7.904 -7.782 -1034.926 -509.968 -3239.989 1.003 -0.437 0.962 -0.07 0.59 -0.8 0.1
1 9.04 904 -1.034 -9.271 2.117 -1.190 1.617 -3.784 -1019.936 -494.978 -3254.979 0.963 -0.102 0.744 -0.07 0.59 -0.8 0.1
1 9.05 905 -0.637 -9.467 2.155 4.761 -0.824 -1.434 -1019.936 -494.978 -3254.979 0.564 0.093 0.703 -0.07 0.59 -0.8 0.1
1 9.06 906 -0.441 -9.769 2.380 7.904 -2.960 0.488 -1034.926 -704.991 -3239.989 0.366 0.397 0.483 -0.07 0.59 -0.8 0.1
1 9.07 907 -0.417 -9.730 2.485 8.545 -4.425 3.845 -1019.936 -644.880 -3404.882 0.339 0.361 0.387 -0.07 0.59 -0.8 0.1
1 9.08 908 -0.460 -9.491 2.394 8.453 -7.660 9.399 -1019.936 -644.880 -3404.882 0.375 0.125 0.488 -0.07 0.59 -0.8 0.1
1 9.09 909 -0.436 -9.558 2.370 9.552 -11.658 10.681 -1064.906 -644.880 -3299.950 0.340 0.195 0.522 -0.07 0.59 -0.8 0.11
1 9.10 910 -0.393 -9.410 2.112 12.451 -14.954 13.306 -1019.936 -599.909 -3224.999 0.286 0.050 0.791 -0.07 0.59 -0.8 0.11
1 9.11 911 -0.249 -9.275 2.040 14.923 -18.585 18.707 -869.883 -524.958 -3299.950 0.113 -0.074 0.894 -0.07 0.59 -0.8 0.11
1 9.12 912 -0.115 -9.065 2.246 15.228 -18.250 22.400 -869.883 -524.958 -3299.950 -0.041 -0.279 0.706 -0.07 0.59 -0.8 0.11
1 9.13 913 -0.158 -8.801 2.193 13.428 -16.174 24.414 -1034.926 -704.991 -3419.872 -0.022 -0.536 0.776 -0.07 0.59 -0.8 0.11
1 9.14 914 -0.091 -8.806 2.136 10.559 -15.991 25.360 -989.955 -749.961 -3254.979 -0.116 -0.526 0.850 -0.07 0.59 -0.8 0.12
1 9.15 915 -0.464 -8.825 2.284 6.683 -16.998 25.086 -989.955 -749.961 -3254.979 0.230 -0.502 0.713 -0.07 0.58 -0.8 0.12
1 9.16 916 -0.733 -9.165 2.428 -0.702 -20.355 20.752 -854.893 -734.971 -3314.940 0.472 -0.159 0.575 -0.07 0.58 -0.8 0.12
1 9.17 917 -0.900 -9.462 2.548 -3.235 -24.170 18.707 -794.932 -719.981 -3254.979 0.617 0.138 0.455 -0.07 0.58 -0.8 0.12
1 9.18 918 -1.082 -9.745 2.706 0.061 -31.555 17.242 -824.913 -734.971 -3389.892 0.763 0.419 0.288 -0.07 0.58 -0.8 0.13
1 9.19 919 -0.986 -9.788 2.859 3.265 -33.936 16.907 -824.913 -734.971 -3389.892 0.653 0.463 0.138 -0.07 0.58 -0.8 0.13
1 9.20 920 -0.383 -9.510 2.423 13.092 -36.652 15.472 -929.994 -854.893 -3314.940 0.040 0.190 0.586 -0.07 0.58 -0.8 0.13
1 9.21 921 0.019 -9.237 2.361 15.411 -36.530 15.076 -1034.926 -704.991 -3314.940 -0.367 -0.077 0.668 -0.08 0.58 -0.8 0.13
1 9.22 922 0.431 -8.868 2.184 14.496 -33.020 15.320 -1034.926 -704.991 -3314.940 -0.781 -0.438 0.866 -0.08 0.58 -0.8 0.14
1 9.23 923 0.335 -8.653 1.839 7.599 -25.299 16.266 -989.955 -749.961 -3329.931 -0.686 -0.648 1.230 -0.08 0.58 -0.8 0.14
1 9.24 924 0.220 -8.600 1.743 3.754 -20.569 15.503 -1079.896 -629.890 -3284.960 -0.575 -0.697 1.335 -0.08 0.58 -0.8 0.14
1 9.25 925 0.182 -8.442 1.997 1.556 -17.914 10.712 -1079.896 -629.890 -3284.960 -0.545 -0.852 1.088 -0.08 0.58 -0.8 0.14
1 9.26 926 -1.001 -8.844 2.145 -1.007 -14.465 -9.003 -1139.857 -749.961 -3329.931 0.634 -0.447 0.949 -0.08 0.58 -0.8 0.14
1 9.27 927 -1.815 -9.381 2.294 -15.442 -26.581 -24.628 -1004.945 -779.942 -3389.892 1.473 0.086 0.793 -0.08 0.58 -0.8 0.14
1 9.28 928 -1.690 -10.008 2.289 -32.776 -56.763 -28.992 -1139.857 -794.932 -3509.963 1.393 0.701 0.766 -0.09 0.58 -0.8 0.14
1 9.29 929 -0.397 -11.033 2.303 -33.234 -81.665 -20.783 -1139.857 -794.932 -3509.963 0.158 1.708 0.702 -0.09 0.58 -0.8 0.15
1 9.30 930 1.365 -11.608 2.744 -24.628 -86.609 -6.195 -1184.978 -809.922 -3239.989 -1.539 2.268 0.221 -0.1 0.58 -0.79 0.15
1 9.31 931 3.400 -11.502 4.343 -14.587 -58.899 12.512 -1079.896 -704.991 -3284.960 -3.532 2.154 -1.406 -0.1 0.58 -0.79 0.15
1 9.32 932 3.462 -11.282 4.755 -21.179 -39.856 16.724 -1079.896 -704.991 -3284.960 -3.578 1.927 -1.837 -0.11 0.58 -0.79 0.15
1 9.33 933 2.366 -11.449 4.358 -24.445 -24.231 13.367 -1229.949 -704.991 -3389.892 -2.492 2.077 -1.497 -0.11 0.58 -0.79 0.16
1 9.34 934 1.451 -11.296 3.893 -11.688 -20.722 5.615 -1274.919 -644.880 -3299.950 -1.583 1.915 -1.062 -0.11 0.59 -0.79 0.16
1 9.35 935 0.273 -10.985 3.735 4.364 -23.102 1.648 -1349.871 -599.909 -3299.950 -0.401 1.601 -0.913 -0.11 0.59 -0.79 0.16
1 9.36 936 -0.646 -10.286 3.764 9.247 -28.900 -2.319 -1349.871 -599.909 -3299.950 0.530 0.905 -0.930 -0.11 0.59 -0.79 0.16
1 9.37 937 -1.417 -9.955 3.764 1.129 -36.194 -2.625 -1274.919 -794.932 -3254.979 1.319 0.579 -0.916 -0.11 0.58 -0.79 0.16
1 9.38 938 -1.863 -9.395 3.548 -8.209 -43.274 0.610 -1229.949 -629.890 -3314.940 1.780 0.019 -0.697 -0.12 0.58 -0.79 0.16
1 9.39 939 -1.724 -8.873 3.405 -4.517 -48.340 -0.885 -1229.949 -629.890 -3314.940 1.648 -0.503 -0.557 -0.12 0.58 -0.79 0.17
1 9.40 940 -1.872 -8.064 2.868 8.575 -59.052 -4.974 -1424.972 -599.909 -3254.979 1.821 -1.311 -0.013 -0.12 0.58 -0.79 0.17
1 9.41 941 -2.002 -7.753 2.538 11.902 -62.287 -7.538 -1439.962 -659.870 -3164.888 1.980 -1.616 0.336 -0.13 0.58 -0.79 0.17
1 9.42 942 -2.208 -7.633 2.054 12.177 -66.590 -16.663 -1409.981 -584.919 -3164.888 2.233 -1.729 0.842 -0.13 0.58 -0.79 0.18
1 9.43 943 -2.619 -7.963 2.145 -2.594 -70.832 -23.346 -1409.981 -584.919 -3164.888 2.702 -1.394 0.766 -0.14 0.58 -0.79 0.18
1 9.44 944 -3.103 -8.912 2.825 -28.351 -82.642 -25.421 -1499.923 -719.981 -3329.931 3.254 -0.448 0.074 -0.14 0.58 -0.78 0.18
1 9.45 945 -2.993 -11.378 4.353 -61.737 -107.941 -7.111 -1574.874 -749.961 -3254.979 3.194 2.003 -1.506 -0.15 0.58 -0.78 0.18
1 9.46 946 -2.198 -12.680 4.947 -45.929 -112.091 16.876 -1574.874 -749.961 -3254.979 2.448 3.281 -2.185 -0.15 0.58 -0.78 0.18
1 9.47 947 -1.125 -12.608 4.999 0.427 -100.769 41.687 -1634.985 -779.942 -3209.859 1.409 3.187 -2.316 -0.16 0.58 -0.78 0.19
1 9.48 948 -0.618 -10.650 3.946 51.392 -80.597 60.730 -1664.965 -659.870 -3164.888 0.854 1.235 -1.236 -0.17 0.58 -0.77 0.2
1 9.49 949 -0.943 -9.505 3.002 38.391 -80.475 59.784 -1799.877 -644.880 -2969.865 1.126 0.110 -0.220 -0.17 0.57 -0.77 0.21
1 9.50 950 -1.465 -9.275 2.480 6.073 -87.464 55.115 -1799.877 -644.880 -2969.865 1.591 -0.107 0.347 -0.17 0.57 -0.77 0.22
1 9.51 951 -2.289 -9.850 2.476 -16.144 -95.734 50.903 -1814.868 -734.971 -3164.888 2.367 0.467 0.350 -0.17 0.57 -0.77 0.23
1 9.52 952 -2.466 -11.320 3.041 -14.069 -106.232 53.009 -1829.858 -644.880 -3044.966 2.499 1.928 -0.243 -0.18 0.57 -0.77 0.23
1 9.53 953 -2.236 -11.517 3.256 1.923 -109.497 59.326 -1829.858 -644.880 -3044.966 2.240 2.118 -0.481 -0.18 0.57 -0.76 0.24
1 9.54 954 -1.949 -10.765 3.146 17.944 -111.725 63.202 -1799.877 -674.860 -3149.898 1.917 1.365 -0.373 -0.18 0.57 -0.76 0.25
1 9.55 955 -1.542 -9.505 2.533 25.787 -115.784 57.434 -1949.930 -524.958 -3074.947 1.429 0.125 0.302 -0.19 0.57 -0.76 0.26
1 9.56 956 -1.350 -8.950 2.418 20.813 -116.578 51.026 -1949.930 -524.958 -3044.966 1.198 -0.418 0.454 -0.19 0.56 -0.76 0.27
1 9.57 957 -1.662 -8.758 2.045 13.489 -115.998 46.448 -1949.930 -524.958 -3044.966 1.481 -0.600 0.857 -0.2 0.56 -0.75 0.28
1 9.58 958 -2.193 -8.816 1.968 5.280 -119.141 45.075 -2054.861 -569.929 -2894.914 1.990 -0.537 0.950 -0.2 0.56 -0.75 0.29
1 9.59 959 -2.548 -8.888 2.145 -0.214 -124.634 45.868 -2009.891 -524.958 -3119.917 2.320 -0.463 0.779 -0.2 0.56 -0.75 0.29
1 9.60 960 -2.816 -9.161 2.117 2.319 -136.231 51.026 -2009.891 -524.958 -3119.917 2.561 -0.189 0.808 -0.21 0.55 -0.75 0.3
1 9.61 961 -2.653 -9.252 1.935 11.353 -145.020 56.153 -2084.992 -599.909 -2864.934 2.369 -0.096 0.994 -0.21 0.55 -0.74 0.31
1 9.62 962 -2.284 -8.979 1.432 22.125 -155.243 62.897 -2144.953 -629.890 -2879.924 1.935 -0.354 1.539 -0.22 0.55 -0.74 0.33
1 9.63 963 -2.035 -8.892 1.212 23.773 -158.875 64.667 -2219.904 -659.870 -2774.992 1.653 -0.428 1.794 -0.23 0.54 -0.73 0.34
1 9.64 964 -1.585 -8.457 0.709 19.257 -168.427 66.834 -2219.904 -659.870 -2774.992 1.172 -0.852 2.328 -0.23 0.54 -0.73 0.35
1 9.65 965 -1.130 -8.619 0.685 11.902 -175.507 64.789 -2354.966 -644.880 -2759.852 0.698 -0.678 2.383 -0.24 0.54 -0.73 0.36
1 9.66 966 -0.670 -8.720 0.776 7.111 -182.068 60.517 -2354.966 -599.909 -2759.852 0.232 -0.568 2.320 -0.24 0.53 -0.72 0.37
1 9.67 967 -0.172 -8.864 1.034 9.766 -186.432 54.291 -2354.966 -599.909 -2759.852 -0.262 -0.416 2.086 -0.25 0.53 -0.72 0.38
1 9.68 968 -0.005 -8.864 1.183 12.512 -186.493 51.300 -2174.933 -389.896 -2669.911 -0.418 -0.412 1.950 -0.26 0.52 -0.71 0.39
1 9.69 969 -0.034 -9.003 1.092 11.810 -185.547 48.371 -2174.933 -389.896 -2669.911 -0.371 -0.268 2.059 -0.26 0.52 -0.71 0.4
1 9.70 970 0.244 -9.414 1.523 3.326 -180.817 48.889 -2564.979 -644.880 -2354.966 -0.600 0.151 1.657 -0.28 0.51 -0.7 0.42
1 9.71 971 0.627 -9.544 1.939 -4.974 -174.775 50.018 -2564.979 -644.880 -2354.966 -0.960 0.280 1.241 -0.29 0.51 -0.69 0.42
1 9.72 972 0.704 -9.879 2.370 -6.683 -167.176 50.415 -2684.901 -449.857 -2324.985 -1.016 0.612 0.803 -0.29 0.5 -0.69 0.43
1 9.73 973 0.374 -10.238 2.600 -3.601 -160.401 49.042 -2804.973 -539.948 -2339.976 -0.669 0.968 0.566 -0.3 0.5 -0.68 0.44
1 9.74 974 0.096 -10.334 2.763 1.160 -155.213 49.133 -2804.973 -539.948 -2339.976 -0.377 1.063 0.401 -0.31 0.5 -0.68 0.45
1 9.75 975 -0.220 -9.946 2.729 8.942 -150.422 49.988 -2789.982 -599.909 -2279.865 -0.052 0.677 0.442 -0.31 0.49 -0.67 0.45
1 9.76 976 -0.345 -9.687 2.682 11.536 -148.682 51.361 -2789.982 -599.909 -2279.865 0.078 0.423 0.504 -0.32 0.49 -0.67 0.46
1 9.77 977 -0.120 -9.295 2.284 11.932 -148.591 53.284 -2894.914 -419.876 -1994.900 -0.144 0.044 0.940 -0.33 0.48 -0.66 0.48
1 9.78 978 0.374 -8.739 2.351 10.529 -148.682 54.260 -2894.914 -419.876 -1994.900 -0.638 -0.505 0.891 -0.33 0.48 -0.66 0.48
1 9.79 979 0.948 -8.816 2.514 8.545 -147.461 54.016 -2804.973 -284.964 -1934.939 -1.211 -0.422 0.746 -0.33 0.47 -0.65 0.49
1 9.80 980 1.748 -8.567 2.959 2.258 -144.867 54.566 -2939.885 -449.857 -1919.949 -2.005 -0.667 0.314 -0.34 0.47 -0.65 0.5
1 9.81 981 2.265 -8.370 3.280 -4.303 -136.414 51.666 -2939.885 -449.857 -1919.949 -2.512 -0.861 -0.001 -0.34 0.46 -0.64 0.5
1 9.82 982 2.404 -8.313 3.644 -3.754 -119.233 41.992 -2969.865 -419.876 -1844.998 -2.636 -0.919 -0.364 -0.35 0.46 -0.64 0.51
1 9.83 983 2.059 -8.141 3.740 2.533 -111.969 36.408 -2969.865 -419.876 -1844.998 -2.271 -1.090 -0.456 -0.35 0.46 -0.63 0.51
1 9.84 984 2.251 -7.997 4.018 8.789 -106.934 30.731 -2984.855 -239.994 -1679.956 -2.413 -1.224 -0.702 -0.36 0.45 -0.63 0.52
1 9.85 985 2.533 -7.968 4.056 7.813 -104.065 28.626 -2984.855 -239.994 -1679.956 -2.665 -1.245 -0.718 -0.36 0.44 -0.63 0.53
1 9.86 986 3.170 -8.265 4.961 -0.610 -91.065 26.581 -3104.927 -209.863 -1649.975 -3.269 -0.942 -1.605 -0.37 0.44 -0.62 0.53
1 9.87 987 3.711 -9.429 5.919 -10.803 -82.855 29.358 -2954.875 -314.945 -1424.972 -3.778 0.226 -2.551 -0.37 0.44 -0.62 0.53
1 9.88 988 4.827 -11.890 6.608 -38.757 -77.088 54.382 -2954.875 -314.945 -1424.972 -4.883 2.683 -3.252 -0.37 0.44 -0.62 0.54
1 9.89 989 6.402 -12.647 7.882 -35.584 -58.716 57.709 -3104.927 -209.863 -1604.854 -6.487 3.423 -4.572 -0.38 0.44 -0.62 0.54
1 9.90 990 4.482 -11.248 6.259 11.871 -39.917 30.853 -3104.927 -209.863 -1604.854 -4.617 2.006 -3.001 -0.38 0.44 -0.61 0.54
1 9.91 991 1.987 -10.147 4.477 54.291 -29.175 8.698 -3134.908 -89.941 -1214.958 -2.154 0.906 -1.220 -0.38 0.44 -0.61 0.54
1 9.92 992 -0.426 -8.730 3.654 44.281 -36.682 -14.679 -3014.986 -149.902 -1379.851 0.281 -0.456 -0.241 -0.37 0.43 -0.61 0.55
1 9.93 993 -1.360 -9.113 3.946 8.148 -55.359 -32.135 -3134.908 -164.893 -1274.919 1.265 -0.053 -0.479 -0.37 0.43 -0.61 0.55
1 9.94 994 -1.628 -10.415 4.065 -15.930 -74.585 -37.018 -3089.937 -104.932 -1304.900 1.606 1.251 -0.592 -0.38 0.42 -0.61 0.55
1 9.95 995 -1.288 -11.631 4.022 -10.651 -84.412 -28.412 -3089.937 -104.932 -1304.900 1.352 2.460 -0.570 -0.38 0.42 -0.61 0.55
1 9.96 996 -0.737 -11.100 3.706 34.180 -76.477 -6.958 -3059.957 -89.941 -1349.871 0.882 1.927 -0.259 -0.39 0.42 -0.61 0.55
1 9.97 997 -0.728 -9.955 2.801 54.474 -71.503 3.113 -3059.957 -89.941 -1349.871 0.930 0.798 0.682 -0.39 0.41 -0.61 0.55
1 9.98 998 -0.924 -8.610 1.920 49.530 -79.102 9.522 -3194.869 -224.854 -1259.929 1.165 -0.520 1.634 -0.39 0.41 -0.61 0.55
1 9.99 999 -0.809 -7.777 2.026 3.632 -103.333 18.616 -3059.957 -164.893 -1169.988 1.101 -1.313 1.626 -0.39 0.4 -0.61 0.56
1 10.00 1000 -0.464 -8.169 2.557 -22.492 -108.460 25.330 -3179.878 -164.893 -1169.988 0.787 -0.923 1.086 -0.4 0.4 -0.61 0.56
