COL1	TIME	ACC_X	ACC_Y	ACC_Z	GYR_X	GYR_Y	GYR_Z	MAG_X	MAG_Y	MAG_Z	LACC_X	LACC_Y	LACC_Z	QUAT_X	QUAT_Y	QUAT_Z	QUAT_W
1 0.00 0 0.460 -9.730 2.040 -1.190 -0.305 0.793 195.323 3019.933 -2740.215 0.049 0.149 -0.047 -0.04 -0.63 0.77 0.09
1 0.01 1 0.417 -9.673 2.059 -0.671 -0.366 1.495 195.323 3019.933 -2740.215 0.092 0.091 -0.065 -0.04 -0.63 0.77 0.09
1 0.02 2 0.359 -9.793 2.078 -1.160 -0.580 1.434 180.333 3184.975 -2905.257 0.149 0.211 -0.084 -0.04 -0.63 0.77 0.09
1 0.03 3 0.584 -9.654 2.035 -1.404 -0.519 0.977 180.333 3184.975 -2905.257 -0.077 0.072 -0.041 -0.04 -0.63 0.77 0.09
1 0.04 4 0.575 -9.611 1.954 -0.916 -1.038 0.946 240.293 3169.985 -2740.215 -0.067 0.029 0.040 -0.04 -0.63 0.77 0.09
1 0.05 5 0.517 -9.615 2.002 -1.160 -0.732 1.373 240.293 3169.985 -2740.215 -0.009 0.034 -0.008 -0.04 -0.63 0.77 0.09
1 0.06 6 0.613 -9.788 1.959 -0.671 -0.824 1.038 150.352 3259.926 -2830.156 -0.104 0.206 0.035 -0.04 -0.63 0.77 0.09
1 0.07 7 0.503 -9.821 2.107 0.031 -0.610 0.824 135.362 2944.981 -2950.228 0.005 0.240 -0.113 -0.04 -0.63 0.77 0.09
1 0.08 8 0.618 -9.711 1.987 -0.488 0.183 1.129 135.362 2944.981 -2950.228 -0.109 0.130 0.007 -0.04 -0.63 0.77 0.09
1 0.09 9 0.560 -9.702 1.968 -0.671 -0.427 1.129 240.293 3244.936 -2815.166 -0.050 0.120 0.026 -0.04 -0.63 0.77 0.09
1 0.10 10 0.522 -9.659 1.949 -0.458 -0.702 0.946 240.293 3244.936 -2815.166 -0.011 0.077 0.045 -0.04 -0.63 0.77 0.09
1 0.11 11 0.637 -9.568 2.021 -0.885 -0.732 0.885 105.231 3154.995 -2860.137 -0.126 -0.014 -0.027 -0.04 -0.63 0.77 0.09
1 0.12 12 0.551 -9.668 2.006 -0.824 -0.763 0.641 105.231 3154.995 -2860.137 -0.039 0.087 -0.012 -0.04 -0.63 0.77 0.09
1 0.13 13 0.594 -9.606 1.973 -1.099 -0.458 0.427 240.293 3244.936 -2995.199 -0.082 0.025 0.021 -0.04 -0.63 0.77 0.09
1 0.14 14 0.464 -9.625 2.059 -1.343 -1.190 0.977 255.284 3080.043 -2800.176 0.048 0.044 -0.065 -0.04 -0.63 0.77 0.09
1 0.15 15 0.517 -9.587 1.992 -1.526 -1.007 1.038 255.284 3080.043 -2800.176 -0.005 0.006 0.002 -0.04 -0.63 0.77 0.09
1 0.16 16 0.527 -9.759 2.045 -1.465 -0.824 0.763 180.333 3184.975 -2860.137 -0.015 0.178 -0.050 -0.04 -0.63 0.77 0.09
1 0.17 17 0.546 -9.726 2.083 -1.495 -0.641 0.885 180.333 3184.975 -2860.137 -0.034 0.145 -0.088 -0.04 -0.63 0.77 0.09
1 0.18 18 0.527 -9.702 2.011 -1.038 -0.580 1.282 330.235 3229.946 -2830.156 -0.015 0.121 -0.016 -0.04 -0.63 0.77 0.09
1 0.19 19 0.469 -9.515 2.026 -0.061 -0.671 1.648 330.235 3229.946 -2830.156 0.043 -0.066 -0.030 -0.04 -0.63 0.77 0.09
1 0.20 20 0.599 -9.668 1.882 -0.824 -0.580 1.495 330.235 3154.995 -2830.156 -0.087 0.087 0.114 -0.04 -0.63 0.77 0.09
1 0.21 21 0.565 -9.697 1.915 -1.709 -0.946 1.099 240.293 3095.034 -2950.228 -0.053 0.116 0.080 -0.04 -0.63 0.77 0.09
1 0.22 22 0.536 -9.615 2.117 -1.465 -1.465 1.282 240.293 3095.034 -2950.228 -0.024 0.035 -0.121 -0.04 -0.63 0.77 0.09
1 0.23 23 0.431 -9.740 1.954 -0.671 -1.038 1.068 315.245 3214.956 -2815.166 0.081 0.159 0.041 -0.04 -0.63 0.77 0.09
1 0.24 24 0.469 -9.659 1.959 -0.946 -1.526 0.366 90.241 3019.933 -2920.248 0.043 0.077 0.036 -0.04 -0.63 0.77 0.09
1 0.25 25 0.536 -9.558 1.963 -1.129 -1.312 0.824 360.365 3110.024 -2905.257 -0.025 -0.023 0.031 -0.04 -0.63 0.77 0.09
1 0.26 26 0.555 -9.730 1.982 -1.526 -1.434 0.641 360.365 3110.024 -2905.257 -0.044 0.149 0.011 -0.04 -0.63 0.77 0.09
1 0.27 27 0.603 -9.802 2.030 -1.831 -1.068 1.160 255.284 3184.975 -2680.254 -0.092 0.221 -0.037 -0.04 -0.63 0.77 0.09
1 0.28 28 0.512 -9.702 2.050 -1.617 -1.312 1.373 180.333 3154.995 -2830.156 -0.000 0.120 -0.057 -0.04 -0.63 0.77 0.09
1 0.29 29 0.680 -9.817 2.021 -1.221 -0.977 1.190 180.333 3154.995 -2830.156 -0.168 0.235 -0.029 -0.04 -0.63 0.77 0.09
1 0.30 30 0.579 -9.692 2.045 -0.092 -1.373 1.282 180.333 3110.024 -3055.160 -0.068 0.110 -0.053 -0.04 -0.63 0.77 0.09
1 0.31 31 0.498 -9.730 2.073 -1.312 -0.580 1.495 315.245 3244.936 -2815.166 0.015 0.149 -0.082 -0.04 -0.63 0.77 0.09
1 0.32 32 0.512 -9.639 2.030 -1.465 -0.671 0.397 240.293 3214.956 -2995.199 0.001 0.058 -0.038 -0.04 -0.63 0.77 0.09
1 0.33 33 0.512 -9.726 2.030 -1.648 -0.305 1.251 240.293 3214.956 -2995.199 0.001 0.144 -0.038 -0.04 -0.63 0.77 0.09
1 0.34 34 0.565 -9.735 1.935 -1.312 -0.519 0.793 300.254 3034.923 -2830.156 -0.052 0.154 0.058 -0.04 -0.63 0.77 0.09
1 0.35 35 0.508 -9.649 2.030 -0.549 -0.214 0.671 270.274 3095.034 -2845.146 0.006 0.067 -0.038 -0.04 -0.63 0.77 0.09
1 0.36 36 0.469 -9.702 1.982 -0.305 -0.153 0.183 270.274 3095.034 -2845.146 0.044 0.120 0.010 -0.04 -0.63 0.77 0.09
1 0.37 37 0.560 -9.659 2.045 -1.007 -0.061 0.549 180.333 3110.024 -2905.257 -0.047 0.077 -0.053 -0.04 -0.63 0.77 0.09
1 0.38 38 0.512 -9.706 1.963 -1.740 -0.214 0.671 180.333 3034.923 -2905.257 0.001 0.125 0.029 -0.04 -0.63 0.77 0.09
1 0.39 39 0.560 -9.936 2.021 -0.671 -0.031 0.366 195.323 3019.933 -2890.117 -0.047 0.355 -0.029 -0.04 -0.63 0.77 0.09
1 0.40 40 0.527 -9.668 2.040 -0.916 -0.610 1.007 195.323 3019.933 -2890.117 -0.013 0.087 -0.048 -0.04 -0.63 0.77 0.09
1 0.41 41 0.484 -9.745 2.136 -0.427 -0.183 1.221 300.254 3184.975 -2935.238 0.030 0.163 -0.143 -0.04 -0.63 0.77 0.09
1 0.42 42 0.589 -9.630 2.088 -1.587 0.732 0.946 180.333 3034.923 -2905.257 -0.076 0.048 -0.095 -0.04 -0.63 0.77 0.09
1 0.43 43 0.522 -9.745 2.040 -2.960 1.404 0.885 180.333 3034.923 -2905.257 -0.009 0.163 -0.048 -0.04 -0.63 0.77 0.09
1 0.44 44 0.517 -9.625 1.954 -2.930 2.441 0.488 225.303 3259.926 -3010.189 -0.005 0.043 0.037 -0.04 -0.63 0.77 0.09
1 0.45 45 0.579 -9.754 2.035 -3.387 2.747 0.397 255.284 3034.923 -2935.238 -0.067 0.172 -0.048 -0.04 -0.63 0.77 0.09
1 0.46 46 0.479 -9.754 1.973 -1.709 1.923 1.007 240.293 3244.936 -2920.248 0.032 0.171 0.010 -0.04 -0.63 0.77 0.09
1 0.47 47 0.364 -9.615 2.050 -1.221 1.526 0.885 240.293 3244.936 -2920.248 0.146 0.032 -0.067 -0.04 -0.63 0.77 0.09
1 0.48 48 0.354 -9.654 1.963 -1.801 0.946 1.099 195.323 3169.985 -2890.117 0.154 0.070 0.018 -0.04 -0.63 0.77 0.09
1 0.49 49 0.431 -9.745 1.944 -1.678 0.916 0.793 225.303 3259.926 -2935.238 0.075 0.160 0.035 -0.04 -0.63 0.77 0.09
1 0.50 50 0.608 -9.687 2.140 -2.319 1.007 1.648 225.303 3259.926 -2935.238 -0.103 0.102 -0.162 -0.04 -0.63 0.77 0.09
1 0.51 51 0.584 -9.754 2.155 -2.014 2.502 1.862 165.342 3169.985 -2845.146 -0.081 0.169 -0.178 -0.04 -0.63 0.77 0.09
1 0.52 52 0.584 -9.793 1.987 -2.319 3.143 1.801 270.274 3050.063 -2770.195 -0.083 0.207 -0.011 -0.04 -0.63 0.77 0.09
1 0.53 53 0.608 -9.678 2.102 -0.916 3.601 2.655 225.303 3229.946 -2905.257 -0.113 0.091 -0.129 -0.04 -0.63 0.77 0.09
1 0.54 54 0.469 -9.788 2.073 -0.366 2.930 2.258 225.303 3229.946 -2905.257 0.023 0.201 -0.100 -0.04 -0.63 0.77 0.09
1 0.55 55 0.441 -9.601 2.102 -0.488 2.075 1.221 330.235 3229.946 -2935.238 0.049 0.015 -0.127 -0.04 -0.63 0.77 0.09
1 0.56 56 0.417 -9.592 2.016 -1.007 1.007 0.763 345.225 3050.063 -2815.166 0.071 0.005 -0.040 -0.04 -0.63 0.77 0.09
1 0.57 57 0.450 -9.630 1.982 -1.740 0.366 0.732 345.225 3050.063 -2815.166 0.037 0.044 -0.006 -0.04 -0.63 0.77 0.09
1 0.58 58 0.445 -9.620 2.006 -2.228 0.214 0.549 225.303 3080.043 -2725.225 0.042 0.034 -0.031 -0.04 -0.63 0.77 0.09
1 0.59 59 0.383 -9.678 2.045 -1.526 0.183 0.763 270.274 3214.956 -2845.146 0.104 0.091 -0.071 -0.04 -0.63 0.77 0.09
1 0.60 60 0.412 -9.620 2.069 -1.068 0.671 0.671 390.346 3169.985 -2920.248 0.076 0.034 -0.095 -0.04 -0.63 0.77 0.09
1 0.61 61 0.484 -9.505 1.939 -1.068 1.007 0.763 390.346 3169.985 -2920.248 0.003 -0.081 0.035 -0.04 -0.63 0.77 0.09
1 0.62 62 0.378 -9.630 1.944 -1.740 0.336 0.763 195.323 3050.063 -2890.117 0.108 0.043 0.031 -0.04 -0.63 0.77 0.09
1 0.63 63 0.335 -9.659 1.954 -1.923 -0.916 0.580 330.235 3259.926 -2980.208 0.150 0.072 0.021 -0.04 -0.63 0.77 0.09
1 0.64 64 0.283 -9.726 2.040 -2.686 -1.617 1.434 330.235 3259.926 -2980.208 0.201 0.139 -0.066 -0.04 -0.63 0.77 0.09
1 0.65 65 0.441 -9.596 1.973 -1.862 -1.770 1.251 240.293 3095.034 -3025.179 0.042 0.009 -0.002 -0.04 -0.63 0.77 0.09
1 0.66 66 0.374 -9.807 2.002 -0.671 -1.831 1.862 345.225 3214.956 -2950.228 0.108 0.219 -0.032 -0.04 -0.63 0.77 0.09
1 0.67 67 0.326 -9.620 2.088 -1.068 -2.747 1.373 345.225 3214.956 -2950.228 0.156 0.032 -0.119 -0.04 -0.63 0.77 0.09
1 0.68 68 0.354 -9.716 2.088 -2.502 -2.777 1.678 315.245 3019.933 -2845.146 0.125 0.128 -0.120 -0.04 -0.63 0.77 0.09
1 0.69 69 0.426 -9.644 1.968 -1.892 -3.571 1.678 390.346 3050.063 -2815.166 0.053 0.055 -0.002 -0.04 -0.63 0.77 0.09
1 0.70 70 0.388 -9.706 2.050 -2.045 -4.089 1.648 165.342 3214.956 -2920.248 0.090 0.117 -0.085 -0.04 -0.63 0.77 0.09
1 0.71 71 0.388 -9.769 1.954 -1.770 -3.998 2.960 165.342 3214.956 -2920.248 0.090 0.179 0.009 -0.04 -0.63 0.77 0.09
1 0.72 72 0.374 -9.649 1.949 -2.380 -4.486 2.899 315.245 3125.014 -2890.117 0.102 0.059 0.012 -0.04 -0.63 0.77 0.09
1 0.73 73 0.503 -9.572 1.982 -2.563 -5.005 2.991 330.235 3110.024 -2860.137 -0.029 -0.018 -0.024 -0.04 -0.63 0.77 0.09
1 0.74 74 0.589 -9.769 1.930 -2.686 -5.463 2.533 330.235 3110.024 -2860.137 -0.117 0.177 0.026 -0.04 -0.63 0.77 0.09
1 0.75 75 0.479 -9.592 1.896 -1.709 -5.707 2.106 255.284 3184.975 -2830.156 -0.008 -0.001 0.054 -0.04 -0.63 0.77 0.09
1 0.76 76 0.570 -9.625 1.877 -2.136 -6.042 1.740 300.254 3184.975 -2860.137 -0.099 0.032 0.071 -0.04 -0.63 0.77 0.09
1 0.77 77 0.594 -9.687 1.887 -2.228 -6.042 1.404 315.245 3095.034 -2770.195 -0.122 0.094 0.059 -0.04 -0.63 0.77 0.09
1 0.78 78 0.532 -9.539 1.872 -2.350 -6.348 0.946 315.245 3095.034 -2770.195 -0.058 -0.055 0.070 -0.04 -0.63 0.77 0.09
1 0.79 79 0.608 -9.630 1.954 -2.563 -6.775 1.282 330.235 3154.995 -2860.137 -0.132 0.035 -0.015 -0.04 -0.63 0.77 0.09
1 0.80 80 0.589 -9.635 1.949 -3.326 -6.622 1.251 390.346 3125.014 -2845.146 -0.111 0.040 -0.013 -0.04 -0.63 0.77 0.09
1 0.81 81 0.675 -9.692 1.887 -3.601 -5.890 0.366 390.346 3125.014 -2845.146 -0.195 0.096 0.044 -0.04 -0.63 0.77 0.09
1 0.82 82 0.632 -9.778 1.820 -3.021 -5.829 1.312 195.323 3214.956 -2890.117 -0.149 0.182 0.106 -0.04 -0.63 0.77 0.09
1 0.83 83 0.560 -9.807 1.915 -1.678 -5.951 0.488 255.284 3184.975 -2905.257 -0.072 0.209 0.003 -0.04 -0.63 0.77 0.09
1 0.84 84 0.771 -9.788 1.939 -0.122 -5.463 0.488 330.235 3184.975 -2755.205 -0.280 0.190 -0.023 -0.04 -0.63 0.77 0.09
1 0.85 85 0.623 -9.869 1.882 0.092 -5.676 0.214 330.235 3184.975 -2755.205 -0.128 0.271 0.036 -0.04 -0.63 0.77 0.09
1 0.86 86 0.575 -9.783 1.925 0.458 -6.134 0.610 195.323 3244.936 -2920.248 -0.077 0.186 -0.007 -0.04 -0.63 0.77 0.09
1 0.87 87 0.623 -9.678 1.820 0.641 -6.775 -0.275 255.284 3229.946 -2905.257 -0.121 0.081 0.100 -0.04 -0.63 0.77 0.09
1 0.88 88 0.809 -9.726 1.777 -0.244 -6.561 0.000 255.284 3229.946 -2905.257 -0.303 0.129 0.144 -0.04 -0.63 0.77 0.09
1 0.89 89 0.771 -9.769 1.939 -0.031 -6.012 -0.580 225.303 3110.024 -2830.156 -0.259 0.172 -0.018 -0.04 -0.63 0.77 0.09
1 0.90 90 0.728 -9.706 1.863 0.336 -6.042 -0.793 135.362 3244.936 -2845.146 -0.206 0.111 0.059 -0.04 -0.63 0.77 0.09
1 0.91 91 0.651 -9.706 1.896 0.397 -4.578 -1.007 300.254 3259.926 -2860.137 -0.124 0.111 0.026 -0.04 -0.63 0.77 0.09
1 0.92 92 0.656 -9.788 1.829 0.458 -3.571 -0.153 300.254 3259.926 -2860.137 -0.124 0.193 0.095 -0.04 -0.63 0.77 0.09
1 0.93 93 0.560 -9.697 2.050 0.366 -2.991 -0.732 180.333 3259.926 -2800.176 -0.025 0.103 -0.125 -0.04 -0.63 0.77 0.09
1 0.94 94 0.570 -9.711 1.925 -0.671 -2.380 -0.549 195.323 3125.014 -2950.228 -0.031 0.117 0.001 -0.04 -0.63 0.77 0.09
1 0.95 95 0.632 -9.807 1.848 -1.160 -2.502 -0.763 195.323 3125.014 -2950.228 -0.090 0.213 0.077 -0.04 -0.63 0.77 0.09
1 0.96 96 0.560 -9.855 1.930 0.427 -3.845 -0.458 240.293 3244.936 -2740.215 -0.015 0.261 -0.006 -0.04 -0.63 0.77 0.09
1 0.97 97 0.412 -9.745 1.844 1.923 -3.021 -0.732 255.284 3080.043 -2905.257 0.140 0.152 0.083 -0.04 -0.63 0.77 0.09
1 0.98 98 0.508 -9.682 1.963 1.801 -2.411 -0.824 165.342 3290.057 -2995.199 0.046 0.090 -0.034 -0.04 -0.63 0.77 0.09
1 0.99 99 0.460 -9.659 1.930 0.488 -1.709 -0.031 165.342 3290.057 -2995.199 0.096 0.067 0.003 -0.04 -0.63 0.77 0.09
1 1.00 100 0.498 -9.678 1.891 -0.702 -1.709 -0.122 180.333 3110.024 -2830.156 0.058 0.086 0.041 -0.04 -0.63 0.77 0.09
1 1.01 101 0.517 -9.769 1.805 -0.366 -1.526 0.641 165.342 3365.008 -2920.248 0.039 0.177 0.127 -0.04 -0.63 0.77 0.09
1 1.02 102 0.512 -9.802 1.978 0.275 -0.763 0.885 165.342 3365.008 -2920.248 0.044 0.211 -0.046 -0.04 -0.63 0.77 0.09
1 1.03 103 0.508 -9.716 1.982 0.916 -0.549 1.068 195.323 3214.956 -2995.199 0.048 0.124 -0.051 -0.04 -0.63 0.77 0.09
1 1.04 104 0.498 -9.563 1.920 0.458 -0.214 1.343 360.365 3229.946 -2905.257 0.057 -0.028 0.016 -0.04 -0.63 0.77 0.09
1 1.05 105 0.637 -9.644 1.939 -0.671 -0.031 0.946 135.362 3095.034 -2920.248 -0.083 0.054 -0.002 -0.04 -0.63 0.77 0.09
1 1.06 106 0.503 -9.702 1.891 -1.465 0.061 1.465 135.362 3095.034 -2920.248 0.051 0.111 0.046 -0.04 -0.63 0.77 0.09
1 1.07 107 0.493 -9.572 1.954 -1.343 0.336 1.556 135.362 3125.014 -2920.248 0.060 -0.018 -0.017 -0.04 -0.63 0.77 0.09
1 1.08 108 0.512 -9.702 2.006 -1.068 1.404 1.221 195.323 3125.014 -2890.117 0.040 0.111 -0.069 -0.04 -0.63 0.77 0.09
1 1.09 109 0.651 -9.740 1.973 -1.770 2.472 1.007 195.323 3125.014 -2890.117 -0.100 0.149 -0.036 -0.04 -0.63 0.77 0.09
1 1.10 110 0.488 -9.802 1.925 -1.251 2.472 0.610 180.333 3154.995 -2860.137 0.062 0.211 0.010 -0.04 -0.63 0.77 0.09
1 1.11 111 0.637 -9.802 1.915 -0.580 2.686 0.519 180.333 3154.995 -2860.137 -0.087 0.211 0.019 -0.04 -0.63 0.77 0.09
1 1.12 112 0.551 -9.687 1.911 -0.793 2.808 0.397 165.342 3050.063 -2740.215 -0.002 0.096 0.025 -0.04 -0.63 0.77 0.09
1 1.13 113 0.603 -9.788 1.949 -2.258 2.838 0.580 165.342 3050.063 -2740.215 -0.055 0.197 -0.013 -0.04 -0.63 0.77 0.09
1 1.14 114 0.493 -9.821 1.868 -2.991 3.021 0.824 315.245 3125.014 -2920.248 0.054 0.230 0.066 -0.04 -0.63 0.77 0.09
1 1.15 115 0.517 -9.817 1.810 -2.075 3.815 0.366 165.342 3169.985 -2920.248 0.029 0.224 0.119 -0.04 -0.63 0.77 0.09
1 1.16 116 0.603 -9.654 1.858 -1.160 3.845 1.129 165.342 3169.985 -2920.248 -0.058 0.061 0.070 -0.04 -0.63 0.77 0.09
1 1.17 117 0.464 -9.726 1.982 -1.129 3.693 0.793 255.284 3154.995 -2860.137 0.079 0.132 -0.055 -0.04 -0.63 0.77 0.09
1 1.18 118 0.546 -9.649 1.987 -1.404 3.235 1.251 255.284 3154.995 -2860.137 -0.004 0.056 -0.060 -0.04 -0.63 0.77 0.09
1 1.19 119 0.441 -9.764 1.844 -1.862 2.075 0.000 240.293 3095.034 -2920.248 0.099 0.170 0.082 -0.04 -0.63 0.77 0.09
1 1.20 120 0.479 -9.754 1.930 -1.556 1.526 0.763 240.293 3095.034 -2920.248 0.061 0.160 -0.007 -0.04 -0.63 0.77 0.09
1 1.21 121 0.464 -9.615 1.939 -1.709 1.801 -0.336 195.323 3095.034 -2845.146 0.075 0.021 -0.017 -0.04 -0.63 0.77 0.09
1 1.22 122 0.412 -9.711 2.030 -1.465 1.404 0.031 75.251 3229.946 -2860.137 0.128 0.117 -0.109 -0.04 -0.63 0.77 0.09
1 1.23 123 0.450 -9.668 2.016 -1.434 1.923 -0.092 75.251 3229.946 -2860.137 0.089 0.073 -0.096 -0.04 -0.63 0.77 0.09
1 1.24 124 0.512 -9.673 2.030 -1.984 1.007 0.610 180.333 3034.923 -2860.137 0.027 0.078 -0.111 -0.04 -0.63 0.77 0.09
1 1.25 125 0.484 -9.735 1.968 -2.289 0.580 1.129 180.333 3034.923 -2860.137 0.055 0.140 -0.050 -0.04 -0.63 0.77 0.09
1 1.26 126 0.508 -9.682 1.915 -1.984 0.610 1.556 135.362 3125.014 -2815.166 0.030 0.087 0.001 -0.04 -0.63 0.77 0.09
1 1.27 127 0.488 -9.783 1.939 -1.862 0.946 1.892 300.254 3184.975 -2905.257 0.047 0.187 -0.024 -0.04 -0.63 0.77 0.09
1 1.28 128 0.474 -9.711 2.016 -2.258 0.702 1.678 270.274 3214.956 -2845.146 0.059 0.115 -0.102 -0.04 -0.63 0.77 0.09
1 1.29 129 0.436 -9.764 1.963 -2.106 0.244 2.106 165.342 3125.014 -2890.117 0.095 0.167 -0.051 -0.04 -0.63 0.77 0.09
1 1.30 130 0.306 -9.750 2.006 -0.732 0.488 2.319 165.342 3125.014 -2890.117 0.222 0.152 -0.094 -0.04 -0.63 0.77 0.09
1 1.31 131 0.498 -9.802 2.006 -0.519 -0.458 1.648 75.251 3305.047 -2800.176 0.028 0.205 -0.094 -0.04 -0.63 0.77 0.09
1 1.32 132 0.464 -9.659 2.030 -1.129 -1.221 2.075 75.251 3305.047 -2800.176 0.060 0.061 -0.117 -0.04 -0.63 0.77 0.09
1 1.33 133 0.560 -9.649 2.002 -1.434 -0.153 1.343 150.352 3110.024 -2830.156 -0.037 0.052 -0.088 -0.04 -0.63 0.77 0.09
1 1.34 134 0.441 -9.754 1.915 -1.434 -0.275 2.258 180.333 3034.923 -2905.257 0.081 0.157 -0.002 -0.04 -0.63 0.77 0.09
1 1.35 135 0.589 -9.788 1.911 -0.916 -0.610 2.472 90.241 3095.034 -2770.195 -0.070 0.190 0.002 -0.04 -0.63 0.77 0.09
1 1.36 136 0.575 -9.745 1.987 -0.977 -1.007 2.472 315.245 3095.034 -2845.146 -0.057 0.147 -0.075 -0.04 -0.63 0.77 0.09
1 1.37 137 0.599 -9.654 1.982 -0.702 -0.977 2.655 315.245 3095.034 -2845.146 -0.083 0.056 -0.069 -0.04 -0.63 0.77 0.09
1 1.38 138 0.565 -9.601 2.002 -1.160 -1.038 1.831 90.241 3125.014 -2920.248 -0.052 0.003 -0.088 -0.04 -0.63 0.77 0.09
1 1.39 139 0.618 -9.764 1.896 -1.892 -1.221 1.862 90.241 3125.014 -2920.248 -0.105 0.166 0.017 -0.04 -0.63 0.77 0.09
1 1.40 140 0.656 -9.692 1.935 -1.831 -1.648 1.282 105.231 3184.975 -3010.189 -0.144 0.094 -0.022 -0.04 -0.63 0.77 0.09
1 1.41 141 0.532 -9.812 1.982 -0.977 -0.793 1.343 255.284 3154.995 -2905.257 -0.019 0.214 -0.071 -0.04 -0.63 0.77 0.09
1 1.42 142 0.421 -9.817 1.982 0.580 -0.824 1.068 195.323 3244.936 -3025.179 0.091 0.219 -0.071 -0.04 -0.63 0.77 0.09
1 1.43 143 0.666 -9.802 1.978 -0.122 -1.221 0.549 315.245 3095.034 -2890.117 -0.153 0.204 -0.065 -0.04 -0.63 0.77 0.09
1 1.44 144 0.670 -9.740 1.920 -0.854 -1.312 1.526 315.245 3095.034 -2890.117 -0.157 0.142 -0.008 -0.04 -0.63 0.77 0.09
1 1.45 145 0.560 -9.654 1.959 -0.763 -0.916 0.702 225.303 3379.998 -2830.156 -0.046 0.056 -0.046 -0.04 -0.63 0.77 0.09
1 1.46 146 0.541 -9.620 1.863 -1.038 -0.153 1.129 225.303 3379.998 -2830.156 -0.027 0.022 0.049 -0.04 -0.63 0.77 0.09
1 1.47 147 0.637 -9.654 1.872 -1.648 -0.824 0.702 315.245 3169.985 -2950.228 -0.122 0.056 0.039 -0.04 -0.63 0.77 0.09
1 1.48 148 0.517 -9.735 1.949 -1.312 -1.038 0.885 240.293 2974.962 -2845.146 -0.002 0.137 -0.039 -0.04 -0.63 0.77 0.09
1 1.49 149 0.498 -9.754 1.978 -0.610 -1.129 1.068 240.293 3169.985 -2770.195 0.017 0.156 -0.068 -0.04 -0.63 0.77 0.09
1 1.50 150 0.551 -9.553 1.963 -0.824 -1.312 0.183 180.333 3080.043 -2905.257 -0.036 -0.045 -0.054 -0.04 -0.63 0.77 0.09
1 1.51 151 0.498 -9.649 1.925 -1.129 -1.343 0.519 180.333 3080.043 -2905.257 0.017 0.051 -0.015 -0.04 -0.63 0.77 0.09
1 1.52 152 0.546 -9.860 1.944 -1.312 -1.373 0.854 270.274 3125.014 -2770.195 -0.030 0.261 -0.035 -0.04 -0.63 0.77 0.09
1 1.53 153 0.445 -9.625 1.829 -0.427 -2.075 0.305 270.274 3125.014 -2770.195 0.071 0.027 0.080 -0.04 -0.63 0.77 0.09
1 1.54 154 0.498 -9.730 1.863 0.305 -2.747 0.702 315.245 3095.034 -2815.166 0.019 0.132 0.046 -0.04 -0.63 0.77 0.09
1 1.55 155 0.464 -9.769 1.810 -0.824 -2.930 0.763 195.323 3169.985 -2920.248 0.054 0.171 0.100 -0.04 -0.63 0.77 0.09
1 1.56 156 0.407 -9.735 1.848 -0.916 -2.686 1.221 405.336 3184.975 -2905.257 0.111 0.137 0.060 -0.04 -0.63 0.77 0.09
1 1.57 157 0.503 -9.759 1.935 -1.068 -2.655 1.007 255.284 3154.995 -2800.176 0.015 0.161 -0.027 -0.04 -0.63 0.77 0.09
1 1.58 158 0.508 -9.702 1.863 -0.488 -3.021 1.404 255.284 3154.995 -2800.176 0.010 0.103 0.045 -0.04 -0.63 0.77 0.09
1 1.59 159 0.551 -9.697 1.829 -0.427 -2.747 0.763 420.326 3169.985 -2920.248 -0.033 0.098 0.078 -0.04 -0.63 0.77 0.09
1 1.60 160 0.642 -9.673 1.906 -0.946 -2.472 1.587 420.326 3169.985 -2920.248 -0.123 0.074 0.001 -0.04 -0.63 0.77 0.09
1 1.61 161 0.517 -9.682 1.987 -1.099 -2.441 1.495 180.333 3110.024 -2800.176 0.001 0.084 -0.080 -0.04 -0.63 0.77 0.09
1 1.62 162 0.565 -9.735 1.887 -1.251 -2.655 1.343 345.225 3169.985 -2845.146 -0.046 0.136 0.019 -0.04 -0.63 0.77 0.09
1 1.63 163 0.623 -9.735 2.059 -1.343 -3.113 1.648 150.352 3259.926 -2830.156 -0.103 0.136 -0.156 -0.04 -0.63 0.77 0.09
1 1.64 164 0.493 -9.697 1.992 -1.221 -2.777 0.946 225.303 3184.975 -3010.189 0.026 0.098 -0.089 -0.04 -0.63 0.77 0.09
1 1.65 165 0.536 -9.654 1.997 -0.854 -2.716 0.946 225.303 3184.975 -3010.189 -0.016 0.054 -0.094 -0.04 -0.63 0.77 0.09
1 1.66 166 0.464 -9.687 1.906 -0.641 -2.106 0.977 195.323 3214.956 -2815.166 0.056 0.088 -0.003 -0.04 -0.63 0.77 0.09
1 1.67 167 0.512 -9.702 2.002 -1.587 -2.167 1.343 195.323 3214.956 -2815.166 0.008 0.102 -0.099 -0.04 -0.63 0.77 0.09
1 1.68 168 0.498 -9.759 1.891 -0.488 -2.838 0.580 255.284 3184.975 -2800.176 0.023 0.160 0.011 -0.04 -0.63 0.77 0.09
1 1.69 169 0.498 -9.783 1.915 -0.275 -2.136 1.099 195.323 3290.057 -2845.146 0.025 0.184 -0.013 -0.04 -0.63 0.77 0.09
1 1.70 170 0.431 -9.750 1.968 0.244 -2.808 0.580 195.323 3290.057 -2845.146 0.092 0.150 -0.065 -0.04 -0.63 0.77 0.09
1 1.71 171 0.541 -9.836 1.829 -1.190 -2.167 0.610 225.303 3110.024 -2830.156 -0.016 0.237 0.076 -0.04 -0.63 0.77 0.09
1 1.72 172 0.584 -9.745 1.944 -1.343 -2.289 0.214 225.303 3110.024 -2830.156 -0.058 0.146 -0.039 -0.04 -0.63 0.77 0.09
1 1.73 173 0.546 -9.726 1.930 -0.549 -2.350 0.488 180.333 3229.946 -2800.176 -0.018 0.127 -0.026 -0.04 -0.63 0.77 0.09
1 1.74 174 0.484 -9.793 1.982 -0.336 -2.319 0.519 180.333 3229.946 -2800.176 0.046 0.194 -0.078 -0.04 -0.63 0.77 0.09
1 1.75 175 0.565 -9.706 1.901 -0.610 -2.289 0.702 195.323 3290.057 -2815.166 -0.035 0.108 0.004 -0.04 -0.63 0.77 0.09
1 1.76 176 0.541 -9.644 1.891 -1.648 -2.258 0.732 195.323 3290.057 -2740.215 -0.010 0.046 0.014 -0.04 -0.63 0.77 0.09
1 1.77 177 0.512 -9.692 1.959 -0.641 -2.350 0.397 195.323 3290.057 -2740.215 0.019 0.094 -0.054 -0.04 -0.63 0.77 0.09
1 1.78 178 0.450 -9.625 1.992 -0.305 -2.136 0.519 255.284 3110.024 -2980.208 0.084 0.027 -0.088 -0.04 -0.63 0.77 0.09
1 1.79 179 0.484 -9.639 1.863 -0.519 -1.892 1.007 255.284 3110.024 -2980.208 0.051 0.041 0.042 -0.04 -0.63 0.77 0.09
1 1.80 180 0.594 -9.778 1.968 -1.251 -2.075 0.336 225.303 3184.975 -2980.208 -0.060 0.180 -0.064 -0.04 -0.63 0.77 0.09
1 1.81 181 0.546 -9.735 2.016 -1.587 -1.556 0.580 225.303 3184.975 -2980.208 -0.011 0.137 -0.113 -0.04 -0.63 0.77 0.09
1 1.82 182 0.536 -9.682 1.920 -0.854 -1.190 1.495 300.254 3229.946 -2980.208 -0.001 0.084 -0.017 -0.04 -0.63 0.77 0.09
1 1.83 183 0.575 -9.702 2.021 -0.519 -2.045 1.373 165.342 3095.034 -2815.166 -0.039 0.103 -0.117 -0.04 -0.63 0.77 0.09
1 1.84 184 0.608 -9.745 1.939 -0.061 -1.862 1.434 165.342 3095.034 -2815.166 -0.073 0.146 -0.035 -0.04 -0.63 0.77 0.09
1 1.85 185 0.498 -9.730 1.954 -0.702 -1.953 1.251 150.352 3335.027 -2860.137 0.036 0.132 -0.048 -0.04 -0.63 0.77 0.09
1 1.86 186 0.608 -9.711 1.968 -0.702 -1.251 1.617 150.352 3335.027 -2860.137 -0.075 0.113 -0.062 -0.04 -0.63 0.77 0.09
1 1.87 187 0.599 -9.721 2.002 -0.427 -1.404 1.282 135.362 3050.063 -2845.146 -0.064 0.123 -0.095 -0.04 -0.63 0.77 0.09
1 1.88 188 0.421 -9.711 1.920 -0.580 -1.404 0.763 135.362 3050.063 -2845.146 0.112 0.113 -0.013 -0.04 -0.63 0.77 0.09
1 1.89 189 0.508 -9.797 1.982 -0.763 -1.556 0.946 330.235 3229.946 -2935.238 0.026 0.200 -0.075 -0.04 -0.63 0.77 0.09
1 1.90 190 0.570 -9.615 1.911 -1.221 -1.617 0.488 135.362 3214.956 -2815.166 -0.037 0.018 -0.004 -0.04 -0.63 0.77 0.09
1 1.91 191 0.460 -9.520 1.820 -0.549 -1.862 0.580 135.362 3214.956 -2815.166 0.073 -0.078 0.087 -0.04 -0.63 0.77 0.09
1 1.92 192 0.570 -9.745 1.925 -1.221 -1.434 0.397 135.362 3320.037 -2770.195 -0.037 0.146 -0.020 -0.04 -0.63 0.77 0.09
1 1.93 193 0.551 -9.898 1.963 -1.129 -1.251 0.275 135.362 3320.037 -2770.195 -0.017 0.300 -0.059 -0.04 -0.63 0.77 0.09
1 1.94 194 0.608 -9.793 1.944 -0.549 -2.258 1.007 240.293 3125.014 -2890.117 -0.074 0.194 -0.040 -0.04 -0.63 0.77 0.09
1 1.95 195 0.603 -9.888 1.911 0.092 -2.014 0.397 240.293 3125.014 -2890.117 -0.068 0.290 -0.006 -0.04 -0.63 0.77 0.09
1 1.96 196 0.460 -9.735 1.805 0.397 -1.373 1.190 165.342 3095.034 -2815.166 0.076 0.137 0.100 -0.04 -0.63 0.77 0.09
1 1.97 197 0.536 -9.625 1.872 -0.427 -1.404 1.801 300.254 3080.043 -2905.257 -0.000 0.027 0.033 -0.04 -0.63 0.77 0.09
1 1.98 198 0.522 -9.855 1.925 -0.824 -1.770 1.068 300.254 3080.043 -2905.257 0.014 0.257 -0.019 -0.04 -0.63 0.77 0.09
1 1.99 199 0.503 -9.606 1.882 -1.251 -2.136 1.709 195.323 3214.956 -2890.117 0.033 0.008 0.024 -0.04 -0.63 0.77 0.09
1 2.00 200 0.460 -9.687 1.824 -0.244 -2.228 1.770 255.284 3080.043 -2860.137 0.075 0.089 0.080 -0.04 -0.63 0.77 0.09
1 2.01 201 0.488 -9.668 1.930 -0.732 -2.075 1.465 300.254 3154.995 -2830.156 0.045 0.070 -0.025 -0.04 -0.63 0.77 0.09
1 2.02 202 0.555 -9.611 1.901 -1.068 -1.892 1.221 300.254 3154.995 -2830.156 -0.022 0.012 0.004 -0.04 -0.63 0.77 0.09
1 2.03 203 0.498 -9.630 2.016 -1.160 -2.563 1.251 225.303 3154.995 -2830.156 0.035 0.032 -0.111 -0.04 -0.63 0.77 0.09
1 2.04 204 0.627 -9.745 1.939 -1.953 -2.686 1.190 240.293 3214.956 -2950.228 -0.094 0.146 -0.035 -0.04 -0.63 0.77 0.09
1 2.05 205 0.584 -9.764 1.872 -0.916 -2.441 0.946 240.293 3214.956 -2950.228 -0.050 0.165 0.031 -0.04 -0.63 0.77 0.09
1 2.06 206 0.618 -9.745 1.853 0.366 -2.045 1.312 225.303 3259.926 -2830.156 -0.083 0.146 0.050 -0.04 -0.63 0.77 0.09
1 2.07 207 0.551 -9.721 1.887 -0.702 -1.129 1.526 90.241 3095.034 -2920.248 -0.015 0.122 0.017 -0.04 -0.63 0.77 0.09
1 2.08 208 0.560 -9.702 1.949 -0.580 -1.709 1.526 345.225 3290.057 -2845.146 -0.024 0.103 -0.045 -0.04 -0.63 0.77 0.09
1 2.09 209 0.436 -9.740 1.978 -0.519 -2.411 1.404 345.225 3290.057 -2845.146 0.100 0.142 -0.074 -0.04 -0.63 0.77 0.09
1 2.10 210 0.560 -9.721 1.963 -0.824 -1.923 1.312 180.333 3110.024 -2905.257 -0.025 0.122 -0.060 -0.04 -0.63 0.77 0.09
1 2.11 211 0.608 -9.764 1.868 -1.190 -1.343 1.404 225.303 3154.995 -2830.156 -0.072 0.166 0.036 -0.04 -0.63 0.77 0.09
1 2.12 212 0.680 -9.668 1.906 -0.397 -1.068 0.793 225.303 3154.995 -2830.156 -0.143 0.070 -0.003 -0.04 -0.63 0.77 0.09
1 2.13 213 0.632 -9.826 1.949 0.183 -1.038 1.038 180.333 3184.975 -2905.257 -0.095 0.228 -0.046 -0.04 -0.63 0.77 0.09
1 2.14 214 0.690 -9.563 1.930 0.031 -0.610 1.099 225.303 3259.926 -2860.137 -0.152 -0.036 -0.027 -0.04 -0.63 0.77 0.09
1 2.15 215 0.618 -9.615 1.810 -1.617 -0.854 0.916 225.303 3080.043 -2860.137 -0.078 0.017 0.094 -0.04 -0.63 0.77 0.09
1 2.16 216 0.551 -9.807 1.834 -1.221 -0.641 0.732 225.303 3080.043 -2860.137 -0.011 0.209 0.069 -0.04 -0.63 0.77 0.09
1 2.17 217 0.527 -9.773 1.853 -1.160 -0.458 0.244 30.280 3080.043 -3010.189 0.013 0.175 0.050 -0.04 -0.63 0.77 0.09
1 2.18 218 0.575 -9.673 1.796 -0.580 -0.641 0.824 135.362 3169.985 -2845.146 -0.035 0.075 0.107 -0.04 -0.63 0.77 0.09
1 2.19 219 0.594 -9.692 1.872 0.275 -0.458 0.702 135.362 3169.985 -2845.146 -0.054 0.094 0.030 -0.04 -0.63 0.77 0.09
1 2.20 220 0.570 -9.687 1.891 0.092 0.305 0.549 180.333 3305.047 -2905.257 -0.030 0.089 0.010 -0.04 -0.63 0.77 0.09
1 2.21 221 0.450 -9.625 1.987 -0.397 0.336 1.251 255.284 3229.946 -2905.257 0.090 0.026 -0.086 -0.04 -0.63 0.77 0.09
1 2.22 222 0.488 -9.697 1.968 -0.427 -0.244 0.519 225.303 3080.043 -2905.257 0.051 0.099 -0.065 -0.04 -0.63 0.77 0.09
1 2.23 223 0.560 -9.644 1.982 -0.305 0.641 0.183 225.303 3080.043 -2905.257 -0.020 0.046 -0.080 -0.04 -0.63 0.77 0.09
1 2.24 224 0.651 -9.596 1.815 -0.519 0.214 0.488 195.323 3214.956 -2815.166 -0.111 -0.002 0.089 -0.04 -0.63 0.77 0.09
1 2.25 225 0.479 -9.682 1.930 -0.244 -0.580 0.549 330.235 3154.995 -2905.257 0.062 0.084 -0.027 -0.04 -0.63 0.77 0.09
1 2.26 226 0.575 -9.692 1.796 0.122 -1.343 0.122 330.235 3154.995 -2905.257 -0.034 0.094 0.107 -0.04 -0.63 0.77 0.09
1 2.27 227 0.488 -9.721 2.045 -0.122 -1.678 0.793 135.362 3095.034 -2995.199 0.053 0.123 -0.141 -0.04 -0.63 0.77 0.09
1 2.28 228 0.546 -9.615 1.935 0.488 -1.801 0.031 180.333 3229.946 -2830.156 -0.005 0.017 -0.031 -0.04 -0.63 0.77 0.09
1 2.29 229 0.675 -9.649 1.954 0.153 -1.648 1.099 165.342 3169.985 -2770.195 -0.133 0.052 -0.046 -0.04 -0.63 0.77 0.09
1 2.30 230 0.623 -9.654 2.006 -0.122 -1.526 0.916 165.342 3169.985 -2770.195 -0.080 0.057 -0.097 -0.04 -0.63 0.77 0.09
1 2.31 231 0.579 -9.726 1.930 -0.946 -2.472 0.732 180.333 3259.926 -2860.137 -0.036 0.129 -0.021 -0.04 -0.63 0.77 0.09
1 2.32 232 0.642 -9.793 1.949 -1.373 -2.411 -0.092 195.323 3125.014 -2995.199 -0.098 0.196 -0.040 -0.04 -0.63 0.77 0.09
1 2.33 233 0.575 -9.778 1.949 -0.488 -1.862 0.031 195.323 3125.014 -2995.199 -0.029 0.181 -0.040 -0.03 -0.63 0.77 0.09
1 2.34 234 0.704 -9.908 2.035 1.099 0.092 1.221 75.251 3154.995 -2830.156 -0.156 0.311 -0.125 -0.03 -0.63 0.77 0.09
1 2.35 235 0.651 -9.778 1.954 1.587 1.251 2.045 240.293 3214.956 -2845.146 -0.102 0.182 -0.041 -0.03 -0.63 0.77 0.09
1 2.36 236 0.833 -9.716 1.887 1.465 1.129 1.617 240.293 3169.985 -2845.146 -0.286 0.122 0.034 -0.03 -0.63 0.77 0.09
1 2.37 237 0.795 -9.558 1.954 1.221 1.129 0.732 240.293 3169.985 -2845.146 -0.247 -0.036 -0.030 -0.04 -0.63 0.77 0.09
1 2.38 238 0.905 -9.730 2.030 0.000 2.228 1.068 150.352 3154.995 -2830.156 -0.356 0.137 -0.106 -0.04 -0.63 0.77 0.09
1 2.39 239 0.852 -9.778 2.093 1.190 4.639 1.434 270.274 3125.014 -2845.146 -0.302 0.185 -0.166 -0.04 -0.63 0.77 0.09
1 2.40 240 0.737 -9.635 1.997 0.946 4.944 1.434 270.274 3125.014 -2845.146 -0.187 0.042 -0.066 -0.04 -0.63 0.77 0.09
1 2.41 241 0.742 -9.654 1.978 0.458 5.066 1.831 255.284 3110.024 -2755.205 -0.193 0.062 -0.044 -0.04 -0.63 0.77 0.09
1 2.42 242 0.790 -9.611 2.112 0.885 5.249 1.190 165.342 3125.014 -2890.117 -0.243 0.020 -0.175 -0.04 -0.63 0.77 0.09
1 2.43 243 0.781 -9.486 1.925 1.099 5.707 0.366 165.342 3125.014 -2890.117 -0.235 -0.104 0.015 -0.04 -0.63 0.77 0.09
1 2.44 244 0.704 -9.572 1.973 -0.824 6.744 0.305 300.254 3004.942 -2905.257 -0.157 -0.017 -0.027 -0.04 -0.63 0.77 0.09
1 2.45 245 0.632 -9.592 1.930 -0.977 5.615 -1.068 195.323 3214.956 -2920.248 -0.084 0.002 0.017 -0.04 -0.63 0.77 0.09
1 2.46 246 0.541 -9.682 2.150 -0.854 6.104 -0.854 165.342 3125.014 -2890.117 0.009 0.093 -0.204 -0.04 -0.63 0.77 0.09
1 2.47 247 0.441 -9.711 2.016 -1.190 6.165 -1.678 165.342 3125.014 -2890.117 0.111 0.122 -0.069 -0.04 -0.63 0.77 0.09
1 2.48 248 0.450 -9.481 1.935 0.000 4.913 -1.892 195.323 3169.985 -2995.199 0.102 -0.107 0.013 -0.04 -0.63 0.77 0.09
1 2.49 249 0.417 -9.582 1.959 -0.977 4.425 -1.648 240.293 3290.057 -2890.117 0.138 -0.006 -0.009 -0.04 -0.63 0.77 0.09
1 2.50 250 0.546 -9.716 1.939 -0.916 4.486 -1.740 240.293 3290.057 -2890.117 0.009 0.128 0.011 -0.04 -0.63 0.77 0.09
1 2.51 251 0.412 -9.678 1.987 -2.167 3.632 -1.099 90.241 3244.936 -2770.195 0.145 0.090 -0.039 -0.04 -0.63 0.77 0.09
1 2.52 252 0.316 -9.649 1.963 -1.373 2.747 -0.824 225.303 3184.975 -2800.176 0.242 0.061 -0.016 -0.04 -0.63 0.77 0.09
1 2.53 253 0.326 -9.577 1.935 -1.099 1.312 -1.434 300.254 3034.923 -2830.156 0.232 -0.011 0.012 -0.04 -0.63 0.77 0.09
1 2.54 254 0.517 -9.625 1.820 -1.221 0.397 -1.221 300.254 3034.923 -2830.156 0.042 0.037 0.128 -0.04 -0.63 0.77 0.09
1 2.55 255 0.493 -9.654 1.920 -1.770 0.519 -0.885 165.342 3095.034 -2890.117 0.068 0.065 0.026 -0.04 -0.63 0.77 0.09
1 2.56 256 0.417 -9.702 1.973 -2.991 -0.702 -0.793 195.323 3050.063 -2770.195 0.146 0.113 -0.029 -0.04 -0.63 0.77 0.09
1 2.57 257 0.493 -9.663 2.021 -3.174 -1.160 -0.458 195.323 3050.063 -2770.195 0.071 0.074 -0.080 -0.04 -0.63 0.77 0.09
1 2.58 258 0.541 -9.754 1.834 -2.563 -1.831 -0.092 270.274 3169.985 -2950.228 0.026 0.164 0.100 -0.04 -0.63 0.77 0.09
1 2.59 259 0.618 -9.893 1.872 -2.136 -1.129 -0.427 135.362 3320.037 -2815.166 -0.049 0.302 0.059 -0.04 -0.63 0.77 0.09
1 2.60 260 0.848 -9.975 1.781 -1.373 -1.282 0.580 225.303 3080.043 -2800.176 -0.276 0.383 0.147 -0.04 -0.63 0.77 0.09
1 2.61 261 0.943 -9.908 1.815 -1.190 -1.556 0.763 225.303 3080.043 -2800.176 -0.370 0.316 0.111 -0.04 -0.63 0.77 0.09
1 2.62 262 0.895 -9.764 1.930 0.092 -0.824 0.946 270.274 3244.936 -2920.248 -0.320 0.172 -0.005 -0.04 -0.63 0.77 0.09
1 2.63 263 0.958 -9.625 1.863 0.702 0.885 0.305 165.342 3095.034 -2890.117 -0.380 0.034 0.063 -0.04 -0.63 0.77 0.09
1 2.64 264 0.795 -9.635 1.796 -0.366 1.099 -0.244 165.342 3095.034 -2890.117 -0.214 0.044 0.133 -0.04 -0.63 0.77 0.09
1 2.65 265 0.963 -9.721 1.844 -0.824 0.183 -0.031 315.245 3095.034 -2920.248 -0.378 0.131 0.086 -0.04 -0.63 0.77 0.09
1 2.66 266 0.991 -9.572 1.762 -0.488 -0.519 0.366 180.333 3229.946 -2980.208 -0.401 -0.018 0.166 -0.04 -0.63 0.77 0.09
1 2.67 267 1.025 -9.639 1.834 -0.214 -0.916 -0.427 240.293 3214.956 -2770.195 -0.430 0.049 0.094 -0.04 -0.63 0.77 0.09
1 2.68 268 1.197 -9.491 1.719 -0.366 -0.336 -0.854 240.293 3214.956 -2770.195 -0.597 -0.099 0.209 -0.04 -0.63 0.77 0.09
1 2.69 269 1.130 -9.644 1.925 -1.282 0.336 -2.350 315.245 3244.936 -2815.166 -0.522 0.055 0.002 -0.04 -0.63 0.77 0.1
1 2.70 270 1.197 -9.812 1.949 -1.465 2.350 -1.587 105.231 3110.024 -2905.257 -0.580 0.223 -0.023 -0.04 -0.63 0.77 0.1
1 2.71 271 1.255 -9.874 1.748 -0.122 3.784 -1.648 105.231 3110.024 -2905.257 -0.630 0.285 0.176 -0.04 -0.63 0.77 0.1
1 2.72 272 1.212 -9.917 1.748 -0.092 3.723 -2.136 195.323 3214.956 -2950.228 -0.581 0.329 0.176 -0.04 -0.63 0.77 0.1
1 2.73 273 1.207 -9.864 1.901 1.312 4.059 -1.434 270.274 3214.956 -2950.228 -0.561 0.277 0.024 -0.04 -0.63 0.77 0.1
1 2.74 274 1.379 -9.797 1.858 2.716 5.920 -1.373 300.254 3229.946 -2935.238 -0.727 0.211 0.070 -0.04 -0.63 0.77 0.1
1 2.75 275 1.312 -9.764 1.820 2.563 6.378 -1.312 300.254 3229.946 -2935.238 -0.653 0.179 0.114 -0.04 -0.63 0.77 0.1
1 2.76 276 1.130 -9.773 1.777 2.197 6.134 -1.617 270.274 3095.034 -2890.117 -0.465 0.190 0.162 -0.04 -0.63 0.77 0.1
1 2.77 277 1.082 -9.735 1.882 1.556 6.714 -1.221 105.231 3110.024 -2980.208 -0.412 0.153 0.060 -0.04 -0.63 0.77 0.1
1 2.78 278 1.212 -9.687 1.810 1.831 7.355 -1.251 105.231 3110.024 -2980.208 -0.538 0.106 0.135 -0.04 -0.63 0.77 0.1
1 2.79 279 1.370 -9.692 1.906 2.228 8.026 -1.099 225.303 3154.995 -3010.189 -0.691 0.112 0.043 -0.04 -0.63 0.77 0.1
1 2.80 280 1.542 -9.941 1.906 3.326 10.254 -1.434 195.323 3244.936 -2890.117 -0.853 0.364 0.053 -0.04 -0.63 0.77 0.1
1 2.81 281 1.456 -9.903 1.920 3.845 11.414 -2.228 300.254 3154.995 -2725.225 -0.760 0.327 0.046 -0.04 -0.63 0.77 0.1
1 2.82 282 1.413 -9.764 1.982 6.317 13.550 -1.923 300.254 3154.995 -2725.225 -0.712 0.191 -0.008 -0.04 -0.63 0.77 0.1
1 2.83 283 1.279 -9.769 1.954 7.446 13.794 -2.197 270.274 3125.014 -2815.166 -0.572 0.198 0.032 -0.04 -0.63 0.77 0.11
1 2.84 284 1.216 -9.807 1.944 7.233 14.099 -2.258 390.346 3214.956 -2770.195 -0.504 0.239 0.055 -0.04 -0.63 0.77 0.11
1 2.85 285 1.240 -9.721 1.944 8.453 15.106 -3.052 390.346 3214.956 -2770.195 -0.523 0.156 0.067 -0.04 -0.63 0.77 0.11
1 2.86 286 1.073 -9.568 1.978 8.026 14.465 -2.930 150.352 3229.946 -2830.156 -0.350 0.006 0.048 -0.04 -0.63 0.77 0.11
1 2.87 287 0.972 -9.678 1.973 7.172 14.374 -3.540 150.352 3229.946 -2830.156 -0.246 0.120 0.066 -0.04 -0.63 0.77 0.11
1 2.88 288 1.111 -9.678 1.973 6.348 13.702 -3.601 270.274 3125.014 -2845.146 -0.376 0.126 0.091 -0.04 -0.63 0.77 0.11
1 2.89 289 1.077 -9.568 1.853 6.805 13.733 -3.784 270.274 3125.014 -2845.146 -0.338 0.018 0.222 -0.04 -0.63 0.77 0.11
1 2.90 290 1.077 -9.477 1.887 6.989 12.390 -3.632 165.342 2974.962 -2995.199 -0.333 -0.070 0.200 -0.04 -0.63 0.77 0.11
1 2.91 291 0.824 -9.515 1.858 6.836 11.780 -3.815 345.225 3214.956 -2890.117 -0.074 -0.029 0.240 -0.04 -0.63 0.77 0.12
1 2.92 292 0.915 -9.314 1.839 5.096 10.162 -2.502 345.225 3214.956 -2890.117 -0.161 -0.227 0.269 -0.04 -0.62 0.77 0.12
1 2.93 293 0.709 -9.505 1.911 3.845 10.407 -2.106 315.245 3125.014 -2950.228 0.048 -0.033 0.206 -0.05 -0.62 0.77 0.12
1 2.94 294 0.761 -9.601 1.954 3.296 11.261 -1.465 315.245 3125.014 -2950.228 -0.003 0.064 0.169 -0.05 -0.62 0.77 0.12
1 2.95 295 0.297 -9.558 2.006 2.655 10.956 0.153 390.346 3050.063 -3025.179 0.459 0.023 0.128 -0.05 -0.62 0.77 0.12
1 2.96 296 0.378 -9.524 1.834 2.258 9.735 2.686 390.346 3050.063 -3025.179 0.371 -0.010 0.306 -0.05 -0.62 0.77 0.12
1 2.97 297 0.488 -9.477 1.781 1.587 8.911 4.700 390.346 3095.034 -2995.199 0.250 -0.058 0.362 -0.05 -0.62 0.77 0.12
1 2.98 298 0.637 -9.467 1.992 -0.397 8.240 5.829 270.274 3214.956 -2995.199 0.089 -0.068 0.153 -0.05 -0.62 0.77 0.12
1 2.99 299 0.508 -9.477 2.050 -2.960 9.460 5.951 270.274 3214.956 -2995.199 0.207 -0.059 0.095 -0.05 -0.62 0.77 0.12
1 3.00 300 0.364 -9.659 2.131 -2.502 13.947 7.416 345.225 3050.063 -2920.248 0.338 0.121 0.011 -0.05 -0.62 0.77 0.12
1 3.01 301 0.096 -9.568 2.260 0.122 15.381 6.195 345.225 3050.063 -2920.248 0.591 0.029 -0.120 -0.05 -0.62 0.77 0.12
1 3.02 302 -0.034 -9.199 2.227 5.157 13.825 3.784 315.245 3290.057 -2845.146 0.688 -0.340 -0.077 -0.06 -0.62 0.77 0.12
1 3.03 303 -0.067 -9.137 2.160 3.571 11.383 2.106 315.245 3290.057 -2845.146 0.708 -0.401 0.001 -0.06 -0.62 0.77 0.12
1 3.04 304 -0.072 -9.003 2.203 1.007 11.017 0.275 330.235 3034.923 -3010.189 0.703 -0.534 -0.035 -0.06 -0.62 0.77 0.12
1 3.05 305 -0.081 -8.864 2.126 -0.702 11.078 -2.899 360.365 3034.923 -2860.137 0.705 -0.672 0.046 -0.06 -0.62 0.77 0.12
1 3.06 306 -0.067 -9.151 1.949 -1.007 10.925 -6.622 360.365 3034.923 -2860.137 0.689 -0.384 0.226 -0.06 -0.62 0.77 0.12
1 3.07 307 -0.350 -9.548 1.834 -0.946 7.690 -10.559 390.346 2944.981 -2920.248 0.975 0.013 0.341 -0.06 -0.62 0.77 0.13
1 3.08 308 -0.196 -9.888 1.839 0.702 5.554 -9.857 390.346 2944.981 -2920.248 0.828 0.353 0.335 -0.06 -0.62 0.77 0.13
1 3.09 309 -0.115 -9.927 1.858 2.258 1.648 -8.301 315.245 3095.034 -3025.179 0.752 0.392 0.316 -0.06 -0.62 0.77 0.13
1 3.10 310 0.311 -10.415 2.188 2.441 -0.244 -2.930 255.284 3184.975 -2935.238 0.336 0.882 -0.011 -0.06 -0.62 0.77 0.13
1 3.11 311 0.493 -10.549 2.222 3.174 1.495 1.709 390.346 3290.057 -3025.179 0.154 1.017 -0.043 -0.06 -0.62 0.77 0.13
1 3.12 312 0.359 -10.497 2.356 5.890 3.082 5.890 360.365 3184.975 -2905.257 0.282 0.965 -0.171 -0.06 -0.62 0.77 0.13
1 3.13 313 0.359 -10.295 2.188 8.057 2.808 5.981 360.365 3184.975 -2905.257 0.272 0.766 0.008 -0.06 -0.62 0.77 0.13
1 3.14 314 -0.081 -10.099 2.169 7.721 -0.031 4.700 390.346 3169.985 -2995.199 0.703 0.571 0.039 -0.06 -0.62 0.77 0.13
1 3.15 315 -0.421 -10.200 2.174 2.472 -4.303 8.118 390.346 3169.985 -2995.199 1.031 0.674 0.044 -0.06 -0.62 0.77 0.13
1 3.16 316 -0.450 -10.353 2.054 0.122 -5.768 10.651 465.297 3125.014 -3070.150 1.045 0.827 0.168 -0.06 -0.62 0.77 0.13
1 3.17 317 -0.522 -10.147 2.160 3.967 -6.042 14.252 420.326 3019.933 -3025.179 1.074 0.619 0.064 -0.06 -0.62 0.77 0.12
1 3.18 318 -0.508 -10.137 2.035 4.883 -7.935 15.991 480.287 3080.043 -2905.257 1.033 0.609 0.194 -0.06 -0.62 0.77 0.12
1 3.19 319 -0.177 -10.152 2.184 2.777 -6.653 18.066 420.326 3095.034 -2845.146 0.675 0.623 0.050 -0.06 -0.62 0.77 0.12
1 3.20 320 -0.101 -10.214 2.241 2.808 -4.974 19.531 420.326 3095.034 -2845.146 0.569 0.684 -0.004 -0.06 -0.62 0.77 0.12
1 3.21 321 -0.053 -10.406 2.313 5.707 -2.869 21.759 390.346 3095.034 -2890.117 0.490 0.875 -0.071 -0.07 -0.62 0.77 0.12
1 3.22 322 -0.005 -10.219 2.322 8.759 1.068 24.658 390.346 3095.034 -2890.117 0.408 0.689 -0.072 -0.07 -0.62 0.78 0.12
1 3.23 323 -0.163 -10.128 2.260 10.559 2.777 26.642 405.336 3080.043 -3010.189 0.528 0.600 0.003 -0.07 -0.62 0.78 0.11
1 3.24 324 -0.244 -9.797 2.299 10.254 5.493 28.656 330.235 3034.923 -2860.137 0.526 0.274 -0.005 -0.07 -0.61 0.78 0.11
1 3.25 325 -0.081 -9.730 2.318 8.453 5.890 29.846 465.297 3095.034 -3070.150 0.315 0.209 -0.010 -0.07 -0.61 0.78 0.11
1 3.26 326 0.163 -9.659 2.088 2.563 5.829 30.060 315.245 2974.962 -3025.179 0.024 0.138 0.228 -0.07 -0.61 0.78 0.11
1 3.27 327 0.316 -9.515 2.030 3.174 4.944 26.733 315.245 2974.962 -3025.179 -0.173 -0.006 0.289 -0.07 -0.61 0.78 0.11
1 3.28 328 0.374 -9.501 2.006 8.362 5.127 23.438 435.316 3034.923 -3115.121 -0.268 -0.019 0.319 -0.08 -0.61 0.78 0.11
1 3.29 329 0.220 -9.400 1.968 8.667 6.226 18.524 435.316 3034.923 -3115.121 -0.146 -0.117 0.370 -0.08 -0.61 0.78 0.1
1 3.30 330 0.196 -9.371 1.839 4.608 5.859 15.289 510.268 3080.043 -2905.257 -0.149 -0.143 0.512 -0.08 -0.61 0.78 0.1
1 3.31 331 0.239 -9.496 1.973 3.723 7.050 13.184 555.238 3004.942 -3010.189 -0.215 -0.016 0.385 -0.08 -0.61 0.78 0.1
1 3.32 332 -0.048 -9.615 1.944 6.622 8.820 9.430 607.254 3013.037 -3078.844 0.036 0.105 0.422 -0.08 -0.61 0.78 0.1
1 3.33 333 -0.125 -9.433 1.829 11.536 8.240 6.866 607.254 2968.066 -3033.874 0.098 -0.074 0.546 -0.08 -0.61 0.78 0.1
1 3.34 334 -0.196 -9.443 1.863 13.031 7.446 5.127 607.254 2968.066 -3033.874 0.158 -0.061 0.528 -0.08 -0.61 0.78 0.1
1 3.35 335 -0.350 -9.462 2.035 9.522 6.928 4.395 607.254 3088.138 -3003.893 0.301 -0.038 0.371 -0.08 -0.61 0.78 0.1
1 3.36 336 -0.311 -9.587 1.868 8.118 7.080 3.723 607.254 3088.138 -3003.893 0.253 0.090 0.549 -0.08 -0.61 0.78 0.1
1 3.37 337 -0.340 -9.663 1.887 11.200 7.538 3.632 772.297 3028.177 -3063.854 0.273 0.169 0.539 -0.08 -0.61 0.78 0.1
1 3.38 338 -0.340 -9.544 1.848 12.634 7.294 2.838 652.375 3088.138 -3078.844 0.264 0.052 0.590 -0.09 -0.61 0.78 0.1
1 3.39 339 -0.321 -9.467 1.767 10.956 7.538 1.404 592.264 2878.125 -3093.834 0.230 -0.017 0.700 -0.09 -0.61 0.78 0.1
1 3.40 340 -0.436 -9.505 1.738 9.918 7.599 1.892 637.385 2998.047 -2988.903 0.339 0.025 0.741 -0.09 -0.6 0.78 0.1
1 3.41 341 -0.330 -9.481 1.623 9.613 6.744 2.563 637.385 2998.047 -2988.903 0.228 0.003 0.866 -0.09 -0.6 0.78 0.11
1 3.42 342 -0.445 -9.639 1.700 9.522 6.561 1.862 667.365 2998.047 -3123.815 0.336 0.164 0.798 -0.09 -0.6 0.79 0.11
1 3.43 343 -0.421 -9.615 1.628 10.712 4.852 1.038 667.365 2998.047 -3123.815 0.306 0.142 0.879 -0.09 -0.6 0.79 0.11
1 3.44 344 -0.441 -9.568 1.561 11.902 5.310 -0.916 607.254 3013.037 -3033.874 0.321 0.097 0.955 -0.09 -0.6 0.79 0.11
1 3.45 345 -0.383 -9.558 1.513 13.428 5.585 -1.984 652.375 3013.037 -3078.844 0.261 0.090 1.014 -0.09 -0.6 0.79 0.11
1 3.46 346 -0.551 -9.726 1.738 10.590 5.432 -0.244 637.385 2998.047 -2943.932 0.426 0.265 0.814 -0.09 -0.6 0.79 0.11
1 3.47 347 -0.675 -9.764 1.710 9.796 6.226 0.153 562.284 2953.076 -3018.883 0.547 0.306 0.853 -0.09 -0.6 0.79 0.11
1 3.48 348 -0.623 -9.706 1.695 14.191 6.653 1.007 562.284 2953.076 -3018.883 0.488 0.251 0.878 -0.09 -0.6 0.79 0.11
1 3.49 349 -0.536 -9.529 1.489 15.625 4.456 0.336 607.254 2938.086 -3108.825 0.396 0.078 1.099 -0.09 -0.6 0.79 0.11
1 3.50 350 -0.479 -9.438 1.456 13.763 2.472 -0.488 607.254 2938.086 -3108.825 0.335 -0.008 1.148 -0.09 -0.6 0.79 0.11
1 3.51 351 -0.421 -9.386 1.504 10.345 0.305 -1.862 652.375 2893.115 -3153.945 0.275 -0.058 1.112 -0.09 -0.6 0.79 0.11
1 3.52 352 -0.431 -9.548 1.638 8.301 -0.061 -2.563 667.365 2953.076 -3198.916 0.286 0.108 0.987 -0.09 -0.6 0.79 0.11
1 3.53 353 -0.421 -9.568 1.480 9.888 -0.153 -3.174 667.365 2953.076 -3198.916 0.279 0.128 1.151 -0.09 -0.6 0.79 0.11
1 3.54 354 -0.393 -9.237 1.422 12.787 -3.448 -5.890 652.375 2863.135 -3213.906 0.259 -0.197 1.226 -0.09 -0.6 0.79 0.11
1 3.55 355 -0.407 -9.491 1.470 10.223 -4.486 -7.385 652.375 2863.135 -3213.906 0.283 0.059 1.189 -0.09 -0.6 0.79 0.11
1 3.56 356 -0.479 -9.496 1.456 7.568 -5.554 -7.111 607.254 2788.034 -3108.825 0.367 0.066 1.210 -0.09 -0.6 0.79 0.11
1 3.57 357 -0.479 -9.649 1.571 7.660 -6.470 -6.805 607.254 2788.034 -3108.825 0.377 0.220 1.099 -0.09 -0.6 0.79 0.11
1 3.58 358 -0.273 -9.635 1.599 7.782 -6.012 -6.409 607.254 2788.034 -3108.825 0.182 0.207 1.074 -0.09 -0.6 0.79 0.11
1 3.59 359 -0.187 -9.802 1.824 6.805 -4.028 -5.280 562.284 2908.105 -3243.887 0.108 0.376 0.854 -0.09 -0.6 0.79 0.11
1 3.60 360 -0.273 -10.070 1.997 6.165 -0.824 -4.517 562.284 2908.105 -3243.887 0.203 0.645 0.685 -0.09 -0.6 0.79 0.11
1 3.61 361 -0.623 -10.267 2.035 13.153 2.502 -5.280 652.375 2788.034 -3183.926 0.564 0.844 0.658 -0.09 -0.6 0.79 0.11
1 3.62 362 -0.838 -10.157 2.021 15.228 3.113 -3.815 652.375 2788.034 -3183.926 0.783 0.738 0.687 -0.09 -0.6 0.79 0.11
1 3.63 363 -0.833 -9.951 1.863 14.893 1.160 -1.862 652.375 2743.063 -3153.945 0.778 0.538 0.863 -0.09 -0.59 0.79 0.11
1 3.64 364 -0.833 -9.836 1.801 12.268 0.000 -0.580 652.375 2743.063 -3153.945 0.774 0.427 0.941 -0.09 -0.59 0.79 0.11
1 3.65 365 -0.742 -9.879 1.781 9.613 -1.709 0.610 607.254 2818.164 -3153.945 0.679 0.473 0.971 -0.09 -0.59 0.79 0.11
1 3.66 366 -0.642 -10.161 1.805 6.622 -1.434 1.556 502.323 2743.063 -3213.906 0.574 0.758 0.954 -0.09 -0.59 0.79 0.11
1 3.67 367 -0.675 -10.339 1.762 6.928 -0.183 1.129 502.323 2743.063 -3213.906 0.603 0.936 1.001 -0.09 -0.59 0.79 0.11
1 3.68 368 -0.766 -10.271 1.619 10.559 -0.031 0.366 577.274 2968.066 -3258.877 0.684 0.871 1.151 -0.09 -0.59 0.79 0.11
1 3.69 369 -0.934 -10.228 1.642 12.116 -0.702 -0.061 577.274 2968.066 -3258.877 0.848 0.831 1.135 -0.09 -0.59 0.79 0.11
1 3.70 370 -0.996 -9.984 1.896 13.214 -4.761 0.793 682.355 2818.164 -3003.893 0.904 0.590 0.892 -0.09 -0.59 0.79 0.11
1 3.71 371 -0.977 -10.377 2.476 7.782 -6.683 4.334 682.355 2818.164 -3003.893 0.880 0.986 0.323 -0.09 -0.59 0.79 0.11
1 3.72 372 -0.579 -11.320 3.534 -3.540 -4.852 11.841 517.313 2878.125 -3198.916 0.471 1.930 -0.732 -0.09 -0.59 0.79 0.11
1 3.73 373 0.105 -12.091 3.697 -1.709 5.432 29.480 577.274 2698.092 -3213.906 -0.233 2.699 -0.902 -0.09 -0.59 0.79 0.11
1 3.74 374 0.125 -11.047 2.950 22.034 6.042 29.724 577.274 2698.092 -3213.906 -0.292 1.654 -0.162 -0.09 -0.59 0.79 0.1
1 3.75 375 -0.024 -10.367 2.528 34.607 0.183 22.949 592.264 2803.174 -3243.887 -0.190 0.982 0.284 -0.09 -0.59 0.8 0.1
1 3.76 376 -0.067 -10.525 2.457 3.906 -1.984 16.571 592.264 2728.073 -3198.916 -0.204 1.165 0.433 -0.09 -0.59 0.8 0.1
1 3.77 377 -0.393 -10.904 1.781 -2.563 2.899 14.130 517.313 2728.073 -3123.815 0.102 1.544 1.108 -0.09 -0.59 0.8 0.1
1 3.78 378 -0.939 -10.784 1.374 11.505 2.960 11.932 517.313 2728.073 -3123.815 0.628 1.425 1.516 -0.09 -0.59 0.8 0.1
1 3.79 379 -1.489 -10.200 1.446 17.761 -3.113 6.714 502.323 2623.141 -3153.945 1.163 0.848 1.466 -0.09 -0.59 0.8 0.1
1 3.80 380 -1.015 -10.133 1.810 4.089 -16.419 7.874 577.274 2698.092 -3183.926 0.676 0.785 1.114 -0.09 -0.58 0.8 0.1
1 3.81 381 0.053 -9.979 2.179 -4.974 -17.395 12.177 577.274 2698.092 -3183.926 -0.402 0.633 0.746 -0.09 -0.59 0.8 0.1
1 3.82 382 0.532 -9.577 2.576 -4.059 -10.376 10.315 742.316 2683.102 -3423.919 -0.891 0.227 0.337 -0.09 -0.59 0.8 0.09
1 3.83 383 0.374 -9.299 2.763 6.165 2.502 5.798 693.748 2578.620 -3121.566 -0.739 -0.053 0.140 -0.09 -0.59 0.8 0.09
1 3.84 384 -0.192 -9.218 2.892 4.944 9.369 5.219 723.729 2593.610 -3256.628 -0.176 -0.132 0.020 -0.09 -0.59 0.8 0.09
1 3.85 385 -1.020 -9.122 2.892 0.275 11.414 1.801 723.729 2593.610 -3256.628 0.645 -0.226 0.026 -0.09 -0.59 0.8 0.09
1 3.86 386 -1.810 -9.295 2.682 -4.730 6.104 -2.686 768.699 2683.702 -3271.619 1.427 -0.053 0.236 -0.09 -0.59 0.8 0.09
1 3.87 387 -2.097 -9.184 2.911 -9.247 -2.350 -4.425 663.768 2653.721 -3271.619 1.708 -0.166 -0.002 -0.09 -0.59 0.8 0.09
1 3.88 388 -1.930 -8.859 3.156 -12.085 -12.054 -6.928 663.768 2653.721 -3271.619 1.538 -0.495 -0.259 -0.09 -0.59 0.8 0.09
1 3.89 389 -1.346 -8.672 3.438 -13.641 -17.120 -6.073 603.657 2668.711 -3136.557 0.955 -0.686 -0.556 -0.09 -0.59 0.8 0.09
1 3.90 390 -0.268 -8.284 3.678 -11.139 -21.210 -9.460 588.667 2728.672 -2971.514 -0.101 -1.082 -0.819 -0.09 -0.59 0.8 0.09
1 3.91 391 -0.019 -8.136 3.520 -9.308 -22.339 -10.803 618.647 2683.702 -3121.566 -0.326 -1.233 -0.665 -0.09 -0.59 0.8 0.09
1 3.92 392 0.546 -8.169 3.946 -7.996 -23.102 -14.648 618.647 2683.702 -3121.566 -0.858 -1.201 -1.092 -0.09 -0.59 0.8 0.09
1 3.93 393 0.589 -8.418 4.089 -14.862 -23.010 -16.937 573.676 2668.711 -3136.557 -0.861 -0.954 -1.238 -0.08 -0.59 0.8 0.09
1 3.94 394 0.292 -8.773 4.267 -21.729 -24.689 -16.846 648.627 2593.610 -3076.596 -0.523 -0.604 -1.426 -0.08 -0.59 0.8 0.09
1 3.95 395 0.038 -9.486 4.176 -18.707 -31.586 -15.778 648.627 2593.610 -3076.596 -0.229 0.103 -1.354 -0.08 -0.59 0.8 0.09
1 3.96 396 0.230 -9.716 4.166 -7.843 -35.248 -13.641 528.706 2638.581 -3181.527 -0.381 0.327 -1.361 -0.08 -0.59 0.8 0.09
1 3.97 397 0.742 -9.515 4.195 2.869 -36.926 -9.644 378.653 2788.633 -2926.543 -0.856 0.124 -1.394 -0.07 -0.59 0.8 0.09
1 3.98 398 1.508 -8.864 4.147 0.671 -32.776 -1.678 348.673 2743.663 -3211.508 -1.556 -0.519 -1.318 -0.07 -0.59 0.8 0.09
1 3.99 399 1.585 -8.619 3.970 -9.186 -25.787 -1.678 348.673 2743.663 -3211.508 -1.606 -0.761 -1.132 -0.07 -0.59 0.8 0.09
1 4.00 400 1.666 -8.787 3.960 -19.379 -16.815 -8.545 483.735 2608.601 -3091.586 -1.659 -0.595 -1.129 -0.06 -0.59 0.8 0.09
1 4.01 401 0.934 -9.017 3.907 -23.010 -6.958 -14.557 288.712 2728.672 -3166.537 -0.891 -0.371 -1.096 -0.06 -0.59 0.8 0.09
1 4.02 402 -0.273 -9.395 3.658 -18.463 3.540 -16.815 295.757 2718.629 -3176.730 0.350 0.000 -0.870 -0.06 -0.6 0.8 0.09
1 4.03 403 -0.934 -9.266 3.429 -12.268 3.448 -17.151 340.878 2673.658 -3176.730 1.037 -0.134 -0.660 -0.06 -0.6 0.8 0.09
1 4.04 404 -1.092 -9.127 3.381 -7.507 -4.334 -18.005 280.767 2583.717 -3011.688 1.215 -0.277 -0.625 -0.06 -0.6 0.8 0.09
1 4.05 405 -0.201 -9.117 3.625 -10.193 -18.799 -21.942 355.868 2703.639 -3116.620 0.368 -0.289 -0.881 -0.06 -0.6 0.79 0.09
1 4.06 406 0.718 -9.491 3.711 -13.947 -21.820 -23.682 355.868 2703.639 -3116.620 -0.513 0.083 -0.976 -0.05 -0.6 0.79 0.09
1 4.07 407 1.288 -9.457 3.692 -15.045 -20.416 -23.163 325.888 2778.740 -3146.750 -1.037 0.046 -0.971 -0.05 -0.6 0.79 0.09
1 4.08 408 1.676 -9.414 3.567 -10.864 -16.663 -24.780 385.849 2778.740 -3086.639 -1.375 0.001 -0.859 -0.05 -0.6 0.79 0.09
1 4.09 409 1.590 -9.247 3.467 -5.402 -14.801 -28.107 385.849 2778.740 -3086.639 -1.234 -0.167 -0.766 -0.05 -0.6 0.79 0.09
1 4.10 410 1.226 -9.094 3.223 -2.380 -16.937 -30.670 355.868 2853.691 -3086.639 -0.811 -0.318 -0.522 -0.04 -0.6 0.79 0.09
1 4.11 411 1.192 -8.916 3.170 -2.869 -18.829 -27.618 295.757 2793.730 -3206.711 -0.718 -0.492 -0.468 -0.04 -0.6 0.79 0.1
1 4.12 412 1.063 -8.864 3.117 -7.568 -16.968 -22.888 280.767 2883.671 -3221.701 -0.483 -0.539 -0.418 -0.04 -0.6 0.79 0.1
1 4.13 413 0.895 -8.821 3.026 -9.552 -16.083 -21.668 280.767 2883.671 -3221.701 -0.272 -0.582 -0.336 -0.03 -0.6 0.79 0.1
1 4.14 414 0.982 -9.007 2.873 -8.209 -14.343 -15.686 250.787 2808.720 -3146.750 -0.321 -0.396 -0.194 -0.03 -0.6 0.79 0.1
1 4.15 415 1.168 -8.983 2.830 -5.981 -13.550 -12.482 220.806 2763.750 -3026.678 -0.477 -0.421 -0.160 -0.03 -0.6 0.79 0.1
1 4.16 416 1.350 -8.945 2.744 -3.723 -13.733 -11.749 220.806 2763.750 -3026.678 -0.631 -0.459 -0.080 -0.03 -0.6 0.79 0.1
1 4.17 417 1.575 -9.026 2.672 -3.998 -13.580 -9.979 85.894 2838.701 -2951.727 -0.828 -0.376 -0.013 -0.03 -0.6 0.79 0.1
1 4.18 418 1.666 -9.108 2.600 -5.615 -11.505 -8.484 85.894 2838.701 -3101.629 -0.892 -0.294 0.055 -0.03 -0.6 0.79 0.1
1 4.19 419 1.882 -9.165 2.619 -6.317 -10.681 -8.698 85.894 2838.701 -3101.629 -1.082 -0.236 0.029 -0.03 -0.6 0.79 0.1
1 4.20 420 1.915 -9.122 2.710 -5.096 -10.254 -8.331 115.875 2673.658 -3026.678 -1.066 -0.280 -0.079 -0.02 -0.6 0.79 0.1
1 4.21 421 1.642 -9.113 2.734 -4.639 -10.468 -8.667 85.894 2868.681 -3026.678 -0.768 -0.289 -0.110 -0.02 -0.6 0.79 0.1
1 4.22 422 1.556 -9.165 2.729 -6.317 -11.963 -7.996 10.793 2673.658 -3026.678 -0.658 -0.236 -0.112 -0.02 -0.61 0.79 0.1
1 4.23 423 1.393 -9.232 2.658 -6.622 -15.045 -7.629 10.793 2673.658 -3026.678 -0.473 -0.169 -0.049 -0.02 -0.61 0.79 0.1
1 4.24 424 1.398 -9.261 2.615 -5.249 -17.731 -7.477 40.773 2763.750 -2951.727 -0.456 -0.141 -0.015 -0.02 -0.61 0.79 0.1
1 4.25 425 1.288 -9.137 2.509 -3.418 -18.677 -5.768 -19.038 2658.668 -2966.717 -0.324 -0.266 0.081 -0.02 -0.61 0.79 0.1
1 4.26 426 1.245 -9.094 2.461 -1.038 -18.097 -3.845 -19.038 2658.668 -2966.717 -0.261 -0.308 0.122 -0.01 -0.61 0.79 0.1
1 4.27 427 1.389 -8.935 2.461 1.770 -17.731 0.946 -78.999 2778.740 -3011.688 -0.375 -0.465 0.117 -0.01 -0.61 0.79 0.1
1 4.28 428 1.484 -9.026 2.471 1.465 -17.151 0.854 25.783 2928.642 -2936.737 -0.462 -0.372 0.109 -0.01 -0.61 0.79 0.1
1 4.29 429 1.757 -9.050 2.389 -0.732 -15.625 0.183 25.783 2703.639 -3041.668 -0.724 -0.347 0.191 -0.01 -0.61 0.79 0.1
1 4.30 430 1.777 -9.357 2.318 -1.343 -12.329 0.061 25.783 2703.639 -3041.668 -0.731 -0.040 0.259 -0.01 -0.61 0.79 0.1
1 4.31 431 1.757 -9.386 2.208 1.312 -7.507 4.028 -19.038 2808.720 -2966.717 -0.703 -0.012 0.366 -0.01 -0.61 0.79 0.1
1 4.32 432 1.393 -9.026 2.284 7.385 -2.747 7.782 -64.008 2868.681 -2981.708 -0.337 -0.370 0.291 -0.01 -0.61 0.79 0.1
1 4.33 433 1.403 -8.998 2.126 4.883 -2.838 7.813 -64.008 2868.681 -2981.708 -0.350 -0.397 0.457 -0.01 -0.61 0.79 0.1
1 4.34 434 1.623 -9.213 2.002 0.366 -7.019 6.348 -118.573 2723.276 -3022.481 -0.581 -0.180 0.589 -0.01 -0.61 0.79 0.1
1 4.35 435 1.796 -9.184 2.160 -0.458 -7.202 5.707 16.339 2708.286 -2857.438 -0.754 -0.210 0.427 -0.01 -0.61 0.79 0.1
1 4.36 436 1.920 -9.472 2.174 0.824 -4.334 3.693 -148.553 2873.328 -3022.481 -0.876 0.076 0.409 -0.01 -0.61 0.79 0.1
1 4.37 437 1.757 -9.481 2.059 3.235 0.153 4.120 -148.553 2873.328 -3022.481 -0.710 0.086 0.523 -0.01 -0.61 0.79 0.09
1 4.38 438 1.647 -9.304 1.829 6.104 2.350 5.890 16.339 2708.286 -2932.540 -0.600 -0.090 0.757 -0.01 -0.61 0.79 0.09
1 4.39 439 1.336 -9.151 1.614 5.096 3.510 7.690 -118.573 2768.396 -3022.481 -0.293 -0.242 0.978 -0.01 -0.61 0.79 0.09
1 4.40 440 1.269 -9.137 1.355 1.740 4.700 8.301 -118.573 2768.396 -3022.481 -0.234 -0.257 1.240 -0.01 -0.61 0.79 0.09
1 4.41 441 1.226 -9.438 1.231 -4.761 7.172 9.522 -118.573 2768.396 -2872.429 -0.201 0.044 1.363 -0.01 -0.61 0.79 0.09
1 4.42 442 1.221 -9.682 1.197 -12.360 11.993 10.498 -73.602 2723.276 -2947.530 -0.224 0.277 1.367 -0.01 -0.61 0.79 0.09
1 4.43 443 1.154 -9.999 1.192 -11.261 13.886 11.444 -118.573 2798.377 -3052.461 -0.174 0.584 1.347 -0.01 -0.61 0.79 0.09
1 4.44 444 1.235 -10.133 1.173 -7.660 13.672 10.925 -118.573 2798.377 -3052.461 -0.275 0.710 1.344 -0.01 -0.61 0.79 0.09
1 4.45 445 1.341 -10.233 1.226 -4.730 12.482 10.254 -13.491 2648.325 -2872.429 -0.398 0.804 1.274 -0.01 -0.61 0.79 0.09
1 4.46 446 1.370 -10.200 1.235 -2.960 12.451 9.705 16.339 2663.315 -2857.438 -0.442 0.766 1.251 -0.01 -0.61 0.79 0.09
1 4.47 447 1.532 -10.324 1.379 -5.005 13.397 7.721 16.339 2663.315 -2857.438 -0.619 0.886 1.096 -0.01 -0.61 0.79 0.09
1 4.48 448 1.551 -10.286 1.370 -7.202 11.993 3.723 16.339 2708.286 -2962.520 -0.650 0.844 1.094 -0.01 -0.61 0.79 0.09
1 4.49 449 1.312 -10.339 1.240 -5.585 10.407 -3.418 106.281 2723.276 -3052.461 -0.416 0.887 1.190 -0.02 -0.61 0.78 0.1
1 4.50 450 1.125 -10.425 1.331 -4.334 8.850 -3.906 46.320 2753.406 -2962.520 -0.223 0.970 1.084 -0.02 -0.61 0.78 0.1
1 4.51 451 0.862 -10.382 1.106 -5.890 9.705 -3.632 46.320 2753.406 -2962.520 0.045 0.924 1.295 -0.02 -0.61 0.78 0.1
1 4.52 452 0.694 -10.147 0.943 -7.080 11.322 -4.547 61.310 2768.396 -2902.409 0.215 0.685 1.441 -0.02 -0.61 0.78 0.1
1 4.53 453 0.493 -9.898 0.924 -5.188 12.146 -5.585 16.339 2558.383 -2887.419 0.418 0.432 1.442 -0.02 -0.62 0.78 0.1
1 4.54 454 0.397 -9.745 1.820 -11.017 17.456 -7.904 16.339 2558.383 -2887.419 0.516 0.275 0.532 -0.02 -0.62 0.78 0.1
1 4.55 455 -0.297 -10.377 3.649 -29.541 22.308 -16.998 91.291 2663.315 -2887.419 1.213 0.902 -1.317 -0.02 -0.62 0.78 0.1
1 4.56 456 -1.298 -13.633 2.964 -71.503 22.308 -55.145 31.330 2798.377 -2902.409 2.269 4.140 -0.734 -0.02 -0.62 0.78 0.11
1 4.57 457 -1.049 -13.442 1.915 -62.256 7.446 -50.110 136.261 2693.295 -2767.497 2.093 3.934 0.221 -0.02 -0.62 0.77 0.11
1 4.58 458 -0.211 -11.454 1.690 25.635 -6.409 -30.975 136.261 2693.295 -2767.497 1.310 1.948 0.422 -0.02 -0.63 0.77 0.11
1 4.59 459 0.632 -11.148 2.662 29.572 8.331 -32.654 31.330 2843.348 -2842.448 0.517 1.657 -0.505 -0.02 -0.62 0.77 0.11
1 4.60 460 0.824 -11.248 2.064 -3.845 14.862 -21.118 -118.573 2723.276 -2767.497 0.367 1.771 0.128 -0.01 -0.62 0.77 0.12
1 4.61 461 2.006 -10.664 2.198 -37.109 2.441 8.820 -118.573 2723.276 -2767.497 -0.796 1.186 -0.019 -0.01 -0.62 0.77 0.12
1 4.62 462 3.031 -10.252 2.830 -39.917 -5.920 11.444 -133.563 2753.406 -2782.487 -1.829 0.763 -0.698 -0.02 -0.63 0.77 0.12
1 4.63 463 3.017 -9.922 3.692 -32.715 -0.244 8.545 -133.563 2753.406 -2782.487 -1.829 0.418 -1.618 -0.02 -0.63 0.77 0.12
1 4.64 464 1.719 -9.486 4.564 -4.913 19.196 10.712 -133.563 2708.286 -2707.536 -0.561 -0.038 -2.566 -0.02 -0.63 0.77 0.11
1 4.65 465 1.240 -9.151 4.506 10.590 24.231 7.660 -133.563 2708.286 -2707.536 -0.096 -0.370 -2.487 -0.02 -0.63 0.77 0.12
1 4.66 466 1.705 -8.409 4.061 21.668 16.907 9.155 -13.491 2768.396 -2842.448 -0.576 -1.105 -1.999 -0.02 -0.63 0.77 0.12
1 4.67 467 2.557 -7.844 4.209 30.853 11.871 10.010 -28.481 2708.286 -2752.507 -1.443 -1.660 -2.091 -0.02 -0.63 0.77 0.12
1 4.68 468 2.974 -8.332 4.975 4.364 25.848 -8.453 -28.481 2708.286 -2752.507 -1.864 -1.158 -2.795 -0.02 -0.62 0.77 0.12
1 4.69 469 2.552 -9.117 4.530 -22.339 41.138 -18.158 -43.622 2918.299 -2842.448 -1.428 -0.361 -2.307 -0.02 -0.62 0.77 0.12
1 4.70 470 1.140 -9.754 3.596 -24.689 45.410 -16.296 -43.622 2918.299 -2842.448 0.011 0.280 -1.369 -0.02 -0.62 0.77 0.12
1 4.71 471 -0.393 -9.783 2.911 8.179 28.046 -7.904 -43.622 2693.295 -2722.526 1.564 0.309 -0.696 -0.03 -0.62 0.77 0.13
1 4.72 472 -0.340 -9.357 3.371 20.783 12.604 -7.416 -43.622 2693.295 -2722.526 1.504 -0.112 -1.127 -0.03 -0.62 0.77 0.13
1 4.73 473 0.177 -9.141 3.615 14.404 2.441 -9.613 16.339 2753.406 -2782.487 0.984 -0.318 -1.332 -0.03 -0.62 0.77 0.13
1 4.74 474 0.551 -9.395 3.352 -2.502 -1.862 -5.920 31.330 2768.396 -2692.546 0.615 -0.057 -1.042 -0.03 -0.62 0.78 0.13
1 4.75 475 0.991 -9.386 3.017 -14.374 -5.402 3.357 31.330 2768.396 -2692.546 0.177 -0.066 -0.707 -0.03 -0.62 0.78 0.13
1 4.76 476 0.915 -9.041 3.151 -6.531 -6.195 12.329 -13.491 2723.276 -2872.429 0.247 -0.416 -0.856 -0.03 -0.62 0.77 0.13
1 4.77 477 0.742 -9.189 3.069 3.723 -2.930 11.047 -13.491 2723.276 -2872.429 0.405 -0.271 -0.783 -0.03 -0.62 0.77 0.13
1 4.78 478 0.551 -9.572 3.036 8.820 1.587 14.191 166.242 2753.406 -2782.487 0.563 0.115 -0.722 -0.03 -0.62 0.78 0.13
1 4.79 479 0.546 -9.433 2.993 8.331 5.310 24.139 166.242 2753.406 -2782.487 0.539 -0.023 -0.659 -0.03 -0.62 0.78 0.13
1 4.80 480 0.172 -9.175 3.156 7.904 11.017 29.450 166.242 2783.387 -2782.487 0.870 -0.281 -0.803 -0.03 -0.62 0.78 0.12
1 4.81 481 0.148 -9.141 3.007 8.301 14.679 30.701 16.339 2753.406 -2752.507 0.842 -0.315 -0.634 -0.03 -0.61 0.78 0.12
1 4.82 482 -0.010 -9.299 2.811 7.721 15.198 30.823 16.339 2753.406 -2752.507 0.945 -0.158 -0.418 -0.04 -0.61 0.78 0.12
1 4.83 483 0.278 -9.223 2.988 11.993 14.710 33.203 46.320 2903.309 -2707.536 0.601 -0.235 -0.577 -0.04 -0.61 0.78 0.12
1 4.84 484 0.498 -8.854 2.926 16.266 17.731 35.980 46.320 2903.309 -2707.536 0.324 -0.604 -0.494 -0.04 -0.61 0.78 0.12
1 4.85 485 0.570 -8.452 3.079 15.442 20.447 34.943 31.330 2768.396 -2947.530 0.192 -1.003 -0.617 -0.04 -0.61 0.78 0.12
1 4.86 486 0.412 -8.198 2.792 6.561 21.454 27.222 166.242 2753.406 -2812.468 0.238 -1.251 -0.274 -0.05 -0.61 0.78 0.12
1 4.87 487 0.129 -8.452 2.916 0.549 19.287 22.736 91.291 2828.357 -2752.507 0.475 -0.997 -0.388 -0.05 -0.61 0.78 0.12
1 4.88 488 0.014 -8.840 2.983 -2.808 16.937 19.104 226.353 2708.286 -2857.438 0.550 -0.610 -0.448 -0.05 -0.61 0.78 0.11
1 4.89 489 0.120 -9.098 2.983 1.495 16.205 16.449 226.353 2708.286 -2857.438 0.409 -0.352 -0.444 -0.05 -0.61 0.79 0.11
1 4.90 490 0.249 -9.122 3.046 12.848 14.374 13.825 211.362 2693.295 -2692.546 0.248 -0.327 -0.495 -0.06 -0.61 0.79 0.11
1 4.91 491 0.330 -8.758 3.041 16.785 15.259 10.407 211.362 2693.295 -2692.546 0.139 -0.687 -0.469 -0.06 -0.6 0.79 0.11
1 4.92 492 0.014 -8.883 2.988 13.580 16.663 8.026 256.333 2693.295 -2797.478 0.433 -0.555 -0.387 -0.06 -0.6 0.79 0.11
1 4.93 493 -0.517 -9.094 3.079 7.233 16.510 10.834 256.333 2723.276 -2797.478 0.923 -0.333 -0.430 -0.06 -0.6 0.79 0.11
1 4.94 494 -0.512 -9.151 2.830 8.789 13.947 10.254 226.353 2708.286 -2887.419 0.891 -0.272 -0.164 -0.06 -0.6 0.79 0.11
1 4.95 495 -0.441 -9.199 2.883 11.658 8.179 7.538 181.232 2618.344 -2902.409 0.795 -0.220 -0.199 -0.06 -0.6 0.79 0.11
1 4.96 496 -0.287 -9.070 2.639 13.092 4.089 5.371 181.232 2618.344 -2902.409 0.624 -0.344 0.066 -0.06 -0.6 0.79 0.11
1 4.97 497 -0.350 -9.050 2.619 13.519 6.012 4.395 181.232 2648.325 -2842.448 0.673 -0.357 0.106 -0.06 -0.6 0.79 0.11
1 4.98 498 -0.302 -9.376 2.643 5.707 7.813 8.362 181.232 2648.325 -2842.448 0.612 -0.026 0.102 -0.06 -0.6 0.79 0.11
1 4.99 499 -0.225 -9.357 2.428 4.364 5.676 7.202 271.323 2663.315 -2752.507 0.517 -0.043 0.330 -0.07 -0.6 0.79 0.11
1 5.00 500 0.043 -9.223 2.169 11.597 2.777 4.456 341.028 2634.084 -2855.190 0.219 -0.173 0.605 -0.07 -0.59 0.79 0.11
1 5.01 501 0.120 -9.022 2.136 13.245 2.563 2.319 295.907 2634.084 -2780.239 0.135 -0.370 0.653 -0.07 -0.59 0.79 0.11
1 5.02 502 0.158 -8.964 2.083 9.247 3.204 0.885 385.999 2619.094 -2825.209 0.092 -0.423 0.721 -0.07 -0.59 0.79 0.11
1 5.03 503 0.019 -8.878 2.164 5.432 2.686 -1.862 385.999 2619.094 -2825.209 0.230 -0.506 0.649 -0.07 -0.59 0.79 0.11
1 5.04 504 -0.211 -8.639 1.896 6.683 0.763 -4.761 220.956 2559.133 -2915.151 0.461 -0.744 0.922 -0.07 -0.59 0.79 0.11
1 5.05 505 -0.287 -8.634 1.815 5.981 -4.608 -9.247 220.956 2559.133 -2915.151 0.544 -0.747 1.010 -0.07 -0.59 0.79 0.11
1 5.06 506 -0.421 -8.959 1.987 0.336 -7.843 -10.742 310.897 2649.074 -2765.249 0.693 -0.417 0.848 -0.07 -0.59 0.8 0.11
1 5.07 507 -0.335 -9.261 2.069 -5.646 -8.759 -11.932 310.897 2574.123 -2870.180 0.622 -0.116 0.765 -0.07 -0.59 0.8 0.11
1 5.08 508 -0.560 -9.414 2.073 -2.136 -9.796 -14.740 220.956 2709.185 -2855.190 0.881 0.032 0.739 -0.06 -0.59 0.79 0.11
1 5.09 509 -0.848 -9.328 1.710 5.829 -11.566 -16.235 295.907 2604.104 -2735.268 1.190 -0.055 1.098 -0.06 -0.59 0.79 0.11
1 5.10 510 -0.857 -9.184 1.585 9.491 -14.801 -16.480 295.907 2604.104 -2735.268 1.221 -0.196 1.227 -0.06 -0.59 0.79 0.11
1 5.11 511 -0.642 -9.290 1.753 4.608 -17.426 -14.648 475.940 2604.104 -2735.268 1.028 -0.089 1.064 -0.06 -0.59 0.79 0.11
1 5.12 512 -0.503 -9.821 2.006 -9.583 -17.029 -10.712 475.940 2604.104 -2735.268 0.909 0.442 0.806 -0.06 -0.59 0.79 0.11
1 5.13 513 -0.527 -10.286 2.117 -14.740 -14.313 -7.507 190.976 2529.152 -2780.239 0.950 0.902 0.678 -0.06 -0.6 0.79 0.11
1 5.14 514 -0.484 -10.506 1.973 -10.162 -10.590 -3.937 295.907 2634.084 -2915.151 0.919 1.115 0.796 -0.06 -0.6 0.79 0.11
1 5.15 515 -0.283 -10.827 1.858 0.549 -5.951 1.801 295.907 2679.205 -2780.239 0.727 1.428 0.880 -0.06 -0.6 0.79 0.11
1 5.16 516 -0.249 -10.506 1.662 3.235 -4.730 5.249 175.985 2574.123 -2870.180 0.693 1.108 1.079 -0.05 -0.6 0.79 0.11
1 5.17 517 -0.187 -10.626 1.614 1.678 -5.249 4.395 175.985 2574.123 -2870.180 0.623 1.227 1.127 -0.05 -0.6 0.79 0.11
1 5.18 518 -0.062 -10.664 1.480 -1.221 -6.256 3.784 220.956 2754.156 -2885.170 0.491 1.263 1.254 -0.05 -0.6 0.79 0.11
1 5.19 519 0.206 -10.679 1.370 -2.563 -7.874 4.395 220.956 2754.156 -2885.170 0.216 1.273 1.351 -0.05 -0.6 0.79 0.11
1 5.20 520 0.436 -10.252 1.226 0.793 -12.482 4.456 265.927 2604.104 -2705.288 -0.016 0.844 1.486 -0.05 -0.6 0.79 0.11
1 5.21 521 1.116 -10.683 3.218 -1.099 -11.749 6.500 220.956 2634.084 -2810.219 -0.699 1.272 -0.518 -0.05 -0.6 0.79 0.11
1 5.22 522 2.983 -15.113 5.603 -48.615 4.059 53.833 70.904 2634.084 -2810.219 -2.597 5.690 -2.936 -0.05 -0.6 0.79 0.1
1 5.23 523 2.878 -13.633 5.363 -31.983 31.586 59.082 116.024 2484.182 -2960.271 -2.581 4.187 -2.770 -0.06 -0.6 0.79 0.1
1 5.24 524 2.059 -11.100 1.599 46.875 30.579 40.650 116.024 2484.182 -2960.271 -1.852 1.648 0.980 -0.06 -0.6 0.79 0.1
1 5.25 525 1.872 -11.205 2.265 58.106 9.216 38.818 265.927 2604.104 -2780.239 -1.732 1.775 0.398 -0.06 -0.6 0.79 0.1
1 5.26 526 1.101 -10.300 2.672 3.265 1.404 28.595 265.927 2604.104 -2780.239 -1.016 0.889 0.058 -0.07 -0.6 0.79 0.09
1 5.27 527 0.158 -10.544 1.413 -30.731 0.458 14.679 356.018 2649.074 -2765.249 -0.105 1.129 1.306 -0.07 -0.6 0.79 0.09
1 5.28 528 -0.503 -11.234 2.299 -25.543 -3.296 9.277 235.946 2544.143 -2795.229 0.537 1.805 0.371 -0.07 -0.6 0.79 0.09
1 5.29 529 -0.484 -12.278 4.219 -28.809 -8.423 7.843 235.946 2544.143 -2795.229 0.505 2.836 -1.592 -0.07 -0.6 0.79 0.09
1 5.30 530 0.043 -11.722 5.090 -15.228 -7.355 11.231 265.927 2754.156 -2855.190 -0.039 2.259 -2.543 -0.07 -0.6 0.79 0.09
1 5.31 531 -0.345 -9.989 4.348 26.123 -2.960 -1.068 265.927 2754.156 -2855.190 0.339 0.524 -1.808 -0.07 -0.6 0.79 0.09
1 5.32 532 -1.068 -8.801 3.917 56.458 0.305 -20.172 385.999 2469.191 -2795.229 1.073 -0.649 -1.324 -0.07 -0.6 0.79 0.09
1 5.33 533 -2.073 -8.275 3.970 47.058 -6.622 -28.473 385.999 2469.191 -2795.229 2.107 -1.150 -1.283 -0.07 -0.6 0.79 0.09
1 5.34 534 -2.701 -8.308 4.391 -12.604 -24.078 -11.871 295.907 2604.104 -2705.288 2.764 -1.097 -1.638 -0.06 -0.6 0.8 0.09
1 5.35 535 -2.686 -8.801 4.233 -31.860 -29.602 7.416 445.959 2439.061 -2855.190 2.763 -0.601 -1.471 -0.06 -0.6 0.8 0.09
1 5.36 536 -2.212 -8.634 4.003 -17.273 -29.663 19.836 445.959 2439.061 -2855.190 2.277 -0.777 -1.269 -0.06 -0.6 0.79 0.09
1 5.37 537 -0.455 -8.054 4.018 21.973 -23.743 26.886 146.005 2709.185 -2735.268 0.449 -1.358 -1.287 -0.06 -0.6 0.8 0.08
1 5.38 538 0.972 -7.825 4.109 26.367 -22.308 30.548 146.005 2709.185 -2735.268 -1.013 -1.573 -1.330 -0.06 -0.6 0.8 0.08
1 5.39 539 2.112 -7.657 4.214 8.179 -19.196 29.266 101.034 2619.094 -2720.278 -2.181 -1.726 -1.388 -0.06 -0.59 0.8 0.08
1 5.40 540 2.686 -7.566 4.003 -11.902 -11.597 22.217 101.034 2619.094 -2720.278 -2.773 -1.812 -1.159 -0.06 -0.59 0.8 0.07
1 5.41 541 2.557 -7.269 3.692 -14.923 0.854 11.871 220.956 2634.084 -2885.170 -2.648 -2.111 -0.854 -0.06 -0.59 0.8 0.07
1 5.42 542 1.585 -7.992 3.352 -5.493 14.923 -6.561 310.897 2469.191 -2795.229 -1.689 -1.393 -0.532 -0.06 -0.59 0.8 0.07
1 5.43 543 0.771 -8.868 3.491 -10.925 12.116 -15.167 310.897 2469.191 -2795.229 -0.875 -0.519 -0.679 -0.06 -0.59 0.8 0.07
1 5.44 544 0.488 -9.711 3.395 -15.289 -5.646 -17.761 235.946 2649.074 -2795.229 -0.543 0.316 -0.608 -0.06 -0.6 0.8 0.08
1 5.45 545 0.723 -9.678 3.318 -3.387 -12.634 -21.729 235.946 2649.074 -2795.229 -0.743 0.278 -0.545 -0.06 -0.6 0.8 0.08
1 5.46 546 1.451 -9.438 3.371 8.545 -14.404 -27.527 235.946 2544.143 -2900.161 -1.424 0.040 -0.593 -0.06 -0.6 0.8 0.08
1 5.47 547 1.925 -9.285 3.395 11.902 -13.672 -30.640 235.946 2544.143 -2900.161 -1.840 -0.107 -0.598 -0.05 -0.6 0.8 0.08
1 5.48 548 2.117 -8.974 3.567 6.165 -13.062 -32.318 235.946 2619.094 -2645.177 -1.967 -0.411 -0.749 -0.05 -0.59 0.8 0.08
1 5.49 549 1.853 -8.897 3.362 -4.852 -10.895 -34.607 205.966 2499.172 -2765.249 -1.636 -0.483 -0.531 -0.05 -0.59 0.8 0.08
1 5.50 550 1.255 -8.931 3.237 -5.371 -7.477 -35.675 205.966 2499.172 -2765.249 -0.968 -0.447 -0.406 -0.04 -0.59 0.8 0.08
1 5.51 551 0.488 -9.213 3.069 -4.608 -5.035 -34.729 55.914 2574.123 -2765.249 -0.135 -0.163 -0.241 -0.04 -0.59 0.8 0.09
1 5.52 552 -0.206 -9.079 2.729 -4.730 -5.341 -28.565 190.976 2559.133 -2705.288 0.667 -0.295 0.092 -0.04 -0.6 0.8 0.09
1 5.53 553 -0.220 -8.983 2.811 -2.716 -7.324 -22.766 175.985 2469.191 -2825.209 0.719 -0.390 0.006 -0.04 -0.6 0.8 0.09
1 5.54 554 0.010 -8.658 2.753 -2.319 -10.223 -17.914 175.985 2469.191 -2825.209 0.519 -0.715 0.061 -0.03 -0.6 0.8 0.09
1 5.55 555 0.350 -8.414 2.624 -0.488 -13.001 -15.472 131.015 2574.123 -2690.147 0.205 -0.958 0.189 -0.03 -0.6 0.8 0.09
1 5.56 556 1.020 -8.361 2.835 -2.319 -15.472 -11.658 116.024 2559.133 -2705.288 -0.439 -1.009 -0.022 -0.03 -0.6 0.8 0.09
1 5.57 557 1.298 -8.380 2.878 -5.341 -15.472 -10.376 116.024 2559.133 -2705.288 -0.691 -0.989 -0.067 -0.03 -0.6 0.8 0.09
1 5.58 558 1.403 -8.557 2.797 -6.409 -15.564 -9.552 -33.878 2529.152 -2735.268 -0.769 -0.811 0.009 -0.03 -0.6 0.8 0.09
1 5.59 559 1.322 -8.557 2.859 -2.899 -15.289 -8.575 40.923 2439.061 -2810.219 -0.634 -0.812 -0.067 -0.03 -0.6 0.8 0.09
1 5.60 560 1.408 -8.514 2.969 -0.031 -16.571 -7.904 -3.897 2409.081 -2735.268 -0.695 -0.853 -0.178 -0.02 -0.6 0.8 0.09
1 5.61 561 1.288 -8.509 2.931 0.885 -18.890 -8.362 -3.897 2409.081 -2735.268 -0.549 -0.855 -0.138 -0.02 -0.6 0.8 0.09
1 5.62 562 1.212 -8.409 2.964 0.275 -19.745 -6.805 -18.888 2574.123 -2720.278 -0.446 -0.953 -0.169 -0.02 -0.6 0.8 0.09
1 5.63 563 1.231 -8.423 2.801 -0.977 -20.142 -2.502 -63.858 2529.152 -2735.268 -0.444 -0.936 -0.004 -0.02 -0.6 0.8 0.09
1 5.64 564 1.331 -8.447 2.710 0.031 -20.966 2.533 -56.063 2512.513 -2748.909 -0.529 -0.911 0.086 -0.02 -0.6 0.8 0.09
1 5.65 565 1.417 -8.375 2.758 1.099 -21.210 5.127 -116.174 2527.503 -2733.769 -0.604 -0.982 0.038 -0.02 -0.6 0.8 0.09
1 5.66 566 1.456 -8.380 2.749 -1.740 -19.409 7.538 3.748 2662.565 -2673.808 -0.631 -0.976 0.049 -0.01 -0.6 0.8 0.09
1 5.67 567 1.542 -8.476 2.691 -4.761 -18.005 8.698 -161.145 2677.556 -2733.769 -0.713 -0.881 0.104 -0.01 -0.6 0.8 0.09
1 5.68 568 1.686 -8.840 2.466 -6.653 -17.914 10.986 -161.145 2677.556 -2733.769 -0.856 -0.519 0.321 -0.01 -0.6 0.8 0.08
1 5.69 569 1.681 -9.046 2.471 -7.141 -16.083 10.254 -86.044 2602.455 -2583.867 -0.852 -0.316 0.305 -0.01 -0.6 0.8 0.08
1 5.70 570 1.628 -9.242 2.342 -4.395 -12.512 9.522 -161.145 2482.533 -2628.837 -0.799 -0.123 0.423 -0.01 -0.6 0.8 0.08
1 5.71 571 1.446 -9.529 2.255 -2.747 -9.064 12.177 -161.145 2482.533 -2628.837 -0.618 0.161 0.501 -0.01 -0.6 0.8 0.08
1 5.72 572 1.336 -9.424 2.121 0.122 -7.324 13.825 -131.165 2512.513 -2823.860 -0.513 0.053 0.628 -0.01 -0.6 0.8 0.08
1 5.73 573 1.264 -9.505 2.064 0.305 -7.568 14.374 -131.165 2542.494 -2718.779 -0.453 0.133 0.681 -0.01 -0.6 0.8 0.08
1 5.74 574 1.413 -9.745 2.131 -2.655 -10.101 14.374 -11.093 2557.484 -2838.851 -0.626 0.367 0.603 -0.01 -0.6 0.8 0.08
1 5.75 575 1.614 -9.793 2.164 -1.862 -9.308 15.839 -11.093 2557.484 -2838.851 -0.838 0.411 0.560 -0.01 -0.6 0.8 0.08
1 5.76 576 1.757 -9.510 2.169 0.244 -7.202 16.388 -161.145 2527.503 -2778.890 -0.994 0.126 0.549 -0.01 -0.6 0.8 0.07
1 5.77 577 1.796 -9.395 2.308 2.716 -5.096 17.944 -251.086 2587.464 -2613.847 -1.045 0.009 0.407 -0.01 -0.6 0.8 0.07
1 5.78 578 1.777 -9.122 2.121 4.669 -1.160 18.219 -251.086 2587.464 -2613.847 -1.041 -0.265 0.596 -0.01 -0.6 0.8 0.07
1 5.79 579 1.470 -8.955 1.695 1.404 1.984 17.181 -41.073 2557.484 -2628.837 -0.752 -0.432 1.027 -0.01 -0.6 0.8 0.07
1 5.80 580 1.212 -8.988 1.365 -4.883 3.235 16.968 -41.073 2632.585 -2658.818 -0.510 -0.400 1.357 -0.01 -0.6 0.8 0.07
1 5.81 581 0.838 -9.649 1.494 -16.480 -2.686 7.538 -101.184 2617.595 -2673.808 -0.171 0.249 1.196 -0.01 -0.6 0.8 0.07
1 5.82 582 0.613 -10.372 1.551 -24.414 -4.303 -2.014 -101.184 2617.595 -2673.808 0.051 0.962 1.104 -0.01 -0.6 0.79 0.07
1 5.83 583 0.508 -10.999 1.475 -22.827 -4.822 -3.540 -101.184 2512.513 -2613.847 0.163 1.577 1.136 -0.01 -0.61 0.79 0.07
1 5.84 584 0.666 -11.148 1.422 -8.392 -4.028 -1.495 -161.145 2632.585 -2703.789 0.013 1.719 1.161 -0.01 -0.61 0.79 0.07
1 5.85 585 0.594 -10.880 1.461 6.500 -4.547 0.702 -161.145 2632.585 -2703.789 0.088 1.449 1.118 -0.01 -0.61 0.79 0.07
1 5.86 586 1.259 -10.334 1.173 9.399 -7.690 2.167 -86.044 2722.526 -2628.837 -0.575 0.907 1.418 -0.01 -0.61 0.79 0.07
1 5.87 587 1.585 -9.884 1.010 3.510 -7.690 6.042 -86.044 2557.484 -2658.818 -0.898 0.459 1.586 -0.01 -0.61 0.79 0.07
1 5.88 588 2.016 -9.400 0.666 -6.622 2.289 12.390 -176.135 2692.546 -2748.909 -1.330 -0.030 1.912 -0.01 -0.61 0.79 0.07
1 5.89 589 2.030 -9.410 0.632 -13.580 11.993 14.191 -176.135 2692.546 -2748.909 -1.354 -0.027 1.922 -0.01 -0.61 0.79 0.07
1 5.90 590 1.858 -9.443 1.298 -20.996 20.020 14.252 -56.063 2617.595 -2643.828 -1.196 -0.004 1.223 -0.01 -0.61 0.79 0.07
1 5.91 591 0.905 -9.539 3.649 -37.384 25.726 1.373 78.699 2692.546 -2673.808 -0.259 0.079 -1.171 -0.01 -0.61 0.79 0.07
1 5.92 592 -0.795 -12.848 4.305 -81.665 24.353 -58.014 78.699 2692.546 -2673.808 1.452 3.374 -1.884 -0.01 -0.61 0.79 0.07
1 5.93 593 -1.413 -13.887 1.968 -47.089 -26.489 -57.770 -26.083 2692.546 -2673.808 2.165 4.388 0.323 -0.01 -0.62 0.78 0.07
1 5.94 594 -1.432 -13.264 2.490 28.961 -25.299 -47.821 -86.044 2602.455 -2583.867 2.288 3.751 -0.298 -0 -0.62 0.78 0.08
1 5.95 595 -0.527 -12.728 3.117 31.403 -8.240 -54.901 -86.044 2602.455 -2583.867 1.462 3.227 -0.907 -0 -0.62 0.78 0.08
1 5.96 596 1.336 -11.133 2.729 -5.646 -9.247 -5.768 -101.184 2662.565 -2568.876 -0.263 1.662 -0.452 0 -0.62 0.78 0.08
1 5.97 597 2.849 -10.310 2.840 -25.482 -11.200 10.040 -281.067 2662.565 -2643.828 -1.771 0.836 -0.578 0.01 -0.62 0.78 0.08
1 5.98 598 3.922 -10.372 3.802 -43.091 2.258 5.615 -176.135 2767.497 -2718.779 -2.853 0.886 -1.585 0.01 -0.62 0.78 0.08
1 5.99 599 3.424 -10.391 5.339 -49.469 19.104 6.622 -176.135 2767.497 -2718.779 -2.364 0.890 -3.186 0 -0.62 0.78 0.08
1 6.00 600 0.656 -10.841 5.847 -36.255 35.126 -4.303 -296.057 2557.484 -2583.867 0.388 1.323 -3.759 0 -0.63 0.77 0.08
1 6.01 601 -0.326 -10.980 4.554 -9.003 33.081 -11.383 -161.145 2722.526 -2478.785 1.361 1.450 -2.518 0 -0.63 0.77 0.08
1 6.02 602 -0.254 -9.716 3.845 36.682 22.430 6.195 -161.145 2722.526 -2478.785 1.296 0.183 -1.827 -0 -0.63 0.77 0.09
1 6.03 603 1.053 -7.916 4.286 68.573 16.785 17.120 -176.135 2692.546 -2493.775 -0.057 -1.589 -2.117 -0 -0.62 0.78 0.09
1 6.04 604 1.671 -7.781 5.047 25.696 21.545 -1.617 -116.174 2827.458 -2583.867 -0.699 -1.701 -2.770 -0 -0.62 0.78 0.09
1 6.05 605 1.863 -9.165 4.726 -37.445 23.346 -13.367 -56.063 2692.546 -2568.876 -0.883 -0.306 -2.409 -0.01 -0.62 0.78 0.09
1 6.06 606 2.011 -10.243 3.405 -59.326 17.517 -0.702 -56.063 2692.546 -2568.876 -1.016 0.762 -1.132 -0.01 -0.62 0.78 0.09
1 6.07 607 2.093 -9.826 2.811 -26.428 12.085 9.918 -206.116 2812.468 -2613.847 -1.106 0.327 -0.613 -0.01 -0.62 0.78 0.09
1 6.08 608 1.700 -8.639 3.496 32.898 9.644 -13.580 -116.174 2752.507 -2583.867 -0.723 -0.865 -1.313 -0.01 -0.62 0.78 0.09
1 6.09 609 0.838 -8.610 3.419 29.511 8.392 -28.015 -116.174 2752.507 -2583.867 0.156 -0.881 -1.188 -0.01 -0.62 0.78 0.09
1 6.10 610 -0.306 -8.763 2.782 -5.005 2.106 -13.397 -41.073 2797.478 -2583.867 1.372 -0.699 -0.463 -0.01 -0.62 0.78 0.1
1 6.11 611 -0.675 -8.706 2.495 -17.212 -2.777 0.671 -116.174 2722.526 -2583.867 1.746 -0.757 -0.182 -0.01 -0.62 0.78 0.1
1 6.12 612 -0.761 -8.572 2.926 -14.069 -7.721 6.836 -191.125 2677.556 -2553.886 1.819 -0.898 -0.634 -0.01 -0.62 0.78 0.1
1 6.13 613 -0.613 -8.639 2.931 -2.167 -11.444 8.026 -191.125 2677.556 -2553.886 1.651 -0.836 -0.651 -0.01 -0.62 0.78 0.09
1 6.14 614 -0.057 -8.902 2.983 9.918 -10.284 13.611 -191.125 2722.526 -2628.837 1.075 -0.573 -0.697 -0.01 -0.62 0.78 0.09
1 6.15 615 0.225 -8.993 3.117 12.909 4.120 25.665 -101.184 2737.517 -2718.779 0.766 -0.480 -0.809 -0.01 -0.62 0.78 0.09
1 6.16 616 -0.053 -8.873 3.122 6.195 14.069 28.992 -101.184 2737.517 -2718.779 1.003 -0.597 -0.786 -0.01 -0.62 0.78 0.09
1 6.17 617 -0.215 -8.749 2.911 1.953 17.944 28.259 -41.073 2677.556 -2553.886 1.117 -0.721 -0.554 -0.01 -0.62 0.78 0.09
1 6.18 618 -0.306 -8.821 2.332 6.714 11.932 25.971 -131.165 2737.517 -2613.847 1.101 -0.652 0.051 -0.02 -0.61 0.78 0.09
1 6.19 619 -0.187 -8.763 2.370 9.583 8.972 25.360 -41.073 2632.585 -2703.789 0.933 -0.710 0.028 -0.02 -0.61 0.78 0.08
1 6.20 620 0.321 -8.610 2.495 6.561 9.979 25.513 -41.073 2632.585 -2703.789 0.378 -0.862 -0.081 -0.02 -0.61 0.79 0.08
1 6.21 621 0.637 -8.581 2.275 2.106 12.573 26.642 -101.184 2767.497 -2613.847 0.019 -0.891 0.152 -0.02 -0.61 0.79 0.08
1 6.22 622 0.967 -8.442 2.255 -0.183 13.947 23.560 -86.044 2677.556 -2628.837 -0.354 -1.031 0.176 -0.02 -0.61 0.79 0.08
1 6.23 623 1.140 -8.514 2.327 -0.671 13.397 20.722 -86.044 2677.556 -2628.837 -0.564 -0.961 0.107 -0.02 -0.61 0.79 0.08
1 6.24 624 1.231 -8.275 2.351 0.549 12.878 17.059 123.669 2767.497 -2673.808 -0.688 -1.202 0.084 -0.03 -0.61 0.79 0.08
1 6.25 625 0.905 -8.538 2.322 -2.655 14.710 9.430 33.728 2827.458 -2628.837 -0.412 -0.940 0.119 -0.03 -0.61 0.79 0.08
1 6.26 626 0.527 -8.706 2.322 -5.127 15.808 6.378 3.748 2767.497 -2433.814 -0.050 -0.774 0.117 -0.03 -0.61 0.79 0.08
1 6.27 627 0.278 -9.141 2.404 -7.050 16.144 3.632 3.748 2767.497 -2433.814 0.188 -0.340 0.031 -0.03 -0.61 0.79 0.08
1 6.28 628 0.077 -9.366 2.375 -4.578 14.465 1.831 3.748 2692.546 -2568.876 0.379 -0.117 0.052 -0.03 -0.61 0.79 0.08
1 6.29 629 -0.182 -9.491 2.260 1.465 13.123 0.122 48.718 2692.546 -2493.775 0.629 0.006 0.164 -0.03 -0.61 0.79 0.08
1 6.30 630 -0.623 -9.534 2.322 5.463 10.864 0.977 48.718 2692.546 -2493.775 1.061 0.050 0.107 -0.03 -0.61 0.79 0.08
1 6.31 631 -0.656 -9.299 2.131 6.775 7.599 1.373 183.780 2797.478 -2583.867 1.083 -0.183 0.307 -0.04 -0.61 0.79 0.08
1 6.32 632 -0.455 -9.204 2.246 5.341 1.740 -0.153 63.708 2677.556 -2703.789 0.861 -0.274 0.213 -0.04 -0.61 0.79 0.08
1 6.33 633 -0.321 -9.414 2.361 1.160 0.427 -0.732 63.708 2677.556 -2628.837 0.721 -0.062 0.105 -0.04 -0.61 0.79 0.08
1 6.34 634 -0.302 -9.362 2.241 2.167 0.000 -2.380 63.708 2677.556 -2628.837 0.699 -0.114 0.226 -0.04 -0.61 0.79 0.08
1 6.35 635 -0.287 -9.309 2.174 6.287 -0.549 -4.913 204.917 2924.745 -2758.803 0.685 -0.166 0.298 -0.04 -0.61 0.79 0.08
1 6.36 636 -0.330 -9.252 2.117 8.301 -2.441 -6.165 129.965 2759.852 -2683.852 0.733 -0.221 0.365 -0.04 -0.61 0.79 0.08
1 6.37 637 -0.493 -9.079 2.011 5.371 -2.930 -7.507 129.965 2759.852 -2683.852 0.901 -0.390 0.481 -0.04 -0.61 0.79 0.08
1 6.38 638 -0.690 -9.165 1.757 2.136 -4.150 -7.996 114.975 2714.881 -2668.861 1.104 -0.301 0.742 -0.04 -0.61 0.79 0.08
1 6.39 639 -0.594 -9.189 1.638 -0.305 -6.226 -7.446 114.975 2714.881 -2668.861 1.015 -0.277 0.864 -0.04 -0.61 0.79 0.08
1 6.40 640 -0.393 -9.223 1.437 1.770 -10.315 -9.705 159.946 2834.803 -2578.770 0.829 -0.245 1.056 -0.03 -0.61 0.79 0.08
1 6.41 641 -0.321 -9.161 1.370 3.632 -13.031 -9.064 159.946 2834.803 -2578.770 0.770 -0.307 1.120 -0.03 -0.61 0.79 0.08
1 6.42 642 -0.163 -9.218 1.283 2.716 -14.740 -8.331 10.043 2684.751 -2578.770 0.625 -0.250 1.204 -0.03 -0.61 0.79 0.08
1 6.43 643 0.263 -9.529 1.403 -0.732 -13.397 -7.202 55.014 2684.751 -2653.871 0.213 0.061 1.079 -0.03 -0.61 0.79 0.08
1 6.44 644 0.522 -9.668 1.499 -5.096 -8.179 -5.066 55.014 2684.751 -2653.871 -0.032 0.198 0.973 -0.03 -0.61 0.79 0.08
1 6.45 645 0.493 -9.807 1.537 -2.991 -2.777 -5.249 55.014 2759.852 -2653.871 0.008 0.333 0.920 -0.03 -0.61 0.79 0.08
1 6.46 646 0.426 -9.965 1.417 -0.183 -0.488 -3.479 55.014 2759.852 -2653.871 0.086 0.489 1.029 -0.03 -0.61 0.79 0.08
1 6.47 647 0.283 -10.003 1.575 0.275 -0.885 -1.373 40.024 2744.862 -2593.760 0.240 0.525 0.859 -0.03 -0.61 0.79 0.08
1 6.48 648 0.383 -10.070 1.619 -2.289 -0.580 -1.709 40.024 2744.862 -2593.760 0.141 0.590 0.809 -0.03 -0.61 0.79 0.08
1 6.49 649 0.441 -10.133 1.729 -4.334 2.014 -1.953 55.014 2804.823 -2728.822 0.086 0.650 0.689 -0.03 -0.61 0.79 0.08
1 6.50 650 0.230 -10.334 1.571 -3.357 6.805 -1.129 55.014 2804.823 -2548.790 0.299 0.848 0.835 -0.03 -0.61 0.79 0.08
1 6.51 651 -0.034 -10.382 1.188 -1.282 8.209 -0.946 55.014 2804.823 -2548.790 0.560 0.894 1.209 -0.03 -0.61 0.78 0.08
1 6.52 652 -0.302 -10.305 0.661 -0.732 6.256 -1.984 235.047 2759.852 -2728.822 0.824 0.815 1.728 -0.03 -0.61 0.78 0.08
1 6.53 653 -0.484 -10.597 0.211 -5.371 0.061 -0.854 235.047 2759.852 -2728.822 1.003 1.104 2.167 -0.03 -0.61 0.78 0.08
1 6.54 654 -0.594 -10.631 0.685 -9.918 -13.611 -0.610 159.946 2834.803 -2758.803 1.103 1.125 1.645 -0.03 -0.62 0.78 0.08
1 6.55 655 -0.211 -11.670 3.093 -16.113 -19.074 1.801 159.946 2834.803 -2758.803 0.719 2.157 -0.795 -0.03 -0.62 0.78 0.08
1 6.56 656 1.595 -16.655 4.880 -40.283 -17.181 30.274 10.043 2729.872 -2623.741 -1.088 7.134 -2.611 -0.03 -0.62 0.78 0.08
1 6.57 657 1.719 -15.007 4.966 -49.469 7.751 63.202 -19.937 2954.875 -2683.852 -1.267 5.468 -2.768 -0.03 -0.62 0.78 0.07
1 6.58 658 0.967 -11.358 2.351 37.384 25.604 49.561 -19.937 2954.875 -2683.852 -0.609 1.805 -0.197 -0.03 -0.62 0.78 0.07
1 6.59 659 1.370 -11.871 1.724 62.012 -3.479 43.213 70.004 2789.833 -2533.799 -1.085 2.335 0.516 -0.04 -0.62 0.78 0.07
1 6.60 660 1.106 -10.008 2.548 -19.928 -15.228 36.072 70.004 2789.833 -2533.799 -0.882 0.497 -0.197 -0.04 -0.62 0.78 0.07
1 6.61 661 1.245 -11.095 3.194 -48.462 -8.240 20.966 70.004 2894.764 -2638.731 -1.073 1.583 -0.844 -0.04 -0.62 0.78 0.06
1 6.62 662 0.785 -14.122 5.344 -48.340 18.005 40.863 -79.898 2714.881 -2593.760 -0.679 4.575 -3.130 -0.04 -0.62 0.78 0.06
1 6.63 663 -1.001 -11.469 3.931 -1.434 18.951 25.604 40.024 2789.833 -2563.780 1.043 1.909 -1.774 -0.04 -0.62 0.78 0.06
1 6.64 664 -1.949 -9.161 2.571 58.502 -0.458 -3.204 114.975 2894.764 -2533.799 1.961 -0.394 -0.391 -0.05 -0.62 0.78 0.06
1 6.65 665 -1.757 -8.260 2.409 72.571 -25.971 -21.057 114.975 2894.764 -2533.799 1.772 -1.270 -0.128 -0.05 -0.62 0.78 0.06
1 6.66 666 -0.766 -7.858 4.085 9.338 -44.434 -24.658 204.917 2924.745 -2548.790 0.820 -1.649 -1.706 -0.04 -0.61 0.79 0.06
1 6.67 667 -0.120 -8.299 4.923 -30.304 -36.896 -13.825 204.917 2924.745 -2548.790 0.228 -1.199 -2.510 -0.04 -0.61 0.79 0.06
1 6.68 668 0.038 -8.825 4.741 -38.025 -25.238 2.411 144.956 2819.813 -2563.780 0.105 -0.676 -2.344 -0.04 -0.61 0.79 0.06
1 6.69 669 0.000 -8.892 4.008 0.610 -13.397 17.975 114.975 2864.784 -2713.832 0.145 -0.622 -1.662 -0.03 -0.62 0.79 0.05
1 6.70 670 -0.019 -8.414 3.663 28.931 -9.094 19.592 129.965 2729.872 -2653.871 0.142 -1.094 -1.290 -0.03 -0.61 0.79 0.05
1 6.71 671 0.110 -8.232 3.907 32.715 -6.348 18.219 159.946 2804.823 -2683.852 -0.012 -1.261 -1.476 -0.03 -0.61 0.79 0.05
1 6.72 672 0.541 -8.184 4.070 10.193 -5.310 18.860 159.946 2804.823 -2683.852 -0.466 -1.296 -1.585 -0.03 -0.61 0.79 0.05
1 6.73 673 0.934 -8.246 4.065 -15.625 -2.472 19.592 114.975 2714.881 -2638.731 -0.881 -1.229 -1.561 -0.03 -0.61 0.79 0.05
1 6.74 674 1.159 -8.485 3.745 -18.494 5.341 16.602 114.975 2714.881 -2638.731 -1.126 -0.993 -1.253 -0.03 -0.61 0.79 0.05
1 6.75 675 1.053 -8.552 3.577 -5.615 8.911 8.179 84.995 2729.872 -2803.773 -1.039 -0.930 -1.102 -0.04 -0.61 0.79 0.05
1 6.76 676 1.135 -8.337 3.352 3.174 8.118 -6.989 55.014 2729.872 -2623.741 -1.124 -1.142 -0.866 -0.04 -0.61 0.79 0.05
1 6.77 677 1.331 -8.572 3.390 0.305 3.998 -14.130 159.946 2729.872 -2653.871 -1.301 -0.904 -0.890 -0.04 -0.61 0.79 0.05
1 6.78 678 1.556 -8.691 3.462 -8.118 0.214 -19.592 129.965 2999.846 -2548.790 -1.494 -0.782 -0.955 -0.03 -0.61 0.79 0.05
1 6.79 679 1.700 -8.763 3.352 -12.695 0.214 -25.299 129.965 2999.846 -2548.790 -1.596 -0.711 -0.850 -0.03 -0.61 0.79 0.05
1 6.80 680 1.508 -8.744 3.213 -7.721 2.167 -32.105 84.995 2834.803 -2578.770 -1.353 -0.732 -0.719 -0.03 -0.61 0.79 0.05
1 6.81 681 1.140 -8.993 3.175 -2.380 -1.038 -36.041 84.995 2834.803 -2578.770 -0.925 -0.482 -0.682 -0.03 -0.61 0.79 0.06
1 6.82 682 0.991 -8.993 3.098 -3.265 -4.547 -36.011 -19.937 2879.774 -2623.741 -0.715 -0.480 -0.602 -0.03 -0.61 0.79 0.06
1 6.83 683 1.097 -8.883 3.108 -3.815 -5.920 -35.523 144.956 2789.833 -2593.760 -0.759 -0.587 -0.609 -0.02 -0.61 0.79 0.06
1 6.84 684 0.742 -9.070 2.945 -7.690 -3.357 -33.264 70.004 2714.881 -2743.812 -0.286 -0.396 -0.448 -0.02 -0.61 0.79 0.06
1 6.85 685 0.268 -9.433 2.883 -10.498 -0.885 -29.480 70.004 2864.784 -2533.799 0.240 -0.032 -0.394 -0.02 -0.61 0.79 0.07
1 6.86 686 -0.010 -9.534 2.758 -9.491 -0.519 -24.384 70.004 2864.784 -2533.799 0.559 0.068 -0.281 -0.02 -0.61 0.79 0.07
1 6.87 687 -0.091 -9.295 2.548 -4.425 -4.395 -18.341 -94.888 2954.875 -2728.822 0.672 -0.172 -0.080 -0.02 -0.61 0.79 0.07
1 6.88 688 0.436 -8.825 2.586 3.021 -10.407 -14.740 -94.888 2954.875 -2728.822 0.168 -0.640 -0.121 -0.02 -0.61 0.79 0.07
1 6.89 689 0.757 -8.634 2.629 2.441 -12.360 -13.763 -49.917 2834.803 -2578.770 -0.132 -0.829 -0.158 -0.01 -0.61 0.79 0.07
1 6.90 690 1.001 -8.581 2.715 0.397 -11.383 -14.984 -4.797 2864.784 -2593.760 -0.351 -0.878 -0.238 -0.01 -0.61 0.79 0.07
1 6.91 691 0.843 -8.548 2.624 -1.282 -8.148 -16.113 -19.937 2924.745 -2623.741 -0.135 -0.906 -0.141 -0.01 -0.61 0.79 0.07
1 6.92 692 0.608 -8.600 2.461 0.366 -8.331 -16.571 -34.927 2969.865 -2743.812 0.129 -0.851 0.023 -0.01 -0.61 0.79 0.07
1 6.93 693 0.484 -8.495 2.500 2.869 -11.719 -17.181 -34.927 2969.865 -2743.812 0.282 -0.953 -0.011 -0.01 -0.61 0.79 0.07
1 6.94 694 0.541 -8.754 2.457 2.777 -15.045 -16.174 -94.888 2759.852 -2653.871 0.255 -0.690 0.037 -0.01 -0.61 0.79 0.07
1 6.95 695 0.656 -9.271 2.409 -1.740 -18.646 -12.390 -94.888 2759.852 -2653.871 0.167 -0.170 0.088 -0 -0.61 0.79 0.07
1 6.96 696 1.379 -9.175 2.380 -0.092 -19.684 -2.289 -124.869 2834.803 -2653.871 -0.534 -0.265 0.113 -0 -0.61 0.79 0.07
1 6.97 697 1.714 -9.137 2.217 7.324 -15.045 1.282 -34.927 2939.885 -2713.832 -0.854 -0.303 0.273 -0 -0.61 0.79 0.07
1 6.98 698 1.614 -8.835 2.227 13.184 -9.338 5.524 -184.830 2744.862 -2713.832 -0.733 -0.597 0.283 0 -0.61 0.79 0.07
1 6.99 699 1.451 -8.663 2.184 9.857 -8.545 9.277 -94.888 2804.823 -2683.852 -0.569 -0.765 0.343 0 -0.61 0.79 0.07
1 7.00 700 1.393 -8.572 2.121 3.723 -10.590 9.522 -94.888 2804.823 -2683.852 -0.515 -0.853 0.416 0 -0.61 0.79 0.07
1 7.01 701 1.183 -8.792 1.973 0.641 -13.733 9.796 -154.849 2789.833 -2563.780 -0.308 -0.633 0.567 0 -0.61 0.79 0.07
1 7.02 702 1.087 -8.835 1.911 2.991 -14.343 10.468 -154.849 2789.833 -2563.780 -0.218 -0.591 0.627 0 -0.61 0.79 0.07
1 7.03 703 0.857 -8.935 1.944 6.195 -11.444 13.489 -109.878 2864.784 -2713.832 0.005 -0.490 0.595 0 -0.61 0.79 0.07
1 7.04 704 0.872 -8.931 1.757 5.432 -10.620 15.167 -79.898 2939.885 -2743.812 -0.021 -0.495 0.787 0 -0.61 0.79 0.07
1 7.05 705 0.986 -8.969 1.681 2.350 -12.421 14.923 -79.898 2939.885 -2743.812 -0.151 -0.457 0.868 0 -0.61 0.79 0.06
1 7.06 706 1.312 -9.309 1.949 -4.639 -11.414 14.313 -79.898 2714.881 -2818.764 -0.504 -0.121 0.592 0 -0.61 0.79 0.06
1 7.07 707 1.566 -9.936 2.093 -7.904 -8.789 14.954 -79.898 2714.881 -2818.764 -0.770 0.502 0.436 0 -0.61 0.79 0.06
1 7.08 708 1.609 -10.113 2.313 -6.226 -4.883 16.663 -124.869 2834.803 -2728.822 -0.825 0.674 0.200 0 -0.61 0.79 0.06
1 7.09 709 1.710 -10.008 2.069 0.732 -2.167 18.463 -124.869 2834.803 -2728.822 -0.942 0.565 0.435 0 -0.61 0.79 0.06
1 7.10 710 1.389 -9.773 1.853 12.177 4.913 16.846 -79.898 2594.810 -2743.812 -0.640 0.329 0.652 0 -0.61 0.79 0.06
1 7.11 711 1.355 -9.611 1.614 11.963 8.179 15.320 -199.820 2879.774 -2578.770 -0.625 0.168 0.905 0 -0.61 0.79 0.06
1 7.12 712 1.168 -9.630 1.432 4.517 8.179 14.008 -195.473 2871.229 -2589.413 -0.458 0.189 1.101 0 -0.61 0.79 0.06
1 7.13 713 1.092 -10.003 1.465 -9.155 1.526 10.254 -75.551 2811.269 -2649.374 -0.414 0.559 1.061 0 -0.61 0.79 0.06
1 7.14 714 1.379 -10.315 1.422 -8.423 -3.082 6.165 -75.551 2811.269 -2649.374 -0.711 0.864 1.082 0 -0.61 0.79 0.06
1 7.15 715 1.633 -10.492 1.437 -2.014 -5.035 3.937 -195.473 2826.259 -2694.495 -0.964 1.036 1.049 0 -0.61 0.79 0.06
1 7.16 716 1.801 -10.449 1.250 7.019 -4.974 2.533 -195.473 2826.259 -2694.495 -1.128 0.991 1.228 0 -0.61 0.79 0.05
1 7.17 717 1.863 -10.434 1.168 10.712 -3.174 0.671 -120.521 2751.308 -2664.514 -1.183 0.978 1.312 0 -0.61 0.79 0.05
1 7.18 718 2.045 -10.166 1.298 4.730 -5.402 -0.702 -105.531 2781.288 -2649.374 -1.354 0.712 1.188 0 -0.61 0.79 0.05
1 7.19 719 1.925 -9.908 1.202 2.380 -6.500 0.000 -105.531 2781.288 -2649.374 -1.221 0.454 1.282 0 -0.61 0.79 0.05
1 7.20 720 1.829 -9.898 0.824 -0.977 -0.183 2.594 -150.502 2931.340 -2754.456 -1.103 0.442 1.646 0 -0.61 0.79 0.05
1 7.21 721 1.662 -9.807 0.594 -3.937 5.219 7.141 -150.502 2931.340 -2754.456 -0.932 0.348 1.863 0 -0.61 0.79 0.05
1 7.22 722 1.341 -9.941 2.073 -14.435 10.284 9.216 -120.521 2796.278 -2769.446 -0.617 0.476 0.363 0 -0.61 0.79 0.05
1 7.23 723 0.436 -11.517 3.879 -41.840 17.365 -7.477 -120.521 2796.278 -2769.446 0.279 2.043 -1.476 0 -0.61 0.79 0.06
1 7.24 724 -0.488 -14.275 4.291 -87.067 14.587 -50.995 -255.583 2931.340 -2754.456 1.226 4.785 -1.960 0 -0.62 0.78 0.06
1 7.25 725 -1.159 -13.164 2.710 -9.674 -11.627 -40.344 -105.531 2886.220 -2574.423 1.973 3.650 -0.503 0 -0.62 0.78 0.06
1 7.26 726 -1.662 -12.038 2.744 44.434 -4.334 -47.424 -105.531 2886.220 -2574.423 2.545 2.521 -0.582 0.01 -0.62 0.78 0.06
1 7.27 727 -1.743 -11.579 2.437 35.034 -2.869 -51.697 -105.531 2961.321 -2724.475 2.695 2.080 -0.224 0.01 -0.62 0.78 0.07
1 7.28 728 -0.484 -10.214 1.901 -4.669 -20.508 -15.289 -165.492 3096.233 -2694.495 1.569 0.748 0.392 0.01 -0.62 0.78 0.07
1 7.29 729 1.092 -9.544 2.059 -22.339 -31.952 -6.928 -240.593 2871.229 -2634.384 0.014 0.076 0.216 0.02 -0.62 0.78 0.07
1 7.30 730 2.725 -9.237 2.174 -28.015 -31.555 -4.974 -240.593 2871.229 -2634.384 -1.600 -0.238 0.059 0.02 -0.62 0.78 0.07
1 7.31 731 3.481 -9.242 2.801 -19.928 -16.754 3.937 -180.482 2931.340 -2604.403 -2.332 -0.241 -0.611 0.02 -0.62 0.78 0.07
1 7.32 732 2.835 -9.050 4.027 -8.148 14.710 18.372 -420.476 2871.229 -2844.397 -1.675 -0.436 -1.859 0.02 -0.62 0.78 0.07
1 7.33 733 1.820 -9.050 4.353 -9.705 27.283 11.932 -420.476 2871.229 -2844.397 -0.670 -0.437 -2.185 0.02 -0.62 0.78 0.07
1 7.34 734 1.437 -8.686 4.133 -3.998 26.367 7.233 -240.593 2991.301 -2589.413 -0.303 -0.801 -1.957 0.02 -0.62 0.78 0.07
1 7.35 735 1.173 -8.217 4.137 22.003 15.625 4.639 -270.574 2916.200 -2664.514 -0.069 -1.263 -1.915 0.02 -0.62 0.78 0.07
1 7.36 736 1.365 -8.457 4.650 20.081 16.388 -7.172 -150.502 3036.272 -2604.403 -0.266 -1.012 -2.375 0.02 -0.62 0.78 0.07
1 7.37 737 1.231 -8.734 4.971 3.082 21.515 -16.663 -150.502 3036.272 -2604.403 -0.120 -0.722 -2.650 0.01 -0.62 0.78 0.07
1 7.38 738 0.852 -9.376 4.429 -10.681 23.346 -13.031 -30.580 2886.220 -2649.374 0.277 -0.072 -2.085 0.01 -0.62 0.78 0.08
1 7.39 739 0.642 -9.213 3.797 -1.556 16.357 -0.336 -0.450 2961.321 -2679.504 0.495 -0.233 -1.448 0.01 -0.62 0.78 0.08
1 7.40 740 0.776 -8.854 3.496 10.284 9.460 -2.747 -0.450 2961.321 -2679.504 0.354 -0.590 -1.136 0.01 -0.62 0.78 0.08
1 7.41 741 1.135 -8.792 3.544 11.383 1.160 -9.888 -240.593 2916.200 -2664.514 -0.010 -0.647 -1.159 0.01 -0.62 0.78 0.08
1 7.42 742 1.231 -9.141 3.716 -6.470 -7.202 -8.728 -270.574 2991.301 -2694.495 -0.078 -0.283 -1.289 0.01 -0.61 0.79 0.08
1 7.43 743 0.972 -9.826 3.491 -18.250 -5.280 -6.622 -210.463 2856.239 -2754.456 0.198 0.403 -1.069 0.01 -0.61 0.79 0.08
1 7.44 744 0.508 -10.133 3.165 -13.214 -0.854 -1.221 -210.463 2856.239 -2754.456 0.671 0.706 -0.761 0.01 -0.61 0.78 0.08
1 7.45 745 0.139 -10.339 3.069 2.045 2.106 6.714 -120.521 2916.200 -2694.495 1.035 0.909 -0.672 0.01 -0.61 0.78 0.08
1 7.46 746 -0.105 -10.324 3.074 11.414 2.716 12.085 -255.583 2961.321 -2649.374 1.260 0.895 -0.666 0.01 -0.61 0.79 0.08
1 7.47 747 -0.172 -9.864 3.141 14.160 4.486 21.362 -255.583 2961.321 -2649.374 1.297 0.438 -0.710 0.01 -0.61 0.79 0.08
1 7.48 748 -0.014 -9.778 3.189 9.033 7.202 26.550 -120.521 3021.282 -2814.417 1.099 0.354 -0.732 0.01 -0.61 0.79 0.08
1 7.49 749 0.201 -9.764 3.026 4.547 10.254 30.151 -255.583 2811.269 -2679.504 0.837 0.340 -0.547 0.01 -0.61 0.79 0.08
1 7.50 750 0.431 -9.261 2.945 8.820 13.153 33.508 -195.473 2991.301 -2694.495 0.499 -0.167 -0.437 0 -0.61 0.79 0.07
1 7.51 751 0.637 -8.888 2.519 13.519 13.001 32.257 -195.473 2991.301 -2694.495 0.238 -0.540 0.010 0 -0.61 0.79 0.07
1 7.52 752 0.536 -8.667 2.500 10.986 11.932 29.663 -0.450 2856.239 -2754.456 0.286 -0.759 0.052 -0 -0.61 0.79 0.07
1 7.53 753 0.843 -8.399 2.543 4.822 11.139 28.351 -45.570 3021.282 -2694.495 -0.068 -1.026 0.027 -0 -0.61 0.79 0.07
1 7.54 754 0.891 -8.390 2.504 1.068 14.221 25.330 -45.570 3021.282 -2694.495 -0.160 -1.037 0.074 -0.01 -0.61 0.79 0.07
1 7.55 755 0.613 -8.289 2.457 4.669 18.127 22.156 14.391 2991.301 -2844.397 0.077 -1.139 0.128 -0.01 -0.61 0.79 0.07
1 7.56 756 0.354 -8.332 2.337 6.958 21.820 19.470 -15.590 2991.301 -2769.446 0.297 -1.096 0.256 -0.01 -0.61 0.79 0.07
1 7.57 757 0.029 -8.442 2.217 5.646 24.597 17.090 -0.450 2961.321 -2724.475 0.550 -0.984 0.401 -0.01 -0.61 0.79 0.07
1 7.58 758 -0.144 -8.423 2.332 4.883 23.041 16.693 -0.450 2961.321 -2724.475 0.689 -1.002 0.297 -0.02 -0.6 0.79 0.07
1 7.59 759 -0.292 -8.428 2.370 8.637 21.118 14.862 74.352 3036.272 -2724.475 0.805 -0.996 0.270 -0.02 -0.6 0.79 0.07
1 7.60 760 -0.206 -8.208 2.452 11.383 18.555 12.238 44.371 2961.321 -2754.456 0.688 -1.213 0.205 -0.02 -0.6 0.79 0.07
1 7.61 761 -0.077 -8.212 2.571 10.315 16.632 9.674 44.371 2961.321 -2754.456 0.536 -1.204 0.104 -0.02 -0.6 0.79 0.07
1 7.62 762 -0.010 -8.528 2.500 6.653 16.266 5.005 194.273 2961.321 -2799.426 0.451 -0.884 0.193 -0.02 -0.6 0.8 0.07
1 7.63 763 -0.038 -8.615 2.548 6.165 14.435 1.617 164.293 2826.259 -2769.446 0.466 -0.795 0.158 -0.02 -0.6 0.8 0.07
1 7.64 764 -0.239 -8.768 2.576 9.003 9.796 -7.263 119.322 2886.220 -2754.456 0.650 -0.636 0.152 -0.03 -0.6 0.8 0.07
1 7.65 765 -0.508 -8.883 2.409 12.573 6.561 -12.787 119.322 2886.220 -2754.456 0.924 -0.516 0.336 -0.03 -0.6 0.8 0.07
1 7.66 766 -0.599 -9.041 2.279 14.099 5.188 -14.099 14.391 2916.200 -2814.417 1.026 -0.351 0.485 -0.03 -0.6 0.8 0.07
1 7.67 767 -0.589 -9.017 2.145 11.078 4.791 -12.054 134.312 2946.331 -2919.498 1.027 -0.369 0.639 -0.03 -0.6 0.8 0.07
1 7.68 768 -0.733 -9.180 2.193 7.202 3.784 -10.925 134.312 2946.331 -2919.498 1.179 -0.202 0.603 -0.03 -0.6 0.8 0.07
1 7.69 769 -0.579 -9.252 1.839 5.157 2.716 -6.836 74.352 2856.239 -2859.387 1.032 -0.128 0.965 -0.03 -0.6 0.8 0.07
1 7.70 770 -0.388 -9.457 1.743 5.096 2.625 -4.700 -30.580 2811.269 -2859.387 0.844 0.079 1.064 -0.03 -0.6 0.8 0.07
1 7.71 771 -0.201 -9.429 1.542 1.190 0.122 -3.448 -30.580 2811.269 -2859.387 0.658 0.051 1.268 -0.03 -0.6 0.8 0.07
1 7.72 772 -0.115 -9.654 1.681 -0.336 -5.219 -4.974 153.950 2880.374 -3017.534 0.574 0.273 1.116 -0.03 -0.6 0.8 0.07
1 7.73 773 -0.010 -9.673 1.633 2.502 -7.446 -8.057 78.999 2805.422 -2942.433 0.476 0.290 1.157 -0.03 -0.6 0.8 0.07
1 7.74 774 0.139 -9.611 1.686 2.747 -9.613 -10.254 -10.793 2985.305 -2822.511 0.341 0.227 1.100 -0.03 -0.6 0.8 0.07
1 7.75 775 0.029 -9.587 1.609 2.228 -10.101 -11.536 -10.793 2985.305 -2822.511 0.469 0.203 1.173 -0.02 -0.6 0.8 0.07
1 7.76 776 -0.048 -9.769 1.470 3.052 -9.796 -14.557 138.959 2865.383 -2957.573 0.565 0.385 1.307 -0.02 -0.6 0.8 0.08
1 7.77 777 -0.034 -10.037 1.494 -0.885 -9.766 -15.625 78.999 2955.325 -2987.554 0.573 0.653 1.279 -0.02 -0.6 0.8 0.08
1 7.78 778 -0.134 -10.181 1.595 -4.639 -10.345 -15.411 78.999 2955.325 -2987.554 0.696 0.795 1.170 -0.02 -0.6 0.8 0.08
1 7.79 779 -0.273 -10.319 1.705 -2.350 -9.735 -13.733 -40.773 3015.436 -2822.511 0.879 0.928 1.029 -0.02 -0.6 0.8 0.08
1 7.80 780 -0.215 -10.348 1.796 1.678 -7.874 -11.536 -85.894 2910.354 -2957.573 0.838 0.955 0.928 -0.02 -0.6 0.8 0.08
1 7.81 781 -0.144 -10.353 1.844 1.007 -4.242 -8.209 4.047 2850.393 -2912.453 0.779 0.959 0.875 -0.02 -0.6 0.8 0.08
1 7.82 782 -0.196 -10.458 1.801 -1.434 1.221 -5.524 4.047 2850.393 -2912.453 0.838 1.063 0.912 -0.02 -0.6 0.8 0.08
1 7.83 783 -0.172 -10.645 1.609 -2.960 4.730 -2.563 19.038 3060.406 -2897.462 0.815 1.247 1.094 -0.02 -0.6 0.79 0.08
1 7.84 784 -0.508 -10.655 1.073 -1.038 2.655 2.106 93.989 2820.413 -2777.541 1.144 1.253 1.618 -0.02 -0.6 0.79 0.08
1 7.85 785 -0.670 -10.439 0.651 2.472 -4.700 3.784 93.989 2820.413 -2777.541 1.300 1.035 2.033 -0.02 -0.6 0.79 0.08
1 7.86 786 -0.479 -10.463 1.882 0.000 -23.102 1.923 64.008 2820.413 -2957.573 1.088 1.051 0.780 -0.02 -0.6 0.79 0.08
1 7.87 787 0.886 -13.394 4.329 -20.722 -25.757 14.496 -25.783 2955.325 -2867.482 -0.280 3.977 -1.684 -0.02 -0.6 0.79 0.07
1 7.88 788 2.275 -15.458 5.306 -60.730 -14.618 57.068 78.999 2850.393 -2942.433 -1.693 6.026 -2.709 -0.02 -0.61 0.79 0.07
1 7.89 789 1.901 -11.689 3.342 -2.869 7.660 60.425 78.999 2850.393 -2942.433 -1.404 2.232 -0.822 -0.02 -0.61 0.79 0.07
1 7.90 790 2.418 -11.253 2.394 76.752 4.761 45.929 19.038 2910.354 -2897.462 -2.005 1.800 0.158 -0.02 -0.61 0.79 0.06
1 7.91 791 2.399 -10.219 3.050 14.435 -8.118 47.699 78.999 3075.396 -2867.482 -2.053 0.795 -0.384 -0.02 -0.6 0.8 0.06
1 7.92 792 2.078 -8.926 2.734 -27.191 -5.432 30.518 78.999 3075.396 -2867.482 -1.799 -0.486 -0.019 -0.03 -0.6 0.8 0.06
1 7.93 793 2.045 -10.822 3.390 -30.853 4.639 25.848 19.038 2910.354 -3032.524 -1.805 1.401 -0.704 -0.03 -0.6 0.8 0.06
1 7.94 794 1.001 -11.799 5.033 -45.044 25.757 38.330 123.969 2775.292 -3017.534 -0.842 2.348 -2.446 -0.03 -0.61 0.79 0.05
1 7.95 795 -0.690 -9.979 3.472 -8.759 27.374 15.991 289.012 2910.354 -2957.573 0.790 0.513 -0.940 -0.03 -0.61 0.79 0.05
1 7.96 796 -1.824 -8.749 2.145 44.708 12.726 -11.871 289.012 2910.354 -2957.573 1.901 -0.715 0.399 -0.04 -0.61 0.79 0.05
1 7.97 797 -2.461 -8.404 2.184 58.350 -8.850 -30.029 168.940 2985.305 -3002.544 2.548 -1.039 0.436 -0.04 -0.6 0.79 0.05
1 7.98 798 -2.236 -8.121 3.845 -4.272 -33.508 -33.569 289.012 3015.436 -2957.573 2.358 -1.300 -1.151 -0.03 -0.6 0.8 0.05
1 7.99 799 -1.508 -8.634 4.473 -40.558 -36.713 -22.980 289.012 3015.436 -2957.573 1.674 -0.782 -1.761 -0.03 -0.6 0.8 0.05
1 8.00 800 -0.972 -9.137 4.635 -42.999 -33.478 -7.751 199.070 2925.344 -3047.515 1.174 -0.289 -1.960 -0.03 -0.6 0.8 0.05
1 8.01 801 -0.589 -9.046 4.334 -1.038 -23.346 7.416 259.031 2775.292 -2987.554 0.813 -0.400 -1.731 -0.03 -0.61 0.79 0.05
1 8.02 802 -0.273 -8.500 3.998 24.170 -16.571 14.435 229.051 2955.325 -3017.534 0.487 -0.940 -1.373 -0.02 -0.6 0.79 0.05
1 8.03 803 0.244 -8.380 4.051 21.118 -14.801 22.034 229.051 2955.325 -3017.534 -0.050 -1.046 -1.377 -0.02 -0.6 0.8 0.05
1 8.04 804 0.848 -8.136 4.123 -3.662 -14.435 28.137 78.999 3000.295 -2942.433 -0.681 -1.281 -1.413 -0.02 -0.6 0.8 0.05
1 8.05 805 1.322 -8.193 4.133 -25.848 -7.629 29.083 93.989 3060.406 -2897.462 -1.186 -1.224 -1.424 -0.02 -0.6 0.8 0.04
1 8.06 806 1.135 -8.643 3.884 -26.276 7.538 24.323 93.989 3060.406 -2897.462 -1.028 -0.782 -1.202 -0.03 -0.6 0.8 0.04
1 8.07 807 0.771 -8.840 3.869 -17.700 13.397 19.348 78.999 2955.325 -3047.515 -0.693 -0.594 -1.215 -0.03 -0.6 0.8 0.04
1 8.08 808 0.570 -8.811 3.625 -16.296 8.270 9.247 168.940 3015.436 -2957.573 -0.539 -0.631 -1.001 -0.03 -0.6 0.8 0.04
1 8.09 809 0.991 -9.017 3.433 -16.693 1.343 2.045 78.999 3000.295 -3092.485 -0.968 -0.429 -0.824 -0.03 -0.6 0.79 0.04
1 8.10 810 1.331 -8.998 3.457 -16.541 -1.770 -3.204 78.999 3000.295 -3092.485 -1.301 -0.453 -0.864 -0.03 -0.61 0.79 0.04
1 8.11 811 1.633 -9.113 3.596 -15.442 -0.977 -10.773 259.031 3000.295 -2912.453 -1.584 -0.342 -1.018 -0.03 -0.61 0.79 0.04
1 8.12 812 1.542 -9.208 3.524 -14.160 -1.251 -19.287 138.959 3015.436 -3002.544 -1.462 -0.250 -0.960 -0.03 -0.61 0.79 0.04
1 8.13 813 1.116 -9.319 3.251 -12.390 -5.920 -31.311 138.959 3015.436 -3002.544 -0.991 -0.142 -0.699 -0.03 -0.61 0.79 0.04
1 8.14 814 0.876 -9.515 3.304 -10.803 -10.712 -35.309 214.061 3090.387 -2852.492 -0.698 0.052 -0.762 -0.02 -0.61 0.79 0.05
1 8.15 815 0.895 -9.232 3.074 -9.796 -14.008 -36.560 214.061 3090.387 -2852.492 -0.656 -0.232 -0.543 -0.02 -0.61 0.79 0.05
1 8.16 816 0.800 -9.462 3.132 -11.902 -14.648 -37.384 49.018 3195.318 -2867.482 -0.432 -0.003 -0.618 -0.02 -0.61 0.79 0.05
1 8.17 817 0.646 -9.501 2.988 -16.174 -12.543 -34.760 49.018 3195.318 -2867.482 -0.215 0.034 -0.489 -0.01 -0.61 0.79 0.05
1 8.18 818 0.091 -9.323 2.840 -15.869 -9.308 -29.785 214.061 3090.387 -2897.462 0.397 -0.145 -0.360 -0.01 -0.61 0.79 0.06
1 8.19 819 -0.230 -9.242 2.696 -13.062 -8.759 -23.895 -10.793 3090.387 -2852.492 0.761 -0.229 -0.235 -0.01 -0.61 0.79 0.06
1 8.20 820 -0.196 -9.161 2.442 -8.423 -11.963 -15.808 -10.793 3090.387 -2852.492 0.759 -0.312 0.004 -0.01 -0.61 0.79 0.06
1 8.21 821 0.431 -8.983 2.485 -6.073 -15.442 -9.796 -70.904 3150.348 -2912.453 0.156 -0.491 -0.050 -0.01 -0.61 0.79 0.06
1 8.22 822 1.221 -8.797 2.514 -2.899 -15.961 -4.578 -70.904 3150.348 -2912.453 -0.616 -0.679 -0.087 -0.01 -0.61 0.79 0.06
1 8.23 823 1.805 -8.586 2.509 -1.129 -10.620 -2.106 -145.855 3120.367 -2837.501 -1.170 -0.889 -0.088 -0 -0.61 0.79 0.06
1 8.24 824 1.901 -8.677 2.595 -1.801 -6.683 -2.991 -145.855 3120.367 -2837.501 -1.249 -0.797 -0.174 -0 -0.61 0.79 0.06
1 8.25 825 1.767 -8.562 2.677 -2.472 -5.646 -2.869 -25.783 3225.299 -2867.482 -1.097 -0.910 -0.255 -0 -0.61 0.79 0.06
1 8.26 826 1.432 -8.567 2.485 -0.977 -5.035 -3.601 -10.793 2940.334 -2852.492 -0.745 -0.904 -0.064 -0 -0.61 0.79 0.06
1 8.27 827 1.116 -8.418 2.236 2.167 -5.676 -2.716 -10.793 2940.334 -2852.492 -0.414 -1.051 0.187 -0 -0.61 0.79 0.06
1 8.28 828 1.020 -8.399 2.241 3.571 -9.918 -2.167 4.047 3120.367 -2867.482 -0.308 -1.068 0.188 0 -0.61 0.79 0.06
1 8.29 829 0.891 -8.366 2.155 1.099 -13.733 -2.716 4.047 3120.367 -2867.482 -0.170 -1.100 0.279 0 -0.61 0.79 0.06
1 8.30 830 0.910 -8.782 2.112 -4.822 -15.930 -3.174 -100.884 3195.318 -2762.550 -0.167 -0.682 0.322 0 -0.61 0.79 0.06
1 8.31 831 1.092 -8.988 2.073 -5.890 -15.717 -0.366 -100.884 3195.318 -2762.550 -0.336 -0.477 0.352 0 -0.61 0.79 0.06
1 8.32 832 1.307 -8.801 1.829 1.221 -13.336 2.716 -160.845 3060.406 -2897.462 -0.542 -0.665 0.588 0.01 -0.61 0.79 0.06
1 8.33 833 1.164 -8.715 1.815 7.202 -10.803 3.815 -190.826 3135.357 -2852.492 -0.393 -0.751 0.603 0.01 -0.61 0.79 0.06
1 8.34 834 1.168 -8.706 1.614 4.639 -10.193 3.571 -190.826 3135.357 -2852.492 -0.395 -0.758 0.810 0.01 -0.61 0.79 0.06
1 8.35 835 1.235 -8.931 1.633 -5.096 -11.292 4.608 -145.855 3120.367 -2762.550 -0.458 -0.533 0.791 0.01 -0.61 0.79 0.05
1 8.36 836 1.226 -9.299 1.815 -10.803 -8.392 5.219 -145.855 3120.367 -2762.550 -0.446 -0.166 0.599 0.01 -0.61 0.79 0.05
1 8.37 837 1.183 -9.850 1.762 -11.597 -2.777 5.981 -190.826 3165.338 -2897.462 -0.401 0.380 0.634 0.01 -0.61 0.79 0.05
1 8.38 838 1.111 -10.185 1.829 -1.526 2.655 11.292 -248.538 3071.949 -2844.547 -0.340 0.705 0.532 0.01 -0.62 0.79 0.05
1 8.39 839 1.274 -9.965 1.829 7.263 5.859 15.503 -83.646 2936.887 -3009.589 -0.519 0.483 0.530 0.01 -0.62 0.79 0.05
1 8.40 840 1.168 -9.711 1.992 11.169 9.033 18.707 -248.538 3146.900 -2994.599 -0.436 0.230 0.377 0.01 -0.62 0.79 0.05
1 8.41 841 1.202 -9.615 1.973 8.728 10.468 21.301 -248.538 3146.900 -2994.599 -0.497 0.136 0.409 0.01 -0.62 0.79 0.05
1 8.42 842 1.580 -9.405 1.915 -0.549 10.742 23.926 -188.577 3131.910 -3039.570 -0.906 -0.075 0.476 0 -0.61 0.79 0.05
1 8.43 843 1.590 -9.299 1.848 -0.275 8.423 23.041 -188.577 3131.910 -3039.570 -0.948 -0.183 0.543 0 -0.61 0.79 0.05
1 8.44 844 1.638 -9.568 1.820 -3.387 5.096 15.137 -68.655 3191.871 -2874.527 -1.047 0.081 0.565 0 -0.62 0.79 0.05
1 8.45 845 1.633 -9.314 1.666 -5.432 3.296 11.139 -68.655 3191.871 -2874.527 -1.054 -0.176 0.709 0 -0.62 0.79 0.05
1 8.46 846 1.197 -9.999 1.106 -7.874 -1.617 -0.122 -173.587 3071.949 -2994.599 -0.618 0.505 1.256 0 -0.62 0.79 0.05
1 8.47 847 0.800 -10.659 0.824 -7.233 -4.669 -8.637 -188.577 3356.913 -2904.508 -0.210 1.162 1.520 0 -0.62 0.79 0.05
1 8.48 848 0.723 -10.947 0.881 -3.540 -8.118 -12.695 -188.577 3356.913 -2904.508 -0.114 1.445 1.441 0 -0.62 0.78 0.05
1 8.49 849 0.963 -11.153 0.972 2.594 -8.453 -10.468 -8.544 3056.958 -2934.488 -0.332 1.652 1.347 0 -0.62 0.78 0.05
1 8.50 850 1.235 -11.014 0.713 9.613 -1.740 -4.089 -8.544 3056.958 -2934.488 -0.587 1.516 1.612 0 -0.62 0.79 0.05
1 8.51 851 1.341 -10.655 0.359 8.545 4.913 2.441 -188.577 3056.958 -2934.488 -0.682 1.161 1.980 0 -0.62 0.79 0.05
1 8.52 852 1.374 -10.305 1.331 -0.732 14.648 11.200 -38.525 3161.890 -2964.469 -0.725 0.813 1.018 0 -0.62 0.79 0.05
1 8.53 853 0.977 -10.544 3.448 -19.440 18.433 4.334 -188.577 3161.890 -3084.541 -0.342 1.048 -1.114 0 -0.62 0.79 0.05
1 8.54 854 0.273 -12.613 4.281 -54.413 14.771 -26.428 21.286 3161.890 -2859.537 0.362 3.107 -1.984 0 -0.62 0.78 0.05
1 8.55 855 -0.110 -12.848 3.318 -52.948 -0.275 -41.657 21.286 3161.890 -2859.537 0.789 3.325 -1.106 0 -0.62 0.78 0.05
1 8.56 856 -0.690 -12.216 2.169 1.007 -3.265 -37.933 -68.655 3191.871 -2949.479 1.430 2.684 -0.014 0 -0.62 0.78 0.06
1 8.57 857 -0.819 -12.082 1.982 18.738 8.392 -45.319 -68.655 3191.871 -2949.479 1.619 2.559 0.189 0.01 -0.62 0.78 0.06
1 8.58 858 -0.350 -11.392 1.939 0.275 1.801 -28.931 -38.525 3207.011 -3039.570 1.215 1.883 0.266 0.01 -0.62 0.78 0.06
1 8.59 859 1.513 -10.420 1.609 -16.480 -2.380 -1.282 -158.597 3161.890 -2964.469 -0.579 0.916 0.593 0.01 -0.62 0.78 0.07
1 8.60 860 2.916 -10.463 2.203 -24.719 3.387 5.402 -188.577 3161.890 -3039.570 -1.981 0.952 -0.033 0.01 -0.62 0.78 0.07
1 8.61 861 3.625 -10.066 3.156 -25.024 16.968 12.360 -248.538 3296.952 -3054.560 -2.697 0.546 -1.022 0.01 -0.63 0.78 0.07
1 8.62 862 3.122 -9.797 4.243 -18.463 33.081 16.846 -248.538 3296.952 -3054.560 -2.221 0.268 -2.140 0.01 -0.63 0.78 0.07
1 8.63 863 1.705 -9.649 4.937 -11.444 43.732 5.341 -188.577 3161.890 -3114.521 -0.836 0.113 -2.852 0 -0.63 0.78 0.07
1 8.64 864 -0.072 -10.161 3.807 3.601 31.159 -20.783 -188.577 3161.890 -3114.521 0.928 0.622 -1.729 0 -0.63 0.78 0.07
1 8.65 865 0.053 -9.788 3.668 30.731 9.918 -17.212 -143.606 3146.900 -2949.479 0.820 0.252 -1.585 -0 -0.63 0.78 0.07
1 8.66 866 0.881 -8.730 4.065 52.063 3.021 -8.606 -83.646 3161.890 -3039.570 0.011 -0.795 -1.940 -0 -0.63 0.78 0.07
1 8.67 867 1.906 -8.117 4.741 34.180 19.714 -7.080 21.286 3281.962 -2934.488 -0.995 -1.366 -2.440 0 -0.62 0.78 0.07
1 8.68 868 1.978 -8.165 4.707 3.235 29.266 -6.622 -38.525 3207.011 -2904.508 -1.056 -1.302 -2.345 -0 -0.62 0.78 0.08
1 8.69 869 1.250 -8.442 4.109 -17.975 28.504 -5.157 -38.525 3207.011 -2904.508 -0.320 -1.018 -1.726 -0 -0.62 0.78 0.08
1 8.70 870 0.579 -8.907 3.520 -16.876 24.170 -4.486 -68.655 3146.900 -3024.580 0.352 -0.555 -1.144 -0 -0.62 0.78 0.08
1 8.71 871 0.182 -9.232 3.295 -1.312 15.839 -5.890 -68.655 3146.900 -3024.580 0.748 -0.231 -0.923 -0 -0.62 0.78 0.08
1 8.72 872 0.019 -9.275 3.117 15.137 5.188 -5.615 -143.606 3266.972 -2994.599 0.911 -0.184 -0.731 -0 -0.61 0.78 0.08
1 8.73 873 -0.005 -9.141 3.160 10.590 -1.068 -1.099 6.296 3146.900 -3024.580 0.935 -0.311 -0.745 -0.01 -0.61 0.78 0.08
1 8.74 874 0.225 -9.319 2.921 2.228 -9.094 3.418 -98.636 3296.952 -2949.479 0.698 -0.124 -0.468 -0.01 -0.61 0.79 0.08
1 8.75 875 0.105 -9.501 3.093 -0.336 -10.620 7.965 -113.626 3356.913 -3039.570 0.811 0.058 -0.635 -0 -0.61 0.79 0.08
1 8.76 876 0.168 -9.740 3.117 0.916 -7.843 13.092 -113.626 3356.913 -3039.570 0.734 0.297 -0.655 -0 -0.61 0.79 0.08
1 8.77 877 0.144 -9.467 2.864 8.270 -4.272 15.350 -173.587 3146.900 -3024.580 0.736 0.024 -0.393 -0.01 -0.61 0.79 0.08
1 8.78 878 -0.010 -9.141 2.868 17.334 -2.472 13.855 -173.587 3146.900 -3024.580 0.864 -0.298 -0.378 -0.01 -0.61 0.79 0.08
1 8.79 879 -0.153 -8.825 2.777 18.463 -1.465 11.414 -8.544 3056.958 -3114.521 0.984 -0.608 -0.256 -0.01 -0.61 0.79 0.08
1 8.80 880 -0.378 -8.868 2.624 11.719 0.366 11.414 -8.544 3207.011 -3159.492 1.186 -0.558 -0.070 -0.01 -0.61 0.79 0.08
1 8.81 881 -0.393 -8.806 2.413 6.012 1.740 14.893 -173.587 3116.919 -3054.560 1.152 -0.614 0.179 -0.01 -0.61 0.79 0.08
1 8.82 882 -0.450 -8.811 2.480 6.714 1.984 15.472 51.267 3222.001 -3129.511 1.179 -0.609 0.123 -0.01 -0.61 0.79 0.07
1 8.83 883 -0.029 -9.060 2.452 8.209 1.709 15.839 51.267 3222.001 -3129.511 0.728 -0.358 0.164 -0.01 -0.61 0.79 0.07
1 8.84 884 0.206 -9.132 2.710 6.622 3.693 15.595 -98.636 3146.900 -3129.511 0.465 -0.285 -0.082 -0.01 -0.6 0.79 0.07
1 8.85 885 0.364 -9.232 2.586 6.348 6.317 16.876 -98.636 3146.900 -3129.511 0.279 -0.183 0.055 -0.01 -0.6 0.79 0.07
1 8.86 886 0.378 -8.950 2.480 9.216 10.681 16.388 -158.597 3207.011 -3009.589 0.236 -0.464 0.171 -0.01 -0.6 0.79 0.07
1 8.87 887 0.297 -8.931 2.437 6.805 11.536 16.205 -158.597 3056.958 -3009.589 0.289 -0.481 0.230 -0.02 -0.6 0.79 0.07
1 8.88 888 0.225 -9.132 2.619 2.319 11.505 15.839 -23.535 3191.871 -3204.462 0.303 -0.278 0.067 -0.02 -0.6 0.8 0.07
1 8.89 889 0.249 -8.998 2.682 2.686 11.597 16.357 -23.535 3191.871 -3204.462 0.279 -0.412 0.005 -0.02 -0.6 0.8 0.07
1 8.90 890 0.302 -8.983 2.519 7.751 12.573 14.832 173.287 3205.512 -3088.438 0.170 -0.425 0.183 -0.02 -0.6 0.8 0.07
1 8.91 891 0.431 -8.768 2.581 10.315 11.841 12.329 8.245 3025.479 -3178.379 0.015 -0.638 0.135 -0.02 -0.6 0.8 0.07
1 8.92 892 0.493 -8.624 2.476 10.162 10.956 11.475 8.245 3025.479 -3178.379 -0.068 -0.777 0.257 -0.02 -0.6 0.8 0.07
1 8.93 893 0.493 -8.356 2.437 9.308 11.658 9.583 143.307 3130.561 -3088.438 -0.087 -1.042 0.311 -0.02 -0.6 0.8 0.07
1 8.94 894 0.283 -8.576 2.260 4.822 14.923 6.897 -66.557 3190.521 -3253.331 0.107 -0.818 0.503 -0.03 -0.6 0.8 0.07
1 8.95 895 0.144 -8.686 2.318 2.411 15.533 4.486 -66.557 3190.521 -3253.331 0.231 -0.706 0.455 -0.03 -0.6 0.8 0.07
1 8.96 896 -0.048 -8.715 2.073 4.272 13.550 2.319 68.355 3085.590 -3163.389 0.396 -0.675 0.707 -0.03 -0.6 0.8 0.07
1 8.97 897 -0.206 -8.715 2.121 5.585 10.590 0.702 68.355 3085.590 -3163.389 0.545 -0.674 0.665 -0.03 -0.6 0.8 0.07
1 8.98 898 -0.527 -8.595 2.136 5.249 8.209 -1.740 173.287 3325.583 -3193.370 0.861 -0.792 0.659 -0.03 -0.6 0.8 0.07
1 8.99 899 -0.546 -8.768 2.145 0.671 4.913 -3.845 173.287 3325.583 -3193.370 0.875 -0.618 0.654 -0.03 -0.6 0.8 0.07
1 9.00 900 -0.632 -8.797 2.231 -2.563 2.441 -6.226 233.248 3220.502 -3208.360 0.961 -0.590 0.566 -0.03 -0.6 0.8 0.07
1 9.01 901 -0.661 -8.921 2.006 0.366 -2.014 -10.803 293.359 3235.492 -3268.321 0.993 -0.467 0.786 -0.03 -0.6 0.8 0.07
1 9.02 902 -0.503 -9.065 2.045 0.793 -3.387 -11.871 293.359 3235.492 -3268.321 0.843 -0.324 0.744 -0.03 -0.6 0.8 0.07
1 9.03 903 -0.541 -9.175 2.102 -1.648 -3.235 -12.970 293.359 3205.512 -3193.370 0.893 -0.214 0.685 -0.03 -0.6 0.8 0.07
1 9.04 904 -0.330 -9.256 2.016 -0.519 -3.571 -14.069 8.245 3340.574 -3253.331 0.713 -0.135 0.759 -0.03 -0.6 0.8 0.07
1 9.05 905 -0.278 -9.184 1.805 1.282 -5.463 -14.648 218.258 3010.489 -3223.350 0.678 -0.207 0.966 -0.03 -0.6 0.8 0.07
1 9.06 906 -0.230 -9.122 1.877 0.580 -8.057 -14.648 218.258 3010.489 -3223.350 0.649 -0.269 0.891 -0.03 -0.6 0.8 0.07
1 9.07 907 0.062 -9.146 1.786 -0.549 -10.468 -14.404 53.365 3145.551 -3133.409 0.378 -0.246 0.977 -0.03 -0.6 0.8 0.07
1 9.08 908 0.297 -9.343 1.801 -7.538 -10.223 -14.435 98.336 3205.512 -3163.389 0.166 -0.051 0.954 -0.03 -0.6 0.8 0.07
1 9.09 909 0.661 -9.951 1.719 -11.841 -8.087 -12.787 98.336 3205.512 -3163.389 -0.175 0.554 1.020 -0.02 -0.6 0.8 0.07
1 9.10 910 0.723 -10.128 2.026 -12.146 -4.944 -10.345 8.245 3190.521 -3058.458 -0.214 0.726 0.692 -0.02 -0.6 0.8 0.07
1 9.11 911 0.852 -10.310 2.140 -0.916 2.045 -7.019 -111.527 3325.583 -3343.422 -0.307 0.898 0.537 -0.02 -0.6 0.79 0.07
1 9.12 912 0.872 -10.377 2.260 6.226 5.524 -7.111 23.385 3130.561 -3268.321 -0.314 0.965 0.415 -0.02 -0.6 0.79 0.08
1 9.13 913 0.618 -10.444 2.121 7.111 9.430 -6.866 23.385 3130.561 -3268.321 -0.049 1.035 0.560 -0.02 -0.6 0.79 0.08
1 9.14 914 0.235 -10.430 1.844 6.165 10.620 -7.172 23.385 3325.583 -3163.389 0.342 1.023 0.845 -0.02 -0.6 0.79 0.08
1 9.15 915 -0.321 -10.511 1.551 5.157 9.613 -8.514 -81.547 3160.541 -3268.321 0.902 1.106 1.140 -0.02 -0.6 0.79 0.08
1 9.16 916 -0.613 -10.645 1.101 3.204 1.617 -9.583 -81.547 3160.541 -3268.321 1.198 1.240 1.589 -0.02 -0.6 0.79 0.08
1 9.17 917 -0.642 -10.679 0.924 5.249 -4.608 -10.651 -6.596 3325.583 -3163.389 1.231 1.272 1.761 -0.02 -0.6 0.79 0.08
1 9.18 918 -0.426 -10.626 0.776 5.127 -10.895 -10.712 -21.586 3145.551 -3133.409 1.033 1.217 1.897 -0.02 -0.6 0.79 0.08
1 9.19 919 -0.431 -10.511 0.996 1.282 -11.749 -8.331 -21.586 3220.502 -3133.409 1.050 1.100 1.668 -0.02 -0.6 0.79 0.08
1 9.20 920 -0.034 -11.354 2.610 -7.141 -8.240 -0.916 -21.586 3220.502 -3133.409 0.665 1.942 0.047 -0.02 -0.6 0.79 0.08
1 9.21 921 0.594 -13.968 4.635 -30.762 -0.885 21.027 -36.576 3130.561 -3268.321 0.037 4.552 -1.995 -0.02 -0.6 0.79 0.08
1 9.22 922 0.915 -14.620 4.923 -44.403 14.038 52.124 -36.576 3160.541 -3268.321 -0.327 5.186 -2.335 -0.02 -0.61 0.79 0.08
1 9.23 923 0.211 -11.052 1.848 48.737 10.132 43.274 -36.576 3160.541 -3268.321 0.293 1.601 0.694 -0.02 -0.61 0.79 0.07
1 9.24 924 0.522 -11.019 2.265 66.956 -9.186 36.560 8.245 3220.502 -3208.360 -0.091 1.577 0.324 -0.03 -0.61 0.79 0.07
1 9.25 925 0.278 -10.382 2.399 -13.062 -12.817 41.199 53.365 3265.473 -3178.379 0.054 0.976 0.332 -0.03 -0.6 0.8 0.07
1 9.26 926 0.321 -10.295 2.050 -29.114 -13.214 42.084 -81.547 3160.541 -3223.350 -0.043 0.878 0.649 -0.03 -0.6 0.8 0.06
1 9.27 927 0.795 -11.454 2.102 -37.384 -17.517 41.290 -81.547 3160.541 -3223.350 -0.571 2.019 0.535 -0.03 -0.6 0.79 0.06
1 9.28 928 0.986 -11.440 3.036 -31.128 -15.869 30.579 128.316 3265.473 -3178.379 -0.811 1.989 -0.451 -0.03 -0.61 0.79 0.06
1 9.29 929 0.800 -10.564 3.127 -9.583 -16.480 15.747 68.355 3355.564 -3163.389 -0.657 1.102 -0.580 -0.03 -0.61 0.79 0.05
1 9.30 930 0.345 -9.299 2.940 28.931 -21.973 -7.507 68.355 3355.564 -3163.389 -0.211 -0.163 -0.395 -0.03 -0.61 0.79 0.05
1 9.31 931 -0.163 -8.868 3.395 31.769 -25.299 -19.623 203.268 3220.502 -3178.379 0.315 -0.584 -0.814 -0.03 -0.61 0.79 0.05
1 9.32 932 -0.819 -8.916 4.300 2.777 -28.168 -22.156 -21.586 3265.473 -3103.428 1.049 -0.511 -1.632 -0.02 -0.6 0.8 0.05
1 9.33 933 -0.800 -8.935 4.420 -5.585 -28.351 -18.127 -111.527 3235.492 -3118.418 1.065 -0.488 -1.742 -0.02 -0.6 0.8 0.05
1 9.34 934 -0.838 -9.108 4.382 -9.522 -27.130 3.082 -111.527 3235.492 -3118.418 1.118 -0.316 -1.707 -0.02 -0.6 0.8 0.05
1 9.35 935 -0.618 -8.792 4.338 1.587 -26.703 13.611 83.346 3295.453 -3178.379 0.892 -0.631 -1.662 -0.02 -0.6 0.8 0.05
1 9.36 936 -0.235 -8.461 4.334 12.329 -23.712 21.668 -156.498 3085.590 -3343.422 0.491 -0.957 -1.637 -0.02 -0.6 0.8 0.04
1 9.37 937 0.488 -8.155 4.391 15.228 -20.691 29.907 -156.498 3085.590 -3343.422 -0.260 -1.254 -1.661 -0.02 -0.6 0.8 0.04
1 9.38 938 1.662 -7.987 4.501 2.441 -15.320 36.499 -111.527 3355.564 -3193.370 -1.469 -1.413 -1.737 -0.02 -0.6 0.8 0.04
1 9.39 939 2.136 -8.059 4.281 -9.125 -7.416 32.166 -81.547 3280.463 -3268.321 -1.980 -1.335 -1.493 -0.02 -0.6 0.8 0.04
1 9.40 940 2.251 -8.256 3.831 -14.221 3.998 18.799 -21.586 3295.453 -3103.428 -2.146 -1.139 -1.042 -0.02 -0.6 0.8 0.03
1 9.41 941 1.686 -8.433 3.644 -8.575 7.568 9.277 -21.586 3295.453 -3103.428 -1.589 -0.964 -0.862 -0.02 -0.6 0.8 0.03
1 9.42 942 1.456 -8.495 3.601 -4.089 7.477 -0.732 68.355 3280.463 -3118.418 -1.358 -0.902 -0.820 -0.02 -0.6 0.8 0.03
1 9.43 943 1.168 -8.658 3.352 -5.219 6.958 -10.407 53.365 3190.521 -3178.379 -1.058 -0.738 -0.568 -0.02 -0.6 0.8 0.03
1 9.44 944 1.015 -9.036 3.529 -9.674 5.646 -18.890 53.365 3190.521 -3178.379 -0.880 -0.360 -0.748 -0.02 -0.6 0.8 0.03
1 9.45 945 0.565 -9.481 3.448 -10.712 4.089 -27.710 53.365 3220.502 -3028.327 -0.394 0.084 -0.674 -0.02 -0.6 0.8 0.04
1 9.46 946 0.560 -9.553 3.251 -4.028 2.258 -32.013 -141.508 3265.473 -3208.360 -0.348 0.153 -0.488 -0.02 -0.6 0.8 0.04
1 9.47 947 0.757 -9.304 3.204 4.639 -2.380 -34.454 53.365 3340.574 -3103.428 -0.446 -0.092 -0.438 -0.01 -0.6 0.8 0.04
1 9.48 948 1.092 -9.074 3.175 4.120 -5.615 -34.515 53.365 3340.574 -3103.428 -0.726 -0.317 -0.398 -0.01 -0.6 0.8 0.04
1 9.49 949 1.235 -8.912 3.117 1.068 -5.768 -35.095 128.316 3190.521 -3133.409 -0.811 -0.474 -0.331 -0.01 -0.6 0.8 0.05
1 9.50 950 1.240 -8.988 3.026 -4.181 -5.402 -34.943 -141.508 3265.473 -3133.409 -0.756 -0.394 -0.236 -0.01 -0.6 0.8 0.05
1 9.51 951 1.073 -9.132 3.132 -9.094 -2.869 -33.295 -141.508 3265.473 -3133.409 -0.530 -0.248 -0.346 -0 -0.6 0.8 0.05
1 9.52 952 0.287 -9.094 2.835 -8.362 -0.092 -28.900 8.245 3340.574 -3103.428 0.308 -0.286 -0.059 -0 -0.6 0.8 0.05
1 9.53 953 0.019 -9.007 2.696 -4.425 0.031 -25.604 -141.508 3370.554 -3058.458 0.621 -0.373 0.069 -0 -0.6 0.8 0.06
1 9.54 954 -0.072 -8.859 2.548 -1.465 -2.991 -20.447 -141.508 3370.554 -3058.458 0.748 -0.520 0.212 0 -0.6 0.8 0.06
1 9.55 955 0.378 -8.294 2.552 -0.488 -8.850 -13.763 -156.498 3235.492 -3223.350 0.347 -1.082 0.205 0 -0.6 0.8 0.06
1 9.56 956 0.943 -8.423 2.792 -4.852 -10.284 -13.794 -260.980 3325.134 -3120.517 -0.193 -0.952 -0.036 0 -0.6 0.8 0.06
1 9.57 957 1.154 -8.734 2.868 -10.803 -9.827 -13.855 -231.000 3130.111 -3045.416 -0.377 -0.641 -0.121 0.01 -0.6 0.8 0.06
1 9.58 958 1.437 -9.079 2.840 -12.207 -7.141 -12.177 -231.000 3130.111 -3045.416 -0.631 -0.298 -0.107 0.01 -0.6 0.8 0.06
1 9.59 959 1.470 -9.218 2.763 -5.432 -5.371 -8.209 -201.019 3475.186 -3060.406 -0.640 -0.161 -0.044 0.01 -0.6 0.8 0.06
1 9.60 960 1.398 -8.691 2.624 10.895 -4.028 -0.610 -275.970 3370.254 -3180.478 -0.550 -0.687 0.092 0.01 -0.6 0.8 0.06
1 9.61 961 1.537 -8.600 2.548 11.597 -5.219 1.251 -275.970 3370.254 -3180.478 -0.678 -0.773 0.181 0.01 -0.6 0.8 0.06
1 9.62 962 1.542 -8.562 2.662 -3.540 -8.453 1.801 -201.019 3295.153 -3060.406 -0.669 -0.803 0.091 0.01 -0.6 0.8 0.06
1 9.63 963 1.523 -8.878 2.729 -10.803 -8.942 4.395 -201.019 3415.225 -3060.406 -0.643 -0.488 0.017 0.01 -0.6 0.8 0.06
1 9.64 964 1.403 -9.146 2.648 -9.155 -6.561 5.920 -231.000 3355.114 -3090.387 -0.520 -0.224 0.084 0.01 -0.6 0.8 0.06
1 9.65 965 1.188 -9.453 2.562 -1.770 -3.876 7.507 -231.000 3355.114 -3090.387 -0.305 0.080 0.159 0.01 -0.6 0.8 0.06
1 9.66 966 1.073 -9.184 2.509 7.141 -1.007 9.094 -141.058 3190.222 -3030.426 -0.196 -0.189 0.213 0.01 -0.6 0.8 0.06
1 9.67 967 1.130 -8.581 2.375 13.336 0.153 12.878 -260.980 3430.215 -2940.484 -0.265 -0.790 0.359 0.01 -0.6 0.8 0.06
1 9.68 968 1.192 -8.677 2.394 5.890 -0.458 12.054 -260.980 3430.215 -2940.484 -0.343 -0.690 0.359 0.01 -0.6 0.8 0.06
1 9.69 969 1.585 -8.854 2.265 -9.369 -0.366 14.038 -275.970 3370.254 -3105.377 -0.763 -0.513 0.496 0.01 -0.6 0.8 0.06
1 9.70 970 1.666 -8.998 2.404 -11.108 1.587 15.137 -171.039 3220.202 -2880.374 -0.859 -0.375 0.342 0.01 -0.6 0.8 0.06
1 9.71 971 1.757 -9.333 2.294 -9.491 11.566 13.641 -186.029 3325.134 -3165.488 -0.966 -0.046 0.436 0.01 -0.6 0.8 0.06
1 9.72 972 1.724 -9.620 2.222 -6.714 14.404 13.214 -186.029 3325.134 -3165.488 -0.949 0.236 0.495 0.01 -0.6 0.8 0.06
1 9.73 973 1.657 -9.864 2.217 -2.502 13.763 14.832 -141.058 3295.153 -3000.445 -0.900 0.477 0.491 0.01 -0.6 0.8 0.06
1 9.74 974 1.475 -9.539 2.102 4.791 13.245 16.815 -186.029 3325.134 -3015.436 -0.739 0.148 0.603 0.01 -0.6 0.8 0.06
1 9.75 975 1.312 -9.501 1.906 6.989 13.825 17.822 -186.029 3325.134 -3015.436 -0.599 0.109 0.802 0 -0.6 0.8 0.05
1 9.76 976 1.264 -9.319 1.710 2.899 14.740 18.250 -95.938 3295.153 -3030.426 -0.600 -0.073 1.010 0 -0.6 0.8 0.05
1 9.77 977 1.379 -9.366 1.681 0.031 14.038 17.090 -95.938 3370.254 -3060.406 -0.741 -0.028 1.037 -0 -0.6 0.8 0.05
1 9.78 978 1.188 -9.544 1.542 -5.493 15.228 13.763 -186.029 3430.215 -3045.416 -0.572 0.145 1.166 -0 -0.6 0.8 0.05
1 9.79 979 0.872 -9.625 1.537 -6.805 16.174 12.207 -186.029 3430.215 -3045.416 -0.276 0.221 1.157 -0 -0.6 0.8 0.05
1 9.80 980 0.551 -9.673 1.681 -7.019 16.357 11.169 -20.986 3445.206 -3180.478 0.025 0.264 0.997 -0 -0.6 0.8 0.05
1 9.81 981 0.177 -9.654 1.810 -5.219 13.489 7.660 -5.996 3400.235 -3045.416 0.379 0.239 0.854 -0.01 -0.6 0.8 0.05
1 9.82 982 0.153 -9.730 1.647 -1.221 4.974 4.791 -5.996 3400.235 -3045.416 0.387 0.312 1.005 -0.01 -0.6 0.8 0.05
1 9.83 983 0.455 -9.706 1.283 1.923 -0.671 5.280 -35.977 3355.114 -2940.484 0.072 0.285 1.360 -0.01 -0.6 0.79 0.05
1 9.84 984 1.154 -9.970 1.250 -1.282 -2.289 6.744 -35.977 3460.196 -3090.387 -0.642 0.544 1.382 -0.01 -0.6 0.79 0.05
1 9.85 985 1.513 -10.128 1.231 -7.935 1.434 6.500 8.844 3295.153 -3060.406 -1.005 0.698 1.388 -0.01 -0.61 0.79 0.05
1 9.86 986 1.724 -10.568 1.168 -11.353 5.554 7.111 8.844 3295.153 -3060.406 -1.218 1.132 1.427 -0.01 -0.61 0.79 0.05
1 9.87 987 1.465 -10.702 1.891 -11.200 10.193 7.629 68.805 3325.134 -3165.488 -0.963 1.258 0.677 -0.01 -0.61 0.79 0.05
1 9.88 988 0.833 -10.760 3.414 -14.282 12.726 0.916 68.805 3205.212 -3090.387 -0.340 1.310 -0.865 -0.01 -0.61 0.79 0.05
1 9.89 989 -1.235 -13.178 4.123 -49.652 3.479 -50.171 68.805 3205.212 -3090.387 1.732 3.722 -1.599 -0.01 -0.61 0.79 0.06
1 9.90 990 -2.016 -13.695 2.940 -36.316 -12.817 -59.265 -171.039 3445.206 -3030.426 2.569 4.226 -0.476 -0.01 -0.61 0.79 0.06
1 9.91 991 -2.313 -12.431 2.198 30.823 -18.158 -42.725 -35.977 3325.134 -2970.465 3.036 2.958 0.205 -0 -0.61 0.79 0.06
1 9.92 992 -1.489 -11.564 2.251 26.489 -16.937 -37.018 -156.048 3565.127 -3045.416 2.282 2.109 0.198 0 -0.61 0.79 0.06
1 9.93 993 -0.263 -10.832 1.944 7.111 -18.982 -18.158 -156.048 3565.127 -3045.416 1.111 1.389 0.535 0 -0.61 0.79 0.07
1 9.94 994 1.231 -10.602 1.748 -12.024 -20.294 -0.244 -80.947 3430.215 -2910.504 -0.356 1.162 0.734 0.01 -0.61 0.79 0.07
1 9.95 995 2.892 -10.650 2.222 -28.412 -15.259 10.162 -245.990 3295.153 -2880.374 -2.014 1.203 0.231 0.01 -0.61 0.79 0.07
1 9.96 996 4.362 -10.951 3.563 -34.546 9.277 18.677 -245.990 3295.153 -2880.374 -3.496 1.491 -1.155 0.01 -0.61 0.79 0.06
1 9.97 997 3.668 -10.578 3.989 -27.283 27.313 20.416 -171.039 3295.153 -2850.393 -2.828 1.103 -1.630 0.01 -0.62 0.79 0.06
1 9.98 998 2.073 -9.922 3.544 -11.353 34.149 19.013 -171.039 3295.153 -2850.393 -1.270 0.434 -1.224 0 -0.62 0.78 0.06
1 9.99 999 0.536 -8.998 3.189 18.646 19.836 18.036 -186.029 3460.196 -2865.383 0.200 -0.495 -0.869 -0 -0.62 0.78 0.06
1 10.00 1000 0.685 -8.217 3.400 29.846 9.583 17.059 -186.029 3460.196 -2865.383 0.020 -1.268 -1.038 -0 -0.62 0.79 0.06
1 10.01 1001 1.207 -7.561 3.955 26.733 6.958 12.695 -245.990 3445.206 -2925.494 -0.527 -1.912 -1.540 -0.01 -0.61 0.79 0.06
1 10.02 1002 1.767 -7.547 4.420 10.010 12.878 2.441 -80.947 3400.235 -2910.504 -1.105 -1.918 -1.968 -0.01 -0.61 0.79 0.06
1 10.03 1003 1.724 -7.863 4.396 -12.421 19.226 -6.622 -80.947 3400.235 -2910.504 -1.062 -1.598 -1.926 -0.01 -0.61 0.79 0.06
1 10.04 1004 1.015 -8.165 3.702 -17.304 22.949 -9.827 -80.947 3355.114 -2910.504 -0.339 -1.296 -1.235 -0.01 -0.61 0.79 0.07
1 10.05 1005 0.321 -8.217 3.304 0.031 21.576 -12.329 -80.947 3355.114 -2910.504 0.367 -1.245 -0.848 -0.01 -0.61 0.79 0.07
1 10.06 1006 -0.048 -8.150 3.314 16.754 18.860 -17.242 -80.947 3430.215 -3015.436 0.747 -1.309 -0.851 -0.01 -0.61 0.79 0.07
1 10.07 1007 -0.618 -8.356 3.649 18.707 15.411 -23.712 -94.438 3414.625 -2675.157 1.352 -1.083 -1.117 -0.01 -0.61 0.79 0.07
1 10.08 1008 -0.852 -8.725 3.749 6.775 13.367 -18.402 -79.448 3429.616 -2975.262 1.606 -0.703 -1.182 -0.01 -0.61 0.79 0.07
1 10.09 1009 -0.675 -8.993 3.726 -1.801 7.324 -9.125 -94.438 3294.554 -2780.239 1.437 -0.429 -1.139 -0.01 -0.61 0.79 0.08
1 10.10 1010 -0.383 -10.243 3.754 -7.629 3.174 -9.460 -94.438 3294.554 -2780.239 1.145 0.823 -1.162 -0.01 -0.61 0.79 0.08
1 10.11 1011 -0.225 -11.339 3.625 -8.789 2.319 0.061 -109.429 3279.563 -2975.262 0.995 1.918 -1.041 -0.01 -0.61 0.79 0.08
1 10.12 1012 -0.101 -10.813 3.438 13.977 5.280 10.986 -109.429 3279.563 -2975.262 0.875 1.387 -0.869 -0.01 -0.61 0.79 0.08
