COL1	TIME	ACC_X	ACC_Y	ACC_Z	GYR_X	GYR_Y	GYR_Z	MAG_X	MAG_Y	MAG_Z	LACC_X	LACC_Y	LACC_Z	QUAT_X	QUAT_Y	QUAT_Z	QUAT_W
1 0.00 0 -0.488 -8.830 4.693 2.289 -0.488 0.488 184.830 2013.638 -3962.968 -0.018 0.227 -0.027 0.02 0.51 -0.86 0.01
1 0.01 1 -0.532 -8.844 4.726 1.160 -0.366 -0.275 19.937 2043.619 -4052.910 0.025 0.243 -0.057 0.02 0.51 -0.86 0.01
1 0.02 2 -0.651 -8.672 4.717 -0.854 0.092 -0.061 109.878 2013.638 -4022.929 0.147 0.073 -0.043 0.02 0.51 -0.86 0.01
1 0.03 3 -0.536 -8.873 4.659 -1.495 -0.214 -0.732 184.830 1938.537 -4097.880 0.033 0.274 0.014 0.02 0.51 -0.86 0.01
1 0.04 4 -0.623 -8.720 4.693 -2.686 -0.488 -0.122 184.830 1938.537 -4097.880 0.121 0.119 -0.022 0.02 0.51 -0.86 0.01
1 0.05 5 -0.402 -8.686 4.678 -3.235 -0.305 -0.366 124.869 1968.667 -3932.838 -0.098 0.085 -0.010 0.02 0.51 -0.86 0.01
1 0.06 6 -0.493 -8.682 4.688 -2.533 -0.305 -0.183 124.869 1968.667 -3932.838 -0.005 0.078 -0.022 0.02 0.51 -0.86 0.01
1 0.07 7 -0.402 -8.787 4.674 -2.075 0.031 0.092 139.859 2058.609 -3887.867 -0.094 0.183 -0.009 0.02 0.51 -0.86 0.01
1 0.08 8 -0.431 -8.610 4.760 -1.526 0.641 -0.183 139.859 1908.557 -4022.929 -0.064 0.004 -0.097 0.02 0.51 -0.86 0.01
1 0.09 9 -0.369 -8.653 4.779 0.000 0.824 0.793 109.878 2013.638 -3917.848 -0.124 0.048 -0.116 0.02 0.51 -0.86 0.01
1 0.10 10 -0.503 -8.720 4.712 0.916 1.129 0.641 124.869 1848.596 -4007.939 0.010 0.116 -0.047 0.02 0.51 -0.86 0.01
1 0.11 11 -0.532 -8.758 4.793 0.366 1.007 0.977 124.869 1848.596 -4007.939 0.038 0.155 -0.126 0.02 0.51 -0.86 0.01
1 0.12 12 -0.565 -8.811 4.707 0.763 1.587 0.885 199.820 2073.599 -3902.857 0.070 0.209 -0.037 0.02 0.51 -0.86 0.01
1 0.13 13 -0.570 -8.797 4.616 0.336 0.824 0.793 199.820 2073.599 -3902.857 0.074 0.196 0.055 0.02 0.51 -0.86 0.01
1 0.14 14 -0.709 -8.806 4.587 -0.641 0.153 0.519 94.888 1968.667 -3977.958 0.212 0.206 0.085 0.02 0.51 -0.86 0.01
1 0.15 15 -0.603 -8.725 4.726 -1.465 0.244 -0.092 4.947 1863.586 -3992.949 0.107 0.124 -0.054 0.02 0.51 -0.86 0.01
1 0.16 16 -0.608 -8.763 4.549 -2.289 0.488 -0.916 214.960 2058.609 -4217.952 0.111 0.161 0.120 0.02 0.51 -0.86 0.01
1 0.17 17 -0.503 -8.663 4.626 -3.540 1.312 -0.580 94.888 1968.667 -3977.958 0.007 0.059 0.040 0.02 0.51 -0.86 0.01
1 0.18 18 -0.603 -8.754 4.664 -4.150 1.465 -1.068 94.888 1968.667 -3977.958 0.108 0.148 -0.002 0.02 0.51 -0.86 0.01
1 0.19 19 -0.508 -8.744 4.693 -4.700 1.648 -0.885 109.878 2058.609 -3992.949 0.013 0.136 -0.035 0.02 0.51 -0.86 0.01
1 0.20 20 -0.469 -8.677 4.573 -4.639 1.740 -0.763 109.878 2058.609 -3992.949 -0.025 0.066 0.079 0.02 0.51 -0.86 0.01
1 0.21 21 -0.436 -8.648 4.726 -2.228 1.617 -0.427 94.888 2118.570 -4157.841 -0.057 0.035 -0.078 0.02 0.51 -0.86 0.01
1 0.22 22 -0.627 -8.648 4.755 -1.129 1.495 -0.763 169.839 2148.550 -3932.838 0.134 0.033 -0.110 0.02 0.51 -0.86 0.01
1 0.23 23 -0.565 -8.787 4.765 -0.519 1.587 -0.214 169.839 2148.550 -3932.838 0.073 0.172 -0.120 0.02 0.51 -0.86 0.01
1 0.24 24 -0.541 -8.619 4.745 0.580 0.977 0.519 64.908 2178.531 -4142.851 0.049 0.005 -0.098 0.02 0.51 -0.86 0.01
1 0.25 25 -0.666 -8.696 4.722 -0.092 0.549 0.183 64.908 2178.531 -4142.851 0.173 0.083 -0.072 0.02 0.51 -0.86 0.01
1 0.26 26 -0.599 -8.691 4.683 0.122 0.671 0.854 259.931 2013.638 -4067.900 0.105 0.079 -0.033 0.02 0.51 -0.86 0.01
1 0.27 27 -0.627 -8.725 4.693 -0.183 0.275 0.641 259.931 2013.638 -4067.900 0.132 0.114 -0.041 0.02 0.51 -0.86 0.01
1 0.28 28 -0.642 -8.744 4.693 -0.641 0.488 1.221 214.960 1983.658 -3962.968 0.145 0.133 -0.040 0.02 0.51 -0.86 0.01
1 0.29 29 -0.651 -8.710 4.602 -1.190 0.336 1.251 124.869 2148.550 -4007.939 0.153 0.100 0.050 0.02 0.51 -0.86 0.01
1 0.30 30 -0.541 -8.725 4.578 -1.068 0.244 1.312 124.869 2148.550 -4007.939 0.041 0.114 0.074 0.02 0.51 -0.86 0.01
1 0.31 31 -0.666 -8.696 4.587 -2.319 0.305 1.373 289.911 2058.609 -3992.949 0.162 0.084 0.062 0.02 0.51 -0.86 0.01
1 0.32 32 -0.536 -8.725 4.554 -3.387 -0.061 0.977 289.911 2058.609 -3992.949 0.031 0.112 0.094 0.02 0.51 -0.86 0.01
1 0.33 33 -0.575 -8.706 4.592 -3.571 -0.580 0.824 199.820 1998.648 -3932.838 0.068 0.091 0.051 0.02 0.51 -0.86 0.01
1 0.34 34 -0.565 -8.792 4.760 -3.815 -0.641 1.282 199.820 1998.648 -3932.838 0.058 0.175 -0.120 0.02 0.51 -0.86 0.01
1 0.35 35 -0.618 -8.754 4.698 -3.326 0.153 0.641 184.830 1938.537 -4097.880 0.110 0.135 -0.061 0.02 0.51 -0.86 0.01
1 0.36 36 -0.527 -8.730 4.779 -2.075 0.031 1.312 4.947 1938.537 -3962.968 0.018 0.109 -0.145 0.02 0.51 -0.86 0.01
1 0.37 37 -0.527 -8.773 4.611 -1.801 -0.549 1.282 4.947 1938.537 -3962.968 0.018 0.151 0.020 0.02 0.51 -0.86 0.01
1 0.38 38 -0.488 -8.734 4.722 -0.702 -0.793 0.916 124.869 2043.619 -4082.890 -0.020 0.113 -0.091 0.02 0.51 -0.86 0.01
1 0.39 39 -0.551 -8.725 4.654 -1.099 -1.129 1.251 124.869 2043.619 -4082.890 0.042 0.103 -0.024 0.02 0.51 -0.86 0.01
1 0.40 40 -0.464 -8.763 4.712 -1.648 -2.167 0.763 184.830 2058.609 -3992.949 -0.044 0.141 -0.081 0.02 0.51 -0.86 0.01
1 0.41 41 -0.517 -8.715 4.516 -1.831 -1.678 1.495 184.830 2058.609 -3992.949 0.008 0.093 0.115 0.02 0.51 -0.86 0.01
1 0.42 42 -0.584 -8.720 4.645 -1.221 -2.075 1.740 214.960 2133.560 -4022.929 0.075 0.098 -0.015 0.02 0.51 -0.86 0.01
1 0.43 43 -0.517 -8.768 4.587 0.397 -2.045 1.984 109.878 2178.531 -4142.851 0.007 0.145 0.041 0.02 0.51 -0.86 0.01
1 0.44 44 -0.498 -8.754 4.693 0.275 -1.526 1.770 109.878 2178.531 -4142.851 -0.012 0.132 -0.062 0.02 0.51 -0.86 0.01
1 0.45 45 -0.450 -8.667 4.559 -0.122 -1.862 1.709 229.950 1998.648 -3902.857 -0.060 0.046 0.073 0.02 0.51 -0.86 0.01
1 0.46 46 -0.479 -8.725 4.722 -1.038 -1.465 2.319 169.839 2148.550 -4052.910 -0.031 0.104 -0.089 0.02 0.51 -0.86 0.01
1 0.47 47 -0.374 -8.825 4.688 -1.526 -1.923 2.563 184.830 1908.557 -3917.848 -0.136 0.204 -0.056 0.02 0.51 -0.86 0.01
1 0.48 48 -0.522 -8.849 4.516 -1.770 -1.831 2.136 184.830 1908.557 -3917.848 0.013 0.228 0.116 0.02 0.51 -0.86 0.01
1 0.49 49 -0.508 -8.840 4.702 -1.312 -1.862 2.106 109.878 2103.580 -3992.949 -0.001 0.218 -0.072 0.02 0.51 -0.86 0.01
1 0.50 50 -0.474 -8.821 4.635 0.366 -2.533 1.923 94.888 1998.648 -3932.838 -0.035 0.198 -0.005 0.02 0.51 -0.86 0.01
1 0.51 51 -0.431 -8.768 4.607 0.732 -2.075 2.167 94.888 1998.648 -3932.838 -0.077 0.146 0.024 0.02 0.51 -0.86 0.01
1 0.52 52 -0.632 -8.682 4.702 0.824 -2.777 1.587 199.820 2148.550 -3902.857 0.124 0.061 -0.070 0.02 0.51 -0.86 0.01
1 0.53 53 -0.546 -8.725 4.583 -0.366 -2.380 1.678 124.869 2073.599 -3932.838 0.038 0.106 0.055 0.02 0.51 -0.86 0.01
1 0.54 54 -0.589 -8.811 4.621 -0.458 -2.502 1.801 139.859 2058.609 -3917.848 0.081 0.192 0.016 0.02 0.51 -0.86 0.01
1 0.55 55 -0.670 -8.725 4.631 -0.092 -2.319 1.953 139.859 2058.609 -3917.848 0.162 0.106 0.006 0.02 0.51 -0.86 0.01
1 0.56 56 -0.522 -8.773 4.654 0.946 -1.678 1.587 139.859 2103.580 -3962.968 0.013 0.155 -0.017 0.02 0.51 -0.86 0.01
1 0.57 57 -0.579 -8.696 4.564 0.793 -2.228 1.617 184.830 2133.560 -4067.900 0.071 0.079 0.077 0.02 0.51 -0.86 0.01
1 0.58 58 -0.498 -8.816 4.621 -0.458 -1.648 1.617 184.830 2133.560 -4067.900 -0.011 0.200 0.021 0.02 0.51 -0.86 0.01
1 0.59 59 -0.608 -8.859 4.568 0.183 -2.380 1.740 214.960 2013.638 -3992.949 0.099 0.243 0.074 0.02 0.51 -0.86 0.01
1 0.60 60 -0.565 -8.801 4.621 0.702 -2.258 1.740 -99.985 1923.547 -3827.906 0.057 0.187 0.023 0.02 0.51 -0.86 0.01
1 0.61 61 -0.555 -8.921 4.616 0.183 -2.686 1.312 259.931 2013.638 -3992.949 0.046 0.307 0.030 0.02 0.51 -0.86 0.01
1 0.62 62 -0.479 -8.696 4.453 -0.793 -2.808 1.892 259.931 2013.638 -3992.949 -0.030 0.083 0.194 0.02 0.51 -0.86 0.01
1 0.63 63 -0.431 -8.739 4.664 -1.038 -2.075 2.106 184.830 1908.557 -3962.968 -0.078 0.126 -0.017 0.02 0.51 -0.86 0.01
1 0.64 64 -0.445 -8.677 4.650 -2.350 -2.472 1.953 124.869 2118.570 -3977.958 -0.063 0.063 -0.004 0.02 0.51 -0.86 0.01
1 0.65 65 -0.522 -8.754 4.602 -2.747 -2.228 1.587 124.869 2118.570 -3977.958 0.015 0.139 0.043 0.02 0.51 -0.86 0.01
1 0.66 66 -0.608 -8.744 4.650 -2.014 -2.045 1.617 124.869 1998.648 -4007.939 0.102 0.128 -0.007 0.02 0.51 -0.86 0.01
1 0.67 67 -0.532 -8.682 4.592 -2.045 -1.495 1.495 139.859 1983.658 -3962.968 0.025 0.065 0.048 0.02 0.51 -0.86 0.01
1 0.68 68 -0.421 -8.734 4.659 -1.129 -1.099 1.526 94.888 2073.599 -3902.857 -0.085 0.117 -0.020 0.02 0.51 -0.86 0.01
1 0.69 69 -0.709 -8.691 4.573 -0.824 -1.099 1.770 94.888 2073.599 -3902.857 0.202 0.074 0.066 0.02 0.51 -0.86 0.01
1 0.70 70 -0.460 -8.873 4.626 0.275 -1.556 1.099 34.927 2058.609 -3917.848 -0.048 0.255 0.013 0.02 0.51 -0.86 0.01
1 0.71 71 -0.527 -8.868 4.678 0.793 -1.190 1.190 4.947 1983.658 -3992.949 0.019 0.251 -0.039 0.02 0.51 -0.86 0.02
1 0.72 72 -0.579 -8.959 4.616 0.549 -1.648 1.160 4.947 1983.658 -3992.949 0.071 0.343 0.025 0.02 0.51 -0.86 0.02
1 0.73 73 -0.546 -8.921 4.722 0.061 -1.007 1.251 169.839 1998.648 -4007.939 0.038 0.305 -0.079 0.02 0.51 -0.86 0.02
1 0.74 74 -0.618 -8.859 4.712 -0.610 -1.495 1.068 109.878 1938.537 -3887.867 0.110 0.243 -0.070 0.02 0.51 -0.86 0.02
1 0.75 75 -0.546 -8.835 4.626 -2.106 -1.099 0.641 64.908 1983.658 -3962.968 0.038 0.219 0.016 0.02 0.51 -0.86 0.02
1 0.76 76 -0.455 -8.725 4.602 -2.777 -0.946 0.977 64.908 1983.658 -3962.968 -0.053 0.108 0.038 0.02 0.51 -0.86 0.02
1 0.77 77 -0.460 -8.686 4.544 -4.272 -0.854 0.702 109.878 1863.586 -4067.900 -0.048 0.068 0.093 0.02 0.51 -0.86 0.02
1 0.78 78 -0.393 -8.686 4.501 -3.601 -0.427 0.641 109.878 1983.658 -3917.848 -0.114 0.066 0.132 0.02 0.51 -0.86 0.02
1 0.79 79 -0.460 -8.816 4.626 -3.632 0.122 0.732 109.878 1983.658 -3917.848 -0.046 0.193 0.003 0.02 0.51 -0.86 0.02
1 0.80 80 -0.412 -8.787 4.583 -1.831 -0.122 0.854 199.820 2043.619 -4052.910 -0.093 0.162 0.043 0.02 0.51 -0.86 0.02
1 0.81 81 -0.512 -8.801 4.635 -0.488 0.000 0.610 184.830 2058.609 -3992.949 0.007 0.175 -0.012 0.02 0.51 -0.86 0.02
1 0.82 82 -0.646 -8.840 4.659 -0.397 0.610 0.854 94.888 2043.619 -4082.890 0.142 0.214 -0.035 0.02 0.51 -0.86 0.02
1 0.83 83 -0.445 -8.797 4.669 -0.244 0.854 0.671 94.888 2043.619 -4082.890 -0.061 0.171 -0.044 0.02 0.51 -0.86 0.02
1 0.84 84 -0.532 -8.782 4.683 -0.824 1.312 1.343 49.917 2043.619 -3977.958 0.025 0.157 -0.058 0.02 0.51 -0.86 0.02
1 0.85 85 -0.694 -8.864 4.659 -0.488 0.183 0.916 184.830 1938.537 -3917.848 0.187 0.239 -0.034 0.02 0.51 -0.86 0.02
1 0.86 86 -0.646 -8.787 4.631 -0.854 -0.092 0.763 184.830 1938.537 -3917.848 0.138 0.162 -0.005 0.02 0.51 -0.86 0.02
1 0.87 87 -0.603 -8.797 4.540 -0.885 -0.214 1.038 169.839 2148.550 -3932.838 0.094 0.172 0.086 0.02 0.51 -0.86 0.01
1 0.88 88 -0.632 -8.730 4.468 -2.167 -0.458 0.946 109.878 2103.580 -4097.880 0.122 0.104 0.157 0.02 0.51 -0.86 0.01
1 0.89 89 -0.575 -8.811 4.506 -2.930 -0.610 0.916 109.878 2103.580 -4097.880 0.064 0.185 0.116 0.02 0.51 -0.86 0.02
1 0.90 90 -0.594 -8.749 4.621 -3.143 -0.336 0.580 379.853 2043.619 -4052.910 0.083 0.119 -0.005 0.02 0.51 -0.86 0.01
1 0.91 91 -0.469 -8.816 4.611 -3.235 -0.214 0.824 214.960 1863.586 -4022.929 -0.041 0.184 0.001 0.02 0.51 -0.86 0.01
1 0.92 92 -0.532 -8.730 4.640 -2.777 -0.153 0.458 169.839 2148.550 -3902.857 0.021 0.096 -0.031 0.02 0.51 -0.86 0.01
1 0.93 93 -0.594 -8.825 4.616 -1.923 -0.549 0.275 169.839 2148.550 -3902.857 0.085 0.191 -0.009 0.02 0.51 -0.86 0.01
1 0.94 94 -0.460 -8.730 4.525 -0.549 -0.183 0.153 229.950 2073.599 -4052.910 -0.049 0.095 0.081 0.02 0.51 -0.86 0.01
1 0.95 95 -0.479 -8.739 4.540 0.580 -0.122 0.336 214.960 2058.609 -3962.968 -0.029 0.104 0.067 0.02 0.51 -0.86 0.01
1 0.96 96 -0.474 -8.763 4.683 0.732 0.671 0.000 214.960 2058.609 -3962.968 -0.032 0.129 -0.075 0.02 0.51 -0.86 0.01
1 0.97 97 -0.498 -8.653 4.669 0.793 0.244 -0.305 109.878 1938.537 -3887.867 -0.006 0.021 -0.056 0.02 0.51 -0.86 0.01
1 0.98 98 -0.493 -8.667 4.583 0.275 -0.031 0.092 34.927 2058.609 -3992.949 -0.010 0.037 0.032 0.02 0.51 -0.86 0.01
1 0.99 99 -0.455 -8.734 4.626 -0.793 -0.336 -0.183 124.869 2043.619 -4007.939 -0.048 0.104 -0.010 0.02 0.51 -0.86 0.01
1 1.00 100 -0.517 -8.797 4.559 -1.068 -0.763 0.427 124.869 2043.619 -4007.939 0.016 0.166 0.057 0.02 0.51 -0.86 0.01
1 1.01 101 -0.517 -8.725 4.587 -0.488 -0.916 0.519 34.927 2178.531 -3992.949 0.016 0.094 0.028 0.02 0.51 -0.86 0.01
1 1.02 102 -0.608 -8.773 4.554 0.732 -1.129 0.092 214.960 2103.580 -3962.968 0.108 0.141 0.060 0.02 0.51 -0.86 0.01
1 1.03 103 -0.555 -8.859 4.549 1.587 -0.885 -0.092 214.960 2103.580 -3962.968 0.057 0.228 0.066 0.02 0.51 -0.86 0.01
1 1.04 104 -0.565 -8.883 4.683 2.289 -0.916 -0.214 109.878 2133.560 -3917.848 0.069 0.255 -0.062 0.02 0.51 -0.86 0.01
1 1.05 105 -0.623 -8.873 4.564 1.221 -0.977 0.092 109.878 2013.638 -3917.848 0.128 0.247 0.061 0.02 0.51 -0.86 0.01
1 1.06 106 -0.503 -8.811 4.626 0.824 -1.221 -0.275 214.960 2103.580 -3917.848 0.010 0.186 0.001 0.02 0.51 -0.86 0.01
1 1.07 107 -0.508 -8.806 4.597 -0.488 -1.678 0.153 214.960 2103.580 -3917.848 0.016 0.182 0.031 0.02 0.51 -0.86 0.01
1 1.08 108 -0.484 -8.897 4.564 -0.153 -1.465 -0.458 184.830 1983.658 -4022.929 -0.005 0.273 0.065 0.02 0.51 -0.86 0.01
1 1.09 109 -0.541 -8.840 4.506 1.678 -1.801 -0.305 214.960 2178.531 -4022.929 0.055 0.216 0.123 0.02 0.51 -0.86 0.01
1 1.10 110 -0.512 -8.792 4.607 2.319 -2.258 -0.641 214.960 2178.531 -4022.929 0.029 0.169 0.025 0.02 0.51 -0.86 0.01
1 1.11 111 -0.517 -8.859 4.607 2.686 -1.801 -0.519 334.882 2013.638 -3992.949 0.036 0.237 0.028 0.02 0.51 -0.86 0.01
1 1.12 112 -0.460 -8.787 4.674 1.953 -1.678 -1.068 214.960 2058.609 -3812.916 -0.015 0.170 -0.031 0.02 0.51 -0.86 0.01
1 1.13 113 -0.445 -8.825 4.477 1.404 -2.197 -0.244 19.937 2118.570 -3932.838 -0.025 0.209 0.168 0.02 0.51 -0.86 0.01
1 1.14 114 -0.421 -8.768 4.501 0.702 -2.319 0.366 19.937 2118.570 -3932.838 -0.046 0.152 0.146 0.02 0.51 -0.86 0.01
1 1.15 115 -0.311 -8.672 4.487 -1.251 -2.045 0.061 109.878 1983.658 -3887.867 -0.153 0.057 0.161 0.02 0.51 -0.86 0.01
1 1.16 116 -0.268 -8.648 4.564 -2.808 -2.441 0.671 304.901 2043.619 -3902.857 -0.193 0.032 0.083 0.02 0.51 -0.86 0.01
1 1.17 117 -0.335 -8.744 4.616 -2.899 -2.563 1.740 304.901 2043.619 -3902.857 -0.123 0.126 0.027 0.02 0.51 -0.86 0.01
1 1.18 118 -0.225 -8.816 4.530 -2.777 -2.991 1.068 124.869 2043.619 -4052.910 -0.231 0.196 0.110 0.02 0.51 -0.86 0.01
1 1.19 119 -0.105 -8.935 4.564 -0.031 -4.028 1.465 169.839 2043.619 -3977.958 -0.344 0.313 0.072 0.02 0.51 -0.86 0.01
1 1.20 120 -0.168 -8.969 4.573 1.678 -4.181 2.075 64.908 2133.560 -3992.949 -0.278 0.347 0.064 0.02 0.51 -0.86 0.01
1 1.21 121 -0.110 -8.864 4.554 4.364 -4.395 1.709 64.908 2133.560 -3992.949 -0.332 0.243 0.086 0.02 0.51 -0.86 0.01
1 1.22 122 -0.287 -8.825 4.549 5.554 -4.944 1.709 49.917 1923.547 -3977.958 -0.150 0.208 0.098 0.02 0.51 -0.86 0.01
1 1.23 123 -0.249 -8.892 4.736 5.890 -4.334 1.007 109.878 2058.609 -4142.851 -0.184 0.280 -0.081 0.02 0.51 -0.86 0.01
1 1.24 124 -0.283 -8.897 4.592 5.951 -3.967 0.702 109.878 2058.609 -4142.851 -0.146 0.289 0.071 0.02 0.51 -0.86 0.01
1 1.25 125 -0.259 -8.696 4.559 4.456 -3.143 0.183 94.888 2148.550 -4007.939 -0.165 0.092 0.113 0.02 0.51 -0.86 0.01
1 1.26 126 -0.283 -8.730 4.463 1.831 -4.211 0.244 124.869 2073.599 -4007.939 -0.132 0.132 0.222 0.02 0.51 -0.86 0.01
1 1.27 127 -0.283 -8.730 4.458 0.031 -3.967 0.153 64.908 2133.560 -3992.949 -0.127 0.133 0.228 0.02 0.51 -0.86 0.01
1 1.28 128 -0.206 -8.830 4.405 -0.488 -4.669 -0.336 64.908 2133.560 -3992.949 -0.198 0.233 0.281 0.02 0.51 -0.86 0.01
1 1.29 129 -0.254 -8.888 4.587 0.122 -5.096 0.000 214.960 2178.531 -3962.968 -0.144 0.289 0.098 0.02 0.51 -0.86 0.01
1 1.30 130 -0.110 -8.892 4.439 0.305 -6.165 -0.092 259.931 1833.605 -3917.848 -0.282 0.294 0.247 0.02 0.51 -0.86 0.01
1 1.31 131 -0.024 -8.763 4.372 -0.488 -6.500 -0.244 259.931 1833.605 -3917.848 -0.361 0.164 0.313 0.02 0.51 -0.86 0.01
1 1.32 132 0.029 -8.682 4.477 -0.946 -6.836 -0.397 124.869 1893.566 -4052.910 -0.405 0.083 0.208 0.02 0.51 -0.86 0.01
1 1.33 133 0.168 -8.629 4.468 -1.007 -6.989 0.244 124.869 1893.566 -4052.910 -0.535 0.029 0.217 0.01 0.51 -0.86 0.01
1 1.34 134 -0.053 -8.682 4.324 -1.099 -7.446 0.305 4.947 1938.537 -3962.968 -0.298 0.079 0.358 0.01 0.51 -0.86 0.01
1 1.35 135 0.144 -8.672 4.386 -1.404 -7.568 0.458 4.947 1938.537 -3962.968 -0.486 0.069 0.294 0.01 0.51 -0.86 0.01
1 1.36 136 -0.034 -8.744 4.434 -1.465 -7.629 1.129 124.869 2073.599 -4007.939 -0.299 0.139 0.244 0.01 0.51 -0.86 0.01
1 1.37 137 -0.072 -8.926 4.281 -0.549 -7.904 1.709 169.839 2073.599 -4007.939 -0.254 0.320 0.395 0.01 0.51 -0.86 0.01
1 1.38 138 0.019 -9.237 4.291 2.930 -9.003 2.411 169.839 2073.599 -4007.939 -0.339 0.630 0.385 0.01 0.51 -0.86 0.01
1 1.39 139 0.153 -9.007 4.348 6.256 -8.575 2.350 64.908 2058.609 -3992.949 -0.468 0.401 0.330 0.01 0.51 -0.86 0.01
1 1.40 140 0.182 -8.749 4.358 6.897 -6.928 2.594 34.927 2058.609 -4097.880 -0.483 0.150 0.334 0.01 0.51 -0.86 0.01
1 1.41 141 0.321 -8.730 4.286 6.683 -5.798 2.655 64.908 2013.638 -3962.968 -0.616 0.135 0.414 0.01 0.51 -0.86 0.01
1 1.42 142 0.388 -8.725 4.468 0.458 -2.319 2.533 64.908 2013.638 -3962.968 -0.679 0.133 0.236 0.01 0.51 -0.86 0.01
1 1.43 143 0.383 -8.744 4.382 -3.448 -1.648 3.296 214.960 2058.609 -3992.949 -0.669 0.151 0.321 0.01 0.51 -0.86 0.01
1 1.44 144 0.249 -9.074 4.362 -5.646 -2.960 5.188 -99.985 1968.667 -4052.910 -0.533 0.478 0.334 0.01 0.51 -0.86 0.01
1 1.45 145 -0.029 -9.352 4.468 -5.341 -3.265 5.371 -99.985 1968.667 -4052.910 -0.255 0.750 0.219 0.01 0.51 -0.86 0.01
1 1.46 146 -0.072 -9.563 4.511 -2.869 -4.211 6.805 4.947 1938.537 -4022.929 -0.213 0.956 0.167 0.01 0.51 -0.86 0.01
1 1.47 147 -0.306 -9.323 4.492 -1.007 -4.974 6.622 4.947 1938.537 -4022.929 0.018 0.714 0.181 0.01 0.51 -0.86 0.02
1 1.48 148 -0.359 -9.003 4.554 -0.031 -4.059 6.775 124.869 1923.547 -4127.861 0.062 0.390 0.112 0.01 0.51 -0.86 0.02
1 1.49 149 -0.445 -9.070 4.578 0.885 -3.174 5.676 124.869 1923.547 -4127.861 0.143 0.457 0.088 0.01 0.51 -0.86 0.02
1 1.50 150 -0.503 -9.127 4.674 1.526 -2.563 5.615 -40.024 1938.537 -3962.968 0.195 0.515 -0.007 0.01 0.51 -0.86 0.02
1 1.51 151 -0.536 -8.959 4.621 3.143 -2.075 6.439 19.937 1998.648 -4052.910 0.222 0.349 0.048 0.01 0.51 -0.86 0.02
1 1.52 152 -0.560 -8.849 4.851 4.700 -0.946 7.538 19.937 1998.648 -4052.910 0.238 0.242 -0.177 0.01 0.51 -0.86 0.02
1 1.53 153 -0.512 -8.615 4.932 5.402 1.129 9.766 94.888 2073.599 -4052.910 0.180 0.012 -0.251 0.01 0.51 -0.86 0.02
1 1.54 154 -0.488 -8.447 4.923 5.951 3.235 9.399 94.888 2073.599 -4052.910 0.143 -0.150 -0.231 0.01 0.51 -0.86 0.02
1 1.55 155 -0.498 -8.136 4.774 6.928 5.127 9.308 19.937 2073.599 -4007.939 0.137 -0.455 -0.072 0.01 0.51 -0.86 0.02
1 1.56 156 -0.584 -8.021 4.726 9.766 6.226 8.057 94.888 1968.667 -3977.958 0.193 -0.555 0.000 0.01 0.51 -0.86 0.02
1 1.57 157 -0.637 -7.930 4.698 11.932 6.500 6.073 214.960 1938.537 -3917.848 0.231 -0.637 0.045 0.01 0.51 -0.86 0.02
1 1.58 158 -0.704 -7.911 4.779 15.167 5.707 3.510 184.830 1908.557 -4022.929 0.287 -0.645 -0.017 0.01 0.51 -0.86 0.02
1 1.59 159 -0.804 -8.035 4.765 17.731 4.303 -0.153 184.830 1908.557 -4022.929 0.379 -0.506 0.021 0.01 0.51 -0.86 0.02
1 1.60 160 -1.159 -8.040 5.018 20.477 3.021 -5.341 124.869 1998.648 -4052.910 0.729 -0.486 -0.206 0.01 0.5 -0.86 0.02
1 1.61 161 -1.173 -8.256 5.018 21.637 4.456 -7.935 124.869 1998.648 -4052.910 0.743 -0.254 -0.176 0.01 0.5 -0.86 0.02
1 1.62 162 -1.207 -8.600 5.248 20.813 5.463 -9.247 169.839 2043.619 -4052.910 0.779 0.108 -0.375 0.02 0.5 -0.87 0.02
1 1.63 163 -0.939 -8.940 4.975 18.677 7.355 -8.942 -114.975 1863.586 -4067.900 0.516 0.481 -0.046 0.02 0.5 -0.87 0.02
1 1.64 164 -0.761 -9.141 4.904 15.991 10.468 -7.355 124.869 1893.566 -3932.838 0.340 0.696 0.049 0.02 0.5 -0.87 0.02
1 1.65 165 -0.508 -9.472 4.669 13.428 11.658 -3.448 94.888 1848.596 -4127.861 0.085 1.037 0.302 0.02 0.5 -0.87 0.01
1 1.66 166 -0.302 -9.596 4.463 12.146 13.794 -0.305 94.888 1848.596 -4127.861 -0.127 1.169 0.521 0.02 0.5 -0.87 0.01
1 1.67 167 -0.383 -9.568 4.291 12.177 13.886 4.028 214.960 1713.534 -4067.900 -0.056 1.147 0.703 0.02 0.49 -0.87 0.01
1 1.68 168 -0.522 -9.218 4.089 13.825 15.320 7.233 214.960 1713.534 -4067.900 0.068 0.804 0.914 0.02 0.49 -0.87 0.01
1 1.69 169 -0.771 -8.878 4.190 13.763 15.472 8.057 49.917 2043.619 -4157.841 0.298 0.471 0.824 0.02 0.49 -0.87 0.01
1 1.70 170 -1.053 -8.725 4.276 10.956 16.388 7.782 4.947 1713.534 -4142.851 0.535 0.333 0.759 0.02 0.49 -0.87 0.01
1 1.71 171 -1.446 -8.749 4.200 9.125 15.472 6.409 64.908 1863.586 -4172.832 0.903 0.364 0.844 0.03 0.49 -0.87 0.01
1 1.72 172 -1.547 -8.663 4.348 8.392 15.381 4.334 169.839 1803.625 -4082.890 0.979 0.283 0.701 0.03 0.49 -0.87 0.01
1 1.73 173 -1.724 -8.734 4.147 8.728 14.832 4.395 169.839 1803.625 -4082.890 1.131 0.360 0.908 0.03 0.49 -0.87 0.01
1 1.74 174 -1.891 -8.811 4.190 7.629 15.991 4.913 214.960 1833.605 -4097.880 1.274 0.441 0.870 0.03 0.49 -0.87 0.01
1 1.75 175 -2.078 -8.902 4.080 8.026 14.313 1.068 214.960 1833.605 -4097.880 1.434 0.536 0.983 0.03 0.49 -0.87 0.01
1 1.76 176 -2.342 -9.074 4.152 8.850 15.259 2.075 199.820 1998.648 -4082.890 1.674 0.712 0.914 0.03 0.49 -0.87 0.01
1 1.77 177 -2.485 -8.988 4.065 10.345 14.832 4.578 289.911 1833.605 -4067.900 1.795 0.629 1.004 0.03 0.49 -0.87 0.01
1 1.78 178 -2.299 -9.232 3.984 11.169 12.878 2.716 304.901 1803.625 -4157.841 1.559 0.884 1.095 0.04 0.49 -0.87 0.01
1 1.79 179 -2.093 -9.108 4.190 10.925 8.881 2.808 364.862 1833.605 -4067.900 1.328 0.765 0.894 0.04 0.49 -0.87 0.01
1 1.80 180 -2.126 -9.405 4.214 11.963 6.317 4.852 364.862 1833.605 -4067.900 1.342 1.068 0.877 0.04 0.49 -0.87 0.01
1 1.81 181 -1.786 -9.122 4.267 11.353 4.730 1.251 364.862 1713.534 -4142.851 0.982 0.791 0.831 0.04 0.49 -0.87 0.01
1 1.82 182 -1.743 -9.041 4.382 11.047 5.768 7.324 364.862 1713.534 -4142.851 0.925 0.716 0.724 0.04 0.49 -0.87 0.01
1 1.83 183 -1.379 -8.912 4.396 9.979 5.646 4.059 334.882 1683.553 -4142.851 0.542 0.593 0.716 0.04 0.49 -0.87 0.01
1 1.84 184 -1.322 -8.595 4.453 6.195 7.172 9.308 214.960 1758.654 -4097.880 0.449 0.287 0.669 0.04 0.49 -0.87 0.01
1 1.85 185 -1.389 -8.615 4.377 5.127 6.714 9.216 274.921 1698.543 -4157.841 0.496 0.309 0.748 0.05 0.49 -0.87 0.01
1 1.86 186 -1.183 -8.955 4.195 5.524 7.690 0.275 379.853 1893.566 -4187.972 0.276 0.651 0.931 0.05 0.49 -0.87 0.01
1 1.87 187 -1.700 -8.370 3.955 6.622 6.683 15.381 379.853 1893.566 -4187.972 0.778 0.070 1.172 0.05 0.49 -0.87 0.01
1 1.88 188 -1.398 -8.557 4.018 7.813 3.876 12.207 259.931 1788.635 -4142.851 0.449 0.261 1.111 0.05 0.49 -0.87 0.01
1 1.89 189 -1.499 -8.481 4.046 10.254 4.272 12.238 259.931 1788.635 -4142.851 0.527 0.190 1.088 0.05 0.49 -0.87 0.01
1 1.90 190 -1.595 -9.026 4.180 13.580 6.012 3.021 379.853 1728.674 -4127.861 0.603 0.743 0.961 0.05 0.48 -0.87 0.01
1 1.91 191 -2.519 -8.605 4.080 12.848 2.136 12.116 289.911 1713.534 -4142.851 1.523 0.329 1.073 0.05 0.48 -0.87 0.01
1 1.92 192 -2.131 -8.749 4.161 12.543 -0.366 6.226 229.950 1803.625 -4157.841 1.091 0.489 1.010 0.05 0.48 -0.87 0.02
1 1.93 193 -2.361 -8.888 4.372 12.329 -0.916 4.120 454.954 1638.583 -4142.851 1.307 0.636 0.809 0.05 0.48 -0.87 0.02
1 1.94 194 -2.600 -9.031 4.405 10.651 -1.862 -0.061 454.954 1638.583 -4142.851 1.535 0.787 0.785 0.05 0.48 -0.87 0.02
1 1.95 195 -2.682 -9.026 4.449 8.850 -3.143 -2.869 289.911 1593.612 -4142.851 1.609 0.788 0.749 0.05 0.48 -0.87 0.02
1 1.96 196 -2.801 -8.844 4.391 5.310 -5.188 -4.211 289.911 1593.612 -4142.851 1.725 0.609 0.811 0.05 0.48 -0.87 0.02
1 1.97 197 -3.122 -8.548 4.113 -0.885 -9.979 -2.625 334.882 1593.612 -4067.900 2.044 0.312 1.088 0.05 0.48 -0.87 0.02
1 1.98 198 -3.012 -8.581 4.089 -3.326 -13.916 -1.007 289.911 1563.631 -4142.851 1.931 0.343 1.107 0.05 0.48 -0.87 0.02
1 1.99 199 -2.701 -8.442 4.032 -1.099 -19.257 -0.214 394.843 1638.583 -4067.900 1.616 0.195 1.149 0.05 0.48 -0.87 0.02
1 2.00 200 -1.925 -7.418 3.840 4.028 -23.743 -9.216 259.931 1713.534 -4097.880 0.845 -0.832 1.338 0.05 0.48 -0.87 0.02
1 2.01 201 -2.490 -9.156 4.085 12.299 -21.057 -5.066 259.931 1713.534 -4097.880 1.440 0.908 1.103 0.05 0.48 -0.87 0.02
1 2.02 202 -2.514 -8.495 4.315 11.169 -23.285 -1.282 304.901 1623.592 -4007.939 1.474 0.253 0.885 0.05 0.48 -0.87 0.02
1 2.03 203 -2.045 -8.672 4.511 13.733 -23.010 -0.916 304.901 1623.592 -4007.939 1.014 0.437 0.701 0.05 0.48 -0.87 0.02
1 2.04 204 -2.021 -8.931 5.263 16.205 -22.247 2.838 334.882 1638.583 -4097.880 1.001 0.705 -0.034 0.05 0.48 -0.88 0.02
1 2.05 205 -1.212 -8.801 6.517 19.836 -20.081 -10.193 169.839 1698.543 -4127.861 0.199 0.588 -1.269 0.05 0.48 -0.88 0.02
1 2.06 206 -1.528 -8.677 6.886 13.763 -13.550 6.897 169.839 1698.543 -4127.861 0.536 0.478 -1.609 0.04 0.48 -0.88 0.02
1 2.07 207 -0.374 -8.528 7.063 2.502 -11.383 8.209 259.931 1638.583 -3992.949 -0.609 0.344 -1.763 0.04 0.48 -0.88 0.02
1 2.08 208 0.876 -9.908 6.129 -10.040 -3.357 23.621 35.077 1516.262 -4070.598 -1.867 1.729 -0.822 0.04 0.48 -0.88 0.03
1 2.09 209 1.446 -12.062 5.574 -6.683 0.977 24.567 215.110 1516.262 -4070.598 -2.464 3.880 -0.278 0.04 0.48 -0.88 0.03
1 2.10 210 1.307 -12.958 5.291 12.512 8.179 23.590 215.110 1516.262 -4070.598 -2.358 4.777 0.002 0.04 0.48 -0.88 0.03
1 2.11 211 0.316 -13.054 5.622 32.990 11.505 19.409 260.081 1486.282 -4100.579 -1.401 4.892 -0.306 0.05 0.48 -0.88 0.03
1 2.12 212 -1.341 -11.330 5.631 39.124 17.731 13.245 200.120 1576.223 -4160.540 0.220 3.202 -0.272 0.05 0.47 -0.88 0.03
1 2.13 213 -2.164 -9.898 5.813 26.337 18.219 8.240 200.120 1576.223 -4160.540 1.010 1.807 -0.406 0.05 0.47 -0.88 0.03
1 2.14 214 -3.261 -9.117 5.459 -9.033 6.866 -1.434 260.081 1636.334 -4100.579 2.064 1.063 -0.006 0.05 0.47 -0.88 0.03
1 2.15 215 -3.366 -8.663 4.947 -26.947 -1.831 -9.583 260.081 1636.334 -4100.579 2.171 0.596 0.489 0.05 0.47 -0.88 0.03
1 2.16 216 -3.639 -7.911 4.458 -36.835 -10.712 -14.191 440.113 1426.321 -4235.641 2.446 -0.183 0.937 0.05 0.47 -0.88 0.03
1 2.17 217 -3.793 -7.293 4.166 -44.342 -20.264 -17.761 440.113 1426.920 -4234.741 2.611 -0.836 1.179 0.05 0.47 -0.88 0.03
1 2.18 218 -3.419 -6.867 4.300 -47.119 -25.421 -19.440 110.028 1591.963 -4069.849 2.260 -1.302 0.988 0.05 0.48 -0.88 0.03
1 2.19 219 -2.571 -6.718 4.707 -44.006 -24.750 -19.226 335.032 1682.054 -3964.767 1.449 -1.490 0.527 0.05 0.48 -0.88 0.03
1 2.20 220 -1.786 -6.790 5.454 -38.483 -20.447 -18.066 335.032 1682.054 -3964.767 0.710 -1.457 -0.271 0.04 0.48 -0.87 0.03
1 2.21 221 -0.713 -6.805 6.168 -27.344 -7.660 -15.503 110.028 1712.035 -4024.878 -0.292 -1.499 -1.061 0.04 0.49 -0.87 0.03
1 2.22 222 -0.057 -6.862 6.364 -20.630 1.251 -14.374 110.028 1712.035 -4024.878 -0.924 -1.457 -1.277 0.04 0.49 -0.87 0.03
1 2.23 223 0.642 -7.250 6.278 -10.437 8.270 -14.038 110.028 1561.982 -3919.796 -1.601 -1.078 -1.201 0.04 0.49 -0.87 0.03
1 2.24 224 1.135 -7.556 6.105 2.350 14.679 -12.207 110.028 1561.982 -3919.796 -2.074 -0.772 -1.027 0.04 0.49 -0.87 0.03
1 2.25 225 1.786 -7.805 5.622 17.487 17.456 -10.468 20.237 1575.024 -4056.957 -2.706 -0.516 -0.527 0.04 0.49 -0.87 0.03
1 2.26 226 2.476 -7.317 5.363 32.166 15.808 0.092 110.178 1680.105 -4026.977 -3.380 -0.986 -0.237 0.04 0.49 -0.87 0.03
1 2.27 227 2.433 -7.437 5.603 25.086 5.707 7.660 110.178 1680.105 -4026.977 -3.327 -0.841 -0.433 0.04 0.48 -0.87 0.02
1 2.28 228 2.203 -6.450 5.497 -2.716 -4.974 22.308 5.247 1635.135 -4071.947 -3.084 -1.789 -0.265 0.04 0.48 -0.88 0.02
1 2.29 229 2.327 -6.330 5.703 -10.498 -10.223 18.768 5.247 1635.135 -4071.947 -3.216 -1.909 -0.473 0.04 0.48 -0.88 0.03
1 2.30 230 1.863 -6.273 5.751 -34.180 -11.932 20.294 110.178 1710.086 -4102.078 -2.742 -1.977 -0.536 0.04 0.48 -0.87 0.03
1 2.31 231 1.279 -6.450 5.459 -47.394 -14.160 10.376 110.178 1710.086 -4102.078 -2.160 -1.825 -0.284 0.04 0.48 -0.87 0.03
1 2.32 232 0.488 -7.039 5.210 -56.946 -9.003 3.845 125.168 1695.096 -4086.938 -1.369 -1.274 -0.095 0.03 0.49 -0.87 0.03
1 2.33 233 -0.215 -7.461 4.506 -60.181 -2.899 -3.601 125.168 1725.076 -4132.058 -0.662 -0.897 0.536 0.03 0.49 -0.87 0.03
1 2.34 234 -0.618 -9.510 3.994 -42.053 4.944 -25.055 125.168 1725.076 -4132.058 -0.247 1.107 0.974 0.03 0.5 -0.87 0.03
1 2.35 235 -0.939 -9.764 3.692 -24.201 12.665 -23.926 170.289 1695.096 -3877.074 0.105 1.321 1.213 0.03 0.5 -0.87 0.03
1 2.36 236 -1.379 -10.415 3.907 -1.526 12.878 -26.306 260.230 1785.037 -3967.016 0.598 1.925 0.925 0.03 0.5 -0.86 0.02
1 2.37 237 -1.413 -9.769 4.075 5.432 7.690 -23.712 185.279 1830.158 -4071.947 0.657 1.277 0.759 0.03 0.5 -0.86 0.02
1 2.38 238 -1.154 -9.424 4.626 3.082 -0.610 -26.062 185.279 1830.158 -4071.947 0.424 0.932 0.212 0.03 0.5 -0.86 0.02
1 2.39 239 -0.704 -8.873 5.100 -6.775 -5.066 -24.536 95.188 1800.027 -4011.986 0.007 0.377 -0.265 0.03 0.5 -0.86 0.02
1 2.40 240 -0.134 -8.744 5.325 -20.264 -8.759 -29.541 170.289 1620.145 -3982.006 -0.524 0.238 -0.502 0.03 0.5 -0.86 0.02
1 2.41 241 0.464 -8.624 5.229 -33.753 -13.336 -27.130 170.289 1620.145 -3982.006 -1.073 0.100 -0.432 0.03 0.5 -0.86 0.02
1 2.42 242 0.752 -8.442 5.085 -34.882 -17.822 -29.663 185.279 1905.109 -3922.045 -1.307 -0.106 -0.325 0.02 0.51 -0.86 0.01
1 2.43 243 1.274 -8.040 4.492 -26.398 -21.851 -27.802 50.217 1845.148 -3801.973 -1.709 -0.556 0.193 0.02 0.51 -0.86 0.01
1 2.44 244 1.508 -7.499 4.204 -17.212 -23.285 -23.712 65.208 1860.138 -3922.045 -1.881 -1.115 0.453 0.02 0.51 -0.86 0.01
1 2.45 245 1.896 -7.279 3.965 -6.348 -22.430 -26.123 65.208 1860.138 -3922.045 -2.213 -1.346 0.677 0.01 0.51 -0.86 0.01
1 2.46 246 1.820 -7.374 3.879 2.869 -17.181 -23.285 -24.584 1995.500 -4011.537 -2.085 -1.254 0.761 0.01 0.51 -0.86 0.01
1 2.47 247 1.781 -7.255 4.013 11.963 -10.071 -22.186 -144.656 1860.438 -3891.465 -2.005 -1.370 0.636 0.01 0.51 -0.86 0.01
1 2.48 248 1.461 -7.389 4.085 17.090 -4.150 -14.679 -144.656 1860.438 -3891.465 -1.649 -1.226 0.583 0.01 0.51 -0.86 0.01
1 2.49 249 1.259 -7.681 4.094 14.710 0.122 -13.397 -129.666 1890.418 -3876.475 -1.422 -0.922 0.597 0.01 0.51 -0.86 0.01
1 2.50 250 1.575 -7.647 4.224 6.195 3.662 -10.925 20.237 1890.418 -3906.455 -1.717 -0.943 0.490 0.01 0.51 -0.86 0.01
1 2.51 251 1.719 -8.179 4.233 -7.904 9.674 -4.486 -54.564 1770.497 -3876.475 -1.829 -0.405 0.494 0 0.51 -0.86 0
1 2.52 252 1.748 -8.686 3.994 -15.991 13.153 2.441 -54.564 1770.497 -3876.475 -1.846 0.095 0.720 0 0.51 -0.86 0
1 2.53 253 1.738 -8.634 3.797 -20.325 14.801 8.057 -69.555 1905.409 -3786.533 -1.837 0.029 0.892 0.01 0.51 -0.86 0
1 2.54 254 1.820 -9.170 3.855 -24.780 14.343 8.606 -189.626 1755.356 -3786.533 -1.924 0.548 0.802 0.01 0.51 -0.86 0
1 2.55 255 1.633 -9.151 3.692 -24.689 14.526 13.458 -189.626 1755.356 -3786.533 -1.745 0.509 0.927 0.01 0.51 -0.86 0
1 2.56 256 1.556 -9.228 3.807 -20.264 12.146 14.587 -69.555 1905.409 -3921.445 -1.682 0.565 0.775 0.01 0.52 -0.86 0
1 2.57 257 1.288 -9.218 3.807 -17.090 13.580 21.729 35.227 1980.360 -3996.546 -1.428 0.539 0.742 0.01 0.52 -0.86 0
1 2.58 258 1.207 -9.256 4.233 -19.257 8.698 10.529 65.208 1980.360 -3966.566 -1.383 0.549 0.261 0.01 0.52 -0.85 0
1 2.59 259 1.140 -9.328 4.204 -24.719 12.116 9.155 65.208 1980.360 -3966.566 -1.324 0.606 0.260 0.01 0.52 -0.85 0
1 2.60 260 0.488 -9.438 3.960 -26.978 14.984 6.836 35.227 1905.409 -3711.582 -0.682 0.698 0.468 0.01 0.52 -0.85 0
1 2.61 261 0.206 -9.912 3.793 -24.872 18.372 4.730 -69.555 1980.360 -3816.514 -0.412 1.153 0.596 0.01 0.53 -0.85 0
1 2.62 262 0.120 -10.592 3.654 -18.066 23.285 2.411 -69.555 1980.360 -3816.514 -0.339 1.814 0.698 0.01 0.53 -0.85 0
1 2.63 263 -0.120 -11.100 3.180 9.033 34.210 7.813 35.227 1785.487 -3786.533 -0.119 2.313 1.153 -0.01 -0.53 0.85 0
1 2.64 264 -0.120 -11.464 3.438 22.675 35.187 4.059 140.309 1830.458 -3666.461 -0.147 2.679 0.897 -0.02 -0.53 0.85 0
1 2.65 265 -0.426 -10.947 3.381 30.060 36.163 6.073 95.188 1965.370 -3876.475 0.102 2.196 1.020 -0.02 -0.52 0.85 0
1 2.66 266 -0.551 -10.554 3.357 32.471 35.767 7.843 95.188 1965.370 -3876.475 0.194 1.826 1.085 -0.02 -0.52 0.85 0.01
1 2.67 267 -0.508 -10.267 3.654 25.024 26.306 5.615 65.208 1935.389 -3711.582 0.114 1.564 0.835 -0.03 -0.52 0.85 0.01
1 2.68 268 -0.350 -9.936 3.419 13.641 23.468 7.507 110.178 1905.409 -3741.562 -0.069 1.246 1.092 -0.03 -0.52 0.85 0.01
1 2.69 269 -0.024 -9.831 3.572 -5.829 13.123 -2.502 110.178 1905.409 -3741.562 -0.414 1.146 0.946 -0.03 -0.52 0.85 0.01
1 2.70 270 0.393 -10.468 3.060 -17.578 7.233 -8.759 215.260 1830.458 -3741.562 -0.833 1.772 1.438 -0.03 -0.52 0.85 0.01
1 2.71 271 0.646 -11.066 3.433 -12.329 7.019 -11.444 20.237 1920.399 -3831.504 -1.078 2.353 1.032 -0.03 -0.52 0.85 0.01
1 2.72 272 0.536 -11.191 5.291 10.254 6.195 -20.599 260.230 2055.461 -3786.533 -0.935 2.468 -0.844 -0.03 -0.52 0.85 0.01
1 2.73 273 0.244 -10.674 5.679 16.968 8.087 -21.332 260.230 2055.461 -3786.533 -0.619 1.959 -1.212 -0.03 -0.52 0.85 0.01
1 2.74 274 -1.188 -9.802 5.794 21.668 12.085 -35.034 140.309 1935.389 -3666.461 0.846 1.102 -1.297 -0.03 -0.52 0.85 0.02
1 2.75 275 -2.097 -10.995 5.923 9.064 15.198 -39.551 95.188 1920.399 -3726.572 1.798 2.306 -1.400 -0.03 -0.52 0.85 0.02
1 2.76 276 -2.662 -12.441 5.627 -17.059 17.639 -32.623 95.188 1920.399 -3726.572 2.404 3.754 -1.098 -0.03 -0.52 0.85 0.02
1 2.77 277 -2.969 -12.924 5.282 -40.558 16.968 -20.172 95.188 1845.448 -3756.553 2.739 4.220 -0.784 -0.03 -0.52 0.85 0.02
1 2.78 278 -2.380 -12.000 4.200 -39.368 1.526 -4.242 230.250 1845.448 -3801.523 2.164 3.267 0.241 -0.03 -0.52 0.85 0.03
1 2.79 279 -1.868 -10.961 3.764 -20.660 -17.944 5.920 230.250 1845.448 -3801.523 1.658 2.199 0.622 -0.03 -0.52 0.85 0.03
1 2.80 280 -0.522 -8.610 4.300 6.958 -42.328 9.399 95.188 1890.418 -3756.553 0.330 -0.170 0.049 -0.03 -0.53 0.85 0.02
1 2.81 281 0.594 -7.116 4.832 10.010 -47.302 7.629 170.289 1920.399 -3801.523 -0.772 -1.658 -0.470 -0.02 -0.53 0.85 0.02
1 2.82 282 1.513 -5.799 4.985 10.864 -41.168 6.958 95.188 2040.471 -3831.504 -1.669 -2.966 -0.604 -0.02 -0.53 0.85 0.02
1 2.83 283 2.136 -5.205 5.052 13.306 -28.687 9.644 95.188 2040.471 -3831.504 -2.274 -3.551 -0.654 -0.02 -0.52 0.85 0.02
1 2.84 284 2.155 -4.592 4.875 17.090 -17.639 16.510 -54.564 1920.399 -3651.471 -2.290 -4.154 -0.456 -0.02 -0.52 0.85 0.02
1 2.85 285 1.484 -3.726 4.540 30.884 -5.402 26.215 -69.555 1905.409 -3741.562 -1.633 -5.007 -0.093 -0.02 -0.52 0.85 0.01
1 2.86 286 0.991 -3.256 4.841 36.774 -6.165 15.686 -69.555 1905.409 -3741.562 -1.167 -5.455 -0.355 -0.02 -0.52 0.85 0.01
1 2.87 287 0.038 -3.826 6.580 40.161 1.831 2.319 -69.555 1905.409 -3786.533 -0.239 -4.832 -1.993 -0.02 -0.52 0.86 0.01
1 2.88 288 -0.599 -4.415 7.121 36.835 2.930 -14.648 -69.555 1860.438 -3636.481 0.399 -4.214 -2.479 -0.02 -0.51 0.86 0.01
1 2.89 289 -1.393 -5.775 7.930 23.590 0.488 -24.750 -99.685 1890.418 -3756.553 1.217 -2.830 -3.243 -0.02 -0.51 0.86 0.01
1 2.90 290 -2.284 -7.437 8.275 16.144 -0.031 -26.520 -99.685 1890.418 -3756.553 2.133 -1.137 -3.530 -0.02 -0.51 0.86 0.01
1 2.91 291 -3.137 -9.568 8.509 17.944 1.678 -31.769 95.188 1920.399 -3651.471 3.014 1.014 -3.729 -0.01 -0.51 0.86 0.01
1 2.92 292 -4.238 -12.833 6.963 16.815 13.794 -33.600 20.237 1920.399 -3756.553 4.158 4.294 -2.156 -0.01 -0.5 0.86 0.02
1 2.93 293 -4.281 -13.111 4.386 9.613 16.846 -38.391 20.237 1920.399 -3756.553 4.238 4.586 0.446 -0.01 -0.5 0.86 0.02
1 2.94 294 -3.984 -11.780 1.906 5.066 12.543 -27.771 -54.564 1800.477 -3756.553 3.977 3.263 2.943 -0.01 -0.5 0.86 0.02
1 2.95 295 -2.595 -9.223 1.824 -3.754 -15.076 -0.366 110.178 1710.386 -3711.582 2.639 0.714 3.037 -0.01 -0.5 0.86 0.03
1 2.96 296 -1.317 -8.792 3.117 -9.827 -27.588 10.651 -54.564 1725.376 -3756.553 1.350 0.267 1.716 -0.01 -0.5 0.86 0.02
1 2.97 297 -0.804 -8.409 4.669 -17.609 -30.701 25.665 -54.564 1725.376 -3756.553 0.829 -0.131 0.138 -0.01 -0.5 0.86 0.02
1 2.98 298 -0.670 -7.829 5.689 -28.229 -24.048 35.462 110.178 1755.356 -3666.461 0.674 -0.726 -0.909 -0.01 -0.51 0.86 0.02
1 2.99 299 -0.532 -7.657 6.297 -34.332 -8.362 38.788 -144.656 1635.435 -3711.582 0.498 -0.916 -1.549 -0.01 -0.51 0.86 0.01
1 3.00 300 -0.369 -6.977 5.809 -41.504 4.822 39.154 -144.656 1635.435 -3711.582 0.285 -1.615 -1.096 -0.01 -0.51 0.86 0.01
1 3.01 301 -0.172 -7.121 5.196 -41.077 7.721 37.384 -189.626 1785.487 -3666.461 0.033 -1.492 -0.523 -0.01 -0.51 0.86 0.01
1 3.02 302 -0.306 -7.585 3.615 -26.764 5.096 33.753 -174.636 1800.477 -3621.491 0.060 -1.073 0.968 -0.02 -0.52 0.86 0
1 3.03 303 -0.699 -8.246 2.921 -10.132 -1.312 33.478 -99.685 1965.370 -3621.491 0.407 -0.426 1.634 -0.02 -0.52 0.86 0
1 3.04 304 -0.685 -8.351 2.897 7.813 -11.780 26.917 -99.685 1965.370 -3621.491 0.354 -0.323 1.652 0.02 0.52 -0.86 0
1 3.05 305 -0.919 -8.998 3.405 30.518 -22.064 21.576 -24.584 1890.418 -3681.452 0.564 0.333 1.159 0.02 0.52 -0.86 0
1 3.06 306 -1.360 -8.835 3.869 49.072 -31.403 16.632 -114.675 1830.458 -3741.562 0.991 0.192 0.736 0.02 0.51 -0.86 0.01
1 3.07 307 -2.112 -8.825 5.153 59.784 -35.767 6.592 -114.675 1830.458 -3741.562 1.741 0.219 -0.481 0.02 0.51 -0.86 0.01
1 3.08 308 -2.787 -8.375 5.320 51.331 -31.891 5.035 -129.666 1845.448 -3756.553 2.424 -0.188 -0.569 0.02 0.51 -0.86 0.01
1 3.09 309 -3.510 -8.059 5.114 24.078 -27.557 3.754 -129.666 1890.418 -3726.572 3.149 -0.430 -0.231 0.01 0.5 -0.87 0.01
1 3.10 310 -3.673 -8.212 4.726 13.794 -27.618 2.045 -99.685 1650.425 -3546.540 3.307 -0.259 0.187 0.01 0.5 -0.87 0.02
1 3.11 311 -3.639 -8.265 3.381 -7.965 -34.302 11.292 -99.685 1650.425 -3546.540 3.258 -0.205 1.535 0.01 0.5 -0.87 0.02
1 3.12 312 -3.678 -8.969 2.921 -8.728 -38.086 14.557 -144.656 1755.356 -3741.562 3.284 0.491 1.979 0.01 0.5 -0.87 0.02
1 3.13 313 -3.299 -8.768 2.480 -1.312 -41.718 17.304 -204.617 1725.376 -3621.491 2.890 0.281 2.402 0.01 0.5 -0.87 0.02
1 3.14 314 -2.629 -8.988 2.615 7.935 -45.838 16.144 -204.617 1725.376 -3621.491 2.207 0.496 2.258 0.01 0.5 -0.86 0.03
1 3.15 315 -2.480 -9.180 2.619 6.958 -48.309 16.937 -219.607 1590.464 -3636.481 2.053 0.686 2.250 0.01 0.5 -0.86 0.03
1 3.16 316 -2.016 -9.438 2.844 3.296 -53.192 15.625 -204.617 1575.474 -3726.572 1.590 0.942 2.021 0 0.5 -0.86 0.04
1 3.17 317 -1.848 -9.596 2.993 2.960 -55.145 14.526 -144.656 1635.435 -3741.562 1.431 1.096 1.867 0 0.5 -0.86 0.04
1 3.18 318 -1.307 -10.161 3.381 5.859 -59.174 13.397 -144.656 1635.435 -3741.562 0.904 1.658 1.474 -0 0.5 -0.86 0.05
1 3.19 319 -0.670 -10.401 3.793 10.345 -58.960 13.214 -369.659 1755.356 -3741.562 0.291 1.900 1.069 -0.01 0.5 -0.86 0.05
1 3.20 320 -0.014 -10.463 3.989 13.489 -56.549 13.702 -279.568 1695.396 -3621.491 -0.338 1.973 0.892 -0.01 0.5 -0.86 0.05
1 3.21 321 1.092 -10.061 4.133 16.571 -49.469 15.808 -279.568 1695.396 -3621.491 -1.420 1.583 0.772 -0.01 0.5 -0.86 0.06
1 3.22 322 1.484 -9.769 4.161 14.191 -43.518 16.205 -429.620 1800.477 -3651.471 -1.794 1.305 0.769 -0.02 0.5 -0.86 0.06
1 3.23 323 1.848 -9.515 3.869 11.963 -36.072 13.519 -429.620 1800.477 -3651.471 -2.144 1.064 1.084 -0.02 0.5 -0.87 0.06
1 3.24 324 1.762 -10.085 3.955 15.533 -21.698 7.416 -549.542 1635.435 -3786.533 -2.006 1.643 1.015 -0.02 0.5 -0.87 0.07
1 3.25 325 1.168 -10.554 6.670 32.288 -10.498 10.407 -549.542 1635.435 -3786.533 -1.397 2.124 -1.678 -0.02 0.49 -0.87 0.07
1 3.26 326 1.279 -9.127 8.165 33.539 1.648 17.273 -504.571 1725.376 -3576.520 -1.518 0.725 -3.126 -0.02 0.49 -0.87 0.07
1 3.27 327 3.390 -7.834 8.447 28.595 3.021 27.985 -519.562 1710.386 -3561.530 -3.655 -0.541 -3.366 -0.02 0.49 -0.87 0.07
1 3.28 328 5.392 -7.604 9.280 17.242 0.732 33.386 -519.562 1710.386 -3561.530 -5.701 -0.748 -4.164 -0.02 0.49 -0.87 0.07
1 3.29 329 5.138 -13.465 9.548 -4.974 12.451 41.016 -429.620 1470.392 -3576.520 -5.498 5.127 -4.412 -0.02 0.49 -0.87 0.07
1 3.30 330 5.287 -14.452 9.218 -6.378 30.579 35.645 -429.620 1470.392 -3576.520 -5.709 6.116 -4.083 -0.02 0.49 -0.87 0.08
1 3.31 331 3.208 -12.517 7.408 -15.106 58.869 34.271 -459.601 1725.376 -3681.452 -3.783 4.178 -2.293 -0.01 0.49 -0.87 0.08
1 3.32 332 0.852 -10.860 6.867 -24.078 75.196 26.276 -459.601 1725.376 -3681.452 -1.517 2.511 -1.780 -0.01 0.49 -0.87 0.08
1 3.33 333 -1.719 -9.127 6.752 -38.544 85.144 11.566 -459.601 1620.444 -3726.572 0.965 0.760 -1.706 -0 0.49 -0.87 0.08
1 3.34 334 -3.481 -6.987 6.081 -65.064 84.931 -6.470 -339.679 1485.382 -3666.461 2.653 -1.414 -1.103 0.01 0.5 -0.87 0.08
1 3.35 335 -4.434 -6.062 4.568 -87.281 76.142 -16.419 -339.679 1485.382 -3666.461 3.539 -2.385 0.318 0.01 0.5 -0.86 0.07
1 3.36 336 -5.071 -5.430 2.773 -87.830 30.457 -22.797 -99.685 1725.376 -3621.491 4.135 -3.082 1.992 0.01 0.51 -0.86 0.07
1 3.37 337 -4.654 -5.105 2.926 -62.317 7.538 -26.764 -99.685 1725.376 -3621.491 3.720 -3.476 1.715 0.02 0.51 -0.86 0.07
1 3.38 338 -4.171 -4.324 3.457 -34.210 -3.937 -26.825 -219.607 1710.386 -3666.461 3.263 -4.308 1.092 0.01 0.52 -0.85 0.07
1 3.39 339 -3.299 -4.161 5.057 -15.015 -4.913 -18.372 -114.675 1860.438 -3561.530 2.469 -4.520 -0.587 0.01 0.52 -0.85 0.06
1 3.40 340 -2.682 -4.396 6.216 -15.259 5.676 -8.698 -279.568 1770.497 -3546.540 1.874 -4.297 -1.764 0.01 0.52 -0.85 0.06
1 3.41 341 -1.834 -4.808 7.236 -18.951 11.169 -0.092 -309.548 1920.399 -3471.588 1.032 -3.897 -2.805 0.01 0.52 -0.85 0.06
1 3.42 342 -1.317 -5.928 8.270 -21.576 22.156 14.465 -309.548 1920.399 -3471.588 0.500 -2.781 -3.852 0.01 0.52 -0.85 0.06
1 3.43 343 -0.565 -7.001 8.663 -18.127 23.010 21.454 -189.626 1830.458 -3531.549 -0.296 -1.704 -4.244 0.01 0.52 -0.85 0.06
1 3.44 344 1.221 -10.080 8.730 5.524 12.421 28.076 -189.626 1830.458 -3531.549 -2.125 1.377 -4.316 0.02 0.52 -0.85 0.06
1 3.45 345 2.600 -12.024 7.374 26.611 -0.671 40.589 -309.548 1800.477 -3621.491 -3.547 3.326 -2.960 0.02 0.52 -0.85 0.06
1 3.46 346 4.396 -13.130 4.032 33.997 -20.081 49.774 -189.626 2055.461 -3456.448 -5.445 4.484 0.459 0.02 0.52 -0.85 0.07
1 3.47 347 5.138 -11.109 2.174 28.687 -12.665 40.436 -114.675 1860.438 -3411.478 -6.237 2.494 2.365 0.02 0.52 -0.85 0.07
1 3.48 348 4.760 -8.337 2.279 27.557 13.397 17.151 -129.666 1800.477 -3396.487 -5.900 -0.252 2.300 0.02 0.52 -0.85 0.08
1 3.49 349 3.524 -5.598 3.611 11.810 35.278 -10.529 -129.666 1800.477 -3396.487 -4.668 -2.977 0.994 0.02 0.51 -0.85 0.08
1 3.50 350 1.891 -4.386 4.913 -21.027 47.943 -32.715 -144.656 1830.458 -3486.579 -3.041 -4.187 -0.307 0.02 0.51 -0.85 0.07
1 3.51 351 -0.024 -4.683 5.320 -71.198 36.316 -54.657 -144.656 1830.458 -3486.579 -1.109 -3.918 -0.761 0.03 0.52 -0.85 0.07
1 3.52 352 -0.579 -5.660 5.129 -88.959 13.672 -61.066 -234.597 1845.448 -3546.540 -0.511 -2.993 -0.660 0.03 0.52 -0.85 0.07
1 3.53 353 -0.857 -7.303 4.224 -93.109 -2.930 -57.404 -144.656 1935.389 -3411.478 -0.085 -1.489 0.003 0.02 0.53 -0.84 0.06
1 3.54 354 -1.216 -7.877 3.726 -86.334 -3.479 -52.399 -54.564 1800.477 -3546.540 0.352 -0.979 0.381 0.02 0.54 -0.84 0.05
1 3.55 355 -1.360 -8.931 2.212 -39.673 3.632 -43.366 -144.656 1905.409 -3456.448 0.562 0.028 1.806 0.01 0.54 -0.84 0.05
1 3.56 356 -1.422 -8.773 1.978 -4.059 13.672 -32.654 -144.656 1905.409 -3456.448 0.672 -0.157 1.990 0.01 0.55 -0.84 0.05
1 3.57 357 -1.326 -8.629 2.504 18.372 23.621 -31.921 -24.584 2070.451 -3396.487 0.606 -0.307 1.455 0.01 0.55 -0.84 0.05
1 3.58 358 -1.614 -8.864 3.625 26.856 37.140 -21.576 -24.584 2070.451 -3396.487 0.915 -0.066 0.351 0.01 0.54 -0.84 0.04
1 3.59 359 -1.044 -8.600 4.415 27.161 32.440 -18.402 35.227 2130.412 -3486.579 0.352 -0.318 -0.411 0.02 0.54 -0.84 0.04
1 3.60 360 0.254 -8.811 5.809 15.900 21.301 -12.482 -99.685 1965.370 -3246.585 -0.941 -0.076 -1.736 0.02 0.54 -0.84 0.04
1 3.61 361 1.164 -9.716 6.216 3.326 15.442 -10.834 -264.578 2055.461 -3456.448 -1.836 0.840 -2.116 0.02 0.54 -0.84 0.03
1 3.62 362 2.217 -9.146 5.698 1.648 9.460 -3.693 -174.636 2115.422 -3546.540 -2.890 0.272 -1.595 0.02 0.54 -0.84 0.03
1 3.63 363 3.323 -9.137 5.354 -7.721 3.632 -7.324 -174.636 2115.422 -3546.540 -3.990 0.262 -1.250 0.02 0.54 -0.84 0.03
1 3.64 364 3.773 -8.366 4.405 -14.160 7.141 -4.730 -189.626 1980.360 -3561.530 -4.434 -0.514 -0.313 0.02 0.54 -0.84 0.03
1 3.65 365 3.912 -8.131 3.505 -15.656 12.939 -5.066 -189.626 1980.360 -3561.530 -4.536 -0.758 0.573 0.02 0.54 -0.84 0.03
1 3.66 366 3.955 -7.748 2.595 -11.810 26.184 -3.601 -189.626 2010.490 -3561.530 -4.548 -1.153 1.463 0.02 0.54 -0.84 0.03
1 3.67 367 3.596 -7.772 2.227 -11.475 36.499 -5.005 -234.597 1995.500 -3441.458 -4.163 -1.139 1.812 0.02 0.54 -0.84 0.03
1 3.68 368 2.758 -8.107 1.738 -12.360 50.598 -4.364 -69.555 1980.360 -3381.497 -3.310 -0.825 2.255 0.02 0.54 -0.84 0.02
1 3.69 369 2.040 -8.485 1.528 -11.536 57.251 -0.397 35.227 1860.438 -3561.530 -2.618 -0.454 2.446 0.02 0.54 -0.84 0.02
1 3.70 370 1.259 -8.873 1.686 -6.714 62.042 4.364 35.227 1860.438 -3561.530 -1.852 -0.079 2.257 0.02 0.55 -0.84 0.02
1 3.71 371 0.273 -9.199 1.915 -0.793 65.979 6.775 -24.584 1920.399 -3471.588 -0.894 0.237 2.001 0.03 0.55 -0.84 0.02
1 3.72 372 -0.455 -9.438 2.605 1.373 68.268 6.439 -24.584 1920.399 -3471.588 -0.206 0.471 1.293 0.03 0.55 -0.84 0.01
1 3.73 373 -1.705 -9.663 3.591 -1.953 67.505 1.831 -69.555 2055.461 -3486.579 0.999 0.694 0.293 0.04 0.55 -0.84 0.01
1 3.74 374 -2.399 -10.415 4.243 -6.287 65.003 -2.716 140.309 1980.360 -3381.497 1.647 1.443 -0.372 0.04 0.55 -0.84 0.01
1 3.75 375 -2.595 -11.698 4.487 -10.986 56.305 -5.676 185.279 1935.389 -3381.497 1.776 2.718 -0.651 0.05 0.55 -0.83 0
1 3.76 376 -2.495 -12.350 4.027 -6.928 48.065 -3.815 200.270 2040.471 -3501.569 1.653 3.362 -0.211 0.05 0.55 -0.83 0
1 3.77 377 -2.241 -12.532 3.673 4.211 39.795 -2.838 200.270 2040.471 -3501.569 1.378 3.542 0.132 -0.05 -0.55 0.83 0
1 3.78 378 -1.968 -12.144 3.160 17.426 32.745 -1.587 95.188 1995.500 -3441.458 1.087 3.159 0.652 -0.06 -0.55 0.83 0
1 3.79 379 -1.666 -11.263 2.959 27.710 31.189 -0.885 95.188 1995.500 -3441.458 0.770 2.290 0.878 -0.06 -0.55 0.83 0
1 3.80 380 -1.700 -10.037 2.131 32.501 25.147 0.244 200.270 2145.402 -3441.458 0.787 1.081 1.743 -0.06 -0.55 0.84 0.01
1 3.81 381 -1.240 -10.056 1.619 27.496 19.775 0.397 200.270 1995.500 -3396.487 0.313 1.120 2.297 -0.06 -0.54 0.84 0.01
1 3.82 382 -0.694 -10.501 1.135 21.484 16.022 0.366 200.270 1995.500 -3396.487 -0.249 1.577 2.804 -0.06 -0.54 0.84 0.01
1 3.83 383 -0.120 -11.358 1.829 24.170 19.287 2.411 305.201 1890.418 -3366.507 -0.843 2.449 2.137 -0.06 -0.54 0.84 0.01
1 3.84 384 -0.091 -11.794 5.081 36.835 20.477 1.862 305.201 1890.418 -3366.507 -0.886 2.902 -1.079 -0.07 -0.54 0.84 0.01
1 3.85 385 -0.675 -10.549 6.321 38.147 19.348 -6.592 275.221 1920.399 -3366.507 -0.313 1.681 -2.270 -0.07 -0.54 0.84 0.01
1 3.86 386 -2.619 -8.437 7.121 37.293 21.576 -20.966 275.221 1920.399 -3366.507 1.632 -0.408 -3.019 -0.07 -0.54 0.84 0.01
1 3.87 387 -4.123 -7.662 7.647 16.937 19.989 -48.187 215.260 1980.360 -3231.445 3.161 -1.166 -3.501 -0.07 -0.53 0.84 0.01
1 3.88 388 -4.717 -10.588 6.785 -67.719 11.322 -58.350 335.182 1935.389 -3561.530 3.814 1.757 -2.632 -0.07 -0.53 0.84 0.02
1 3.89 389 -4.032 -11.876 5.856 -114.380 1.648 -56.091 335.182 1935.389 -3561.530 3.202 3.006 -1.772 -0.06 -0.54 0.84 0.02
1 3.90 390 -2.581 -12.369 4.104 -87.677 -8.575 -34.332 140.309 1860.438 -3381.497 1.898 3.356 -0.316 -0.06 -0.55 0.83 0.03
1 3.91 391 -2.926 -11.363 3.534 -33.600 -21.179 -5.646 140.309 1860.438 -3381.497 2.288 2.305 0.152 -0.06 -0.56 0.83 0.03
1 3.92 392 -2.844 -9.457 4.089 29.053 -45.624 12.970 140.309 1980.360 -3381.497 2.224 0.390 -0.423 -0.06 -0.56 0.83 0.03
1 3.93 393 -2.394 -6.929 5.105 64.697 -71.594 14.160 140.309 1980.360 -3381.497 1.776 -2.113 -1.376 -0.05 -0.55 0.83 0.02
1 3.94 394 -1.666 -4.674 5.895 81.330 -77.667 -3.357 350.172 2040.471 -3321.536 1.065 -4.321 -2.050 -0.05 -0.55 0.83 0.02
1 3.95 395 0.034 -3.888 6.000 80.872 -65.369 -22.400 200.270 2040.471 -3396.487 -0.576 -5.057 -2.034 -0.04 -0.54 0.84 0.02
1 3.96 396 0.843 -4.281 5.952 81.146 -52.826 -26.459 200.270 2040.471 -3396.487 -1.315 -4.615 -1.868 -0.04 -0.54 0.84 0.02
1 3.97 397 0.828 -4.228 6.785 72.632 -40.558 -26.001 35.227 1905.409 -3456.448 -1.158 -4.567 -2.476 -0.03 -0.53 0.85 0.02
1 3.98 398 0.666 -3.970 6.785 67.475 -33.417 -22.095 35.227 1905.409 -3456.448 -0.937 -4.779 -2.378 -0.03 -0.52 0.85 0.02
1 3.99 399 0.192 -4.496 7.532 42.938 -14.832 -18.433 5.247 1860.438 -3411.478 -0.422 -4.212 -3.044 -0.02 -0.52 0.85 0.02
1 4.00 400 0.196 -6.259 8.040 7.904 -7.996 -10.468 5.247 1860.438 -3411.478 -0.394 -2.426 -3.503 -0.02 -0.52 0.86 0.02
1 4.01 401 0.158 -8.667 7.868 -21.423 -4.150 3.662 -39.574 1785.487 -3711.582 -0.337 -0.002 -3.301 -0.02 -0.52 0.86 0.02
1 4.02 402 -0.053 -11.722 6.618 -41.718 -10.284 20.203 50.217 1770.497 -3621.491 -0.133 3.036 -2.084 -0.02 -0.52 0.86 0.02
1 4.03 403 -0.359 -12.685 4.453 -52.735 -7.782 25.299 50.217 1770.497 -3621.491 0.155 3.974 0.031 -0.02 -0.52 0.85 0.01
1 4.04 404 -1.245 -11.387 0.809 -29.846 -2.197 26.154 20.237 1725.376 -3651.471 0.980 2.613 3.547 -0.02 -0.53 0.85 0.01
1 4.05 405 -1.585 -11.224 0.335 -9.430 1.740 16.724 20.237 1725.376 -3651.471 1.293 2.438 3.996 -0.02 -0.53 0.85 0.01
1 4.06 406 -2.940 -9.410 1.786 29.877 -4.334 18.402 -114.675 1830.458 -3486.579 2.624 0.636 2.568 -0.02 -0.53 0.85 0.01
1 4.07 407 -3.175 -8.198 3.740 31.586 -19.959 14.587 -114.675 1830.458 -3486.579 2.824 -0.563 0.637 -0.02 -0.53 0.85 0.01
1 4.08 408 -3.002 -7.437 5.315 24.445 -31.281 16.724 -24.584 1890.418 -3441.458 2.625 -1.305 -0.902 -0.02 -0.52 0.85 0
1 4.09 409 -3.184 -7.020 6.551 10.315 -37.201 18.036 5.247 1905.409 -3456.448 2.788 -1.702 -2.100 0.02 0.52 -0.85 0
1 4.10 410 -3.438 -6.857 7.001 -17.792 -40.344 24.201 5.247 1905.409 -3456.448 3.021 -1.850 -2.524 0.02 0.52 -0.85 0
1 4.11 411 -3.069 -6.445 6.527 -30.823 -42.786 29.877 -54.564 1725.376 -3546.540 2.629 -2.258 -2.043 0.02 0.52 -0.85 0.01
1 4.12 412 -2.576 -6.919 5.191 -35.095 -45.014 30.304 -39.574 1860.438 -3561.530 2.076 -1.799 -0.744 0.02 0.52 -0.85 0.02
1 4.13 413 -2.337 -7.264 4.286 -29.816 -44.373 31.799 5.247 1860.438 -3561.530 1.810 -1.468 0.132 0.02 0.52 -0.85 0.02
1 4.14 414 -1.762 -7.882 3.534 -18.829 -45.441 25.482 5.247 1860.438 -3561.530 1.219 -0.863 0.855 0.02 0.53 -0.85 0.03
1 4.15 415 -1.427 -8.433 3.079 -4.883 -45.227 25.421 20.237 1845.448 -3471.588 0.880 -0.320 1.295 0.02 0.53 -0.85 0.03
1 4.16 416 -0.900 -8.840 2.820 8.789 -46.784 26.581 -54.564 1845.448 -3501.569 0.345 0.087 1.551 0.01 0.53 -0.85 0.03
1 4.17 417 -0.828 -8.390 2.533 21.118 -49.805 22.217 -54.564 1845.448 -3501.569 0.266 -0.358 1.850 0.01 0.53 -0.85 0.04
1 4.18 418 -1.092 -8.782 3.137 22.553 -46.814 28.961 -129.666 1920.399 -3501.569 0.525 0.046 1.268 0.01 0.52 -0.85 0.04
1 4.19 419 -1.801 -8.284 3.477 14.801 -52.612 29.114 -129.666 1920.399 -3396.487 1.221 -0.423 0.982 0.01 0.52 -0.85 0.05
1 4.20 420 -2.260 -8.423 3.682 11.444 -57.221 28.442 -189.626 1755.356 -3666.461 1.672 -0.274 0.796 0 0.52 -0.85 0.05
1 4.21 421 -2.883 -8.710 3.826 7.874 -63.873 31.738 -189.626 1755.356 -3666.461 2.285 0.023 0.669 0 0.52 -0.85 0.06
1 4.22 422 -3.036 -8.830 3.951 7.263 -72.052 27.710 -144.656 1905.409 -3486.579 2.427 0.150 0.558 -0 0.52 -0.85 0.06
1 4.23 423 -2.811 -8.600 3.769 6.256 -78.064 31.189 -354.669 1845.448 -3441.458 2.198 -0.073 0.753 -0 0.52 -0.85 0.07
1 4.24 424 -2.002 -8.509 3.606 3.876 -81.787 27.649 -354.669 1845.448 -3441.458 1.386 -0.157 0.927 -0.01 0.52 -0.85 0.07
1 4.25 425 -1.791 -8.548 3.338 -0.458 -80.048 25.696 -219.607 1830.458 -3411.478 1.181 -0.114 1.206 -0.01 0.52 -0.85 0.08
1 4.26 426 -1.528 -8.653 2.897 -5.859 -76.386 25.299 -384.649 1920.399 -3501.569 0.929 -0.008 1.650 -0.01 0.52 -0.85 0.08
1 4.27 427 -1.077 -9.089 2.605 -15.564 -71.167 26.062 -384.649 1965.370 -3546.540 0.504 0.415 1.920 -0.02 0.52 -0.85 0.09
1 4.28 428 -0.646 -9.381 2.322 -19.196 -67.597 27.130 -384.649 1965.370 -3546.540 0.083 0.692 2.175 -0.03 0.52 -0.85 0.1
1 4.29 429 -0.187 -9.611 2.394 -14.191 -66.010 26.337 -459.601 1845.448 -3471.588 -0.366 0.905 2.071 -0.03 0.52 -0.85 0.1
1 4.30 430 0.263 -10.003 2.538 -3.571 -64.392 26.520 -594.663 1830.458 -3531.549 -0.805 1.284 1.904 -0.03 0.52 -0.85 0.11
1 4.31 431 1.207 -10.262 2.916 11.566 -64.301 21.515 -594.663 1830.458 -3531.549 -1.732 1.538 1.517 -0.04 0.52 -0.84 0.11
1 4.32 432 2.236 -10.511 3.572 32.806 -64.789 12.054 -459.601 1920.399 -3441.458 -2.731 1.792 0.874 -0.04 0.52 -0.84 0.11
1 4.33 433 2.782 -10.267 3.812 41.321 -61.463 8.637 -534.552 1965.370 -3651.471 -3.250 1.569 0.680 -0.04 0.52 -0.85 0.12
1 4.34 434 2.988 -9.841 3.773 42.053 -50.446 9.766 -669.614 1755.356 -3456.448 -3.394 1.203 0.839 -0.05 0.51 -0.85 0.12
1 4.35 435 2.619 -9.788 3.778 41.474 -40.131 10.651 -669.614 1755.356 -3456.448 -3.003 1.182 0.894 -0.05 0.51 -0.85 0.13
1 4.36 436 1.906 -10.458 5.435 48.157 -28.900 13.397 -534.552 1845.448 -3546.540 -2.264 1.882 -0.707 -0.05 0.51 -0.85 0.13
1 4.37 437 1.370 -10.008 8.136 53.803 -17.426 23.865 -639.633 1725.376 -3546.540 -1.729 1.471 -3.337 -0.06 0.5 -0.85 0.13
1 4.38 438 3.347 -9.070 8.634 35.370 -11.871 4.852 -639.633 1725.376 -3546.540 -3.713 0.570 -3.769 -0.06 0.5 -0.85 0.13
1 4.39 439 4.520 -8.179 8.701 0.610 -5.035 43.823 -744.565 1785.487 -3666.461 -4.896 -0.295 -3.793 -0.06 0.5 -0.86 0.13
1 4.40 440 3.788 -12.608 8.409 -19.775 5.798 24.933 -744.565 1755.356 -3666.461 -4.214 4.144 -3.489 -0.05 0.5 -0.86 0.14
1 4.41 441 2.902 -15.405 7.068 -21.912 28.992 32.166 -699.594 1755.356 -3456.448 -3.419 6.918 -2.195 -0.05 0.5 -0.85 0.14
1 4.42 442 2.701 -14.734 6.412 -22.369 33.051 27.802 -699.594 1755.356 -3456.448 -3.279 6.234 -1.569 -0.05 0.5 -0.85 0.14
1 4.43 443 1.595 -11.430 6.024 -11.688 49.957 25.513 -789.686 1920.399 -3441.458 -2.236 2.919 -1.209 -0.05 0.5 -0.85 0.14
1 4.44 444 -0.110 -9.649 6.647 -5.310 62.653 18.311 -639.633 1800.477 -3471.588 -0.601 1.134 -1.848 -0.04 0.5 -0.85 0.14
1 4.45 445 -1.714 -7.743 7.049 -19.379 67.353 10.651 -639.633 1800.477 -3471.588 0.935 -0.775 -2.266 -0.04 0.5 -0.85 0.14
1 4.46 446 -3.156 -5.832 5.732 -56.061 63.843 3.845 -474.591 1905.409 -3591.510 2.313 -2.698 -0.982 -0.03 0.51 -0.85 0.14
1 4.47 447 -3.553 -5.052 4.942 -77.301 38.086 -2.350 -459.601 1770.497 -3576.520 2.645 -3.502 -0.247 -0.03 0.51 -0.85 0.14
1 4.48 448 -2.744 -4.597 5.090 -73.120 27.283 -11.414 -504.571 1965.370 -3546.540 1.797 -4.064 -0.604 -0.02 0.52 -0.84 0.13
1 4.49 449 -2.634 -4.434 5.143 -70.099 23.682 -12.299 -504.571 1965.370 -3546.540 1.687 -4.277 -0.755 -0.02 0.52 -0.84 0.13
1 4.50 450 -2.155 -4.717 5.928 -59.052 26.062 -8.514 -504.571 2070.451 -3471.588 1.207 -4.039 -1.630 -0.02 0.53 -0.84 0.13
1 4.51 451 -2.011 -5.243 6.374 -48.737 29.450 -5.157 -429.620 1920.399 -3246.585 1.056 -3.550 -2.154 -0.02 0.53 -0.84 0.13
1 4.52 452 -2.035 -6.364 6.848 -37.354 32.166 2.808 -429.620 1920.399 -3246.585 1.067 -2.459 -2.693 -0.02 0.54 -0.83 0.13
1 4.53 453 -1.738 -6.785 6.814 -22.308 34.210 11.231 -549.542 2325.435 -3381.497 0.732 -2.046 -2.686 -0.02 0.54 -0.83 0.13
1 4.54 454 -1.058 -8.983 6.958 13.306 29.724 26.154 -534.552 2070.451 -3396.487 0.008 0.156 -2.834 -0.02 0.54 -0.83 0.13
1 4.55 455 -0.503 -9.592 6.249 40.192 16.388 35.156 -534.552 2070.451 -3396.487 -0.598 0.778 -2.109 -0.01 0.54 -0.83 0.13
1 4.56 456 1.264 -10.640 5.593 71.381 -10.040 28.717 -429.620 2115.422 -3396.487 -2.465 1.898 -1.330 -0.01 0.53 -0.84 0.13
1 4.57 457 1.935 -10.133 4.899 71.076 -17.975 29.785 -339.679 2175.383 -3411.478 -3.166 1.445 -0.535 -0.01 0.53 -0.84 0.13
1 4.58 458 2.476 -9.098 4.511 58.747 -15.228 16.815 -339.679 1980.360 -3456.448 -3.730 0.463 -0.051 -0.01 0.52 -0.84 0.14
1 4.59 459 2.782 -8.256 4.535 30.365 -3.143 0.244 -339.679 1980.360 -3456.448 -4.029 -0.343 -0.001 -0.01 0.52 -0.84 0.14
1 4.60 460 2.801 -6.541 4.425 -28.961 20.203 -26.856 -354.669 2115.422 -3501.569 -4.013 -2.046 0.140 -0.01 0.52 -0.85 0.14
1 4.61 461 2.097 -6.172 4.219 -58.441 27.222 -41.840 -264.578 1980.360 -3591.510 -3.275 -2.433 0.321 -0.01 0.52 -0.84 0.13
1 4.62 462 1.470 -6.364 3.975 -70.557 25.604 -52.460 -264.578 1980.360 -3591.510 -2.613 -2.283 0.492 -0.01 0.52 -0.84 0.13
1 4.63 463 0.603 -6.738 3.740 -68.512 19.226 -51.850 -384.649 1800.477 -3471.588 -1.639 -2.021 0.533 -0.01 0.53 -0.84 0.12
1 4.64 464 0.488 -7.054 3.625 -56.702 15.900 -54.199 -354.669 2220.503 -3546.540 -1.464 -1.755 0.558 -0.02 0.54 -0.84 0.12
1 4.65 465 0.182 -7.753 3.419 -44.434 18.707 -51.758 -264.578 2010.490 -3636.481 -1.094 -1.097 0.690 -0.02 0.54 -0.83 0.11
1 4.66 466 -0.460 -8.179 3.371 -32.715 24.719 -44.769 -264.578 2010.490 -3636.481 -0.395 -0.703 0.680 -0.02 0.54 -0.83 0.11
1 4.67 467 -0.666 -8.394 3.108 -16.602 28.595 -40.711 -189.626 2175.383 -3381.497 -0.143 -0.511 0.902 -0.02 0.54 -0.83 0.1
1 4.68 468 -0.709 -8.888 3.654 6.439 28.351 -36.133 -294.558 2325.435 -3411.478 -0.062 -0.032 0.333 -0.02 0.54 -0.83 0.1
1 4.69 469 -0.469 -8.821 3.994 14.374 29.907 -30.518 -294.558 2325.435 -3411.478 -0.266 -0.102 -0.007 -0.02 0.54 -0.83 0.1
1 4.70 470 -0.263 -8.461 4.463 13.275 31.891 -25.116 -354.669 2220.503 -3546.540 -0.445 -0.456 -0.461 -0.02 0.54 -0.83 0.09
1 4.71 471 -0.235 -8.318 4.865 2.502 31.098 -12.756 -384.649 2190.373 -3396.487 -0.444 -0.588 -0.832 -0.02 0.54 -0.84 0.09
1 4.72 472 0.311 -8.691 5.263 -9.979 25.482 -19.989 -444.610 2250.484 -3456.448 -0.984 -0.213 -1.224 -0.02 0.54 -0.84 0.09
1 4.73 473 0.867 -8.576 4.822 -17.792 27.039 -8.240 -444.610 2250.484 -3456.448 -1.524 -0.334 -0.795 -0.01 0.54 -0.84 0.08
1 4.74 474 1.494 -8.509 4.291 -20.569 20.416 -15.106 -264.578 2205.363 -3531.549 -2.142 -0.410 -0.283 -0.01 0.54 -0.84 0.08
1 4.75 475 1.959 -8.763 4.118 -19.684 20.569 -12.604 -219.607 2130.412 -3486.579 -2.584 -0.169 -0.135 -0.01 0.54 -0.83 0.08
1 4.76 476 2.418 -8.313 3.539 -10.803 24.048 -6.073 -219.607 2130.412 -3486.579 -3.021 -0.631 0.421 -0.01 0.55 -0.83 0.08
1 4.77 477 2.935 -7.925 3.189 -6.592 28.473 -5.402 -429.620 2115.422 -3501.569 -3.520 -1.028 0.753 -0.01 0.55 -0.83 0.08
1 4.78 478 3.031 -7.628 2.959 -5.798 41.351 -2.625 -309.548 2190.373 -3576.520 -3.591 -1.336 0.961 -0.01 0.55 -0.83 0.07
1 4.79 479 2.672 -7.892 2.902 -11.993 51.331 -4.242 -309.548 2115.422 -3366.507 -3.238 -1.078 1.006 -0.01 0.55 -0.83 0.07
1 4.80 480 2.255 -7.796 2.480 -16.296 57.923 -2.319 -309.548 2115.422 -3366.507 -2.848 -1.181 1.406 -0.01 0.55 -0.83 0.07
1 4.81 481 1.628 -8.485 2.447 -21.179 61.157 -3.204 -99.685 2310.445 -3396.487 -2.250 -0.502 1.411 -0 0.55 -0.83 0.06
1 4.82 482 0.886 -9.070 2.409 -21.545 65.979 -1.953 -174.636 2220.503 -3321.536 -1.532 0.068 1.412 -0 0.55 -0.83 0.06
1 4.83 483 -0.201 -9.989 2.552 -13.153 68.268 -3.265 -174.636 2220.503 -3321.536 -0.467 0.971 1.225 0 0.55 -0.83 0.06
1 4.84 484 -0.623 -10.659 3.031 -7.446 67.505 -5.951 -99.685 2265.474 -3471.588 -0.071 1.628 0.710 0.01 0.56 -0.83 0.06
1 4.85 485 -1.326 -10.784 3.208 4.913 69.000 -5.859 95.188 2340.425 -3246.585 0.577 1.743 0.498 0.01 0.56 -0.83 0.05
1 4.86 486 -1.571 -10.971 3.424 4.852 66.315 -6.226 -204.617 2220.503 -3366.507 0.792 1.932 0.283 0.02 0.56 -0.83 0.05
1 4.87 487 -1.959 -11.402 3.213 12.665 58.533 -3.601 -204.617 2220.503 -3366.507 1.153 2.368 0.499 0.02 0.56 -0.83 0.04
1 4.88 488 -2.251 -11.622 2.931 20.416 52.185 -2.197 -114.675 2325.435 -3306.546 1.418 2.597 0.797 0.02 0.56 -0.83 0.04
1 4.89 489 -2.021 -11.339 2.667 29.724 45.960 -0.458 125.168 2340.425 -3546.540 1.163 2.327 1.086 0.03 0.55 -0.83 0.04
1 4.90 490 -1.877 -10.698 2.557 44.068 41.718 -0.641 125.168 2340.425 -3546.540 0.994 1.705 1.237 0.03 0.55 -0.83 0.04
1 4.91 491 -1.623 -10.353 2.509 47.669 39.032 -5.798 170.289 2115.422 -3396.487 0.717 1.385 1.338 0.03 0.55 -0.83 0.03
1 4.92 492 -1.379 -10.343 2.164 39.276 33.997 -12.421 65.208 2250.484 -3486.579 0.442 1.425 1.789 0.04 0.54 -0.84 0.03
1 4.93 493 -1.326 -10.583 2.069 34.729 32.379 -14.740 185.279 2355.416 -3336.526 0.386 1.679 1.917 0.04 0.54 -0.84 0.03
1 4.94 494 -0.972 -11.090 1.633 22.156 29.480 -17.517 185.279 2355.416 -3336.526 0.037 2.202 2.388 0.04 0.54 -0.84 0.03
1 4.95 495 -0.809 -11.330 2.184 17.456 27.557 -16.419 275.221 2145.402 -3471.588 -0.119 2.453 1.863 0.04 0.54 -0.84 0.02
1 4.96 496 -0.948 -11.435 4.319 21.545 22.522 -15.564 185.279 2130.412 -3486.579 0.026 2.567 -0.251 0.04 0.54 -0.84 0.02
1 4.97 497 -1.604 -10.741 5.425 21.881 16.724 -17.548 185.279 2130.412 -3486.579 0.692 1.886 -1.328 0.04 0.54 -0.84 0.02
1 4.98 498 -3.912 -9.539 6.613 35.523 9.522 -38.269 395.292 2205.363 -3411.478 3.018 0.696 -2.483 0.04 0.54 -0.84 0.02
1 4.99 499 -5.085 -10.037 7.025 17.578 10.559 -53.650 395.292 2205.363 -3411.478 4.232 1.212 -2.849 0.04 0.53 -0.84 0.01
1 5.00 500 -5.919 -12.517 6.761 -60.700 -5.554 -54.474 350.172 2070.451 -3801.523 5.204 3.685 -2.575 0.04 0.53 -0.84 0.01
1 5.01 501 -5.526 -12.805 5.440 -91.828 -20.264 -47.150 350.172 2070.451 -3801.523 4.890 3.922 -1.349 0.04 0.54 -0.84 0
1 5.02 502 -5.306 -11.598 4.396 -80.048 -36.408 -38.025 200.270 2070.451 -3501.569 4.747 2.656 -0.426 0.03 0.54 -0.84 0
1 5.03 503 -4.382 -9.812 4.008 -62.836 -60.944 -22.888 50.217 2265.474 -3501.569 3.898 0.822 -0.136 0.03 0.55 -0.84 0
1 5.04 504 -2.634 -8.155 4.166 -41.870 -92.896 -2.167 50.217 2265.474 -3501.569 2.218 -0.870 -0.369 0.02 0.55 -0.83 0
1 5.05 505 0.460 -6.517 4.573 -29.450 -92.102 6.256 110.178 2205.363 -3456.448 -0.837 -2.532 -0.829 0.02 0.56 -0.83 0.01
1 5.06 506 1.733 -6.062 5.095 -15.869 -83.618 13.214 110.178 2205.363 -3456.448 -2.067 -3.002 -1.386 0.01 0.56 -0.83 0.01
1 5.07 507 2.418 -5.454 4.583 27.588 -59.815 16.266 95.188 2265.474 -3396.487 -2.697 -3.619 -0.889 0 0.56 -0.83 0.02
1 5.08 508 2.576 -5.445 4.736 66.834 -50.873 19.531 95.188 2265.474 -3396.487 -2.843 -3.605 -0.986 0 0.56 -0.83 0.02
1 5.09 509 2.504 -4.702 4.573 94.666 -43.640 23.224 -69.555 2400.386 -3561.530 -2.771 -4.302 -0.715 -0 0.55 -0.83 0.03
1 5.10 510 2.586 -3.884 5.516 105.194 -41.290 17.395 -99.685 2190.373 -3396.487 -2.856 -5.061 -1.521 -0 0.54 -0.84 0.03
1 5.11 511 2.351 -3.620 6.278 97.016 -32.074 0.122 -99.685 2190.373 -3396.487 -2.615 -5.257 -2.135 -0 0.54 -0.84 0.03
1 5.12 512 2.131 -5.574 8.169 62.378 -7.111 -10.162 -69.555 2175.383 -3486.579 -2.369 -3.244 -3.901 -0.01 0.53 -0.85 0.03
1 5.13 513 1.690 -8.193 9.046 40.131 0.946 -19.592 -69.555 2175.383 -3486.579 -1.897 -0.572 -4.668 -0.01 0.53 -0.85 0.03
1 5.14 514 1.274 -11.200 9.587 18.646 8.362 -18.524 -204.617 2189.024 -3728.671 -1.447 2.474 -5.130 -0.01 0.52 -0.85 0.03
1 5.15 515 -0.005 -14.083 8.457 -13.855 16.327 -8.728 -39.724 2053.962 -3668.710 -0.139 5.377 -3.960 -0.01 0.52 -0.85 0.03
1 5.16 516 -0.819 -14.064 5.287 -35.797 20.844 -19.470 -144.656 2008.991 -3638.729 0.680 5.345 -0.816 -0.01 0.52 -0.85 0.03
1 5.17 517 -2.279 -12.800 1.116 -31.525 27.100 -17.792 -129.666 1994.001 -3578.769 2.152 4.056 3.307 -0.01 0.52 -0.85 0.02
1 5.18 518 -4.607 -11.167 -1.025 -12.543 6.561 -4.089 -129.666 1994.001 -3578.769 4.483 2.405 5.413 -0.01 0.53 -0.85 0.02
1 5.19 519 -4.367 -8.064 1.710 12.329 -29.114 0.519 -144.656 2053.962 -3563.778 4.248 -0.703 2.669 -0.01 0.53 -0.85 0.02
1 5.20 520 -3.515 -6.809 3.113 13.641 -34.607 19.409 -144.656 2053.962 -3563.778 3.395 -1.956 1.268 -0.01 0.53 -0.85 0.02
1 5.21 521 -3.213 -5.761 4.348 3.815 -36.804 34.149 -69.705 2129.063 -3848.743 3.082 -2.997 0.047 -0.01 0.53 -0.85 0.03
1 5.22 522 -2.605 -5.411 5.828 -16.357 -29.236 40.863 -219.607 2129.063 -3668.710 2.433 -3.343 -1.426 -0.01 0.52 -0.85 0.03
1 5.23 523 -2.059 -5.277 5.933 -27.649 -20.691 41.840 -114.675 2053.962 -3668.710 1.850 -3.488 -1.555 -0.01 0.53 -0.85 0.04
1 5.24 524 -1.575 -5.641 5.435 -31.067 -11.139 41.687 -264.728 2053.962 -3668.710 1.323 -3.142 -1.094 -0.01 0.53 -0.85 0.04
1 5.25 525 -1.111 -5.947 4.525 -23.346 -7.263 36.713 -264.728 2053.962 -3668.710 0.811 -2.852 -0.222 -0.01 0.53 -0.85 0.04
1 5.26 526 -0.584 -6.781 3.587 -12.817 -6.531 30.243 -234.597 1994.001 -3623.739 0.242 -2.030 0.690 -0.01 0.53 -0.85 0.05
1 5.27 527 -0.378 -8.150 2.993 1.282 -6.348 25.665 -234.597 1994.001 -3623.739 0.003 -0.666 1.271 -0.01 0.53 -0.85 0.05
1 5.28 528 -0.215 -8.528 2.662 8.911 -8.453 25.482 -174.636 2068.952 -3578.769 -0.190 -0.286 1.602 -0.01 0.53 -0.85 0.05
1 5.29 529 0.177 -9.151 2.806 16.296 -19.898 28.442 -174.636 2189.024 -3653.720 -0.634 0.348 1.477 -0.01 0.53 -0.85 0.05
1 5.30 530 0.105 -9.261 2.974 18.951 -26.398 29.999 -204.617 2263.975 -3683.700 -0.581 0.468 1.326 -0.01 0.53 -0.85 0.06
1 5.31 531 0.230 -9.161 4.238 24.262 -51.361 16.327 -234.597 2114.073 -3623.739 -0.705 0.380 0.087 -0.01 0.53 -0.85 0.06
1 5.32 532 -1.039 -8.950 4.616 18.311 -50.934 23.865 -234.597 2114.073 -3623.739 0.579 0.185 -0.258 -0.01 0.53 -0.85 0.06
1 5.33 533 -2.198 -8.758 4.904 6.897 -52.612 15.259 -129.666 2068.952 -3728.671 1.744 0.006 -0.518 -0.01 0.53 -0.85 0.07
1 5.34 534 -3.582 -9.151 4.238 -11.322 -46.204 14.282 -129.666 2068.952 -3728.671 3.134 0.404 0.159 -0.02 0.52 -0.85 0.07
1 5.35 535 -3.692 -9.558 3.745 -15.717 -46.051 9.827 -219.607 2174.034 -3743.661 3.247 0.807 0.645 -0.02 0.53 -0.85 0.07
1 5.36 536 -4.128 -9.620 2.773 -12.116 -48.035 19.409 -204.617 2068.952 -3758.651 3.688 0.852 1.582 -0.02 0.53 -0.85 0.08
1 5.37 537 -3.773 -9.706 2.466 -7.690 -49.683 20.630 -444.610 2099.083 -3593.759 3.340 0.934 1.880 -0.02 0.53 -0.85 0.08
1 5.38 538 -2.739 -9.429 2.198 6.256 -53.467 25.482 -279.718 2189.024 -3728.671 2.283 0.652 2.138 -0.03 0.53 -0.84 0.09
1 5.39 539 -2.088 -9.472 2.375 10.956 -52.796 27.100 -279.718 2189.024 -3728.671 1.614 0.696 1.961 -0.03 0.53 -0.84 0.09
1 5.40 540 -1.671 -9.630 2.868 11.566 -51.514 29.816 -369.659 2174.034 -3743.661 1.183 0.858 1.474 -0.03 0.53 -0.84 0.09
1 5.41 541 -1.197 -9.994 3.462 11.292 -48.279 31.677 -369.659 2174.034 -3743.661 0.693 1.227 0.889 -0.03 0.53 -0.84 0.1
1 5.42 542 -0.388 -10.592 4.109 11.475 -41.535 31.708 -279.718 2144.053 -3758.651 -0.132 1.832 0.253 -0.03 0.53 -0.84 0.1
1 5.43 543 0.220 -10.822 4.334 12.787 -38.605 27.954 -444.610 2099.083 -3713.681 -0.753 2.073 0.048 -0.03 0.52 -0.84 0.11
1 5.44 544 1.188 -10.717 4.286 16.998 -34.699 16.937 -429.620 2068.952 -3728.671 -1.736 1.991 0.142 -0.04 0.52 -0.84 0.11
1 5.45 545 1.542 -10.578 4.300 19.928 -30.274 8.514 -474.591 2008.991 -3743.661 -2.086 1.866 0.155 -0.04 0.52 -0.85 0.11
1 5.46 546 1.652 -10.415 4.075 19.257 -22.553 0.946 -474.591 2008.991 -3743.661 -2.184 1.718 0.411 -0.04 0.52 -0.85 0.12
1 5.47 547 1.001 -10.506 3.596 18.646 -13.672 -1.923 -444.610 2174.034 -3743.661 -1.517 1.823 0.918 -0.04 0.52 -0.85 0.12
1 5.48 548 0.292 -10.616 3.237 19.592 -3.723 -3.510 -444.610 2174.034 -3743.661 -0.795 1.947 1.304 -0.04 0.52 -0.85 0.12
1 5.49 549 -1.015 -10.937 5.674 28.778 -1.007 0.488 -474.591 1979.011 -3713.681 0.521 2.282 -1.105 -0.04 0.51 -0.85 0.12
1 5.50 550 -1.551 -9.462 7.365 23.193 -1.434 10.712 -534.702 2114.073 -3758.651 1.061 0.825 -2.760 -0.04 0.51 -0.85 0.12
1 5.51 551 2.112 -6.833 7.432 9.979 -8.362 27.649 -474.591 2099.083 -3788.782 -2.625 -1.771 -2.769 -0.04 0.51 -0.85 0.12
1 5.52 552 2.792 -7.283 7.370 -6.744 -12.360 27.161 -459.601 2114.073 -3833.752 -3.321 -1.303 -2.677 -0.04 0.51 -0.85 0.12
1 5.53 553 2.567 -11.009 7.154 -24.933 -10.834 37.995 -459.601 2114.073 -3833.752 -3.099 2.428 -2.451 -0.04 0.51 -0.85 0.12
1 5.54 554 3.534 -13.643 7.930 -22.217 -5.310 38.910 -459.601 2038.972 -3908.704 -4.106 5.047 -3.259 -0.04 0.51 -0.85 0.12
1 5.55 555 3.740 -12.991 7.413 -5.280 10.681 41.412 -459.601 2038.972 -3908.704 -4.363 4.387 -2.763 -0.04 0.51 -0.85 0.13
1 5.56 556 3.309 -10.736 7.293 12.329 38.208 31.403 -534.702 2068.952 -3803.772 -3.995 2.135 -2.647 -0.04 0.51 -0.85 0.13
1 5.57 557 1.393 -9.362 7.767 10.864 52.674 17.029 -519.711 2174.034 -3968.665 -2.147 0.771 -3.111 -0.03 0.51 -0.85 0.13
1 5.58 558 -0.412 -7.863 7.394 -12.665 61.493 9.186 -519.711 2174.034 -3968.665 -0.403 -0.715 -2.726 -0.03 0.51 -0.85 0.13
1 5.59 559 -2.011 -6.105 5.502 -67.505 59.204 8.057 -369.659 1934.040 -3968.665 1.085 -2.497 -0.900 -0.02 0.51 -0.85 0.13
1 5.60 560 -2.404 -5.962 4.463 -75.836 46.875 9.857 -369.659 1934.040 -3968.665 1.425 -2.684 0.046 -0.02 0.52 -0.85 0.12
1 5.61 561 -2.557 -5.962 4.046 -52.704 28.870 10.223 -264.728 2008.991 -3788.782 1.537 -2.731 0.363 -0.01 0.52 -0.84 0.12
1 5.62 562 -2.921 -5.804 4.118 -27.069 13.275 7.965 -264.728 2008.991 -3788.782 1.872 -2.918 0.226 -0.01 0.53 -0.84 0.12
1 5.63 563 -3.165 -5.904 4.597 -6.592 3.906 5.920 -204.617 2114.073 -3803.772 2.100 -2.830 -0.282 -0.01 0.53 -0.84 0.12
1 5.64 564 -3.117 -5.818 6.129 14.130 -7.050 6.378 -174.636 2189.024 -3833.752 2.045 -2.916 -1.816 -0.01 0.53 -0.84 0.12
1 5.65 565 -2.710 -6.158 7.178 13.214 -4.517 8.789 -174.636 2189.024 -3833.752 1.635 -2.566 -2.846 -0.01 0.53 -0.84 0.12
1 5.66 566 -1.973 -6.996 7.963 0.397 -0.763 9.918 -189.626 2008.991 -3893.713 0.858 -1.685 -3.554 -0.01 0.52 -0.84 0.13
1 5.67 567 -1.451 -8.093 7.844 -11.139 5.219 6.622 -189.626 2008.991 -3893.713 0.317 -0.573 -3.409 -0.01 0.52 -0.84 0.13
1 5.68 568 -0.814 -9.103 7.125 -23.987 5.798 10.803 -264.728 2053.962 -3668.710 -0.333 0.430 -2.710 -0.01 0.52 -0.84 0.13
1 5.69 569 -0.177 -9.999 5.421 -36.530 1.373 4.425 -264.728 2053.962 -3668.710 -0.984 1.309 -1.040 -0.01 0.53 -0.84 0.13
1 5.70 570 0.527 -10.113 3.170 -41.535 -1.678 10.193 -279.718 2308.946 -3908.704 -1.696 1.400 1.160 -0.01 0.53 -0.84 0.13
1 5.71 571 2.126 -9.184 1.446 -17.090 0.488 4.578 -234.597 2114.073 -3878.723 -3.298 0.443 2.827 -0.01 0.53 -0.84 0.13
1 5.72 572 2.911 -8.203 1.724 9.857 10.254 0.092 -234.597 2114.073 -3878.723 -4.071 -0.562 2.504 -0.01 0.53 -0.84 0.13
1 5.73 573 3.256 -6.163 3.026 20.538 17.487 -16.113 -204.617 2219.004 -3833.752 -4.381 -2.602 1.210 -0.01 0.53 -0.84 0.12
1 5.74 574 3.117 -5.588 3.596 16.388 16.602 -21.423 -204.617 2219.004 -3833.752 -4.227 -3.167 0.664 -0.01 0.53 -0.84 0.12
1 5.75 575 2.648 -4.865 4.597 -1.831 8.118 -38.117 -54.714 2144.053 -3803.772 -3.725 -3.890 -0.327 -0.01 0.53 -0.84 0.12
1 5.76 576 2.222 -5.009 5.291 -17.578 0.153 -41.260 -54.714 2144.053 -3803.772 -3.248 -3.756 -1.029 -0.01 0.53 -0.84 0.12
1 5.77 577 1.963 -5.516 5.325 -33.417 -4.181 -48.096 -144.656 2174.034 -3788.782 -2.930 -3.268 -1.090 -0.01 0.53 -0.84 0.11
1 5.78 578 1.097 -6.991 4.836 -47.913 -0.946 -43.244 -69.705 2204.014 -3968.665 -1.994 -1.823 -0.649 -0.02 0.53 -0.84 0.11
1 5.79 579 0.527 -7.935 4.166 -47.821 3.876 -37.628 -69.705 2204.014 -3968.665 -1.361 -0.915 -0.040 -0.02 0.54 -0.84 0.11
1 5.80 580 -0.153 -9.213 3.218 -34.760 11.475 -26.550 -129.666 2308.946 -3803.772 -0.579 0.300 0.788 -0.02 0.54 -0.83 0.1
1 5.81 581 -0.177 -9.366 2.787 -28.381 15.533 -23.071 -129.666 2308.946 -3803.772 -0.522 0.429 1.172 -0.02 0.55 -0.83 0.1
1 5.82 582 -0.297 -9.692 2.107 -13.702 25.391 -13.214 -234.597 2384.047 -3833.752 -0.384 0.737 1.814 -0.02 0.55 -0.83 0.1
1 5.83 583 -0.345 -9.362 1.978 -6.744 32.013 -3.296 -234.597 2384.047 -3833.752 -0.333 0.392 1.912 -0.02 0.55 -0.83 0.09
1 5.84 584 0.153 -8.873 2.404 -7.355 33.020 -5.646 -234.597 2339.076 -3758.651 -0.842 -0.105 1.463 -0.02 0.55 -0.83 0.09
1 5.85 585 0.924 -8.768 2.974 -11.505 38.269 -4.028 -309.698 2384.047 -3728.671 -1.619 -0.221 0.868 -0.02 0.55 -0.83 0.09
1 5.86 586 1.623 -8.959 3.625 -9.186 45.044 4.150 -309.698 2384.047 -3728.671 -2.326 -0.039 0.192 -0.02 0.55 -0.83 0.09
1 5.87 587 1.997 -9.395 3.922 -8.575 45.654 6.042 -234.597 2488.979 -3758.651 -2.715 0.389 -0.124 -0.01 0.55 -0.83 0.09
1 5.88 588 2.064 -10.252 4.492 -11.322 47.699 11.200 -129.666 2339.076 -3908.704 -2.805 1.234 -0.729 -0.01 0.55 -0.83 0.08
1 5.89 589 2.533 -9.256 3.788 -7.568 43.030 7.660 5.247 2548.939 -3743.661 -3.316 0.234 -0.042 -0.01 0.56 -0.83 0.08
1 5.90 590 2.332 -9.592 3.898 -16.357 41.474 1.709 5.247 2548.939 -3743.661 -3.130 0.564 -0.169 -0 0.56 -0.83 0.08
1 5.91 591 1.906 -8.821 3.113 -19.257 41.229 -4.395 -24.734 2488.979 -3683.700 -2.705 -0.218 0.591 -0 0.56 -0.83 0.08
1 5.92 592 1.317 -8.940 2.519 -29.022 44.922 -9.827 -144.656 2399.037 -3848.743 -2.108 -0.113 1.149 0 0.56 -0.83 0.07
1 5.93 593 0.139 -9.501 1.805 -33.112 44.708 -11.963 -144.656 2399.037 -3848.743 -0.924 0.428 1.815 0 0.56 -0.82 0.07
1 5.94 594 -0.388 -10.094 1.317 -27.893 46.631 -9.857 170.139 2488.979 -3728.671 -0.393 0.998 2.245 0 0.56 -0.82 0.07
1 5.95 595 -1.053 -10.822 1.733 -3.540 48.828 -6.989 140.159 2429.018 -3743.661 0.259 1.687 1.723 0.01 0.57 -0.82 0.06
1 5.96 596 -1.456 -11.081 2.389 20.416 53.284 -7.172 95.188 2533.949 -3758.651 0.646 1.943 1.058 0.01 0.57 -0.82 0.06
1 5.97 597 -1.690 -11.220 3.515 41.474 60.517 -7.690 95.188 2533.949 -3758.651 0.863 2.095 -0.036 0.01 0.57 -0.82 0.05
1 5.98 598 -2.198 -10.841 3.955 49.011 63.355 -6.897 185.129 2518.959 -3593.759 1.349 1.741 -0.420 0.02 0.57 -0.82 0.05
1 5.99 599 -2.423 -10.741 4.185 47.180 63.782 -7.935 260.230 2518.959 -3743.661 1.551 1.666 -0.589 0.02 0.56 -0.83 0.05
1 6.00 600 -1.959 -10.875 3.845 27.435 47.394 -8.972 260.081 2519.559 -3742.612 1.064 1.824 -0.195 0.03 0.56 -0.83 0.04
1 6.01 601 -1.221 -11.004 3.199 19.104 37.262 -11.200 215.110 2624.640 -3592.560 0.312 1.970 0.488 0.03 0.56 -0.83 0.04
1 6.02 602 -0.694 -10.707 2.366 16.602 29.694 -12.207 215.110 2429.617 -3892.664 -0.221 1.683 1.346 0.03 0.56 -0.83 0.04
1 6.03 603 -0.043 -10.779 1.173 22.369 21.454 -11.139 350.022 2309.545 -3802.573 -0.870 1.773 2.582 0.03 0.55 -0.83 0.03
1 6.04 604 0.048 -10.884 1.595 28.931 17.731 -11.871 350.022 2309.545 -3802.573 -0.956 1.891 2.193 0.03 0.55 -0.83 0.03
1 6.05 605 -0.148 -10.702 4.650 42.175 16.693 -15.717 185.129 2549.539 -3847.543 -0.751 1.727 -0.819 0.04 0.55 -0.83 0.03
1 6.06 606 -1.216 -9.405 5.569 36.316 12.787 -27.405 305.051 2309.545 -3937.635 0.335 0.452 -1.682 0.04 0.55 -0.84 0.03
1 6.07 607 -3.443 -7.686 6.455 41.748 12.665 -55.237 305.051 2309.545 -3937.635 2.597 -1.249 -2.517 0.03 0.55 -0.84 0.03
1 6.08 608 -5.665 -9.472 6.963 27.802 20.233 -72.754 290.061 2354.666 -3787.583 4.864 0.566 -2.952 0.03 0.54 -0.84 0.02
1 6.09 609 -6.326 -12.570 6.891 -16.754 10.132 -72.388 290.061 2354.666 -3892.664 5.610 3.677 -2.836 0.03 0.54 -0.84 0.02
1 6.10 610 -5.483 -14.816 6.565 -66.742 -12.299 -58.197 335.032 2279.565 -3847.543 4.955 5.877 -2.584 0.03 0.54 -0.84 0.01
1 6.11 611 -4.927 -14.356 5.234 -50.629 -24.536 -44.037 335.032 2279.565 -3847.543 4.485 5.374 -1.339 0.02 0.55 -0.84 0
1 6.12 612 -3.673 -12.038 4.611 -26.459 -50.934 -21.607 275.071 2264.575 -3802.573 3.303 3.029 -0.774 0.02 0.55 -0.83 0
1 6.13 613 -1.547 -9.778 4.683 -13.977 -73.853 -5.890 215.110 2354.666 -3817.563 1.236 0.755 -0.873 0.02 0.55 -0.83 0
1 6.14 614 0.522 -7.724 5.009 -13.672 -80.323 0.275 215.110 2354.666 -3817.563 -0.782 -1.307 -1.212 0.01 0.55 -0.83 0.01
1 6.15 615 2.490 -6.029 4.640 -8.423 -63.904 0.763 215.110 2249.584 -3847.543 -2.701 -3.005 -0.848 0.01 0.55 -0.83 0.01
1 6.16 616 3.007 -5.718 4.329 5.707 -45.807 0.946 95.038 2309.545 -3907.654 -3.178 -3.321 -0.546 0 0.55 -0.83 0.01
1 6.17 617 3.165 -5.617 4.319 54.749 -29.785 8.331 20.087 2489.578 -3727.622 -3.289 -3.403 -0.491 -0 0.55 -0.83 0.02
1 6.18 618 2.672 -4.899 4.061 83.374 -21.668 17.700 20.087 2489.578 -3727.622 -2.794 -4.083 -0.143 -0 0.55 -0.84 0.02
1 6.19 619 2.231 -3.687 4.937 104.462 -18.951 18.982 95.038 2459.598 -3982.605 -2.366 -5.239 -0.894 -0 0.54 -0.84 0.02
1 6.20 620 1.604 -2.792 6.297 103.119 -14.526 4.242 -39.724 2324.536 -4027.576 -1.748 -6.066 -2.107 -0 0.53 -0.84 0.02
1 6.21 621 1.326 -3.295 7.944 74.921 -9.796 -6.592 -39.724 2324.536 -4027.576 -1.461 -5.499 -3.621 -0 0.53 -0.85 0.02
1 6.22 622 0.565 -5.239 9.161 29.114 1.984 -8.637 -144.656 2433.515 -4170.283 -0.686 -3.509 -4.745 -0.01 0.52 -0.85 0.02
1 6.23 623 0.024 -7.791 9.869 1.740 0.122 -10.956 -69.705 2103.430 -3990.250 -0.126 -0.911 -5.363 -0.01 0.52 -0.85 0.02
1 6.24 624 -1.188 -12.187 10.013 -27.496 9.644 -3.235 -24.734 2118.420 -4155.293 1.110 3.492 -5.493 -0.01 0.52 -0.85 0.02
1 6.25 625 -1.417 -12.924 9.137 -35.584 14.374 -8.728 -24.734 2118.420 -4155.293 1.340 4.208 -4.657 -0.01 0.52 -0.85 0.02
1 6.26 626 -3.084 -14.643 2.974 -30.731 44.953 -30.274 -69.705 2208.511 -4215.254 3.023 5.901 1.454 -0.01 0.52 -0.85 0.01
1 6.27 627 -4.932 -13.355 -2.198 8.759 36.041 -18.677 -39.724 2253.482 -4140.153 4.878 4.598 6.596 -0 0.52 -0.85 0.01
1 6.28 628 -5.507 -10.315 -2.394 54.993 2.319 -16.998 -39.724 2253.482 -4140.153 5.461 1.572 6.822 -0 0.52 -0.85 0.01
1 6.29 629 -5.143 -7.552 0.670 46.051 -40.192 9.094 -39.724 2358.414 -4065.202 5.120 -1.150 3.837 -0 0.52 -0.85 0.01
1 6.30 630 -3.884 -5.876 3.951 19.196 -50.202 27.191 5.247 2178.531 -4095.182 3.839 -2.803 0.601 -0 0.52 -0.86 0.01
1 6.31 631 -2.935 -5.799 5.583 0.366 -48.798 36.163 5.247 2178.531 -4095.182 2.895 -2.861 -0.996 -0.01 0.52 -0.86 0.01
1 6.32 632 -2.217 -5.900 7.073 -23.560 -35.339 35.401 -54.714 2118.420 -4155.293 2.147 -2.763 -2.490 -0.01 0.52 -0.86 0.02
1 6.33 633 -1.647 -6.532 7.303 -35.797 -23.743 35.950 -99.685 2073.449 -4155.293 1.537 -2.137 -2.732 -0.01 0.52 -0.86 0.02
1 6.34 634 -1.202 -6.776 6.077 -40.375 -16.205 31.921 -144.656 2253.482 -4170.283 1.048 -1.905 -1.531 -0.01 0.52 -0.86 0.03
1 6.35 635 -0.579 -7.456 4.774 -39.978 -13.733 29.175 -144.656 2253.482 -4170.283 0.388 -1.242 -0.263 -0.01 0.52 -0.85 0.03
1 6.36 636 -0.230 -8.663 2.892 -21.210 -12.512 30.090 -144.656 2133.410 -4170.283 0.006 -0.055 1.579 -0.01 0.52 -0.85 0.03
1 6.37 637 -0.043 -8.758 2.193 -6.928 -16.419 32.898 -189.626 2358.414 -4095.182 -0.212 0.024 2.243 -0.01 0.52 -0.85 0.04
1 6.38 638 -0.105 -8.806 1.925 6.134 -26.459 34.454 -189.626 2358.414 -4095.182 -0.181 0.062 2.490 -0.01 0.52 -0.85 0.04
1 6.39 639 -0.316 -8.945 2.571 29.572 -50.446 38.544 5.247 2328.433 -4020.231 -0.020 0.204 1.846 -0.01 0.52 -0.85 0.05
1 6.40 640 -0.340 -8.380 3.860 44.830 -72.144 22.369 -39.724 2208.511 -4020.231 -0.005 -0.342 0.595 -0.01 0.52 -0.85 0.05
1 6.41 641 -1.250 -8.581 5.090 46.295 -71.747 24.414 -144.656 2283.462 -4065.202 0.927 -0.108 -0.570 -0.01 0.52 -0.85 0.05
1 6.42 642 -2.231 -8.241 5.445 31.036 -66.956 20.386 -144.656 2283.462 -4065.202 1.921 -0.415 -0.860 -0.02 0.52 -0.85 0.06
1 6.43 643 -2.868 -8.519 5.397 12.207 -59.876 19.257 -189.626 2178.531 -4065.202 2.566 -0.113 -0.767 -0.02 0.51 -0.86 0.06
1 6.44 644 -3.012 -8.538 3.860 -4.272 -51.239 23.499 -234.597 2193.521 -4155.293 2.708 -0.083 0.790 -0.02 0.51 -0.86 0.07
1 6.45 645 -2.835 -8.447 3.065 -3.876 -50.751 28.015 -234.597 2193.521 -4155.293 2.519 -0.174 1.585 -0.02 0.51 -0.86 0.07
1 6.46 646 -2.682 -8.758 2.457 -2.838 -49.500 29.511 -294.708 2253.482 -4170.283 2.345 0.134 2.186 -0.02 0.51 -0.86 0.07
1 6.47 647 -1.824 -8.658 1.911 -0.519 -49.133 27.405 -294.708 2283.462 -4095.182 1.446 0.023 2.709 -0.03 0.51 -0.85 0.08
1 6.48 648 -1.571 -8.825 1.753 -0.824 -49.530 27.435 -294.708 2208.511 -4140.153 1.179 0.185 2.855 -0.03 0.51 -0.85 0.09
1 6.49 649 -1.336 -9.070 1.939 -2.808 -50.568 27.374 -294.708 2208.511 -4140.153 0.935 0.422 2.654 -0.03 0.51 -0.85 0.09
1 6.50 650 -1.053 -9.572 2.528 -4.059 -51.972 26.032 -534.702 2223.501 -4260.225 0.645 0.916 2.048 -0.03 0.52 -0.85 0.09
1 6.51 651 -0.709 -9.841 2.998 -2.075 -55.268 22.736 -474.591 2208.511 -4095.182 0.299 1.176 1.562 -0.03 0.52 -0.85 0.1
1 6.52 652 -0.110 -10.348 3.692 4.059 -58.991 18.738 -474.591 2208.511 -4095.182 -0.295 1.677 0.856 -0.04 0.52 -0.85 0.1
1 6.53 653 0.436 -10.310 4.089 10.498 -62.592 13.153 -354.669 2223.501 -4230.244 -0.827 1.639 0.460 -0.04 0.52 -0.85 0.11
1 6.54 654 1.403 -10.161 4.501 14.679 -61.585 8.118 -384.649 2223.501 -4230.244 -1.736 1.509 0.088 -0.05 0.51 -0.85 0.11
1 6.55 655 2.078 -10.224 4.640 13.245 -53.925 6.317 -534.702 2148.400 -4260.225 -2.378 1.582 -0.028 -0.05 0.51 -0.85 0.11
1 6.56 656 2.418 -10.056 4.415 10.956 -40.039 5.219 -534.702 2148.400 -4260.225 -2.689 1.424 0.217 -0.05 0.51 -0.85 0.12
1 6.57 657 2.490 -10.056 3.821 12.207 -27.039 4.639 -698.095 2288.709 -4310.742 -2.741 1.433 0.828 -0.06 0.51 -0.85 0.12
1 6.58 658 1.930 -10.027 3.151 15.167 -11.505 3.845 -503.072 2078.696 -4175.680 -2.168 1.414 1.518 -0.06 0.51 -0.85 0.12
1 6.59 659 0.996 -9.668 2.653 17.029 -4.944 1.587 -503.072 2078.696 -4175.680 -1.220 1.063 2.030 -0.06 0.51 -0.85 0.12
1 6.60 660 0.340 -10.094 4.468 25.055 -3.784 0.427 -637.984 2273.719 -4145.699 -0.548 1.493 0.224 -0.06 0.51 -0.85 0.12
1 6.61 661 0.225 -8.797 6.953 19.836 4.242 12.238 -518.062 2213.758 -4235.641 -0.431 0.226 -2.206 -0.06 0.5 -0.85 0.12
1 6.62 662 1.432 -7.561 7.030 -0.031 -1.892 30.335 -637.984 2123.667 -4115.719 -1.660 -0.997 -2.260 -0.06 0.5 -0.85 0.12
1 6.63 663 2.902 -5.971 8.198 -26.520 -8.942 28.992 -637.984 2123.667 -4115.719 -3.148 -2.580 -3.418 -0.06 0.5 -0.85 0.12
1 6.64 664 1.915 -9.730 8.294 -51.727 -1.343 47.089 -637.984 2273.719 -4295.751 -2.173 1.171 -3.527 -0.06 0.5 -0.85 0.12
1 6.65 665 2.610 -12.752 8.332 -57.770 1.984 52.429 -578.023 2153.797 -4220.650 -2.931 4.156 -3.637 -0.06 0.51 -0.85 0.13
1 6.66 666 3.347 -13.255 6.761 -32.044 9.735 69.519 -578.023 2153.797 -4220.650 -3.747 4.624 -2.136 -0.05 0.51 -0.85 0.13
1 6.67 667 3.462 -12.340 6.800 -6.683 22.492 53.528 -698.095 2258.729 -4160.689 -3.960 3.690 -2.222 -0.05 0.51 -0.85 0.13
1 6.68 668 0.828 -10.621 7.078 11.841 50.080 32.105 -383.000 2468.742 -4220.650 -1.491 1.977 -2.508 -0.04 0.51 -0.85 0.14
1 6.69 669 0.105 -9.745 6.967 1.953 61.157 31.159 -518.062 2438.761 -4055.758 -0.848 1.110 -2.393 -0.04 0.51 -0.85 0.14
1 6.70 670 -1.896 -7.370 5.914 -51.361 78.705 52.338 -518.062 2438.761 -4055.758 1.050 -1.277 -1.380 -0.03 0.52 -0.84 0.14
1 6.71 671 -3.424 -6.484 5.277 -66.742 69.275 66.864 -533.053 2423.771 -4145.699 2.446 -2.187 -0.816 -0.03 0.52 -0.84 0.14
1 6.72 672 -5.263 -5.900 5.009 -58.167 53.314 66.803 -397.991 2483.732 -4205.660 4.135 -2.797 -0.634 -0.02 0.53 -0.84 0.14
1 6.73 673 -6.048 -5.153 5.349 -44.373 22.308 45.410 -397.991 2483.732 -4205.660 4.775 -3.559 -1.044 -0.01 0.53 -0.84 0.14
1 6.74 674 -5.947 -4.971 6.144 -41.535 3.387 28.473 -293.059 2558.683 -4130.709 4.555 -3.748 -1.891 -0.01 0.53 -0.83 0.15
1 6.75 675 -5.090 -5.325 6.876 -40.100 -4.791 14.648 -292.609 2562.131 -4123.064 3.612 -3.399 -2.663 -0 0.53 -0.83 0.15
1 6.76 676 -3.184 -7.446 8.030 -30.945 -10.529 -0.183 -187.678 2562.131 -4048.113 1.624 -1.287 -3.868 -0 0.54 -0.83 0.15
1 6.77 677 -2.073 -9.424 7.949 -26.703 -9.033 -5.585 -187.678 2562.131 -4048.113 0.524 0.671 -3.823 -0 0.54 -0.83 0.15
1 6.78 678 -1.322 -10.348 6.594 -19.501 -15.320 -0.702 -187.678 2637.232 -4078.093 -0.215 1.578 -2.499 -0.01 0.54 -0.83 0.15
1 6.79 679 -0.096 -10.113 4.544 -5.920 -27.100 -0.916 -217.658 2487.180 -4078.093 -1.428 1.334 -0.466 -0.01 0.54 -0.83 0.15
1 6.80 680 2.361 -9.271 2.519 21.240 -27.130 -22.736 -217.658 2487.180 -4078.093 -3.858 0.489 1.566 -0.01 0.54 -0.83 0.15
1 6.81 681 3.295 -8.835 1.753 34.241 -15.076 -35.401 -232.648 2742.164 -3853.090 -4.726 0.054 2.357 -0.01 0.54 -0.83 0.15
1 6.82 682 3.491 -8.500 1.987 46.387 -1.953 -43.671 -232.648 2742.164 -3853.090 -4.838 -0.278 2.157 -0.02 0.54 -0.83 0.15
1 6.83 683 3.065 -7.087 3.448 55.176 11.169 -43.854 -367.561 2712.183 -3763.148 -4.220 -1.666 0.806 -0.02 0.53 -0.83 0.14
1 6.84 684 3.146 -5.871 4.741 56.915 8.301 -45.807 -367.561 2712.183 -3763.148 -4.234 -2.855 -0.414 -0.02 0.53 -0.84 0.14
1 6.85 685 3.491 -5.085 5.991 46.906 -1.526 -47.058 -337.580 2607.251 -4153.194 -4.520 -3.611 -1.591 -0.02 0.52 -0.84 0.14
1 6.86 686 3.702 -4.779 6.809 21.057 -6.287 -51.911 -442.662 2532.150 -4003.142 -4.663 -3.896 -2.353 -0.03 0.52 -0.84 0.14
1 6.87 687 3.745 -4.784 6.881 -15.381 -0.793 -48.889 -442.662 2532.150 -4003.142 -4.617 -3.884 -2.392 -0.03 0.52 -0.84 0.13
1 6.88 688 3.548 -6.987 6.096 -68.573 21.942 -58.106 -217.658 2487.180 -4123.064 -4.320 -1.693 -1.612 -0.03 0.52 -0.84 0.13
1 6.89 689 2.677 -8.418 4.745 -82.184 40.253 -49.866 -217.658 2487.180 -4123.064 -3.349 -0.300 -0.320 -0.04 0.52 -0.84 0.12
1 6.90 690 1.652 -9.366 3.658 -70.038 55.359 -36.011 -397.541 2442.209 -3973.162 -2.246 0.594 0.670 -0.04 0.53 -0.84 0.12
1 6.91 691 0.857 -9.874 2.231 -23.163 70.709 -20.477 -397.541 2442.209 -4123.064 -1.396 1.013 1.920 -0.03 0.54 -0.84 0.11
1 6.92 692 -0.014 -10.195 1.963 6.836 73.212 -12.238 -382.551 2577.271 -3913.201 -0.531 1.317 2.150 -0.03 0.54 -0.84 0.1
1 6.93 693 -1.216 -9.381 1.733 30.792 74.524 -3.387 -532.603 2772.144 -4033.123 0.644 0.503 2.377 -0.03 0.54 -0.84 0.1
1 6.94 694 -2.418 -8.538 2.255 28.046 62.378 -5.737 -532.603 2772.144 -4033.123 1.806 -0.327 1.876 -0.02 0.54 -0.84 0.09
1 6.95 695 -3.309 -7.647 2.691 -5.432 39.520 -7.416 -292.609 2637.232 -3943.181 2.653 -1.208 1.456 -0.02 0.54 -0.84 0.09
1 6.96 696 -2.916 -7.815 3.745 -28.015 21.118 -10.559 -292.609 2637.232 -3943.181 2.233 -1.040 0.398 -0.02 0.54 -0.84 0.09
1 6.97 697 -2.265 -8.394 4.089 -35.156 12.787 -10.071 -187.678 2682.203 -4003.142 1.572 -0.476 0.019 -0.01 0.54 -0.84 0.09
1 6.98 698 -0.934 -8.950 4.530 -32.471 4.822 -8.514 -337.580 2682.203 -3973.162 0.229 0.039 -0.512 -0.01 0.54 -0.84 0.09
1 6.99 699 0.067 -9.065 4.774 -29.266 3.815 -7.599 -142.557 2682.203 -4048.113 -0.765 0.136 -0.795 -0.01 0.54 -0.83 0.09
1 7.00 700 0.919 -9.347 4.822 -25.299 6.592 -4.089 -112.577 2832.255 -3868.080 -1.605 0.403 -0.877 -0.01 0.55 -0.83 0.09
1 7.01 701 1.370 -8.964 4.377 -11.383 10.712 4.181 -112.577 2832.255 -3868.080 -2.047 0.009 -0.455 -0.01 0.55 -0.83 0.08
1 7.02 702 2.404 -8.591 4.204 -7.629 20.722 2.930 -277.619 2697.193 -3958.171 -3.079 -0.369 -0.292 -0.01 0.55 -0.83 0.08
1 7.03 703 2.533 -8.667 3.386 -10.468 47.363 5.157 -277.619 2697.193 -3958.171 -3.204 -0.296 0.518 -0.01 0.55 -0.83 0.08
1 7.04 704 2.299 -8.835 2.682 -9.735 59.082 3.479 -262.629 2712.183 -4003.142 -2.974 -0.135 1.208 -0.01 0.55 -0.83 0.08
1 7.05 705 1.101 -9.232 2.164 -6.500 65.064 1.923 -127.567 2772.144 -3778.139 -1.812 0.246 1.679 -0.01 0.55 -0.83 0.07
1 7.06 706 0.795 -9.386 2.117 -5.798 60.089 -1.404 -67.606 2682.203 -3973.162 -1.528 0.390 1.703 -0 0.55 -0.83 0.07
1 7.07 707 0.029 -9.563 2.648 -4.852 53.986 -3.815 22.186 2817.265 -3883.070 -0.781 0.559 1.148 0 0.55 -0.83 0.07
1 7.08 708 -0.316 -9.888 3.400 -3.937 51.087 -3.784 22.186 2817.265 -3883.070 -0.453 0.877 0.375 0 0.55 -0.83 0.06
1 7.09 709 -0.541 -10.257 3.745 -1.892 48.065 -0.671 67.306 2952.177 -3898.061 -0.247 1.242 0.015 0.01 0.56 -0.83 0.06
1 7.10 710 -1.288 -10.817 3.840 11.810 46.631 8.972 67.306 2952.177 -3898.061 0.474 1.801 -0.087 0.01 0.56 -0.83 0.06
1 7.11 711 -1.853 -10.918 3.462 25.024 43.762 13.489 37.176 2712.183 -3973.162 1.003 1.909 0.300 0.01 0.55 -0.83 0.06
1 7.12 712 -2.251 -10.319 2.811 41.931 32.990 11.810 186.628 2759.852 -3966.416 1.317 1.348 1.021 0.02 0.55 -0.83 0.06
1 7.13 713 -2.313 -10.133 2.605 44.525 29.633 8.484 261.580 2759.852 -3861.484 1.348 1.189 1.283 0.02 0.55 -0.83 0.06
1 7.14 714 -2.327 -9.927 2.227 45.349 19.196 -3.998 126.667 2819.813 -3906.455 1.337 1.007 1.710 0.02 0.55 -0.84 0.05
1 7.15 715 -2.097 -9.668 1.935 37.964 16.663 -9.369 126.667 2819.813 -3906.455 1.095 0.770 2.047 0.03 0.54 -0.84 0.05
1 7.16 716 -1.628 -9.951 2.255 25.421 17.090 -13.123 96.687 2744.712 -3906.455 0.623 1.066 1.757 0.03 0.54 -0.84 0.05
1 7.17 717 -1.077 -10.568 5.311 13.763 10.620 -18.616 96.687 2744.712 -3906.455 0.076 1.690 -1.284 0.03 0.54 -0.84 0.05
1 7.18 718 -1.360 -10.161 6.465 6.195 4.120 -24.719 201.619 2699.741 -4026.377 0.374 1.288 -2.424 0.03 0.54 -0.84 0.05
1 7.19 719 -2.576 -9.544 6.038 12.421 -3.357 -41.199 261.580 2834.803 -3891.465 1.620 0.672 -1.986 0.03 0.54 -0.84 0.05
1 7.20 720 -4.281 -10.904 6.536 7.477 -0.977 -65.460 -38.225 2609.800 -3756.403 3.457 2.036 -2.448 0.02 0.54 -0.84 0.04
1 7.21 721 -5.311 -12.632 7.058 -23.621 -8.057 -67.993 186.628 2684.751 -3786.383 4.580 3.758 -2.965 0.02 0.54 -0.84 0.04
1 7.22 722 -4.932 -13.983 6.575 -63.019 -23.834 -65.033 186.628 2684.751 -3786.383 4.302 5.080 -2.527 0.02 0.54 -0.84 0.03
1 7.23 723 -4.195 -14.280 5.382 -68.512 -29.083 -56.854 171.638 2654.771 -3846.494 3.669 5.331 -1.422 0.01 0.55 -0.84 0.03
1 7.24 724 -3.453 -11.871 4.324 -36.957 -55.023 -25.086 171.638 2654.771 -3846.494 3.019 2.879 -0.451 0.01 0.55 -0.83 0.03
1 7.25 725 -1.432 -9.797 4.616 -22.186 -75.287 -7.141 -23.235 2624.790 -3801.374 1.070 0.779 -0.799 0 0.55 -0.83 0.03
1 7.26 726 0.819 -8.169 4.817 -20.844 -74.494 0.092 -143.157 2834.803 -3861.484 -1.122 -0.864 -1.029 -0 0.55 -0.83 0.03
1 7.27 727 2.782 -6.891 4.745 -7.507 -49.042 5.859 -143.157 2714.731 -3711.432 -2.994 -2.157 -0.986 -0.01 0.56 -0.83 0.04
1 7.28 728 3.232 -6.503 4.506 23.071 -34.882 8.789 -218.258 2864.784 -3681.452 -3.416 -2.543 -0.740 -0.01 0.55 -0.83 0.04
1 7.29 729 3.510 -5.641 4.568 62.226 -21.637 14.496 -217.958 2865.833 -3678.304 -3.688 -3.385 -0.754 -0.02 0.55 -0.83 0.04
1 7.30 730 3.318 -4.607 4.319 99.243 -12.329 24.567 -172.987 2655.820 -3618.193 -3.507 -4.375 -0.403 -0.02 0.55 -0.84 0.04
1 7.31 731 2.509 -3.352 4.942 112.488 -13.733 29.572 -172.987 2655.820 -3618.193 -2.727 -5.564 -0.880 -0.02 0.54 -0.84 0.04
1 7.32 732 1.762 -1.690 6.038 94.391 -11.780 1.678 -128.017 2700.791 -3768.245 -2.007 -7.152 -1.820 -0.01 0.53 -0.84 0.05
1 7.33 733 1.226 -3.074 7.566 59.387 0.641 -8.972 -202.968 2505.768 -3798.226 -1.472 -5.700 -3.208 -0.01 0.53 -0.85 0.05
1 7.34 734 0.445 -4.621 7.901 32.929 12.238 -20.050 -202.968 2505.768 -3798.226 -0.677 -4.107 -3.451 -0.02 0.52 -0.85 0.05
1 7.35 735 -0.206 -7.145 8.600 12.817 10.132 -25.482 -187.978 2535.748 -3813.216 -0.010 -1.557 -4.097 -0.01 0.52 -0.85 0.05
1 7.36 736 -0.958 -10.324 9.486 -3.723 13.245 -17.151 -337.730 2447.006 -3886.068 0.794 1.655 -4.920 -0.02 0.52 -0.86 0.04
1 7.37 737 -1.302 -12.675 9.184 -23.987 19.745 -20.020 -382.701 2506.967 -3976.010 1.155 4.001 -4.627 -0.02 0.52 -0.85 0.04
1 7.38 738 -1.710 -12.613 6.632 -53.925 30.518 -19.562 -382.701 2506.967 -3976.010 1.573 3.917 -2.116 -0.02 0.52 -0.85 0.04
1 7.39 739 -3.002 -12.062 1.925 -43.823 57.068 -27.893 -172.688 2551.938 -3871.078 2.874 3.327 2.516 -0.01 0.52 -0.85 0.04
1 7.40 740 -5.938 -10.846 -3.218 -6.805 36.896 -16.174 -112.727 2447.006 -3810.967 5.814 2.078 7.593 -0.01 0.53 -0.85 0.03
1 7.41 741 -5.756 -9.290 -1.231 26.306 4.700 -15.686 -112.727 2447.006 -3810.967 5.630 0.511 5.584 -0.01 0.53 -0.85 0.03
1 7.42 742 -4.669 -7.729 2.691 39.612 -19.745 14.069 -352.720 2476.986 -3901.059 4.547 -1.017 1.729 -0.01 0.52 -0.85 0.03
1 7.43 743 -3.606 -6.958 4.841 36.926 -26.489 16.693 -352.720 2476.986 -3901.059 3.444 -1.766 -0.379 -0.01 0.52 -0.85 0.03
1 7.44 744 -2.792 -6.479 6.489 25.421 -25.238 23.132 -337.730 2491.977 -3961.020 2.595 -2.217 -1.974 -0.01 0.52 -0.85 0.03
1 7.45 745 -2.294 -6.608 7.853 0.061 -23.560 20.905 -337.730 2491.977 -3961.020 2.064 -2.064 -3.295 -0.01 0.52 -0.86 0.04
1 7.46 746 -1.992 -7.130 8.112 -22.675 -17.456 20.386 -217.808 2447.006 -3810.967 1.736 -1.532 -3.535 -0.01 0.52 -0.86 0.04
1 7.47 747 -1.255 -8.179 6.527 -40.650 -7.507 13.275 -277.769 2476.986 -3976.010 0.984 -0.500 -1.983 -0.01 0.52 -0.85 0.04
1 7.48 748 -0.455 -9.094 4.942 -43.396 -3.662 11.597 -277.769 2476.986 -3976.010 0.162 0.401 -0.426 -0.01 0.52 -0.85 0.04
1 7.49 749 -0.201 -9.381 3.007 -29.480 -1.648 14.496 -397.691 2447.006 -3810.967 -0.123 0.641 1.414 -0.01 0.52 -0.85 0.05
1 7.50 750 -0.081 -9.328 2.471 -17.090 -5.188 18.890 -397.691 2447.006 -3810.967 -0.259 0.567 1.908 -0.01 0.53 -0.85 0.05
1 7.51 751 0.034 -9.161 1.623 -1.465 -17.731 24.628 -262.779 2417.025 -3706.036 -0.393 0.385 2.724 -0.01 0.53 -0.85 0.05
1 7.52 752 0.077 -8.366 2.064 17.090 -35.797 30.884 -262.779 2417.025 -3706.036 -0.454 -0.414 2.273 -0.01 0.53 -0.85 0.05
1 7.53 753 -0.589 -8.629 3.563 32.868 -54.779 27.863 -127.717 2657.019 -3721.026 0.204 -0.138 0.799 -0.01 0.53 -0.85 0.05
1 7.54 754 -1.930 -7.944 5.023 30.335 -56.000 30.945 -307.750 2551.938 -3646.075 1.542 -0.799 -0.613 -0.01 0.52 -0.85 0.06
1 7.55 755 -3.002 -8.212 4.975 20.630 -49.439 29.938 -307.750 2551.938 -3646.075 2.605 -0.506 -0.517 -0.01 0.52 -0.85 0.06
1 7.56 756 -3.721 -8.222 4.089 6.042 -44.922 26.642 -187.828 2447.006 -3856.088 3.279 -0.460 0.435 -0.02 0.52 -0.85 0.07
1 7.57 757 -4.046 -8.394 3.261 1.099 -46.051 28.229 -187.828 2447.006 -3856.088 3.577 -0.280 1.274 -0.02 0.52 -0.85 0.08
1 7.58 758 -3.898 -8.385 2.797 0.519 -53.467 31.098 -397.691 2447.006 -3751.006 3.397 -0.288 1.739 -0.02 0.52 -0.85 0.08
1 7.59 759 -3.199 -8.289 2.308 3.601 -55.695 21.607 -397.691 2447.006 -3751.006 2.672 -0.383 2.225 -0.02 0.52 -0.85 0.09
1 7.60 760 -2.969 -8.088 2.112 5.829 -56.030 16.419 -307.750 2356.915 -3840.948 2.433 -0.584 2.421 -0.02 0.52 -0.85 0.09
1 7.61 761 -2.643 -8.308 1.982 5.280 -57.007 9.796 -307.750 2402.035 -3840.948 2.108 -0.363 2.551 -0.02 0.52 -0.85 0.09
1 7.62 762 -2.457 -8.615 2.480 1.678 -57.862 8.331 -307.750 2402.035 -3840.948 1.931 -0.058 2.053 -0.03 0.52 -0.85 0.1
1 7.63 763 -2.164 -9.103 2.907 -3.571 -59.754 7.355 -472.792 2296.954 -3810.967 1.652 0.428 1.622 -0.03 0.52 -0.85 0.1
1 7.64 764 -1.815 -9.587 3.194 -11.383 -64.453 8.423 -592.714 2296.954 -3886.068 1.341 0.896 1.310 -0.04 0.52 -0.85 0.11
1 7.65 765 -1.331 -9.970 3.505 -10.803 -69.428 9.094 -502.772 2432.016 -3795.977 0.882 1.268 0.979 -0.04 0.52 -0.85 0.11
1 7.66 766 -0.642 -10.157 3.745 -5.096 -72.449 8.606 -502.772 2432.016 -3795.977 0.222 1.444 0.723 -0.04 0.52 -0.85 0.11
1 7.67 767 0.508 -9.927 3.606 4.028 -74.188 7.568 -637.685 2432.016 -3721.026 -0.889 1.211 0.860 -0.05 0.52 -0.85 0.12
1 7.68 768 2.485 -9.893 3.630 20.172 -71.137 1.526 -667.815 2372.055 -3780.987 -2.818 1.179 0.841 -0.05 0.52 -0.84 0.12
1 7.69 769 3.424 -10.334 3.563 33.905 -60.486 -0.366 -667.815 2372.055 -3780.987 -3.696 1.628 0.928 -0.06 0.52 -0.84 0.12
1 7.70 770 4.022 -10.913 3.553 48.035 -46.448 1.709 -757.606 2357.214 -3765.547 -4.249 2.229 0.983 -0.06 0.51 -0.85 0.13
1 7.71 771 3.366 -11.244 4.832 59.937 -24.780 9.796 -712.636 2357.214 -3765.547 -3.540 2.632 -0.157 -0.07 0.51 -0.85 0.13
1 7.72 772 2.605 -11.244 7.959 61.096 -7.690 22.064 -937.639 2432.166 -3720.576 -2.778 2.677 -3.202 -0.07 0.5 -0.85 0.13
1 7.73 773 2.428 -9.338 8.126 31.433 9.796 38.757 -937.639 2432.166 -3720.576 -2.634 0.814 -3.295 -0.07 0.5 -0.85 0.13
1 7.74 774 4.276 -7.719 6.943 -4.639 7.446 53.559 -847.698 2297.253 -3810.518 -4.544 -0.786 -2.083 -0.06 0.5 -0.85 0.14
1 7.75 775 3.649 -9.884 7.949 -27.527 13.458 46.875 -787.587 2087.240 -3645.475 -3.984 1.373 -3.102 -0.06 0.5 -0.85 0.14
1 7.76 776 2.126 -14.232 7.341 -36.194 28.076 44.342 -787.587 2087.240 -3645.475 -2.537 5.701 -2.535 -0.06 0.5 -0.85 0.14
1 7.77 777 1.403 -14.299 6.565 -16.388 34.821 43.457 -862.688 2282.263 -3795.527 -1.891 5.744 -1.809 -0.06 0.5 -0.85 0.15
1 7.78 778 0.374 -12.407 5.684 -1.770 33.630 56.610 -712.636 2402.185 -3870.479 -0.943 3.841 -0.958 -0.05 0.51 -0.85 0.15
1 7.79 779 0.345 -9.955 6.000 8.209 34.821 44.617 -712.636 2282.263 -3795.527 -1.105 1.402 -1.278 -0.04 0.51 -0.85 0.15
1 7.80 780 -1.331 -9.108 6.350 -4.730 36.896 36.011 -712.636 2282.263 -3795.527 0.490 0.565 -1.622 -0.04 0.51 -0.85 0.15
1 7.81 781 -2.351 -8.241 6.259 -30.792 45.288 26.276 -592.714 2297.253 -3885.469 1.439 -0.305 -1.550 -0.04 0.51 -0.85 0.15
1 7.82 782 -3.180 -7.020 5.593 -53.162 49.469 22.125 -592.714 2147.201 -3780.537 2.197 -1.545 -0.933 -0.03 0.51 -0.85 0.15
1 7.83 783 -3.285 -5.344 4.961 -72.052 44.861 24.353 -592.714 2147.201 -3780.537 2.224 -3.251 -0.374 -0.03 0.51 -0.84 0.15
1 7.84 784 -3.472 -4.434 4.731 -70.069 38.117 23.682 -427.671 2237.292 -3795.527 2.348 -4.206 -0.244 -0.03 0.52 -0.84 0.15
1 7.85 785 -3.371 -3.591 5.014 -66.193 28.809 18.677 -532.603 2402.185 -3795.527 2.188 -5.092 -0.627 -0.02 0.52 -0.84 0.15
1 7.86 786 -3.132 -3.453 5.378 -56.030 16.174 8.057 -442.662 2417.175 -3675.605 1.872 -5.308 -1.170 -0.02 0.53 -0.83 0.15
1 7.87 787 -2.677 -3.625 5.655 -51.850 11.902 2.167 -442.662 2417.175 -3675.605 1.400 -5.169 -1.524 -0.02 0.54 -0.83 0.15
1 7.88 788 -2.452 -3.994 6.058 -48.126 10.498 0.458 -457.652 2507.267 -3645.475 1.167 -4.832 -1.996 -0.02 0.54 -0.83 0.15
1 7.89 789 -2.140 -4.520 6.369 -40.924 7.446 1.404 -337.730 2567.228 -3630.485 0.851 -4.334 -2.371 -0.02 0.54 -0.82 0.15
1 7.90 790 -1.791 -5.588 6.704 -27.741 2.502 5.829 -337.730 2567.078 -3630.785 0.496 -3.288 -2.758 -0.02 0.55 -0.82 0.15
1 7.91 791 -0.512 -7.796 7.178 4.944 -10.193 14.710 -442.662 2492.126 -3675.755 -0.795 -1.087 -3.250 -0.02 0.55 -0.82 0.15
1 7.92 792 1.044 -9.649 7.662 35.431 -17.914 23.743 -367.710 2537.097 -3555.833 -2.363 0.780 -3.707 -0.02 0.55 -0.82 0.16
1 7.93 793 2.749 -13.341 7.140 58.106 -30.121 32.623 -397.691 2642.029 -3600.804 -4.106 4.537 -3.055 -0.02 0.54 -0.83 0.16
1 7.94 794 4.061 -14.648 5.354 50.018 -29.816 32.593 -397.691 2642.029 -3600.804 -5.442 5.888 -1.184 -0.02 0.54 -0.83 0.16
1 7.95 795 4.530 -14.639 3.357 40.039 -12.238 28.839 -472.642 2447.006 -3600.804 -5.936 5.916 0.883 -0.02 0.53 -0.83 0.17
1 7.96 796 3.884 -11.689 2.423 37.933 12.878 20.844 -352.720 2507.117 -3510.863 -5.323 2.998 1.871 -0.02 0.53 -0.83 0.17
1 7.97 797 2.533 -7.858 3.137 23.926 32.044 1.678 -352.720 2507.117 -3510.863 -4.005 -0.805 1.203 -0.02 0.53 -0.83 0.17
1 7.98 798 0.579 -5.229 4.870 -29.755 37.323 -28.168 -427.671 2282.113 -3720.876 -2.036 -3.432 -0.523 -0.02 0.53 -0.83 0.17
1 7.99 799 -0.134 -5.540 5.569 -62.897 24.048 -43.823 -337.730 2342.074 -3705.886 -1.315 -3.139 -1.255 -0.02 0.53 -0.83 0.16
1 8.00 800 -0.441 -6.263 5.861 -100.800 3.113 -50.903 -337.730 2447.006 -3555.833 -0.913 -2.525 -1.741 -0.02 0.54 -0.83 0.16
1 8.01 801 -0.316 -6.723 5.689 -107.880 -0.977 -51.270 -337.730 2447.006 -3555.833 -0.968 -2.140 -1.709 -0.02 0.54 -0.82 0.15
1 8.02 802 -0.364 -8.385 4.516 -102.722 -1.770 -46.326 -442.662 2342.074 -3705.886 -0.845 -0.551 -0.677 -0.03 0.55 -0.82 0.15
1 8.03 803 -0.129 -8.854 3.644 -74.585 3.082 -47.058 -397.691 2447.006 -3675.755 -1.009 -0.142 0.073 -0.03 0.56 -0.82 0.15
1 8.04 804 -0.014 -8.935 2.888 -36.072 11.902 -39.581 -397.691 2447.006 -3675.755 -1.057 -0.104 0.742 -0.03 0.56 -0.82 0.14
1 8.05 805 -0.354 -8.198 2.193 19.043 24.170 -17.517 -502.623 2702.140 -3465.892 -0.663 -0.864 1.396 -0.03 0.56 -0.81 0.14
1 8.06 806 0.163 -7.901 2.950 36.835 24.994 -30.853 -472.642 2492.126 -3375.801 -1.154 -1.162 0.644 -0.03 0.56 -0.81 0.14
1 8.07 807 0.081 -8.303 3.462 38.330 36.957 -22.583 -472.642 2492.126 -3375.801 -1.047 -0.744 0.177 -0.03 0.56 -0.82 0.14
1 8.08 808 0.488 -8.366 4.401 36.286 38.727 -28.931 -442.662 2717.130 -3450.752 -1.420 -0.645 -0.661 -0.03 0.56 -0.82 0.13
1 8.09 809 0.963 -8.797 5.095 28.778 41.931 -24.139 -622.694 2642.029 -3525.853 -1.869 -0.196 -1.307 -0.03 0.55 -0.82 0.13
1 8.10 810 1.020 -9.381 5.325 21.301 42.664 -16.724 -502.623 2432.016 -3405.781 -1.905 0.403 -1.496 -0.03 0.55 -0.82 0.12
1 8.11 811 1.666 -9.328 5.038 14.069 37.567 -16.449 -502.623 2432.016 -3405.781 -2.547 0.362 -1.181 -0.03 0.55 -0.83 0.12
1 8.12 812 2.682 -8.763 4.310 -4.395 36.621 -13.397 -397.691 2417.025 -3555.833 -3.543 -0.196 -0.433 -0.03 0.55 -0.83 0.12
1 8.13 813 2.749 -8.236 3.515 -14.923 38.513 -6.928 -427.671 2552.087 -3465.892 -3.587 -0.724 0.363 -0.02 0.55 -0.83 0.12
1 8.14 814 2.988 -7.552 2.916 -25.238 41.199 -9.308 -427.671 2552.087 -3465.892 -3.811 -1.418 0.944 -0.02 0.55 -0.83 0.11
1 8.15 815 2.519 -7.695 2.255 -39.459 53.650 -4.272 -427.671 2477.136 -3435.762 -3.340 -1.311 1.521 -0.02 0.55 -0.83 0.11
1 8.16 816 2.102 -7.925 1.891 -44.617 60.822 -2.289 -352.720 2507.117 -3465.892 -2.950 -1.104 1.822 -0.02 0.56 -0.82 0.1
1 8.17 817 1.666 -8.078 2.054 -47.333 66.925 2.106 -367.710 2492.126 -3675.755 -2.546 -0.976 1.589 -0.02 0.56 -0.82 0.1
1 8.18 818 1.283 -8.447 2.164 -48.554 73.517 5.646 -367.710 2492.126 -3675.755 -2.205 -0.633 1.405 -0.01 0.56 -0.82 0.1
1 8.19 819 0.752 -8.825 2.284 -45.929 78.064 6.226 -337.730 2687.149 -3420.771 -1.721 -0.280 1.208 -0.01 0.57 -0.82 0.1
1 8.20 820 -0.134 -9.587 2.797 -36.102 78.125 2.289 -307.600 2552.087 -3615.794 -0.870 0.455 0.616 -0 0.57 -0.82 0.09
1 8.21 821 -0.824 -10.559 3.041 -24.201 75.989 -0.610 -307.600 2552.087 -3615.794 -0.215 1.405 0.302 0 0.57 -0.81 0.09
1 8.22 822 -1.030 -11.114 3.419 -7.813 74.127 -3.265 -142.707 2492.126 -3495.873 -0.041 1.945 -0.131 0.01 0.58 -0.81 0.09
1 8.23 823 -1.753 -11.880 3.764 14.862 69.916 -1.343 -142.707 2537.097 -3375.801 0.619 2.706 -0.510 0.01 0.58 -0.81 0.08
1 8.24 824 -2.662 -11.809 3.697 29.633 65.827 1.587 -127.717 2507.117 -3585.814 1.497 2.644 -0.428 0.02 0.58 -0.81 0.08
1 8.25 825 -3.706 -11.660 3.275 42.114 57.221 6.805 -127.717 2507.117 -3585.814 2.506 2.513 0.030 0.02 0.58 -0.81 0.07
1 8.26 826 -4.334 -11.133 2.830 48.889 44.037 9.674 -67.606 2537.097 -3495.873 3.097 2.010 0.528 0.03 0.57 -0.82 0.07
1 8.27 827 -4.118 -10.166 2.423 43.274 21.973 3.571 -52.616 2582.068 -3540.843 2.848 1.071 0.997 0.03 0.57 -0.82 0.07
1 8.28 828 -3.122 -9.984 2.351 33.569 13.123 -4.883 -52.616 2582.068 -3540.843 1.831 0.914 1.129 0.03 0.57 -0.82 0.07
1 8.29 829 -2.227 -9.644 2.279 21.851 9.796 -9.186 -22.635 2552.087 -3510.863 0.933 0.593 1.249 0.03 0.56 -0.82 0.07
1 8.30 830 -1.168 -9.625 3.046 10.407 12.726 -12.909 37.176 2612.048 -3555.833 -0.124 0.586 0.514 0.03 0.56 -0.82 0.07
1 8.31 831 -0.666 -9.759 4.449 10.132 15.076 -16.663 7.195 2372.055 -3555.833 -0.614 0.721 -0.882 0.03 0.56 -0.82 0.07
1 8.32 832 -0.551 -9.524 5.440 5.188 15.198 -20.874 7.195 2372.055 -3555.833 -0.707 0.489 -1.860 0.03 0.56 -0.82 0.07
1 8.33 833 -1.235 -8.773 5.928 -2.167 10.925 -28.259 22.186 2432.016 -3615.794 0.002 -0.265 -2.346 0.03 0.56 -0.82 0.06
1 8.34 834 -1.949 -8.696 6.029 -9.094 6.073 -42.114 22.186 2582.068 -3615.794 0.756 -0.346 -2.444 0.03 0.56 -0.82 0.06
1 8.35 835 -2.514 -10.779 6.469 -29.236 11.993 -54.718 22.186 2582.068 -3615.794 1.376 1.730 -2.884 0.03 0.56 -0.82 0.06
1 8.36 836 -2.777 -13.039 5.641 -46.021 17.761 -57.800 127.117 2477.136 -3585.814 1.709 3.968 -2.091 0.03 0.56 -0.82 0.06
1 8.37 837 -2.457 -15.137 4.353 -32.837 22.553 -50.018 -37.476 2446.106 -3602.753 1.531 6.000 -0.931 0.02 0.57 -0.82 0.05
1 8.38 838 -1.939 -14.706 3.807 14.160 21.942 -31.891 -97.437 2401.136 -3587.763 1.068 5.552 -0.418 0.02 0.57 -0.82 0.04
1 8.39 839 -1.374 -12.915 3.352 60.852 11.322 -15.503 -97.437 2401.136 -3587.763 0.531 3.772 0.073 0.02 0.57 -0.82 0.04
1 8.40 840 -0.575 -10.779 3.864 97.046 -7.904 -6.897 37.326 2446.106 -3497.671 -0.252 1.673 -0.339 0.02 0.57 -0.82 0.04
1 8.41 841 0.110 -8.744 4.607 116.272 -17.487 -4.578 -67.456 2341.175 -3527.802 -0.920 -0.306 -0.934 0.02 0.56 -0.83 0.04
1 8.42 842 1.025 -6.220 5.660 112.427 -17.944 -4.700 -67.456 2341.175 -3527.802 -1.810 -2.760 -1.816 0.02 0.55 -0.83 0.04
1 8.43 843 1.183 -4.851 5.885 88.837 -9.430 -3.906 -37.476 2266.074 -3497.671 -1.937 -4.056 -1.867 0.02 0.54 -0.84 0.04
1 8.44 844 0.589 -3.381 6.086 33.600 2.289 -9.277 -112.427 2296.054 -3707.685 -1.319 -5.425 -1.847 0.02 0.53 -0.85 0.04
1 8.45 845 0.259 -3.635 6.254 20.355 10.925 -10.559 -112.427 2296.054 -3707.685 -0.989 -5.171 -2.014 0.02 0.53 -0.85 0.04
1 8.46 846 -1.058 -4.338 5.938 -2.441 27.252 -33.295 -142.257 2067.903 -3637.380 0.351 -4.446 -1.652 0.02 0.53 -0.85 0.04
1 8.47 847 -1.891 -5.674 6.120 -11.444 36.469 -40.894 -67.306 2217.805 -3712.481 1.216 -3.117 -1.844 0.02 0.53 -0.85 0.03
1 8.48 848 -2.648 -6.177 5.861 -7.202 38.635 -38.941 -67.306 2187.825 -3817.413 2.003 -2.625 -1.602 0.02 0.53 -0.85 0.03
1 8.49 849 -3.132 -7.906 5.809 3.448 22.888 -37.415 -67.306 2187.825 -3817.413 2.508 -0.898 -1.550 0.02 0.53 -0.85 0.03
1 8.50 850 -2.844 -8.394 6.043 3.021 14.160 -27.618 -127.267 2127.864 -3697.491 2.237 -0.403 -1.768 0.02 0.53 -0.85 0.02
1 8.51 851 -2.615 -10.008 5.761 -4.608 11.902 -31.220 -127.267 2127.864 -3697.491 2.028 1.215 -1.475 0.02 0.53 -0.85 0.02
1 8.52 852 -2.902 -10.640 4.353 -19.898 16.144 -21.179 -127.267 2127.864 -3772.442 2.371 1.835 -0.083 0.02 0.53 -0.85 0.02
1 8.53 853 -3.429 -10.597 2.787 -18.890 17.242 -14.557 -127.267 2127.864 -3772.442 2.913 1.778 1.456 0.02 0.53 -0.85 0.02
1 8.54 854 -2.792 -10.439 1.662 0.336 16.357 -18.890 -67.306 2187.825 -3712.481 2.287 1.610 2.561 0.02 0.53 -0.85 0.01
1 8.55 855 -2.097 -10.698 1.504 29.175 21.210 -12.116 -202.368 2157.844 -3592.410 1.607 1.872 2.729 0.02 0.53 -0.85 0.01
1 8.56 856 -1.777 -9.477 3.017 58.838 20.325 -5.341 -202.368 2157.844 -3592.410 1.289 0.675 1.266 0.02 0.53 -0.85 0.01
1 8.57 857 -1.959 -8.629 4.382 50.110 17.670 0.153 -67.306 2292.906 -3787.433 1.459 -0.143 -0.041 0.02 0.53 -0.85 0.01
1 8.58 858 -1.882 -7.911 5.622 25.910 14.648 1.648 -67.306 2292.906 -3787.433 1.360 -0.828 -1.218 0.03 0.52 -0.85 0.01
1 8.59 859 -1.944 -6.843 6.187 -13.001 6.714 9.460 -37.326 2022.782 -3757.452 1.370 -1.859 -1.716 0.03 0.52 -0.85 0.01
1 8.60 860 -1.647 -7.145 5.943 -34.088 6.378 10.590 -37.326 2022.782 -3757.452 1.046 -1.560 -1.481 0.03 0.52 -0.85 0.01
1 8.61 861 -1.786 -7.188 5.239 -45.471 9.979 12.116 7.495 2067.903 -3712.481 1.157 -1.533 -0.812 0.03 0.52 -0.85 0.01
1 8.62 862 -1.518 -7.537 4.243 -49.164 11.261 6.653 -37.326 2112.874 -3787.433 0.860 -1.207 0.132 0.03 0.53 -0.85 0.01
1 8.63 863 -1.207 -8.088 3.362 -40.589 13.306 3.967 -37.326 2112.874 -3787.433 0.529 -0.686 0.952 0.03 0.53 -0.85 0.01
1 8.64 864 -1.393 -8.768 2.586 -11.841 12.604 5.310 52.466 2202.815 -3847.394 0.700 -0.029 1.677 0.03 0.53 -0.85 0.01
1 8.65 865 -1.489 -9.050 2.533 8.911 7.141 6.439 52.466 2202.815 -3847.394 0.776 0.240 1.699 0.03 0.53 -0.85 0.01
1 8.66 866 -1.652 -9.223 2.907 29.022 -0.336 6.928 -22.335 2127.864 -3727.472 0.921 0.412 1.320 0.04 0.53 -0.85 0.01
1 8.67 867 -1.609 -9.352 3.917 49.530 -13.763 -7.996 22.485 2157.844 -3802.423 0.857 0.577 0.381 0.04 0.53 -0.85 0.02
1 8.68 868 -2.519 -9.122 4.338 43.549 -11.963 -0.671 -37.326 2142.854 -3787.433 1.778 0.378 0.024 0.03 0.53 -0.85 0.02
1 8.69 869 -3.223 -9.252 4.726 23.804 -11.078 -3.815 -22.335 2052.763 -3847.394 2.483 0.533 -0.312 0.03 0.52 -0.85 0.02
1 8.70 870 -3.812 -9.098 4.535 0.092 -11.871 -3.418 -22.335 2052.763 -3847.394 3.078 0.393 -0.094 0.03 0.52 -0.85 0.02
1 8.71 871 -3.611 -8.864 4.080 -21.057 -14.099 -7.141 22.485 2007.792 -3772.442 2.880 0.156 0.357 0.03 0.52 -0.85 0.02
1 8.72 872 -3.127 -8.844 3.888 -22.247 -15.564 -13.184 22.485 2007.792 -3772.442 2.400 0.125 0.525 0.03 0.52 -0.85 0.02
1 8.73 873 -2.744 -8.591 3.663 -19.928 -15.717 -17.609 7.495 1992.802 -3892.364 2.024 -0.145 0.720 0.03 0.52 -0.85 0.02
1 8.74 874 -2.126 -8.366 3.414 -15.015 -16.876 -23.041 -52.316 2082.893 -3802.423 1.448 -0.399 0.917 0.03 0.53 -0.85 0.02
1 8.75 875 -1.647 -8.423 3.591 -12.207 -16.541 -23.529 112.577 2142.854 -3892.364 1.000 -0.354 0.719 0.03 0.53 -0.85 0.02
1 8.76 876 -1.346 -8.648 3.879 -8.911 -15.717 -21.545 -307.300 2007.792 -3802.423 0.732 -0.139 0.416 0.02 0.53 -0.85 0.02
1 8.77 877 -0.953 -8.629 4.089 -3.906 -14.740 -17.944 -307.300 2007.792 -3802.423 0.372 -0.165 0.196 0.02 0.53 -0.85 0.02
1 8.78 878 -0.618 -8.586 4.496 2.167 -14.862 -12.024 52.466 2082.893 -3847.394 0.066 -0.211 -0.213 0.02 0.53 -0.85 0.02
1 8.79 879 -0.057 -8.428 4.966 6.683 -17.395 -4.517 52.466 2082.893 -3847.394 -0.470 -0.366 -0.673 0.02 0.53 -0.85 0.02
1 8.80 880 0.359 -8.299 5.157 7.507 -18.219 -1.434 -217.358 2142.854 -3862.384 -0.866 -0.489 -0.849 0.02 0.53 -0.85 0.02
1 8.81 881 0.886 -8.433 4.789 6.775 -18.066 -1.648 -232.349 2157.844 -3697.491 -1.350 -0.339 -0.444 0.01 0.53 -0.85 0.02
1 8.82 882 0.939 -8.595 4.659 9.064 -15.198 -2.716 -187.378 2022.782 -3682.351 -1.379 -0.169 -0.297 0.01 0.53 -0.85 0.02
1 8.83 883 0.771 -8.777 4.209 12.970 -11.169 -2.960 -187.378 1992.802 -3757.452 -1.187 0.021 0.172 0.01 0.53 -0.85 0.02
1 8.84 884 0.292 -8.782 4.042 18.982 -7.202 -4.150 -187.378 1992.802 -3757.452 -0.686 0.035 0.360 0.01 0.52 -0.85 0.02
1 8.85 885 -0.053 -8.758 3.759 23.682 -4.578 -5.280 -217.358 2112.874 -3817.413 -0.324 0.024 0.670 0.01 0.52 -0.85 0.02
1 8.86 886 -0.891 -8.749 3.845 26.856 -3.387 -7.690 -217.358 2112.874 -3817.413 0.529 0.030 0.614 0.01 0.52 -0.85 0.02
1 8.87 887 -1.619 -8.969 4.602 24.445 -3.632 -8.179 -187.378 1947.831 -3937.485 1.269 0.266 -0.110 0.01 0.52 -0.85 0.02
1 8.88 888 -2.006 -8.385 6.235 9.399 -5.157 -7.233 -292.310 1947.831 -3862.384 1.669 -0.287 -1.683 0.01 0.52 -0.86 0.02
1 8.89 889 -1.920 -8.045 6.283 3.571 -3.998 -7.996 -217.358 2022.782 -3892.364 1.584 -0.618 -1.712 0.01 0.52 -0.86 0.02
1 8.90 890 -1.135 -6.838 6.963 -13.001 -4.547 -4.395 -127.267 1902.860 -3877.374 0.800 -1.820 -2.385 0.01 0.52 -0.86 0.02
1 8.91 891 -0.723 -7.719 6.824 -36.286 -0.610 1.465 -127.267 1902.860 -3877.374 0.387 -0.942 -2.250 0.01 0.52 -0.86 0.02
1 8.92 892 -0.029 -9.951 6.512 -61.707 3.296 4.974 -277.319 1812.769 -3802.423 -0.313 1.270 -1.977 0.01 0.52 -0.85 0.02
1 8.93 893 0.819 -13.638 5.473 -60.150 14.526 1.160 -277.319 1812.769 -3802.423 -1.171 4.913 -1.024 0.01 0.52 -0.85 0.02
1 8.94 894 0.120 -14.634 4.913 -24.323 22.614 0.122 -262.329 1992.802 -3967.465 -0.482 5.866 -0.550 0.01 0.53 -0.85 0.02
1 8.95 895 -1.020 -13.614 5.038 10.376 26.611 0.275 -232.349 1857.890 -3847.394 0.645 4.824 -0.720 0.01 0.53 -0.85 0.02
1 8.96 896 -1.858 -10.013 4.990 43.091 39.856 -4.852 -187.378 2022.782 -3817.413 1.448 1.246 -0.630 0.01 0.53 -0.85 0.02
1 8.97 897 -1.997 -7.619 5.536 45.380 42.297 -7.080 -127.267 1932.841 -3727.472 1.568 -1.118 -1.116 0.01 0.52 -0.85 0.02
1 8.98 898 -2.203 -5.938 5.818 31.555 35.614 -10.956 -127.267 1932.841 -3727.472 1.746 -2.765 -1.336 0.02 0.52 -0.85 0.02
1 8.99 899 -1.944 -5.066 6.249 7.355 24.658 -15.869 -217.358 2067.903 -3862.384 1.476 -3.615 -1.727 0.02 0.52 -0.85 0.02
1 9.00 900 -1.417 -5.363 6.685 -24.017 14.282 -27.100 -217.358 2067.903 -3862.384 0.958 -3.318 -2.162 0.02 0.52 -0.85 0.01
1 9.01 901 -0.723 -5.890 6.608 -36.316 14.038 -28.504 -217.358 1992.802 -3817.413 0.288 -2.806 -2.111 0.02 0.52 -0.85 0.01
1 9.02 902 -0.196 -6.417 6.278 -37.689 15.533 -18.433 -22.335 1902.860 -3847.394 -0.209 -2.304 -1.825 0.02 0.52 -0.85 0.01
1 9.03 903 1.269 -6.613 6.120 -17.883 10.925 -10.223 -52.316 1932.841 -3952.475 -1.648 -2.135 -1.719 0.02 0.52 -0.85 0.01
1 9.04 904 2.418 -7.312 6.311 2.167 12.238 -7.690 -67.306 2067.903 -3967.465 -2.780 -1.436 -1.910 0.02 0.52 -0.85 0.01
1 9.05 905 3.189 -7.403 6.225 18.555 20.783 -1.892 -67.306 2067.903 -3967.465 -3.533 -1.333 -1.798 0.02 0.52 -0.85 0
1 9.06 906 3.596 -8.457 6.149 32.288 31.250 -8.087 -187.378 2067.903 -3937.485 -3.924 -0.257 -1.676 0.02 0.52 -0.85 0
1 9.07 907 3.553 -9.275 5.674 41.016 39.368 -0.488 -187.378 2067.903 -3937.485 -3.880 0.589 -1.149 0.02 0.52 -0.85 0
1 9.08 908 3.860 -10.430 5.243 52.338 44.525 -9.857 7.495 1992.802 -3817.413 -4.212 1.774 -0.662 -0.02 -0.52 0.86 0
1 9.09 909 3.510 -10.856 5.263 53.620 50.324 -1.770 7.495 1842.899 -3892.364 -3.882 2.236 -0.614 -0.02 -0.51 0.86 0
1 9.10 910 3.472 -9.826 5.449 44.556 48.004 -13.306 7.495 1842.899 -3892.364 -3.872 1.246 -0.731 -0.03 -0.51 0.86 0.01
1 9.11 911 3.333 -9.189 6.220 4.486 59.662 -30.426 142.557 1872.880 -3937.485 -3.760 0.663 -1.407 -0.03 -0.5 0.86 0.01
1 9.12 912 2.677 -8.672 6.134 -19.409 67.108 -41.565 142.557 1872.880 -3937.485 -3.107 0.143 -1.327 -0.03 -0.5 0.86 0.02
1 9.13 913 2.155 -8.816 5.856 -27.710 71.991 -54.291 7.495 1797.779 -3892.364 -2.575 0.268 -1.081 -0.04 -0.5 0.86 0.02
1 9.14 914 1.599 -8.754 5.718 -28.565 72.083 -59.632 7.495 1797.779 -3892.364 -1.998 0.183 -0.983 -0.04 -0.51 0.86 0.03
1 9.15 915 0.967 -8.342 4.985 -22.949 66.742 -61.310 202.518 1812.769 -3877.374 -1.322 -0.249 -0.283 -0.04 -0.51 0.86 0.03
1 9.16 916 0.723 -8.284 4.817 -19.135 62.866 -59.662 142.557 1842.899 -3937.485 -1.032 -0.324 -0.145 -0.04 -0.51 0.86 0.04
1 9.17 917 0.464 -8.275 4.267 -17.853 63.965 -56.763 142.557 1842.899 -3937.485 -0.729 -0.349 0.381 -0.04 -0.51 0.86 0.05
1 9.18 918 0.163 -8.141 3.524 -9.705 63.660 -52.063 172.538 1977.812 -3907.354 -0.356 -0.509 1.079 -0.05 -0.51 0.86 0.06
1 9.19 919 -0.077 -7.906 3.204 -1.190 63.324 -52.277 172.538 1977.812 -3907.354 -0.089 -0.751 1.386 -0.05 -0.51 0.85 0.07
1 9.20 920 -0.062 -7.729 3.462 5.005 64.545 -53.894 112.577 1872.880 -3817.413 -0.078 -0.929 1.128 -0.05 -0.51 0.85 0.07
1 9.21 921 0.096 -7.638 3.802 9.399 68.085 -56.336 112.577 1872.880 -3817.413 -0.209 -1.015 0.797 -0.05 -0.51 0.85 0.08
1 9.22 922 0.570 -7.465 4.358 10.376 73.151 -58.136 337.880 1991.752 -3894.013 -0.655 -1.180 0.256 -0.06 -0.51 0.85 0.08
1 9.23 923 1.255 -7.537 5.287 7.202 81.177 -59.082 277.919 1976.762 -3879.023 -1.314 -1.101 -0.660 -0.06 -0.51 0.85 0.09
1 9.24 924 1.930 -7.633 5.502 4.639 84.839 -59.632 277.919 1976.762 -3879.023 -1.959 -0.997 -0.859 -0.06 -0.51 0.85 0.1
1 9.25 925 2.763 -8.351 5.521 3.235 90.943 -58.533 382.851 2051.713 -3909.003 -2.728 -0.262 -0.847 -0.06 -0.51 0.85 0.11
1 9.26 926 2.136 -9.170 5.052 8.087 94.269 -31.159 382.851 2051.713 -3909.003 -2.073 0.564 -0.364 -0.07 -0.51 0.85 0.12
1 9.27 927 2.749 -8.519 4.937 17.304 80.902 -42.420 517.913 1856.690 -3849.042 -2.700 -0.078 -0.233 -0.07 -0.5 0.85 0.12
1 9.28 928 4.118 -8.950 4.880 18.127 83.893 -48.401 517.913 1856.690 -3849.042 -4.048 0.368 -0.148 -0.07 -0.5 0.85 0.13
1 9.29 929 4.003 -8.720 4.664 13.123 96.192 -48.737 532.903 1841.700 -3758.951 -3.919 0.153 0.094 -0.08 -0.5 0.85 0.14
1 9.30 930 2.140 -9.414 4.291 4.669 109.681 -40.192 622.844 1901.661 -3849.042 -2.048 0.857 0.484 -0.08 -0.5 0.85 0.15
1 9.31 931 1.331 -9.271 3.955 0.854 110.169 -39.581 622.844 1901.661 -3849.042 -1.252 0.717 0.826 -0.09 -0.5 0.85 0.15
1 9.32 932 0.498 -9.189 3.625 -8.942 110.993 -36.408 697.795 1976.762 -3698.990 -0.453 0.629 1.146 -0.1 -0.5 0.85 0.17
1 9.33 933 0.101 -9.065 3.587 -10.773 110.230 -36.224 697.795 1976.762 -3698.990 -0.083 0.494 1.165 -0.1 -0.5 0.84 0.17
1 9.34 934 -0.651 -9.094 3.318 -10.315 108.063 -42.175 727.926 1916.651 -3864.033 0.640 0.510 1.411 -0.11 -0.5 0.84 0.18
1 9.35 935 -0.560 -8.988 3.251 -7.416 108.765 -47.150 727.926 1916.651 -3864.033 0.526 0.394 1.457 -0.11 -0.5 0.84 0.19
1 9.36 936 -0.623 -8.979 3.390 -1.709 112.427 -49.011 743.666 2005.094 -3776.340 0.569 0.375 1.302 -0.12 -0.5 0.84 0.19
1 9.37 937 -0.833 -8.663 3.582 8.148 117.066 -46.631 833.607 2020.084 -3641.278 0.760 0.054 1.102 -0.12 -0.5 0.84 0.2
1 9.38 938 -0.781 -8.595 3.951 16.663 118.714 -44.098 833.607 2020.084 -3641.278 0.682 -0.012 0.733 -0.13 -0.49 0.83 0.21
1 9.39 939 -0.374 -8.586 4.401 24.353 118.287 -41.535 923.698 1929.993 -3626.288 0.245 -0.015 0.296 -0.13 -0.49 0.83 0.21
1 9.40 940 0.014 -8.318 4.501 26.825 116.394 -38.757 1088.591 1915.002 -3761.200 -0.210 -0.250 0.252 -0.15 -0.49 0.83 0.23
1 9.41 941 0.397 -8.380 4.631 24.750 113.251 -38.391 1028.630 2154.996 -3596.307 -0.625 -0.170 0.154 -0.15 -0.48 0.83 0.23
1 9.42 942 0.589 -8.591 4.453 22.064 109.009 -38.330 1028.630 2154.996 -3596.307 -0.844 0.058 0.359 -0.16 -0.48 0.83 0.24
1 9.43 943 0.694 -8.667 4.334 19.348 106.995 -37.781 1195.621 1791.633 -3645.325 -0.973 0.148 0.502 -0.16 -0.48 0.83 0.25
1 9.44 944 1.111 -8.864 3.793 10.834 108.429 -39.185 1330.683 2001.646 -3525.253 -1.411 0.355 1.061 -0.16 -0.47 0.83 0.25
1 9.45 945 1.322 -9.041 3.601 3.998 111.206 -41.077 1330.683 2001.646 -3525.253 -1.641 0.537 1.260 -0.17 -0.47 0.82 0.26
1 9.46 946 1.365 -9.357 3.395 0.275 116.700 -41.748 1345.673 1941.685 -3570.224 -1.702 0.852 1.462 -0.17 -0.47 0.82 0.27
1 9.47 947 0.982 -9.663 3.280 3.052 124.726 -41.779 1465.595 1941.685 -3570.224 -1.358 1.144 1.548 -0.18 -0.47 0.82 0.28
1 9.48 948 0.570 -9.501 3.381 7.813 127.716 -41.535 1510.716 1851.594 -3480.283 -0.973 0.975 1.435 -0.19 -0.47 0.81 0.29
1 9.49 949 0.354 -9.347 3.692 10.681 130.799 -39.826 1510.716 1851.594 -3480.283 -0.790 0.819 1.116 -0.2 -0.46 0.81 0.3
1 9.50 950 0.053 -9.103 4.042 12.512 133.179 -38.452 1480.585 1926.695 -3345.221 -0.526 0.575 0.764 -0.2 -0.46 0.81 0.3
1 9.51 951 -0.091 -8.758 4.075 10.712 133.942 -35.462 1645.628 2061.607 -3570.224 -0.426 0.233 0.731 -0.21 -0.46 0.81 0.31
1 9.52 952 -0.263 -8.476 4.037 11.719 127.076 -30.029 1645.928 2061.307 -3570.824 -0.303 -0.047 0.768 -0.22 -0.46 0.8 0.32
1 9.53 953 -0.215 -8.528 4.089 16.052 123.200 -28.595 1706.039 2046.317 -3420.771 -0.402 0.009 0.715 -0.22 -0.45 0.8 0.32
1 9.54 954 -0.369 -8.279 4.195 21.820 117.920 -32.227 1825.960 1866.284 -3465.742 -0.299 -0.234 0.613 -0.23 -0.45 0.8 0.33
1 9.55 955 -0.776 -8.131 4.477 33.081 121.399 -38.086 1976.013 1986.356 -3180.778 0.028 -0.356 0.365 -0.24 -0.44 0.79 0.34
1 9.56 956 -1.101 -8.323 4.674 38.239 126.801 -41.046 1976.013 1986.356 -3180.778 0.316 -0.144 0.199 -0.24 -0.44 0.79 0.35
1 9.57 957 -1.173 -8.126 5.018 41.443 132.264 -46.478 1901.062 1941.235 -3255.729 0.344 -0.316 -0.111 -0.25 -0.43 0.79 0.36
1 9.58 958 -1.264 -8.682 5.560 44.464 133.667 -46.967 2065.954 1926.245 -3345.820 0.394 0.267 -0.612 -0.25 -0.43 0.79 0.36
1 9.59 959 -1.427 -9.299 6.216 49.896 125.550 -50.934 2067.153 1925.046 -3347.169 0.514 0.915 -1.224 -0.26 -0.42 0.79 0.37
1 9.60 960 -1.389 -9.558 6.757 50.751 121.766 -51.483 2067.153 2000.147 -3092.186 0.440 1.206 -1.718 -0.26 -0.42 0.78 0.38
1 9.61 961 -1.949 -10.123 6.757 48.279 117.035 -50.781 2202.215 1835.104 -3002.244 0.972 1.804 -1.670 -0.27 -0.41 0.78 0.39
1 9.62 962 -2.643 -10.760 6.350 47.516 115.906 -61.341 2127.114 1865.085 -2957.124 1.619 2.502 -1.174 -0.27 -0.4 0.78 0.4
1 9.63 963 -3.682 -10.889 5.607 46.387 119.507 -61.646 2127.114 1865.085 -2957.124 2.643 2.660 -0.388 -0.28 -0.4 0.77 0.41
1 9.64 964 -4.698 -11.109 5.109 43.915 119.660 -65.064 2292.157 1895.065 -3017.234 3.642 2.908 0.149 -0.28 -0.39 0.77 0.42
1 9.65 965 -4.942 -10.750 4.635 41.168 115.326 -65.155 2412.229 1940.186 -2957.124 3.873 2.573 0.659 -0.28 -0.39 0.77 0.43
1 9.66 966 -4.013 -9.630 4.568 43.579 110.047 -73.273 2412.229 1940.186 -2957.124 2.934 1.476 0.760 -0.29 -0.38 0.76 0.43
1 9.67 967 -2.677 -8.145 4.870 44.251 106.537 -72.541 2490.478 1862.087 -2885.320 1.603 0.016 0.497 -0.29 -0.38 0.76 0.44
1 9.68 968 -2.356 -6.929 5.167 35.034 107.331 -69.489 2460.497 1862.087 -2855.340 1.278 -1.175 0.237 -0.29 -0.37 0.76 0.45
1 9.69 969 -1.537 -6.096 5.153 11.292 116.516 -61.829 2550.588 1847.097 -2765.398 0.431 -1.977 0.292 -0.3 -0.36 0.75 0.46
1 9.70 970 -1.235 -5.991 4.851 -2.594 125.183 -53.986 2550.588 1847.097 -2765.398 0.105 -2.086 0.584 -0.3 -0.36 0.75 0.47
1 9.71 971 -1.336 -6.278 4.453 -9.949 130.066 -44.800 2475.487 1892.067 -2765.398 0.165 -1.811 0.954 -0.31 -0.36 0.74 0.48
1 9.72 972 -1.384 -6.800 4.051 -10.559 131.623 -41.565 2655.520 1892.067 -2585.366 0.160 -1.305 1.320 -0.32 -0.35 0.74 0.48
1 9.73 973 -1.729 -7.456 3.591 -1.556 128.907 -38.422 2655.520 1892.067 -2585.366 0.447 -0.663 1.745 -0.32 -0.35 0.73 0.49
1 9.74 974 -2.303 -8.011 3.352 24.384 119.110 -39.093 2730.471 1967.019 -2540.395 0.966 -0.113 1.962 -0.33 -0.35 0.73 0.49
1 9.75 975 -2.720 -8.078 3.639 41.870 110.169 -41.443 2685.500 2057.110 -2570.375 1.333 -0.038 1.676 -0.33 -0.34 0.72 0.5
1 9.76 976 -2.868 -8.150 4.166 50.965 101.899 -46.753 2685.500 2057.110 -2570.375 1.432 0.052 1.162 -0.34 -0.34 0.72 0.5
1 9.77 977 -2.864 -8.394 4.899 48.889 96.100 -54.260 2810.369 1993.551 -2333.830 1.360 0.351 0.495 -0.34 -0.33 0.71 0.52
1 9.78 978 -2.978 -8.706 4.994 38.361 96.588 -56.214 2855.340 2038.522 -2363.810 1.453 0.688 0.430 -0.35 -0.32 0.71 0.52
1 9.79 979 -3.189 -8.768 4.908 23.346 98.175 -55.573 2870.330 2173.584 -2423.921 1.642 0.765 0.532 -0.35 -0.32 0.71 0.53
1 9.80 980 -3.347 -8.859 4.492 8.637 97.748 -54.627 2870.330 2173.584 -2423.921 1.776 0.857 0.944 -0.35 -0.31 0.7 0.53
1 9.81 981 -3.414 -8.715 4.176 -1.892 95.032 -52.002 2885.320 1963.571 -2288.859 1.818 0.703 1.237 -0.36 -0.31 0.7 0.54
1 9.82 982 -3.371 -8.528 4.252 -2.197 95.734 -48.615 2810.369 2188.574 -2108.826 1.748 0.499 1.127 -0.36 -0.31 0.69 0.54
1 9.83 983 -3.285 -8.131 4.329 1.678 97.870 -46.662 2810.369 2188.574 -2108.826 1.632 0.084 1.015 -0.37 -0.31 0.69 0.55
1 9.84 984 -2.983 -7.858 4.774 8.606 98.572 -47.424 2855.340 2218.555 -2078.846 1.265 -0.210 0.517 -0.37 -0.3 0.68 0.56
1 9.85 985 -3.146 -7.643 5.057 9.583 98.542 -48.157 2975.412 2248.535 -2063.855 1.397 -0.430 0.217 -0.38 -0.3 0.67 0.56
1 9.86 986 -3.093 -7.609 5.018 8.575 98.664 -49.957 2960.421 2068.502 -1928.943 1.316 -0.467 0.240 -0.38 -0.29 0.67 0.57
1 9.87 987 -3.074 -7.858 4.822 9.094 98.145 -52.643 2966.268 2064.605 -1932.541 1.270 -0.223 0.421 -0.39 -0.29 0.67 0.57
1 9.88 988 -2.801 -8.260 4.535 12.695 96.772 -59.784 2741.264 2334.729 -1932.541 0.976 0.174 0.691 -0.39 -0.29 0.66 0.58
1 9.89 989 -2.600 -8.619 4.544 19.592 94.971 -65.338 2966.268 2379.700 -1752.508 0.762 0.526 0.666 -0.39 -0.28 0.66 0.58
1 9.90 990 -2.476 -9.070 4.602 28.198 93.537 -70.618 2966.268 2379.700 -1752.508 0.634 0.971 0.600 -0.4 -0.28 0.65 0.59
1 9.91 991 -2.586 -9.295 4.937 41.443 91.309 -76.782 2861.336 2259.628 -1677.557 0.764 1.200 0.279 -0.4 -0.27 0.64 0.6
1 9.92 992 -2.643 -9.098 5.325 44.403 91.614 -79.285 2984.256 2468.442 -1814.118 0.845 1.017 -0.081 -0.4 -0.27 0.63 0.6
1 9.93 993 -2.619 -8.935 5.694 41.840 90.210 -82.001 2984.256 2618.344 -1559.134 0.848 0.869 -0.418 -0.4 -0.26 0.63 0.61
1 9.94 994 -2.753 -8.572 5.856 35.248 88.806 -82.703 2984.256 2618.344 -1559.134 1.011 0.516 -0.554 -0.4 -0.26 0.62 0.62
1 9.95 995 -2.600 -8.117 5.770 25.726 89.325 -83.527 2834.204 2513.413 -1589.115 0.885 0.067 -0.450 -0.4 -0.26 0.62 0.63
1 9.96 996 -2.710 -8.117 5.382 12.909 89.600 -81.421 2879.174 2468.442 -1379.102 1.019 0.067 -0.054 -0.4 -0.25 0.61 0.63
1 9.97 997 -2.888 -8.011 5.033 8.850 89.569 -77.851 2885.470 2465.744 -1382.100 1.217 -0.045 0.292 -0.41 -0.25 0.6 0.64
1 9.98 998 -3.007 -8.222 4.678 9.674 88.837 -74.829 3050.363 2450.753 -1502.171 1.354 0.155 0.635 -0.41 -0.25 0.6 0.64
1 9.99 999 -3.400 -8.045 4.281 19.928 86.396 -70.740 2885.470 2690.747 -1412.080 1.767 -0.040 1.011 -0.41 -0.24 0.59 0.65
