COL1	TIME	ACC_X	ACC_Y	ACC_Z	GYR_X	GYR_Y	GYR_Z	MAG_X	MAG_Y	MAG_Z	LACC_X	LACC_Y	LACC_Z	QUAT_X	QUAT_Y	QUAT_Z	QUAT_W
1 0.00 0 0.062 -9.893 1.403 -0.732 1.678 0.366 -254.984 -374.906 -2789.982 0.029 0.191 -0.024 -0.03 0.65 -0.75 0.02
1 0.01 1 0.081 -9.821 1.293 -0.549 1.404 0.793 -254.984 -374.906 -2789.982 0.010 0.119 0.087 -0.03 0.65 -0.75 0.02
1 0.02 2 0.211 -9.812 1.259 -1.495 2.380 1.190 -179.883 -224.854 -2714.881 -0.119 0.110 0.120 -0.03 0.65 -0.75 0.02
1 0.03 3 0.187 -9.668 1.432 -1.892 2.625 0.793 -179.883 -224.854 -2714.881 -0.096 -0.034 -0.053 -0.03 0.65 -0.75 0.02
1 0.04 4 0.029 -9.711 1.259 -2.197 2.747 1.251 -209.863 -299.955 -2864.934 0.062 0.009 0.116 -0.03 0.66 -0.75 0.02
1 0.05 5 0.096 -9.793 1.379 -2.533 2.686 0.916 -209.863 -299.955 -2864.934 -0.006 0.090 -0.007 -0.03 0.66 -0.75 0.02
1 0.06 6 0.091 -9.850 1.422 -3.448 2.197 0.610 -179.883 -254.984 -2864.934 -0.002 0.147 -0.053 -0.03 0.66 -0.75 0.02
1 0.07 7 -0.014 -9.898 1.374 -3.357 1.709 1.190 -134.912 -299.955 -2864.934 0.103 0.194 -0.009 -0.03 0.66 -0.75 0.02
1 0.08 8 0.072 -9.740 1.336 -3.357 2.228 0.244 -134.912 -299.955 -2864.934 0.016 0.035 0.026 -0.03 0.66 -0.75 0.02
1 0.09 9 0.144 -9.783 1.255 -1.892 1.312 0.183 -254.984 -254.984 -2894.914 -0.056 0.078 0.104 -0.03 0.66 -0.75 0.02
1 0.10 10 0.129 -9.831 1.293 -1.343 1.892 0.214 -254.984 -254.984 -2894.914 -0.041 0.126 0.064 -0.03 0.66 -0.75 0.02
1 0.11 11 0.172 -9.817 1.346 -1.526 1.770 0.336 -269.974 -464.997 -2954.875 -0.084 0.111 0.010 -0.02 0.66 -0.75 0.02
1 0.12 12 0.148 -9.630 1.446 -1.190 2.594 0.092 -164.893 -359.916 -2849.943 -0.058 -0.076 -0.093 -0.02 0.66 -0.75 0.02
1 0.13 13 0.153 -9.802 1.408 -2.380 3.693 0.610 -164.893 -314.945 -2909.904 -0.061 0.096 -0.056 -0.02 0.66 -0.75 0.02
1 0.14 14 0.225 -9.807 1.293 -3.143 3.693 0.916 -254.984 -329.935 -3044.966 -0.133 0.101 0.057 -0.02 0.66 -0.75 0.02
1 0.15 15 0.029 -9.841 1.255 -3.265 3.479 1.648 -254.984 -329.935 -3044.966 0.062 0.134 0.091 -0.02 0.66 -0.75 0.02
1 0.16 16 0.010 -9.754 1.221 -3.387 2.777 1.556 -164.893 -284.964 -2804.973 0.080 0.047 0.120 -0.02 0.66 -0.75 0.02
1 0.17 17 0.048 -9.788 1.413 -3.021 2.716 0.580 -164.893 -284.964 -2804.973 0.040 0.080 -0.075 -0.02 0.66 -0.75 0.02
1 0.18 18 -0.105 -9.850 1.298 -2.411 2.136 0.793 -224.854 -434.867 -2804.973 0.193 0.142 0.036 -0.02 0.66 -0.75 0.02
1 0.19 19 0.086 -9.888 1.288 -1.587 1.709 1.129 -209.863 -329.935 -2789.982 0.000 0.180 0.043 -0.02 0.66 -0.75 0.02
1 0.20 20 0.077 -9.740 1.331 -1.678 2.045 0.916 -224.854 -314.945 -2879.924 0.009 0.031 -0.001 -0.02 0.66 -0.75 0.02
1 0.21 21 0.177 -9.773 1.302 -2.167 2.563 1.526 -254.984 -299.955 -2819.963 -0.092 0.064 0.026 -0.02 0.66 -0.75 0.02
1 0.22 22 0.201 -9.903 1.389 -2.838 3.204 1.617 -254.984 -299.955 -2819.963 -0.117 0.193 -0.062 -0.02 0.66 -0.75 0.02
1 0.23 23 0.134 -9.735 1.279 -3.082 3.418 1.526 -299.955 -209.863 -2954.875 -0.051 0.025 0.046 -0.02 0.66 -0.75 0.02
1 0.24 24 0.144 -9.850 1.283 -3.265 3.906 1.251 -299.955 -209.863 -2954.875 -0.062 0.140 0.037 -0.02 0.66 -0.75 0.02
1 0.25 25 0.158 -9.936 1.312 -2.472 2.869 0.580 -104.932 -179.883 -2969.865 -0.077 0.226 0.006 -0.02 0.66 -0.75 0.02
1 0.26 26 -0.034 -9.812 1.312 -2.106 2.594 0.305 -224.854 -284.964 -2804.973 0.114 0.101 0.003 -0.02 0.66 -0.75 0.02
1 0.27 27 0.014 -9.845 1.465 -2.167 2.197 0.458 -164.893 -284.964 -2804.973 0.066 0.134 -0.155 -0.02 0.66 -0.75 0.02
1 0.28 28 0.115 -9.951 1.322 -2.625 2.838 0.702 -299.955 -314.945 -2804.973 -0.034 0.239 -0.012 -0.02 0.66 -0.75 0.02
1 0.29 29 0.019 -9.874 1.427 -2.716 2.411 -0.061 -299.955 -314.945 -2804.973 0.062 0.162 -0.120 -0.02 0.66 -0.75 0.02
1 0.30 30 0.148 -9.802 1.331 -3.265 2.991 0.671 -164.893 -389.896 -2879.924 -0.068 0.090 -0.026 -0.02 0.66 -0.75 0.02
1 0.31 31 0.153 -9.826 1.446 -3.052 3.479 0.824 -164.893 -389.896 -2879.924 -0.073 0.113 -0.144 -0.02 0.66 -0.75 0.02
1 0.32 32 0.129 -9.860 1.341 -2.228 4.211 0.732 -104.932 -299.955 -2819.963 -0.050 0.146 -0.042 -0.02 0.66 -0.75 0.02
1 0.33 33 0.091 -9.769 1.417 -2.472 3.845 0.641 -134.912 -329.935 -2864.934 -0.012 0.055 -0.120 -0.02 0.66 -0.75 0.02
1 0.34 34 -0.062 -9.860 1.188 -2.502 3.479 1.129 -119.922 -434.867 -2849.943 0.139 0.146 0.107 -0.02 0.66 -0.75 0.02
1 0.35 35 0.024 -9.908 1.264 -1.709 3.571 1.556 -89.941 -389.896 -2849.943 0.051 0.193 0.028 -0.02 0.66 -0.75 0.02
1 0.36 36 -0.043 -9.908 1.226 -1.526 3.204 1.160 -89.941 -389.896 -2849.943 0.115 0.193 0.065 -0.02 0.66 -0.75 0.02
1 0.37 37 0.091 -9.884 1.279 -2.197 3.235 1.434 -134.912 -299.955 -2819.963 -0.020 0.169 0.011 -0.02 0.66 -0.75 0.02
1 0.38 38 0.053 -9.845 1.307 -1.801 2.441 0.580 -134.912 -299.955 -2819.963 0.017 0.131 -0.020 -0.02 0.66 -0.75 0.02
1 0.39 39 0.014 -9.955 1.307 -1.740 2.472 1.099 -119.922 -239.994 -2849.943 0.055 0.241 -0.021 -0.02 0.66 -0.75 0.02
1 0.40 40 -0.029 -9.893 1.360 -1.312 1.709 0.549 -224.854 -359.916 -2849.943 0.098 0.178 -0.074 -0.02 0.66 -0.75 0.02
1 0.41 41 -0.057 -9.855 1.398 -1.465 1.770 0.458 -104.932 -224.854 -2969.865 0.126 0.140 -0.113 -0.02 0.66 -0.75 0.02
1 0.42 42 0.072 -9.850 1.298 -1.892 1.953 0.549 -179.883 -299.955 -2864.934 -0.004 0.135 -0.012 -0.02 0.66 -0.75 0.02
1 0.43 43 0.091 -9.874 1.360 -2.167 1.465 0.610 -179.883 -299.955 -2864.934 -0.023 0.159 -0.076 -0.02 0.66 -0.75 0.02
1 0.44 44 0.081 -10.013 1.322 -2.075 1.373 0.519 -284.964 -299.955 -2759.852 -0.013 0.298 -0.038 -0.02 0.66 -0.75 0.02
1 0.45 45 -0.038 -9.922 1.326 -1.587 1.434 0.793 -284.964 -299.955 -2759.852 0.106 0.206 -0.044 -0.02 0.66 -0.75 0.02
1 0.46 46 0.101 -9.984 1.341 -1.404 1.221 0.671 -44.971 -284.964 -2909.904 -0.034 0.269 -0.059 -0.02 0.66 -0.75 0.02
1 0.47 47 0.034 -9.860 1.389 -1.221 0.824 0.977 -179.883 -374.906 -2789.982 0.033 0.144 -0.106 -0.02 0.66 -0.75 0.02
1 0.48 48 -0.005 -9.845 1.312 -2.136 0.427 1.343 -269.974 -359.916 -2849.943 0.070 0.130 -0.030 -0.02 0.66 -0.75 0.02
1 0.49 49 0.000 -9.860 1.360 -1.556 -0.031 1.678 -119.922 -314.945 -2729.872 0.065 0.144 -0.079 -0.02 0.66 -0.75 0.02
1 0.50 50 0.038 -9.903 1.317 -0.519 -0.061 1.099 -119.922 -314.945 -2729.872 0.026 0.187 -0.035 -0.02 0.66 -0.75 0.02
1 0.51 51 -0.029 -9.716 1.346 0.305 -0.946 1.221 -164.893 -284.964 -2774.992 0.093 0.000 -0.064 -0.02 0.66 -0.75 0.02
1 0.52 52 -0.067 -9.754 1.302 -0.671 -1.343 2.289 -164.893 -284.964 -2774.992 0.131 0.039 -0.019 -0.02 0.66 -0.75 0.02
1 0.53 53 0.091 -9.711 1.341 -0.366 -0.092 1.282 -254.984 -224.854 -2789.982 -0.029 -0.004 -0.056 -0.02 0.66 -0.75 0.02
1 0.54 54 0.129 -9.716 1.283 -1.099 -0.641 2.075 -119.922 -284.964 -2774.992 -0.068 0.001 0.001 -0.02 0.66 -0.75 0.02
1 0.55 55 0.201 -9.793 1.379 -1.221 -0.061 1.678 -119.922 -284.964 -2774.992 -0.140 0.077 -0.094 -0.02 0.66 -0.75 0.02
1 0.56 56 0.105 -9.764 1.389 -0.397 0.458 1.282 -194.873 -359.916 -2879.924 -0.044 0.049 -0.103 -0.02 0.66 -0.75 0.02
1 0.57 57 0.163 -9.754 1.259 -0.885 1.007 1.770 -194.873 -359.916 -2879.924 -0.102 0.039 0.028 -0.02 0.66 -0.75 0.02
1 0.58 58 0.182 -9.888 1.221 -2.319 0.488 1.129 -209.863 -329.935 -2789.982 -0.122 0.173 0.066 -0.02 0.66 -0.75 0.02
1 0.59 59 0.196 -10.022 1.374 -2.350 0.061 0.275 -209.863 -329.935 -2789.982 -0.136 0.307 -0.089 -0.02 0.66 -0.75 0.02
1 0.60 60 0.230 -9.903 1.312 -2.228 -0.519 0.397 -14.990 -239.994 -2804.973 -0.168 0.187 -0.029 -0.02 0.66 -0.75 0.02
1 0.61 61 0.321 -10.022 1.322 -0.732 -0.092 0.122 -209.863 -104.932 -2864.934 -0.258 0.307 -0.039 -0.02 0.66 -0.75 0.02
1 0.62 62 0.120 -10.003 1.355 -0.244 1.007 0.275 -209.863 -104.932 -2864.934 -0.056 0.288 -0.072 -0.02 0.66 -0.75 0.02
1 0.63 63 0.014 -9.932 1.417 -0.031 1.678 0.427 -29.980 -299.955 -2864.934 0.053 0.216 -0.132 -0.02 0.66 -0.75 0.01
1 0.64 64 0.053 -9.826 1.355 0.458 1.953 0.549 -29.980 -299.955 -2864.934 0.015 0.111 -0.067 -0.02 0.66 -0.75 0.01
1 0.65 65 0.038 -9.783 1.326 0.763 1.648 0.061 -254.984 -254.984 -2864.934 0.030 0.069 -0.035 -0.02 0.66 -0.75 0.01
1 0.66 66 -0.081 -9.735 1.259 0.000 1.068 0.153 -254.984 -254.984 -2864.934 0.150 0.021 0.035 -0.02 0.66 -0.75 0.01
1 0.67 67 -0.134 -9.879 1.207 0.122 0.732 -0.397 -224.854 -209.863 -2879.924 0.203 0.165 0.090 -0.02 0.66 -0.75 0.01
1 0.68 68 -0.053 -9.726 1.240 -0.092 0.214 0.183 -284.964 -254.984 -2894.914 0.122 0.012 0.058 -0.02 0.66 -0.75 0.01
1 0.69 69 -0.101 -9.750 1.240 0.305 -0.488 0.519 -284.964 -254.984 -2894.914 0.170 0.036 0.060 -0.02 0.66 -0.75 0.01
1 0.70 70 -0.101 -9.850 1.274 -0.610 -1.526 0.824 -134.912 -299.955 -2819.963 0.169 0.137 0.027 -0.02 0.66 -0.75 0.01
1 0.71 71 -0.086 -9.797 1.288 -1.404 -1.984 0.641 -224.854 -284.964 -2804.973 0.151 0.084 0.013 -0.02 0.66 -0.75 0.01
1 0.72 72 -0.101 -9.845 1.413 -1.404 -2.167 1.373 -179.883 -419.876 -2894.914 0.164 0.132 -0.112 -0.02 0.66 -0.75 0.02
1 0.73 73 -0.038 -9.831 1.360 -0.793 -2.441 1.678 -179.883 -419.876 -2894.914 0.100 0.118 -0.059 -0.02 0.66 -0.75 0.02
1 0.74 74 0.014 -9.812 1.437 -0.183 -2.228 1.923 -209.863 -329.935 -2789.982 0.046 0.099 -0.134 -0.02 0.66 -0.75 0.02
1 0.75 75 0.139 -9.821 1.322 1.556 -2.350 1.862 -44.971 -359.916 -2849.943 -0.080 0.109 -0.017 -0.02 0.66 -0.75 0.02
1 0.76 76 0.048 -9.783 1.331 0.824 -2.625 1.648 -44.971 -359.916 -2849.943 0.010 0.071 -0.023 -0.02 0.66 -0.75 0.02
1 0.77 77 0.125 -9.821 1.269 1.190 -1.892 1.068 -104.932 -254.984 -2894.914 -0.067 0.110 0.043 -0.02 0.66 -0.75 0.02
1 0.78 78 0.220 -9.682 1.279 0.397 -1.343 1.648 -164.893 -464.997 -2729.872 -0.163 -0.028 0.039 -0.02 0.66 -0.75 0.02
1 0.79 79 0.196 -9.750 1.288 0.366 -0.793 1.251 -59.961 -329.935 -2864.934 -0.138 0.039 0.032 -0.02 0.66 -0.75 0.02
1 0.80 80 0.172 -9.673 1.240 -0.732 -0.732 0.854 -59.961 -329.935 -2864.934 -0.113 -0.037 0.081 -0.02 0.66 -0.75 0.02
1 0.81 81 0.182 -9.673 1.283 -1.068 -0.610 1.007 -134.912 -329.935 -2714.881 -0.122 -0.037 0.037 -0.02 0.66 -0.75 0.02
1 0.82 82 0.048 -9.802 1.283 -1.495 -1.038 1.343 -89.941 -434.867 -2804.973 0.013 0.092 0.037 -0.02 0.66 -0.75 0.02
1 0.83 83 0.091 -9.874 1.317 -0.946 -1.923 0.061 -89.941 -434.867 -2804.973 -0.030 0.164 0.003 -0.02 0.66 -0.75 0.02
1 0.84 84 0.134 -9.783 1.307 -0.061 -1.556 0.214 -44.971 -239.994 -2879.924 -0.072 0.073 0.013 -0.02 0.66 -0.75 0.02
1 0.85 85 0.148 -9.826 1.240 1.007 -1.495 0.153 -179.883 -329.935 -2864.934 -0.083 0.116 0.083 -0.02 0.66 -0.75 0.02
1 0.86 86 0.077 -9.960 1.451 1.038 -1.617 0.092 -104.932 -329.935 -2864.934 -0.009 0.251 -0.125 -0.02 0.66 -0.75 0.02
1 0.87 87 0.077 -9.788 1.341 0.702 -1.892 0.488 -104.932 -329.935 -2864.934 -0.008 0.079 -0.012 -0.02 0.66 -0.75 0.02
1 0.88 88 0.038 -9.912 1.355 -0.122 -1.282 0.397 -194.873 -314.945 -2984.855 0.031 0.203 -0.024 -0.02 0.66 -0.75 0.02
1 0.89 89 -0.029 -9.845 1.283 -1.190 -0.977 0.824 -89.941 -239.994 -2804.973 0.098 0.136 0.048 -0.02 0.66 -0.75 0.02
1 0.90 90 -0.005 -9.788 1.317 -1.099 -0.061 1.587 -89.941 -239.994 -2804.973 0.073 0.079 0.014 -0.02 0.66 -0.75 0.02
1 0.91 91 0.043 -9.726 1.279 -1.007 -0.183 1.801 -329.935 -494.978 -2939.885 0.025 0.017 0.052 -0.02 0.66 -0.75 0.02
1 0.92 92 -0.043 -9.864 1.374 0.366 -1.068 1.251 -254.984 -149.902 -2819.963 0.110 0.155 -0.044 -0.02 0.66 -0.75 0.02
1 0.93 93 0.034 -9.869 1.389 -0.153 -1.770 1.740 -194.873 -284.964 -2954.875 0.032 0.160 -0.057 -0.02 0.66 -0.75 0.02
1 0.94 94 -0.043 -9.884 1.274 -0.336 -2.350 0.946 -194.873 -284.964 -2954.875 0.108 0.175 0.059 -0.02 0.66 -0.75 0.02
1 0.95 95 0.125 -9.735 1.269 0.305 -2.869 0.519 -59.961 -224.854 -2759.852 -0.060 0.027 0.065 -0.02 0.66 -0.75 0.02
1 0.96 96 0.053 -9.807 1.312 0.610 -3.357 0.793 -119.922 -314.945 -2909.904 0.013 0.099 0.024 -0.02 0.66 -0.75 0.02
1 0.97 97 0.014 -9.793 1.302 -0.061 -3.204 0.946 -119.922 -314.945 -2909.904 0.052 0.085 0.036 -0.02 0.66 -0.75 0.02
1 0.98 98 0.115 -9.793 1.384 0.031 -2.686 0.824 -209.863 -374.906 -2819.963 -0.048 0.085 -0.043 -0.02 0.66 -0.75 0.02
1 0.99 99 0.225 -9.917 1.360 0.671 -1.709 1.099 -224.854 -359.916 -2804.973 -0.157 0.210 -0.018 -0.02 0.66 -0.75 0.02
1 1.00 100 0.196 -9.879 1.355 0.366 -0.916 1.556 -179.883 -374.906 -2939.885 -0.127 0.172 -0.008 -0.02 0.66 -0.75 0.02
1 1.01 101 0.177 -9.898 1.451 0.031 -0.244 1.190 -179.883 -374.906 -2939.885 -0.108 0.192 -0.102 -0.02 0.66 -0.75 0.02
1 1.02 102 0.067 -9.879 1.456 -0.946 -0.122 1.038 -254.984 -374.906 -2819.963 0.003 0.172 -0.106 -0.02 0.66 -0.75 0.02
1 1.03 103 -0.024 -9.898 1.441 -1.190 -0.610 0.732 -209.863 -449.857 -2789.982 0.094 0.192 -0.091 -0.02 0.66 -0.75 0.02
1 1.04 104 0.024 -9.783 1.389 0.458 -2.106 -0.214 -209.863 -449.857 -2789.982 0.046 0.077 -0.038 -0.02 0.66 -0.75 0.02
1 1.05 105 -0.034 -9.951 1.336 1.862 -3.296 -1.129 -119.922 -314.945 -2774.992 0.104 0.245 0.017 -0.02 0.66 -0.75 0.02
1 1.06 106 -0.038 -9.812 1.259 2.777 -4.364 -1.801 -44.971 -239.994 -2669.911 0.111 0.106 0.097 -0.02 0.66 -0.75 0.02
1 1.07 107 0.053 -9.831 1.312 3.082 -5.310 -1.465 -179.883 -224.854 -2864.934 0.027 0.127 0.055 -0.02 0.66 -0.75 0.02
1 1.08 108 0.048 -9.721 1.384 2.319 -5.890 -1.099 -179.883 -224.854 -2864.934 0.036 0.018 -0.012 -0.02 0.66 -0.75 0.02
1 1.09 109 0.067 -9.735 1.393 1.556 -6.317 -0.305 -209.863 -374.906 -2819.963 0.020 0.033 -0.016 -0.02 0.66 -0.75 0.02
1 1.10 110 0.201 -9.721 1.350 0.488 -6.836 -0.641 -29.980 -254.984 -2759.852 -0.111 0.019 0.030 -0.02 0.66 -0.76 0.02
1 1.11 111 0.321 -9.754 1.398 0.000 -5.341 -0.458 -29.980 -254.984 -2759.852 -0.226 0.053 -0.016 -0.02 0.65 -0.76 0.02
1 1.12 112 0.273 -9.783 1.494 0.549 -3.876 0.641 -194.873 -164.893 -2879.924 -0.174 0.082 -0.110 -0.02 0.65 -0.76 0.02
1 1.13 113 0.187 -9.975 1.413 2.563 -3.174 0.885 -194.873 -284.964 -2879.924 -0.085 0.274 -0.026 -0.02 0.65 -0.76 0.02
1 1.14 114 0.283 -9.927 1.389 4.364 -3.510 1.648 -194.873 -284.964 -2879.924 -0.178 0.227 0.003 -0.02 0.65 -0.76 0.02
1 1.15 115 0.134 -9.845 1.384 4.639 -4.089 0.000 -104.932 -299.955 -2894.914 -0.027 0.147 0.023 -0.02 0.65 -0.76 0.02
1 1.16 116 0.062 -9.802 1.504 3.540 -5.219 -0.336 -224.854 -209.863 -2804.973 0.048 0.105 -0.089 -0.02 0.65 -0.76 0.02
1 1.17 117 0.096 -9.740 1.580 2.258 -7.019 -0.458 -344.925 -359.916 -2774.992 0.017 0.044 -0.159 -0.02 0.65 -0.76 0.02
1 1.18 118 0.014 -9.635 1.523 2.045 -7.141 0.153 -344.925 -359.916 -2774.992 0.102 -0.060 -0.096 -0.02 0.65 -0.76 0.02
1 1.19 119 0.374 -9.750 1.484 2.686 -5.859 1.434 -269.974 -434.867 -2804.973 -0.256 0.055 -0.052 -0.02 0.65 -0.76 0.02
1 1.20 120 0.374 -9.620 1.432 4.211 -3.571 2.533 -329.935 -329.935 -2789.982 -0.255 -0.073 0.006 -0.03 0.65 -0.76 0.02
1 1.21 121 0.469 -9.773 1.298 5.188 -2.197 3.693 -329.935 -329.935 -2789.982 -0.350 0.081 0.147 -0.03 0.65 -0.76 0.02
1 1.22 122 0.546 -9.793 1.456 6.653 -1.495 3.418 -254.984 -299.955 -2969.865 -0.428 0.103 0.008 -0.03 0.65 -0.76 0.02
1 1.23 123 0.579 -9.697 1.302 5.524 -1.892 2.563 -254.984 -374.906 -3014.986 -0.462 0.009 0.172 -0.03 0.65 -0.76 0.02
1 1.24 124 0.517 -9.797 1.446 4.272 -2.075 2.350 -134.912 -419.876 -2969.865 -0.398 0.111 0.037 -0.03 0.65 -0.76 0.02
1 1.25 125 0.532 -9.912 1.499 2.563 -2.167 0.854 -134.912 -419.876 -2969.865 -0.411 0.227 -0.009 -0.03 0.65 -0.76 0.02
1 1.26 126 0.589 -9.864 1.532 0.763 -2.350 1.221 -194.873 -239.994 -2909.904 -0.465 0.180 -0.037 -0.03 0.65 -0.76 0.02
1 1.27 127 0.512 -9.951 1.508 1.343 -2.350 1.190 -119.922 -314.945 -2909.904 -0.385 0.267 -0.011 -0.03 0.65 -0.76 0.02
1 1.28 128 0.340 -9.946 1.465 3.204 -1.312 1.282 -119.922 -314.945 -2909.904 -0.209 0.262 0.035 -0.03 0.65 -0.76 0.02
1 1.29 129 0.436 -9.855 1.451 5.707 1.251 1.373 -269.974 -359.916 -2879.924 -0.300 0.173 0.062 -0.03 0.65 -0.76 0.02
1 1.30 130 0.263 -9.879 1.374 6.531 1.801 2.686 -104.932 -329.935 -2969.865 -0.127 0.199 0.148 -0.03 0.65 -0.76 0.02
1 1.31 131 0.488 -9.663 1.475 5.951 2.228 3.754 -119.922 -389.896 -2879.924 -0.354 -0.015 0.057 -0.03 0.65 -0.76 0.02
1 1.32 132 0.230 -9.659 1.331 3.754 2.533 4.486 -119.922 -389.896 -2879.924 -0.098 -0.019 0.210 -0.03 0.65 -0.76 0.02
1 1.33 133 0.330 -9.716 1.389 1.465 2.045 5.005 -194.873 -434.867 -3029.976 -0.203 0.040 0.157 -0.03 0.65 -0.76 0.02
1 1.34 134 0.215 -9.850 1.355 1.282 1.740 4.974 -179.883 -299.955 -2789.982 -0.094 0.174 0.194 -0.03 0.65 -0.76 0.02
1 1.35 135 0.091 -9.783 1.370 0.977 0.977 4.486 -179.883 -299.955 -2789.982 0.024 0.107 0.181 -0.03 0.65 -0.76 0.02
1 1.36 136 0.268 -9.788 1.451 2.869 0.000 4.364 -254.984 -374.906 -2819.963 -0.164 0.113 0.104 -0.02 0.65 -0.76 0.02
1 1.37 137 0.153 -9.682 1.384 3.632 -1.953 4.761 -134.912 -449.857 -3074.947 -0.053 0.008 0.176 -0.02 0.65 -0.76 0.02
1 1.38 138 0.168 -9.721 1.523 2.991 -3.418 3.479 -59.961 -374.906 -2894.914 -0.072 0.047 0.042 -0.02 0.65 -0.76 0.02
1 1.39 139 0.187 -9.778 1.470 1.923 -4.395 3.143 -59.961 -374.906 -2894.914 -0.093 0.105 0.099 -0.02 0.65 -0.76 0.02
1 1.40 140 0.206 -9.764 1.470 1.312 -5.585 3.296 -119.922 -314.945 -2909.904 -0.114 0.091 0.102 -0.02 0.65 -0.76 0.02
1 1.41 141 0.374 -9.884 1.609 -0.183 -5.341 4.547 -179.883 -449.857 -2969.865 -0.283 0.211 -0.034 -0.02 0.65 -0.76 0.02
1 1.42 142 0.484 -9.773 1.590 0.305 -3.662 4.791 -179.883 -449.857 -2969.865 -0.396 0.102 -0.014 -0.02 0.65 -0.76 0.02
1 1.43 143 0.431 -9.845 1.599 2.106 -1.617 4.639 -224.854 -359.916 -2849.943 -0.346 0.174 -0.021 -0.02 0.65 -0.76 0.02
1 1.44 144 0.479 -9.831 1.638 2.869 0.610 5.005 -104.932 -299.955 -2894.914 -0.399 0.161 -0.050 -0.02 0.65 -0.76 0.02
1 1.45 145 0.311 -9.845 1.465 3.601 1.648 4.700 -224.854 -239.994 -2954.875 -0.235 0.176 0.129 -0.02 0.65 -0.76 0.02
1 1.46 146 0.316 -9.711 1.312 3.876 1.984 4.272 -224.854 -239.994 -2954.875 -0.243 0.043 0.288 -0.02 0.65 -0.76 0.02
1 1.47 147 0.239 -9.635 1.389 4.181 0.336 3.479 -134.912 -329.935 -3074.947 -0.170 -0.033 0.217 -0.02 0.65 -0.76 0.02
1 1.48 148 0.316 -9.572 1.389 2.808 -2.136 3.143 -104.932 -449.857 -3014.986 -0.249 -0.094 0.223 -0.02 0.65 -0.76 0.02
1 1.49 149 0.421 -9.544 1.489 2.167 -2.502 3.204 -104.932 -449.857 -3014.986 -0.356 -0.122 0.127 -0.02 0.65 -0.76 0.02
1 1.50 150 0.335 -9.596 1.513 1.862 -2.380 4.059 -89.941 -389.896 -2909.904 -0.271 -0.069 0.107 -0.02 0.65 -0.76 0.02
1 1.51 151 0.374 -9.587 1.662 1.160 0.305 4.120 -224.854 -284.964 -2879.924 -0.313 -0.077 -0.034 -0.02 0.65 -0.76 0.02
1 1.52 152 0.259 -9.682 1.647 0.366 2.075 3.601 -119.922 -314.945 -3059.957 -0.200 0.019 -0.017 -0.02 0.65 -0.76 0.02
1 1.53 153 0.417 -9.649 1.551 0.702 2.411 3.723 -119.922 -314.945 -3059.957 -0.362 -0.014 0.081 -0.02 0.65 -0.76 0.02
1 1.54 154 0.421 -9.793 1.642 1.465 2.747 2.991 -194.873 -314.945 -2909.904 -0.368 0.130 -0.006 -0.02 0.64 -0.76 0.02
1 1.55 155 0.273 -9.864 1.547 2.075 1.831 1.801 -269.974 -389.896 -2849.943 -0.221 0.203 0.093 -0.02 0.64 -0.76 0.02
1 1.56 156 0.211 -9.850 1.528 2.411 0.427 1.862 -269.974 -389.896 -2849.943 -0.160 0.189 0.116 -0.02 0.64 -0.76 0.02
1 1.57 157 0.182 -9.735 1.700 2.716 -0.305 1.740 -269.974 -239.994 -2984.855 -0.131 0.075 -0.052 -0.02 0.64 -0.76 0.02
1 1.58 158 0.268 -9.817 1.700 3.540 0.061 1.923 -269.974 -239.994 -2984.855 -0.218 0.157 -0.047 -0.02 0.64 -0.76 0.02
1 1.59 159 0.220 -9.740 1.633 3.448 2.228 2.655 -119.922 -464.997 -3029.976 -0.172 0.083 0.033 -0.02 0.64 -0.76 0.02
1 1.60 160 0.196 -9.821 1.690 2.319 3.021 3.662 -119.922 -464.997 -3029.976 -0.150 0.165 -0.019 -0.02 0.64 -0.76 0.02
1 1.61 161 0.038 -9.826 1.590 1.465 4.517 3.784 -119.922 -464.997 -3104.927 0.004 0.171 0.086 -0.02 0.64 -0.76 0.02
1 1.62 162 0.024 -9.951 1.700 0.793 4.272 4.547 -179.883 -299.955 -2969.865 0.012 0.296 -0.022 -0.02 0.64 -0.76 0.02
1 1.63 163 -0.038 -9.764 1.762 -0.122 2.625 5.188 -179.883 -299.955 -2969.865 0.067 0.109 -0.082 -0.02 0.64 -0.77 0.02
1 1.64 164 -0.086 -9.764 1.743 -0.305 1.129 5.005 -209.863 -449.857 -2789.982 0.107 0.109 -0.061 -0.02 0.64 -0.77 0.02
1 1.65 165 0.010 -9.812 1.801 0.366 -0.946 4.639 -209.863 -449.857 -2789.982 0.004 0.158 -0.117 -0.02 0.64 -0.77 0.02
1 1.66 166 -0.019 -9.812 1.767 -0.061 -1.160 4.272 -284.964 -449.857 -2864.934 0.021 0.158 -0.079 -0.02 0.64 -0.77 0.02
1 1.67 167 0.014 -9.764 1.724 0.488 -1.434 2.960 -284.964 -449.857 -2864.934 -0.017 0.111 -0.034 -0.02 0.64 -0.77 0.02
1 1.68 168 -0.067 -9.989 1.791 0.763 -0.732 3.448 -104.932 -419.876 -3014.986 0.061 0.336 -0.098 -0.02 0.64 -0.77 0.02
1 1.69 169 0.077 -9.936 1.901 1.068 -1.312 3.204 -194.873 -509.968 -2984.855 -0.085 0.284 -0.205 -0.02 0.64 -0.77 0.02
1 1.70 170 0.144 -9.999 1.844 0.763 -1.038 3.357 -194.873 -509.968 -2984.855 -0.155 0.347 -0.145 -0.02 0.64 -0.77 0.02
1 1.71 171 0.048 -9.941 1.757 0.549 -1.190 5.737 -194.873 -239.994 -2954.875 -0.063 0.290 -0.056 -0.02 0.64 -0.77 0.02
1 1.72 172 -0.019 -9.864 1.657 0.793 -0.336 7.141 -194.873 -239.994 -2954.875 -0.002 0.214 0.047 -0.02 0.64 -0.77 0.02
1 1.73 173 0.096 -9.855 1.777 0.336 2.655 7.477 -59.961 -374.906 -3074.947 -0.134 0.205 -0.068 -0.02 0.64 -0.77 0.02
1 1.74 174 -0.057 -9.912 1.801 0.427 4.272 6.958 -59.961 -374.906 -3074.947 0.009 0.263 -0.089 -0.02 0.64 -0.77 0.02
1 1.75 175 -0.115 -9.879 1.748 0.214 5.035 7.813 -104.932 -299.955 -3014.986 0.056 0.230 -0.034 -0.02 0.64 -0.77 0.02
1 1.76 176 -0.244 -9.888 1.733 -0.061 5.585 7.385 -89.941 -464.997 -2909.904 0.173 0.240 -0.017 -0.02 0.64 -0.77 0.02
1 1.77 177 -0.283 -9.927 1.781 0.031 4.425 7.690 -89.941 -464.997 -2909.904 0.200 0.279 -0.065 -0.02 0.64 -0.77 0.02
1 1.78 178 -0.259 -9.869 1.824 1.526 3.479 6.561 -119.922 -389.896 -2984.855 0.164 0.222 -0.106 -0.01 0.64 -0.77 0.02
1 1.79 179 -0.350 -9.922 1.719 2.167 2.838 5.615 -119.922 -389.896 -2984.855 0.244 0.275 0.002 -0.01 0.64 -0.77 0.02
1 1.80 180 -0.364 -9.860 1.810 1.617 2.411 4.791 -119.922 -629.890 -2954.875 0.240 0.214 -0.080 -0.01 0.64 -0.77 0.03
1 1.81 181 -0.388 -9.793 1.791 1.678 2.197 4.242 -119.922 -629.890 -2954.875 0.256 0.148 -0.057 -0.01 0.64 -0.77 0.03
1 1.82 182 -0.326 -9.754 1.666 2.258 4.456 3.510 -44.971 -389.896 -3029.976 0.186 0.111 0.072 -0.01 0.64 -0.77 0.03
1 1.83 183 -0.359 -9.601 1.695 3.296 5.585 1.892 -89.941 -389.896 -2954.875 0.214 -0.041 0.048 -0.01 0.64 -0.77 0.02
1 1.84 184 -0.498 -9.663 1.695 4.059 7.721 1.526 -89.941 -389.896 -2954.875 0.348 0.022 0.054 -0.01 0.64 -0.77 0.02
1 1.85 185 -0.551 -9.615 1.599 5.463 9.369 1.007 -104.932 -449.857 -2939.885 0.395 -0.024 0.158 -0.01 0.64 -0.77 0.02
1 1.86 186 -0.809 -9.702 1.566 5.768 9.216 0.336 -104.932 -449.857 -2939.885 0.649 0.063 0.200 -0.01 0.64 -0.77 0.02
1 1.87 187 -0.723 -9.697 1.566 6.042 8.148 -0.977 -44.971 -359.916 -2984.855 0.558 0.060 0.208 -0.01 0.64 -0.77 0.02
1 1.88 188 -0.910 -9.888 1.542 4.852 6.134 -1.709 -119.922 -509.968 -3029.976 0.736 0.255 0.250 -0.01 0.64 -0.77 0.02
1 1.89 189 -1.020 -9.860 1.657 4.791 3.967 -2.533 14.990 -434.867 -2954.875 0.843 0.228 0.142 -0.01 0.64 -0.77 0.02
1 1.90 190 -0.958 -9.821 1.599 4.089 3.448 -0.793 29.980 -524.958 -2894.914 0.777 0.191 0.206 -0.01 0.64 -0.77 0.02
1 1.91 191 -0.919 -9.864 1.542 5.585 3.387 0.000 29.980 -524.958 -2894.914 0.734 0.235 0.269 -0.01 0.64 -0.77 0.02
1 1.92 192 -0.939 -9.812 1.523 7.996 2.930 -0.031 -59.961 -494.978 -3014.986 0.748 0.184 0.297 -0 0.64 -0.77 0.02
1 1.93 193 -0.881 -9.946 1.451 7.446 1.587 0.153 -59.961 -494.978 -3014.986 0.686 0.320 0.379 -0 0.64 -0.77 0.02
1 1.94 194 -0.886 -9.955 1.484 4.669 0.641 -0.183 -104.932 -449.857 -2969.865 0.686 0.332 0.356 -0 0.64 -0.77 0.02
1 1.95 195 -0.833 -9.898 1.465 5.096 -1.099 0.092 -44.971 -464.997 -3059.957 0.627 0.277 0.387 -0 0.64 -0.77 0.02
1 1.96 196 -0.843 -9.970 1.604 5.493 -1.831 0.580 -44.971 -464.997 -2984.855 0.634 0.350 0.254 -0 0.64 -0.77 0.02
1 1.97 197 -0.795 -10.075 1.561 5.737 -2.869 2.014 -119.922 -509.968 -3164.888 0.581 0.457 0.304 -0 0.64 -0.77 0.02
1 1.98 198 -0.857 -10.027 1.571 6.958 -2.625 3.052 -119.922 -509.968 -3164.888 0.637 0.410 0.301 -0 0.64 -0.77 0.02
1 1.99 199 -0.867 -10.056 1.710 9.460 -1.495 4.822 89.941 -584.919 -2984.855 0.639 0.441 0.172 -0 0.64 -0.77 0.02
1 2.00 200 -0.881 -10.142 1.733 10.345 -0.061 6.714 89.941 -584.919 -2984.855 0.643 0.530 0.161 -0 0.64 -0.77 0.02
1 2.01 201 -0.819 -10.181 1.820 6.928 0.641 9.033 14.990 -389.896 -3104.927 0.568 0.572 0.090 -0 0.63 -0.77 0.02
1 2.02 202 -0.771 -10.123 1.662 4.334 2.106 11.169 14.990 -359.916 -3059.957 0.504 0.517 0.259 -0 0.63 -0.77 0.02
1 2.03 203 -0.996 -9.912 1.633 4.211 3.113 9.552 -104.932 -449.857 -2939.885 0.692 0.309 0.298 0 0.63 -0.77 0.02
1 2.04 204 -1.087 -9.860 1.642 7.935 3.113 8.148 -89.941 -509.968 -3029.976 0.764 0.259 0.295 0 0.63 -0.77 0.02
1 2.05 205 -1.025 -9.654 1.666 10.651 2.289 6.500 -89.941 -509.968 -3029.976 0.685 0.056 0.283 0 0.63 -0.77 0.02
1 2.06 206 -1.020 -9.520 1.690 12.482 0.000 5.493 119.922 -434.867 -2984.855 0.667 -0.075 0.275 0 0.63 -0.77 0.02
1 2.07 207 -1.092 -9.582 1.657 10.498 -3.632 3.143 119.922 -434.867 -2984.855 0.728 -0.009 0.325 0 0.63 -0.77 0.02
1 2.08 208 -1.001 -9.601 1.896 9.125 -5.219 2.075 14.990 -434.867 -3059.957 0.629 0.014 0.101 0 0.63 -0.78 0.02
1 2.09 209 -0.900 -9.505 1.810 9.766 -5.371 1.831 -14.990 -434.867 -3029.976 0.523 -0.079 0.201 0 0.63 -0.78 0.03
1 2.10 210 -0.886 -9.395 1.714 10.773 -5.371 0.275 44.971 -509.968 -3059.957 0.502 -0.182 0.326 0 0.63 -0.78 0.03
1 2.11 211 -0.996 -9.323 1.738 11.169 -4.822 -0.793 -14.990 -539.948 -3164.888 0.610 -0.251 0.318 0 0.63 -0.78 0.03
1 2.12 212 -0.900 -9.419 1.710 11.353 -4.517 -0.824 -14.990 -539.948 -3164.888 0.514 -0.151 0.363 0 0.63 -0.78 0.03
1 2.13 213 -0.814 -9.371 1.781 12.451 -4.883 -1.953 -59.961 -674.860 -3119.917 0.428 -0.196 0.308 0 0.63 -0.78 0.03
1 2.14 214 -0.891 -9.357 1.762 12.360 -5.280 -3.143 -59.961 -674.860 -3119.917 0.507 -0.206 0.345 0 0.63 -0.78 0.03
1 2.15 215 -0.804 -9.400 1.724 9.491 -6.653 -4.639 -44.971 -464.997 -3134.908 0.425 -0.160 0.400 0 0.63 -0.78 0.03
1 2.16 216 -0.872 -9.438 1.729 8.270 -7.782 -6.256 0.000 -569.929 -3074.947 0.498 -0.118 0.409 0 0.63 -0.78 0.03
1 2.17 217 -0.737 -9.529 1.820 8.240 -9.583 -8.789 -104.932 -644.880 -3044.966 0.385 -0.023 0.341 0 0.62 -0.78 0.03
1 2.18 218 -0.857 -9.836 1.619 7.721 -10.071 -9.735 -134.912 -644.880 -3014.986 0.519 0.285 0.553 0 0.62 -0.78 0.03
1 2.19 219 -0.824 -9.596 1.642 9.949 -10.773 -10.529 -134.912 -644.880 -3014.986 0.500 0.048 0.540 0 0.62 -0.78 0.03
1 2.20 220 -0.939 -9.773 1.642 10.986 -12.634 -10.559 -89.941 -509.968 -3104.927 0.632 0.227 0.553 -0 0.62 -0.78 0.03
1 2.21 221 -0.991 -9.711 1.566 12.817 -13.184 -10.193 -89.941 -509.968 -3104.927 0.701 0.168 0.644 -0 0.62 -0.78 0.03
1 2.22 222 -1.015 -9.750 1.786 11.566 -14.923 -9.003 -14.990 -584.919 -3134.908 0.740 0.210 0.439 -0 0.62 -0.78 0.03
1 2.23 223 -0.986 -9.702 1.710 8.148 -15.076 -8.698 -59.961 -599.909 -3149.898 0.727 0.165 0.532 -0 0.62 -0.78 0.03
1 2.24 224 -1.025 -9.668 1.599 6.042 -14.465 -7.202 -329.935 -494.978 -3194.869 0.792 0.135 0.662 -0.01 0.62 -0.78 0.03
1 2.25 225 -1.183 -9.611 1.537 7.538 -14.008 -7.294 -269.974 -509.968 -3164.888 0.961 0.079 0.731 -0.01 0.62 -0.78 0.03
1 2.26 226 -1.212 -9.702 1.461 10.773 -14.954 -5.920 -269.974 -509.968 -3164.888 0.998 0.172 0.817 -0.01 0.62 -0.78 0.03
1 2.27 227 -1.393 -9.577 1.370 11.383 -16.724 -5.371 -179.883 -569.929 -3044.966 1.187 0.051 0.920 -0.01 0.62 -0.78 0.03
1 2.28 228 -1.240 -9.615 1.302 10.254 -19.013 -4.150 -179.883 -569.929 -3044.966 1.040 0.092 0.998 -0.01 0.62 -0.79 0.03
1 2.29 229 -1.283 -9.414 1.326 4.272 -23.102 -2.502 -284.964 -569.929 -3119.917 1.089 -0.107 0.984 -0.01 0.62 -0.79 0.03
1 2.30 230 -1.188 -9.462 1.302 -0.305 -24.963 -1.770 -419.876 -704.991 -3104.927 0.999 -0.059 1.011 -0.01 0.62 -0.79 0.03
1 2.31 231 -1.216 -9.362 1.408 -1.190 -25.421 -1.282 -419.876 -704.991 -3104.927 1.032 -0.160 0.902 -0.01 0.62 -0.79 0.03
1 2.32 232 -1.068 -9.271 1.513 2.289 -25.116 -2.960 -224.854 -734.971 -3134.908 0.893 -0.254 0.786 -0.02 0.62 -0.78 0.03
1 2.33 233 -0.982 -9.180 1.772 6.104 -23.926 -2.441 -224.854 -734.971 -3134.908 0.814 -0.345 0.529 -0.02 0.62 -0.78 0.04
1 2.34 234 -0.790 -9.299 1.978 8.240 -23.193 -2.167 -299.955 -734.971 -3209.859 0.630 -0.223 0.332 -0.02 0.62 -0.79 0.04
1 2.35 235 -0.469 -9.357 2.389 7.202 -24.170 -0.183 -299.955 -734.971 -3209.859 0.316 -0.163 -0.069 -0.02 0.62 -0.79 0.04
1 2.36 236 0.316 -9.568 2.782 1.801 -28.961 4.639 -389.896 -569.929 -3194.869 -0.463 0.050 -0.449 -0.02 0.62 -0.79 0.04
1 2.37 237 0.766 -10.128 2.749 -5.646 -30.762 11.871 -389.896 -674.860 -3119.917 -0.909 0.613 -0.406 -0.02 0.62 -0.79 0.04
1 2.38 238 1.106 -10.664 2.729 -15.167 -31.342 20.447 -389.896 -674.860 -3119.917 -1.247 1.149 -0.386 -0.02 0.62 -0.79 0.04
1 2.39 239 1.144 -10.932 2.634 -11.536 -18.158 21.271 -464.997 -674.860 -3224.999 -1.315 1.409 -0.328 -0.03 0.62 -0.78 0.05
1 2.40 240 0.876 -10.702 2.557 2.777 -3.387 15.259 -464.997 -674.860 -3224.999 -1.070 1.177 -0.261 -0.03 0.62 -0.78 0.05
1 2.41 241 0.455 -10.664 2.571 13.397 6.592 12.573 -419.876 -704.991 -3239.989 -0.668 1.142 -0.265 -0.03 0.62 -0.78 0.05
1 2.42 242 0.067 -10.372 2.385 15.259 8.484 13.794 -419.876 -704.991 -3239.989 -0.301 0.856 -0.056 -0.02 0.62 -0.79 0.05
1 2.43 243 -0.005 -9.936 2.337 13.428 1.160 11.932 -434.867 -674.860 -3194.869 -0.247 0.426 0.014 -0.02 0.62 -0.79 0.05
1 2.44 244 0.024 -9.869 2.342 6.500 -13.428 1.892 -299.955 -584.919 -3209.859 -0.287 0.364 0.028 -0.02 0.62 -0.79 0.05
1 2.45 245 0.163 -9.841 2.519 -0.519 -18.555 -2.838 -299.955 -584.919 -3209.859 -0.424 0.338 -0.138 -0.02 0.61 -0.79 0.05
1 2.46 246 0.259 -10.003 2.509 -5.615 -18.707 -5.920 -284.964 -749.961 -3044.966 -0.507 0.501 -0.126 -0.03 0.61 -0.79 0.05
1 2.47 247 0.053 -10.195 2.701 -5.035 -11.658 -4.059 -254.984 -674.860 -3299.950 -0.264 0.689 -0.328 -0.03 0.61 -0.79 0.05
1 2.48 248 0.091 -10.238 2.768 -3.021 -5.127 0.031 -434.867 -599.909 -3224.999 -0.291 0.731 -0.398 -0.03 0.62 -0.79 0.05
1 2.49 249 -0.177 -10.181 2.753 -1.129 1.556 5.798 -434.867 -599.909 -3224.999 -0.020 0.673 -0.384 -0.03 0.62 -0.79 0.05
1 2.50 250 -0.594 -10.286 2.682 1.190 6.592 9.949 -269.974 -779.942 -3209.859 0.388 0.779 -0.310 -0.03 0.61 -0.79 0.05
1 2.51 251 -1.461 -9.989 2.734 4.425 10.071 10.101 -494.978 -779.942 -3209.859 1.236 0.484 -0.358 -0.03 0.61 -0.79 0.05
1 2.52 252 -1.772 -9.860 2.639 6.226 7.111 7.538 -494.978 -779.942 -3209.859 1.524 0.358 -0.253 -0.03 0.61 -0.79 0.05
1 2.53 253 -1.844 -9.750 2.413 9.522 -0.885 4.303 -419.876 -809.922 -3134.908 1.573 0.251 -0.017 -0.02 0.61 -0.79 0.05
1 2.54 254 -1.427 -9.620 2.413 10.101 -23.316 -1.556 -389.896 -719.981 -3194.869 1.130 0.130 0.014 -0.02 0.61 -0.79 0.06
1 2.55 255 -0.761 -9.568 2.433 9.827 -39.673 -2.960 -284.964 -749.961 -3074.947 0.469 0.082 0.011 -0.03 0.61 -0.79 0.06
1 2.56 256 -0.010 -9.711 2.931 6.928 -51.117 -2.686 -284.964 -749.961 -3074.947 -0.266 0.229 -0.471 -0.03 0.61 -0.79 0.06
1 2.57 257 0.838 -9.821 3.338 2.472 -54.169 0.183 -449.857 -734.971 -3209.859 -1.089 0.342 -0.864 -0.03 0.61 -0.79 0.06
1 2.58 258 1.547 -9.750 3.678 -3.662 -46.387 2.197 -449.857 -734.971 -3164.888 -1.771 0.272 -1.194 -0.03 0.61 -0.79 0.06
1 2.59 259 2.203 -9.706 3.812 -11.261 -24.109 2.167 -449.857 -734.971 -3164.888 -2.400 0.229 -1.326 -0.04 0.61 -0.79 0.06
1 2.60 260 2.102 -9.429 3.534 -11.200 -9.552 0.977 -494.978 -629.890 -3314.940 -2.275 -0.050 -1.052 -0.04 0.61 -0.79 0.07
1 2.61 261 1.255 -9.309 3.184 -0.122 1.343 -1.678 -569.929 -704.991 -3164.888 -1.386 -0.172 -0.709 -0.04 0.61 -0.79 0.07
1 2.62 262 0.891 -9.017 2.892 11.353 1.984 -2.502 -494.978 -779.942 -3209.859 -1.007 -0.462 -0.405 -0.04 0.61 -0.79 0.06
1 2.63 263 0.560 -8.825 2.739 22.614 -2.075 -3.876 -494.978 -779.942 -3209.859 -0.664 -0.646 -0.226 -0.04 0.61 -0.79 0.06
1 2.64 264 0.335 -8.696 2.586 28.290 -6.439 -6.592 -464.997 -719.981 -3074.947 -0.424 -0.765 -0.033 -0.04 0.61 -0.79 0.06
1 2.65 265 0.000 -8.639 2.552 26.825 -10.559 -9.827 -434.867 -749.961 -3254.979 -0.071 -0.811 0.046 -0.04 0.6 -0.79 0.06
1 2.66 266 0.005 -8.706 2.753 15.717 -17.426 -10.040 -434.867 -749.961 -3254.979 -0.054 -0.732 -0.115 -0.04 0.6 -0.79 0.06
1 2.67 267 -0.038 -8.552 2.811 8.484 -20.355 -7.782 -584.919 -869.883 -3299.950 0.012 -0.878 -0.144 -0.05 0.6 -0.8 0.06
1 2.68 268 0.364 -8.801 2.940 0.549 -21.484 0.397 -539.948 -749.961 -3374.901 -0.354 -0.620 -0.244 -0.05 0.6 -0.8 0.06
1 2.69 269 0.579 -8.854 3.089 -1.190 -21.027 3.418 -584.919 -794.932 -3374.901 -0.560 -0.567 -0.389 -0.05 0.6 -0.8 0.07
1 2.70 270 1.322 -9.371 3.237 -5.920 -15.442 12.878 -584.919 -794.932 -3374.901 -1.301 -0.049 -0.536 -0.05 0.6 -0.8 0.07
1 2.71 271 1.810 -9.582 3.256 -8.881 -10.651 17.914 -509.968 -719.981 -3224.999 -1.794 0.160 -0.559 -0.05 0.6 -0.8 0.07
1 2.72 272 2.083 -9.687 3.295 -9.979 -5.219 19.074 -599.909 -809.922 -3419.872 -2.076 0.263 -0.606 -0.05 0.6 -0.8 0.07
1 2.73 273 1.915 -9.773 3.093 -1.801 1.984 15.106 -599.909 -809.922 -3419.872 -1.917 0.347 -0.413 -0.05 0.6 -0.79 0.07
1 2.74 274 1.824 -9.582 2.878 8.331 6.287 10.193 -494.978 -929.994 -3209.859 -1.833 0.155 -0.199 -0.05 0.6 -0.79 0.07
1 2.75 275 1.437 -9.477 2.974 18.219 9.094 5.859 -524.958 -1049.916 -3359.911 -1.448 0.053 -0.283 -0.05 0.6 -0.8 0.07
1 2.76 276 1.154 -9.410 2.739 29.358 10.956 -1.007 -569.929 -854.893 -3284.960 -1.160 0.005 0.015 -0.05 0.6 -0.8 0.07
1 2.77 277 0.781 -9.462 2.485 28.748 11.078 -6.317 -569.929 -854.893 -3284.960 -0.778 0.070 0.314 -0.05 0.6 -0.8 0.07
1 2.78 278 0.637 -9.659 2.682 17.578 10.193 -11.658 -374.906 -704.991 -3389.892 -0.620 0.278 0.156 -0.05 0.59 -0.8 0.07
1 2.79 279 0.560 -9.793 2.682 7.172 8.301 -13.733 -434.867 -839.903 -3224.999 -0.523 0.419 0.176 -0.05 0.59 -0.8 0.06
1 2.80 280 0.761 -9.845 2.806 6.714 0.977 -11.475 -434.867 -839.903 -3224.999 -0.703 0.474 0.061 -0.05 0.59 -0.8 0.06
1 2.81 281 0.910 -9.975 2.801 9.277 -6.348 -8.148 -494.978 -959.975 -3389.892 -0.830 0.606 0.073 -0.05 0.59 -0.8 0.06
1 2.82 282 1.101 -10.003 2.825 7.599 -11.719 -7.477 -584.919 -869.883 -3254.979 -1.000 0.639 0.062 -0.05 0.59 -0.8 0.06
1 2.83 283 1.547 -9.821 2.811 7.141 -11.963 -7.233 -464.997 -989.955 -3194.869 -1.397 0.464 0.097 -0.05 0.59 -0.8 0.06
1 2.84 284 1.738 -9.615 2.816 10.864 -8.484 -6.989 -464.997 -989.955 -3194.869 -1.562 0.262 0.102 -0.06 0.59 -0.8 0.06
1 2.85 285 1.676 -9.395 2.686 15.808 -2.899 -5.096 -569.929 -1079.896 -3284.960 -1.476 0.047 0.249 -0.06 0.59 -0.8 0.06
1 2.86 286 1.743 -9.036 2.648 17.029 1.770 -4.181 -584.919 -944.984 -3254.979 -1.523 -0.304 0.310 -0.06 0.59 -0.8 0.06
1 2.87 287 1.738 -8.873 2.586 15.991 5.249 -3.082 -584.919 -944.984 -3254.979 -1.501 -0.459 0.396 -0.06 0.59 -0.81 0.06
1 2.88 288 1.604 -8.974 2.797 11.993 11.261 -1.801 -629.890 -959.975 -3359.911 -1.354 -0.351 0.208 -0.06 0.59 -0.81 0.06
1 2.89 289 1.839 -9.050 2.959 7.843 13.519 0.702 -509.968 -944.984 -3299.950 -1.579 -0.268 0.064 -0.06 0.59 -0.81 0.06
1 2.90 290 1.738 -9.084 2.749 2.045 14.130 2.014 -509.968 -944.984 -3299.950 -1.473 -0.230 0.289 -0.06 0.58 -0.81 0.06
1 2.91 291 1.504 -8.864 2.667 2.197 16.480 2.960 -614.899 -1019.936 -3299.950 -1.234 -0.447 0.379 -0.06 0.58 -0.81 0.05
1 2.92 292 1.312 -8.672 2.366 7.874 19.379 3.448 -464.997 -1019.936 -3299.950 -1.044 -0.637 0.687 -0.06 0.58 -0.81 0.05
1 2.93 293 1.336 -8.538 2.179 12.329 19.623 3.815 -539.948 -944.984 -3254.979 -1.072 -0.767 0.885 -0.05 0.58 -0.81 0.05
1 2.94 294 1.312 -8.442 2.002 13.214 18.372 5.188 -539.948 -944.984 -3254.979 -1.054 -0.857 1.079 -0.05 0.58 -0.81 0.05
1 2.95 295 1.350 -8.179 1.829 9.644 15.015 7.660 -509.968 -1169.988 -3194.869 -1.104 -1.115 1.270 -0.05 0.58 -0.81 0.05
1 2.96 296 1.595 -8.083 1.820 2.991 13.641 10.162 -569.929 -929.994 -3239.989 -1.364 -1.205 1.296 -0.05 0.58 -0.81 0.05
1 2.97 297 1.810 -8.097 1.805 -6.683 13.977 12.604 -569.929 -929.994 -3239.989 -1.599 -1.188 1.320 -0.05 0.58 -0.81 0.05
1 2.98 298 2.155 -8.184 1.724 -22.797 19.898 14.771 -569.929 -959.975 -3284.960 -1.993 -1.111 1.379 -0.05 0.58 -0.81 0.05
1 2.99 299 2.404 -8.294 1.647 -32.562 25.787 15.564 -539.948 -914.854 -3449.853 -2.273 -1.013 1.421 -0.04 0.58 -0.81 0.05
1 3.00 300 2.342 -8.457 1.484 -36.408 33.325 15.808 -569.929 -929.994 -3314.940 -2.245 -0.865 1.537 -0.04 0.59 -0.81 0.05
1 3.01 301 2.179 -8.528 1.159 -34.332 39.154 17.578 -569.929 -929.994 -3314.940 -2.112 -0.811 1.809 -0.04 0.59 -0.81 0.05
1 3.02 302 1.959 -8.581 1.235 -28.107 43.274 17.700 -449.857 -1004.945 -3284.960 -1.926 -0.775 1.682 -0.04 0.59 -0.8 0.05
1 3.03 303 1.355 -8.768 1.360 -20.691 45.990 15.900 -254.984 -1019.936 -3299.950 -1.351 -0.602 1.512 -0.03 0.59 -0.8 0.05
1 3.04 304 1.039 -8.983 1.585 -19.989 45.166 13.001 -254.984 -1019.936 -3299.950 -1.065 -0.398 1.248 -0.03 0.6 -0.8 0.04
1 3.05 305 0.623 -9.467 2.164 -32.623 42.542 7.904 -179.883 -869.883 -3254.979 -0.701 0.062 0.590 -0.03 0.6 -0.8 0.04
1 3.06 306 0.067 -9.769 3.117 -38.788 39.185 5.707 -284.964 -869.883 -3329.931 -0.167 0.349 -0.417 -0.02 0.6 -0.8 0.04
1 3.07 307 -0.618 -10.195 3.931 -34.912 37.598 0.580 -209.863 -914.854 -3374.901 0.498 0.760 -1.284 -0.02 0.6 -0.8 0.04
1 3.08 308 -1.475 -11.114 4.109 -34.699 35.614 -10.651 -209.863 -914.854 -3374.901 1.343 1.667 -1.508 -0.02 0.61 -0.79 0.04
1 3.09 309 -2.394 -12.192 3.678 -43.701 29.236 -28.229 -209.863 -989.955 -3194.869 2.271 2.730 -1.129 -0.02 0.61 -0.79 0.03
1 3.10 310 -2.643 -11.957 2.093 -42.175 8.484 -36.011 -194.873 -854.893 -3134.908 2.557 2.477 0.390 -0.02 0.61 -0.79 0.03
1 3.11 311 -2.208 -10.391 1.585 -14.740 -7.416 -26.764 -194.873 -854.893 -3134.908 2.171 0.894 0.833 -0.02 0.61 -0.79 0.03
1 3.12 312 -1.451 -8.179 1.891 20.081 -20.233 -22.492 -209.863 -719.981 -3149.898 1.484 -1.325 0.499 -0.02 0.61 -0.79 0.02
1 3.13 313 -1.097 -7.757 2.145 22.125 -21.088 -24.262 -164.893 -704.991 -3104.927 1.166 -1.739 0.276 -0.02 0.61 -0.79 0.02
1 3.14 314 0.249 -7.322 3.108 0.793 -13.611 -27.557 -299.955 -704.991 -3104.927 -0.133 -2.168 -0.663 -0.03 0.61 -0.79 0.02
1 3.15 315 0.972 -7.963 3.668 -30.518 -5.066 -23.621 -299.955 -704.991 -3104.927 -0.811 -1.527 -1.231 -0.03 0.61 -0.79 0.02
1 3.16 316 1.408 -9.534 4.238 -76.813 7.629 -13.123 -269.974 -809.922 -3059.957 -1.213 0.030 -1.856 -0.03 0.61 -0.79 0.02
1 3.17 317 1.322 -11.066 4.147 -94.239 13.458 -8.240 -419.876 -734.971 -3104.927 -1.097 1.542 -1.852 -0.03 0.62 -0.79 0.02
1 3.18 318 0.690 -12.723 3.888 -94.666 14.862 -3.174 -419.876 -734.971 -3104.927 -0.450 3.170 -1.717 -0.03 0.62 -0.78 0.02
1 3.19 319 0.235 -13.418 3.654 -68.695 13.794 1.587 -389.896 -674.860 -3194.869 0.008 3.834 -1.622 -0.03 0.63 -0.78 0.02
1 3.20 320 0.144 -12.469 3.237 2.106 14.526 3.998 -329.935 -569.929 -3014.986 0.088 2.853 -1.365 -0.03 0.64 -0.77 0.02
1 3.21 321 0.024 -11.306 2.753 37.659 15.198 1.953 -269.974 -629.890 -2984.855 0.199 1.693 -0.861 -0.03 0.63 -0.77 0.01
1 3.22 322 0.019 -10.123 2.466 46.265 15.381 -1.373 -269.974 -629.890 -2984.855 0.199 0.523 -0.511 -0.03 0.63 -0.77 0.01
1 3.23 323 0.019 -9.184 2.217 32.013 17.639 -5.219 -299.955 -584.919 -2954.875 0.198 -0.402 -0.194 -0.03 0.63 -0.78 0.01
1 3.24 324 -0.417 -8.691 2.102 -6.561 27.710 -7.721 -209.863 -569.929 -2969.865 0.637 -0.886 -0.036 -0.02 0.63 -0.78 0.01
1 3.25 325 -0.804 -8.979 2.131 -26.428 34.607 -7.751 -209.863 -569.929 -2969.865 1.026 -0.598 -0.060 -0.02 0.63 -0.78 0.01
1 3.26 326 -1.398 -9.343 2.021 -34.912 37.628 -7.904 -284.964 -644.880 -3074.947 1.617 -0.240 0.022 -0.02 0.63 -0.78 0.01
1 3.27 327 -2.246 -10.128 2.045 -28.351 33.661 -9.003 -299.955 -629.890 -3029.976 2.447 0.527 -0.091 -0.02 0.63 -0.77 0.01
1 3.28 328 -2.677 -10.391 2.145 -17.914 23.682 -8.453 -224.854 -434.867 -2954.875 2.865 0.783 -0.227 -0.02 0.63 -0.77 0
1 3.29 329 -2.753 -10.420 2.203 -5.188 12.482 -7.690 -224.854 -434.867 -2954.875 2.949 0.808 -0.304 -0.01 0.63 -0.77 0
1 3.30 330 -2.878 -10.113 2.351 5.066 2.136 -5.341 -209.863 -524.958 -3014.986 3.083 0.501 -0.454 -0.01 0.63 -0.77 0
1 3.31 331 -2.639 -10.113 2.447 10.040 -5.280 0.488 -329.935 -449.857 -2819.963 2.838 0.504 -0.536 -0.01 0.63 -0.77 0
1 3.32 332 -2.241 -10.008 2.299 9.644 -10.895 9.216 -329.935 -449.857 -2819.963 2.431 0.402 -0.370 -0.01 0.63 -0.77 0
1 3.33 333 -1.844 -10.080 2.117 4.883 -11.383 15.320 -284.964 -569.929 -2939.885 2.005 0.477 -0.169 -0.01 0.63 -0.77 0
1 3.34 334 -1.571 -9.979 1.949 0.000 -10.284 20.416 -284.964 -569.929 -2939.885 1.699 0.378 0.011 -0.01 0.63 -0.77 0.01
1 3.35 335 -1.188 -9.759 1.738 -0.458 -7.996 22.705 -224.854 -734.971 -2909.904 1.237 0.158 0.224 -0.01 0.63 -0.77 0.01
1 3.36 336 -1.135 -9.539 1.724 2.380 -4.730 19.440 -224.854 -734.971 -2909.904 1.145 -0.063 0.238 -0.01 0.63 -0.77 0.01
1 3.37 337 -1.053 -9.252 1.733 5.310 -3.815 15.289 -209.863 -599.909 -3044.966 1.031 -0.349 0.233 -0.01 0.63 -0.77 0.02
1 3.38 338 -1.154 -9.228 1.796 6.104 -4.334 11.841 -209.863 -599.909 -3014.986 1.105 -0.371 0.179 -0.01 0.63 -0.77 0.02
1 3.39 339 -1.216 -9.127 1.834 4.608 -7.599 3.784 -209.863 -599.909 -3014.986 1.146 -0.470 0.150 -0.01 0.63 -0.78 0.02
1 3.40 340 -1.264 -9.232 1.796 4.425 -11.749 -0.427 -254.984 -749.961 -2939.885 1.182 -0.363 0.197 -0.01 0.63 -0.78 0.02
1 3.41 341 -1.389 -9.357 1.662 5.615 -16.571 -4.730 -254.984 -749.961 -2939.885 1.302 -0.236 0.339 -0.01 0.63 -0.78 0.02
1 3.42 342 -1.360 -9.544 1.729 7.233 -24.170 -7.141 -254.984 -674.860 -3014.986 1.282 -0.046 0.290 -0.01 0.63 -0.78 0.02
1 3.43 343 -1.499 -9.496 1.748 7.111 -28.931 -8.087 -254.984 -674.860 -3014.986 1.431 -0.092 0.281 -0.01 0.63 -0.78 0.02
1 3.44 344 -1.212 -9.635 1.801 5.341 -31.250 -7.721 -179.883 -494.978 -2969.865 1.155 0.049 0.238 -0.02 0.63 -0.78 0.02
1 3.45 345 -0.833 -9.706 2.126 3.052 -30.487 -6.317 -194.873 -539.948 -2909.904 0.790 0.122 -0.081 -0.02 0.63 -0.78 0.02
1 3.46 346 -0.493 -9.620 2.054 1.495 -26.001 -4.272 -194.873 -539.948 -2909.904 0.462 0.037 -0.003 -0.02 0.63 -0.78 0.03
1 3.47 347 -0.340 -9.860 2.136 1.495 -16.815 -1.892 -374.906 -539.948 -3134.908 0.319 0.278 -0.081 -0.02 0.63 -0.78 0.03
1 3.48 348 -0.378 -9.845 2.088 2.197 -9.949 0.122 -374.906 -539.948 -3134.908 0.364 0.264 -0.029 -0.02 0.63 -0.78 0.03
1 3.49 349 -0.575 -9.615 1.743 5.493 -6.531 -0.610 -344.925 -629.890 -2909.904 0.563 0.037 0.327 -0.02 0.63 -0.78 0.03
1 3.50 350 -0.690 -9.400 1.595 8.698 -8.759 -1.404 -344.925 -629.890 -2909.904 0.678 -0.177 0.484 -0.02 0.63 -0.78 0.03
1 3.51 351 -0.690 -9.501 1.532 10.101 -13.489 -3.754 -329.935 -569.929 -3014.986 0.680 -0.074 0.558 -0.02 0.63 -0.78 0.03
1 3.52 352 -0.661 -9.395 1.508 10.376 -19.318 -5.585 -224.854 -584.919 -3029.976 0.658 -0.176 0.595 -0.02 0.63 -0.78 0.03
1 3.53 353 -0.728 -9.400 1.432 9.155 -23.987 -7.660 -224.854 -584.919 -3029.976 0.736 -0.169 0.684 -0.03 0.63 -0.78 0.03
1 3.54 354 -0.632 -9.285 1.499 4.395 -24.689 -10.132 -449.857 -539.948 -3029.976 0.656 -0.282 0.626 -0.03 0.63 -0.78 0.03
1 3.55 355 -0.479 -9.386 1.590 2.472 -21.820 -11.017 -449.857 -539.948 -3029.976 0.522 -0.180 0.539 -0.03 0.62 -0.78 0.03
1 3.56 356 -0.603 -9.161 1.614 1.312 -16.937 -12.116 -374.906 -629.890 -3059.957 0.686 -0.405 0.516 -0.03 0.62 -0.78 0.03
1 3.57 357 -0.752 -9.113 1.508 2.594 -15.503 -12.604 -374.906 -629.890 -3059.957 0.854 -0.452 0.623 -0.03 0.62 -0.78 0.03
1 3.58 358 -0.876 -9.232 1.283 8.820 -14.740 -14.435 -419.876 -734.971 -3059.957 0.997 -0.331 0.854 -0.04 0.62 -0.78 0.03
1 3.59 359 -0.790 -9.314 1.135 9.644 -17.151 -13.641 -434.867 -524.958 -3044.966 0.931 -0.247 1.012 -0.04 0.62 -0.78 0.03
1 3.60 360 -0.867 -9.366 1.164 7.355 -22.247 -11.749 -434.867 -524.958 -3044.966 1.027 -0.192 0.992 -0.04 0.62 -0.78 0.03
1 3.61 361 -0.512 -9.510 1.259 3.479 -28.809 -10.803 -494.978 -629.890 -2954.875 0.692 -0.047 0.901 -0.04 0.62 -0.78 0.04
1 3.62 362 -0.330 -9.678 1.561 -0.488 -29.694 -8.331 -494.978 -629.890 -2954.875 0.530 0.121 0.600 -0.04 0.62 -0.78 0.04
1 3.63 363 -0.038 -9.702 1.719 -2.777 -29.480 -6.470 -449.857 -629.890 -2954.875 0.256 0.144 0.437 -0.04 0.62 -0.78 0.04
1 3.64 364 0.287 -9.869 2.624 -5.524 -24.719 -2.472 -539.948 -794.932 -3014.986 -0.038 0.309 -0.483 -0.05 0.62 -0.78 0.04
1 3.65 365 0.407 -9.932 3.103 -4.089 -17.700 0.183 -599.909 -629.890 -3059.957 -0.146 0.371 -0.967 -0.05 0.62 -0.78 0.04
1 3.66 366 0.637 -10.430 2.878 0.610 -11.719 5.493 -584.919 -839.903 -3044.966 -0.371 0.870 -0.739 -0.05 0.62 -0.78 0.04
1 3.67 367 0.891 -10.980 2.413 -1.251 -10.223 16.052 -584.919 -839.903 -3044.966 -0.630 1.421 -0.269 -0.05 0.62 -0.78 0.04
1 3.68 368 0.407 -10.693 1.920 -8.728 -8.759 29.816 -659.870 -719.981 -2864.934 -0.170 1.132 0.220 -0.05 0.62 -0.78 0.05
1 3.69 369 0.005 -10.075 1.690 8.545 -2.594 26.398 -659.870 -719.981 -2864.934 0.195 0.511 0.438 -0.05 0.62 -0.78 0.05
1 3.70 370 -0.192 -9.836 1.686 25.757 6.256 20.722 -539.948 -749.961 -3044.966 0.353 0.272 0.448 -0.05 0.62 -0.78 0.05
1 3.71 371 -0.503 -9.735 1.963 18.097 7.721 19.653 -659.870 -719.981 -2939.885 0.597 0.186 0.236 -0.05 0.62 -0.78 0.05
1 3.72 372 -0.469 -9.539 2.193 3.662 -2.289 17.456 -524.958 -659.870 -3059.957 0.530 -0.006 0.026 -0.05 0.62 -0.78 0.05
1 3.73 373 -0.431 -9.759 2.289 -9.308 -13.489 10.712 -464.997 -599.909 -3044.966 0.467 0.214 -0.069 -0.05 0.62 -0.78 0.05
1 3.74 374 -0.335 -10.051 2.375 -19.928 -21.668 7.935 -464.997 -599.909 -3044.966 0.359 0.502 -0.170 -0.05 0.62 -0.78 0.06
1 3.75 375 -0.086 -10.444 2.548 -27.405 -24.658 9.827 -524.958 -539.948 -2984.855 0.104 0.888 -0.373 -0.05 0.62 -0.78 0.06
1 3.76 376 0.455 -10.535 2.959 -24.780 -19.043 14.526 -524.958 -539.948 -2984.855 -0.445 0.970 -0.823 -0.05 0.62 -0.78 0.06
1 3.77 377 0.699 -10.688 3.007 -12.939 -10.895 16.419 -434.867 -674.860 -3074.947 -0.702 1.115 -0.909 -0.05 0.62 -0.78 0.06
1 3.78 378 0.694 -10.908 3.151 6.989 3.540 15.930 -599.909 -509.968 -2954.875 -0.736 1.331 -1.076 -0.05 0.63 -0.78 0.06
1 3.79 379 0.584 -10.947 3.137 9.979 8.453 16.113 -569.929 -704.991 -3029.976 -0.651 1.372 -1.048 -0.05 0.63 -0.78 0.06
1 3.80 380 -0.163 -10.688 2.940 10.681 17.822 17.242 -434.867 -674.860 -2969.865 0.068 1.118 -0.834 -0.05 0.62 -0.78 0.06
1 3.81 381 -0.541 -10.348 2.591 8.179 15.015 15.564 -434.867 -674.860 -2969.865 0.417 0.781 -0.468 -0.04 0.62 -0.78 0.06
1 3.82 382 -0.694 -9.979 2.399 4.547 3.967 12.360 -509.968 -674.860 -3194.869 0.545 0.416 -0.264 -0.04 0.62 -0.78 0.06
1 3.83 383 -0.479 -9.673 2.366 -0.946 -17.761 5.005 -509.968 -674.860 -3194.869 0.310 0.112 -0.222 -0.04 0.62 -0.78 0.06
1 3.84 384 -0.139 -9.630 2.562 -1.953 -27.557 0.214 -584.919 -719.981 -3014.986 -0.037 0.070 -0.414 -0.04 0.62 -0.78 0.07
1 3.85 385 0.302 -9.524 2.682 -2.899 -31.494 -3.418 -599.909 -584.919 -2879.924 -0.471 -0.036 -0.533 -0.04 0.62 -0.78 0.07
1 3.86 386 0.867 -9.472 3.117 -3.021 -27.863 -4.852 -494.978 -779.942 -2849.943 -0.998 -0.088 -0.964 -0.05 0.62 -0.78 0.07
1 3.87 387 0.886 -9.266 3.232 -4.120 -20.722 -4.883 -539.948 -794.932 -3014.986 -0.993 -0.293 -1.075 -0.05 0.62 -0.78 0.07
1 3.88 388 1.053 -9.089 3.323 -3.601 -14.252 -6.592 -539.948 -794.932 -3014.986 -1.137 -0.470 -1.162 -0.05 0.62 -0.78 0.07
1 3.89 389 0.939 -9.137 3.189 -1.312 -8.575 -7.019 -659.870 -674.860 -2894.914 -0.999 -0.421 -1.022 -0.05 0.62 -0.78 0.07
1 3.90 390 0.872 -9.094 3.204 2.075 -5.432 -6.653 -659.870 -674.860 -2894.914 -0.909 -0.462 -1.027 -0.05 0.62 -0.78 0.07
1 3.91 391 0.747 -9.170 2.830 7.721 -4.303 -2.014 -674.860 -629.890 -3029.976 -0.766 -0.382 -0.640 -0.05 0.62 -0.78 0.07
1 3.92 392 0.795 -9.055 2.586 14.252 -5.615 2.563 -690.000 -674.860 -2969.865 -0.800 -0.493 -0.377 -0.06 0.62 -0.78 0.07
1 3.93 393 0.900 -8.979 2.552 24.353 -9.399 6.287 -584.919 -794.932 -3074.947 -0.897 -0.556 -0.286 -0.06 0.62 -0.78 0.07
1 3.94 394 0.915 -8.902 2.452 26.184 -10.803 5.402 -794.932 -794.932 -2969.865 -0.909 -0.623 -0.145 -0.06 0.62 -0.78 0.07
1 3.95 395 1.317 -8.907 2.571 21.942 -10.956 2.716 -794.932 -794.932 -2969.865 -1.306 -0.608 -0.224 -0.06 0.61 -0.78 0.07
1 3.96 396 1.370 -9.089 2.509 14.771 -9.827 0.763 -524.958 -809.922 -3164.888 -1.348 -0.418 -0.128 -0.06 0.61 -0.78 0.07
1 3.97 397 1.556 -9.448 2.567 8.331 -8.026 -0.061 -524.958 -809.922 -3164.888 -1.521 -0.053 -0.163 -0.06 0.61 -0.79 0.07
1 3.98 398 1.757 -9.999 2.816 -0.702 -3.387 -0.732 -509.968 -749.961 -2969.865 -1.706 0.501 -0.399 -0.06 0.61 -0.79 0.07
1 3.99 399 1.676 -10.257 2.873 -4.242 0.580 0.061 -674.860 -809.922 -2984.855 -1.608 0.761 -0.452 -0.06 0.61 -0.79 0.07
1 4.00 400 1.312 -10.520 3.050 -3.387 8.331 -2.014 -599.909 -809.922 -2954.875 -1.223 1.024 -0.634 -0.06 0.61 -0.79 0.07
1 4.01 401 1.039 -10.372 2.916 -2.472 10.284 -3.937 -674.860 -929.994 -2954.875 -0.948 0.875 -0.502 -0.06 0.61 -0.79 0.07
1 4.02 402 0.963 -10.037 2.878 12.299 13.123 -6.928 -674.860 -929.994 -2954.875 -0.866 0.541 -0.458 -0.06 0.61 -0.79 0.07
1 4.03 403 1.053 -9.730 2.433 25.757 9.613 -7.538 -584.919 -914.854 -3014.986 -0.944 0.241 0.014 -0.06 0.61 -0.79 0.07
1 4.04 404 1.097 -9.443 2.442 32.532 3.937 -9.094 -584.919 -914.854 -3014.986 -0.971 -0.035 0.046 -0.06 0.61 -0.79 0.07
1 4.05 405 1.197 -9.242 2.389 28.351 -1.312 -10.254 -690.000 -839.903 -3044.966 -1.051 -0.223 0.148 -0.06 0.61 -0.79 0.07
1 4.06 406 1.298 -9.256 2.389 21.271 -1.312 -11.200 -674.860 -854.893 -2984.855 -1.128 -0.196 0.191 -0.06 0.6 -0.79 0.07
1 4.07 407 1.274 -9.156 2.169 15.167 -0.092 -10.681 -674.860 -854.893 -2984.855 -1.078 -0.287 0.446 -0.06 0.6 -0.79 0.07
1 4.08 408 1.183 -9.060 2.179 11.902 2.136 -7.416 -629.890 -854.893 -3104.927 -0.941 -0.370 0.477 -0.06 0.6 -0.79 0.06
1 4.09 409 1.288 -8.792 2.188 12.329 4.761 -5.493 -629.890 -854.893 -3104.927 -1.029 -0.633 0.484 -0.06 0.6 -0.8 0.06
1 4.10 410 1.173 -8.916 2.059 14.313 6.561 -4.730 -659.870 -794.932 -3149.898 -0.900 -0.503 0.632 -0.06 0.6 -0.8 0.06
1 4.11 411 1.068 -8.988 2.006 14.252 7.965 -4.425 -659.870 -794.932 -3149.898 -0.783 -0.425 0.704 -0.06 0.6 -0.8 0.06
1 4.12 412 0.656 -9.252 2.050 11.261 6.042 -3.540 -614.899 -869.883 -2969.865 -0.361 -0.156 0.679 -0.06 0.6 -0.8 0.06
1 4.13 413 0.723 -9.290 2.088 10.010 4.913 -2.686 -764.952 -719.981 -3119.917 -0.420 -0.113 0.656 -0.06 0.6 -0.8 0.06
1 4.14 414 0.819 -9.261 2.131 8.270 1.465 -0.702 -764.952 -719.981 -3119.917 -0.509 -0.138 0.625 -0.06 0.6 -0.8 0.06
1 4.15 415 0.857 -9.448 2.308 5.737 -3.448 4.944 -749.961 -704.991 -3029.976 -0.539 0.054 0.466 -0.07 0.6 -0.8 0.06
1 4.16 416 0.991 -9.319 2.193 3.876 -5.646 8.728 -749.961 -704.991 -3029.976 -0.675 -0.073 0.587 -0.07 0.59 -0.8 0.06
1 4.17 417 1.001 -9.161 2.064 4.150 -5.829 10.986 -629.890 -959.975 -3104.927 -0.690 -0.231 0.720 -0.07 0.59 -0.8 0.06
1 4.18 418 1.068 -8.873 1.829 8.637 -4.456 13.336 -629.890 -959.975 -3104.927 -0.765 -0.517 0.959 -0.07 0.59 -0.8 0.06
1 4.19 419 1.202 -8.725 1.561 13.306 -0.458 13.733 -599.909 -1049.916 -3029.976 -0.910 -0.663 1.238 -0.07 0.59 -0.8 0.06
1 4.20 420 1.748 -8.533 1.183 12.726 9.064 17.181 -659.870 -944.984 -3044.966 -1.469 -0.850 1.630 -0.07 0.59 -0.8 0.06
1 4.21 421 1.891 -8.327 1.077 8.545 15.198 18.616 -659.870 -944.984 -3044.966 -1.629 -1.053 1.747 -0.06 0.59 -0.8 0.06
1 4.22 422 2.294 -8.026 0.982 1.587 23.132 20.416 -690.000 -794.932 -3149.898 -2.063 -1.351 1.859 -0.06 0.59 -0.8 0.06
1 4.23 423 2.318 -8.002 1.144 -12.054 32.623 21.576 -614.899 -1094.887 -3299.950 -2.165 -1.376 1.699 -0.06 0.59 -0.8 0.06
1 4.24 424 2.294 -8.045 1.178 -20.386 35.950 19.714 -584.919 -1094.887 -3254.979 -2.186 -1.339 1.646 -0.05 0.59 -0.8 0.06
1 4.25 425 2.064 -8.414 1.178 -27.496 37.140 18.524 -584.919 -1094.887 -3254.979 -1.999 -0.979 1.616 -0.05 0.6 -0.8 0.06
1 4.26 426 1.824 -8.816 1.212 -31.555 35.126 16.968 -629.890 -854.893 -3104.927 -1.800 -0.589 1.543 -0.05 0.6 -0.8 0.06
1 4.27 427 1.346 -9.405 1.322 -33.478 32.715 12.482 -524.958 -1004.945 -3239.989 -1.344 -0.016 1.379 -0.05 0.6 -0.8 0.06
1 4.28 428 0.939 -9.520 1.293 -30.853 30.396 9.979 -524.958 -1004.945 -3239.989 -0.957 0.083 1.352 -0.04 0.6 -0.79 0.06
1 4.29 429 0.555 -9.510 1.279 -27.466 26.917 7.568 -584.919 -749.961 -3014.986 -0.591 0.059 1.313 -0.04 0.6 -0.79 0.06
1 4.30 430 0.393 -9.524 1.441 -21.057 21.637 6.805 -449.857 -809.922 -2984.855 -0.457 0.049 1.057 -0.04 0.61 -0.79 0.06
1 4.31 431 0.321 -9.362 1.820 -16.815 17.822 6.561 -509.968 -944.984 -2969.865 -0.398 -0.123 0.644 -0.04 0.61 -0.79 0.06
1 4.32 432 0.378 -9.070 2.600 -14.343 15.625 6.256 -509.968 -944.984 -2969.865 -0.467 -0.422 -0.164 -0.04 0.61 -0.79 0.06
1 4.33 433 0.326 -9.122 3.596 -9.186 16.083 3.296 -494.978 -959.975 -3104.927 -0.423 -0.374 -1.178 -0.04 0.61 -0.79 0.06
1 4.34 434 -0.402 -9.994 4.257 -9.613 25.116 -13.336 -434.867 -839.903 -3074.947 0.300 0.496 -1.843 -0.04 0.61 -0.79 0.05
1 4.35 435 -1.322 -10.985 4.042 -14.038 34.454 -35.126 -434.867 -839.903 -3074.947 1.227 1.487 -1.628 -0.04 0.61 -0.79 0.05
1 4.36 436 -1.844 -12.244 2.969 -22.522 37.018 -54.535 -464.997 -839.903 -3119.917 1.781 2.742 -0.572 -0.03 0.61 -0.79 0.05
1 4.37 437 -1.939 -11.627 1.513 -24.719 10.559 -43.549 -359.916 -989.955 -2969.865 2.009 2.108 0.818 -0.04 0.62 -0.79 0.04
1 4.38 438 -1.619 -9.955 1.283 -8.362 -11.627 -24.048 -344.925 -704.991 -2984.855 1.744 0.431 1.019 -0.04 0.62 -0.78 0.04
1 4.39 439 -1.197 -8.892 1.556 8.087 -24.811 -15.106 -344.925 -704.991 -2984.855 1.353 -0.634 0.738 -0.04 0.62 -0.78 0.04
1 4.40 440 -0.397 -8.495 2.231 7.874 -29.114 -16.754 -494.978 -734.971 -2984.855 0.575 -1.029 0.072 -0.04 0.62 -0.78 0.04
1 4.41 441 0.292 -8.844 3.084 -14.313 -29.389 -20.386 -494.978 -929.994 -2879.924 -0.080 -0.678 -0.776 -0.04 0.62 -0.79 0.04
1 4.42 442 1.250 -10.200 4.310 -58.624 -27.069 -16.724 -494.978 -929.994 -2879.924 -0.997 0.672 -2.029 -0.05 0.62 -0.78 0.04
1 4.43 443 1.791 -11.550 4.449 -71.564 -20.722 -7.782 -599.909 -959.975 -2909.904 -1.497 2.008 -2.233 -0.05 0.62 -0.78 0.04
1 4.44 444 1.733 -13.293 4.085 -64.087 -9.369 6.744 -569.929 -704.991 -2984.855 -1.410 3.707 -2.074 -0.05 0.63 -0.78 0.04
1 4.45 445 1.480 -13.432 3.946 -56.214 -5.737 9.827 -389.896 -794.932 -2789.982 -1.165 3.828 -2.023 -0.05 0.63 -0.77 0.04
1 4.46 446 0.872 -12.355 3.682 -13.733 5.402 11.780 -389.896 -794.932 -2789.982 -0.573 2.739 -1.812 -0.05 0.63 -0.77 0.04
1 4.47 447 0.862 -10.928 3.443 11.292 11.658 11.963 -524.958 -704.991 -2849.943 -0.581 1.310 -1.581 -0.05 0.63 -0.77 0.04
1 4.48 448 1.006 -10.022 3.299 22.858 15.564 10.254 -584.919 -749.961 -2789.982 -0.745 0.409 -1.413 -0.05 0.63 -0.77 0.04
1 4.49 449 1.044 -8.945 3.127 19.379 19.562 5.096 -584.919 -749.961 -2789.982 -0.797 -0.660 -1.199 -0.05 0.63 -0.77 0.04
1 4.50 450 0.718 -8.725 2.931 8.301 27.222 2.258 -434.867 -794.932 -2864.934 -0.479 -0.872 -0.960 -0.05 0.63 -0.77 0.04
1 4.51 451 0.239 -8.686 2.921 -1.587 39.856 0.397 -494.978 -734.971 -2879.924 -0.006 -0.905 -0.922 -0.05 0.63 -0.77 0.04
1 4.52 452 -0.867 -8.744 2.476 -10.223 56.397 -3.265 -524.958 -659.870 -2909.904 1.078 -0.845 -0.464 -0.04 0.63 -0.78 0.04
1 4.53 453 -1.987 -9.127 2.174 -8.240 56.244 -10.010 -524.958 -659.870 -2909.904 2.182 -0.464 -0.168 -0.04 0.63 -0.78 0.03
1 4.54 454 -3.060 -9.352 2.107 -5.676 42.572 -16.937 -509.968 -749.961 -2819.963 3.242 -0.240 -0.106 -0.04 0.63 -0.78 0.03
1 4.55 455 -3.821 -9.745 2.318 -6.897 17.609 -21.881 -449.857 -809.922 -2849.943 3.997 0.152 -0.321 -0.03 0.63 -0.78 0.03
1 4.56 456 -3.831 -9.912 2.615 -11.780 -23.010 -19.898 -449.857 -809.922 -2849.943 4.008 0.318 -0.625 -0.03 0.63 -0.78 0.03
1 4.57 457 -3.386 -10.219 2.643 -14.862 -39.917 -11.322 -494.978 -809.922 -2774.992 3.585 0.622 -0.667 -0.04 0.63 -0.77 0.03
1 4.58 458 -2.773 -10.410 2.658 -12.878 -43.488 1.343 -374.906 -704.991 -2774.992 3.004 0.810 -0.702 -0.04 0.63 -0.77 0.03
1 4.59 459 -1.614 -10.420 2.361 -1.190 -31.159 23.132 -494.978 -779.942 -2879.924 1.858 0.814 -0.436 -0.04 0.63 -0.77 0.03
1 4.60 460 -1.044 -10.224 2.169 7.477 -17.517 35.919 -494.978 -779.942 -2879.924 1.259 0.617 -0.242 -0.04 0.63 -0.77 0.04
1 4.61 461 -0.747 -9.682 2.083 13.733 -5.127 42.542 -434.867 -794.932 -2759.852 0.901 0.078 -0.139 -0.04 0.63 -0.77 0.04
1 4.62 462 -0.728 -9.232 2.040 13.916 3.296 40.314 -539.948 -719.981 -2759.852 0.815 -0.368 -0.073 -0.04 0.63 -0.77 0.04
1 4.63 463 -0.723 -9.113 1.848 7.507 6.134 32.776 -539.948 -719.981 -2759.852 0.747 -0.483 0.140 -0.04 0.63 -0.77 0.04
1 4.64 464 -0.943 -9.161 1.997 -9.277 -3.479 18.799 -539.948 -644.880 -2864.934 0.916 -0.434 0.000 -0.04 0.63 -0.77 0.05
1 4.65 465 -1.207 -9.491 1.963 -17.395 -14.679 11.414 -434.867 -749.961 -2864.934 1.144 -0.105 0.026 -0.04 0.63 -0.77 0.05
1 4.66 466 -1.312 -10.013 2.222 -15.503 -29.114 4.272 -509.968 -869.883 -2714.881 1.217 0.408 -0.278 -0.04 0.63 -0.77 0.05
1 4.67 467 -1.116 -10.080 2.299 -11.475 -31.250 3.571 -509.968 -869.883 -2714.881 1.016 0.472 -0.371 -0.04 0.63 -0.77 0.05
1 4.68 468 -0.958 -10.243 2.600 0.793 -32.196 3.204 -329.935 -839.903 -2819.963 0.857 0.634 -0.677 -0.04 0.63 -0.77 0.06
1 4.69 469 -0.627 -10.051 2.686 5.341 -28.442 6.622 -374.906 -734.971 -2774.992 0.524 0.444 -0.755 -0.04 0.63 -0.77 0.06
1 4.70 470 -0.402 -9.778 2.643 6.256 -21.545 9.705 -374.906 -734.971 -2774.992 0.292 0.174 -0.697 -0.04 0.63 -0.77 0.06
1 4.71 471 -0.330 -9.558 2.811 0.122 -11.871 11.963 -569.929 -854.893 -2699.891 0.209 -0.043 -0.850 -0.04 0.63 -0.77 0.06
1 4.72 472 -0.302 -9.630 2.729 -2.563 -5.768 12.665 -569.929 -704.991 -2909.904 0.167 0.031 -0.759 -0.04 0.63 -0.77 0.06
1 4.73 473 -0.383 -9.582 2.524 -3.357 -2.106 11.749 -569.929 -704.991 -2909.904 0.232 -0.016 -0.549 -0.04 0.63 -0.77 0.06
1 4.74 474 -0.833 -9.668 2.174 2.045 -2.533 9.247 -434.867 -674.860 -2759.852 0.649 0.072 -0.196 -0.04 0.63 -0.77 0.07
1 4.75 475 -0.967 -9.457 2.026 8.759 -5.463 6.165 -464.997 -674.860 -2789.982 0.768 -0.137 -0.039 -0.04 0.63 -0.77 0.07
1 4.76 476 -0.977 -9.213 2.069 14.160 -9.003 3.052 -614.899 -674.860 -2609.950 0.768 -0.377 -0.064 -0.04 0.63 -0.77 0.07
1 4.77 477 -1.053 -9.007 2.222 15.198 -13.428 0.580 -614.899 -674.860 -2609.950 0.839 -0.578 -0.193 -0.04 0.63 -0.77 0.07
1 4.78 478 -1.082 -8.868 2.198 15.076 -18.036 -1.648 -509.968 -599.909 -2819.963 0.867 -0.711 -0.143 -0.04 0.63 -0.77 0.07
1 4.79 479 -0.924 -8.744 1.973 13.275 -25.055 -2.930 -494.978 -779.942 -2849.943 0.711 -0.830 0.107 -0.04 0.63 -0.78 0.07
1 4.80 480 -0.737 -8.926 1.801 12.390 -27.710 -3.174 -494.978 -779.942 -2849.943 0.532 -0.643 0.303 -0.04 0.63 -0.78 0.07
1 4.81 481 -0.670 -9.050 1.604 11.688 -25.147 -3.357 -539.948 -719.981 -2819.963 0.485 -0.511 0.539 -0.05 0.62 -0.78 0.07
1 4.82 482 -0.584 -9.060 1.523 9.552 -22.553 -3.235 -509.968 -794.932 -2789.982 0.410 -0.498 0.636 -0.05 0.62 -0.78 0.07
1 4.83 483 -0.536 -9.017 1.508 9.674 -18.402 -3.937 -524.958 -734.971 -2699.891 0.372 -0.538 0.663 -0.05 0.62 -0.78 0.08
1 4.84 484 -0.599 -8.825 1.585 10.590 -16.235 -4.883 -524.958 -734.971 -2699.891 0.444 -0.727 0.598 -0.05 0.62 -0.78 0.08
1 4.85 485 -0.766 -9.007 1.642 7.263 -17.487 -7.263 -524.958 -734.971 -2849.943 0.623 -0.542 0.555 -0.05 0.62 -0.78 0.08
1 4.86 486 -1.250 -8.959 1.820 -3.326 -20.111 -10.590 -614.899 -749.961 -2789.982 1.121 -0.589 0.384 -0.05 0.62 -0.78 0.08
1 4.87 487 -1.326 -9.266 1.801 -3.906 -22.949 -12.939 -614.899 -749.961 -2789.982 1.213 -0.283 0.400 -0.05 0.62 -0.78 0.08
1 4.88 488 -1.063 -9.611 1.690 -6.195 -33.661 -11.078 -704.991 -809.922 -2729.872 0.988 0.058 0.496 -0.06 0.62 -0.78 0.08
1 4.89 489 -0.939 -9.721 1.585 -6.928 -36.499 -10.529 -599.909 -854.893 -2729.872 0.885 0.165 0.590 -0.06 0.62 -0.78 0.08
1 4.90 490 -0.632 -9.908 1.786 -2.380 -38.574 -8.667 -659.870 -674.860 -2939.885 0.600 0.350 0.379 -0.06 0.62 -0.78 0.08
1 4.91 491 -0.350 -10.027 1.729 2.747 -33.386 -7.294 -659.870 -674.860 -2939.885 0.339 0.469 0.433 -0.07 0.62 -0.78 0.08
1 4.92 492 -0.215 -10.046 1.719 5.280 -27.771 -5.035 -704.991 -854.893 -2849.943 0.223 0.489 0.446 -0.07 0.62 -0.78 0.08
1 4.93 493 -0.053 -9.797 1.528 6.561 -21.607 -3.967 -734.971 -794.932 -2939.885 0.076 0.241 0.643 -0.07 0.62 -0.78 0.08
1 4.94 494 -0.086 -9.606 1.628 7.172 -19.989 -4.334 -734.971 -794.932 -2939.885 0.122 0.051 0.548 -0.07 0.62 -0.78 0.09
1 4.95 495 -0.101 -9.390 1.566 5.859 -19.257 -5.981 -659.870 -749.961 -2819.963 0.150 -0.163 0.618 -0.07 0.62 -0.78 0.09
1 4.96 496 -0.168 -9.347 1.930 2.350 -19.898 -7.141 -690.000 -839.903 -2639.930 0.248 -0.204 0.264 -0.07 0.62 -0.78 0.09
1 4.97 497 0.077 -9.122 2.691 -0.031 -20.691 -6.470 -704.991 -779.942 -2774.992 0.020 -0.428 -0.496 -0.08 0.62 -0.78 0.09
1 4.98 498 0.254 -9.228 3.022 2.350 -20.325 -4.913 -704.991 -779.942 -2774.992 -0.141 -0.322 -0.823 -0.08 0.62 -0.78 0.09
1 4.99 499 0.895 -9.864 2.835 6.378 -21.698 0.763 -839.903 -869.883 -2759.852 -0.768 0.318 -0.623 -0.08 0.62 -0.78 0.09
1 5.00 500 1.341 -11.157 2.567 -8.759 -26.123 19.409 -794.932 -674.860 -2819.963 -1.204 1.615 -0.340 -0.08 0.62 -0.78 0.09
1 5.01 501 1.226 -11.109 2.327 -13.489 -21.942 29.419 -794.932 -674.860 -2819.963 -1.102 1.565 -0.107 -0.08 0.62 -0.78 0.09
1 5.02 502 0.733 -10.784 2.318 -1.495 -8.118 24.048 -989.955 -839.903 -2789.982 -0.641 1.235 -0.116 -0.08 0.62 -0.78 0.1
1 5.03 503 0.259 -10.650 2.241 3.540 12.482 16.632 -764.952 -794.932 -2864.934 -0.227 1.100 -0.039 -0.08 0.62 -0.78 0.1
1 5.04 504 -0.067 -10.233 2.179 3.357 14.587 16.327 -854.893 -734.971 -2774.992 0.070 0.685 0.030 -0.08 0.62 -0.78 0.1
1 5.05 505 -0.388 -9.955 2.255 6.042 10.010 10.468 -854.893 -734.971 -2774.992 0.365 0.409 -0.041 -0.08 0.62 -0.78 0.1
1 5.06 506 -0.579 -9.955 2.318 4.791 1.343 2.228 -899.864 -854.893 -2804.973 0.541 0.411 -0.093 -0.08 0.62 -0.78 0.1
1 5.07 507 -0.623 -10.090 2.265 -3.021 -6.928 -2.045 -794.932 -839.903 -2819.963 0.580 0.547 -0.034 -0.08 0.62 -0.78 0.1
1 5.08 508 -0.541 -10.415 2.308 -12.054 -13.550 -1.221 -794.932 -839.903 -2819.963 0.501 0.871 -0.084 -0.08 0.62 -0.78 0.1
1 5.09 509 -0.254 -10.219 2.500 -10.193 -13.947 -0.366 -914.854 -749.961 -2714.881 0.217 0.671 -0.291 -0.08 0.62 -0.78 0.1
1 5.10 510 -0.038 -10.444 2.629 -1.953 -10.651 3.845 -869.883 -839.903 -2684.901 0.006 0.891 -0.442 -0.08 0.62 -0.78 0.1
1 5.11 511 -0.206 -10.386 2.701 0.275 -8.575 4.761 -914.854 -674.860 -2864.934 0.171 0.834 -0.512 -0.08 0.62 -0.78 0.1
1 5.12 512 -0.287 -10.066 2.629 4.883 -2.228 7.111 -914.854 -674.860 -2864.934 0.244 0.515 -0.432 -0.08 0.62 -0.78 0.1
1 5.13 513 -0.426 -9.750 2.634 7.813 -1.221 6.287 -929.994 -779.942 -2909.904 0.373 0.202 -0.425 -0.08 0.62 -0.78 0.1
1 5.14 514 -0.503 -9.534 2.423 8.118 -5.219 3.662 -734.971 -914.854 -2864.934 0.440 -0.010 -0.198 -0.08 0.62 -0.78 0.11
1 5.15 515 -0.498 -9.472 2.457 2.747 -15.808 -0.153 -734.971 -914.854 -2864.934 0.431 -0.069 -0.217 -0.08 0.62 -0.78 0.11
1 5.16 516 -0.235 -9.491 2.447 -0.977 -25.024 -2.380 -734.971 -749.961 -2819.963 0.168 -0.047 -0.198 -0.08 0.62 -0.78 0.11
1 5.17 517 0.019 -9.697 2.571 -2.869 -31.891 -3.845 -734.971 -749.961 -2819.963 -0.077 0.159 -0.319 -0.08 0.62 -0.78 0.11
1 5.18 518 0.527 -10.137 2.950 -1.526 -32.959 -3.693 -914.854 -719.981 -2714.881 -0.549 0.600 -0.695 -0.09 0.61 -0.78 0.11
1 5.19 519 1.144 -10.372 3.165 -2.563 -28.168 -2.502 -914.854 -719.981 -2714.881 -1.146 0.836 -0.908 -0.09 0.61 -0.78 0.11
1 5.20 520 1.403 -10.281 3.132 -1.831 -21.149 0.397 -989.955 -794.932 -2789.982 -1.393 0.744 -0.877 -0.09 0.61 -0.78 0.11
1 5.21 521 1.599 -10.003 3.093 2.228 -14.801 -0.977 -944.984 -914.854 -2759.852 -1.582 0.466 -0.838 -0.09 0.61 -0.78 0.11
1 5.22 522 1.580 -9.773 2.892 6.226 -11.353 -3.357 -944.984 -914.854 -2759.852 -1.548 0.239 -0.628 -0.09 0.61 -0.78 0.11
1 5.23 523 1.422 -9.366 2.648 9.125 -5.341 -4.303 -989.955 -839.903 -2759.852 -1.369 -0.164 -0.367 -0.09 0.61 -0.78 0.11
1 5.24 524 1.365 -9.132 2.615 8.667 -0.092 -2.167 -989.955 -839.903 -2759.852 -1.291 -0.394 -0.315 -0.09 0.61 -0.78 0.11
1 5.25 525 1.188 -9.065 2.653 7.111 5.615 2.960 -869.883 -794.932 -2789.982 -1.088 -0.453 -0.320 -0.09 0.61 -0.78 0.11
1 5.26 526 0.900 -9.165 2.715 7.172 7.965 6.653 -869.883 -794.932 -2789.982 -0.800 -0.349 -0.367 -0.09 0.61 -0.78 0.11
1 5.27 527 0.637 -9.084 2.739 8.606 7.538 8.301 -944.984 -989.955 -2759.852 -0.542 -0.426 -0.375 -0.09 0.61 -0.78 0.11
1 5.28 528 0.733 -9.266 2.974 11.536 5.188 8.240 -1019.936 -869.883 -2939.885 -0.647 -0.240 -0.591 -0.09 0.61 -0.78 0.11
1 5.29 529 0.541 -9.410 2.926 12.085 -0.305 4.913 -1019.936 -869.883 -2939.885 -0.462 -0.090 -0.519 -0.09 0.61 -0.78 0.11
1 5.30 530 0.771 -9.711 2.964 13.123 -10.254 1.373 -914.854 -719.981 -2714.881 -0.693 0.218 -0.534 -0.09 0.61 -0.78 0.11
1 5.31 531 0.881 -10.003 2.993 13.367 -12.024 -0.610 -914.854 -719.981 -2714.881 -0.798 0.516 -0.539 -0.09 0.61 -0.78 0.11
1 5.32 532 1.389 -9.864 3.184 12.970 -8.698 2.258 -944.984 -839.903 -2759.852 -1.283 0.390 -0.683 -0.09 0.6 -0.78 0.11
1 5.33 533 1.724 -9.764 3.108 14.679 -2.502 4.547 -944.984 -839.903 -2759.852 -1.609 0.296 -0.582 -0.1 0.6 -0.78 0.11
1 5.34 534 2.021 -9.807 2.969 13.886 3.723 2.625 -1064.906 -914.854 -2789.982 -1.899 0.346 -0.417 -0.1 0.6 -0.79 0.11
1 5.35 535 1.915 -9.821 2.998 7.782 8.148 -0.732 -1034.926 -929.994 -2909.904 -1.783 0.366 -0.424 -0.1 0.6 -0.79 0.11
1 5.36 536 2.217 -9.802 2.859 6.500 11.780 -5.371 -1034.926 -929.994 -2909.904 -2.072 0.351 -0.271 -0.1 0.6 -0.79 0.11
1 5.37 537 2.107 -9.496 2.677 14.465 12.970 -9.491 -854.893 -959.975 -2954.875 -1.941 0.049 -0.075 -0.1 0.6 -0.79 0.11
1 5.38 538 1.786 -9.232 2.514 23.010 13.001 -10.803 -854.893 -959.975 -2954.875 -1.596 -0.209 0.107 -0.1 0.6 -0.79 0.11
1 5.39 539 1.374 -9.117 2.389 31.128 14.313 -11.963 -989.955 -944.984 -2759.852 -1.160 -0.314 0.264 -0.1 0.6 -0.79 0.11
1 5.40 540 1.168 -9.022 2.069 35.370 15.076 -13.733 -1004.945 -1004.945 -2804.973 -0.909 -0.382 0.679 -0.1 0.59 -0.79 0.11
1 5.41 541 1.058 -8.854 1.949 33.142 13.641 -14.404 -854.893 -929.994 -2909.904 -0.776 -0.534 0.847 -0.1 0.59 -0.79 0.1
1 5.42 542 1.121 -8.749 1.925 27.680 9.827 -13.611 -914.854 -989.955 -2894.914 -0.816 -0.626 0.915 -0.1 0.59 -0.8 0.1
1 5.43 543 1.154 -8.710 1.997 20.264 7.141 -11.780 -914.854 -989.955 -2894.914 -0.829 -0.653 0.876 -0.1 0.59 -0.8 0.1
1 5.44 544 1.116 -8.797 1.992 11.566 4.608 -8.057 -1004.945 -1049.916 -2879.924 -0.770 -0.559 0.904 -0.1 0.59 -0.8 0.1
1 5.45 545 1.159 -9.137 2.155 8.606 3.998 -8.026 -1004.945 -1049.916 -2879.924 -0.795 -0.214 0.756 -0.1 0.58 -0.8 0.1
1 5.46 546 1.183 -9.539 2.174 6.409 3.662 -7.996 -1004.945 -929.994 -2984.855 -0.802 0.192 0.747 -0.1 0.58 -0.8 0.1
1 5.47 547 1.370 -9.903 2.299 6.439 4.364 -7.660 -944.984 -1139.857 -2969.865 -0.954 0.561 0.634 -0.1 0.58 -0.8 0.1
1 5.48 548 1.413 -9.797 2.160 9.888 4.211 -3.632 -899.864 -1154.998 -2954.875 -0.982 0.458 0.778 -0.1 0.58 -0.8 0.1
1 5.49 549 1.360 -9.601 1.973 16.846 5.829 0.580 -914.854 -1064.906 -3074.947 -0.918 0.266 0.977 -0.1 0.58 -0.8 0.1
1 5.50 550 1.298 -9.007 1.858 22.705 8.026 5.920 -914.854 -1064.906 -3074.947 -0.854 -0.321 1.114 -0.1 0.58 -0.8 0.1
1 5.51 551 1.154 -8.605 1.528 27.802 9.552 9.827 -929.994 -1049.916 -3059.957 -0.716 -0.714 1.473 -0.1 0.58 -0.8 0.1
1 5.52 552 1.283 -8.093 1.216 26.947 13.733 13.489 -929.994 -1049.916 -3059.957 -0.862 -1.214 1.823 -0.1 0.58 -0.8 0.1
1 5.53 553 1.350 -8.131 1.159 16.388 16.174 16.296 -974.965 -1124.867 -2879.924 -0.952 -1.163 1.924 -0.09 0.58 -0.8 0.1
1 5.54 554 1.475 -8.006 1.058 -5.981 20.203 21.942 -869.883 -1139.857 -2969.865 -1.141 -1.277 2.065 -0.09 0.58 -0.81 0.1
1 5.55 555 1.575 -8.078 1.121 -13.886 22.278 23.377 -779.942 -1079.896 -2984.855 -1.283 -1.210 1.991 -0.09 0.58 -0.81 0.1
1 5.56 556 1.628 -8.265 1.293 -34.088 24.536 25.574 -824.913 -1049.916 -3104.927 -1.381 -1.035 1.786 -0.09 0.58 -0.8 0.1
1 5.57 557 1.829 -8.198 1.322 -41.748 23.712 24.628 -824.913 -1049.916 -3104.927 -1.629 -1.120 1.708 -0.08 0.58 -0.8 0.1
1 5.58 558 1.949 -8.356 1.403 -41.565 23.377 22.675 -989.955 -1019.936 -2939.885 -1.793 -0.981 1.568 -0.08 0.58 -0.8 0.1
1 5.59 559 2.088 -8.457 1.077 -32.318 24.536 20.508 -989.955 -1019.936 -2939.885 -1.974 -0.899 1.838 -0.08 0.59 -0.8 0.1
1 5.60 560 2.064 -8.409 0.982 -25.726 27.252 19.257 -764.952 -1094.887 -2969.865 -1.983 -0.963 1.882 -0.08 0.59 -0.8 0.1
1 5.61 561 1.757 -8.442 0.852 -20.142 31.830 16.693 -704.991 -1079.896 -2849.943 -1.707 -0.942 1.970 -0.08 0.59 -0.8 0.1
1 5.62 562 1.255 -8.279 0.809 -14.710 40.497 14.679 -599.909 -1079.896 -2879.924 -1.279 -1.121 1.960 -0.07 0.59 -0.8 0.1
1 5.63 563 1.092 -8.117 1.504 -12.543 44.251 15.198 -749.961 -959.975 -2954.875 -1.154 -1.289 1.246 -0.07 0.6 -0.79 0.09
1 5.64 564 0.632 -7.906 2.442 -12.390 43.884 15.106 -749.961 -959.975 -2954.875 -0.733 -1.505 0.291 -0.06 0.6 -0.79 0.09
1 5.65 565 0.129 -8.150 4.209 -12.299 42.816 10.620 -614.899 -839.903 -2969.865 -0.268 -1.265 -1.493 -0.06 0.6 -0.79 0.09
1 5.66 566 -0.819 -9.007 5.761 -17.792 40.894 -1.404 -614.899 -839.903 -2969.865 0.653 -0.411 -3.057 -0.06 0.6 -0.79 0.09
1 5.67 567 -3.429 -13.020 5.224 -32.959 51.880 -59.052 -629.890 -1049.916 -2774.992 3.255 3.600 -2.529 -0.05 0.6 -0.79 0.09
1 5.68 568 -4.137 -16.621 2.868 -54.535 46.906 -98.297 -584.919 -869.883 -3014.986 4.012 7.188 -0.216 -0.05 0.6 -0.79 0.08
1 5.69 569 -2.715 -13.705 1.125 -64.697 -29.694 -50.110 -569.929 -1004.945 -2909.904 2.821 4.225 1.358 -0.06 0.61 -0.79 0.07
1 5.70 570 -1.729 -9.759 1.470 -17.120 -52.826 -19.959 -569.929 -959.975 -2879.924 1.909 0.260 0.934 -0.06 0.61 -0.79 0.07
1 5.71 571 -0.804 -7.604 1.786 36.072 -45.990 -19.135 -569.929 -959.975 -2879.924 1.025 -1.896 0.610 -0.07 0.61 -0.79 0.07
1 5.72 572 0.675 -7.513 2.318 53.589 -26.459 -21.210 -614.899 -914.854 -2789.982 -0.408 -1.969 0.142 -0.07 0.61 -0.79 0.07
1 5.73 573 1.872 -8.505 3.137 23.438 -13.184 -8.820 -614.899 -914.854 -2789.982 -1.568 -0.958 -0.605 -0.07 0.6 -0.79 0.07
1 5.74 574 2.926 -10.362 3.951 -51.850 -0.916 22.339 -704.991 -854.893 -2669.911 -2.605 0.906 -1.399 -0.07 0.6 -0.79 0.07
1 5.75 575 2.797 -12.216 4.219 -99.884 7.874 38.849 -704.991 -929.994 -2804.973 -2.482 2.746 -1.715 -0.07 0.61 -0.79 0.07
1 5.76 576 1.025 -13.269 5.033 -156.006 11.353 40.100 -690.000 -869.883 -2759.852 -0.831 3.717 -2.852 -0.07 0.62 -0.78 0.07
1 5.77 577 0.761 -13.169 5.076 -149.262 12.634 30.731 -824.913 -884.874 -2774.992 -0.623 3.567 -3.118 -0.07 0.63 -0.77 0.07
1 5.78 578 -0.101 -12.350 3.998 -57.770 15.015 -0.946 -824.913 -884.874 -2774.992 0.215 2.716 -2.204 -0.07 0.64 -0.77 0.07
1 5.79 579 0.340 -11.167 3.386 15.533 10.223 -17.090 -524.958 -809.922 -2699.891 -0.221 1.523 -1.646 -0.07 0.64 -0.76 0.07
1 5.80 580 0.546 -9.831 3.060 68.817 6.531 -27.832 -524.958 -809.922 -2699.891 -0.398 0.196 -1.273 -0.07 0.64 -0.77 0.07
1 5.81 581 0.991 -8.342 2.816 94.879 12.695 -28.595 -614.899 -839.903 -2534.999 -0.799 -1.269 -0.910 -0.07 0.63 -0.77 0.07
1 5.82 582 0.742 -7.700 2.998 75.196 28.626 -18.341 -764.952 -644.880 -2534.999 -0.504 -1.879 -0.943 -0.07 0.62 -0.77 0.07
1 5.83 583 -0.057 -7.623 3.194 30.975 52.826 -5.341 -764.952 -644.880 -2534.999 0.323 -1.927 -1.013 -0.07 0.62 -0.78 0.07
1 5.84 584 -2.356 -8.246 2.873 -39.795 82.978 -0.397 -674.860 -809.922 -2729.872 2.597 -1.291 -0.630 -0.06 0.62 -0.78 0.06
1 5.85 585 -3.936 -9.343 2.500 -69.824 74.524 -3.754 -674.860 -809.922 -2729.872 4.143 -0.210 -0.320 -0.06 0.62 -0.78 0.06
1 5.86 586 -5.114 -10.554 2.145 -74.616 39.612 -7.294 -659.870 -719.981 -2789.982 5.279 0.979 -0.065 -0.05 0.63 -0.78 0.05
1 5.87 587 -5.354 -11.349 2.050 -58.869 -5.707 -8.362 -659.870 -719.981 -2789.982 5.523 1.752 -0.072 -0.05 0.63 -0.77 0.05
1 5.88 588 -4.405 -11.109 2.543 -15.472 -50.842 -1.587 -539.948 -794.932 -2684.901 4.592 1.498 -0.641 -0.05 0.63 -0.77 0.05
1 5.89 589 -3.496 -10.362 2.428 12.634 -55.176 9.613 -509.968 -914.854 -2759.852 3.701 0.744 -0.561 -0.06 0.63 -0.77 0.05
1 5.90 590 -2.615 -9.510 2.260 34.149 -45.502 22.400 -509.968 -914.854 -2759.852 2.828 -0.106 -0.384 -0.06 0.63 -0.77 0.06
1 5.91 591 -1.422 -8.528 1.887 44.342 -19.165 37.048 -584.919 -599.909 -2684.901 1.556 -1.067 0.099 -0.06 0.63 -0.77 0.06
1 5.92 592 -0.996 -8.643 1.777 31.830 -3.754 40.039 -584.919 -599.909 -2684.901 1.067 -0.940 0.274 -0.06 0.63 -0.77 0.07
1 5.93 593 -0.350 -9.094 1.528 7.050 5.676 37.659 -629.890 -734.971 -2519.858 0.359 -0.481 0.562 -0.06 0.62 -0.78 0.07
1 5.94 594 -0.235 -9.524 1.915 -21.423 5.005 34.973 -629.890 -734.971 -2519.858 0.186 -0.050 0.173 -0.06 0.62 -0.78 0.07
1 5.95 595 -0.254 -10.070 1.925 -40.711 -4.395 29.389 -494.978 -734.971 -2669.911 0.155 0.487 0.123 -0.05 0.63 -0.77 0.07
1 5.96 596 -0.235 -10.166 2.251 -33.844 -25.482 15.717 -524.958 -779.942 -2804.973 0.097 0.571 -0.263 -0.05 0.63 -0.77 0.08
1 5.97 597 -0.057 -10.109 2.500 -14.252 -35.309 5.157 -524.958 -779.942 -2804.973 -0.100 0.503 -0.564 -0.05 0.63 -0.77 0.08
1 5.98 598 0.235 -10.061 2.691 10.376 -31.586 -1.617 -539.948 -719.981 -2609.950 -0.379 0.451 -0.774 -0.06 0.63 -0.77 0.08
1 5.99 599 0.311 -10.142 2.753 13.825 -25.665 -1.404 -539.948 -719.981 -2609.950 -0.441 0.537 -0.811 -0.06 0.63 -0.77 0.08
1 6.00 600 0.091 -9.721 2.792 12.085 -2.869 2.319 -584.919 -794.932 -2684.901 -0.213 0.122 -0.821 -0.06 0.63 -0.77 0.08
1 6.01 601 -0.445 -9.357 2.811 5.981 9.857 4.181 -584.919 -794.932 -2684.901 0.322 -0.237 -0.817 -0.06 0.63 -0.77 0.08
1 6.02 602 -0.891 -9.386 2.581 -0.916 14.069 4.272 -584.919 -794.932 -2639.930 0.758 -0.206 -0.574 -0.06 0.63 -0.77 0.08
1 6.03 603 -1.331 -9.381 2.342 -1.923 6.561 -0.183 -584.919 -794.932 -2684.901 1.185 -0.210 -0.331 -0.06 0.63 -0.77 0.08
1 6.04 604 -1.317 -9.386 2.241 4.181 -4.303 -3.754 -584.919 -794.932 -2684.901 1.160 -0.204 -0.229 -0.06 0.63 -0.77 0.08
1 6.05 605 -1.264 -9.213 2.064 11.688 -14.435 -7.813 -629.890 -584.919 -2774.992 1.105 -0.375 -0.044 -0.06 0.63 -0.77 0.08
1 6.06 606 -1.216 -9.079 1.925 22.766 -25.391 -12.146 -539.948 -719.981 -2714.881 1.077 -0.500 0.141 -0.06 0.63 -0.77 0.08
1 6.07 607 -1.039 -8.840 1.944 27.008 -27.863 -14.069 -629.890 -659.870 -2549.989 0.921 -0.731 0.159 -0.06 0.62 -0.77 0.08
1 6.08 608 -1.073 -8.854 1.834 28.137 -27.496 -14.374 -629.890 -659.870 -2549.989 0.978 -0.708 0.312 -0.06 0.62 -0.78 0.09
1 6.09 609 -0.972 -8.768 1.681 25.665 -26.306 -13.397 -690.000 -794.932 -2714.881 0.901 -0.785 0.506 -0.06 0.62 -0.78 0.09
1 6.10 610 -0.886 -8.686 1.523 17.914 -23.560 -10.834 -629.890 -779.942 -2594.959 0.837 -0.858 0.699 -0.07 0.62 -0.78 0.09
1 6.11 611 -0.642 -8.643 1.729 3.296 -19.989 -7.355 -629.890 -779.942 -2594.959 0.610 -0.896 0.514 -0.07 0.62 -0.78 0.09
1 6.12 612 -0.584 -8.782 1.719 -4.059 -17.609 -5.341 -599.909 -809.922 -2699.891 0.569 -0.756 0.532 -0.07 0.62 -0.78 0.09
1 6.13 613 -0.733 -8.912 1.676 -13.336 -16.449 -4.730 -839.903 -674.860 -2684.901 0.742 -0.631 0.558 -0.07 0.62 -0.78 0.09
1 6.14 614 -0.891 -9.180 1.551 -11.383 -15.259 -6.653 -749.961 -779.942 -2669.911 0.909 -0.367 0.661 -0.07 0.62 -0.78 0.09
1 6.15 615 -0.939 -9.577 1.408 -4.517 -15.717 -8.820 -749.961 -779.942 -2669.911 0.967 0.027 0.789 -0.07 0.62 -0.78 0.09
1 6.16 616 -0.895 -9.826 1.437 2.380 -18.738 -9.766 -704.991 -659.870 -2624.940 0.937 0.274 0.753 -0.08 0.62 -0.78 0.09
1 6.17 617 -1.101 -9.970 1.370 5.554 -23.926 -11.505 -704.991 -659.870 -2669.911 1.158 0.418 0.820 -0.08 0.62 -0.78 0.09
1 6.18 618 -1.073 -9.850 1.465 7.904 -29.968 -9.888 -704.991 -659.870 -2669.911 1.147 0.299 0.729 -0.08 0.62 -0.78 0.09
1 6.19 619 -0.862 -9.773 1.298 8.087 -32.715 -7.568 -854.893 -929.994 -2804.973 0.954 0.224 0.902 -0.08 0.62 -0.78 0.09
1 6.20 620 -0.527 -9.659 1.279 4.059 -32.806 -5.981 -764.952 -794.932 -2819.963 0.649 0.112 0.932 -0.08 0.62 -0.78 0.1
1 6.21 621 -0.445 -9.501 1.384 0.916 -32.227 -6.073 -764.952 -794.932 -2714.881 0.583 -0.046 0.824 -0.09 0.62 -0.78 0.1
1 6.22 622 -0.412 -9.328 1.585 -4.974 -29.633 -6.317 -764.952 -794.932 -2714.881 0.566 -0.221 0.615 -0.09 0.62 -0.78 0.1
1 6.23 623 -0.321 -9.323 1.877 -6.744 -25.940 -5.859 -1004.945 -929.994 -2729.872 0.491 -0.228 0.311 -0.09 0.62 -0.78 0.1
1 6.24 624 -0.244 -9.577 2.313 -7.019 -23.743 -4.181 -824.913 -779.942 -2669.911 0.428 0.024 -0.136 -0.09 0.62 -0.78 0.1
1 6.25 625 0.206 -10.018 2.950 -9.125 -22.034 1.923 -824.913 -779.942 -2669.911 -0.011 0.462 -0.783 -0.09 0.62 -0.77 0.1
1 6.26 626 0.795 -10.631 2.978 -8.240 -23.316 10.101 -1019.936 -674.860 -2609.950 -0.594 1.074 -0.819 -0.1 0.62 -0.77 0.1
1 6.27 627 1.408 -11.205 2.739 -9.338 -23.956 20.081 -839.903 -869.883 -2609.950 -1.210 1.646 -0.589 -0.1 0.62 -0.77 0.1
1 6.28 628 1.235 -10.865 2.380 -5.096 -10.925 28.839 -914.854 -794.932 -2609.950 -1.085 1.300 -0.254 -0.1 0.62 -0.77 0.11
1 6.29 629 0.795 -10.133 2.126 8.118 5.493 24.201 -914.854 -794.932 -2609.950 -0.683 0.566 -0.002 -0.1 0.62 -0.77 0.11
1 6.30 630 0.263 -9.601 1.829 19.959 19.531 17.761 -974.965 -704.991 -2519.858 -0.180 0.038 0.313 -0.09 0.62 -0.77 0.11
1 6.31 631 -0.259 -9.352 1.537 19.898 21.515 13.123 -989.955 -794.932 -2639.930 0.315 -0.204 0.635 -0.09 0.62 -0.77 0.11
1 6.32 632 -0.670 -9.438 1.743 4.425 2.899 7.813 -989.955 -794.932 -2639.930 0.703 -0.112 0.454 -0.09 0.62 -0.77 0.11
1 6.33 633 -0.484 -9.821 2.217 -13.336 -14.099 1.312 -824.913 -779.942 -2774.992 0.497 0.273 -0.012 -0.09 0.62 -0.77 0.11
1 6.34 634 -0.374 -10.626 2.835 -32.349 -24.963 -3.052 -824.913 -779.942 -2669.911 0.382 1.074 -0.644 -0.09 0.62 -0.77 0.11
1 6.35 635 0.043 -11.344 3.271 -46.417 -22.858 0.336 -794.932 -839.903 -2684.901 -0.013 1.770 -1.179 -0.09 0.62 -0.77 0.11
1 6.36 636 0.536 -11.569 3.204 -36.377 -12.024 5.554 -794.932 -839.903 -2684.901 -0.502 1.981 -1.177 -0.1 0.62 -0.77 0.12
1 6.37 637 0.560 -11.459 3.122 -15.106 0.824 8.698 -899.864 -854.893 -2669.911 -0.531 1.862 -1.140 -0.1 0.62 -0.77 0.12
1 6.38 638 0.302 -11.220 3.074 4.089 9.979 11.047 -869.883 -674.860 -2504.868 -0.286 1.619 -1.105 -0.1 0.62 -0.77 0.12
1 6.39 639 -0.105 -10.770 2.983 14.038 15.228 13.306 -869.883 -674.860 -2504.868 0.102 1.172 -1.002 -0.09 0.62 -0.77 0.12
1 6.40 640 -0.833 -9.850 2.682 14.557 13.519 12.421 -914.854 -599.909 -2684.901 0.806 0.258 -0.676 -0.09 0.62 -0.77 0.12
1 6.41 641 -1.082 -9.510 2.490 9.033 4.913 6.531 -989.955 -794.932 -2684.901 1.031 -0.077 -0.458 -0.09 0.62 -0.77 0.12
1 6.42 642 -1.221 -9.242 2.337 -2.716 -16.876 -4.395 -839.903 -794.932 -2684.901 1.143 -0.338 -0.274 -0.09 0.62 -0.77 0.12
1 6.43 643 -1.125 -9.256 2.217 -5.768 -25.086 -7.599 -839.903 -794.932 -2684.901 1.054 -0.324 -0.156 -0.09 0.62 -0.77 0.12
1 6.44 644 -0.330 -9.376 2.385 -6.775 -44.556 -14.679 -704.991 -734.971 -2774.992 0.282 -0.206 -0.332 -0.09 0.62 -0.77 0.12
1 6.45 645 0.364 -9.491 2.672 -2.441 -49.500 -15.259 -824.913 -779.942 -2699.891 -0.378 -0.093 -0.624 -0.1 0.62 -0.77 0.12
1 6.46 646 1.192 -9.572 2.763 2.991 -46.875 -11.383 -824.913 -779.942 -2699.891 -1.167 -0.010 -0.711 -0.1 0.62 -0.77 0.12
1 6.47 647 2.299 -9.611 3.079 6.836 -33.081 -2.502 -914.854 -794.932 -2534.999 -2.236 0.031 -1.015 -0.1 0.62 -0.77 0.12
1 6.48 648 2.710 -9.218 3.189 6.714 -20.111 2.594 -914.854 -794.932 -2459.897 -2.616 -0.358 -1.108 -0.11 0.62 -0.77 0.12
1 6.49 649 2.658 -8.974 3.204 6.561 -8.209 6.744 -914.854 -794.932 -2459.897 -2.541 -0.598 -1.103 -0.11 0.62 -0.77 0.12
1 6.50 650 2.255 -8.725 3.113 6.592 6.409 10.162 -989.955 -839.903 -2564.979 -2.115 -0.837 -0.971 -0.11 0.62 -0.77 0.13
1 6.51 651 2.088 -8.873 3.098 3.662 12.146 12.970 -1034.926 -734.971 -2549.989 -1.947 -0.685 -0.938 -0.11 0.61 -0.77 0.12
1 6.52 652 1.762 -9.055 2.993 1.740 15.961 15.350 -1019.936 -674.860 -2639.930 -1.630 -0.499 -0.818 -0.11 0.61 -0.77 0.12
1 6.53 653 1.690 -9.362 2.835 0.763 17.273 15.503 -1019.936 -674.860 -2639.930 -1.572 -0.191 -0.649 -0.11 0.61 -0.77 0.12
1 6.54 654 1.470 -9.592 2.739 2.594 17.242 12.390 -1079.896 -659.870 -2594.959 -1.366 0.041 -0.544 -0.11 0.61 -0.77 0.12
1 6.55 655 1.164 -9.769 2.557 11.932 14.282 1.770 -914.854 -674.860 -2639.930 -1.069 0.221 -0.351 -0.1 0.61 -0.77 0.12
1 6.56 656 0.886 -9.845 2.509 20.905 10.193 -7.660 -914.854 -674.860 -2639.930 -0.792 0.302 -0.284 -0.1 0.61 -0.77 0.12
1 6.57 657 0.790 -9.711 2.595 29.266 5.646 -15.656 -974.965 -704.991 -2669.911 -0.661 0.185 -0.298 -0.1 0.61 -0.78 0.12
1 6.58 658 0.785 -9.908 2.662 29.816 4.089 -15.259 -794.932 -719.981 -2714.881 -0.628 0.393 -0.319 -0.1 0.61 -0.78 0.12
1 6.59 659 0.862 -9.970 2.581 25.024 2.777 -13.794 -929.994 -779.942 -2594.959 -0.679 0.467 -0.192 -0.1 0.61 -0.78 0.12
1 6.60 660 0.824 -10.056 2.667 11.566 3.754 -11.627 -929.994 -779.942 -2594.959 -0.617 0.562 -0.245 -0.1 0.6 -0.78 0.12
1 6.61 661 0.828 -9.960 2.648 -0.092 7.385 -9.003 -1034.926 -929.994 -2669.911 -0.602 0.471 -0.211 -0.11 0.6 -0.78 0.12
1 6.62 662 0.848 -10.046 2.600 -0.153 13.123 -4.517 -1064.906 -869.883 -2684.901 -0.607 0.558 -0.161 -0.11 0.6 -0.78 0.12
1 6.63 663 0.838 -9.888 2.500 5.402 12.848 -1.343 -1064.906 -869.883 -2684.901 -0.588 0.400 -0.060 -0.11 0.6 -0.78 0.11
1 6.64 664 0.656 -9.716 2.457 15.595 10.040 -1.038 -1034.926 -929.994 -2669.911 -0.401 0.234 0.007 -0.1 0.6 -0.78 0.11
1 6.65 665 0.723 -9.745 2.428 18.280 8.423 -2.014 -989.955 -794.932 -2639.930 -0.465 0.270 0.062 -0.1 0.6 -0.78 0.11
1 6.66 666 0.709 -9.371 2.073 26.642 3.174 -4.730 -1004.945 -809.922 -2699.891 -0.443 -0.094 0.450 -0.1 0.6 -0.78 0.11
1 6.67 667 0.848 -9.199 2.006 27.222 -0.519 -5.432 -1004.945 -809.922 -2699.891 -0.571 -0.256 0.555 -0.1 0.6 -0.79 0.11
1 6.68 668 1.053 -8.897 2.073 25.299 -2.960 -5.280 -1004.945 -854.893 -2804.973 -0.763 -0.547 0.525 -0.1 0.6 -0.79 0.11
1 6.69 669 1.164 -8.667 2.016 21.271 -2.960 -4.791 -944.984 -869.883 -2894.914 -0.858 -0.767 0.617 -0.1 0.6 -0.79 0.11
1 6.70 670 1.374 -8.749 1.949 18.585 -2.258 -4.730 -944.984 -869.883 -2894.914 -1.054 -0.677 0.715 -0.1 0.59 -0.79 0.11
1 6.71 671 1.336 -8.935 2.054 14.710 -0.641 -5.310 -989.955 -794.932 -2714.881 -1.000 -0.482 0.635 -0.11 0.59 -0.79 0.11
1 6.72 672 1.417 -9.184 2.059 12.451 4.486 -5.280 -1004.945 -929.994 -2729.872 -1.048 -0.222 0.667 -0.11 0.59 -0.79 0.11
1 6.73 673 1.494 -9.333 2.102 11.139 6.989 -3.632 -899.864 -884.874 -2909.904 -1.111 -0.068 0.639 -0.11 0.59 -0.79 0.11
1 6.74 674 1.518 -9.362 2.059 10.223 9.064 -0.305 -899.864 -884.874 -2909.904 -1.125 -0.035 0.695 -0.11 0.59 -0.79 0.11
1 6.75 675 1.398 -9.266 2.035 12.512 11.017 3.052 -929.994 -884.874 -2699.891 -1.000 -0.127 0.732 -0.11 0.59 -0.79 0.11
1 6.76 676 1.283 -8.868 1.944 17.456 11.871 7.843 -914.854 -989.955 -2894.914 -0.887 -0.520 0.838 -0.11 0.59 -0.79 0.11
1 6.77 677 1.149 -8.835 1.738 19.623 11.353 9.796 -914.854 -989.955 -2894.914 -0.761 -0.547 1.066 -0.1 0.59 -0.79 0.11
1 6.78 678 1.389 -8.538 1.710 19.348 11.505 11.139 -929.994 -884.874 -2804.973 -1.010 -0.837 1.119 -0.1 0.59 -0.8 0.11
1 6.79 679 1.350 -8.485 1.508 14.099 16.663 13.031 -899.864 -1049.916 -2804.973 -1.006 -0.876 1.371 -0.1 0.59 -0.8 0.11
1 6.80 680 1.480 -8.600 1.216 6.195 22.949 15.472 -764.952 -914.854 -2864.934 -1.161 -0.756 1.683 -0.1 0.58 -0.8 0.11
1 6.81 681 1.322 -8.581 1.288 -2.533 30.212 17.700 -764.952 -914.854 -2864.934 -1.036 -0.773 1.620 -0.1 0.59 -0.8 0.11
1 6.82 682 1.255 -8.548 1.197 -9.338 35.431 19.623 -914.854 -989.955 -2969.865 -1.009 -0.809 1.708 -0.09 0.59 -0.8 0.11
1 6.83 683 1.049 -8.605 1.212 -15.198 36.926 18.738 -854.893 -884.874 -2879.924 -0.846 -0.756 1.681 -0.09 0.59 -0.8 0.11
1 6.84 684 0.785 -8.701 1.389 -18.616 32.471 15.625 -854.893 -884.874 -2879.924 -0.624 -0.667 1.483 -0.09 0.59 -0.8 0.11
1 6.85 685 0.828 -8.907 1.283 -19.806 27.222 12.878 -899.864 -929.994 -2879.924 -0.701 -0.471 1.561 -0.09 0.59 -0.8 0.1
1 6.86 686 1.255 -9.041 1.111 -18.402 19.684 11.261 -839.903 -914.854 -2789.982 -1.172 -0.358 1.664 -0.08 0.59 -0.79 0.1
1 6.87 687 1.183 -9.041 1.212 -18.494 18.433 9.827 -869.883 -989.955 -3044.966 -1.115 -0.368 1.528 -0.08 0.59 -0.79 0.1
1 6.88 688 1.480 -9.213 1.020 -19.684 17.700 8.972 -869.883 -989.955 -3044.966 -1.422 -0.206 1.683 -0.08 0.6 -0.79 0.1
1 6.89 689 1.365 -9.433 1.125 -20.111 21.515 9.277 -839.903 -944.984 -2714.881 -1.316 0.003 1.540 -0.08 0.6 -0.79 0.1
1 6.90 690 1.283 -9.477 0.986 -19.684 26.306 10.345 -734.971 -914.854 -2819.963 -1.247 0.035 1.640 -0.08 0.6 -0.79 0.1
1 6.91 691 1.164 -9.410 1.144 -17.792 31.830 14.435 -734.971 -914.854 -2819.963 -1.143 -0.042 1.445 -0.08 0.6 -0.79 0.1
1 6.92 692 1.183 -9.007 1.738 -16.510 32.776 17.426 -690.000 -794.932 -2819.963 -1.184 -0.454 0.816 -0.07 0.6 -0.79 0.1
1 6.93 693 1.001 -8.945 2.337 -17.181 31.006 18.280 -690.000 -794.932 -2819.963 -1.029 -0.525 0.186 -0.07 0.61 -0.79 0.1
1 6.94 694 0.292 -9.003 3.893 -19.836 32.196 11.475 -584.919 -914.854 -2894.914 -0.377 -0.480 -1.420 -0.07 0.61 -0.79 0.09
1 6.95 695 -0.460 -9.582 4.544 -24.841 35.187 0.061 -584.919 -914.854 -2894.914 0.355 0.094 -2.092 -0.07 0.61 -0.79 0.09
1 6.96 696 -1.848 -10.765 4.439 -22.980 41.931 -18.005 -690.000 -914.854 -2789.982 1.736 1.272 -2.008 -0.06 0.61 -0.78 0.09
1 6.97 697 -2.787 -12.283 3.323 -17.517 50.446 -42.481 -509.968 -914.854 -2864.934 2.695 2.782 -0.923 -0.06 0.61 -0.78 0.09
1 6.98 698 -3.184 -13.274 1.815 -21.362 37.109 -55.725 -509.968 -914.854 -2864.934 3.144 3.766 0.561 -0.06 0.61 -0.78 0.08
1 6.99 699 -2.476 -10.904 1.417 -22.644 -9.399 -39.032 -674.860 -854.893 -2729.872 2.505 1.388 0.925 -0.06 0.61 -0.78 0.08
1 7.00 700 -1.690 -9.017 2.006 -6.104 -27.618 -30.151 -674.860 -854.893 -2729.872 1.784 -0.507 0.302 -0.06 0.61 -0.78 0.07
1 7.01 701 -0.153 -8.452 2.706 6.378 -32.166 -25.879 -569.929 -779.942 -2669.911 0.336 -1.073 -0.407 -0.07 0.61 -0.78 0.07
1 7.02 702 0.891 -9.094 3.467 -12.604 -32.532 -15.930 -569.929 -779.942 -2669.911 -0.661 -0.429 -1.161 -0.07 0.61 -0.78 0.07
1 7.03 703 2.050 -10.003 3.912 -39.490 -30.304 -4.181 -464.997 -869.883 -2714.881 -1.786 0.477 -1.626 -0.08 0.61 -0.78 0.07
1 7.04 704 2.744 -11.406 4.310 -58.075 -18.127 3.815 -704.991 -779.942 -2729.872 -2.463 1.867 -2.083 -0.08 0.62 -0.78 0.08
1 7.05 705 2.859 -12.584 4.554 -75.196 -1.801 10.223 -704.991 -779.942 -2729.872 -2.580 3.024 -2.418 -0.08 0.62 -0.78 0.08
1 7.06 706 1.628 -12.235 4.650 -83.435 17.883 10.864 -674.860 -809.922 -2624.940 -1.365 2.649 -2.628 -0.08 0.63 -0.77 0.08
1 7.07 707 0.393 -11.512 4.109 -54.382 32.227 1.801 -674.860 -809.922 -2624.940 -0.150 1.900 -2.211 -0.08 0.63 -0.77 0.08
1 7.08 708 -0.354 -10.267 3.093 12.238 36.041 -13.550 -749.961 -659.870 -2624.940 0.584 0.632 -1.314 -0.07 0.64 -0.77 0.07
1 7.09 709 -0.512 -9.903 2.883 31.281 32.044 -17.944 -749.961 -659.870 -2624.940 0.754 0.276 -1.064 -0.07 0.63 -0.77 0.07
1 7.10 710 -0.623 -8.921 2.658 59.021 15.961 -25.910 -614.899 -644.880 -2564.979 0.887 -0.689 -0.754 -0.07 0.63 -0.77 0.07
1 7.11 711 -0.560 -8.619 2.686 48.340 9.522 -24.292 -764.952 -644.880 -2789.982 0.854 -0.971 -0.690 -0.07 0.63 -0.77 0.07
1 7.12 712 -1.010 -8.514 2.677 5.219 16.632 -12.665 -764.952 -644.880 -2789.982 1.328 -1.060 -0.611 -0.07 0.62 -0.78 0.06
1 7.13 713 -1.355 -8.787 2.610 -23.407 25.421 -6.836 -749.961 -584.919 -2519.858 1.684 -0.781 -0.517 -0.07 0.62 -0.78 0.06
1 7.14 714 -2.088 -9.228 2.385 -39.276 28.992 -3.998 -749.961 -584.919 -2519.858 2.412 -0.344 -0.308 -0.07 0.62 -0.78 0.06
1 7.15 715 -2.682 -9.855 2.524 -41.840 23.956 -3.448 -614.899 -794.932 -2684.901 2.991 0.273 -0.492 -0.07 0.63 -0.77 0.06
1 7.16 716 -2.916 -10.568 2.749 -25.635 1.678 -1.404 -690.000 -599.909 -2639.930 3.194 0.964 -0.822 -0.07 0.63 -0.77 0.06
1 7.17 717 -2.907 -10.750 2.773 -10.010 -12.268 2.380 -690.000 -569.929 -2759.852 3.187 1.140 -0.876 -0.07 0.63 -0.77 0.06
1 7.18 718 -2.739 -10.803 2.538 2.808 -20.111 8.514 -749.961 -659.870 -2594.959 3.020 1.191 -0.650 -0.07 0.63 -0.77 0.06
1 7.19 719 -2.332 -10.611 2.231 8.484 -21.271 17.242 -749.961 -659.870 -2594.959 2.604 1.000 -0.336 -0.07 0.63 -0.77 0.06
1 7.20 720 -1.666 -9.927 1.872 17.914 -13.855 29.358 -614.899 -719.981 -2609.950 1.917 0.318 0.039 -0.07 0.63 -0.77 0.07
1 7.21 721 -1.317 -9.357 1.528 22.308 -7.813 34.332 -614.899 -719.981 -2609.950 1.515 -0.248 0.409 -0.07 0.63 -0.77 0.07
1 7.22 722 -0.996 -8.983 1.341 20.630 -2.930 35.339 -690.000 -719.981 -2534.999 1.135 -0.616 0.628 -0.07 0.63 -0.77 0.07
1 7.23 723 -0.359 -9.137 1.144 3.174 -2.411 31.067 -509.968 -719.981 -2714.881 0.384 -0.454 0.871 -0.06 0.63 -0.77 0.08
1 7.24 724 -0.172 -9.328 1.326 -11.993 -8.606 25.116 -674.860 -659.870 -2474.888 0.152 -0.263 0.685 -0.06 0.63 -0.77 0.08
1 7.25 725 0.096 -9.740 1.676 -23.834 -17.395 17.914 -464.997 -674.860 -2684.901 -0.148 0.143 0.309 -0.06 0.63 -0.77 0.08
1 7.26 726 0.201 -9.836 2.073 -27.283 -24.872 10.742 -464.997 -674.860 -2684.901 -0.269 0.231 -0.126 -0.06 0.63 -0.77 0.08
1 7.27 727 0.464 -9.912 2.361 -22.888 -26.764 5.280 -659.870 -599.909 -2609.950 -0.535 0.301 -0.451 -0.06 0.63 -0.77 0.08
1 7.28 728 0.383 -10.157 2.500 -5.463 -16.419 -1.068 -659.870 -599.909 -2609.950 -0.447 0.540 -0.615 -0.07 0.63 -0.77 0.08
1 7.29 729 0.129 -10.157 2.480 4.303 -4.456 -1.617 -584.919 -749.961 -2639.930 -0.181 0.538 -0.604 -0.07 0.63 -0.77 0.08
1 7.30 730 -0.570 -9.893 2.452 7.324 10.254 -0.519 -690.000 -524.958 -2564.979 0.527 0.280 -0.550 -0.07 0.63 -0.77 0.08
1 7.31 731 -0.939 -9.778 2.428 2.411 14.557 -0.427 -509.968 -749.961 -2534.999 0.892 0.168 -0.512 -0.07 0.63 -0.77 0.08
1 7.32 732 -1.307 -9.649 2.126 -2.838 11.871 -2.228 -674.860 -509.968 -2549.989 1.253 0.040 -0.204 -0.07 0.63 -0.77 0.08
1 7.33 733 -1.398 -9.706 2.169 -5.524 5.707 -3.967 -674.860 -509.968 -2549.989 1.338 0.097 -0.249 -0.06 0.63 -0.77 0.08
1 7.34 734 -1.427 -9.592 2.059 -3.082 -1.465 -6.470 -464.997 -524.958 -2609.950 1.363 -0.019 -0.143 -0.06 0.63 -0.77 0.08
1 7.35 735 -1.346 -9.453 1.839 7.568 -11.292 -9.277 -464.997 -524.958 -2609.950 1.283 -0.158 0.077 -0.06 0.63 -0.77 0.08
1 7.36 736 -1.082 -9.323 1.710 16.388 -15.411 -11.353 -614.899 -599.909 -2564.979 1.028 -0.285 0.216 -0.06 0.63 -0.77 0.08
1 7.37 737 -1.058 -9.065 1.614 21.545 -17.334 -13.397 -690.000 -674.860 -2639.930 1.016 -0.539 0.335 -0.07 0.63 -0.77 0.08
1 7.38 738 -0.919 -8.878 1.350 23.377 -18.402 -14.984 -584.919 -599.909 -2564.979 0.914 -0.713 0.662 -0.07 0.63 -0.77 0.08
1 7.39 739 -0.795 -8.615 1.125 22.430 -19.959 -14.893 -659.870 -719.981 -2714.881 0.812 -0.970 0.919 -0.07 0.63 -0.77 0.08
1 7.40 740 -0.771 -8.619 0.881 20.416 -21.851 -13.428 -659.870 -719.981 -2714.881 0.814 -0.958 1.195 -0.07 0.62 -0.77 0.08
1 7.41 741 -0.546 -8.557 0.939 15.778 -23.834 -12.390 -659.870 -674.860 -2564.979 0.617 -1.014 1.167 -0.07 0.62 -0.77 0.09
1 7.42 742 -0.656 -8.686 0.852 8.514 -23.529 -10.468 -659.870 -674.860 -2564.979 0.754 -0.879 1.275 -0.08 0.62 -0.78 0.09
1 7.43 743 -0.661 -8.725 1.135 -6.653 -20.142 -10.010 -824.913 -704.991 -2519.858 0.783 -0.838 1.003 -0.08 0.62 -0.78 0.09
1 7.44 744 -0.733 -9.017 1.245 -10.651 -15.564 -10.223 -629.890 -779.942 -2549.989 0.877 -0.547 0.887 -0.08 0.62 -0.78 0.09
1 7.45 745 -0.488 -9.697 1.302 -13.367 -12.146 -10.651 -899.864 -854.893 -2549.989 0.666 0.125 0.792 -0.08 0.62 -0.77 0.09
1 7.46 746 -0.350 -9.903 1.676 -14.252 -13.519 -10.834 -764.952 -869.883 -2609.950 0.543 0.326 0.394 -0.08 0.62 -0.77 0.09
1 7.47 747 -0.412 -10.319 1.638 -12.512 -15.533 -11.353 -764.952 -869.883 -2609.950 0.622 0.738 0.409 -0.08 0.62 -0.77 0.09
1 7.48 748 -0.393 -10.386 1.719 -7.172 -17.151 -12.207 -704.991 -659.870 -2699.891 0.621 0.801 0.309 -0.09 0.62 -0.77 0.09
1 7.49 749 -0.326 -10.276 1.595 1.587 -16.998 -11.719 -704.991 -659.870 -2699.891 0.573 0.689 0.423 -0.09 0.62 -0.77 0.09
1 7.50 750 -0.517 -10.219 1.307 14.191 -17.365 -12.787 -794.932 -719.981 -2684.901 0.784 0.633 0.713 -0.09 0.62 -0.77 0.09
1 7.51 751 -0.412 -10.056 1.336 17.761 -18.158 -12.970 -839.903 -569.929 -2684.901 0.698 0.474 0.698 -0.09 0.62 -0.77 0.09
1 7.52 752 -0.656 -9.970 1.379 13.153 -20.172 -12.482 -839.903 -644.880 -2564.979 0.982 0.397 0.694 -0.09 0.62 -0.77 0.09
1 7.53 753 -0.713 -9.874 1.590 9.827 -20.813 -12.482 -794.932 -674.860 -2609.950 1.058 0.305 0.495 -0.09 0.62 -0.77 0.09
1 7.54 754 -0.651 -9.654 1.959 1.556 -24.109 -10.651 -794.932 -674.860 -2609.950 1.014 0.086 0.130 -0.1 0.62 -0.77 0.09
1 7.55 755 -0.484 -9.457 2.418 -0.244 -26.642 -7.935 -989.955 -674.860 -2684.901 0.862 -0.110 -0.330 -0.1 0.62 -0.77 0.09
1 7.56 756 -0.005 -9.395 2.897 1.709 -26.703 -3.784 -989.955 -674.860 -2684.901 0.396 -0.172 -0.808 -0.1 0.62 -0.77 0.09
1 7.57 757 0.670 -9.860 2.677 8.637 -23.834 9.247 -974.965 -809.922 -2594.959 -0.271 0.295 -0.578 -0.1 0.62 -0.77 0.09
1 7.58 758 1.221 -10.420 2.303 8.942 -21.607 22.736 -869.883 -749.961 -2564.979 -0.822 0.859 -0.187 -0.1 0.62 -0.77 0.1
1 7.59 759 1.403 -10.525 1.772 3.174 -15.900 35.980 -869.883 -749.961 -2564.979 -1.021 0.968 0.360 -0.1 0.62 -0.77 0.1
1 7.60 760 0.915 -10.075 1.791 1.770 5.829 36.621 -1034.926 -659.870 -2624.940 -0.617 0.516 0.347 -0.1 0.62 -0.77 0.1
1 7.61 761 0.450 -10.137 1.901 3.601 22.736 29.205 -1034.926 -659.870 -2624.940 -0.199 0.577 0.240 -0.1 0.62 -0.77 0.1
1 7.62 762 -0.034 -9.946 1.968 0.366 30.457 24.475 -764.952 -644.880 -2609.950 0.239 0.386 0.178 -0.1 0.62 -0.77 0.11
1 7.63 763 -0.330 -10.032 2.097 -5.798 24.780 20.630 -764.952 -644.880 -2609.950 0.493 0.471 0.047 -0.09 0.62 -0.77 0.11
1 7.64 764 -0.848 -10.099 2.404 -8.789 7.782 11.414 -944.984 -599.909 -2534.999 0.972 0.535 -0.269 -0.09 0.62 -0.77 0.11
1 7.65 765 -0.752 -10.492 2.586 -4.425 -2.869 6.317 -899.864 -704.991 -2624.940 0.850 0.925 -0.461 -0.09 0.62 -0.77 0.11
1 7.66 766 -0.551 -10.789 2.595 -0.641 -10.315 6.073 -899.864 -704.991 -2624.940 0.633 1.221 -0.476 -0.09 0.62 -0.77 0.11
1 7.67 767 0.048 -10.774 2.619 1.617 -13.947 8.575 -734.971 -599.909 -2684.901 0.024 1.207 -0.498 -0.09 0.62 -0.77 0.11
1 7.68 768 0.201 -10.726 2.581 1.007 -11.871 8.423 -734.971 -599.909 -2684.901 -0.137 1.160 -0.456 -0.09 0.62 -0.77 0.11
1 7.69 769 0.215 -10.645 2.495 2.289 -7.019 7.904 -839.903 -599.909 -2609.950 -0.159 1.079 -0.367 -0.09 0.62 -0.77 0.11
1 7.70 770 -0.043 -10.410 2.629 2.106 -0.824 6.897 -839.903 -599.909 -2609.950 0.091 0.845 -0.496 -0.09 0.62 -0.77 0.11
1 7.71 771 -0.517 -10.085 2.744 1.526 3.601 6.012 -764.952 -644.880 -2609.950 0.556 0.521 -0.605 -0.09 0.62 -0.77 0.11
1 7.72 772 -0.795 -9.668 2.672 0.031 0.702 3.662 -839.903 -719.981 -2684.901 0.823 0.106 -0.527 -0.09 0.62 -0.77 0.11
1 7.73 773 -0.728 -9.462 2.792 1.282 -8.911 1.617 -839.903 -719.981 -2684.901 0.745 -0.099 -0.641 -0.09 0.62 -0.77 0.11
1 7.74 774 -0.656 -9.232 2.586 5.219 -23.193 -0.885 -764.952 -644.880 -2819.963 0.668 -0.324 -0.416 -0.09 0.62 -0.77 0.11
1 7.75 775 -0.417 -9.280 2.624 7.111 -26.245 -1.617 -764.952 -644.880 -2819.963 0.435 -0.273 -0.441 -0.09 0.62 -0.77 0.11
1 7.76 776 0.120 -9.582 2.691 10.345 -29.816 -0.458 -929.994 -584.919 -2729.872 -0.092 0.032 -0.490 -0.09 0.62 -0.77 0.12
1 7.77 777 0.594 -9.534 3.017 9.918 -27.161 3.052 -929.994 -584.919 -2729.872 -0.556 -0.011 -0.795 -0.1 0.61 -0.77 0.12
1 7.78 778 0.948 -9.496 3.089 8.148 -24.078 5.524 -869.883 -719.981 -2714.881 -0.903 -0.044 -0.847 -0.1 0.61 -0.77 0.12
1 7.79 779 1.465 -9.065 3.342 2.228 -21.332 8.087 -974.965 -629.890 -2729.872 -1.413 -0.471 -1.083 -0.1 0.61 -0.78 0.12
1 7.80 780 1.762 -8.993 3.247 -0.214 -19.257 7.690 -974.965 -629.890 -2729.872 -1.703 -0.540 -0.975 -0.1 0.61 -0.78 0.12
1 7.81 781 1.839 -8.825 3.342 -1.129 -16.693 7.965 -974.965 -884.874 -2729.872 -1.771 -0.705 -1.061 -0.1 0.61 -0.78 0.12
1 7.82 782 1.939 -9.050 3.295 -0.549 -10.071 11.597 -869.883 -719.981 -2609.950 -1.858 -0.476 -0.996 -0.1 0.61 -0.78 0.12
1 7.83 783 2.011 -9.433 3.237 1.129 -3.754 13.367 -989.955 -839.903 -2714.881 -1.929 -0.090 -0.929 -0.1 0.61 -0.78 0.12
1 7.84 784 1.820 -9.850 3.160 3.204 0.671 13.641 -989.955 -839.903 -2714.881 -1.742 0.329 -0.841 -0.1 0.61 -0.78 0.12
1 7.85 785 1.671 -10.142 3.007 8.301 4.028 10.345 -869.883 -674.860 -2759.852 -1.599 0.624 -0.675 -0.1 0.61 -0.78 0.12
1 7.86 786 1.288 -10.109 2.595 16.510 6.287 5.310 -944.984 -719.981 -2684.901 -1.217 0.596 -0.242 -0.1 0.61 -0.78 0.12
1 7.87 787 0.819 -9.841 2.581 26.367 5.066 -2.899 -944.984 -719.981 -2684.901 -0.745 0.335 -0.198 -0.1 0.61 -0.78 0.12
1 7.88 788 0.666 -9.548 2.543 28.839 3.174 -5.127 -869.883 -674.860 -2684.901 -0.582 0.053 -0.121 -0.1 0.61 -0.78 0.12
1 7.89 789 0.565 -9.390 2.557 21.729 2.563 -7.721 -869.883 -839.903 -2864.934 -0.456 -0.083 -0.050 -0.1 0.6 -0.78 0.12
1 7.90 790 0.752 -9.338 2.639 10.895 3.479 -8.179 -974.965 -884.874 -2699.891 -0.628 -0.127 -0.102 -0.1 0.6 -0.78 0.12
1 7.91 791 1.207 -9.534 2.696 3.540 3.693 -7.751 -974.965 -884.874 -2699.891 -1.067 0.073 -0.144 -0.1 0.6 -0.78 0.12
1 7.92 792 1.499 -9.845 2.610 -0.275 2.716 -6.531 -899.864 -854.893 -2774.992 -1.342 0.386 -0.052 -0.1 0.6 -0.78 0.12
1 7.93 793 1.791 -10.080 2.820 -2.014 1.282 -4.181 -929.994 -659.870 -2729.872 -1.616 0.621 -0.262 -0.1 0.6 -0.79 0.12
1 7.94 794 1.662 -10.200 2.686 2.106 3.204 -2.563 -929.994 -659.870 -2729.872 -1.469 0.741 -0.129 -0.1 0.6 -0.79 0.12
1 7.95 795 1.379 -9.989 2.385 11.627 6.287 -1.801 -974.965 -734.971 -2729.872 -1.172 0.532 0.176 -0.1 0.6 -0.79 0.12
1 7.96 796 1.216 -9.352 2.069 30.701 6.928 -1.801 -854.893 -809.922 -2849.943 -0.988 -0.093 0.536 -0.1 0.6 -0.79 0.12
1 7.97 797 1.264 -9.103 2.097 35.034 6.714 -1.434 -824.913 -704.991 -2729.872 -1.027 -0.328 0.554 -0.1 0.6 -0.79 0.12
1 7.98 798 1.207 -8.639 1.944 35.034 6.073 -2.411 -824.913 -704.991 -2729.872 -0.961 -0.778 0.759 -0.1 0.59 -0.79 0.12
1 7.99 799 1.183 -8.399 1.858 26.489 7.080 -2.960 -899.864 -809.922 -2879.924 -0.927 -1.004 0.891 -0.1 0.59 -0.79 0.11
1 8.00 800 1.164 -8.414 1.887 15.717 7.111 -3.510 -869.883 -839.903 -2714.881 -0.905 -0.979 0.898 -0.1 0.59 -0.79 0.11
1 8.01 801 0.857 -8.543 2.040 2.533 6.226 -1.892 -869.883 -839.903 -2714.881 -0.596 -0.843 0.766 -0.1 0.59 -0.79 0.11
1 8.02 802 0.862 -8.844 2.054 -2.014 4.608 0.153 -929.994 -809.922 -2729.872 -0.599 -0.539 0.759 -0.1 0.59 -0.79 0.11
1 8.03 803 0.790 -9.070 2.227 -2.380 3.571 2.563 -794.932 -794.932 -2894.914 -0.526 -0.315 0.584 -0.1 0.59 -0.79 0.11
1 8.04 804 0.867 -9.338 2.322 1.831 3.357 6.958 -839.903 -794.932 -2894.914 -0.605 -0.049 0.481 -0.1 0.59 -0.79 0.11
1 8.05 805 0.838 -9.199 2.212 5.737 1.556 10.040 -839.903 -794.932 -2894.914 -0.583 -0.187 0.594 -0.1 0.59 -0.79 0.11
1 8.06 806 0.876 -9.070 1.882 11.444 0.427 12.573 -944.984 -794.932 -2714.881 -0.631 -0.314 0.932 -0.1 0.59 -0.79 0.11
1 8.07 807 0.852 -9.046 1.389 17.517 -0.305 12.878 -869.883 -839.903 -3044.966 -0.619 -0.334 1.441 -0.1 0.59 -0.79 0.11
1 8.08 808 1.331 -8.797 1.178 15.686 0.153 16.785 -869.883 -839.903 -3044.966 -1.111 -0.578 1.671 -0.1 0.59 -0.8 0.11
1 8.09 809 1.733 -8.615 0.977 8.575 3.662 19.592 -824.913 -779.942 -2849.943 -1.527 -0.755 1.888 -0.1 0.59 -0.8 0.11
1 8.10 810 2.303 -8.265 1.264 -0.366 9.888 22.644 -869.883 -869.883 -2864.934 -2.115 -1.103 1.607 -0.1 0.59 -0.8 0.11
1 8.11 811 2.643 -7.858 1.312 -17.578 23.560 26.520 -749.961 -779.942 -2984.855 -2.526 -1.515 1.547 -0.09 0.59 -0.8 0.12
1 8.12 812 2.509 -7.954 1.073 -26.398 34.912 27.863 -749.961 -779.942 -2984.855 -2.441 -1.428 1.759 -0.09 0.59 -0.79 0.12
1 8.13 813 2.255 -7.968 1.092 -29.266 47.333 28.046 -749.961 -734.971 -2849.943 -2.243 -1.425 1.701 -0.09 0.59 -0.79 0.12
1 8.14 814 1.834 -8.074 1.001 -28.717 57.282 27.924 -674.860 -854.893 -2954.875 -1.882 -1.332 1.752 -0.08 0.59 -0.79 0.11
1 8.15 815 1.489 -8.361 1.125 -28.961 62.012 24.750 -674.860 -854.893 -2954.875 -1.601 -1.056 1.587 -0.08 0.6 -0.79 0.11
1 8.16 816 0.455 -8.763 1.513 -27.191 57.465 17.731 -749.961 -704.991 -2909.904 -0.625 -0.664 1.157 -0.07 0.6 -0.79 0.11
1 8.17 817 -0.014 -9.156 2.002 -25.848 47.669 11.749 -704.991 -779.942 -2774.992 -0.207 -0.282 0.628 -0.07 0.6 -0.79 0.11
1 8.18 818 -0.895 -9.922 3.160 -24.414 30.579 -0.641 -629.890 -704.991 -2804.973 0.617 0.463 -0.612 -0.06 0.6 -0.79 0.11
1 8.19 819 -1.121 -10.291 3.213 -24.994 24.445 -5.676 -629.890 -704.991 -2804.973 0.834 0.823 -0.698 -0.06 0.61 -0.79 0.1
1 8.20 820 -2.040 -11.483 3.769 -20.599 17.975 -31.464 -494.978 -734.971 -2729.872 1.771 2.006 -1.287 -0.06 0.61 -0.79 0.1
1 8.21 821 -2.275 -12.335 3.548 -23.560 15.900 -49.194 -629.890 -704.991 -2699.891 2.053 2.850 -1.096 -0.06 0.61 -0.78 0.1
1 8.22 822 -2.332 -12.503 3.180 -21.362 8.026 -54.688 -629.890 -704.991 -2699.891 2.182 3.007 -0.761 -0.06 0.61 -0.78 0.09
1 8.23 823 -1.949 -10.928 2.332 -5.798 -9.583 -37.964 -524.958 -659.870 -2624.940 1.875 1.424 0.060 -0.07 0.61 -0.78 0.09
1 8.24 824 -1.523 -9.548 2.437 4.791 -19.531 -30.518 -494.978 -704.991 -2849.943 1.513 0.042 -0.056 -0.07 0.61 -0.78 0.09
1 8.25 825 -1.159 -8.696 2.524 11.475 -22.003 -35.156 -494.978 -704.991 -2849.943 1.195 -0.809 -0.139 -0.07 0.61 -0.78 0.09
1 8.26 826 -0.057 -8.481 2.950 -3.448 -20.691 -41.626 -674.860 -704.991 -2804.973 0.200 -1.016 -0.534 -0.08 0.61 -0.78 0.09
1 8.27 827 0.752 -8.916 3.400 -22.308 -21.271 -32.318 -794.932 -569.929 -2609.950 -0.545 -0.580 -0.990 -0.08 0.61 -0.78 0.08
1 8.28 828 1.446 -9.922 3.807 -39.398 -19.653 -15.686 -779.942 -734.971 -2729.872 -1.187 0.419 -1.427 -0.08 0.61 -0.78 0.08
1 8.29 829 1.791 -11.564 4.065 -58.747 -15.961 2.838 -779.942 -734.971 -2729.872 -1.502 2.049 -1.738 -0.08 0.61 -0.78 0.08
1 8.30 830 1.207 -13.097 4.396 -85.266 -7.904 15.259 -674.860 -629.890 -2849.943 -0.919 3.559 -2.163 -0.08 0.62 -0.78 0.08
1 8.31 831 0.608 -12.977 4.065 -69.733 1.801 18.585 -674.860 -539.948 -2624.940 -0.337 3.411 -1.954 -0.09 0.62 -0.78 0.08
1 8.32 832 0.316 -12.268 3.754 -33.722 7.813 20.111 -674.860 -539.948 -2624.940 -0.070 2.678 -1.752 -0.08 0.63 -0.77 0.08
1 8.33 833 0.407 -10.564 3.285 13.184 6.042 13.550 -824.913 -539.948 -2699.891 -0.219 0.958 -1.354 -0.08 0.63 -0.77 0.09
1 8.34 834 0.546 -9.548 3.060 28.839 3.998 4.974 -749.961 -464.997 -2804.973 -0.375 -0.052 -1.101 -0.08 0.63 -0.77 0.09
1 8.35 835 0.565 -8.744 2.753 32.013 6.012 -1.312 -794.932 -524.958 -2609.950 -0.397 -0.846 -0.740 -0.08 0.63 -0.77 0.09
1 8.36 836 0.661 -8.246 2.639 26.733 12.116 -2.258 -794.932 -524.958 -2609.950 -0.488 -1.332 -0.571 -0.08 0.62 -0.77 0.09
1 8.37 837 0.436 -7.916 2.471 17.426 24.048 -2.014 -734.971 -494.978 -2609.950 -0.261 -1.653 -0.363 -0.08 0.62 -0.77 0.09
1 8.38 838 -0.498 -7.887 2.485 1.404 43.518 -0.275 -779.942 -659.870 -2699.891 0.667 -1.677 -0.353 -0.08 0.62 -0.78 0.08
1 8.39 839 -1.192 -8.054 2.294 -7.996 51.850 -0.763 -779.942 -659.870 -2699.891 1.350 -1.507 -0.152 -0.08 0.62 -0.78 0.08
1 8.40 840 -2.634 -8.921 2.088 -16.266 45.715 -6.744 -794.932 -494.978 -2759.852 2.766 -0.646 0.031 -0.07 0.62 -0.78 0.08
1 8.41 841 -3.002 -9.141 2.222 -18.127 38.544 -8.240 -690.000 -524.958 -2759.852 3.115 -0.431 -0.124 -0.07 0.62 -0.78 0.08
1 8.42 842 -3.558 -10.271 2.380 -21.454 6.409 -10.864 -584.919 -524.958 -2714.881 3.655 0.694 -0.308 -0.07 0.62 -0.77 0.07
1 8.43 843 -3.457 -10.789 2.552 -19.714 -13.947 -8.301 -584.919 -524.958 -2714.881 3.571 1.205 -0.510 -0.07 0.63 -0.77 0.07
1 8.44 844 -2.868 -10.990 2.567 -14.618 -27.924 -0.305 -569.929 -539.948 -2624.940 2.998 1.400 -0.551 -0.07 0.63 -0.77 0.07
1 8.45 845 -1.642 -10.655 2.246 -2.136 -29.572 13.275 -704.991 -539.948 -2519.858 1.780 1.061 -0.248 -0.07 0.63 -0.77 0.08
1 8.46 846 -1.116 -9.984 2.078 7.233 -20.233 20.691 -704.991 -539.948 -2519.858 1.248 0.390 -0.085 -0.07 0.63 -0.77 0.08
1 8.47 847 -0.814 -9.706 1.968 13.336 -7.385 24.323 -599.909 -509.968 -2699.891 0.920 0.114 0.034 -0.07 0.63 -0.77 0.08
1 8.48 848 -0.656 -9.481 1.834 10.071 5.676 23.254 -659.870 -419.876 -2564.979 0.682 -0.104 0.208 -0.07 0.63 -0.77 0.08
1 8.49 849 -0.623 -9.491 1.786 0.183 5.768 20.538 -749.961 -509.968 -2699.891 0.609 -0.092 0.267 -0.07 0.63 -0.77 0.09
1 8.50 850 -0.699 -9.539 1.729 -9.003 -0.549 15.869 -749.961 -509.968 -2699.891 0.653 -0.044 0.320 -0.07 0.63 -0.77 0.09
1 8.51 851 -0.828 -9.673 1.839 -13.275 -11.017 10.681 -779.942 -584.919 -2699.891 0.758 0.086 0.195 -0.07 0.63 -0.77 0.09
1 8.52 852 -0.685 -9.941 1.954 -9.979 -25.604 2.869 -494.978 -389.896 -2624.940 0.600 0.351 0.060 -0.07 0.63 -0.77 0.09
1 8.53 853 -0.464 -9.927 2.303 -4.364 -27.710 -1.190 -494.978 -389.896 -2624.940 0.378 0.333 -0.305 -0.07 0.63 -0.77 0.09
1 8.54 854 -0.350 -10.003 2.342 2.838 -23.712 -2.533 -704.991 -584.919 -2594.959 0.269 0.408 -0.350 -0.07 0.63 -0.77 0.09
1 8.55 855 0.034 -9.864 2.576 9.277 -10.529 -0.153 -629.890 -509.968 -2624.940 -0.097 0.273 -0.566 -0.07 0.63 -0.77 0.09
1 8.56 856 -0.038 -9.740 2.586 7.751 0.488 0.854 -629.890 -539.948 -2624.940 -0.021 0.152 -0.557 -0.07 0.63 -0.77 0.09
1 8.57 857 -0.302 -9.577 2.437 4.974 9.460 3.113 -629.890 -539.948 -2624.940 0.240 -0.007 -0.392 -0.07 0.62 -0.77 0.09
1 8.58 858 -0.666 -9.524 2.174 3.876 13.886 3.357 -584.919 -524.958 -2609.950 0.596 -0.057 -0.118 -0.07 0.62 -0.77 0.09
1 8.59 859 -0.881 -9.544 1.801 4.517 13.733 2.625 -599.909 -539.948 -2729.872 0.800 -0.036 0.263 -0.07 0.62 -0.77 0.09
1 8.60 860 -1.144 -9.304 1.695 7.080 7.324 -1.740 -599.909 -539.948 -2729.872 1.052 -0.274 0.376 -0.07 0.62 -0.77 0.09
1 8.61 861 -1.092 -9.194 1.733 9.460 0.610 -4.242 -749.961 -584.919 -2594.959 0.992 -0.382 0.347 -0.07 0.62 -0.77 0.09
1 8.62 862 -1.044 -9.175 1.743 11.841 -7.050 -8.698 -539.948 -419.876 -2684.901 0.945 -0.395 0.365 -0.07 0.62 -0.77 0.09
1 8.63 863 -0.958 -9.151 1.753 11.902 -8.850 -9.827 -599.909 -584.919 -2729.872 0.869 -0.415 0.373 -0.07 0.62 -0.77 0.09
1 8.64 864 -0.804 -9.127 1.748 11.261 -11.597 -10.345 -599.909 -584.919 -2729.872 0.729 -0.436 0.394 -0.07 0.62 -0.78 0.09
1 8.65 865 -0.776 -9.151 1.681 10.681 -11.963 -10.681 -749.961 -509.968 -2594.959 0.715 -0.408 0.477 -0.07 0.62 -0.78 0.09
1 8.66 866 -0.699 -9.189 1.528 10.712 -11.627 -11.108 -704.991 -464.997 -2804.973 0.653 -0.367 0.645 -0.07 0.62 -0.78 0.09
1 8.67 867 -0.718 -9.314 1.508 10.132 -11.841 -10.254 -704.991 -464.997 -2804.973 0.688 -0.239 0.678 -0.07 0.62 -0.78 0.09
1 8.68 868 -0.694 -9.242 1.590 7.263 -11.414 -10.803 -704.991 -539.948 -2699.891 0.679 -0.308 0.609 -0.07 0.62 -0.78 0.09
1 8.69 869 -0.781 -9.141 1.551 3.754 -12.268 -12.146 -704.991 -539.948 -2699.891 0.780 -0.407 0.656 -0.07 0.62 -0.78 0.09
1 8.70 870 -1.077 -9.031 1.499 3.967 -13.886 -15.900 -764.952 -569.929 -2789.982 1.114 -0.515 0.716 -0.08 0.62 -0.78 0.09
1 8.71 871 -1.154 -9.151 1.355 6.714 -15.015 -19.074 -764.952 -569.929 -2789.982 1.213 -0.394 0.864 -0.08 0.62 -0.78 0.09
1 8.72 872 -1.231 -9.376 1.532 6.592 -17.609 -19.989 -704.991 -584.919 -2699.891 1.315 -0.168 0.693 -0.08 0.62 -0.78 0.09
1 8.73 873 -1.212 -9.395 1.322 2.014 -23.132 -19.898 -690.000 -569.929 -2789.982 1.323 -0.147 0.908 -0.08 0.62 -0.78 0.09
1 8.74 874 -1.092 -9.592 1.298 -1.984 -28.717 -16.907 -690.000 -569.929 -2789.982 1.230 0.049 0.929 -0.08 0.62 -0.78 0.09
1 8.75 875 -0.833 -9.706 1.427 -1.190 -29.511 -13.184 -839.903 -644.880 -2864.934 0.997 0.162 0.791 -0.08 0.62 -0.78 0.09
1 8.76 876 -0.541 -9.740 1.451 1.251 -26.917 -11.353 -839.903 -644.880 -2864.934 0.728 0.194 0.759 -0.09 0.62 -0.78 0.09
1 8.77 877 -0.426 -10.022 1.757 1.801 -21.149 -7.904 -914.854 -494.978 -2864.934 0.651 0.476 0.447 -0.09 0.62 -0.78 0.1
1 8.78 878 -0.407 -10.171 1.853 1.190 -15.595 -6.226 -914.854 -494.978 -2864.934 0.646 0.625 0.351 -0.09 0.62 -0.78 0.1
1 8.79 879 -0.407 -10.037 1.815 1.801 -12.360 -3.387 -914.854 -569.929 -2759.852 0.656 0.491 0.389 -0.09 0.62 -0.78 0.1
1 8.80 880 -0.555 -9.979 2.030 3.998 -10.803 -0.458 -779.942 -584.919 -2729.872 0.808 0.434 0.174 -0.09 0.62 -0.78 0.1
1 8.81 881 -0.249 -9.793 2.648 7.324 -11.780 2.380 -779.942 -584.919 -2729.872 0.500 0.248 -0.439 -0.09 0.62 -0.78 0.1
1 8.82 882 0.551 -9.951 2.586 16.846 -16.083 8.392 -1004.945 -584.919 -2849.943 -0.304 0.410 -0.361 -0.09 0.61 -0.78 0.1
1 8.83 883 1.116 -10.453 2.021 14.893 -24.719 19.104 -1004.945 -584.919 -2849.943 -0.875 0.919 0.232 -0.09 0.61 -0.78 0.1
1 8.84 884 1.393 -10.425 1.705 -5.127 -29.785 36.255 -974.965 -704.991 -2879.924 -1.192 0.896 0.578 -0.1 0.61 -0.78 0.11
1 8.85 885 1.154 -10.075 1.686 -2.716 -16.937 32.593 -974.965 -704.991 -2879.924 -0.990 0.544 0.587 -0.1 0.61 -0.78 0.11
1 8.86 886 0.536 -9.529 1.839 4.791 3.021 22.522 -839.903 -494.978 -2864.934 -0.404 -0.004 0.429 -0.1 0.61 -0.78 0.11
1 8.87 887 0.201 -9.491 2.002 3.937 19.165 17.151 -914.854 -569.929 -2759.852 -0.097 -0.041 0.272 -0.09 0.61 -0.78 0.11
1 8.88 888 -0.345 -9.582 2.289 -4.303 25.330 17.853 -914.854 -569.929 -2759.852 0.419 0.050 -0.013 -0.09 0.61 -0.78 0.11
1 8.89 889 -0.742 -9.955 2.509 -15.198 19.409 15.869 -869.883 -524.958 -2759.852 0.781 0.422 -0.241 -0.09 0.61 -0.78 0.11
1 8.90 890 -0.948 -10.449 2.519 -18.341 11.169 13.641 -869.883 -524.958 -2759.852 0.952 0.911 -0.268 -0.09 0.61 -0.78 0.11
1 8.91 891 -0.848 -10.803 2.452 -20.081 2.502 12.848 -839.903 -524.958 -2684.901 0.822 1.260 -0.224 -0.09 0.62 -0.78 0.11
1 8.92 892 -0.646 -10.884 2.490 -16.022 -3.387 16.663 -794.932 -719.981 -2759.852 0.581 1.329 -0.316 -0.09 0.62 -0.77 0.11
1 8.93 893 -0.441 -10.607 2.701 -7.477 -1.282 18.005 -704.991 -539.948 -2774.992 0.353 1.047 -0.546 -0.08 0.62 -0.77 0.11
1 8.94 894 -0.512 -10.525 2.859 3.204 3.479 16.388 -779.942 -509.968 -2729.872 0.400 0.965 -0.709 -0.08 0.62 -0.77 0.11
1 8.95 895 -0.718 -10.453 2.763 8.759 8.606 13.214 -779.942 -509.968 -2729.872 0.582 0.895 -0.605 -0.08 0.62 -0.77 0.11
1 8.96 896 -1.140 -10.353 2.677 5.646 8.423 7.751 -690.000 -644.880 -2684.901 0.983 0.798 -0.504 -0.08 0.62 -0.77 0.11
1 8.97 897 -1.317 -10.147 2.744 2.747 -0.214 4.791 -690.000 -644.880 -2684.901 1.146 0.595 -0.560 -0.08 0.62 -0.77 0.11
1 8.98 898 -1.063 -9.999 2.548 -0.977 -14.923 2.014 -854.893 -509.968 -2804.973 0.876 0.449 -0.355 -0.08 0.62 -0.77 0.12
1 8.99 899 -0.603 -9.869 2.639 -5.615 -34.851 -1.892 -899.864 -464.997 -2774.992 0.411 0.320 -0.443 -0.08 0.62 -0.77 0.12
1 9.00 900 -0.129 -10.022 2.758 -6.165 -40.527 -3.571 -764.952 -569.929 -2714.881 -0.051 0.472 -0.567 -0.08 0.62 -0.77 0.12
1 9.01 901 0.273 -10.046 3.022 -6.531 -38.330 -3.174 -899.864 -464.997 -2804.973 -0.434 0.495 -0.834 -0.09 0.62 -0.77 0.12
1 9.02 902 1.010 -9.783 3.266 -5.859 -30.762 -1.953 -899.864 -464.997 -2804.973 -1.151 0.231 -1.081 -0.09 0.62 -0.77 0.12
1 9.03 903 1.302 -9.615 3.347 -4.730 -21.576 0.488 -869.883 -644.880 -2564.979 -1.423 0.063 -1.161 -0.09 0.62 -0.77 0.12
1 9.04 904 1.456 -8.912 3.055 -0.427 -13.214 0.763 -869.883 -644.880 -2564.979 -1.559 -0.640 -0.866 -0.09 0.62 -0.77 0.12
1 9.05 905 1.307 -8.634 2.921 2.563 -10.590 1.282 -839.903 -569.929 -2714.881 -1.395 -0.916 -0.725 -0.09 0.62 -0.77 0.12
1 9.06 906 0.948 -8.538 2.686 6.012 -8.545 3.082 -824.913 -584.919 -2849.943 -1.009 -1.006 -0.463 -0.09 0.61 -0.77 0.12
1 9.07 907 0.924 -8.686 2.639 6.653 -7.080 6.836 -824.913 -629.890 -2729.872 -0.979 -0.854 -0.399 -0.1 0.61 -0.77 0.12
1 9.08 908 1.082 -8.821 2.308 6.104 -4.852 10.895 -899.864 -629.890 -2699.891 -1.138 -0.717 -0.054 -0.1 0.61 -0.77 0.12
1 9.09 909 1.417 -9.074 2.337 5.768 -2.899 12.695 -899.864 -629.890 -2699.891 -1.479 -0.460 -0.071 -0.1 0.61 -0.77 0.13
1 9.10 910 1.719 -9.242 2.428 3.967 -2.380 11.200 -929.994 -539.948 -2774.992 -1.786 -0.290 -0.151 -0.1 0.61 -0.77 0.13
1 9.11 911 2.054 -9.625 2.576 0.641 -3.357 3.418 -929.994 -539.948 -2774.992 -2.122 0.095 -0.292 -0.1 0.61 -0.77 0.13
1 9.12 912 2.088 -9.778 2.706 0.061 -3.448 -1.648 -869.883 -419.876 -2609.950 -2.145 0.249 -0.417 -0.1 0.61 -0.78 0.13
1 9.13 913 2.131 -9.864 2.787 2.167 -1.007 -5.859 -824.913 -509.968 -2729.872 -2.168 0.336 -0.495 -0.1 0.61 -0.78 0.13
1 9.14 914 1.614 -10.070 3.065 0.671 7.751 -12.116 -824.913 -509.968 -2669.911 -1.598 0.546 -0.758 -0.1 0.61 -0.78 0.12
1 9.15 915 1.427 -10.171 3.002 -0.671 12.116 -14.160 -839.903 -524.958 -2714.881 -1.382 0.648 -0.691 -0.1 0.61 -0.78 0.12
1 9.16 916 1.499 -9.941 2.682 4.974 15.137 -14.221 -839.903 -524.958 -2714.881 -1.426 0.419 -0.364 -0.1 0.61 -0.78 0.12
1 9.17 917 1.623 -9.793 2.672 12.512 13.306 -14.130 -929.994 -464.997 -2849.943 -1.524 0.275 -0.340 -0.1 0.61 -0.78 0.12
1 9.18 918 1.504 -9.654 2.734 17.181 11.017 -14.740 -929.994 -464.997 -2849.943 -1.376 0.142 -0.379 -0.1 0.61 -0.78 0.12
1 9.19 919 1.212 -9.601 2.471 17.944 13.275 -14.343 -854.893 -434.867 -2729.872 -1.054 0.097 -0.087 -0.1 0.61 -0.78 0.11
1 9.20 920 0.948 -9.371 2.174 18.677 17.426 -11.627 -764.952 -524.958 -2819.963 -0.764 -0.125 0.239 -0.1 0.61 -0.78 0.11
1 9.21 921 0.833 -9.252 1.963 19.379 19.287 -6.348 -854.893 -809.922 -2804.973 -0.616 -0.230 0.506 -0.1 0.6 -0.78 0.11
1 9.22 922 0.718 -8.959 1.920 18.616 19.775 -2.625 -974.965 -584.919 -2729.872 -0.496 -0.515 0.576 -0.1 0.6 -0.78 0.11
1 9.23 923 0.666 -8.878 2.054 16.113 18.829 -1.892 -974.965 -584.919 -2729.872 -0.443 -0.589 0.467 -0.1 0.6 -0.79 0.11
1 9.24 924 0.603 -8.912 1.997 11.902 17.029 -1.617 -989.955 -644.880 -2864.934 -0.380 -0.550 0.547 -0.1 0.6 -0.79 0.11
1 9.25 925 0.599 -9.146 1.887 6.744 13.550 -2.502 -989.955 -644.880 -2864.934 -0.374 -0.311 0.672 -0.09 0.6 -0.79 0.11
1 9.26 926 0.306 -9.208 1.906 2.136 7.141 -1.740 -764.952 -524.958 -2864.934 -0.078 -0.247 0.660 -0.09 0.6 -0.79 0.1
1 9.27 927 0.306 -9.199 1.963 2.716 2.686 -0.214 -914.854 -644.880 -2894.914 -0.076 -0.256 0.603 -0.09 0.6 -0.79 0.1
1 9.28 928 0.536 -9.271 1.839 5.310 -3.571 3.448 -839.903 -644.880 -2894.914 -0.304 -0.184 0.730 -0.09 0.6 -0.79 0.1
1 9.29 929 0.623 -9.213 2.006 6.744 -5.432 6.012 -974.965 -539.948 -2909.904 -0.392 -0.240 0.568 -0.09 0.6 -0.79 0.1
1 9.30 930 0.886 -9.299 1.987 7.385 -4.517 8.606 -974.965 -539.948 -2909.904 -0.659 -0.151 0.595 -0.09 0.6 -0.79 0.1
1 9.31 931 0.982 -9.477 1.815 5.554 -4.456 11.383 -749.961 -704.991 -2879.924 -0.760 0.028 0.775 -0.09 0.6 -0.79 0.11
1 9.32 932 1.360 -9.304 1.590 4.486 -4.181 12.726 -749.961 -704.991 -2879.924 -1.147 -0.144 1.004 -0.09 0.6 -0.79 0.11
1 9.33 933 1.777 -9.266 1.073 5.280 -0.946 16.296 -794.932 -524.958 -2684.901 -1.572 -0.182 1.524 -0.09 0.6 -0.79 0.11
1 9.34 934 2.303 -9.007 0.852 4.059 3.815 20.355 -749.961 -584.919 -2774.992 -2.110 -0.440 1.744 -0.09 0.6 -0.79 0.11
1 9.35 935 2.471 -8.619 0.895 1.099 11.658 24.780 -749.961 -584.919 -2774.992 -2.292 -0.829 1.698 -0.09 0.6 -0.79 0.11
1 9.36 936 2.677 -8.155 0.972 -4.517 32.593 29.266 -779.942 -704.991 -2954.875 -2.547 -1.299 1.604 -0.09 0.6 -0.79 0.11
1 9.37 937 2.313 -7.973 0.996 -8.728 49.408 30.457 -779.942 -704.991 -2954.875 -2.240 -1.484 1.574 -0.09 0.6 -0.79 0.11
1 9.38 938 1.968 -7.834 0.972 -13.702 65.949 29.785 -779.942 -659.870 -2879.924 -1.960 -1.626 1.585 -0.08 0.6 -0.79 0.11
1 9.39 939 1.374 -7.992 0.728 -16.205 76.172 26.398 -779.942 -659.870 -2879.924 -1.434 -1.473 1.810 -0.08 0.6 -0.79 0.1
1 9.40 940 0.369 -8.117 0.493 -15.991 72.998 18.646 -734.971 -599.909 -3014.986 -0.494 -1.355 2.021 -0.07 0.61 -0.79 0.1
1 9.41 941 -0.062 -8.433 0.503 -17.487 58.289 11.383 -674.860 -659.870 -2774.992 -0.120 -1.044 1.987 -0.07 0.61 -0.79 0.1
1 9.42 942 -0.297 -8.816 0.824 -20.294 39.215 5.432 -674.860 -659.870 -2774.992 0.072 -0.666 1.641 -0.06 0.61 -0.78 0.1
1 9.43 943 -0.359 -8.950 1.666 -25.391 20.020 1.770 -614.899 -524.958 -2969.865 0.109 -0.539 0.771 -0.06 0.61 -0.78 0.1
1 9.44 944 -0.555 -9.429 2.696 -31.525 0.824 -1.556 -464.997 -599.909 -2894.914 0.289 -0.081 -0.345 -0.06 0.61 -0.78 0.09
1 9.45 945 -0.670 -10.166 3.486 -37.903 -1.160 -6.348 -539.948 -419.876 -2789.982 0.407 0.645 -1.179 -0.06 0.62 -0.78 0.09
1 9.46 946 -0.958 -11.081 3.864 -44.708 5.310 -15.137 -539.948 -419.876 -2789.982 0.706 1.547 -1.609 -0.06 0.62 -0.78 0.09
1 9.47 947 -1.240 -11.809 3.706 -37.079 18.127 -27.466 -509.968 -569.929 -2819.963 1.013 2.260 -1.514 -0.06 0.62 -0.78 0.09
1 9.48 948 -1.863 -12.369 2.820 -15.137 37.323 -43.579 -539.948 -494.978 -2789.982 1.675 2.808 -0.675 -0.06 0.62 -0.78 0.09
1 9.49 949 -1.968 -12.024 2.093 -5.371 32.501 -40.344 -539.948 -494.978 -2789.982 1.831 2.457 0.026 -0.06 0.62 -0.78 0.08
1 9.50 950 -1.652 -10.238 1.901 7.721 15.839 -25.726 -569.929 -359.916 -2849.943 1.608 0.668 0.211 -0.06 0.62 -0.78 0.08
1 9.51 951 -1.422 -9.668 1.810 11.231 6.653 -25.879 -569.929 -359.916 -2849.943 1.405 0.101 0.315 -0.06 0.62 -0.78 0.07
1 9.52 952 -1.197 -9.046 2.519 2.014 0.366 -33.447 -539.948 -374.906 -2759.852 1.210 -0.518 -0.378 -0.06 0.62 -0.78 0.07
1 9.53 953 -0.737 -9.127 2.964 -19.928 -10.101 -36.926 -539.948 -374.906 -2759.852 0.793 -0.436 -0.824 -0.06 0.62 -0.78 0.07
1 9.54 954 0.120 -9.620 3.251 -40.405 -25.513 -30.182 -449.857 -584.919 -2849.943 -0.013 0.051 -1.141 -0.06 0.62 -0.78 0.07
1 9.55 955 1.427 -11.732 3.606 -49.957 -45.868 -10.590 -690.000 -419.876 -2759.852 -1.272 2.151 -1.550 -0.07 0.63 -0.77 0.07
1 9.56 956 2.131 -13.188 3.970 -51.056 -46.143 1.251 -690.000 -419.876 -2759.852 -1.939 3.593 -1.982 -0.07 0.63 -0.77 0.07
1 9.57 957 2.169 -13.480 4.573 -50.324 -30.975 5.951 -539.948 -449.857 -2894.914 -1.960 3.871 -2.660 -0.07 0.63 -0.77 0.07
1 9.58 958 1.700 -12.359 4.415 -21.607 11.292 15.137 -614.899 -329.935 -2789.982 -1.497 2.725 -2.634 -0.07 0.64 -0.77 0.07
1 9.59 959 1.255 -11.186 3.874 0.153 33.142 21.515 -614.899 -449.857 -2789.982 -1.080 1.547 -2.114 -0.07 0.64 -0.76 0.07
1 9.60 960 0.814 -10.271 3.400 14.740 43.030 24.628 -614.899 -449.857 -2789.982 -0.682 0.633 -1.631 -0.07 0.64 -0.76 0.07
1 9.61 961 0.474 -9.410 2.940 21.393 44.342 20.874 -629.890 -284.964 -2669.911 -0.389 -0.224 -1.144 -0.07 0.64 -0.77 0.07
1 9.62 962 0.292 -9.026 2.710 16.937 39.581 12.238 -614.899 -254.984 -2639.930 -0.243 -0.599 -0.871 -0.06 0.63 -0.77 0.07
1 9.63 963 0.053 -8.299 2.682 8.057 37.567 7.538 -614.899 -254.984 -2639.930 -0.031 -1.320 -0.806 -0.06 0.63 -0.77 0.07
1 9.64 964 -0.235 -8.150 2.777 -1.373 39.612 4.486 -539.948 -419.876 -2504.868 0.235 -1.464 -0.877 -0.06 0.63 -0.77 0.07
1 9.65 965 -1.020 -8.217 2.586 -8.545 46.356 -2.472 -584.919 -449.857 -2789.982 0.991 -1.398 -0.690 -0.05 0.63 -0.77 0.07
1 9.66 966 -1.633 -8.481 2.500 -8.423 48.920 -9.094 -494.978 -359.916 -2729.872 1.597 -1.136 -0.615 -0.05 0.63 -0.77 0.06
1 9.67 967 -2.600 -8.691 2.524 -5.798 46.143 -16.083 -494.978 -359.916 -2729.872 2.562 -0.927 -0.646 -0.05 0.63 -0.77 0.06
1 9.68 968 -3.223 -9.084 2.571 -3.387 33.569 -21.393 -374.906 -284.964 -2669.911 3.181 -0.535 -0.695 -0.04 0.63 -0.77 0.06
1 9.69 969 -3.572 -9.419 2.677 -2.319 4.608 -25.330 -584.919 -449.857 -2684.901 3.533 -0.199 -0.798 -0.04 0.63 -0.77 0.06
1 9.70 970 -3.606 -9.869 2.480 -3.693 -15.320 -22.003 -584.919 -449.857 -2684.901 3.576 0.252 -0.598 -0.04 0.63 -0.77 0.05
1 9.71 971 -3.079 -10.276 2.461 -3.723 -29.846 -15.839 -419.876 -359.916 -2699.891 3.060 0.659 -0.576 -0.04 0.63 -0.77 0.05
1 9.72 972 -1.982 -10.501 2.270 2.869 -34.515 -2.960 -494.978 -389.896 -2699.891 2.024 0.883 -0.390 -0.05 0.63 -0.77 0.06
1 9.73 973 -1.657 -10.348 2.150 12.207 -27.344 6.561 -569.929 -434.867 -2699.891 1.710 0.732 -0.262 -0.05 0.63 -0.77 0.06
1 9.74 974 -0.637 -10.003 2.102 20.203 -15.808 16.266 -569.929 -434.867 -2699.891 0.674 0.392 -0.190 -0.05 0.63 -0.77 0.06
1 9.75 975 -0.412 -9.788 2.069 21.851 -6.134 23.468 -599.909 -314.945 -2729.872 0.421 0.183 -0.124 -0.05 0.63 -0.77 0.06
1 9.76 976 -0.230 -9.553 2.006 15.778 1.648 26.520 -569.929 -239.994 -2699.891 0.202 -0.045 -0.029 -0.05 0.63 -0.77 0.06
1 9.77 977 -0.273 -9.620 2.078 4.303 8.087 21.210 -569.929 -239.994 -2699.891 0.206 0.027 -0.078 -0.05 0.63 -0.77 0.06
1 9.78 978 -0.426 -9.917 2.088 -2.014 7.446 15.595 -569.929 -239.994 -2954.875 0.324 0.326 -0.077 -0.05 0.63 -0.77 0.07
1 9.79 979 -0.627 -10.042 2.054 -6.317 3.723 10.162 -584.919 -449.857 -2759.852 0.497 0.451 -0.043 -0.05 0.63 -0.77 0.07
1 9.80 980 -0.623 -10.209 2.284 -5.188 -4.150 2.472 -494.978 -509.968 -2729.872 0.461 0.616 -0.288 -0.04 0.63 -0.77 0.07
1 9.81 981 -0.522 -10.281 2.289 3.326 -8.362 -1.312 -494.978 -509.968 -2729.872 0.358 0.687 -0.295 -0.04 0.63 -0.77 0.07
1 9.82 982 -0.450 -10.171 2.413 13.519 -7.904 -5.188 -584.919 -419.876 -2864.934 0.290 0.580 -0.408 -0.05 0.63 -0.77 0.07
1 9.83 983 -0.546 -10.080 2.543 18.921 -4.395 -7.904 -449.857 -359.916 -2729.872 0.395 0.494 -0.511 -0.05 0.63 -0.77 0.07
1 9.84 984 -0.699 -9.989 2.571 20.325 2.655 -7.416 -449.857 -359.916 -2729.872 0.560 0.410 -0.507 -0.05 0.63 -0.78 0.07
1 9.85 985 -0.800 -9.850 2.399 16.998 5.981 -4.150 -524.958 -389.896 -2774.992 0.669 0.278 -0.300 -0.05 0.63 -0.78 0.07
1 9.86 986 -0.939 -9.845 2.126 14.801 7.355 -1.068 -629.890 -434.867 -2879.924 0.810 0.280 0.003 -0.05 0.62 -0.78 0.07
1 9.87 987 -1.154 -9.606 1.944 14.404 5.157 1.587 -359.916 -374.906 -2789.982 1.013 0.051 0.231 -0.04 0.62 -0.78 0.07
1 9.88 988 -1.178 -9.376 1.858 15.137 2.747 0.824 -359.916 -374.906 -2789.982 1.027 -0.173 0.339 -0.04 0.62 -0.78 0.07
1 9.89 989 -1.207 -9.151 1.767 18.005 0.732 0.397 -539.948 -419.876 -2864.934 1.047 -0.393 0.453 -0.04 0.62 -0.78 0.07
1 9.90 990 -1.154 -8.940 1.896 19.226 -1.953 -0.702 -419.876 -359.916 -2849.943 0.987 -0.598 0.349 -0.04 0.62 -0.78 0.07
1 9.91 991 -1.125 -8.864 1.748 20.325 -3.723 -2.655 -419.876 -359.916 -2849.943 0.954 -0.667 0.526 -0.04 0.62 -0.78 0.07
1 9.92 992 -1.097 -8.897 1.839 19.013 -4.120 -5.554 -464.997 -524.958 -2684.901 0.925 -0.627 0.464 -0.04 0.62 -0.78 0.07
1 9.93 993 -1.240 -9.055 1.815 15.564 -3.967 -4.822 -614.899 -449.857 -2969.865 1.072 -0.462 0.515 -0.04 0.62 -0.78 0.07
1 9.94 994 -1.250 -8.964 1.461 15.930 -5.493 -6.897 -494.978 -434.867 -2909.904 1.087 -0.543 0.911 -0.04 0.61 -0.79 0.07
1 9.95 995 -1.360 -9.026 1.422 18.890 -9.918 -8.698 -494.978 -434.867 -2909.904 1.202 -0.476 0.970 -0.04 0.61 -0.79 0.07
1 9.96 996 -1.336 -8.988 1.188 20.783 -15.106 -9.827 -494.978 -584.919 -2909.904 1.187 -0.508 1.229 -0.04 0.61 -0.79 0.07
