COL1	TIME	ACC_X	ACC_Y	ACC_Z	GYR_X	GYR_Y	GYR_Z	MAG_X	MAG_Y	MAG_Z	LACC_X	LACC_Y	LACC_Z	QUAT_X	QUAT_Y	QUAT_Z	QUAT_W
1 0.00 0 -0.273 -9.175 3.390 0.000 0.793 2.167 554.938 44.971 3479.083 -0.148 0.034 0.119 -0.04 -0.57 0.82 0.02
1 0.01 1 -0.316 -9.161 3.232 -0.305 0.793 1.617 569.929 29.980 3344.021 -0.106 0.020 0.277 -0.04 -0.57 0.82 0.02
1 0.02 2 -0.493 -9.223 3.323 -0.549 0.885 0.824 509.968 44.971 3329.031 0.070 0.082 0.185 -0.04 -0.57 0.82 0.02
1 0.03 3 -0.412 -9.275 3.409 -0.092 0.458 1.007 419.876 104.932 3419.123 -0.011 0.135 0.099 -0.04 -0.57 0.82 0.02
1 0.04 4 -0.397 -9.165 3.371 -1.038 0.366 1.709 419.876 104.932 3419.123 -0.025 0.024 0.136 -0.04 -0.57 0.82 0.02
1 0.05 5 -0.302 -9.156 3.318 -0.793 -0.427 1.129 554.938 89.941 3479.083 -0.122 0.014 0.188 -0.04 -0.57 0.82 0.02
1 0.06 6 -0.364 -9.079 3.290 -0.641 -0.427 1.221 404.886 44.971 3434.113 -0.059 -0.062 0.216 -0.04 -0.57 0.82 0.02
1 0.07 7 -0.374 -9.194 3.362 -1.282 0.305 0.854 404.886 44.971 3434.113 -0.050 0.053 0.145 -0.04 -0.57 0.82 0.02
1 0.08 8 -0.455 -9.036 3.290 -2.686 -0.397 1.221 479.987 44.971 3359.012 0.033 -0.107 0.213 -0.04 -0.57 0.82 0.02
1 0.09 9 -0.211 -9.161 3.304 -2.625 0.153 1.404 554.938 14.990 3584.015 -0.211 0.016 0.194 -0.04 -0.57 0.82 0.02
1 0.10 10 -0.273 -9.199 3.333 -2.686 0.366 1.953 539.948 74.951 3389.142 -0.149 0.053 0.161 -0.04 -0.57 0.82 0.02
1 0.11 11 -0.412 -9.213 3.362 -2.533 0.092 1.617 539.948 74.951 3389.142 -0.010 0.066 0.129 -0.04 -0.57 0.82 0.02
1 0.12 12 -0.230 -9.242 3.295 -2.075 0.488 1.556 464.847 -29.980 3554.035 -0.192 0.093 0.192 -0.04 -0.57 0.82 0.02
1 0.13 13 -0.431 -9.218 3.333 -2.472 -0.031 0.671 539.948 179.883 3314.041 0.009 0.068 0.150 -0.04 -0.57 0.82 0.02
1 0.14 14 -0.335 -9.137 3.414 -1.617 -0.580 1.068 539.948 179.883 3314.041 -0.087 -0.015 0.066 -0.04 -0.57 0.82 0.02
1 0.15 15 -0.393 -9.228 3.199 -2.106 -0.183 0.732 479.987 -44.971 3359.012 -0.029 0.075 0.280 -0.04 -0.57 0.82 0.02
1 0.16 16 -0.426 -9.223 3.338 -2.106 -1.190 0.366 464.847 104.932 3344.021 0.006 0.069 0.135 -0.04 -0.57 0.82 0.02
1 0.17 17 -0.383 -9.170 3.160 -1.953 -0.854 0.458 554.938 44.971 3434.113 -0.035 0.015 0.310 -0.04 -0.57 0.82 0.02
1 0.18 18 -0.469 -9.165 3.381 -1.648 -1.038 0.397 554.938 44.971 3434.113 0.052 0.009 0.087 -0.04 -0.57 0.82 0.02
1 0.19 19 -0.479 -9.204 3.314 -1.007 -2.075 1.007 374.906 89.941 3404.132 0.063 0.046 0.152 -0.04 -0.57 0.82 0.02
1 0.20 20 -0.393 -9.156 3.194 -1.465 -0.610 1.740 509.968 164.893 3434.113 -0.023 -0.002 0.271 -0.04 -0.57 0.82 0.02
1 0.21 21 -0.326 -9.103 3.271 -3.174 -0.153 1.526 509.968 164.893 3434.113 -0.090 -0.056 0.192 -0.04 -0.57 0.82 0.02
1 0.22 22 -0.441 -9.194 3.333 -4.303 0.519 2.136 464.847 224.854 3344.021 0.024 0.034 0.126 -0.04 -0.57 0.82 0.02
1 0.23 23 -0.306 -9.462 3.237 -3.876 -0.549 2.899 419.876 0.000 3494.074 -0.114 0.298 0.210 -0.04 -0.57 0.82 0.02
1 0.24 24 -0.316 -9.433 3.433 -1.831 -0.702 1.984 509.968 44.971 3509.064 -0.106 0.267 0.008 -0.04 -0.57 0.82 0.02
1 0.25 25 -0.517 -9.256 3.328 -1.129 -1.129 2.625 509.968 44.971 3509.064 0.095 0.090 0.112 -0.04 -0.57 0.82 0.02
1 0.26 26 -0.302 -9.266 3.328 -1.160 -1.404 1.404 584.919 -14.990 3584.015 -0.122 0.099 0.111 -0.04 -0.57 0.82 0.02
1 0.27 27 -0.235 -9.266 3.247 -1.709 -1.099 1.617 449.857 119.922 3509.064 -0.188 0.099 0.192 -0.04 -0.57 0.82 0.02
1 0.28 28 -0.268 -9.208 3.251 -2.289 -1.068 2.655 449.857 119.922 3509.064 -0.154 0.040 0.183 -0.04 -0.57 0.82 0.02
1 0.29 29 -0.354 -9.228 3.194 -1.434 -0.214 1.373 494.978 104.932 3554.035 -0.068 0.058 0.237 -0.04 -0.57 0.82 0.02
1 0.30 30 -0.388 -9.194 3.227 -0.702 0.153 1.465 494.978 104.932 3554.035 -0.035 0.023 0.201 -0.04 -0.57 0.82 0.02
1 0.31 31 -0.397 -9.194 3.280 -2.502 -1.190 0.610 494.978 104.932 3419.123 -0.024 0.022 0.147 -0.04 -0.57 0.82 0.02
1 0.32 32 -0.196 -9.161 3.256 -1.923 -1.160 1.129 494.978 104.932 3419.123 -0.224 -0.012 0.167 -0.04 -0.57 0.82 0.02
1 0.33 33 -0.302 -9.309 3.251 -2.167 -0.305 0.916 464.847 0.000 3629.136 -0.118 0.135 0.169 -0.04 -0.57 0.82 0.02
1 0.34 34 -0.393 -9.184 3.295 -1.617 -0.824 1.343 644.880 29.980 3599.005 -0.027 0.009 0.122 -0.04 -0.57 0.82 0.02
1 0.35 35 -0.484 -9.060 3.175 -1.495 -1.221 1.099 644.880 29.980 3599.005 0.064 -0.116 0.240 -0.04 -0.57 0.82 0.02
1 0.36 36 -0.321 -9.108 3.280 -3.204 -1.587 0.641 269.974 89.941 3509.064 -0.098 -0.069 0.134 -0.04 -0.57 0.82 0.02
1 0.37 37 -0.397 -9.122 3.251 -5.035 -1.190 0.763 269.974 89.941 3509.064 -0.020 -0.056 0.159 -0.04 -0.57 0.82 0.02
1 0.38 38 -0.292 -9.266 3.271 -4.791 -1.526 1.160 509.968 119.922 3584.015 -0.121 0.083 0.126 -0.04 -0.57 0.82 0.02
1 0.39 39 -0.316 -9.252 3.184 -4.089 -2.472 0.183 509.968 119.922 3584.015 -0.095 0.066 0.205 -0.04 -0.57 0.82 0.02
1 0.40 40 -0.230 -9.309 3.247 -4.425 -2.136 0.336 479.987 119.922 3299.051 -0.178 0.121 0.137 -0.04 -0.57 0.82 0.02
1 0.41 41 -0.273 -9.242 3.194 -3.967 -2.258 0.305 494.978 29.980 3449.103 -0.131 0.051 0.183 -0.04 -0.57 0.82 0.02
1 0.42 42 -0.158 -9.410 3.271 -2.930 -1.770 1.221 494.978 29.980 3449.103 -0.243 0.217 0.102 -0.04 -0.57 0.82 0.02
1 0.43 43 -0.297 -9.477 3.184 -2.838 -0.549 0.946 494.978 29.980 3419.123 -0.102 0.282 0.184 -0.04 -0.57 0.82 0.02
1 0.44 44 -0.484 -9.400 3.247 -2.014 -0.793 1.709 494.978 29.980 3419.123 0.087 0.204 0.116 -0.04 -0.57 0.82 0.02
1 0.45 45 -0.302 -9.443 3.189 -1.160 -1.190 1.617 404.886 89.941 3434.113 -0.095 0.244 0.167 -0.04 -0.57 0.82 0.02
1 0.46 46 -0.278 -9.443 3.271 -0.763 -0.854 1.678 404.886 89.941 3434.113 -0.119 0.244 0.086 -0.04 -0.57 0.82 0.02
1 0.47 47 -0.215 -9.343 3.117 0.336 -1.343 2.106 509.968 119.922 3404.132 -0.181 0.144 0.238 -0.04 -0.57 0.82 0.02
1 0.48 48 -0.455 -9.237 3.223 1.770 -1.282 1.862 494.978 224.854 3494.074 0.059 0.038 0.132 -0.04 -0.57 0.82 0.02
1 0.49 49 -0.364 -9.304 3.218 1.526 -0.916 2.502 494.978 224.854 3494.074 -0.034 0.106 0.140 -0.04 -0.57 0.82 0.02
1 0.50 50 -0.335 -9.141 3.170 0.977 -1.465 2.167 479.987 89.941 3539.044 -0.063 -0.057 0.188 -0.04 -0.57 0.82 0.02
1 0.51 51 -0.359 -9.242 3.256 1.251 -1.556 1.892 479.987 89.941 3539.044 -0.040 0.044 0.103 -0.04 -0.57 0.82 0.02
1 0.52 52 -0.235 -9.309 3.261 1.465 -1.862 2.686 314.945 0.000 3389.142 -0.164 0.112 0.100 -0.04 -0.57 0.82 0.02
1 0.53 53 -0.364 -9.189 3.227 1.404 -2.197 2.136 314.945 0.000 3389.142 -0.035 -0.007 0.136 -0.04 -0.57 0.82 0.02
1 0.54 54 -0.220 -9.199 3.232 0.885 -1.648 2.563 479.987 89.941 3539.044 -0.179 0.003 0.132 -0.04 -0.57 0.82 0.02
1 0.55 55 -0.283 -9.204 3.170 1.312 -1.587 2.228 389.896 299.955 3494.074 -0.116 0.009 0.196 -0.04 -0.57 0.82 0.02
1 0.56 56 -0.259 -9.070 3.280 -0.092 -0.763 1.923 389.896 299.955 3494.074 -0.139 -0.125 0.087 -0.04 -0.57 0.82 0.02
1 0.57 57 -0.249 -9.275 3.232 -0.854 -0.641 2.319 479.987 239.994 3359.012 -0.148 0.081 0.135 -0.04 -0.57 0.82 0.02
1 0.58 58 -0.283 -9.252 3.328 -1.099 -0.488 2.533 479.987 239.994 3359.012 -0.114 0.057 0.039 -0.04 -0.57 0.82 0.02
1 0.59 59 -0.273 -9.319 3.204 -0.885 -0.549 2.533 509.968 239.994 3479.083 -0.125 0.124 0.163 -0.04 -0.57 0.82 0.02
1 0.60 60 -0.201 -9.266 3.266 0.336 -0.854 2.472 479.987 239.994 3479.083 -0.198 0.071 0.101 -0.04 -0.57 0.82 0.02
1 0.61 61 -0.273 -9.295 3.223 -0.458 -0.275 2.777 494.978 254.984 3419.123 -0.125 0.100 0.144 -0.04 -0.57 0.82 0.02
1 0.62 62 -0.297 -9.213 3.247 -1.312 0.366 2.167 479.987 239.994 3359.012 -0.101 0.018 0.120 -0.04 -0.57 0.82 0.02
1 0.63 63 -0.378 -9.376 3.304 -1.190 -0.122 2.350 479.987 239.994 3359.012 -0.020 0.181 0.062 -0.04 -0.57 0.82 0.02
1 0.64 64 -0.397 -9.328 3.218 0.214 -0.061 2.380 389.896 179.883 3344.021 -0.003 0.133 0.147 -0.04 -0.57 0.82 0.02
1 0.65 65 -0.445 -9.237 3.204 1.587 -0.549 1.892 389.896 179.883 3344.021 0.044 0.041 0.161 -0.04 -0.57 0.82 0.02
1 0.66 66 -0.359 -9.189 3.156 1.434 -0.549 1.343 404.886 119.922 3509.064 -0.043 -0.006 0.210 -0.04 -0.57 0.82 0.02
1 0.67 67 -0.302 -9.218 3.295 -0.214 0.000 1.587 464.847 29.980 3494.074 -0.101 0.024 0.074 -0.04 -0.57 0.82 0.02
1 0.68 68 -0.239 -9.122 3.204 -0.641 0.732 1.465 644.880 104.932 3629.136 -0.162 -0.072 0.165 -0.04 -0.57 0.82 0.02
1 0.69 69 -0.297 -9.266 3.213 0.153 0.916 1.740 419.876 29.980 3494.074 -0.105 0.072 0.155 -0.04 -0.57 0.82 0.02
1 0.70 70 -0.254 -9.247 3.232 -0.122 0.854 1.617 419.876 29.980 3494.074 -0.149 0.052 0.135 -0.04 -0.57 0.82 0.02
1 0.71 71 -0.474 -9.304 3.251 -0.031 0.610 0.977 509.968 239.994 3434.113 0.070 0.110 0.116 -0.04 -0.57 0.82 0.02
1 0.72 72 -0.311 -9.376 3.175 0.183 0.244 1.007 509.968 239.994 3434.113 -0.093 0.182 0.192 -0.04 -0.57 0.82 0.02
1 0.73 73 -0.421 -9.232 3.146 1.862 -0.427 0.336 479.987 119.922 3614.146 0.017 0.038 0.221 -0.04 -0.57 0.82 0.02
1 0.74 74 -0.378 -9.141 3.223 2.167 0.031 1.678 494.978 104.932 3389.142 -0.024 -0.051 0.149 -0.04 -0.57 0.82 0.02
1 0.75 75 -0.321 -9.161 3.237 0.488 0.336 1.953 404.886 89.941 3509.064 -0.082 -0.031 0.138 -0.04 -0.57 0.82 0.02
1 0.76 76 -0.316 -9.151 3.108 0.671 1.007 1.190 479.987 194.873 3539.044 -0.088 -0.040 0.268 -0.04 -0.57 0.82 0.02
1 0.77 77 -0.388 -9.208 3.189 0.549 0.763 1.465 479.987 194.873 3539.044 -0.016 0.017 0.186 -0.04 -0.57 0.82 0.02
1 0.78 78 -0.225 -9.084 3.328 0.885 1.007 0.732 539.948 224.854 3419.123 -0.179 -0.108 0.047 -0.04 -0.57 0.82 0.02
1 0.79 79 -0.335 -9.218 3.314 1.465 0.122 1.465 539.948 224.854 3419.123 -0.069 0.027 0.063 -0.04 -0.57 0.82 0.02
1 0.80 80 -0.354 -9.247 3.237 0.641 -0.885 0.854 449.857 89.941 3299.051 -0.050 0.057 0.142 -0.04 -0.57 0.82 0.02
1 0.81 81 -0.321 -9.314 3.194 -0.397 -1.007 0.793 629.890 194.873 3539.044 -0.083 0.124 0.187 -0.04 -0.57 0.82 0.02
1 0.82 82 -0.196 -9.390 3.170 1.373 0.916 1.312 374.906 119.922 3359.012 -0.207 0.201 0.210 -0.04 -0.57 0.82 0.02
1 0.83 83 -0.230 -9.180 3.261 2.350 0.916 1.587 449.857 119.922 3539.044 -0.173 -0.009 0.121 -0.04 -0.57 0.82 0.02
1 0.84 84 -0.330 -9.280 3.218 1.617 0.977 2.441 449.857 119.922 3539.044 -0.072 0.093 0.168 -0.04 -0.57 0.82 0.02
1 0.85 85 -0.129 -9.151 3.189 0.580 -0.244 1.373 359.916 104.932 3554.035 -0.275 -0.036 0.197 -0.04 -0.57 0.82 0.02
1 0.86 86 -0.407 -9.184 3.213 -0.427 0.885 1.495 359.916 104.932 3554.035 0.004 -0.003 0.173 -0.04 -0.57 0.82 0.02
1 0.87 87 -0.273 -9.237 3.069 -0.702 1.221 1.984 554.938 89.941 3359.012 -0.130 0.050 0.316 -0.04 -0.57 0.82 0.02
1 0.88 88 -0.412 -9.247 3.189 0.488 0.183 2.045 464.847 179.883 3419.123 0.006 0.058 0.194 -0.04 -0.57 0.82 0.02
1 0.89 89 -0.383 -9.199 3.256 0.153 -0.702 1.587 449.857 89.941 3434.113 -0.023 0.010 0.127 -0.04 -0.57 0.82 0.02
1 0.90 90 -0.278 -9.184 3.295 0.092 0.305 1.434 509.968 164.893 3434.113 -0.129 -0.004 0.088 -0.04 -0.57 0.82 0.02
1 0.91 91 -0.220 -9.161 3.218 0.305 0.031 0.763 509.968 164.893 3434.113 -0.186 -0.028 0.166 -0.04 -0.57 0.82 0.02
1 0.92 92 -0.364 -9.376 3.237 0.488 0.183 0.732 404.886 44.971 3359.012 -0.041 0.188 0.147 -0.04 -0.57 0.82 0.02
1 0.93 93 -0.393 -9.304 3.223 0.305 -0.793 0.916 404.886 44.971 3359.012 -0.012 0.116 0.162 -0.04 -0.57 0.82 0.02
1 0.94 94 -0.326 -9.290 3.251 0.092 -1.221 1.221 554.938 44.971 3479.083 -0.078 0.102 0.133 -0.04 -0.57 0.82 0.02
1 0.95 95 -0.397 -9.108 3.242 -0.214 -0.885 0.916 494.978 104.932 3524.054 -0.006 -0.080 0.144 -0.04 -0.57 0.82 0.02
1 0.96 96 -0.235 -9.309 3.251 -0.427 -0.488 1.404 494.978 0.000 3494.074 -0.170 0.121 0.134 -0.04 -0.57 0.82 0.02
1 0.97 97 -0.354 -9.371 3.271 0.671 -1.648 1.740 584.919 89.941 3329.031 -0.051 0.184 0.115 -0.04 -0.57 0.82 0.02
1 0.98 98 -0.359 -9.247 3.400 1.373 -1.801 1.221 584.919 89.941 3329.031 -0.047 0.059 -0.014 -0.04 -0.57 0.82 0.02
1 0.99 99 -0.345 -9.199 3.237 1.495 -1.312 1.709 629.890 164.893 3404.132 -0.061 0.013 0.152 -0.04 -0.57 0.82 0.02
1 1.00 100 -0.383 -9.132 3.232 0.946 -2.136 1.434 629.890 164.893 3404.132 -0.021 -0.054 0.159 -0.04 -0.57 0.82 0.02
1 1.01 101 -0.297 -9.199 3.218 -0.092 -1.648 1.587 584.919 119.922 3434.113 -0.107 0.014 0.175 -0.04 -0.57 0.82 0.02
1 1.02 102 -0.225 -9.156 3.213 -0.397 -0.549 1.862 599.909 104.932 3269.070 -0.178 -0.029 0.180 -0.04 -0.57 0.82 0.02
1 1.03 103 -0.460 -9.199 3.156 -0.214 -0.732 1.678 539.948 149.902 3494.074 0.057 0.014 0.238 -0.04 -0.57 0.82 0.02
1 1.04 104 -0.297 -9.170 3.170 0.275 -0.763 2.014 389.896 29.980 3524.054 -0.107 -0.015 0.224 -0.04 -0.57 0.82 0.02
1 1.05 105 -0.283 -9.223 3.227 0.702 -1.129 2.106 389.896 29.980 3524.054 -0.121 0.038 0.166 -0.04 -0.57 0.82 0.02
1 1.06 106 -0.412 -9.261 3.247 0.610 -1.495 1.556 599.909 74.951 3389.142 0.009 0.076 0.146 -0.04 -0.57 0.82 0.02
1 1.07 107 -0.306 -9.208 3.237 -0.031 -1.373 1.343 599.909 74.951 3389.142 -0.097 0.023 0.156 -0.04 -0.57 0.82 0.02
1 1.08 108 -0.311 -9.266 3.160 -0.244 -1.862 1.068 464.847 179.883 3494.074 -0.092 0.081 0.233 -0.04 -0.57 0.82 0.02
1 1.09 109 -0.273 -9.242 3.213 -0.275 -1.923 0.824 674.860 104.932 3419.123 -0.130 0.057 0.180 -0.04 -0.57 0.82 0.02
1 1.10 110 -0.364 -9.146 3.141 -0.427 -1.709 0.122 674.860 104.932 3419.123 -0.038 -0.039 0.251 -0.04 -0.57 0.82 0.02
1 1.11 111 -0.316 -9.290 3.256 -1.221 -2.106 0.641 479.987 119.922 3509.064 -0.082 0.104 0.134 -0.04 -0.57 0.82 0.02
1 1.12 112 -0.292 -9.218 3.122 -0.885 -2.472 0.580 479.987 119.922 3509.064 -0.104 0.031 0.266 -0.04 -0.57 0.82 0.02
1 1.13 113 -0.201 -9.280 3.156 -0.214 -2.045 0.916 494.978 104.932 3449.103 -0.192 0.093 0.231 -0.04 -0.57 0.82 0.02
1 1.14 114 -0.187 -9.271 3.237 -0.763 -2.167 0.854 494.978 104.932 3449.103 -0.205 0.083 0.149 -0.04 -0.57 0.82 0.02
1 1.15 115 -0.244 -9.261 3.184 -1.068 -1.221 0.885 479.987 89.941 3434.113 -0.146 0.073 0.201 -0.04 -0.57 0.82 0.02
1 1.16 116 -0.350 -9.314 3.295 -1.099 -0.763 1.129 404.886 14.990 3404.132 -0.039 0.125 0.090 -0.04 -0.57 0.82 0.02
1 1.17 117 -0.201 -9.314 3.275 -1.923 -0.366 1.312 404.886 14.990 3404.132 -0.187 0.125 0.109 -0.04 -0.57 0.82 0.02
1 1.18 118 -0.263 -9.381 3.189 -0.092 -0.916 1.953 569.929 149.902 3494.074 -0.123 0.190 0.191 -0.04 -0.57 0.82 0.02
1 1.19 119 -0.364 -9.280 3.237 0.031 -0.244 1.892 569.929 149.902 3494.074 -0.022 0.090 0.143 -0.04 -0.57 0.82 0.02
1 1.20 120 -0.393 -9.395 3.366 0.092 -0.275 1.221 449.857 164.893 3644.126 0.007 0.205 0.014 -0.04 -0.57 0.82 0.02
1 1.21 121 -0.220 -9.343 3.314 0.061 -0.793 1.465 449.857 164.893 3644.126 -0.166 0.152 0.067 -0.04 -0.57 0.82 0.02
1 1.22 122 -0.321 -9.400 3.266 0.732 -0.488 1.068 569.929 404.886 3599.005 -0.064 0.210 0.115 -0.04 -0.57 0.82 0.02
1 1.23 123 -0.239 -9.271 3.113 1.404 -0.549 1.556 404.886 239.994 3614.146 -0.146 0.081 0.269 -0.04 -0.57 0.82 0.02
1 1.24 124 -0.407 -9.290 3.261 1.190 -1.556 0.885 404.886 239.994 3614.146 0.021 0.100 0.121 -0.04 -0.57 0.82 0.02
1 1.25 125 -0.335 -9.156 3.505 1.953 -2.563 0.732 554.938 164.893 3479.083 -0.048 -0.033 -0.120 -0.04 -0.57 0.82 0.02
1 1.26 126 -0.321 -9.180 3.376 1.343 -2.289 1.556 554.938 164.893 3479.083 -0.061 -0.008 0.013 -0.04 -0.57 0.82 0.02
1 1.27 127 -0.196 -9.113 3.318 0.977 -2.563 1.160 464.847 179.883 3419.123 -0.184 -0.074 0.073 -0.04 -0.57 0.82 0.02
1 1.28 128 -0.211 -9.228 3.357 0.977 -1.587 1.709 464.847 179.883 3419.123 -0.168 0.042 0.037 -0.04 -0.57 0.82 0.02
1 1.29 129 -0.397 -9.275 3.218 1.221 -1.465 1.862 554.938 239.994 3434.113 0.019 0.090 0.176 -0.04 -0.57 0.82 0.02
1 1.30 130 -0.354 -9.457 3.438 2.441 -2.075 2.502 509.968 119.922 3359.012 -0.024 0.272 -0.043 -0.04 -0.57 0.82 0.02
1 1.31 131 -0.450 -9.381 3.414 3.052 -3.113 2.136 509.968 119.922 3359.012 0.070 0.197 -0.016 -0.04 -0.57 0.82 0.02
1 1.32 132 -0.369 -9.366 3.424 3.906 -4.578 1.984 419.876 374.906 3314.041 -0.011 0.186 -0.015 -0.04 -0.57 0.82 0.02
1 1.33 133 -0.292 -9.252 3.433 3.265 -4.120 2.563 419.876 374.906 3314.041 -0.086 0.073 -0.019 -0.04 -0.57 0.82 0.02
1 1.34 134 0.014 -9.204 3.242 4.120 -3.754 2.747 569.929 179.883 3524.054 -0.392 0.028 0.179 -0.04 -0.57 0.82 0.02
1 1.35 135 -0.096 -9.036 3.328 5.066 -2.014 2.563 569.929 179.883 3524.054 -0.280 -0.137 0.099 -0.04 -0.57 0.82 0.02
1 1.36 136 -0.259 -9.108 3.266 4.700 -0.824 3.204 479.987 44.971 3434.113 -0.117 -0.063 0.169 -0.03 -0.57 0.82 0.02
1 1.37 137 -0.374 -9.151 3.218 3.510 -1.434 2.991 404.886 194.873 3479.083 -0.004 -0.018 0.222 -0.03 -0.57 0.82 0.02
1 1.38 138 -0.369 -9.247 3.295 1.617 -1.892 3.601 404.886 194.873 3479.083 -0.010 0.080 0.151 -0.03 -0.57 0.82 0.02
1 1.39 139 -0.182 -9.266 3.141 1.282 -1.648 3.357 539.948 224.854 3494.074 -0.199 0.100 0.306 -0.04 -0.57 0.82 0.02
1 1.40 140 -0.168 -9.309 3.280 4.150 -2.411 3.632 629.890 44.971 3479.083 -0.218 0.145 0.172 -0.04 -0.57 0.82 0.02
1 1.41 141 -0.235 -9.208 3.275 3.693 -3.235 2.655 584.919 89.941 3359.012 -0.151 0.047 0.183 -0.04 -0.57 0.82 0.02
1 1.42 142 -0.235 -9.228 3.275 4.578 -2.472 1.831 584.919 89.941 3359.012 -0.150 0.068 0.188 -0.04 -0.57 0.82 0.02
1 1.43 143 -0.254 -9.098 3.323 4.181 -1.709 2.319 539.948 104.932 3389.142 -0.130 -0.059 0.146 -0.04 -0.57 0.82 0.02
1 1.44 144 -0.302 -9.132 3.314 2.930 -1.648 2.777 479.987 44.971 3359.012 -0.082 -0.023 0.161 -0.04 -0.57 0.82 0.02
1 1.45 145 -0.330 -9.161 3.462 2.655 -1.831 2.594 479.987 44.971 3359.012 -0.054 0.007 0.017 -0.04 -0.57 0.82 0.02
1 1.46 146 -0.311 -9.208 3.386 2.319 -2.319 2.472 479.987 -14.990 3434.113 -0.074 0.057 0.099 -0.04 -0.57 0.82 0.02
1 1.47 147 -0.225 -9.261 3.251 3.784 -2.228 2.502 494.978 224.854 3314.041 -0.160 0.112 0.241 -0.03 -0.57 0.82 0.02
1 1.48 148 -0.110 -9.161 3.338 3.815 -1.862 2.350 494.978 0.000 3419.123 -0.275 0.014 0.159 -0.03 -0.57 0.82 0.02
1 1.49 149 -0.177 -9.060 3.180 3.723 -0.977 2.136 494.978 0.000 3419.123 -0.207 -0.085 0.323 -0.03 -0.57 0.82 0.02
1 1.50 150 -0.182 -9.117 3.256 2.258 -0.488 2.930 449.857 89.941 3359.012 -0.202 -0.026 0.251 -0.03 -0.57 0.82 0.02
1 1.51 151 -0.244 -9.161 3.419 1.465 0.122 3.082 644.880 -104.932 3449.103 -0.140 0.019 0.091 -0.03 -0.57 0.82 0.02
1 1.52 152 -0.259 -9.247 3.309 1.953 0.336 2.167 644.880 -104.932 3449.103 -0.128 0.106 0.203 -0.04 -0.57 0.82 0.02
1 1.53 153 -0.215 -9.405 3.352 2.167 0.610 2.075 584.919 14.990 3434.113 -0.171 0.265 0.162 -0.04 -0.57 0.82 0.02
1 1.54 154 -0.158 -9.304 3.213 2.533 1.129 1.709 599.909 104.932 3344.021 -0.231 0.166 0.305 -0.04 -0.57 0.82 0.02
1 1.55 155 -0.225 -9.132 3.347 3.326 1.282 1.740 644.880 29.980 3524.054 -0.164 -0.006 0.173 -0.04 -0.56 0.82 0.02
1 1.56 156 -0.421 -9.151 3.347 2.960 1.160 1.526 644.880 29.980 3524.054 0.031 0.015 0.177 -0.04 -0.56 0.82 0.02
1 1.57 157 -0.421 -9.146 3.266 3.021 1.373 1.129 494.978 29.980 3389.142 0.029 0.012 0.262 -0.04 -0.56 0.82 0.02
1 1.58 158 -0.345 -9.223 3.371 2.747 1.099 1.617 509.968 14.990 3509.064 -0.048 0.090 0.160 -0.04 -0.56 0.82 0.02
1 1.59 159 -0.374 -9.208 3.352 0.885 1.190 1.801 509.968 14.990 3509.064 -0.020 0.077 0.183 -0.04 -0.56 0.82 0.02
1 1.60 160 -0.340 -9.256 3.323 1.465 1.099 1.678 584.919 119.922 3509.064 -0.055 0.125 0.212 -0.04 -0.56 0.82 0.02
1 1.61 161 -0.321 -9.261 3.448 2.441 1.465 2.045 509.968 44.971 3509.064 -0.076 0.130 0.089 -0.04 -0.56 0.82 0.02
1 1.62 162 -0.350 -9.189 3.357 3.143 0.702 1.740 464.847 179.883 3389.142 -0.049 0.061 0.187 -0.04 -0.56 0.82 0.02
1 1.63 163 -0.311 -9.165 3.386 3.052 0.183 1.312 464.847 179.883 3389.142 -0.089 0.038 0.161 -0.04 -0.56 0.83 0.02
1 1.64 164 -0.235 -9.127 3.362 2.167 0.610 1.343 494.978 0.000 3419.123 -0.165 0.001 0.188 -0.04 -0.56 0.83 0.02
1 1.65 165 -0.364 -9.199 3.328 1.312 0.366 1.617 599.909 329.935 3344.021 -0.035 0.074 0.224 -0.04 -0.56 0.83 0.02
1 1.66 166 -0.249 -9.074 3.318 2.014 1.495 1.221 599.909 329.935 3344.021 -0.150 -0.050 0.235 -0.04 -0.56 0.83 0.02
1 1.67 167 -0.201 -9.323 3.467 2.106 1.923 1.770 539.948 74.951 3269.070 -0.198 0.200 0.089 -0.04 -0.56 0.83 0.02
1 1.68 168 -0.196 -9.247 3.395 1.038 1.862 1.770 539.948 29.980 3554.035 -0.203 0.124 0.163 -0.04 -0.56 0.83 0.02
1 1.69 169 -0.273 -9.275 3.309 2.502 1.343 0.610 494.978 29.980 3494.074 -0.129 0.155 0.253 -0.04 -0.56 0.83 0.02
1 1.70 170 -0.359 -9.199 3.280 1.556 0.977 0.397 494.978 29.980 3494.074 -0.042 0.079 0.284 -0.04 -0.56 0.83 0.02
1 1.71 171 -0.263 -9.319 3.223 1.099 1.434 0.793 554.938 119.922 3434.113 -0.138 0.199 0.343 -0.04 -0.56 0.83 0.02
1 1.72 172 -0.321 -9.275 3.275 1.892 2.930 1.038 329.935 194.873 3254.080 -0.081 0.156 0.290 -0.04 -0.56 0.83 0.02
1 1.73 173 -0.254 -9.103 3.390 3.387 2.777 0.885 329.935 194.873 3254.080 -0.149 -0.016 0.177 -0.04 -0.56 0.83 0.02
1 1.74 174 -0.378 -9.103 3.376 3.510 2.472 0.854 629.890 119.922 3359.012 -0.026 -0.014 0.195 -0.04 -0.56 0.83 0.02
1 1.75 175 -0.426 -9.170 3.362 3.143 1.068 0.671 599.909 -104.932 3554.035 0.021 0.055 0.214 -0.04 -0.56 0.83 0.02
1 1.76 176 -0.306 -9.122 3.414 3.265 0.061 0.061 584.919 194.873 3299.051 -0.100 0.009 0.168 -0.04 -0.56 0.83 0.02
1 1.77 177 -0.306 -9.161 3.328 3.143 1.495 0.061 584.919 194.873 3299.051 -0.098 0.049 0.258 -0.04 -0.56 0.83 0.02
1 1.78 178 -0.359 -9.127 3.481 2.777 2.075 0.397 479.987 44.971 3479.083 -0.045 0.018 0.109 -0.04 -0.56 0.83 0.02
1 1.79 179 -0.321 -9.065 3.395 1.282 2.472 0.519 494.978 179.883 3269.070 -0.085 -0.043 0.199 -0.04 -0.56 0.83 0.02
1 1.80 180 -0.460 -9.151 3.290 0.519 1.892 0.610 494.978 179.883 3269.070 0.054 0.043 0.306 -0.04 -0.56 0.83 0.02
1 1.81 181 -0.302 -9.223 3.304 0.793 1.831 0.427 599.909 179.883 3389.142 -0.105 0.115 0.291 -0.04 -0.56 0.83 0.02
1 1.82 182 -0.283 -9.074 3.429 0.793 2.655 1.160 479.987 89.941 3359.012 -0.124 -0.033 0.167 -0.04 -0.56 0.83 0.02
1 1.83 183 -0.321 -9.151 3.419 0.854 2.258 0.488 479.987 89.941 3359.012 -0.087 0.044 0.177 -0.04 -0.56 0.83 0.02
1 1.84 184 -0.421 -9.137 3.539 0.854 0.580 1.373 599.909 74.951 3449.103 0.012 0.030 0.060 -0.04 -0.56 0.83 0.02
1 1.85 185 -0.340 -9.271 3.481 -1.129 0.366 1.495 404.886 44.971 3404.132 -0.070 0.164 0.117 -0.04 -0.56 0.83 0.02
1 1.86 186 -0.254 -9.252 3.386 -0.977 0.702 0.610 644.880 74.951 3494.074 -0.155 0.144 0.211 -0.04 -0.56 0.83 0.02
1 1.87 187 -0.292 -9.175 3.544 1.099 1.465 -0.183 644.880 74.951 3494.074 -0.115 0.067 0.052 -0.04 -0.56 0.83 0.02
1 1.88 188 -0.172 -9.156 3.486 2.899 2.319 0.031 539.948 29.980 3494.074 -0.233 0.049 0.112 -0.04 -0.56 0.83 0.02
1 1.89 189 -0.225 -9.060 3.395 1.709 2.380 0.336 479.987 14.990 3434.113 -0.179 -0.045 0.206 -0.04 -0.56 0.83 0.02
1 1.90 190 -0.412 -9.137 3.419 0.732 2.319 0.427 479.987 14.990 3434.113 0.009 0.032 0.185 -0.04 -0.56 0.83 0.02
1 1.91 191 -0.436 -9.127 3.342 0.916 0.397 -0.763 584.919 119.922 3359.012 0.033 0.023 0.262 -0.04 -0.56 0.83 0.02
1 1.92 192 -0.302 -9.184 3.381 0.336 -0.366 -1.709 539.948 -29.980 3419.123 -0.098 0.080 0.224 -0.04 -0.56 0.83 0.02
1 1.93 193 -0.292 -9.050 3.381 0.244 -1.709 -1.678 539.948 29.980 3449.103 -0.103 -0.054 0.224 -0.04 -0.56 0.83 0.02
1 1.94 194 -0.086 -9.156 3.338 1.129 -1.251 -1.984 539.948 29.980 3449.103 -0.302 0.051 0.267 -0.04 -0.56 0.83 0.02
1 1.95 195 -0.153 -9.285 3.381 -2.899 1.129 -1.190 509.968 89.941 3299.051 -0.229 0.180 0.225 -0.04 -0.56 0.83 0.02
1 1.96 196 -0.148 -9.328 3.318 -2.594 2.197 -0.885 539.948 74.951 3449.103 -0.229 0.222 0.283 -0.04 -0.56 0.83 0.02
1 1.97 197 -0.259 -9.515 3.314 -0.946 1.831 -0.092 539.948 74.951 3449.103 -0.116 0.406 0.282 -0.04 -0.56 0.83 0.02
1 1.98 198 -0.484 -9.400 3.280 -0.366 0.793 0.671 539.948 74.951 3314.041 0.109 0.289 0.310 -0.04 -0.56 0.83 0.02
1 1.99 199 -0.445 -9.515 3.371 0.305 -1.343 0.458 479.987 44.971 3434.113 0.071 0.403 0.217 -0.04 -0.56 0.83 0.02
1 2.00 200 -0.350 -9.630 3.299 2.441 -2.289 0.397 569.929 179.883 3239.090 -0.025 0.518 0.288 -0.04 -0.56 0.83 0.02
1 2.01 201 -0.417 -9.568 3.395 3.723 -3.296 -0.061 569.929 179.883 3239.090 0.045 0.456 0.194 -0.04 -0.56 0.83 0.02
1 2.02 202 -0.287 -9.323 3.381 7.385 -2.991 0.641 659.870 89.941 3359.012 -0.081 0.214 0.213 -0.04 -0.56 0.83 0.02
1 2.03 203 -0.426 -9.199 3.390 8.209 -2.899 1.678 569.929 29.980 3419.123 0.061 0.092 0.212 -0.04 -0.56 0.83 0.02
1 2.04 204 -0.139 -9.223 3.328 6.561 -3.479 1.678 569.929 29.980 3419.123 -0.225 0.120 0.285 -0.04 -0.56 0.83 0.02
1 2.05 205 -0.225 -9.065 3.352 4.822 -3.143 2.411 584.919 14.990 3359.012 -0.136 -0.032 0.277 -0.04 -0.56 0.83 0.02
1 2.06 206 -0.196 -9.151 3.328 5.005 -3.387 2.869 494.978 29.980 3344.021 -0.164 0.057 0.306 -0.04 -0.56 0.83 0.02
1 2.07 207 -0.115 -9.323 3.323 6.348 -3.143 3.357 509.968 -44.971 3299.051 -0.245 0.232 0.318 -0.04 -0.56 0.83 0.02
1 2.08 208 -0.220 -9.180 3.290 8.118 -2.533 2.441 509.968 -44.971 3299.051 -0.139 0.091 0.359 -0.04 -0.56 0.83 0.02
1 2.09 209 -0.235 -9.089 3.419 8.301 -1.465 2.686 464.847 0.000 3389.142 -0.125 0.005 0.240 -0.04 -0.56 0.83 0.02
1 2.10 210 -0.235 -8.969 3.529 6.317 -1.770 2.777 494.978 -29.980 3239.090 -0.126 -0.111 0.140 -0.04 -0.56 0.83 0.02
1 2.11 211 -0.374 -9.170 3.323 6.653 -2.167 3.845 494.978 -29.980 3239.090 0.012 0.094 0.355 -0.04 -0.56 0.83 0.02
1 2.12 212 -0.364 -9.256 3.395 6.287 -2.838 2.594 569.929 -74.951 3314.041 -0.000 0.187 0.299 -0.04 -0.56 0.83 0.02
1 2.13 213 -0.220 -9.295 3.453 5.890 -3.174 2.594 659.870 89.941 3299.051 -0.144 0.228 0.249 -0.04 -0.56 0.83 0.02
1 2.14 214 -0.177 -9.180 3.295 7.935 -4.028 1.801 584.919 -14.990 3359.012 -0.185 0.117 0.416 -0.04 -0.56 0.83 0.02
1 2.15 215 -0.239 -9.127 3.347 8.850 -4.700 1.312 584.919 -14.990 3359.012 -0.121 0.068 0.373 -0.04 -0.56 0.83 0.02
1 2.16 216 -0.215 -9.137 3.419 7.263 -4.700 1.678 479.987 -14.990 3359.012 -0.142 0.082 0.312 -0.04 -0.56 0.83 0.02
1 2.17 217 -0.115 -9.070 3.395 7.172 -5.402 1.648 539.948 -149.902 3419.123 -0.239 0.018 0.345 -0.04 -0.55 0.83 0.02
1 2.18 218 -0.283 -9.050 3.467 6.439 -6.012 1.221 539.948 -149.902 3419.123 -0.068 0.003 0.283 -0.04 -0.55 0.83 0.02
1 2.19 219 -0.144 -9.122 3.409 5.005 -6.165 0.946 479.987 -119.922 3359.012 -0.203 0.078 0.348 -0.04 -0.55 0.83 0.02
1 2.20 220 -0.163 -9.113 3.338 6.714 -7.141 2.106 539.948 29.980 3344.021 -0.174 0.073 0.432 -0.03 -0.55 0.83 0.02
1 2.21 221 -0.235 -9.247 3.304 7.111 -5.981 2.106 494.978 -179.883 3239.090 -0.099 0.210 0.474 -0.03 -0.55 0.83 0.02
1 2.22 222 0.014 -9.127 3.496 7.599 -6.042 2.594 494.978 -179.883 3239.090 -0.344 0.094 0.291 -0.03 -0.55 0.83 0.02
1 2.23 223 -0.057 -9.117 3.457 7.721 -5.157 3.571 554.938 14.990 3479.083 -0.269 0.088 0.338 -0.03 -0.55 0.83 0.02
1 2.24 224 -0.101 -9.146 3.453 7.172 -4.639 3.326 419.876 -29.980 3344.021 -0.224 0.120 0.351 -0.03 -0.55 0.83 0.02
1 2.25 225 -0.038 -9.366 3.496 6.592 -4.425 3.937 419.876 -29.980 3344.021 -0.284 0.344 0.317 -0.03 -0.55 0.83 0.02
1 2.26 226 0.005 -9.280 3.299 7.324 -4.669 4.944 539.948 74.951 3494.074 -0.327 0.261 0.521 -0.03 -0.55 0.83 0.02
1 2.27 227 -0.029 -9.309 3.395 8.179 -4.913 5.219 509.968 164.893 3359.012 -0.293 0.297 0.440 -0.03 -0.55 0.83 0.02
1 2.28 228 0.043 -9.280 3.318 9.796 -5.035 5.554 464.847 0.000 3389.142 -0.366 0.272 0.526 -0.03 -0.55 0.83 0.02
1 2.29 229 0.110 -9.218 3.299 9.583 -3.754 5.005 464.847 0.000 3389.142 -0.434 0.214 0.556 -0.03 -0.55 0.83 0.02
1 2.30 230 -0.038 -9.180 3.424 9.186 -2.930 6.439 494.978 74.951 3344.021 -0.288 0.180 0.441 -0.03 -0.55 0.83 0.02
1 2.31 231 0.038 -9.055 3.237 9.216 -3.082 6.836 449.857 -119.922 3254.080 -0.368 0.060 0.638 -0.03 -0.55 0.84 0.02
1 2.32 232 0.005 -9.098 3.271 8.575 -1.312 8.179 449.857 -119.922 3254.080 -0.338 0.107 0.614 -0.03 -0.55 0.84 0.02
1 2.33 233 -0.062 -9.208 3.371 6.683 -0.397 8.789 554.938 -44.971 3299.051 -0.277 0.221 0.522 -0.03 -0.55 0.84 0.02
1 2.34 234 -0.192 -9.299 3.390 6.226 -0.488 9.705 389.896 -104.932 3209.109 -0.164 0.318 0.515 -0.03 -0.55 0.84 0.02
1 2.35 235 -0.005 -9.424 3.405 6.317 0.122 9.247 419.876 0.000 3389.142 -0.360 0.446 0.506 -0.03 -0.55 0.84 0.02
1 2.36 236 -0.010 -9.501 3.448 9.308 0.916 9.705 419.876 0.000 3389.142 -0.364 0.525 0.469 -0.03 -0.55 0.84 0.02
1 2.37 237 0.053 -9.280 3.534 12.238 1.801 10.315 509.968 -89.941 3149.148 -0.436 0.310 0.393 -0.03 -0.55 0.84 0.02
1 2.38 238 0.024 -8.945 3.572 11.719 2.960 11.047 629.890 -14.990 3329.031 -0.419 -0.018 0.370 -0.03 -0.55 0.84 0.01
1 2.39 239 -0.081 -8.782 3.539 12.268 5.035 11.475 629.890 -14.990 3329.031 -0.326 -0.174 0.418 -0.03 -0.54 0.84 0.01
1 2.40 240 -0.096 -8.883 3.548 13.580 6.683 11.658 584.919 -14.990 3254.080 -0.327 -0.067 0.422 -0.04 -0.54 0.84 0.01
1 2.41 241 0.010 -8.993 3.572 14.435 7.355 11.658 584.919 -14.990 3254.080 -0.447 0.051 0.415 -0.04 -0.54 0.84 0.01
1 2.42 242 0.172 -9.041 3.448 23.377 10.559 10.254 509.968 -164.893 3254.080 -0.640 0.118 0.578 -0.04 -0.54 0.84 0.01
1 2.43 243 -0.163 -8.835 3.620 31.220 14.160 8.453 509.968 -164.893 3254.080 -0.321 -0.073 0.437 -0.04 -0.54 0.84 0.01
1 2.44 244 -0.316 -8.634 3.821 34.485 16.510 5.615 599.909 -179.883 3104.028 -0.184 -0.254 0.277 -0.04 -0.54 0.84 0.01
1 2.45 245 -0.421 -8.433 4.065 31.372 16.144 1.160 449.857 -89.941 3359.012 -0.093 -0.433 0.078 -0.04 -0.54 0.84 0.02
1 2.46 246 -0.311 -8.452 4.262 21.210 17.090 -4.120 449.857 -89.941 3359.012 -0.212 -0.395 -0.078 -0.04 -0.53 0.84 0.02
1 2.47 247 -0.397 -8.672 4.137 17.334 18.768 -8.331 539.948 -104.932 3269.070 -0.129 -0.159 0.078 -0.04 -0.53 0.85 0.02
1 2.48 248 -0.220 -8.835 3.998 16.602 18.951 -10.712 539.948 -104.932 3269.070 -0.305 0.015 0.241 -0.04 -0.53 0.85 0.02
1 2.49 249 0.096 -9.232 4.156 11.322 20.203 -10.498 539.948 -149.902 3209.109 -0.611 0.430 0.121 -0.04 -0.53 0.85 0.02
1 2.50 250 -0.043 -9.362 4.061 11.505 23.895 -9.583 539.948 -149.902 3209.109 -0.466 0.565 0.228 -0.05 -0.53 0.85 0.02
1 2.51 251 -0.091 -8.821 3.673 24.933 24.994 -10.345 689.851 -164.893 3074.047 -0.416 0.031 0.631 -0.05 -0.53 0.85 0.03
1 2.52 252 -0.599 -7.643 3.500 34.668 24.475 -12.970 554.938 -239.994 3119.018 0.094 -1.131 0.836 -0.05 -0.53 0.85 0.03
1 2.53 253 -0.790 -7.681 3.438 26.428 24.902 -13.855 554.938 -239.994 3119.018 0.289 -1.071 0.942 -0.05 -0.52 0.85 0.03
1 2.54 254 -0.637 -8.313 3.409 -1.465 27.069 -9.735 509.968 -269.974 3119.018 0.139 -0.426 0.998 -0.05 -0.52 0.85 0.03
1 2.55 255 -0.766 -9.481 3.280 -13.458 27.680 -8.148 509.968 -269.974 3119.018 0.266 0.743 1.128 -0.05 -0.52 0.85 0.03
1 2.56 256 -1.034 -10.899 2.940 -3.815 25.574 -7.721 749.961 -299.955 3209.109 0.518 2.137 1.420 -0.05 -0.52 0.85 0.04
1 2.57 257 -1.259 -10.846 2.892 14.618 20.569 -10.437 749.961 -299.955 3209.109 0.739 2.084 1.467 -0.05 -0.52 0.85 0.04
1 2.58 258 -1.336 -9.869 2.825 25.971 14.984 -12.787 659.870 -389.896 3299.051 0.819 1.119 1.557 -0.05 -0.52 0.85 0.04
1 2.59 259 -1.125 -9.424 3.093 20.844 11.810 -10.315 584.919 -239.994 3074.047 0.612 0.684 1.310 -0.06 -0.52 0.85 0.04
1 2.60 260 -0.608 -9.558 3.448 4.944 16.541 1.892 584.919 -239.994 3074.047 0.094 0.826 0.971 -0.06 -0.52 0.85 0.04
1 2.61 261 -0.589 -9.601 2.892 3.662 17.914 10.132 749.961 -254.984 3134.008 0.065 0.870 1.528 -0.06 -0.52 0.85 0.04
1 2.62 262 -0.939 -8.821 2.193 21.637 17.609 9.735 749.961 -254.984 3134.008 0.393 0.087 2.219 -0.06 -0.52 0.85 0.04
1 2.63 263 -0.924 -8.538 2.303 30.029 14.374 8.148 689.851 -239.994 3329.031 0.352 -0.190 2.117 -0.06 -0.52 0.85 0.04
1 2.64 264 -0.761 -8.763 2.830 4.791 18.250 17.609 734.971 -344.925 3194.119 0.138 0.059 1.630 -0.06 -0.52 0.85 0.04
1 2.65 265 -0.838 -8.892 2.696 1.923 21.057 21.790 779.942 -179.883 3269.070 0.176 0.188 1.757 -0.06 -0.52 0.85 0.04
1 2.66 266 -1.020 -8.888 2.318 10.742 18.707 22.461 1004.945 -329.935 3239.090 0.314 0.182 2.127 -0.07 -0.52 0.85 0.04
1 2.67 267 -1.245 -8.485 2.476 18.951 16.205 22.492 1004.945 -329.935 3239.090 0.495 -0.214 1.973 -0.07 -0.52 0.85 0.04
1 2.68 268 -1.336 -8.351 2.528 16.724 16.144 21.790 824.913 -479.987 3239.090 0.543 -0.338 1.933 -0.07 -0.52 0.85 0.04
1 2.69 269 -1.408 -8.366 2.576 7.507 14.618 22.797 824.913 -479.987 3239.090 0.572 -0.314 1.896 -0.07 -0.52 0.85 0.04
1 2.70 270 -1.537 -8.275 2.648 -2.289 15.320 21.790 839.903 -314.945 3299.051 0.659 -0.398 1.830 -0.07 -0.52 0.85 0.04
1 2.71 271 -1.528 -8.270 2.447 -1.495 8.637 18.799 839.903 -344.925 3119.018 0.564 -0.408 2.004 -0.08 -0.52 0.85 0.03
1 2.72 272 -1.508 -8.227 2.595 -2.045 3.876 15.167 989.955 -344.925 3119.018 0.518 -0.449 1.852 -0.08 -0.52 0.85 0.03
1 2.73 273 -1.417 -8.064 2.466 -5.554 -0.427 10.986 914.854 -494.978 3224.100 0.408 -0.612 1.978 -0.08 -0.52 0.85 0.03
1 2.74 274 -1.125 -8.169 2.591 -12.787 -3.601 5.951 914.854 -494.978 3224.100 0.105 -0.510 1.844 -0.08 -0.52 0.85 0.03
1 2.75 275 -1.049 -8.394 2.548 -24.933 -5.615 2.869 944.984 -269.974 3074.047 0.026 -0.295 1.868 -0.08 -0.52 0.85 0.03
1 2.76 276 -1.231 -8.844 2.485 -30.975 -5.157 2.686 944.984 -269.974 3074.047 0.208 0.138 1.896 -0.08 -0.52 0.85 0.03
1 2.77 277 -1.106 -9.592 2.442 -34.271 -3.082 2.594 1019.936 -239.994 3044.067 0.083 0.860 1.888 -0.08 -0.52 0.85 0.03
1 2.78 278 -1.863 -10.085 2.773 -27.741 0.610 1.465 824.913 -254.984 3164.139 0.834 1.299 1.445 -0.08 -0.53 0.85 0.03
1 2.79 279 -2.457 -10.022 2.811 -17.059 -2.472 -0.122 824.913 -404.886 3314.041 1.421 1.215 1.360 -0.08 -0.53 0.84 0.03
1 2.80 280 -2.686 -9.826 2.916 -8.575 -12.665 -1.404 929.994 -299.955 3314.041 1.646 1.006 1.225 -0.08 -0.53 0.84 0.03
1 2.81 281 -2.629 -9.515 3.093 -7.507 -21.179 -0.366 929.994 -299.955 3314.041 1.589 0.686 1.031 -0.08 -0.53 0.84 0.03
1 2.82 282 -2.140 -9.357 3.194 -10.468 -25.116 -0.153 914.854 -239.994 3224.100 1.106 0.520 0.915 -0.08 -0.53 0.84 0.02
1 2.83 283 -1.844 -9.601 3.089 -13.306 -24.506 0.793 914.854 -239.994 3224.100 0.818 0.756 1.004 -0.08 -0.53 0.84 0.02
1 2.84 284 -1.504 -10.037 2.892 -17.944 -22.583 3.784 854.893 -374.906 3239.090 0.488 1.181 1.179 -0.08 -0.54 0.84 0.02
1 2.85 285 -1.274 -10.492 2.940 -22.949 -20.874 7.141 899.864 -179.883 3164.139 0.271 1.606 1.068 -0.07 -0.54 0.84 0.02
1 2.86 286 -0.910 -11.076 3.127 -22.736 -21.088 12.543 749.961 -299.955 3269.070 -0.090 2.177 0.854 -0.07 -0.54 0.84 0.02
1 2.87 287 -0.852 -11.109 3.122 -17.517 -15.289 12.909 824.913 -329.935 3269.070 -0.152 2.199 0.831 -0.07 -0.54 0.84 0.02
1 2.88 288 -0.781 -11.210 3.036 -9.583 -14.465 13.580 824.913 -329.935 3269.070 -0.230 2.292 0.899 -0.07 -0.54 0.84 0.01
1 2.89 289 -0.666 -10.947 2.677 -5.890 -11.078 13.428 734.971 -194.873 3299.051 -0.353 2.025 1.249 -0.07 -0.54 0.84 0.01
1 2.90 290 -0.785 -11.076 2.792 -8.759 -2.380 13.184 734.971 -194.873 3299.051 -0.244 2.153 1.128 -0.07 -0.54 0.84 0.01
1 2.91 291 -0.948 -11.019 2.552 -15.106 3.906 12.909 674.860 -104.932 3494.074 -0.095 2.093 1.357 -0.07 -0.54 0.84 0.01
1 2.92 292 -1.662 -11.718 2.045 -17.151 8.820 3.082 779.942 -149.902 3344.021 0.584 2.776 1.820 -0.07 -0.55 0.83 0.01
1 2.93 293 -1.868 -11.550 1.968 -10.223 6.805 -0.946 869.883 -239.994 3359.012 0.786 2.601 1.876 -0.07 -0.55 0.83 0.01
1 2.94 294 -2.006 -11.124 2.586 8.514 1.740 -3.296 854.893 -224.854 3209.109 0.929 2.173 1.257 -0.07 -0.55 0.83 0.01
1 2.95 295 -1.015 -11.258 4.324 10.956 12.482 -2.930 854.893 -224.854 3209.109 -0.058 2.312 -0.469 -0.07 -0.55 0.83 0.01
1 2.96 296 0.455 -12.029 5.440 -2.472 14.038 24.078 899.864 -254.984 3419.123 -1.538 3.089 -1.575 -0.07 -0.55 0.83 0.01
1 2.97 297 -0.345 -10.166 4.147 -29.968 52.033 42.053 899.864 -254.984 3419.123 -0.789 1.224 -0.300 -0.08 -0.55 0.83 0.01
1 2.98 298 -1.647 -8.739 1.599 1.740 59.540 26.978 809.922 -164.893 3329.031 0.431 -0.214 2.196 -0.08 -0.55 0.83 0.01
1 2.99 299 -2.155 -8.442 0.766 5.035 42.481 12.604 779.942 -74.951 3344.021 0.861 -0.512 2.999 -0.09 -0.55 0.83 0.01
1 3.00 300 -2.255 -8.801 2.648 -32.623 20.783 -14.526 944.984 -239.994 3404.132 0.898 -0.156 1.089 -0.09 -0.55 0.83 0.01
1 3.01 301 -2.265 -8.859 3.807 -55.664 7.843 -23.804 854.893 -149.902 3389.142 0.916 -0.125 -0.130 -0.09 -0.55 0.83 0.01
1 3.02 302 -1.887 -9.290 3.615 -66.742 1.343 -22.888 854.893 -149.902 3389.142 0.564 0.270 -0.018 -0.09 -0.56 0.83 0.01
1 3.03 303 -2.050 -9.745 3.299 -67.658 10.407 -15.869 899.864 -149.902 3419.123 0.753 0.684 0.202 -0.09 -0.56 0.82 0.01
1 3.04 304 -2.562 -9.716 3.424 -50.049 23.773 0.641 899.864 -149.902 3419.123 1.275 0.618 -0.017 -0.09 -0.56 0.82 0.02
1 3.05 305 -2.686 -9.170 4.458 -37.537 14.648 10.773 839.903 -14.990 3479.083 1.384 0.044 -1.132 -0.09 -0.57 0.82 0.02
1 3.06 306 -2.897 -8.811 5.382 -20.538 0.122 13.123 1004.945 0.000 3419.123 1.564 -0.330 -2.111 -0.09 -0.57 0.82 0.02
1 3.07 307 -3.227 -8.442 5.291 13.458 -38.391 14.252 854.893 0.000 3599.005 1.856 -0.702 -2.043 -0.09 -0.57 0.82 0.01
1 3.08 308 -2.978 -7.997 4.712 33.417 -70.282 19.592 824.913 74.951 3344.021 1.597 -1.127 -1.413 -0.09 -0.57 0.82 0.01
1 3.09 309 -1.911 -6.991 5.018 29.236 -76.599 17.304 824.913 74.951 3344.021 0.529 -2.104 -1.641 -0.09 -0.57 0.82 0
1 3.10 310 -0.297 -6.690 4.803 0.641 -52.887 11.505 1019.936 -44.971 3509.064 -1.069 -2.388 -1.372 -0.09 -0.56 0.82 0
1 3.11 311 1.293 -7.097 4.961 -21.362 -35.645 28.198 1019.936 -44.971 3509.064 -2.652 -1.981 -1.527 0.08 0.56 -0.82 0
1 3.12 312 1.470 -8.246 5.382 -58.380 -7.721 62.927 824.913 -29.980 3554.035 -2.860 -0.839 -1.981 0.08 0.57 -0.82 0.01
1 3.13 313 0.867 -9.659 5.469 -70.038 9.857 68.573 854.893 104.932 3419.123 -2.308 0.562 -2.119 0.08 0.57 -0.82 0.01
1 3.14 314 -0.374 -10.693 4.769 -46.539 11.841 55.573 854.893 104.932 3419.123 -1.155 1.578 -1.509 0.09 0.57 -0.82 0.01
1 3.15 315 -1.829 -10.401 4.276 14.587 -10.071 16.663 719.981 0.000 3629.136 0.163 1.275 -1.116 0.09 0.57 -0.81 0.02
1 3.16 316 -1.915 -8.959 4.343 26.917 -23.316 -4.669 719.981 0.000 3629.136 0.243 -0.154 -1.152 0.09 0.57 -0.81 0.02
1 3.17 317 -1.987 -7.762 4.008 15.900 -25.391 -13.214 839.903 44.971 3644.126 0.337 -1.337 -0.765 0.09 0.57 -0.82 0.02
1 3.18 318 -1.829 -7.504 3.424 -4.639 -23.712 -13.245 839.903 44.971 3644.126 0.209 -1.592 -0.156 0.09 0.57 -0.82 0.02
1 3.19 319 -1.585 -8.064 3.395 -23.529 -23.895 -16.480 854.893 74.951 3599.005 -0.003 -1.040 -0.134 0.08 0.57 -0.82 0.02
1 3.20 320 -1.590 -8.859 3.352 -20.813 -25.879 -20.874 629.890 119.922 3479.083 0.037 -0.260 -0.115 0.08 0.57 -0.82 0.02
1 3.21 321 -1.331 -9.156 3.318 -10.407 -29.694 -23.834 629.890 119.922 3479.083 -0.181 0.022 -0.104 0.08 0.57 -0.81 0.02
1 3.22 322 -0.958 -8.816 3.127 0.275 -33.814 -26.917 779.942 74.951 3629.136 -0.452 -0.337 0.080 0.07 0.58 -0.81 0.02
1 3.23 323 -0.570 -8.730 3.050 -2.655 -33.722 -26.398 779.942 74.951 3629.136 -0.782 -0.429 0.166 0.07 0.58 -0.81 0.02
1 3.24 324 -0.340 -8.749 2.864 -8.514 -33.905 -26.947 674.860 -29.980 3674.106 -0.951 -0.417 0.354 0.07 0.58 -0.81 0.02
1 3.25 325 -0.005 -8.912 2.883 -10.651 -33.112 -28.320 674.860 -29.980 3674.106 -1.223 -0.266 0.328 0.06 0.58 -0.81 0.02
1 3.26 326 0.498 -9.146 2.792 -3.815 -27.557 -29.602 914.854 164.893 3644.126 -1.658 -0.043 0.410 0.06 0.58 -0.81 0.02
1 3.27 327 0.603 -9.280 2.749 3.601 -21.545 -26.825 494.978 0.000 3674.106 -1.695 0.081 0.448 0.06 0.58 -0.81 0.02
1 3.28 328 0.263 -8.897 2.672 10.712 -17.151 -23.773 494.978 0.000 3674.106 -1.291 -0.308 0.529 0.05 0.58 -0.81 0.01
1 3.29 329 0.316 -8.035 2.586 14.252 -14.252 -21.149 569.929 -74.951 3674.106 -1.288 -1.171 0.630 0.05 0.58 -0.81 0.01
1 3.30 330 0.445 -7.547 2.562 16.937 -13.123 -22.064 554.938 119.922 3794.028 -1.334 -1.652 0.699 0.05 0.58 -0.82 0.01
1 3.31 331 0.555 -7.236 2.356 11.414 -11.292 -21.881 494.978 104.932 3629.136 -1.404 -1.958 0.930 0.05 0.57 -0.82 0.01
1 3.32 332 1.015 -7.504 2.279 -1.709 -5.188 -18.921 494.978 104.932 3629.136 -1.827 -1.689 1.019 0.05 0.57 -0.82 0.01
1 3.33 333 1.030 -7.796 2.284 -13.001 1.862 -16.235 419.876 149.902 3524.054 -1.812 -1.402 1.008 0.04 0.57 -0.82 0.01
1 3.34 334 1.058 -7.729 2.327 -4.486 12.299 -11.993 509.968 -14.990 3644.126 -1.818 -1.478 0.944 0.04 0.58 -0.82 0.01
1 3.35 335 1.030 -7.269 2.107 8.698 20.233 -9.857 509.968 -14.990 3644.126 -1.774 -1.943 1.153 0.04 0.58 -0.82 0
1 3.36 336 1.025 -6.522 2.026 4.639 30.335 -10.803 479.987 -14.990 3764.048 -1.758 -2.684 1.253 0.05 0.58 -0.82 0
1 3.37 337 0.776 -6.647 1.882 -14.740 35.889 -11.078 479.987 -14.990 3764.048 -1.507 -2.561 1.394 -0.05 -0.58 0.82 0
1 3.38 338 0.709 -7.288 1.724 -38.941 40.131 -9.216 479.987 119.922 3614.146 -1.441 -1.931 1.518 -0.05 -0.58 0.82 0
1 3.39 339 0.555 -8.279 1.781 -57.678 40.924 -6.714 479.987 119.922 3614.146 -1.294 -0.963 1.393 -0.05 -0.58 0.81 0.01
1 3.40 340 0.397 -10.315 2.184 -58.716 41.901 -3.693 389.896 -29.980 3704.087 -1.140 1.042 0.898 -0.05 -0.58 0.81 0.01
1 3.41 341 -0.086 -11.392 2.322 -40.039 42.816 -5.219 389.896 29.980 3629.136 -0.659 2.087 0.662 -0.05 -0.59 0.81 0.01
1 3.42 342 -0.603 -11.943 2.251 -13.397 39.765 -10.376 389.896 29.980 3629.136 -0.153 2.617 0.663 -0.06 -0.59 0.81 0.01
1 3.43 343 -0.996 -11.675 1.978 10.132 32.105 -16.480 569.929 329.935 3809.019 0.236 2.338 0.902 -0.06 -0.59 0.8 0.01
1 3.44 344 -1.432 -10.880 2.121 21.179 19.867 -20.111 359.916 179.883 3734.067 0.699 1.550 0.787 -0.06 -0.59 0.8 0.02
1 3.45 345 -1.494 -10.640 2.265 10.132 12.512 -20.660 584.919 239.994 3869.129 0.785 1.316 0.668 -0.06 -0.59 0.81 0.02
1 3.46 346 -1.504 -10.698 2.270 -5.920 9.827 -20.844 584.919 239.994 3869.129 0.821 1.374 0.671 -0.06 -0.59 0.81 0.02
1 3.47 347 -1.777 -11.507 2.059 -19.806 8.667 -21.027 689.851 119.922 3899.110 1.122 2.177 0.866 -0.06 -0.59 0.81 0.02
1 3.48 348 -1.566 -11.512 1.968 -20.660 -0.305 -16.724 464.847 254.984 3779.038 0.940 2.169 0.925 -0.06 -0.59 0.8 0.03
1 3.49 349 -0.977 -11.291 1.571 -7.904 -7.019 -15.625 464.847 254.984 3779.038 0.378 1.937 1.290 -0.06 -0.59 0.8 0.03
1 3.50 350 -0.220 -10.889 1.508 -2.075 -11.810 -15.381 539.948 179.883 3959.071 -0.351 1.529 1.336 -0.06 -0.59 0.8 0.03
1 3.51 351 0.833 -10.482 2.011 -5.615 -11.475 -14.282 464.847 104.932 3734.067 -1.339 1.113 0.817 -0.05 -0.59 0.8 0.03
1 3.52 352 0.407 -11.512 4.779 -2.380 2.716 -13.214 494.978 104.932 3809.019 -0.882 2.137 -1.962 -0.05 -0.59 0.8 0.03
1 3.53 353 -2.911 -14.356 4.161 -22.553 28.381 -26.489 494.978 104.932 3809.019 2.456 4.979 -1.349 -0.05 -0.59 0.8 0.03
1 3.54 354 -5.014 -15.429 3.486 -59.204 -6.409 -62.287 494.978 104.932 3809.019 4.600 6.033 -0.730 -0.05 -0.6 0.8 0.03
1 3.55 355 -1.384 -10.353 1.240 84.259 -121.827 -67.688 419.876 149.902 3809.019 1.082 0.938 1.462 -0.05 -0.6 0.8 0.04
1 3.56 356 1.935 -8.208 2.006 75.043 -108.643 -65.521 419.876 149.902 3809.019 -2.094 -1.185 0.786 -0.04 -0.6 0.8 0.03
1 3.57 357 3.405 -8.457 2.945 16.846 -58.319 -41.321 509.968 269.974 3929.090 -3.414 -0.901 -0.034 -0.03 -0.59 0.8 0.03
1 3.58 358 1.949 -10.310 3.630 -59.174 4.395 0.702 359.916 104.932 3914.100 -1.773 0.958 -0.705 -0.01 -0.59 0.8 0.04
1 3.59 359 0.781 -11.095 3.749 -57.129 1.740 -4.303 209.863 149.902 3839.149 -0.607 1.716 -0.914 -0.02 -0.6 0.8 0.04
1 3.60 360 1.173 -11.215 4.444 -20.996 -16.052 -14.038 209.863 149.902 3839.149 -0.986 1.815 -1.678 -0.01 -0.6 0.8 0.04
1 3.61 361 1.944 -10.808 4.535 3.906 -20.874 -16.174 224.854 119.922 3824.009 -1.725 1.403 -1.788 -0.01 -0.6 0.8 0.04
1 3.62 362 2.993 -9.845 4.841 8.453 -6.134 -12.970 89.941 164.893 3764.048 -2.740 0.444 -2.087 -0.01 -0.6 0.8 0.04
1 3.63 363 3.654 -9.247 5.301 16.113 12.756 -12.451 89.941 164.893 3764.048 -3.375 -0.151 -2.535 -0.01 -0.6 0.8 0.04
1 3.64 364 3.323 -8.629 5.497 22.888 33.753 -16.144 224.854 239.994 3824.009 -3.028 -0.762 -2.711 -0.01 -0.6 0.8 0.04
1 3.65 365 2.409 -8.318 5.440 23.621 47.363 -24.536 269.974 164.893 4004.042 -2.102 -1.063 -2.621 -0.01 -0.6 0.8 0.04
1 3.66 366 0.613 -7.614 4.865 27.313 49.317 -35.950 29.980 254.984 3884.120 -0.243 -1.729 -1.930 -0.01 -0.59 0.8 0.05
1 3.67 367 -0.785 -6.915 4.568 21.942 47.730 -39.856 29.980 254.984 3884.120 1.189 -2.411 -1.583 -0.01 -0.59 0.81 0.05
1 3.68 368 -1.724 -6.517 4.094 5.371 41.199 -41.840 134.912 74.951 3884.120 2.166 -2.797 -1.079 -0.01 -0.59 0.81 0.06
1 3.69 369 -1.973 -6.987 4.018 -17.944 24.750 -43.030 134.912 149.902 3734.067 2.459 -2.325 -1.000 -0.01 -0.59 0.81 0.06
1 3.70 370 -1.293 -8.327 3.955 -44.159 1.099 -45.441 134.912 149.902 3734.067 1.835 -0.991 -0.969 -0.01 -0.59 0.81 0.06
1 3.71 371 -0.594 -9.711 4.046 -42.206 -1.495 -37.293 269.974 44.971 3869.129 1.194 0.380 -1.113 -0.01 -0.59 0.8 0.07
1 3.72 372 0.263 -10.765 3.936 -10.895 7.507 -15.869 119.922 89.941 3869.129 0.425 1.410 -1.097 -0.01 -0.6 0.8 0.07
1 3.73 373 0.713 -10.315 3.769 0.977 9.918 -9.003 44.971 44.971 3824.009 -0.009 0.959 -0.936 -0.01 -0.6 0.8 0.07
1 3.74 374 0.972 -9.333 3.424 18.768 13.489 2.289 44.971 44.971 3824.009 -0.268 -0.015 -0.568 -0.01 -0.6 0.8 0.07
1 3.75 375 1.068 -8.457 3.251 19.501 15.289 5.005 149.902 119.922 3974.061 -0.369 -0.881 -0.361 -0.01 -0.59 0.8 0.07
1 3.76 376 0.790 -8.040 3.046 13.977 20.813 8.728 194.873 164.893 3929.090 -0.103 -1.289 -0.124 -0.01 -0.59 0.8 0.07
1 3.77 377 0.493 -8.064 2.931 7.294 30.670 22.339 194.873 164.893 3929.090 0.170 -1.261 0.011 -0.01 -0.59 0.8 0.07
1 3.78 378 0.057 -8.112 2.758 8.789 31.952 28.198 104.932 179.883 3884.120 0.566 -1.211 0.198 -0.01 -0.59 0.8 0.07
1 3.79 379 -0.244 -8.035 2.725 11.505 29.053 30.365 104.932 254.984 3959.071 0.816 -1.286 0.246 -0.01 -0.59 0.8 0.07
1 3.80 380 0.024 -8.270 2.648 10.651 22.400 32.623 359.916 224.854 3884.120 0.439 -1.045 0.360 -0.02 -0.59 0.81 0.07
1 3.81 381 0.407 -8.399 2.662 9.155 23.346 35.339 359.916 224.854 3884.120 0.000 -0.914 0.362 -0.02 -0.59 0.81 0.07
1 3.82 382 0.431 -8.442 2.457 10.498 25.940 38.574 179.883 224.854 3914.100 -0.085 -0.868 0.583 -0.02 -0.59 0.81 0.06
1 3.83 383 0.350 -8.337 2.370 13.306 29.419 40.070 239.994 29.980 4064.002 -0.070 -0.970 0.686 -0.03 -0.59 0.81 0.06
1 3.84 384 -0.402 -8.165 2.490 12.817 31.250 36.163 239.994 29.980 4064.002 0.613 -1.137 0.588 -0.03 -0.58 0.81 0.06
1 3.85 385 -1.116 -8.265 2.480 6.561 29.327 34.882 209.863 179.883 3779.038 1.262 -1.031 0.618 -0.03 -0.58 0.81 0.06
1 3.86 386 -1.518 -8.481 2.500 1.099 23.193 32.379 314.945 29.980 3809.019 1.602 -0.812 0.611 -0.04 -0.58 0.81 0.06
1 3.87 387 -1.987 -9.141 2.346 4.028 10.559 27.802 374.906 89.941 3974.061 1.938 -0.151 0.766 -0.04 -0.58 0.81 0.05
1 3.88 388 -1.753 -9.132 2.217 9.918 2.777 24.933 374.906 89.941 3974.061 1.648 -0.159 0.899 -0.04 -0.58 0.81 0.05
1 3.89 389 -1.350 -8.744 2.299 16.083 -2.167 22.064 479.987 -89.941 3824.009 1.201 -0.542 0.830 -0.05 -0.58 0.81 0.05
1 3.90 390 -1.207 -8.533 2.246 15.503 -4.211 20.355 449.857 -14.990 3824.009 1.021 -0.745 0.904 -0.05 -0.58 0.81 0.05
1 3.91 391 -1.288 -8.097 2.394 7.996 -4.150 17.914 449.857 -14.990 3824.009 1.070 -1.174 0.772 -0.05 -0.58 0.81 0.05
1 3.92 392 -1.532 -7.882 2.303 5.951 -5.798 14.008 389.896 104.932 4019.032 1.293 -1.386 0.872 -0.05 -0.58 0.81 0.05
1 3.93 393 -1.532 -7.753 2.222 7.050 -12.878 9.766 584.919 14.990 3869.129 1.277 -1.512 0.961 -0.05 -0.58 0.81 0.04
1 3.94 394 -1.374 -7.523 2.121 5.981 -17.181 6.226 584.919 14.990 3869.129 1.111 -1.738 1.072 -0.05 -0.58 0.81 0.04
1 3.95 395 -0.986 -7.446 1.556 -0.061 -21.240 1.678 404.886 44.971 3794.028 0.729 -1.810 1.653 -0.04 -0.58 0.81 0.04
1 3.96 396 -0.723 -7.901 1.595 -10.193 -23.560 0.122 494.978 -104.932 4019.032 0.477 -1.356 1.612 -0.04 -0.58 0.81 0.04
1 3.97 397 -0.417 -8.394 1.777 -20.630 -19.684 1.129 404.886 44.971 3869.129 0.183 -0.869 1.413 -0.04 -0.58 0.81 0.04
1 3.98 398 -0.455 -9.405 2.011 -25.971 -14.374 1.404 404.886 44.971 3869.129 0.231 0.130 1.147 -0.04 -0.58 0.81 0.04
1 3.99 399 -0.555 -10.003 2.093 -26.093 -6.256 4.395 374.906 14.990 3899.110 0.335 0.714 1.022 -0.04 -0.58 0.81 0.04
1 4.00 400 -0.709 -10.611 2.284 -21.118 -3.113 6.012 404.886 -14.990 3824.009 0.485 1.307 0.785 -0.04 -0.58 0.81 0.03
1 4.01 401 -1.130 -11.014 2.318 -16.937 -0.885 2.167 404.886 -14.990 3824.009 0.901 1.698 0.717 -0.04 -0.59 0.81 0.03
1 4.02 402 -1.336 -12.196 2.255 18.799 -13.702 0.854 329.935 89.941 3899.110 1.114 2.872 0.751 -0.04 -0.59 0.81 0.03
1 4.03 403 -0.761 -11.325 2.610 25.574 -20.752 11.292 449.857 44.971 4004.042 0.544 2.011 0.429 -0.04 -0.59 0.81 0.03
1 4.04 404 -0.278 -10.722 2.428 15.869 -20.416 16.449 329.935 -14.990 4049.012 0.054 1.418 0.645 -0.04 -0.58 0.81 0.03
1 4.05 405 -0.134 -10.832 1.848 9.247 -11.017 14.435 329.935 -14.990 4049.012 -0.101 1.535 1.244 -0.04 -0.58 0.81 0.03
1 4.06 406 -0.110 -10.142 1.212 16.419 -0.061 17.578 239.994 149.902 3914.100 -0.141 0.849 1.888 -0.04 -0.58 0.81 0.03
1 4.07 407 0.029 -9.845 2.442 17.426 11.932 13.184 389.896 149.902 3809.019 -0.301 0.555 0.665 -0.04 -0.58 0.81 0.03
1 4.08 408 1.480 -10.832 4.975 2.655 25.177 21.881 389.896 149.902 3809.019 -1.772 1.547 -1.852 -0.04 -0.58 0.81 0.03
1 4.09 409 5.296 -15.999 7.403 -135.254 18.219 112.854 389.896 -29.980 3914.100 -5.704 6.693 -4.356 -0.04 -0.59 0.81 0.02
1 4.10 410 2.418 -10.674 3.223 -84.656 97.046 99.701 329.935 89.941 3899.110 -3.011 1.317 -0.371 -0.05 -0.59 0.8 0.02
1 4.11 411 -0.268 -10.090 0.666 13.153 89.356 46.631 569.929 74.951 3989.051 -0.479 0.715 2.090 -0.06 -0.6 0.8 0.01
1 4.12 412 -2.571 -9.362 2.083 24.719 72.235 39.703 569.929 74.951 3989.051 1.727 -0.003 0.678 -0.07 -0.6 0.8 0.02
1 4.13 413 -3.951 -8.816 3.884 -12.634 48.737 27.374 659.870 14.990 3929.090 3.009 -0.536 -1.109 -0.07 -0.59 0.8 0.02
1 4.14 414 -3.678 -10.022 4.808 -69.397 29.053 1.068 539.948 224.854 3914.100 2.666 0.668 -2.068 -0.08 -0.6 0.8 0.02
1 4.15 415 -3.960 -10.271 4.444 -41.535 23.651 -0.793 539.948 224.854 3914.100 2.933 0.890 -1.802 -0.08 -0.6 0.8 0.02
1 4.16 416 -4.037 -9.433 3.802 32.318 -15.564 3.082 719.981 104.932 4094.133 3.002 0.031 -1.239 -0.08 -0.6 0.79 0.02
1 4.17 417 -2.926 -8.586 5.536 32.929 -29.480 10.407 719.981 104.932 3959.071 1.894 -0.802 -2.919 -0.08 -0.6 0.8 0.02
1 4.18 418 -1.666 -7.772 6.603 6.561 -27.252 22.125 719.981 224.854 4124.113 0.618 -1.595 -3.919 -0.08 -0.6 0.8 0.01
1 4.19 419 -0.857 -7.872 6.091 -19.501 -28.595 39.826 719.981 224.854 4124.113 -0.218 -1.481 -3.370 -0.08 -0.6 0.8 0.01
1 4.20 420 -0.910 -9.242 4.750 -44.190 -27.222 54.474 659.870 119.922 4004.042 -0.214 -0.108 -2.037 -0.08 -0.6 0.8 0.01
1 4.21 421 -1.082 -9.946 4.085 -36.041 -22.247 60.639 719.981 149.902 4124.113 -0.107 0.591 -1.417 -0.08 -0.6 0.8 0
1 4.22 422 -0.876 -10.133 4.032 -4.517 -25.055 58.563 719.981 149.902 4124.113 -0.386 0.774 -1.413 0.08 0.6 -0.8 0
1 4.23 423 -0.287 -9.821 4.535 6.317 -27.954 57.587 779.942 104.932 4064.002 -1.048 0.469 -1.929 0.08 0.6 -0.8 0.01
1 4.24 424 0.211 -9.175 4.377 -15.625 -21.912 51.239 629.890 14.990 4109.123 -1.674 -0.150 -1.743 0.08 0.6 -0.8 0.02
1 4.25 425 -0.029 -9.362 3.907 -27.771 -11.017 43.976 749.961 149.902 4124.113 -1.483 0.041 -1.283 0.08 0.6 -0.8 0.02
1 4.26 426 -0.862 -10.118 3.520 -26.459 1.160 33.356 749.961 149.902 4124.113 -0.694 0.797 -0.924 0.08 0.6 -0.79 0.02
1 4.27 427 -1.614 -10.013 3.041 -9.857 2.655 19.653 764.952 239.994 4184.074 0.016 0.690 -0.479 0.08 0.6 -0.79 0.02
1 4.28 428 -1.872 -9.103 2.485 14.252 -10.437 -5.646 644.880 29.980 4124.113 0.253 -0.218 0.071 0.09 0.6 -0.79 0.02
1 4.29 429 -1.585 -8.634 2.519 16.357 -19.623 -16.510 644.880 29.980 4124.113 -0.030 -0.683 0.056 0.09 0.6 -0.79 0.02
1 4.30 430 -1.255 -8.433 2.758 11.871 -21.301 -18.799 689.851 314.945 4184.074 -0.333 -0.881 -0.154 0.08 0.6 -0.8 0.02
1 4.31 431 -0.958 -8.524 2.792 5.341 -19.104 -18.097 689.851 164.893 4154.094 -0.553 -0.789 -0.141 0.08 0.6 -0.8 0.02
1 4.32 432 -0.699 -8.873 2.548 3.601 -18.982 -18.402 734.971 269.974 4154.094 -0.773 -0.442 0.117 0.08 0.6 -0.8 0.02
1 4.33 433 -0.656 -9.141 2.418 5.829 -20.477 -23.071 734.971 269.974 4154.094 -0.773 -0.177 0.257 0.08 0.6 -0.8 0.02
1 4.34 434 -0.527 -9.098 2.140 12.787 -22.003 -30.975 629.890 239.994 4214.055 -0.851 -0.224 0.549 0.07 0.6 -0.8 0.02
1 4.35 435 -0.053 -8.672 2.145 28.778 -25.055 -38.483 539.948 149.902 4019.032 -1.262 -0.652 0.569 0.07 0.6 -0.8 0.02
1 4.36 436 0.101 -8.409 2.231 31.311 -23.438 -37.598 539.948 149.902 4019.032 -1.341 -0.914 0.523 0.07 0.6 -0.8 0.02
1 4.37 437 0.263 -8.179 2.389 24.567 -19.226 -33.875 659.870 89.941 4004.042 -1.432 -1.139 0.414 0.06 0.59 -0.8 0.02
1 4.38 438 0.397 -8.217 2.217 18.799 -13.855 -27.557 569.929 74.951 3914.100 -1.451 -1.092 0.659 0.06 0.59 -0.8 0.01
1 4.39 439 0.220 -8.021 1.992 21.607 -10.101 -21.637 569.929 149.902 4019.032 -1.229 -1.284 0.913 0.06 0.59 -0.81 0.01
1 4.40 440 0.306 -7.772 2.093 22.644 -6.683 -17.609 569.929 149.902 4019.032 -1.279 -1.526 0.846 0.05 0.59 -0.81 0.01
1 4.41 441 0.417 -7.552 2.131 16.846 -2.930 -15.503 479.987 119.922 4214.055 -1.360 -1.740 0.839 0.05 0.59 -0.81 0.01
1 4.42 442 0.584 -7.757 2.251 7.477 -0.916 -14.893 359.916 104.932 3989.051 -1.503 -1.529 0.741 0.05 0.59 -0.81 0.01
1 4.43 443 0.637 -7.935 2.093 -2.136 2.258 -14.526 359.916 104.932 3989.051 -1.533 -1.352 0.906 0.05 0.59 -0.81 0.01
1 4.44 444 0.670 -7.954 1.863 0.519 7.751 -10.956 449.857 119.922 4154.094 -1.544 -1.336 1.134 0.05 0.59 -0.81 0.01
1 4.45 445 0.838 -7.896 1.676 5.310 16.327 -5.188 449.857 119.922 4154.094 -1.696 -1.396 1.318 0.05 0.59 -0.81 0
1 4.46 446 0.488 -7.552 1.700 3.082 30.548 1.709 599.909 254.984 4094.133 -1.347 -1.737 1.304 0.05 0.59 -0.81 0
1 4.47 447 0.129 -7.690 1.619 -6.683 35.797 4.059 599.909 254.984 4094.133 -1.004 -1.597 1.383 0.06 0.59 -0.81 0
1 4.48 448 -0.302 -8.160 1.532 -17.242 36.102 5.951 464.847 29.980 4019.032 -0.595 -1.132 1.451 -0.06 -0.59 0.81 0
1 4.49 449 -0.704 -9.299 1.475 -25.665 33.478 5.096 464.847 254.984 3959.071 -0.215 -0.001 1.475 -0.06 -0.59 0.81 0
1 4.50 450 -0.867 -10.190 1.772 -26.032 25.910 1.892 464.847 254.984 3959.071 -0.071 0.876 1.127 -0.06 -0.59 0.8 0
1 4.51 451 -1.082 -10.908 2.050 -15.869 19.348 -2.930 584.919 44.971 3974.061 0.131 1.580 0.798 -0.06 -0.59 0.8 0
1 4.52 452 -0.982 -11.210 2.270 2.960 13.428 -7.935 584.919 44.971 3974.061 0.026 1.872 0.547 -0.06 -0.59 0.8 0.01
1 4.53 453 -1.154 -10.932 2.452 28.198 6.226 -12.085 449.857 239.994 4184.074 0.217 1.598 0.383 -0.07 -0.59 0.8 0.01
1 4.54 454 -1.183 -10.564 2.600 32.013 2.777 -14.191 449.857 239.994 4184.074 0.263 1.241 0.277 -0.06 -0.59 0.8 0.01
1 4.55 455 -1.216 -10.161 2.643 27.466 -1.343 -16.571 584.919 269.974 4049.012 0.317 0.850 0.276 -0.06 -0.59 0.81 0.01
1 4.56 456 -1.212 -10.022 2.423 17.914 -5.829 -20.538 359.916 149.902 4124.113 0.338 0.719 0.530 -0.06 -0.59 0.81 0.01
1 4.57 457 -1.370 -10.209 2.212 4.364 -12.329 -25.269 359.916 149.902 4124.113 0.529 0.908 0.758 -0.06 -0.59 0.81 0.01
1 4.58 458 -1.293 -10.487 1.561 -12.177 -25.787 -32.623 629.890 164.893 4109.123 0.494 1.181 1.406 -0.06 -0.59 0.81 0.01
1 4.59 459 -0.642 -10.679 1.192 -14.557 -32.806 -34.515 629.890 164.893 4109.123 -0.104 1.362 1.753 -0.06 -0.59 0.81 0.01
1 4.60 460 0.589 -10.875 0.733 -14.740 -29.907 -28.015 584.919 119.922 4049.012 -1.202 1.528 2.148 -0.05 -0.59 0.8 0.01
1 4.61 461 1.197 -10.736 1.231 -17.212 -20.386 -19.836 584.919 119.922 4049.012 -1.759 1.380 1.631 -0.05 -0.59 0.8 0.01
1 4.62 462 1.312 -11.282 3.778 -11.627 -0.793 -9.705 464.847 149.902 4019.032 -1.840 1.917 -0.940 -0.04 -0.59 0.8 0.02
1 4.63 463 -1.092 -13.585 4.386 -2.960 22.553 -9.308 359.916 254.984 4064.002 0.575 4.216 -1.559 -0.04 -0.59 0.8 0.02
1 4.64 464 -3.567 -14.438 4.228 -69.367 -19.318 -58.380 359.916 254.984 4064.002 3.063 5.060 -1.426 -0.05 -0.6 0.8 0.02
1 4.65 465 -2.246 -12.072 1.863 34.851 -105.255 -64.179 374.906 89.941 4004.042 1.814 2.662 0.841 -0.04 -0.6 0.8 0.02
1 4.66 466 1.030 -9.319 1.417 74.616 -110.474 -61.402 374.906 89.941 4004.042 -1.329 -0.093 1.299 -0.03 -0.6 0.8 0.02
1 4.67 467 4.305 -8.045 2.495 32.257 -75.104 -53.070 314.945 374.906 4094.133 -4.463 -1.341 0.320 -0.02 -0.6 0.8 0.02
1 4.68 468 4.506 -8.715 4.300 -29.053 3.632 -2.472 239.994 149.902 4274.016 -4.418 -0.650 -1.415 -0.01 -0.59 0.8 0.02
1 4.69 469 1.959 -9.347 4.511 -51.331 32.654 8.942 179.883 29.980 4124.113 -1.862 -0.032 -1.671 -0.01 -0.6 0.8 0.02
1 4.70 470 0.019 -9.845 4.099 -39.856 19.562 -4.486 104.932 104.932 4094.133 0.066 0.448 -1.321 -0.01 -0.6 0.8 0.02
1 4.71 471 0.091 -9.510 4.621 1.770 -6.409 -20.386 104.932 104.932 4094.133 0.002 0.103 -1.875 -0.01 -0.6 0.8 0.02
1 4.72 472 0.872 -8.835 5.205 28.931 -15.717 -35.645 179.883 254.984 4064.002 -0.740 -0.563 -2.431 -0.01 -0.6 0.8 0.03
1 4.73 473 1.824 -8.246 5.832 21.332 -5.249 -38.818 179.883 254.984 4064.002 -1.633 -1.134 -3.001 -0.01 -0.6 0.8 0.03
1 4.74 474 2.299 -7.523 5.751 16.419 8.789 -36.499 179.883 179.883 4169.084 -2.036 -1.838 -2.864 -0.01 -0.59 0.8 0.03
1 4.75 475 1.006 -7.240 4.980 1.007 27.313 -39.063 149.902 344.925 4049.012 -0.618 -2.089 -2.004 -0 -0.59 0.81 0.04
1 4.76 476 -0.148 -7.580 4.741 -14.404 26.642 -41.351 119.922 119.922 4154.094 0.584 -1.742 -1.749 -0 -0.59 0.81 0.04
1 4.77 477 -1.001 -8.016 4.473 -21.332 17.456 -43.518 104.932 149.902 4064.002 1.480 -1.306 -1.487 -0 -0.59 0.81 0.04
1 4.78 478 -1.221 -9.137 4.070 -22.949 7.355 -43.121 104.932 149.902 4064.002 1.746 -0.188 -1.100 -0 -0.59 0.81 0.05
1 4.79 479 -0.737 -9.687 3.979 -23.224 -1.556 -34.241 -14.990 119.922 4259.025 1.307 0.358 -1.032 0 -0.59 0.8 0.05
1 4.80 480 -0.158 -10.176 3.960 -14.252 -2.716 -26.276 -14.990 119.922 4259.025 0.770 0.841 -1.039 0 -0.59 0.8 0.05
1 4.81 481 0.546 -10.473 3.907 -9.186 -2.197 -14.832 134.912 299.955 4124.113 0.106 1.135 -1.007 0 -0.59 0.8 0.05
1 4.82 482 1.302 -10.109 3.587 -0.641 -1.038 -3.357 59.961 254.984 4244.035 -0.608 0.767 -0.709 0 -0.59 0.8 0.05
1 4.83 483 1.121 -9.654 3.113 3.937 2.777 -0.549 59.961 254.984 4094.133 -0.418 0.313 -0.232 0.01 -0.59 0.8 0.05
1 4.84 484 0.814 -9.347 2.935 6.378 3.510 3.113 59.961 374.906 4124.113 -0.111 0.010 -0.045 0.01 -0.59 0.8 0.05
1 4.85 485 0.455 -9.165 2.777 7.477 4.639 8.484 59.961 374.906 4124.113 0.242 -0.169 0.125 0.01 -0.59 0.8 0.05
1 4.86 486 -0.158 -8.969 2.562 13.855 5.859 16.968 134.912 179.883 3989.051 0.838 -0.363 0.353 0 -0.59 0.8 0.05
1 4.87 487 -0.168 -8.787 2.696 19.043 4.822 25.238 134.912 179.883 3989.051 0.820 -0.541 0.237 0 -0.59 0.8 0.05
1 4.88 488 -0.072 -8.615 2.706 20.935 3.754 34.668 29.980 299.955 4019.032 0.684 -0.708 0.254 0 -0.59 0.81 0.05
1 4.89 489 0.594 -8.294 2.658 16.998 4.913 47.760 0.000 149.902 4199.064 -0.093 -1.016 0.360 -0 -0.59 0.81 0.04
1 4.90 490 0.723 -7.987 2.615 16.968 8.209 53.681 134.912 254.984 4064.002 -0.294 -1.319 0.428 -0 -0.59 0.81 0.04
1 4.91 491 0.876 -7.700 2.366 17.426 12.054 54.627 179.883 254.984 4379.097 -0.527 -1.601 0.702 -0.01 -0.59 0.81 0.04
1 4.92 492 0.541 -7.580 2.485 13.702 16.327 54.199 179.883 254.984 4379.097 -0.273 -1.715 0.607 -0.01 -0.58 0.81 0.04
1 4.93 493 -0.211 -7.724 2.279 4.181 18.707 51.697 179.883 224.854 4124.113 0.396 -1.568 0.830 -0.01 -0.58 0.81 0.03
1 4.94 494 -1.106 -8.035 2.164 -6.866 14.984 43.213 179.883 224.854 4124.113 1.213 -1.257 0.949 -0.02 -0.58 0.81 0.03
1 4.95 495 -1.925 -8.715 2.318 -9.247 9.613 37.903 149.902 269.974 4184.074 1.963 -0.580 0.788 -0.02 -0.58 0.81 0.03
1 4.96 496 -2.624 -9.429 2.231 -2.716 -6.134 29.968 194.873 194.873 4214.055 2.525 0.125 0.844 -0.02 -0.59 0.81 0.02
1 4.97 497 -2.500 -9.529 2.040 1.099 -12.238 28.290 299.955 239.994 3974.061 2.345 0.224 1.030 -0.03 -0.59 0.81 0.02
1 4.98 498 -2.131 -8.940 1.777 12.451 -28.259 25.177 269.974 239.994 4079.143 1.933 -0.363 1.299 -0.03 -0.59 0.81 0.02
1 4.99 499 -1.336 -8.528 1.700 12.878 -31.342 24.323 269.974 239.994 4079.143 1.105 -0.769 1.388 -0.03 -0.58 0.81 0.02
1 5.00 500 -0.637 -8.107 1.781 -1.038 -27.924 22.614 284.964 254.984 4064.002 0.384 -1.186 1.321 -0.02 -0.58 0.81 0.01
1 5.01 501 -0.278 -8.188 1.700 -9.583 -23.590 19.928 284.964 254.984 4064.002 0.008 -1.103 1.405 -0.02 -0.58 0.81 0.01
1 5.02 502 -0.469 -8.236 1.614 -9.857 -21.423 13.550 374.906 314.945 4109.123 0.183 -1.058 1.481 -0.02 -0.58 0.81 0.01
1 5.03 503 -0.709 -8.222 1.461 -3.754 -23.590 6.989 299.955 164.893 4154.094 0.413 -1.076 1.621 -0.02 -0.59 0.81 0.01
1 5.04 504 -0.599 -8.208 1.437 0.122 -31.494 -1.617 314.945 224.854 4199.064 0.316 -1.093 1.639 -0.02 -0.59 0.81 0
1 5.05 505 -0.445 -8.346 1.633 -5.035 -34.027 -4.303 224.854 164.893 4154.094 0.184 -0.955 1.442 -0.02 -0.59 0.81 0
1 5.06 506 -0.364 -8.787 1.844 -10.254 -30.304 -4.883 224.854 164.893 4154.094 0.126 -0.519 1.220 -0.02 -0.59 0.81 0
1 5.07 507 -0.326 -9.079 2.021 -9.125 -25.787 -5.585 89.941 344.925 4049.012 0.108 -0.234 1.023 -0.01 -0.59 0.81 0
1 5.08 508 -0.144 -9.496 2.193 -7.294 -19.287 -2.136 89.941 344.925 4049.012 -0.054 0.177 0.834 0.01 0.59 -0.81 0
1 5.09 509 0.067 -9.773 2.241 -6.989 -15.198 0.763 269.974 314.945 4184.074 -0.249 0.450 0.772 0.01 0.59 -0.81 0
1 5.10 510 0.220 -10.257 2.322 -10.407 -10.071 6.531 239.994 329.935 4169.084 -0.392 0.929 0.675 0.01 0.59 -0.81 0
1 5.11 511 -0.043 -11.330 2.121 -14.465 2.899 8.362 314.945 149.902 3959.071 -0.137 1.989 0.837 0.01 0.59 -0.81 0
1 5.12 512 -0.613 -12.685 1.417 13.336 -0.366 6.683 89.941 119.922 4109.123 0.425 3.340 1.528 0.01 0.59 -0.81 0
1 5.13 513 0.053 -11.718 1.959 29.175 -4.120 17.120 89.941 119.922 4109.123 -0.252 2.382 1.015 0.01 0.59 -0.81 0
1 5.14 514 0.306 -10.511 1.968 22.247 -2.930 19.501 314.945 254.984 4064.002 -0.529 1.189 1.046 0.01 0.59 -0.81 0
1 5.15 515 -0.364 -10.099 1.020 9.064 1.648 20.416 314.945 254.984 4064.002 0.118 0.783 2.011 0.01 0.59 -0.81 0
1 5.16 516 -1.020 -10.118 0.493 8.514 6.165 17.212 134.912 374.906 3989.051 0.745 0.802 2.534 0.01 0.59 -0.81 0.01
1 5.17 517 -1.283 -10.243 0.560 14.069 8.392 9.308 209.863 149.902 3989.051 0.977 0.925 2.460 0.02 0.59 -0.81 0.01
1 5.18 518 -0.326 -11.531 4.971 27.374 8.240 4.181 149.902 194.873 4154.094 -0.014 2.221 -1.928 0.02 0.59 -0.81 0.01
1 5.19 519 3.644 -15.328 4.065 -40.344 -44.037 51.819 224.854 194.873 4004.042 -3.996 6.027 -0.998 0.02 0.59 -0.81 0.01
1 5.20 520 5.765 -15.060 7.106 -102.112 31.220 117.707 224.854 194.873 4004.042 -6.205 5.733 -4.130 0.02 0.59 -0.81 0.01
1 5.21 521 1.551 -10.190 0.431 -8.606 74.921 76.508 239.994 329.935 3959.071 -2.169 0.835 2.421 0.03 0.59 -0.8 0.02
1 5.22 522 -2.117 -8.993 1.547 47.302 58.838 55.878 239.994 329.935 3959.071 1.382 -0.357 1.295 0.03 0.59 -0.8 0.02
1 5.23 523 -3.845 -8.260 3.778 8.759 38.574 26.733 269.974 464.847 4214.055 3.006 -1.067 -0.891 0.04 0.59 -0.8 0.02
1 5.24 524 -3.678 -9.778 4.985 -45.197 13.092 18.738 359.916 299.955 3989.051 2.755 0.467 -2.071 0.05 0.59 -0.81 0.02
1 5.25 525 -3.117 -10.779 5.488 -62.287 9.583 26.245 359.916 299.955 3989.051 2.148 1.460 -2.616 0.05 0.59 -0.8 0.02
1 5.26 526 -3.251 -9.568 3.730 29.389 -8.637 21.851 464.847 404.886 4019.032 2.209 0.219 -0.983 0.05 0.6 -0.8 0.02
1 5.27 527 -2.131 -8.366 5.042 55.939 -22.522 23.071 464.847 404.886 4019.032 1.059 -0.961 -2.231 0.05 0.59 -0.8 0.02
1 5.28 528 -0.948 -7.341 6.704 35.919 -17.029 27.557 419.876 404.886 3914.100 -0.153 -1.951 -3.792 0.05 0.59 -0.8 0.03
1 5.29 529 -0.326 -6.900 6.316 3.845 -11.963 40.039 419.876 404.886 3914.100 -0.808 -2.364 -3.329 0.05 0.59 -0.81 0.03
1 5.30 530 -0.359 -7.834 5.392 -35.095 -7.996 59.876 509.968 419.876 4109.123 -0.825 -1.415 -2.378 0.05 0.59 -0.81 0.03
1 5.31 531 -0.680 -8.720 4.779 -38.452 2.228 62.348 449.857 239.994 4049.012 -0.574 -0.526 -1.783 0.05 0.59 -0.81 0.03
1 5.32 532 -1.331 -9.338 4.473 -21.973 3.387 59.632 449.857 239.994 4049.012 -0.004 0.090 -1.516 0.06 0.59 -0.81 0.04
1 5.33 533 -0.929 -9.424 4.951 -10.559 -5.219 56.732 464.847 329.935 4019.032 -0.490 0.180 -2.022 0.06 0.59 -0.8 0.04
1 5.34 534 -0.302 -9.534 4.803 -14.160 -10.590 43.640 734.971 389.896 4079.143 -1.258 0.308 -1.890 0.06 0.59 -0.8 0.05
1 5.35 535 -0.369 -9.558 4.156 -12.177 -7.080 33.661 479.987 314.945 4154.094 -1.233 0.337 -1.249 0.07 0.59 -0.8 0.05
1 5.36 536 -0.843 -9.232 3.582 -3.082 -0.916 25.665 479.987 314.945 4154.094 -0.790 0.016 -0.679 0.07 0.59 -0.8 0.05
1 5.37 537 -1.456 -9.012 3.577 0.977 2.380 14.740 464.847 254.984 4199.064 -0.201 -0.199 -0.670 0.07 0.59 -0.8 0.05
1 5.38 538 -1.686 -9.137 3.424 -5.371 -1.587 0.824 689.851 314.945 4184.074 0.014 -0.070 -0.510 0.07 0.59 -0.8 0.05
1 5.39 539 -1.475 -9.433 3.275 -6.653 -4.944 -7.385 689.851 314.945 4184.074 -0.198 0.227 -0.363 0.07 0.59 -0.8 0.05
1 5.40 540 -1.259 -9.184 2.945 12.695 -6.012 -16.510 629.890 239.994 4079.143 -0.379 -0.028 -0.033 0.07 0.59 -0.8 0.05
1 5.41 541 -1.221 -8.849 2.959 19.074 -4.486 -19.135 629.890 239.994 4079.143 -0.385 -0.361 -0.023 0.07 0.59 -0.8 0.05
1 5.42 542 -1.168 -8.495 3.108 14.313 -3.967 -21.484 599.909 329.935 4124.113 -0.404 -0.712 -0.142 0.07 0.59 -0.81 0.05
1 5.43 543 -1.226 -8.380 2.773 7.050 -4.425 -24.353 599.909 329.935 4124.113 -0.311 -0.826 0.215 0.06 0.59 -0.81 0.05
1 5.44 544 -1.140 -8.610 2.222 4.089 -10.529 -30.975 479.987 344.925 3974.061 -0.356 -0.600 0.776 0.06 0.59 -0.81 0.04
1 5.45 545 -0.943 -8.773 2.145 6.378 -13.184 -35.370 554.938 269.974 4109.123 -0.503 -0.443 0.858 0.06 0.59 -0.81 0.04
1 5.46 546 -0.785 -8.854 2.212 8.545 -13.275 -36.041 554.938 269.974 4109.123 -0.603 -0.368 0.798 0.06 0.59 -0.81 0.04
1 5.47 547 -0.541 -9.089 2.370 10.437 -13.641 -35.187 629.890 464.847 4109.123 -0.785 -0.139 0.650 0.06 0.59 -0.81 0.04
1 5.48 548 -0.302 -8.964 2.313 12.970 -12.421 -31.342 389.896 299.955 4019.032 -0.901 -0.271 0.738 0.05 0.58 -0.81 0.03
1 5.49 549 -0.057 -8.844 2.093 18.494 -10.620 -28.565 479.987 389.896 4049.012 -1.088 -0.392 0.977 0.05 0.58 -0.81 0.03
1 5.50 550 0.249 -8.346 1.887 23.499 -6.836 -25.086 479.987 389.896 4049.012 -1.344 -0.887 1.210 0.05 0.58 -0.81 0.03
1 5.51 551 0.393 -7.690 2.002 22.308 -1.495 -21.942 554.938 419.876 4049.012 -1.449 -1.536 1.130 0.05 0.58 -0.81 0.03
1 5.52 552 0.287 -7.954 2.064 4.700 7.385 -16.541 314.945 374.906 4124.113 -1.312 -1.266 1.096 0.05 0.58 -0.81 0.03
1 5.53 553 0.172 -8.303 2.059 -3.632 11.169 -12.939 314.945 374.906 4124.113 -1.173 -0.916 1.111 0.05 0.58 -0.81 0.02
1 5.54 554 -0.053 -8.576 1.868 -4.242 12.787 -9.522 554.938 419.876 4004.042 -0.932 -0.646 1.297 0.05 0.58 -0.81 0.02
1 5.55 555 -0.306 -8.634 1.494 7.690 14.282 -7.111 509.968 464.847 4109.123 -0.656 -0.597 1.654 0.05 0.58 -0.81 0.02
1 5.56 556 -0.306 -8.461 1.484 14.465 15.747 -5.859 449.857 389.896 3974.061 -0.652 -0.766 1.675 0.05 0.58 -0.81 0.02
1 5.57 557 -0.187 -8.011 1.561 18.127 17.548 -4.791 449.857 389.896 3974.061 -0.770 -1.209 1.618 0.05 0.58 -0.81 0.02
1 5.58 558 -0.287 -7.508 1.523 17.456 20.416 -4.395 449.857 464.847 4004.042 -0.669 -1.704 1.680 0.05 0.58 -0.81 0.02
1 5.59 559 -0.579 -7.638 1.393 4.791 24.811 -1.831 374.906 344.925 4109.123 -0.381 -1.568 1.828 0.05 0.58 -0.81 0.01
1 5.60 560 -0.881 -7.643 1.283 -3.601 25.330 0.641 374.906 344.925 4109.123 -0.086 -1.560 1.945 0.05 0.58 -0.82 0.01
1 5.61 561 -0.996 -8.169 1.322 -10.559 24.780 2.869 404.886 389.896 3899.110 0.018 -1.034 1.901 0.05 0.58 -0.82 0.01
1 5.62 562 -1.259 -9.098 1.575 -15.320 23.895 6.744 539.948 404.886 3959.071 0.248 -0.117 1.603 0.06 0.58 -0.81 0.01
1 5.63 563 -1.355 -9.620 1.561 -12.756 21.912 3.754 554.938 464.847 4079.143 0.322 0.396 1.582 0.06 0.58 -0.81 0.01
1 5.64 564 -1.451 -9.773 1.963 -0.458 16.998 -1.556 554.938 464.847 4079.143 0.404 0.541 1.152 0.06 0.58 -0.81 0.01
1 5.65 565 -1.164 -9.778 2.107 8.728 10.559 -3.876 509.968 314.945 3929.090 0.111 0.544 1.001 0.06 0.58 -0.81 0.01
1 5.66 566 -1.178 -9.592 2.198 11.749 3.265 -9.003 449.857 419.876 3974.061 0.129 0.359 0.916 0.06 0.58 -0.81 0.01
1 5.67 567 -1.173 -9.927 2.399 0.549 -4.700 -20.569 449.857 419.876 3974.061 0.140 0.695 0.723 0.06 0.58 -0.81 0.01
1 5.68 568 -1.370 -10.640 2.236 -9.399 -10.742 -28.381 569.929 404.886 3959.071 0.365 1.405 0.886 0.06 0.58 -0.81 0
1 5.69 569 -1.652 -11.014 1.623 -6.989 -24.017 -38.696 584.919 344.925 3899.110 0.748 1.760 1.474 0.06 0.58 -0.81 0
1 5.70 570 -1.188 -11.028 1.336 -4.852 -32.318 -42.175 464.847 299.955 4064.002 0.355 1.766 1.756 0.05 0.58 -0.81 0
1 5.71 571 -0.589 -11.009 1.207 -10.376 -36.621 -40.527 464.847 299.955 4064.002 -0.165 1.739 1.882 -0.05 -0.58 0.81 0
1 5.72 572 0.369 -11.248 1.216 -19.898 -35.126 -33.051 464.847 299.955 4064.002 -1.049 1.968 1.858 -0.04 -0.58 0.81 0
1 5.73 573 1.508 -12.378 3.127 -26.123 -25.482 -20.752 269.974 389.896 4004.042 -2.128 3.084 -0.082 -0.04 -0.59 0.81 0
1 5.74 574 -0.244 -14.639 5.411 -12.756 16.022 -11.566 269.974 389.896 4004.042 -0.338 5.331 -2.398 -0.04 -0.59 0.81 0
1 5.75 575 -4.631 -17.507 4.587 -52.094 32.593 -36.316 389.896 374.906 3809.019 4.063 8.192 -1.595 -0.04 -0.59 0.81 0
1 5.76 576 -4.262 -12.125 1.729 74.036 -105.835 -62.836 389.896 479.987 3884.120 3.815 2.775 1.174 -0.03 -0.59 0.8 0.01
1 5.77 577 -0.666 -8.409 1.628 112.213 -132.752 -67.261 419.876 374.906 4124.113 0.359 -0.904 1.409 -0.02 -0.59 0.81 0.01
1 5.78 578 2.998 -7.312 1.801 23.132 -117.951 -68.146 419.876 374.906 4124.113 -3.133 -1.962 1.365 -0.01 -0.58 0.81 0.01
1 5.79 579 5.062 -9.022 1.901 -37.811 -71.381 -30.304 314.945 329.935 3914.100 -5.040 -0.251 1.269 -0 -0.58 0.81 0.01
1 5.80 580 4.070 -11.215 2.816 -63.233 -11.810 11.597 269.974 464.847 3794.028 -3.974 1.919 0.286 0 -0.58 0.81 0.01
1 5.81 581 2.284 -12.230 3.601 -57.343 29.144 16.541 269.974 464.847 3794.028 -2.208 2.903 -0.593 0 -0.59 0.81 0.01
1 5.82 582 1.312 -12.335 4.425 -23.163 12.756 8.637 -44.971 344.925 3929.090 -1.273 2.980 -1.506 -0 -0.59 0.81 0.01
1 5.83 583 1.274 -11.679 4.913 3.113 -5.096 -2.441 44.971 494.978 3929.090 -1.256 2.310 -2.041 -0 -0.59 0.8 0.01
1 5.84 584 2.002 -10.209 4.856 26.642 -9.033 -25.726 0.000 554.938 3884.120 -1.956 0.845 -1.965 -0 -0.59 0.8 0.01
1 5.85 585 2.605 -8.969 4.822 47.760 1.892 -32.898 0.000 554.938 3884.120 -2.514 -0.381 -1.887 -0 -0.59 0.81 0.01
1 5.86 586 2.777 -7.633 5.181 61.554 17.944 -32.715 14.990 539.948 3974.061 -2.621 -1.687 -2.155 0 -0.59 0.81 0.01
1 5.87 587 2.270 -6.484 5.636 56.305 35.187 -31.464 29.980 479.987 3809.019 -2.058 -2.799 -2.501 0 -0.58 0.81 0.01
1 5.88 588 -0.048 -5.679 5.109 16.419 51.880 -38.666 29.980 479.987 3809.019 0.296 -3.573 -1.889 0 -0.58 0.81 0.02
1 5.89 589 -1.719 -6.038 4.597 -13.794 46.814 -45.868 -14.990 389.896 3929.090 1.996 -3.200 -1.339 0 -0.58 0.82 0.02
1 5.90 590 -2.729 -6.967 4.061 -30.182 26.642 -50.781 119.922 464.847 3794.028 3.046 -2.273 -0.811 -0 -0.58 0.82 0.03
1 5.91 591 -2.131 -8.064 4.415 -25.116 -7.263 -55.145 44.971 494.978 3869.129 2.555 -1.195 -1.233 0 -0.58 0.81 0.04
1 5.92 592 -0.977 -9.184 4.674 -15.961 -14.099 -50.690 44.971 494.978 3869.129 1.468 -0.079 -1.512 0 -0.58 0.81 0.04
1 5.93 593 -0.129 -9.898 4.678 -12.085 -8.148 -33.447 0.000 404.886 3839.149 0.685 0.635 -1.527 0.01 -0.58 0.81 0.04
1 5.94 594 0.508 -10.248 4.540 -9.491 2.411 -11.688 -179.883 329.935 3989.051 0.093 0.982 -1.406 0.01 -0.58 0.81 0.04
1 5.95 595 0.800 -9.630 3.812 3.845 7.568 1.465 -179.883 329.935 3989.051 -0.188 0.362 -0.687 0.01 -0.58 0.81 0.04
1 5.96 596 1.288 -8.782 3.644 18.616 8.820 6.744 59.961 524.958 3959.071 -0.682 -0.482 -0.506 0.01 -0.58 0.81 0.04
1 5.97 597 1.279 -8.088 3.314 14.587 14.130 9.003 -29.980 554.938 4094.133 -0.680 -1.166 -0.144 0.01 -0.58 0.81 0.04
1 5.98 598 0.948 -8.150 3.223 4.761 20.996 14.832 -29.980 554.938 4094.133 -0.360 -1.095 -0.025 0.01 -0.58 0.81 0.04
1 5.99 599 0.172 -8.414 3.041 -1.617 26.093 25.665 -29.980 599.909 3779.038 0.352 -0.829 0.174 0 -0.58 0.81 0.04
1 6.00 600 -0.148 -8.768 2.849 1.740 23.071 30.975 -59.961 449.857 3734.067 0.620 -0.477 0.368 0 -0.58 0.81 0.04
1 6.01 601 -0.158 -9.108 2.959 3.906 18.036 35.462 0.000 524.958 3884.120 0.570 -0.138 0.262 -0 -0.58 0.81 0.04
1 6.02 602 0.163 -9.496 2.873 4.669 14.557 37.659 0.000 524.958 3884.120 0.187 0.249 0.355 -0 -0.58 0.81 0.04
1 6.03 603 0.579 -9.247 2.615 14.374 15.656 37.720 104.932 524.958 3884.120 -0.290 0.000 0.620 -0.01 -0.58 0.81 0.04
1 6.04 604 0.503 -8.605 2.500 25.513 17.822 35.492 44.971 494.978 3929.090 -0.272 -0.638 0.748 -0.01 -0.58 0.82 0.03
1 6.05 605 0.445 -8.097 2.385 29.572 20.020 33.966 44.971 494.978 3929.090 -0.270 -1.137 0.892 -0.01 -0.58 0.82 0.03
1 6.06 606 0.005 -7.676 2.447 16.266 25.971 32.776 284.964 449.857 3914.100 0.058 -1.532 0.907 -0.02 -0.57 0.82 0.03
1 6.07 607 -0.646 -7.777 2.433 8.881 26.459 32.410 104.932 524.958 3809.019 0.652 -1.424 0.941 -0.02 -0.57 0.82 0.03
1 6.08 608 -1.183 -7.858 2.466 6.073 23.102 31.738 224.854 464.847 3869.129 1.131 -1.339 0.919 -0.02 -0.57 0.82 0.03
1 6.09 609 -1.528 -8.351 2.294 4.303 17.975 30.243 224.854 464.847 3869.129 1.423 -0.842 1.099 -0.03 -0.57 0.82 0.03
1 6.10 610 -1.551 -8.892 2.480 3.418 8.881 26.672 389.896 599.909 3704.087 1.387 -0.300 0.913 -0.03 -0.57 0.82 0.03
1 6.11 611 -1.547 -8.945 2.461 8.331 4.395 25.055 389.896 524.958 3734.067 1.330 -0.246 0.932 -0.03 -0.57 0.82 0.02
1 6.12 612 -1.350 -8.768 2.203 14.618 1.709 22.247 389.896 524.958 3734.067 1.087 -0.420 1.196 -0.03 -0.57 0.82 0.02
1 6.13 613 -1.393 -7.916 2.251 20.996 -0.824 17.242 299.955 464.847 3824.009 1.060 -1.256 1.186 -0.03 -0.57 0.82 0.02
1 6.14 614 -1.413 -7.427 2.409 18.829 -3.571 12.543 224.854 464.847 3794.028 1.059 -1.733 1.058 -0.03 -0.57 0.82 0.02
1 6.15 615 -1.360 -7.221 2.260 10.315 -6.409 10.376 284.964 449.857 3839.149 0.994 -1.929 1.230 -0.03 -0.57 0.82 0.02
1 6.16 616 -1.370 -7.149 2.164 2.319 -10.132 8.759 284.964 449.857 3839.149 0.996 -1.996 1.338 -0.03 -0.57 0.82 0.02
1 6.17 617 -1.034 -7.599 1.791 -4.334 -13.397 5.920 239.994 329.935 3674.106 0.658 -1.545 1.713 -0.03 -0.57 0.82 0.02
1 6.18 618 -0.666 -7.753 1.944 -13.184 -12.970 2.899 314.945 404.886 3734.067 0.291 -1.395 1.551 -0.03 -0.57 0.82 0.01
1 6.19 619 -0.584 -8.006 1.911 -9.644 -6.622 -0.214 314.945 404.886 3734.067 0.213 -1.148 1.568 -0.03 -0.57 0.82 0.01
1 6.20 620 -0.431 -8.476 2.026 -11.261 -1.282 -0.458 404.886 419.876 3689.097 0.071 -0.689 1.427 -0.03 -0.57 0.82 0.01
1 6.21 621 -0.469 -8.873 2.179 -23.163 1.984 2.655 329.935 419.876 3689.097 0.110 -0.300 1.250 -0.03 -0.57 0.82 0.01
1 6.22 622 -0.345 -9.615 2.332 -36.041 6.134 7.751 329.935 419.876 3689.097 -0.021 0.426 1.053 -0.03 -0.57 0.82 0.01
1 6.23 623 -0.508 -10.631 2.404 -42.084 9.766 13.397 329.935 419.876 3689.097 0.126 1.420 0.920 -0.03 -0.57 0.82 0.01
1 6.24 624 -0.623 -12.163 2.275 -29.358 15.503 19.531 149.902 539.948 3794.028 0.217 2.932 0.990 -0.03 -0.58 0.82 0.01
1 6.25 625 -0.809 -12.398 2.097 -15.015 17.609 19.074 239.994 374.906 3809.019 0.372 3.151 1.120 -0.04 -0.58 0.81 0.01
1 6.26 626 -1.240 -12.383 1.911 -4.272 18.921 16.174 239.994 374.906 3809.019 0.769 3.129 1.280 -0.04 -0.58 0.81 0.01
1 6.27 627 -1.753 -11.818 1.451 1.251 16.846 10.254 314.945 524.958 3884.120 1.250 2.562 1.729 -0.04 -0.58 0.81 0.01
1 6.28 628 -2.203 -11.081 1.073 3.174 2.808 1.587 329.935 464.847 3719.077 1.665 1.827 2.109 -0.04 -0.58 0.81 0.01
1 6.29 629 -2.164 -10.506 0.867 1.312 -8.545 -3.510 404.886 689.851 3764.048 1.628 1.254 2.319 -0.04 -0.58 0.81 0.01
1 6.30 630 -1.360 -10.679 2.720 2.594 -8.545 -8.301 404.886 689.851 3764.048 0.826 1.421 0.451 -0.04 -0.58 0.81 0.01
1 6.31 631 3.635 -16.252 3.477 0.916 -8.606 -9.399 449.857 644.880 3719.077 -4.152 6.996 -0.298 -0.04 -0.58 0.81 0.01
1 6.32 632 5.588 -16.286 8.169 -63.294 31.128 106.842 389.896 599.909 3779.038 -6.097 7.025 -5.005 -0.04 -0.58 0.81 0.01
1 6.33 633 2.222 -9.544 1.767 30.151 78.339 64.911 389.896 599.909 3779.038 -2.853 0.261 1.312 -0.04 -0.58 0.81 0
1 6.34 634 0.153 -9.649 0.364 80.078 70.252 40.497 404.886 464.847 3824.009 -0.923 0.374 2.706 -0.05 -0.58 0.81 0
1 6.35 635 -2.428 -7.734 2.519 38.452 69.031 29.694 464.847 524.958 3809.019 1.482 -1.472 0.705 -0.06 -0.58 0.82 0
1 6.36 636 -2.797 -8.773 4.473 -14.038 49.164 8.881 569.929 599.909 3809.019 1.779 -0.415 -1.218 -0.07 -0.57 0.82 0.01
1 6.37 637 -2.461 -9.946 5.421 -63.721 32.288 16.174 569.929 599.909 3809.019 1.404 0.748 -2.208 -0.07 -0.58 0.81 0.01
1 6.38 638 -3.117 -9.855 4.396 -64.148 26.093 21.637 569.929 449.857 3779.038 2.020 0.627 -1.284 -0.07 -0.58 0.81 0.01
1 6.39 639 -3.797 -9.936 3.395 -9.338 9.247 15.472 734.971 614.899 3899.110 2.662 0.685 -0.367 -0.08 -0.58 0.81 0.01
1 6.40 640 -3.529 -9.472 4.813 12.726 5.371 17.059 734.971 614.899 3899.110 2.368 0.215 -1.812 -0.08 -0.58 0.81 0.01
1 6.41 641 -3.098 -8.500 6.005 19.775 -1.190 24.414 659.870 539.948 3764.048 1.913 -0.751 -2.994 -0.08 -0.58 0.81 0
1 6.42 642 -3.117 -7.590 5.727 6.287 -29.694 36.682 719.981 524.958 3839.149 1.860 -1.630 -2.654 -0.08 -0.58 0.81 0
1 6.43 643 -2.413 -7.580 4.908 -11.627 -41.535 40.619 734.971 419.876 3644.126 1.108 -1.623 -1.805 0.08 0.58 -0.81 0
1 6.44 644 -1.911 -7.734 4.281 -21.362 -39.063 44.342 734.971 419.876 3644.126 0.559 -1.462 -1.174 0.08 0.58 -0.81 0.01
1 6.45 645 -1.403 -8.074 4.291 -17.761 -34.577 50.141 749.961 479.987 3839.149 0.003 -1.118 -1.193 0.08 0.58 -0.81 0.01
1 6.46 646 0.014 -8.528 4.659 -11.414 -33.905 58.685 809.922 644.880 3869.129 -1.469 -0.656 -1.565 0.08 0.58 -0.81 0.02
1 6.47 647 0.824 -9.022 4.860 -23.529 -28.839 68.207 809.922 644.880 3869.129 -2.337 -0.151 -1.761 0.08 0.58 -0.81 0.02
1 6.48 648 0.666 -9.745 4.808 -32.837 -18.799 69.275 749.961 629.890 3839.149 -2.240 0.580 -1.715 0.08 0.58 -0.81 0.03
1 6.49 649 0.048 -9.788 3.965 -18.890 -13.367 61.859 749.961 629.890 3839.149 -1.699 0.625 -0.905 0.08 0.58 -0.81 0.03
1 6.50 650 -1.279 -9.491 3.788 3.693 -12.970 33.844 689.851 494.978 3689.097 -0.490 0.344 -0.748 0.08 0.58 -0.81 0.04
1 6.51 651 -1.896 -8.844 3.730 2.686 -16.327 15.930 689.851 494.978 3689.097 0.098 -0.292 -0.676 0.08 0.58 -0.81 0.04
1 6.52 652 -2.208 -8.720 3.247 0.061 -23.651 5.096 854.893 629.890 3734.067 0.400 -0.411 -0.180 0.08 0.58 -0.81 0.04
1 6.53 653 -1.609 -8.461 2.811 -0.549 -29.450 -1.404 824.913 629.890 3734.067 -0.193 -0.668 0.264 0.08 0.58 -0.81 0.04
1 6.54 654 -1.322 -8.327 2.686 2.838 -29.541 -6.897 824.913 629.890 3734.067 -0.462 -0.803 0.397 0.08 0.58 -0.81 0.04
1 6.55 655 -1.044 -8.251 2.504 3.418 -28.778 -11.078 809.922 569.929 3794.028 -0.713 -0.881 0.590 0.08 0.58 -0.81 0.05
1 6.56 656 -1.202 -8.457 2.538 -3.571 -26.764 -16.235 749.961 599.909 3629.136 -0.489 -0.680 0.576 0.07 0.58 -0.81 0.05
1 6.57 657 -1.125 -8.873 2.251 -6.439 -26.123 -20.203 734.971 689.851 3794.028 -0.524 -0.272 0.860 0.07 0.58 -0.81 0.04
1 6.58 658 -1.207 -9.089 1.987 -4.791 -26.550 -29.480 734.971 689.851 3794.028 -0.391 -0.069 1.115 0.07 0.58 -0.81 0.04
1 6.59 659 -1.092 -9.084 1.853 3.662 -28.015 -34.271 749.961 599.909 3554.035 -0.446 -0.085 1.245 0.07 0.58 -0.81 0.04
1 6.60 660 -0.718 -8.926 1.939 10.590 -29.205 -35.004 854.893 599.909 3599.005 -0.753 -0.252 1.166 0.06 0.58 -0.81 0.04
1 6.61 661 -0.455 -8.844 1.944 8.972 -28.076 -31.128 854.893 599.909 3599.005 -0.948 -0.339 1.177 0.06 0.58 -0.81 0.04
1 6.62 662 0.010 -8.710 1.906 7.019 -25.665 -26.672 554.938 614.899 3614.146 -1.346 -0.478 1.230 0.06 0.58 -0.81 0.04
1 6.63 663 0.259 -8.663 1.767 8.148 -22.217 -23.254 554.938 614.899 3614.146 -1.533 -0.531 1.378 0.05 0.58 -0.81 0.04
1 6.64 664 0.297 -8.471 1.504 11.841 -15.564 -18.829 599.909 704.991 3524.054 -1.473 -0.727 1.668 0.05 0.58 -0.81 0.03
1 6.65 665 0.287 -8.346 1.537 8.789 -11.169 -17.487 599.909 704.991 3524.054 -1.428 -0.849 1.652 0.05 0.58 -0.81 0.03
1 6.66 666 0.508 -8.428 1.973 5.005 -6.928 -16.754 569.929 554.938 3704.087 -1.617 -0.768 1.229 0.05 0.58 -0.81 0.03
1 6.67 667 0.555 -8.404 1.858 2.563 -4.059 -16.968 569.929 524.958 3704.087 -1.635 -0.793 1.351 0.05 0.58 -0.81 0.03
1 6.68 668 0.752 -8.557 1.566 3.510 3.326 -15.167 569.929 524.958 3704.087 -1.804 -0.641 1.647 0.05 0.58 -0.81 0.03
1 6.69 669 0.570 -8.404 1.575 6.042 11.261 -11.780 449.857 794.932 3689.097 -1.598 -0.796 1.641 0.04 0.58 -0.81 0.03
1 6.70 670 0.445 -8.006 1.647 10.895 17.853 -7.782 449.857 794.932 3689.097 -1.458 -1.193 1.576 0.04 0.58 -0.81 0.03
1 6.71 671 0.115 -7.671 1.532 12.695 25.787 -5.066 374.906 464.847 3764.048 -1.123 -1.519 1.717 0.05 0.58 -0.82 0.02
1 6.72 672 -0.038 -7.609 1.441 8.270 27.313 -4.364 374.906 464.847 3764.048 -0.974 -1.577 1.820 0.05 0.58 -0.82 0.02
1 6.73 673 -0.168 -7.786 1.523 1.770 26.703 -2.716 569.929 554.938 3629.136 -0.851 -1.397 1.744 0.05 0.58 -0.82 0.02
1 6.74 674 -0.215 -7.987 1.470 -5.371 26.978 -1.953 404.886 644.880 3584.015 -0.811 -1.197 1.792 0.05 0.58 -0.82 0.02
1 6.75 675 -0.192 -9.146 1.829 -14.374 28.473 -0.671 404.886 644.880 3584.015 -0.844 -0.042 1.418 0.05 0.58 -0.82 0.02
1 6.76 676 -0.555 -10.022 2.050 -18.158 29.999 -4.303 569.929 479.987 3599.005 -0.489 0.824 1.167 0.05 0.58 -0.81 0.01
1 6.77 677 -0.852 -10.525 1.887 -7.813 28.320 -7.690 569.929 479.987 3599.005 -0.196 1.314 1.291 0.06 0.58 -0.81 0.01
1 6.78 678 -1.025 -10.568 1.853 9.308 23.834 -11.536 539.948 599.909 3674.106 -0.024 1.347 1.293 0.06 0.58 -0.81 0.01
1 6.79 679 -1.561 -10.602 2.026 18.768 15.259 -20.538 539.948 629.890 3599.005 0.532 1.386 1.145 0.06 0.58 -0.81 0.01
1 6.80 680 -1.762 -10.482 2.054 7.660 5.859 -28.656 509.968 569.929 3584.015 0.761 1.271 1.138 0.06 0.58 -0.81 0.01
1 6.81 681 -1.820 -10.741 2.030 -9.003 -5.737 -37.201 644.880 479.987 3734.067 0.862 1.526 1.166 0.06 0.58 -0.81 0
1 6.82 682 -1.212 -11.157 1.551 -19.714 -19.898 -42.389 644.880 479.987 3734.067 0.316 1.931 1.628 0.06 0.58 -0.81 0
1 6.83 683 -0.479 -11.727 1.451 -26.764 -31.159 -44.281 644.880 629.890 3599.005 -0.342 2.484 1.701 -0.05 -0.58 0.81 0
1 6.84 684 0.479 -11.919 1.183 -29.022 -27.313 -38.605 644.880 629.890 3599.005 -1.219 2.658 1.937 -0.05 -0.58 0.81 0
1 6.85 685 1.178 -11.981 1.226 -29.236 -17.395 -27.680 509.968 689.851 3509.064 -1.845 2.702 1.856 -0.04 -0.58 0.81 0
1 6.86 686 0.651 -12.809 3.544 -7.629 18.005 -12.054 464.847 779.942 3629.136 -1.234 3.502 -0.532 -0.04 -0.59 0.81 0.01
1 6.87 687 -2.883 -14.485 3.510 -19.257 47.394 -22.858 299.955 719.981 3644.126 2.308 5.174 -0.510 -0.04 -0.59 0.81 0.01
1 6.88 688 -4.741 -14.653 3.797 -39.734 2.960 -53.223 539.948 704.991 3704.087 4.192 5.325 -0.843 -0.04 -0.59 0.81 0.01
1 6.89 689 -3.548 -11.828 2.634 27.863 -85.999 -65.155 539.948 704.991 3704.087 3.093 2.484 0.287 -0.04 -0.59 0.81 0.01
1 6.90 690 1.638 -8.706 1.738 20.294 -100.769 -76.569 359.916 749.961 3554.035 -1.951 -0.625 1.242 -0.03 -0.59 0.81 0.01
1 6.91 691 4.482 -8.974 2.409 -10.498 -62.683 -52.002 359.916 749.961 3554.035 -4.631 -0.348 0.613 -0.02 -0.59 0.81 0.01
1 6.92 692 4.813 -9.802 3.103 -20.142 -2.472 -11.353 359.916 704.991 3704.087 -4.810 0.477 -0.091 -0.01 -0.59 0.81 0.02
1 6.93 693 1.245 -10.434 3.759 -19.531 37.689 -0.610 194.873 764.952 3539.044 -1.216 1.089 -0.808 -0.01 -0.59 0.81 0.02
1 6.94 694 -0.148 -10.037 4.578 6.683 11.261 -11.963 149.902 644.880 3584.015 0.169 0.686 -1.646 -0.01 -0.59 0.81 0.02
1 6.95 695 -0.029 -9.338 5.588 26.642 -14.099 -24.231 194.873 719.981 3644.126 0.072 -0.007 -2.638 -0.01 -0.59 0.81 0.02
1 6.96 696 1.044 -8.691 5.967 25.421 -17.548 -34.027 194.873 719.981 3644.126 -0.952 -0.641 -2.976 -0.01 -0.59 0.81 0.02
1 6.97 697 2.140 -7.848 5.722 19.806 -3.937 -36.499 59.961 599.909 3779.038 -1.982 -1.464 -2.675 -0.01 -0.59 0.81 0.02
1 6.98 698 1.925 -7.422 5.392 23.712 18.066 -37.811 59.961 599.909 3779.038 -1.698 -1.872 -2.293 -0 -0.58 0.81 0.03
1 6.99 699 1.355 -7.236 5.129 16.144 24.414 -39.795 -14.990 794.932 3719.077 -1.067 -2.039 -1.975 -0 -0.58 0.81 0.03
1 7.00 700 0.220 -7.633 5.239 -15.747 18.372 -46.478 44.971 839.903 3644.126 0.178 -1.613 -2.015 -0 -0.58 0.81 0.04
1 7.01 701 -0.441 -8.423 5.162 -31.036 13.428 -48.950 14.990 869.883 3614.146 0.895 -0.823 -1.947 -0 -0.58 0.81 0.04
1 7.02 702 -0.982 -9.256 4.779 -30.396 9.430 -45.929 -29.980 599.909 3674.106 1.492 0.002 -1.594 0 -0.58 0.81 0.04
1 7.03 703 -1.130 -9.735 4.252 -13.336 4.517 -42.084 -29.980 599.909 3674.106 1.690 0.475 -1.094 0 -0.58 0.81 0.05
1 7.04 704 -0.383 -10.018 4.544 0.977 -1.190 -36.224 0.000 704.991 3554.035 0.994 0.758 -1.394 0 -0.58 0.81 0.05
1 7.05 705 0.704 -10.003 4.578 -2.014 -8.087 -16.846 0.000 704.991 3554.035 -0.042 0.748 -1.425 0.01 -0.58 0.81 0.05
1 7.06 706 1.508 -9.745 4.061 -0.488 -5.127 -4.089 -29.980 824.913 3599.005 -0.812 0.491 -0.911 0.01 -0.58 0.81 0.05
1 7.07 707 1.561 -9.319 3.443 2.167 3.906 3.540 0.000 704.991 3599.005 -0.845 0.068 -0.288 0.01 -0.58 0.81 0.05
1 7.08 708 0.464 -8.979 3.036 0.854 16.174 11.566 -44.971 614.899 3539.044 0.243 -0.269 0.130 0.01 -0.58 0.81 0.05
1 7.09 709 -0.201 -8.931 2.902 3.082 13.458 14.557 -44.971 644.880 3584.015 0.882 -0.318 0.268 0.01 -0.58 0.81 0.05
1 7.10 710 -0.417 -8.892 2.744 5.981 9.399 17.883 -44.971 644.880 3584.015 1.064 -0.356 0.432 0 -0.58 0.81 0.05
1 7.11 711 -0.321 -8.739 2.701 11.108 5.005 22.736 -134.912 749.961 3704.087 0.932 -0.508 0.486 0 -0.58 0.81 0.05
1 7.12 712 -0.043 -8.476 2.605 17.883 4.242 33.905 -134.912 749.961 3704.087 0.613 -0.768 0.599 0 -0.58 0.81 0.05
1 7.13 713 0.120 -8.241 2.619 16.174 6.653 41.962 14.990 689.851 3614.146 0.400 -0.997 0.609 0 -0.58 0.81 0.04
1 7.14 714 0.182 -8.121 2.519 11.658 9.216 46.295 0.000 779.942 3599.005 0.278 -1.112 0.734 -0 -0.58 0.81 0.04
1 7.15 715 0.110 -7.791 1.858 11.475 9.338 47.424 -29.980 554.938 3494.074 0.213 -1.435 1.430 -0.01 -0.58 0.82 0.04
1 7.16 716 -0.034 -7.777 1.944 9.644 7.263 44.068 59.961 704.991 3629.136 0.288 -1.446 1.360 -0.01 -0.58 0.82 0.03
1 7.17 717 -0.230 -7.638 2.026 4.761 4.669 39.520 59.961 704.991 3629.136 0.422 -1.582 1.290 -0.01 -0.58 0.82 0.03
1 7.18 718 -0.460 -8.112 1.820 0.671 2.350 35.187 194.873 869.883 3479.083 0.597 -1.107 1.501 -0.01 -0.57 0.82 0.03
1 7.19 719 -1.101 -8.457 1.619 -4.181 -3.967 30.670 194.873 869.883 3479.083 1.192 -0.763 1.702 -0.01 -0.57 0.82 0.03
1 7.20 720 -1.279 -8.969 1.657 -6.409 -7.477 29.541 269.974 794.932 3509.064 1.329 -0.253 1.658 -0.01 -0.58 0.82 0.03
1 7.21 721 -1.628 -9.252 1.753 -3.357 -12.695 28.595 284.964 854.893 3674.106 1.632 0.023 1.545 -0.02 -0.58 0.82 0.02
1 7.22 722 -1.604 -9.165 1.733 11.292 -20.813 26.428 179.883 704.991 3494.074 1.520 -0.070 1.544 -0.02 -0.58 0.82 0.02
1 7.23 723 -1.710 -8.284 1.614 21.362 -27.039 24.078 269.974 719.981 3539.044 1.589 -0.947 1.674 -0.02 -0.58 0.82 0.01
1 7.24 724 -1.695 -7.585 1.580 23.895 -34.088 19.196 269.974 719.981 3539.044 1.559 -1.634 1.740 -0.02 -0.57 0.82 0.01
1 7.25 725 -1.173 -7.269 1.642 12.146 -38.544 15.869 179.883 749.961 3494.074 1.031 -1.939 1.709 -0.02 -0.57 0.82 0.01
1 7.26 726 -0.862 -7.738 1.470 -4.852 -40.589 13.794 179.883 749.961 3494.074 0.721 -1.465 1.894 -0.01 -0.57 0.82 0.01
1 7.27 727 -0.800 -8.193 1.456 -15.778 -40.711 9.735 29.980 854.893 3494.074 0.663 -1.014 1.898 -0.01 -0.57 0.82 0
1 7.28 728 -0.699 -8.500 1.599 -6.928 -40.375 4.334 134.912 554.938 3524.054 0.570 -0.715 1.734 -0.01 -0.57 0.82 0
1 7.29 729 -0.397 -8.509 1.796 8.667 -42.053 -0.458 134.912 554.938 3524.054 0.283 -0.710 1.525 -0.01 -0.57 0.82 0
1 7.30 730 0.139 -8.366 1.935 14.710 -45.532 -3.632 0.000 779.942 3599.005 -0.203 -0.843 1.416 0 0.57 -0.82 0
1 7.31 731 0.891 -8.562 1.863 5.341 -44.678 2.228 0.000 779.942 3599.005 -0.925 -0.641 1.507 -0 0.57 -0.82 0
1 7.32 732 1.370 -9.089 2.097 -9.064 -35.797 9.644 -14.990 839.903 3479.083 -1.382 -0.114 1.271 -0 0.57 -0.82 0.01
1 7.33 733 1.743 -10.128 2.164 -17.059 -22.766 18.646 -14.990 839.903 3479.083 -1.744 0.917 1.181 -0.01 0.57 -0.82 0.01
1 7.34 734 1.762 -10.813 2.097 -17.609 -0.702 32.684 -44.971 614.899 3539.044 -1.769 1.589 1.215 -0.01 0.58 -0.82 0.01
1 7.35 735 1.551 -11.081 2.016 -16.998 13.733 38.544 59.961 749.961 3449.103 -1.597 1.848 1.271 -0.01 0.58 -0.82 0.01
1 7.36 736 0.910 -11.411 1.824 -18.066 24.353 39.215 59.961 749.961 3449.103 -1.011 2.171 1.438 -0 0.58 -0.82 0.01
1 7.37 737 -0.273 -11.967 1.532 -15.228 29.663 32.501 119.922 764.952 3479.083 0.043 2.710 1.678 0 0.58 -0.81 0.01
1 7.38 738 -1.322 -11.876 1.173 -7.721 23.499 24.048 119.922 764.952 3479.083 1.036 2.614 2.017 0.01 0.58 -0.81 0.02
1 7.39 739 -1.801 -11.751 0.929 1.434 13.001 16.174 29.980 749.961 3599.005 1.475 2.488 2.252 0.01 0.58 -0.81 0.02
1 7.40 740 0.340 -13.829 4.171 10.773 10.071 13.001 29.980 749.961 3599.005 -0.690 4.568 -0.986 0.01 0.58 -0.81 0.02
1 7.41 741 4.434 -17.885 6.019 -8.942 -15.411 42.420 149.902 869.883 3509.064 -4.809 8.630 -2.819 0.01 0.58 -0.81 0.02
1 7.42 742 2.591 -12.335 4.583 -17.059 66.773 83.679 59.961 929.994 3674.106 -3.041 3.071 -1.419 0.01 0.58 -0.81 0.02
1 7.43 743 -0.297 -9.366 -0.196 83.374 71.411 34.729 59.961 929.994 3674.106 -0.303 0.092 3.304 0.02 0.58 -0.81 0.02
1 7.44 744 -1.920 -7.686 2.002 17.853 56.763 41.321 359.916 824.913 3629.136 1.150 -1.526 1.252 0.03 0.58 -0.82 0.02
1 7.45 745 -2.413 -8.275 3.606 -45.502 52.124 23.621 359.916 824.913 3629.136 1.564 -0.932 -0.358 0.04 0.58 -0.82 0.02
1 7.46 746 -2.112 -10.607 3.615 -73.853 35.401 18.158 299.955 914.854 3479.083 1.198 1.378 -0.447 0.04 0.58 -0.81 0.02
1 7.47 747 -2.078 -11.569 3.673 -57.526 33.203 26.154 299.955 914.854 3479.083 1.121 2.308 -0.613 0.05 0.58 -0.81 0.02
1 7.48 748 -3.352 -10.147 3.615 16.571 36.255 17.731 539.948 854.893 3554.035 2.343 0.868 -0.627 0.05 0.59 -0.81 0.02
1 7.49 749 -3.184 -9.208 4.554 40.009 14.679 14.801 464.847 899.864 3704.087 2.131 -0.066 -1.567 0.05 0.59 -0.81 0.02
1 7.50 750 -2.567 -8.332 6.110 25.208 3.723 19.623 464.847 899.864 3704.087 1.485 -0.923 -3.074 0.05 0.58 -0.81 0.02
1 7.51 751 -1.968 -7.638 5.785 -1.862 -5.859 35.004 644.880 899.864 3599.005 0.804 -1.573 -2.647 0.06 0.58 -0.81 0.02
1 7.52 752 -1.868 -7.461 4.793 -8.789 -13.123 44.861 644.880 899.864 3599.005 0.649 -1.737 -1.638 0.06 0.58 -0.81 0.03
1 7.53 753 -1.781 -7.810 4.391 -20.050 -10.651 48.584 419.876 779.942 3554.035 0.500 -1.379 -1.234 0.06 0.58 -0.81 0.03
1 7.54 754 -1.901 -8.332 4.602 -34.180 -3.906 52.765 419.876 779.942 3554.035 0.551 -0.853 -1.464 0.06 0.58 -0.81 0.03
1 7.55 755 -0.872 -10.166 5.167 -39.734 -5.432 59.326 584.919 839.903 3584.015 -0.553 0.979 -2.067 0.06 0.58 -0.81 0.04
1 7.56 756 -0.354 -11.047 5.085 -28.107 -13.916 65.979 734.971 989.955 3509.064 -1.152 1.855 -2.039 0.07 0.58 -0.81 0.04
1 7.57 757 -0.172 -10.928 4.224 -2.655 -15.015 57.221 734.971 989.955 3509.064 -1.418 1.736 -1.218 0.07 0.58 -0.81 0.04
1 7.58 758 -0.709 -9.841 3.668 20.599 -10.986 38.544 779.942 899.864 3704.087 -0.958 0.659 -0.673 0.07 0.59 -0.81 0.05
1 7.59 759 -2.136 -8.696 3.802 9.399 -0.244 14.191 764.952 944.984 3689.097 0.393 -0.450 -0.744 0.07 0.58 -0.81 0.05
1 7.60 760 -2.691 -8.557 3.357 -5.707 -3.876 4.974 674.860 929.994 3734.067 0.930 -0.581 -0.285 0.07 0.58 -0.81 0.05
1 7.61 761 -2.303 -8.600 3.022 -8.270 -14.221 -4.547 674.860 929.994 3734.067 0.536 -0.538 0.046 0.07 0.58 -0.81 0.05
1 7.62 762 -1.566 -9.003 2.959 -1.587 -19.226 -12.573 674.860 824.913 3809.019 -0.186 -0.140 0.104 0.07 0.58 -0.81 0.05
1 7.63 763 -0.843 -8.864 3.079 11.322 -14.587 -16.449 674.860 899.864 3629.136 -0.878 -0.283 -0.009 0.07 0.58 -0.81 0.05
1 7.64 764 -0.804 -8.481 2.998 16.449 -11.566 -18.372 674.860 899.864 3629.136 -0.879 -0.666 0.091 0.07 0.58 -0.81 0.05
1 7.65 765 -0.785 -8.045 2.811 16.083 -13.001 -22.492 689.851 914.854 3614.146 -0.861 -1.100 0.305 0.07 0.58 -0.81 0.05
1 7.66 766 -0.747 -7.839 2.437 7.538 -15.991 -31.189 569.929 899.864 3734.067 -0.815 -1.304 0.725 0.06 0.58 -0.81 0.05
1 7.67 767 -0.637 -8.193 2.351 3.052 -16.266 -36.713 539.948 899.864 3554.035 -0.870 -0.955 0.824 0.06 0.58 -0.81 0.05
1 7.68 768 -0.479 -8.203 2.203 2.106 -16.052 -38.788 539.948 899.864 3554.035 -0.966 -0.953 0.979 0.06 0.58 -0.81 0.04
1 7.69 769 -0.388 -8.552 2.150 4.822 -15.137 -38.880 509.968 914.854 3689.097 -0.992 -0.611 1.038 0.06 0.58 -0.81 0.04
1 7.70 770 -0.326 -8.509 2.217 8.637 -15.991 -34.027 494.978 974.965 3704.087 -0.989 -0.661 0.980 0.05 0.58 -0.81 0.04
1 7.71 771 0.067 -8.734 2.222 8.026 -14.526 -29.785 494.978 974.965 3704.087 -1.320 -0.440 0.988 0.05 0.58 -0.81 0.04
1 7.72 772 0.077 -9.074 1.963 7.050 -13.428 -25.208 449.857 989.955 3794.028 -1.269 -0.105 1.256 0.05 0.58 -0.81 0.04
1 7.73 773 0.536 -8.825 1.844 12.451 -6.134 -17.273 404.886 839.903 3689.097 -1.628 -0.361 1.389 0.04 0.58 -0.81 0.03
1 7.74 774 0.661 -8.639 2.040 15.747 1.068 -13.519 539.948 779.942 3704.087 -1.714 -0.548 1.207 0.04 0.58 -0.82 0.03
1 7.75 775 0.852 -8.160 2.184 17.456 5.707 -13.672 539.948 779.942 3704.087 -1.880 -1.023 1.083 0.04 0.58 -0.82 0.03
1 7.76 776 0.852 -7.944 1.982 15.198 8.789 -15.167 569.929 1004.945 3704.087 -1.861 -1.232 1.307 0.04 0.57 -0.82 0.03
1 7.77 777 0.771 -7.796 1.796 7.050 17.365 -13.458 389.896 779.942 3734.067 -1.761 -1.376 1.511 0.04 0.57 -0.82 0.03
1 7.78 778 0.690 -7.662 1.690 8.667 25.055 -9.155 389.896 779.942 3734.067 -1.666 -1.509 1.624 0.04 0.57 -0.82 0.02
1 7.79 779 0.335 -7.475 1.475 11.871 33.753 -3.418 239.994 899.864 3674.106 -1.307 -1.693 1.848 0.04 0.57 -0.82 0.02
1 7.80 780 -0.048 -7.259 1.422 6.805 42.633 0.793 359.916 749.961 3734.067 -0.949 -1.898 1.921 0.05 0.57 -0.82 0.02
1 7.81 781 -0.292 -7.413 1.398 3.693 44.342 1.923 299.955 614.899 3644.126 -0.727 -1.742 1.946 0.05 0.57 -0.82 0.02
1 7.82 782 -0.623 -7.690 1.226 -11.169 44.586 6.531 299.955 614.899 3644.126 -0.425 -1.466 2.106 0.05 0.57 -0.82 0.02
1 7.83 783 -0.862 -8.591 1.470 -25.452 41.779 6.104 494.978 899.864 3599.005 -0.216 -0.572 1.834 0.06 0.57 -0.82 0.01
1 7.84 784 -1.393 -10.693 1.753 -38.544 36.041 2.350 509.968 689.851 3689.097 0.289 1.514 1.499 0.06 0.57 -0.82 0.01
1 7.85 785 -1.389 -11.459 1.949 -36.011 23.804 -2.686 509.968 689.851 3689.097 0.267 2.259 1.234 0.06 0.58 -0.81 0.01
1 7.86 786 -1.269 -11.363 1.887 -0.580 13.397 -8.392 449.857 869.883 3689.097 0.140 2.143 1.236 0.06 0.58 -0.81 0.01
1 7.87 787 -1.049 -10.487 1.987 37.415 6.256 -12.848 539.948 929.994 3674.106 -0.076 1.260 1.117 0.06 0.58 -0.81 0.01
1 7.88 788 -1.269 -9.103 2.227 41.504 6.409 -17.914 599.909 854.893 3734.067 0.181 -0.096 0.972 0.06 0.58 -0.81 0.01
1 7.89 789 -1.695 -9.007 2.088 10.284 2.502 -22.247 599.909 854.893 3734.067 0.630 -0.180 1.153 0.06 0.58 -0.82 0.01
1 7.90 790 -2.126 -9.520 1.681 -23.651 -8.331 -27.283 389.896 899.864 3629.136 1.089 0.327 1.554 0.06 0.58 -0.82 0
1 7.91 791 -2.174 -10.362 1.245 -42.694 -23.621 -33.814 419.876 929.994 3809.019 1.177 1.148 1.938 0.06 0.58 -0.81 0
1 7.92 792 -1.676 -11.823 1.820 -28.687 -38.178 -40.405 419.876 929.994 3809.019 0.739 2.580 1.299 0.06 0.58 -0.81 0
1 7.93 793 -2.672 -13.580 3.529 -5.493 -26.825 -43.213 479.987 839.903 3794.028 1.812 4.315 -0.454 0.05 0.58 -0.81 0
1 7.94 794 -5.200 -16.080 4.530 -30.640 -4.547 -61.615 464.847 929.994 3779.038 4.416 6.805 -1.466 0.05 0.58 -0.81 0
1 7.95 795 -3.793 -14.931 2.433 -5.920 -98.633 -74.890 314.945 899.864 3779.038 3.220 5.610 0.541 -0.04 -0.59 0.81 0
1 7.96 796 -0.522 -11.138 1.647 68.238 -142.456 -72.052 314.945 899.864 3779.038 0.109 1.820 1.359 -0.03 -0.59 0.81 0
1 7.97 797 2.868 -8.883 1.719 59.540 -126.984 -66.162 194.873 944.984 3764.048 -3.106 -0.408 1.389 -0.02 -0.58 0.81 0
1 7.98 798 4.918 -8.552 2.121 15.228 -82.550 -38.635 209.863 854.893 3839.149 -4.982 -0.719 1.053 -0.01 -0.58 0.81 0
1 7.99 799 4.602 -9.740 2.921 -27.618 -25.971 -0.427 209.863 854.893 3839.149 -4.553 0.469 0.256 0 -0.58 0.81 0
1 8.00 800 2.978 -11.052 3.448 -66.712 13.763 20.905 -59.961 854.893 3779.038 -2.929 1.764 -0.323 0 -0.58 0.81 0
1 8.01 801 1.901 -12.086 4.156 -57.282 -2.380 7.935 -29.980 749.961 3839.149 -1.885 2.768 -1.121 0 -0.59 0.81 0
1 8.02 802 2.097 -12.144 4.415 -5.432 -28.442 -20.660 -14.990 839.903 3794.028 -2.076 2.783 -1.514 0 -0.59 0.8 0
1 8.03 803 2.978 -11.545 4.496 19.623 -23.316 -35.004 -14.990 839.903 3794.028 -2.907 2.185 -1.594 0 -0.59 0.81 0
1 8.04 804 3.424 -10.305 4.789 41.626 -6.622 -36.133 -59.961 854.893 3884.120 -3.290 0.957 -1.850 0.01 -0.59 0.81 0
1 8.05 805 3.352 -8.844 5.119 58.228 13.123 -29.663 0.000 1004.945 4019.032 -3.165 -0.481 -2.113 0.01 -0.59 0.81 0
1 8.06 806 2.069 -6.977 5.722 53.284 33.569 -23.438 0.000 1004.945 4019.032 -1.838 -2.317 -2.623 0.01 -0.58 0.81 0.01
1 8.07 807 0.297 -6.110 5.531 31.708 46.997 -30.212 -269.974 914.854 3869.129 -0.033 -3.151 -2.337 0.01 -0.58 0.81 0.01
1 8.08 808 -1.642 -5.751 4.765 10.956 40.985 -40.253 -134.912 974.965 3809.019 1.926 -3.491 -1.518 0.01 -0.58 0.82 0.01
1 8.09 809 -2.691 -6.158 4.238 -19.196 23.712 -47.577 -134.912 974.965 3809.019 3.009 -3.074 -0.966 0.01 -0.58 0.82 0.02
1 8.10 810 -2.480 -8.059 4.415 -50.446 -6.287 -52.368 -194.873 644.880 3824.009 2.909 -1.190 -1.206 0.01 -0.58 0.81 0.03
1 8.11 811 -1.695 -9.682 4.568 -44.434 -18.433 -51.056 -104.932 929.994 3704.087 2.183 0.415 -1.419 0.01 -0.58 0.81 0.03
1 8.12 812 -0.426 -10.928 4.463 -20.660 -16.357 -38.483 -179.883 749.961 3989.051 0.994 1.645 -1.371 0.01 -0.58 0.81 0.03
1 8.13 813 0.589 -10.434 4.209 11.749 -5.493 -18.860 -179.883 749.961 3989.051 0.036 1.150 -1.136 0.02 -0.59 0.81 0.03
1 8.14 814 0.761 -9.098 4.257 32.837 8.423 5.676 -329.935 794.932 3869.129 -0.114 -0.176 -1.159 0.02 -0.58 0.81 0.03
1 8.15 815 0.876 -7.825 4.018 22.919 10.223 10.651 -209.863 749.961 3884.120 -0.234 -1.433 -0.868 0.02 -0.58 0.81 0.03
1 8.16 816 0.752 -7.643 3.759 9.216 10.986 10.681 -209.863 749.961 3884.120 -0.125 -1.600 -0.562 0.02 -0.58 0.81 0.03
1 8.17 817 0.235 -8.193 3.208 -0.732 16.693 14.221 -224.854 869.883 3929.090 0.354 -1.044 0.011 0.01 -0.58 0.81 0.03
1 8.18 818 -0.330 -8.562 3.204 5.035 17.151 16.266 -299.955 644.880 3824.009 0.888 -0.676 0.020 0.01 -0.58 0.81 0.03
1 8.19 819 -0.517 -8.485 3.041 13.031 11.993 17.853 -194.873 794.932 3899.110 1.038 -0.750 0.197 0.01 -0.58 0.82 0.03
1 8.20 820 -0.316 -8.404 3.137 17.487 6.592 18.341 -194.873 794.932 3899.110 0.800 -0.825 0.125 0.01 -0.58 0.82 0.03
1 8.21 821 0.053 -8.366 3.074 15.961 3.845 21.881 -314.945 854.893 3914.100 0.396 -0.855 0.214 0.01 -0.58 0.82 0.03
1 8.22 822 0.148 -8.591 2.830 8.942 7.813 29.999 -209.863 704.991 3779.038 0.264 -0.623 0.482 0.01 -0.58 0.82 0.03
1 8.23 823 0.421 -8.572 2.461 9.186 13.397 34.210 -209.863 704.991 3779.038 -0.052 -0.639 0.865 0.01 -0.57 0.82 0.02
1 8.24 824 -0.005 -8.452 2.289 14.038 16.693 34.638 -194.873 869.883 3794.028 0.266 -0.753 1.064 0 -0.57 0.82 0.02
1 8.25 825 -0.364 -8.332 2.246 12.909 15.076 31.372 -194.873 614.899 3794.028 0.570 -0.866 1.128 -0 -0.57 0.82 0.02
1 8.26 826 -0.608 -8.370 2.251 8.698 12.451 27.618 -224.854 794.932 3869.129 0.766 -0.823 1.141 -0 -0.57 0.82 0.02
1 8.27 827 -0.972 -8.500 2.126 3.448 7.782 24.689 -224.854 794.932 3869.129 1.088 -0.690 1.276 -0 -0.57 0.82 0.02
1 8.28 828 -1.317 -8.964 2.107 0.427 1.465 21.942 -44.971 764.952 3899.110 1.388 -0.227 1.294 -0.01 -0.57 0.82 0.01
1 8.29 829 -1.461 -9.237 2.184 1.190 -2.380 20.752 -89.941 689.851 3794.028 1.490 0.044 1.212 -0.01 -0.57 0.82 0.01
1 8.30 830 -1.642 -9.424 2.217 4.211 -6.897 19.196 -89.941 689.851 3794.028 1.634 0.229 1.173 -0.01 -0.57 0.82 0.01
1 8.31 831 -1.470 -9.319 2.279 9.888 -12.054 18.494 89.941 719.981 3869.129 1.426 0.123 1.108 -0.01 -0.57 0.82 0.01
1 8.32 832 -1.537 -8.423 2.126 25.574 -22.980 12.817 -44.971 719.981 3824.009 1.440 -0.763 1.286 -0.01 -0.57 0.82 0
1 8.33 833 -1.092 -7.844 2.184 27.130 -28.748 9.003 -14.990 644.880 3794.028 0.987 -1.329 1.263 -0.01 -0.57 0.82 0
1 8.34 834 -0.953 -7.542 2.064 20.050 -30.609 6.531 -14.990 644.880 3794.028 0.854 -1.618 1.419 -0.01 -0.57 0.82 0
1 8.35 835 -0.670 -7.216 1.868 9.705 -30.274 6.134 -14.990 719.981 3689.097 0.580 -1.934 1.640 0.01 0.57 -0.82 0
1 8.36 836 -0.417 -7.451 1.738 -4.425 -28.626 2.869 -29.980 599.909 3779.038 0.337 -1.695 1.780 0 0.57 -0.82 0
1 8.37 837 -0.364 -7.604 1.848 -11.047 -26.337 0.397 -29.980 599.909 3779.038 0.297 -1.543 1.667 0 0.57 -0.82 0
1 8.38 838 -0.172 -8.045 1.939 -16.571 -22.339 -1.862 -59.961 599.909 3734.067 0.121 -1.108 1.563 0 0.57 -0.82 0
1 8.39 839 -0.034 -8.950 2.088 -27.954 -17.029 0.000 -239.994 704.991 3809.019 0.012 -0.224 1.359 -0 0.57 -0.82 0.01
1 8.40 840 -0.125 -9.678 2.069 -28.595 -13.886 2.258 -179.883 629.890 3809.019 0.111 0.486 1.330 -0 0.57 -0.82 0.01
1 8.41 841 -0.125 -10.022 2.150 -20.691 -15.167 3.540 -179.883 629.890 3809.019 0.115 0.813 1.201 -0 0.57 -0.82 0.01
1 8.42 842 0.072 -10.391 2.174 -9.003 -19.745 3.906 -149.902 689.851 3794.028 -0.077 1.170 1.143 -0.01 0.58 -0.82 0.01
1 8.43 843 0.852 -10.583 2.198 -4.334 -21.301 5.981 -119.922 689.851 3899.110 -0.850 1.354 1.099 -0.01 0.58 -0.82 0.01
1 8.44 844 1.207 -10.765 2.136 -5.981 -13.306 9.522 -119.922 689.851 3899.110 -1.198 1.532 1.151 -0.01 0.58 -0.82 0.01
1 8.45 845 1.212 -10.846 1.992 -6.165 -0.946 14.008 -119.922 689.851 3899.110 -1.205 1.611 1.287 -0.01 0.58 -0.82 0.01
1 8.46 846 0.608 -11.009 1.662 -6.287 15.045 20.447 -89.941 644.880 4004.042 -0.642 1.768 1.601 -0.01 0.58 -0.82 0.01
1 8.47 847 -0.244 -10.746 1.312 -8.759 16.052 21.515 -194.873 644.880 3929.090 0.174 1.501 1.941 -0.01 0.58 -0.82 0.01
1 8.48 848 -0.666 -10.750 1.073 -10.284 10.651 19.318 -194.873 644.880 3929.090 0.561 1.502 2.167 -0 0.58 -0.82 0.01
1 8.49 849 -0.838 -11.172 1.762 -9.949 4.730 15.167 -269.974 614.899 3869.129 0.705 1.918 1.463 -0 0.58 -0.82 0.01
1 8.50 850 2.212 -14.830 3.620 -12.116 3.082 21.332 -104.932 749.961 3884.120 -2.367 5.573 -0.409 -0 0.58 -0.81 0.02
1 8.51 851 4.736 -17.177 5.732 -64.636 11.719 86.640 -104.932 749.961 3884.120 -4.929 7.911 -2.547 -0 0.58 -0.81 0.02
1 8.52 852 2.040 -11.641 2.758 17.761 70.160 65.705 -194.873 764.952 3869.129 -2.338 2.350 0.346 0 0.58 -0.81 0.02
1 8.53 853 -0.177 -9.165 0.771 67.291 52.582 33.234 -14.990 644.880 3869.129 -0.330 -0.094 2.400 0.02 0.58 -0.81 0.02
1 8.54 854 -1.379 -8.121 2.605 0.885 51.300 42.633 0.000 674.860 3959.071 0.797 -1.113 0.625 0.02 0.58 -0.82 0.02
1 8.55 855 -1.858 -9.462 3.534 -51.331 33.112 35.309 0.000 674.860 3959.071 1.192 0.226 -0.326 0.03 0.58 -0.81 0.02
1 8.56 856 -1.403 -11.756 3.342 -70.435 22.644 34.973 194.873 689.851 3869.129 0.671 2.496 -0.220 0.03 0.58 -0.81 0.02
1 8.57 857 -2.744 -11.497 2.792 -29.480 41.351 29.511 89.941 644.880 3899.110 1.952 2.211 0.236 0.03 0.59 -0.81 0.03
1 8.58 858 -3.467 -9.807 3.309 53.375 32.623 13.763 89.941 644.880 3899.110 2.620 0.518 -0.303 0.04 0.59 -0.81 0.02
1 8.59 859 -3.711 -8.346 4.813 43.518 14.526 9.460 29.980 674.860 3959.071 2.826 -0.920 -1.748 0.04 0.58 -0.81 0.02
1 8.60 860 -2.873 -8.011 5.655 -10.864 -2.899 13.489 179.883 674.860 3839.149 1.912 -1.208 -2.473 0.04 0.58 -0.81 0.03
1 8.61 861 -2.121 -8.505 5.224 -17.670 -7.965 16.754 149.902 614.899 3974.061 1.129 -0.711 -2.043 0.04 0.58 -0.81 0.03
1 8.62 862 -1.757 -8.313 4.937 8.789 -18.768 26.978 149.902 614.899 3974.061 0.733 -0.898 -1.751 0.04 0.58 -0.81 0.03
1 8.63 863 -1.542 -7.494 4.951 28.748 -20.966 27.802 224.854 539.948 3824.009 0.485 -1.700 -1.727 0.04 0.58 -0.81 0.03
1 8.64 864 -0.718 -6.460 5.028 24.689 -24.384 30.731 179.883 779.942 4019.032 -0.370 -2.708 -1.741 0.04 0.57 -0.82 0.04
1 8.65 865 0.153 -6.809 4.999 -21.942 -18.799 42.572 179.883 779.942 4019.032 -1.271 -2.345 -1.683 0.04 0.57 -0.82 0.04
1 8.66 866 0.488 -7.748 4.827 -43.579 -5.402 53.528 209.863 629.890 3884.120 -1.650 -1.406 -1.526 0.04 0.57 -0.82 0.04
1 8.67 867 0.546 -8.811 4.506 -42.877 6.683 59.265 209.863 629.890 3884.120 -1.761 -0.349 -1.242 0.04 0.58 -0.82 0.04
1 8.68 868 -0.852 -9.903 4.243 -23.193 10.773 52.735 209.863 524.958 3839.149 -0.508 0.730 -1.073 0.05 0.58 -0.81 0.05
1 8.69 869 -1.408 -9.850 3.994 -7.050 4.517 36.286 209.863 524.958 3839.149 -0.024 0.678 -0.853 0.05 0.58 -0.81 0.05
1 8.70 870 -1.786 -9.529 3.888 3.235 -5.463 18.921 389.896 674.860 3779.038 0.310 0.364 -0.749 0.05 0.58 -0.81 0.05
1 8.71 871 -1.896 -9.170 3.682 0.763 -8.179 7.690 329.935 764.952 3929.090 0.401 0.012 -0.532 0.05 0.58 -0.81 0.06
1 8.72 872 -1.446 -8.945 3.539 -2.045 -9.064 1.038 329.935 764.952 3929.090 -0.055 -0.210 -0.382 0.05 0.58 -0.81 0.06
1 8.73 873 -1.245 -8.754 3.227 1.160 -10.010 -3.204 389.896 824.913 3959.071 -0.253 -0.401 -0.067 0.05 0.58 -0.81 0.06
1 8.74 874 -0.986 -8.418 2.916 3.998 -10.742 -8.606 389.896 824.913 3959.071 -0.502 -0.736 0.248 0.05 0.58 -0.81 0.06
1 8.75 875 -0.618 -8.624 3.041 5.920 -11.932 -14.374 239.994 674.860 3884.120 -0.824 -0.531 0.144 0.05 0.58 -0.81 0.06
1 8.76 876 -0.397 -8.931 2.974 3.510 -12.421 -16.754 239.994 674.860 3884.120 -1.010 -0.226 0.222 0.05 0.58 -0.81 0.06
1 8.77 877 -0.407 -9.252 2.926 2.777 -10.864 -21.027 179.883 779.942 3839.149 -0.960 0.091 0.277 0.05 0.58 -0.81 0.05
1 8.78 878 -0.354 -9.472 2.859 7.904 -9.522 -23.926 269.974 614.899 3869.129 -0.969 0.307 0.350 0.05 0.58 -0.81 0.05
1 8.79 879 -0.445 -9.299 2.720 16.998 -10.040 -26.459 269.974 614.899 3869.129 -0.830 0.133 0.503 0.04 0.58 -0.81 0.05
1 8.80 880 -0.460 -8.983 2.658 24.841 -10.712 -27.802 209.863 629.890 3884.120 -0.766 -0.181 0.590 0.04 0.58 -0.81 0.05
1 8.81 881 -0.551 -8.394 2.567 23.102 -12.665 -26.154 209.863 629.890 3884.120 -0.624 -0.765 0.715 0.04 0.58 -0.82 0.05
1 8.82 882 -0.306 -8.188 2.442 16.663 -12.207 -25.482 224.854 644.880 3899.110 -0.819 -0.965 0.873 0.04 0.57 -0.82 0.05
1 8.83 883 -0.029 -8.437 2.399 5.676 -9.033 -21.942 209.863 629.890 3914.100 -1.010 -0.710 0.960 0.03 0.57 -0.82 0.04
1 8.84 884 0.182 -8.595 2.289 3.632 -5.463 -18.738 179.883 599.909 3959.071 -1.182 -0.554 1.075 0.03 0.57 -0.82 0.04
1 8.85 885 0.192 -8.691 2.351 5.920 -0.793 -15.991 44.971 614.899 3929.090 -1.156 -0.462 1.015 0.03 0.57 -0.82 0.04
1 8.86 886 0.192 -8.844 2.509 7.996 2.045 -14.587 44.971 614.899 3929.090 -1.125 -0.310 0.862 0.03 0.57 -0.82 0.04
1 8.87 887 0.359 -8.840 2.500 9.338 5.859 -14.648 194.873 539.948 3869.129 -1.265 -0.315 0.878 0.03 0.57 -0.82 0.04
1 8.88 888 0.436 -8.581 2.342 15.167 9.491 -14.313 194.873 539.948 3869.129 -1.314 -0.573 1.044 0.03 0.57 -0.82 0.04
1 8.89 889 0.493 -8.188 2.188 19.531 14.740 -11.322 89.941 539.948 3869.129 -1.346 -0.963 1.211 0.03 0.57 -0.82 0.03
1 8.90 890 0.311 -7.839 2.255 8.881 22.888 -5.066 104.932 479.987 3914.100 -1.148 -1.298 1.187 0.03 0.57 -0.82 0.03
1 8.91 891 0.125 -7.997 2.059 0.183 26.703 -1.282 119.922 494.978 3764.048 -0.966 -1.138 1.389 0.03 0.57 -0.82 0.03
1 8.92 892 -0.158 -8.346 1.891 -4.364 28.107 1.160 209.863 629.890 3809.019 -0.695 -0.789 1.551 0.03 0.57 -0.82 0.03
1 8.93 893 -0.335 -8.864 1.815 -5.157 27.252 1.801 209.863 629.890 3809.019 -0.531 -0.276 1.613 0.03 0.57 -0.82 0.03
1 8.94 894 -0.201 -9.275 1.810 -4.272 25.910 3.510 44.971 464.847 3719.077 -0.677 0.129 1.598 0.04 0.57 -0.82 0.03
1 8.95 895 -0.192 -9.381 1.757 -5.524 25.482 4.913 44.971 464.847 3719.077 -0.699 0.229 1.632 0.04 0.57 -0.82 0.03
1 8.96 896 -0.101 -9.314 1.906 0.122 25.726 5.859 224.854 419.876 3824.009 -0.804 0.155 1.461 0.04 0.57 -0.82 0.02
1 8.97 897 -0.455 -9.084 2.174 12.238 28.900 5.798 179.883 329.935 4019.032 -0.480 -0.078 1.177 0.04 0.57 -0.82 0.02
1 8.98 898 -0.560 -8.888 2.279 9.796 28.290 3.845 119.922 314.945 3794.028 -0.392 -0.269 1.079 0.04 0.57 -0.82 0.02
1 8.99 899 -0.891 -8.950 2.227 -3.052 24.750 0.183 179.883 524.958 3839.149 -0.077 -0.206 1.132 0.05 0.57 -0.82 0.02
1 9.00 900 -1.001 -9.572 2.188 -18.341 20.142 -3.082 179.883 524.958 3839.149 0.023 0.411 1.151 0.05 0.57 -0.82 0.02
1 9.01 901 -1.173 -10.798 2.174 -27.344 17.181 -5.554 329.935 344.925 3899.110 0.192 1.622 1.125 0.05 0.57 -0.82 0.02
1 9.02 902 -1.451 -11.421 2.112 -22.369 11.658 -8.911 329.935 344.925 3899.110 0.472 2.229 1.142 0.05 0.58 -0.82 0.02
1 9.03 903 -1.422 -11.579 1.887 -10.925 4.334 -10.101 314.945 479.987 3839.149 0.450 2.373 1.330 0.05 0.58 -0.81 0.02
1 9.04 904 -0.804 -10.793 1.868 -0.610 -9.064 -11.414 224.854 494.978 3719.077 -0.136 1.576 1.325 0.05 0.58 -0.81 0.02
1 9.05 905 -0.388 -10.544 2.270 -2.930 -12.421 -13.306 359.916 479.987 3839.149 -0.530 1.325 0.923 0.05 0.58 -0.81 0.01
1 9.06 906 -0.014 -10.908 3.812 -1.831 -4.700 -14.648 149.902 539.948 3719.077 -0.877 1.685 -0.622 0.05 0.58 -0.81 0.01
1 9.07 907 -1.293 -12.781 4.195 -13.367 13.855 -24.109 149.902 539.948 3719.077 0.426 3.554 -1.008 0.04 0.58 -0.81 0.01
1 9.08 908 -3.749 -13.652 3.419 -45.136 1.984 -62.287 284.964 524.958 3674.106 2.919 4.408 -0.273 0.04 0.58 -0.81 0.01
1 9.09 909 -2.998 -10.832 2.322 66.010 -57.892 -65.827 284.964 524.958 3674.106 2.244 1.555 0.746 0.04 0.58 -0.81 0.01
1 9.10 910 -1.001 -8.576 2.552 82.062 -70.862 -64.850 89.941 494.978 3794.028 0.364 -0.689 0.575 0.04 0.58 -0.81 0.01
1 9.11 911 1.010 -7.916 2.840 20.905 -57.251 -57.099 134.912 554.938 3959.071 -1.527 -1.315 0.413 0.03 0.58 -0.82 0
1 9.12 912 2.059 -9.932 3.462 -44.800 -15.137 -22.247 89.941 464.847 3794.028 -2.365 0.705 -0.172 0.02 0.58 -0.82 0
1 9.13 913 1.657 -11.569 3.333 -53.528 1.343 -10.834 -14.990 389.896 3719.077 -1.921 2.317 -0.112 0.02 0.58 -0.82 0
1 9.14 914 1.642 -12.029 3.606 -14.343 -0.275 -11.780 -14.990 389.896 3719.077 -1.890 2.754 -0.451 0.02 0.58 -0.81 0
1 9.15 915 2.121 -10.789 4.496 28.229 -2.563 -21.057 -119.922 344.925 3614.146 -2.347 1.512 -1.344 -0.01 -0.58 0.81 0
1 9.16 916 2.380 -9.400 4.789 29.724 6.042 -28.381 -119.922 344.925 3614.146 -2.570 0.139 -1.590 -0.01 -0.58 0.81 0
1 9.17 917 2.284 -8.749 4.420 15.350 17.120 -29.297 -89.941 464.847 3869.129 -2.435 -0.498 -1.176 -0.01 -0.58 0.82 0
1 9.18 918 1.796 -8.658 4.530 0.671 27.374 -28.748 -104.932 449.857 3884.120 -1.891 -0.576 -1.249 -0.01 -0.58 0.82 0.01
1 9.19 919 1.274 -9.117 4.975 3.235 36.713 -33.997 -104.932 449.857 3959.071 -1.284 -0.109 -1.671 -0.01 -0.58 0.82 0.01
1 9.20 920 1.255 -9.151 5.153 19.806 41.901 -37.354 14.990 314.945 3824.009 -1.224 -0.067 -1.826 -0.01 -0.57 0.82 0.02
1 9.21 921 0.555 -8.505 5.263 38.147 50.629 -42.877 14.990 314.945 3824.009 -0.483 -0.696 -1.887 -0.01 -0.57 0.82 0.02
1 9.22 922 -0.455 -7.556 5.196 47.791 57.709 -48.584 -134.912 224.854 3779.038 0.565 -1.616 -1.746 -0.01 -0.57 0.82 0.03
1 9.23 923 -2.006 -6.565 4.784 24.048 51.148 -52.307 -134.912 224.854 3779.038 2.154 -2.578 -1.259 -0.01 -0.57 0.82 0.03
1 9.24 924 -2.217 -7.097 4.401 -7.843 36.102 -54.535 -299.955 344.925 3644.126 2.411 -2.028 -0.832 -0.01 -0.56 0.83 0.04
1 9.25 925 -1.949 -8.361 4.276 -24.323 21.637 -54.382 -29.980 224.854 3809.019 2.198 -0.762 -0.706 -0.01 -0.56 0.82 0.04
1 9.26 926 -0.828 -9.908 4.386 -7.690 16.968 -42.145 -104.932 224.854 3704.087 1.173 0.771 -0.859 -0.01 -0.57 0.82 0.05
1 9.27 927 -0.273 -10.109 4.453 6.866 22.247 -31.220 -194.873 239.994 3719.077 0.665 0.972 -0.930 -0.01 -0.57 0.82 0.05
1 9.28 928 0.129 -10.042 4.372 9.094 25.269 -21.607 -194.873 239.994 3719.077 0.292 0.911 -0.836 -0.01 -0.57 0.82 0.05
1 9.29 929 0.436 -9.132 4.056 12.543 23.621 -15.289 -119.922 314.945 3614.146 0.001 0.009 -0.503 -0.01 -0.56 0.82 0.05
1 9.30 930 1.053 -8.461 3.807 15.869 24.902 -11.932 -119.922 314.945 3614.146 -0.609 -0.651 -0.228 -0.01 -0.56 0.82 0.06
1 9.31 931 1.341 -8.706 3.855 7.324 37.140 -3.784 -134.912 299.955 3734.067 -0.889 -0.396 -0.250 -0.01 -0.56 0.83 0.06
1 9.32 932 1.168 -8.811 3.649 6.378 48.096 4.517 -89.941 239.994 3719.077 -0.720 -0.283 -0.025 -0.01 -0.56 0.83 0.06
1 9.33 933 0.843 -8.629 3.539 11.749 54.962 12.268 -89.941 239.994 3719.077 -0.415 -0.461 0.099 -0.01 -0.56 0.83 0.06
1 9.34 934 0.364 -8.586 3.347 18.341 56.488 16.205 0.000 254.984 3674.106 -0.026 -0.490 0.334 -0.02 -0.56 0.83 0.06
1 9.35 935 0.321 -8.442 3.266 17.944 55.817 15.991 0.000 254.984 3674.106 -0.036 -0.624 0.444 -0.02 -0.56 0.83 0.06
1 9.36 936 0.369 -8.538 3.069 15.991 56.000 15.747 149.902 389.896 3614.146 -0.137 -0.519 0.665 -0.03 -0.56 0.83 0.06
1 9.37 937 0.306 -8.682 2.849 16.724 56.946 13.916 149.902 389.896 3614.146 -0.126 -0.368 0.907 -0.03 -0.55 0.83 0.06
1 9.38 938 0.163 -8.433 2.840 22.430 60.639 9.613 29.980 149.902 3599.005 -0.032 -0.609 0.938 -0.04 -0.55 0.83 0.06
1 9.39 939 -0.316 -8.270 2.763 25.086 60.974 5.646 104.932 179.883 3629.136 0.399 -0.761 1.042 -0.04 -0.55 0.83 0.07
1 9.40 940 -0.891 -7.939 3.132 21.545 56.610 1.190 29.980 299.955 3704.087 0.892 -1.064 0.739 -0.05 -0.55 0.83 0.07
1 9.41 941 -1.140 -8.050 3.108 18.311 55.054 1.160 194.873 269.974 3539.044 1.108 -0.942 0.791 -0.05 -0.55 0.83 0.07
1 9.42 942 -1.245 -8.097 3.170 4.700 52.338 1.343 194.873 269.974 3539.044 1.177 -0.887 0.743 -0.05 -0.55 0.83 0.07
1 9.43 943 -1.283 -8.538 3.160 2.563 52.643 1.556 284.964 254.984 3494.074 1.174 -0.445 0.754 -0.05 -0.55 0.83 0.07
1 9.44 944 -1.341 -8.442 2.988 3.754 51.483 0.732 284.964 254.984 3494.074 1.191 -0.541 0.927 -0.06 -0.54 0.83 0.07
1 9.45 945 -1.614 -8.433 2.782 4.334 45.410 -2.289 299.955 164.893 3509.064 1.425 -0.549 1.134 -0.06 -0.54 0.83 0.07
1 9.46 946 -1.451 -8.399 2.725 -3.052 37.689 -4.303 464.847 254.984 3524.054 1.228 -0.581 1.193 -0.06 -0.54 0.83 0.08
1 9.47 947 -1.240 -8.821 2.356 -12.299 30.548 -3.265 464.847 254.984 3524.054 0.990 -0.162 1.554 -0.07 -0.54 0.83 0.08
1 9.48 948 -0.828 -9.199 2.322 -10.712 26.886 -0.671 479.987 89.941 3539.044 0.538 0.195 1.536 -0.07 -0.55 0.83 0.08
1 9.49 949 -0.766 -8.864 2.198 2.319 26.520 -2.594 479.987 89.941 3539.044 0.458 -0.149 1.639 -0.07 -0.55 0.83 0.08
1 9.50 950 -0.589 -7.987 2.413 12.695 23.224 -8.057 419.876 149.902 3554.035 0.270 -1.025 1.422 -0.07 -0.55 0.83 0.08
1 9.51 951 -0.498 -7.374 2.188 7.874 19.196 -13.580 419.876 149.902 3554.035 0.180 -1.631 1.663 -0.07 -0.55 0.83 0.08
1 9.52 952 0.211 -7.667 2.107 -21.668 19.836 -14.557 539.948 74.951 3554.035 -0.518 -1.338 1.749 -0.07 -0.55 0.83 0.08
1 9.53 953 0.488 -8.222 2.083 -32.654 25.879 -13.428 404.886 89.941 3479.083 -0.785 -0.793 1.749 -0.07 -0.55 0.83 0.08
1 9.54 954 0.374 -8.950 1.906 -32.623 29.511 -13.641 404.886 89.941 3479.083 -0.664 -0.084 1.882 -0.07 -0.55 0.83 0.08
1 9.55 955 0.354 -9.577 2.016 -25.360 31.464 -16.632 569.929 224.854 3554.035 -0.630 0.500 1.667 -0.07 -0.55 0.83 0.08
1 9.56 956 0.110 -9.884 2.212 -20.691 30.151 -19.959 569.929 224.854 3554.035 -0.373 0.787 1.425 -0.07 -0.56 0.82 0.08
1 9.57 957 0.019 -10.066 2.437 -16.632 29.450 -21.027 509.968 164.893 3509.064 -0.266 0.953 1.161 -0.07 -0.56 0.82 0.09
1 9.58 958 -0.091 -10.181 2.356 -12.451 30.823 -20.050 509.968 164.893 3509.064 -0.140 1.055 1.210 -0.07 -0.56 0.82 0.09
1 9.59 959 -0.139 -10.401 2.787 -10.895 31.128 -16.480 539.948 224.854 3554.035 -0.080 1.265 0.752 -0.07 -0.56 0.82 0.09
1 9.60 960 0.115 -10.291 3.146 4.486 35.156 -12.604 449.857 164.893 3539.044 -0.326 1.147 0.374 -0.07 -0.56 0.82 0.09
1 9.61 961 0.201 -9.932 3.922 15.625 41.626 -9.766 449.857 164.893 3539.044 -0.410 0.787 -0.404 -0.08 -0.56 0.82 0.09
1 9.62 962 -0.010 -9.764 4.640 16.205 43.488 -2.228 599.909 299.955 3629.136 -0.203 0.627 -1.104 -0.08 -0.56 0.82 0.09
1 9.63 963 0.230 -10.075 4.717 -4.730 34.363 14.160 644.880 179.883 3524.054 -0.483 0.954 -1.143 -0.08 -0.56 0.82 0.09
1 9.64 964 0.623 -11.081 4.736 -25.482 36.072 24.292 644.880 299.955 3674.106 -0.916 1.954 -1.178 -0.08 -0.56 0.82 0.09
1 9.65 965 0.675 -11.751 4.841 -20.996 50.080 34.058 644.880 299.955 3674.106 -1.025 2.611 -1.323 -0.09 -0.56 0.82 0.09
1 9.66 966 -1.087 -9.697 4.573 12.939 60.211 40.619 689.851 89.941 3584.015 0.660 0.552 -1.077 -0.09 -0.56 0.82 0.09
1 9.67 967 -2.466 -7.652 3.821 37.293 52.765 35.065 749.961 224.854 3629.136 1.951 -1.479 -0.300 -0.09 -0.56 0.82 0.09
1 9.68 968 -2.787 -7.350 4.492 -6.928 45.136 25.879 749.961 224.854 3629.136 2.179 -1.753 -0.915 -0.1 -0.55 0.82 0.09
1 9.69 969 -2.548 -8.270 4.750 -43.091 44.708 16.388 809.922 314.945 3689.097 1.867 -0.825 -1.164 -0.1 -0.55 0.82 0.09
1 9.70 970 -1.781 -10.310 5.301 -27.344 31.891 17.212 914.854 119.922 3689.097 0.988 1.185 -1.816 -0.11 -0.56 0.82 0.09
1 9.71 971 -0.915 -10.482 5.095 -6.165 29.205 14.587 719.981 179.883 3524.054 0.083 1.347 -1.645 -0.11 -0.56 0.82 0.09
1 9.72 972 -0.431 -9.841 4.904 9.430 33.722 12.787 719.981 179.883 3524.054 -0.433 0.706 -1.460 -0.11 -0.56 0.82 0.09
1 9.73 973 0.292 -8.773 4.918 11.261 40.283 15.320 944.984 194.873 3719.077 -1.188 -0.353 -1.459 -0.11 -0.56 0.82 0.09
1 9.74 974 0.867 -9.036 5.018 -9.369 53.436 19.562 944.984 164.893 3509.064 -1.796 -0.079 -1.542 -0.12 -0.56 0.82 0.09
1 9.75 975 1.049 -10.027 5.023 -14.740 61.890 21.423 944.984 164.893 3509.064 -2.018 0.915 -1.549 -0.12 -0.56 0.82 0.09
1 9.76 976 1.006 -10.698 4.717 -0.458 67.078 17.304 989.955 239.994 3689.097 -2.034 1.581 -1.273 -0.12 -0.56 0.82 0.09
1 9.77 977 0.843 -9.745 4.516 27.374 69.641 -1.129 1019.936 89.941 3794.028 -1.977 0.637 -1.080 -0.13 -0.55 0.82 0.09
1 9.78 978 0.776 -9.247 4.827 23.377 73.151 -14.130 1079.896 179.883 3674.106 -1.931 0.153 -1.361 -0.13 -0.55 0.82 0.09
1 9.79 979 0.608 -9.596 4.745 6.592 80.139 -23.407 1079.896 179.883 3674.106 -1.764 0.512 -1.256 -0.14 -0.55 0.82 0.1
1 9.80 980 0.062 -9.630 4.042 8.545 85.816 -28.473 1034.926 149.902 3734.067 -1.219 0.544 -0.556 -0.14 -0.55 0.82 0.1
1 9.81 981 0.177 -9.323 4.061 26.184 85.419 -32.135 1079.896 104.932 3629.136 -1.333 0.239 -0.570 -0.14 -0.55 0.82 0.1
1 9.82 982 0.091 -9.089 4.080 19.318 92.774 -38.574 1079.896 104.932 3629.136 -1.235 0.014 -0.562 -0.14 -0.55 0.82 0.11
1 9.83 983 -0.259 -9.362 3.912 13.580 95.642 -40.833 1259.929 224.854 3839.149 -0.872 0.293 -0.374 -0.15 -0.55 0.82 0.11
1 9.84 984 -0.120 -9.184 3.816 25.055 90.119 -46.570 1349.871 89.941 3644.126 -0.981 0.120 -0.258 -0.15 -0.54 0.82 0.13
1 9.85 985 0.239 -8.892 3.745 29.266 90.699 -52.582 1394.991 74.951 3734.067 -1.312 -0.166 -0.162 -0.15 -0.54 0.82 0.13
1 9.86 986 0.623 -8.648 3.687 27.771 93.048 -55.725 1394.991 74.951 3734.067 -1.659 -0.403 -0.076 -0.16 -0.54 0.82 0.14
1 9.87 987 0.757 -8.567 3.625 21.088 96.955 -57.465 1469.942 149.902 3779.038 -1.753 -0.479 0.010 -0.16 -0.54 0.82 0.15
1 9.88 988 1.010 -8.916 3.639 15.228 102.356 -58.441 1454.952 119.922 3824.009 -1.967 -0.128 0.010 -0.16 -0.54 0.81 0.15
1 9.89 989 0.991 -9.074 3.467 19.623 111.206 -60.059 1454.952 119.922 3824.009 -1.908 0.029 0.191 -0.16 -0.54 0.81 0.16
1 9.90 990 0.881 -8.835 3.414 26.093 114.563 -60.394 1379.851 14.990 3539.044 -1.761 -0.210 0.253 -0.16 -0.53 0.81 0.17
1 9.91 991 0.857 -8.725 3.347 24.384 118.683 -59.387 1394.991 104.932 3809.019 -1.703 -0.316 0.339 -0.17 -0.53 0.81 0.17
1 9.92 992 0.661 -8.844 3.280 14.679 127.289 -58.136 1454.952 44.971 3824.009 -1.452 -0.189 0.436 -0.17 -0.53 0.81 0.19
1 9.93 993 0.393 -9.103 3.089 12.939 130.921 -56.458 1454.952 44.971 3824.009 -1.166 0.069 0.630 -0.18 -0.53 0.81 0.2
1 9.94 994 0.077 -9.266 2.955 14.191 131.440 -57.495 1559.884 194.873 3929.090 -0.838 0.231 0.765 -0.18 -0.53 0.81 0.2
1 9.95 995 -0.034 -9.568 3.089 18.555 130.707 -57.862 1694.946 104.932 3599.005 -0.716 0.532 0.631 -0.19 -0.53 0.8 0.21
1 9.96 996 0.062 -9.400 3.141 20.569 131.165 -57.312 1694.946 104.932 3599.005 -0.799 0.366 0.586 -0.19 -0.52 0.8 0.22
1 9.97 997 0.335 -9.141 3.093 24.048 132.904 -56.336 1694.946 149.902 3779.038 -1.060 0.111 0.643 -0.19 -0.52 0.8 0.22
1 9.98 998 0.168 -8.912 3.041 24.475 134.064 -55.573 2024.881 119.922 3974.061 -0.881 -0.114 0.709 -0.2 -0.52 0.8 0.23
1 9.99 999 0.359 -9.041 3.108 18.311 138.672 -53.131 1964.920 119.922 3929.090 -1.060 0.025 0.670 -0.2 -0.52 0.8 0.25
1 10.00 1000 0.445 -9.094 3.065 18.677 141.449 -51.575 1964.920 119.922 3929.090 -1.145 0.081 0.720 -0.21 -0.51 0.79 0.25
1 10.01 1001 0.441 -9.290 3.079 20.599 144.593 -50.354 2069.852 44.971 3899.110 -1.143 0.281 0.713 -0.21 -0.51 0.79 0.26
1 10.02 1002 0.359 -9.218 2.950 21.881 146.485 -49.256 2024.881 194.873 3974.061 -1.068 0.213 0.852 -0.22 -0.51 0.79 0.27
1 10.03 1003 0.254 -9.041 3.017 22.919 147.706 -47.974 2024.881 194.873 3974.061 -0.972 0.041 0.795 -0.22 -0.51 0.79 0.27
1 10.04 1004 0.283 -9.031 3.122 20.538 148.346 -48.859 2189.923 104.932 4019.032 -1.012 0.037 0.700 -0.23 -0.5 0.78 0.28
1 10.05 1005 0.302 -8.859 2.945 19.836 148.224 -50.965 2159.943 149.902 4169.084 -1.043 -0.131 0.886 -0.23 -0.5 0.78 0.29
1 10.06 1006 0.541 -8.897 3.127 23.926 147.980 -55.115 2324.985 269.974 4184.074 -1.294 -0.085 0.719 -0.24 -0.5 0.78 0.3
1 10.07 1007 0.546 -8.605 3.055 26.520 148.407 -58.624 2324.985 269.974 4184.074 -1.299 -0.371 0.804 -0.25 -0.49 0.78 0.31
1 10.08 1008 0.785 -8.437 2.888 26.123 148.713 -60.974 2309.995 74.951 4124.113 -1.535 -0.532 0.989 -0.25 -0.49 0.77 0.32
1 10.09 1009 0.833 -8.414 2.974 21.454 152.588 -62.012 2459.897 269.974 4394.087 -1.575 -0.551 0.917 -0.25 -0.49 0.77 0.32
1 10.10 1010 0.651 -8.658 2.878 17.975 156.952 -64.667 2459.897 269.974 4394.087 -1.387 -0.303 1.020 -0.26 -0.48 0.77 0.33
1 10.11 1011 0.350 -9.084 2.926 18.677 161.347 -65.827 2399.937 194.873 4364.107 -1.079 0.123 0.974 -0.26 -0.48 0.76 0.34
1 10.12 1012 0.268 -9.223 3.060 23.193 160.523 -66.620 2579.969 269.974 4439.058 -0.995 0.262 0.841 -0.27 -0.48 0.76 0.35
1 10.13 1013 0.474 -9.094 3.295 26.489 157.319 -68.390 2579.969 269.974 4439.058 -1.197 0.135 0.613 -0.27 -0.48 0.76 0.35
1 10.14 1014 0.656 -9.319 3.505 22.369 161.438 -71.106 2549.989 299.955 4529.000 -1.360 0.372 0.432 -0.28 -0.47 0.75 0.37
1 10.15 1015 0.474 -9.424 3.611 24.689 164.490 -71.839 2624.940 254.984 4589.110 -1.166 0.481 0.338 -0.28 -0.47 0.75 0.38
1 10.16 1016 0.196 -9.433 3.477 26.184 163.605 -72.541 2669.911 299.955 4589.110 -0.879 0.497 0.487 -0.29 -0.46 0.74 0.38
1 10.17 1017 -0.010 -9.362 3.606 25.391 162.385 -72.876 2669.911 299.955 4589.110 -0.665 0.431 0.373 -0.29 -0.46 0.74 0.39
1 10.18 1018 -0.010 -9.237 3.567 26.306 159.363 -70.526 2759.852 164.893 4784.133 -0.658 0.313 0.427 -0.29 -0.46 0.74 0.4
1 10.19 1019 -0.077 -9.271 3.534 24.201 159.516 -68.207 2594.959 404.886 4769.143 -0.585 0.355 0.479 -0.3 -0.45 0.73 0.41
1 10.20 1020 -0.172 -9.156 3.567 23.590 160.157 -64.820 2594.959 404.886 4769.143 -0.488 0.246 0.460 -0.3 -0.45 0.73 0.41
1 10.21 1021 -0.570 -8.955 3.453 22.736 160.431 -61.859 2849.943 479.987 4874.075 -0.106 0.058 0.602 -0.31 -0.44 0.72 0.43
1 10.22 1022 -0.560 -9.146 3.496 19.989 160.065 -60.425 2894.914 464.847 -4859.984 -0.129 0.256 0.569 -0.31 -0.44 0.72 0.43
