COL1	TIME	ACC_X	ACC_Y	ACC_Z	GYR_X	GYR_Y	GYR_Z	MAG_X	MAG_Y	MAG_Z	LACC_X	LACC_Y	LACC_Z	QUAT_X	QUAT_Y	QUAT_Z	QUAT_W
1 0.00 0 0.761 -9.802 0.967 -0.702 -1.038 1.312 124.269 3272.068 -3071.649 -0.219 0.069 0.038 -0.02 -0.67 0.74 0.06
1 0.01 1 0.503 -9.817 1.034 -1.556 -0.702 1.556 109.279 3362.010 -3026.678 0.040 0.083 -0.029 -0.02 -0.67 0.74 0.06
1 0.02 2 0.503 -9.898 0.919 -1.251 -0.854 1.099 124.269 3302.049 -2996.698 0.040 0.165 0.086 -0.02 -0.67 0.74 0.06
1 0.03 3 0.484 -9.836 0.953 -1.617 -1.221 1.434 124.269 3302.049 -2996.698 0.059 0.102 0.052 -0.02 -0.67 0.74 0.06
1 0.04 4 0.503 -9.908 1.025 -1.648 -0.854 1.038 139.259 3391.990 -3026.678 0.039 0.174 -0.021 -0.02 -0.67 0.74 0.06
1 0.05 5 0.560 -9.898 0.910 -1.678 -0.336 1.373 94.289 3227.098 -2996.698 -0.019 0.165 0.094 -0.02 -0.67 0.74 0.06
1 0.06 6 0.450 -9.841 1.020 -1.526 -0.671 1.160 34.178 3287.059 -2846.646 0.091 0.107 -0.017 -0.02 -0.67 0.74 0.06
1 0.07 7 0.632 -9.836 0.800 -1.312 -1.038 0.824 34.178 3287.059 -2846.646 -0.091 0.102 0.203 -0.02 -0.67 0.74 0.06
1 0.08 8 0.589 -9.783 0.852 -1.373 0.000 0.977 289.312 3317.039 -2981.708 -0.048 0.049 0.150 -0.02 -0.67 0.74 0.06
1 0.09 9 0.627 -9.951 0.886 -1.373 -0.031 1.495 49.168 3347.020 -2936.587 -0.086 0.217 0.115 -0.02 -0.67 0.74 0.06
1 0.10 10 0.570 -9.769 1.030 -1.404 0.183 1.221 49.168 3347.020 -2936.587 -0.028 0.035 -0.029 -0.02 -0.67 0.74 0.06
1 0.11 11 0.488 -9.807 0.891 -1.251 -0.305 1.373 64.308 3242.088 -2981.708 0.053 0.073 0.109 -0.02 -0.67 0.74 0.06
1 0.12 12 0.627 -9.826 0.919 -1.648 -0.061 1.068 64.308 3242.088 -2981.708 -0.086 0.092 0.080 -0.02 -0.67 0.74 0.06
1 0.13 13 0.469 -9.855 0.867 -1.312 -0.031 1.587 139.259 3362.010 -2981.708 0.073 0.121 0.132 -0.02 -0.67 0.74 0.06
1 0.14 14 0.532 -9.955 0.963 -1.343 0.305 0.916 139.259 3362.010 -2981.708 0.010 0.221 0.035 -0.02 -0.67 0.74 0.06
1 0.15 15 0.618 -9.850 0.967 -1.465 -0.366 0.977 199.220 3377.000 -3146.600 -0.076 0.116 0.030 -0.02 -0.67 0.74 0.06
1 0.16 16 0.488 -9.888 0.881 -0.549 0.031 0.793 64.308 3391.990 -3101.629 0.054 0.154 0.116 -0.02 -0.67 0.74 0.06
1 0.17 17 0.469 -9.802 0.924 -0.580 -0.031 0.580 64.308 3391.990 -3101.629 0.073 0.068 0.072 -0.02 -0.67 0.74 0.06
1 0.18 18 0.560 -9.994 0.915 -1.038 0.092 0.885 109.279 3317.039 -2906.606 -0.018 0.259 0.080 -0.02 -0.67 0.74 0.06
1 0.19 19 0.508 -9.884 0.953 -1.007 -0.427 1.251 184.230 3287.059 -2876.626 0.034 0.149 0.041 -0.02 -0.67 0.74 0.06
1 0.20 20 0.479 -9.903 1.034 -1.038 -0.397 1.068 184.230 3317.039 -3101.629 0.062 0.168 -0.042 -0.02 -0.67 0.74 0.06
1 0.21 21 0.599 -9.879 0.934 -1.068 -0.275 1.831 184.230 3317.039 -3101.629 -0.058 0.144 0.059 -0.02 -0.67 0.74 0.06
1 0.22 22 0.575 -9.817 0.939 -0.885 -0.946 1.617 109.279 3317.039 -2981.708 -0.034 0.082 0.053 -0.02 -0.67 0.74 0.06
1 0.23 23 0.594 -9.836 0.939 -0.519 -0.641 1.404 94.289 3302.049 -2996.698 -0.053 0.101 0.053 -0.02 -0.67 0.74 0.06
1 0.24 24 0.469 -9.831 0.934 -0.793 -0.580 0.977 94.289 3302.049 -2996.698 0.072 0.096 0.058 -0.02 -0.67 0.74 0.06
1 0.25 25 0.579 -9.855 1.010 -1.007 -1.129 1.221 64.308 3317.039 -2876.626 -0.039 0.120 -0.019 -0.02 -0.67 0.74 0.06
1 0.26 26 0.431 -9.682 0.943 -0.793 -0.824 1.251 49.168 3347.020 -3041.668 0.111 -0.052 0.048 -0.02 -0.67 0.74 0.06
1 0.27 27 0.541 -9.797 0.977 -0.732 -0.763 0.885 49.168 3347.020 -3041.668 0.000 0.063 0.014 -0.02 -0.67 0.74 0.06
1 0.28 28 0.570 -9.802 0.895 -1.312 -0.763 0.977 184.230 3391.990 -2981.708 -0.029 0.067 0.094 -0.02 -0.67 0.74 0.06
1 0.29 29 0.460 -9.826 0.910 -0.580 -0.916 0.397 214.210 3287.059 -3026.678 0.081 0.091 0.079 -0.02 -0.67 0.74 0.06
1 0.30 30 0.618 -9.855 0.948 -0.427 -0.854 0.977 124.269 3302.049 -2936.587 -0.078 0.120 0.040 -0.02 -0.67 0.74 0.06
1 0.31 31 0.699 -9.845 0.977 -0.702 -0.549 0.610 124.269 3302.049 -2936.587 -0.158 0.110 0.011 -0.02 -0.67 0.74 0.06
1 0.32 32 0.589 -9.888 1.025 -1.190 -1.007 0.641 94.289 3302.049 -2996.698 -0.047 0.153 -0.037 -0.02 -0.67 0.74 0.06
1 0.33 33 0.532 -9.831 0.963 -1.892 -0.854 0.549 49.168 3377.000 -3116.620 0.011 0.096 0.025 -0.02 -0.67 0.74 0.06
1 0.34 34 0.512 -9.879 1.034 -1.495 -0.916 0.610 49.168 3377.000 -3116.620 0.030 0.144 -0.047 -0.02 -0.67 0.74 0.06
1 0.35 35 0.498 -9.831 0.953 -1.556 -1.251 0.763 139.259 3391.990 -2906.606 0.044 0.096 0.034 -0.02 -0.67 0.74 0.06
1 0.36 36 0.512 -9.879 0.943 -1.251 -0.610 0.153 199.220 3302.049 -3041.668 0.030 0.144 0.043 -0.02 -0.67 0.74 0.06
1 0.37 37 0.503 -9.879 0.929 -0.885 -0.854 0.793 94.289 3227.098 -2966.717 0.039 0.144 0.057 -0.02 -0.67 0.74 0.06
1 0.38 38 0.541 -9.908 0.905 -1.038 -0.946 0.824 94.289 3227.098 -2966.717 -0.000 0.172 0.081 -0.02 -0.67 0.74 0.06
1 0.39 39 0.532 -9.860 1.049 -0.916 -0.916 0.610 49.168 3151.997 -2861.636 0.009 0.124 -0.063 -0.02 -0.67 0.74 0.06
1 0.40 40 0.522 -9.893 0.977 -0.885 -1.160 0.793 214.210 3317.039 -3056.659 0.019 0.158 0.009 -0.02 -0.67 0.74 0.06
1 0.41 41 0.608 -9.908 0.915 -1.160 -1.038 0.671 214.210 3317.039 -3056.659 -0.067 0.172 0.070 -0.02 -0.67 0.74 0.06
1 0.42 42 0.575 -9.864 0.939 -0.305 -0.824 0.946 49.168 3272.068 -2966.717 -0.034 0.129 0.046 -0.02 -0.67 0.74 0.06
1 0.43 43 0.536 -9.898 0.766 -0.061 -1.007 1.495 184.230 3242.088 -2981.708 0.005 0.162 0.217 -0.02 -0.67 0.74 0.06
1 0.44 44 0.579 -9.831 0.872 -0.519 -1.770 0.763 -40.624 3166.987 -3101.629 -0.038 0.095 0.110 -0.02 -0.67 0.74 0.06
1 0.45 45 0.517 -9.960 1.073 -0.336 -1.862 0.885 -40.624 3166.987 -3101.629 0.025 0.225 -0.092 -0.02 -0.67 0.74 0.06
1 0.46 46 0.632 -9.783 0.986 -0.580 -1.587 0.854 124.269 3302.049 -2996.698 -0.090 0.047 -0.005 -0.02 -0.67 0.74 0.06
1 0.47 47 0.713 -9.836 0.905 -0.397 -1.434 0.610 229.201 3227.098 -3041.668 -0.171 0.100 0.076 -0.02 -0.67 0.74 0.06
1 0.48 48 0.575 -9.750 1.073 -0.610 -1.282 0.641 229.201 3227.098 -3041.668 -0.031 0.014 -0.092 -0.02 -0.67 0.74 0.06
1 0.49 49 0.560 -9.893 1.015 -0.610 -1.587 0.824 154.250 3347.020 -2966.717 -0.017 0.158 -0.035 -0.02 -0.67 0.74 0.06
1 0.50 50 0.623 -9.874 0.963 0.000 -0.885 1.038 -25.633 3302.049 -2891.616 -0.080 0.138 0.019 -0.02 -0.67 0.74 0.06
1 0.51 51 0.584 -9.922 1.116 -0.244 -0.427 1.434 -40.624 3287.059 -2906.606 -0.040 0.186 -0.134 -0.02 -0.67 0.74 0.06
1 0.52 52 0.570 -9.903 0.881 -0.031 -0.336 1.007 -40.624 3287.059 -2906.606 -0.025 0.167 0.101 -0.02 -0.67 0.74 0.06
1 0.53 53 0.551 -9.855 1.053 -0.122 -0.488 1.404 139.259 3212.107 -3026.678 -0.006 0.119 -0.071 -0.02 -0.67 0.74 0.06
1 0.54 54 0.627 -9.860 0.967 0.000 -0.519 1.282 124.269 3347.020 -2891.616 -0.083 0.124 0.015 -0.02 -0.67 0.74 0.06
1 0.55 55 0.551 -9.960 0.905 -0.061 -0.214 1.251 124.269 3347.020 -2891.616 -0.006 0.225 0.077 -0.02 -0.67 0.74 0.06
1 0.56 56 0.503 -9.970 0.943 -0.031 -0.549 0.885 184.230 3287.059 -2981.708 0.042 0.234 0.038 -0.02 -0.67 0.74 0.06
1 0.57 57 0.469 -9.831 0.939 0.214 -1.221 0.885 139.259 3317.039 -2951.577 0.074 0.095 0.043 -0.02 -0.67 0.74 0.06
1 0.58 58 0.460 -9.879 0.814 0.153 -0.916 0.732 184.230 3317.039 -2951.577 0.084 0.143 0.169 -0.02 -0.67 0.74 0.06
1 0.59 59 0.670 -9.912 0.953 0.549 -1.221 0.580 184.230 3317.039 -2951.577 -0.128 0.177 0.031 -0.02 -0.67 0.74 0.06
1 0.60 60 0.508 -9.951 0.972 0.366 -0.977 0.977 19.188 3272.068 -2891.616 0.035 0.216 0.014 -0.02 -0.67 0.74 0.06
1 0.61 61 0.642 -9.841 0.986 -0.031 -1.312 0.366 124.269 3302.049 -2966.717 -0.099 0.106 0.002 -0.02 -0.67 0.74 0.06
1 0.62 62 0.498 -9.797 0.982 -0.122 -1.007 0.916 124.269 3302.049 -2966.717 0.045 0.063 0.009 -0.02 -0.67 0.74 0.06
1 0.63 63 0.546 -9.908 0.876 -0.183 -1.068 1.404 34.178 3317.039 -3056.659 -0.003 0.173 0.114 -0.02 -0.67 0.74 0.06
1 0.64 64 0.589 -9.922 0.967 -0.244 -0.946 1.251 94.289 3272.068 -2891.616 -0.045 0.187 0.022 -0.02 -0.67 0.74 0.06
1 0.65 65 0.651 -9.788 0.943 -0.488 -0.824 0.397 109.279 3287.059 -2981.708 -0.108 0.053 0.045 -0.02 -0.67 0.74 0.06
1 0.66 66 0.522 -9.888 1.010 0.092 -1.343 0.549 109.279 3287.059 -2981.708 0.022 0.154 -0.021 -0.02 -0.67 0.74 0.06
1 0.67 67 0.522 -9.764 1.030 0.153 -0.854 1.312 49.168 3302.049 -2966.717 0.023 0.029 -0.040 -0.02 -0.67 0.74 0.06
1 0.68 68 0.546 -9.826 0.905 0.397 -0.763 0.885 274.171 3407.130 -2996.698 -0.001 0.092 0.087 -0.02 -0.67 0.74 0.06
1 0.69 69 0.656 -9.893 0.963 -0.458 -1.465 0.732 274.171 3407.130 -2996.698 -0.111 0.159 0.031 -0.02 -0.67 0.74 0.06
1 0.70 70 0.608 -9.807 0.895 -0.275 -0.305 1.160 49.168 3107.026 -2891.616 -0.063 0.073 0.098 -0.02 -0.67 0.74 0.06
1 0.71 71 0.599 -9.797 1.025 -0.244 -0.580 1.221 49.168 3107.026 -2891.616 -0.053 0.063 -0.031 -0.02 -0.67 0.74 0.06
1 0.72 72 0.479 -9.793 0.967 -0.610 -0.641 0.793 139.259 3212.107 -2951.577 0.068 0.058 0.026 -0.02 -0.67 0.74 0.06
1 0.73 73 0.479 -9.893 1.053 -0.610 -0.397 0.763 139.259 3212.107 -2951.577 0.068 0.159 -0.060 -0.02 -0.67 0.74 0.06
1 0.74 74 0.484 -9.721 0.977 -0.549 -0.305 0.793 154.250 3302.049 -2891.616 0.063 -0.013 0.017 -0.02 -0.67 0.74 0.06
1 0.75 75 0.666 -9.759 0.953 -0.427 -0.275 1.068 154.250 3227.098 -2891.616 -0.119 0.025 0.041 -0.02 -0.67 0.74 0.06
1 0.76 76 0.474 -9.826 0.982 -0.519 -0.153 1.129 154.250 3227.098 -2891.616 0.073 0.092 0.012 -0.02 -0.67 0.74 0.06
1 0.77 77 0.498 -9.884 0.943 -0.610 0.305 0.580 49.168 3302.049 -2936.587 0.049 0.149 0.050 -0.02 -0.67 0.74 0.06
1 0.78 78 0.512 -9.821 0.967 -1.007 -0.305 1.556 49.168 3302.049 -2936.587 0.034 0.087 0.026 -0.02 -0.67 0.74 0.06
1 0.79 79 0.464 -9.874 1.025 -0.671 -0.305 0.977 94.289 3347.020 -2996.698 0.081 0.140 -0.031 -0.02 -0.67 0.74 0.06
1 0.80 80 0.589 -9.754 1.006 -0.519 -0.488 0.610 94.289 3347.020 -2996.698 -0.044 0.020 -0.012 -0.02 -0.67 0.74 0.06
1 0.81 81 0.546 -9.893 0.963 -0.671 -0.366 0.946 124.269 3377.000 -2996.698 -0.001 0.159 0.031 -0.02 -0.67 0.74 0.06
1 0.82 82 0.579 -9.759 0.972 -0.793 -0.336 1.648 49.168 3302.049 -2966.717 -0.035 0.025 0.021 -0.02 -0.67 0.74 0.06
1 0.83 83 0.378 -9.869 0.929 -0.549 -0.732 1.282 49.168 3302.049 -2966.717 0.166 0.135 0.064 -0.02 -0.67 0.74 0.06
1 0.84 84 0.608 -9.841 1.053 -0.671 -0.916 1.526 94.289 3302.049 -3116.620 -0.064 0.106 -0.061 -0.02 -0.67 0.74 0.06
1 0.85 85 0.584 -9.841 1.049 -0.397 -1.190 1.556 94.289 3302.049 -3116.620 -0.041 0.106 -0.057 -0.02 -0.67 0.74 0.06
1 0.86 86 0.690 -9.879 1.125 -1.648 -0.519 1.526 124.269 3407.130 -2996.698 -0.146 0.144 -0.133 -0.02 -0.67 0.74 0.06
1 0.87 87 0.603 -9.884 1.077 -0.610 -0.427 1.892 94.289 3347.020 -2936.587 -0.059 0.149 -0.085 -0.02 -0.67 0.74 0.06
1 0.88 88 0.575 -9.912 0.996 -0.244 -0.122 1.038 19.188 3302.049 -2891.616 -0.030 0.178 -0.003 -0.02 -0.67 0.74 0.06
1 0.89 89 0.608 -9.841 1.068 -0.214 -0.061 1.038 139.259 3362.010 -2906.606 -0.063 0.106 -0.075 -0.02 -0.67 0.74 0.06
1 0.90 90 0.512 -9.706 0.972 -0.336 0.092 1.770 139.259 3362.010 -2906.606 0.033 -0.028 0.021 -0.02 -0.67 0.74 0.06
1 0.91 91 0.512 -9.807 0.972 -0.824 -0.580 1.129 94.289 3272.068 -2936.587 0.033 0.073 0.021 -0.02 -0.67 0.74 0.06
1 0.92 92 0.474 -9.817 0.982 -0.458 0.000 1.343 94.289 3272.068 -2936.587 0.071 0.082 0.013 -0.02 -0.67 0.74 0.06
1 0.93 93 0.479 -9.917 1.010 -0.732 -0.061 1.129 109.279 3242.088 -2951.577 0.066 0.183 -0.016 -0.02 -0.67 0.74 0.06
1 0.94 94 0.546 -9.797 1.020 0.122 -0.244 1.434 49.168 3151.997 -2786.685 -0.002 0.063 -0.026 -0.02 -0.67 0.74 0.06
1 0.95 95 0.508 -9.903 1.125 -0.366 -0.061 1.007 199.220 3377.000 -2891.616 0.036 0.169 -0.130 -0.02 -0.67 0.74 0.06
1 0.96 96 0.488 -9.922 1.020 -0.336 -0.092 1.617 -10.643 3242.088 -2981.708 0.055 0.188 -0.025 -0.02 -0.67 0.74 0.06
1 0.97 97 0.503 -9.932 0.953 0.061 -0.488 0.977 -10.643 3242.088 -2981.708 0.040 0.197 0.043 -0.02 -0.67 0.74 0.06
1 0.98 98 0.532 -9.955 1.082 -0.397 -0.336 1.160 139.259 3242.088 -2981.708 0.011 0.221 -0.087 -0.02 -0.67 0.74 0.06
1 0.99 99 0.455 -9.855 1.063 0.031 -0.610 1.221 139.259 3242.088 -2981.708 0.087 0.121 -0.067 -0.02 -0.67 0.74 0.06
1 1.00 100 0.560 -9.850 1.063 -0.061 -0.427 1.251 229.201 3182.127 -3041.668 -0.018 0.116 -0.067 -0.02 -0.67 0.74 0.06
1 1.01 101 0.522 -9.884 1.020 -0.183 -0.793 1.068 34.178 3287.059 -2981.708 0.019 0.149 -0.023 -0.02 -0.67 0.74 0.06
1 1.02 102 0.498 -9.817 0.967 -0.244 -0.519 0.916 139.259 3287.059 -3026.678 0.043 0.082 0.030 -0.02 -0.67 0.74 0.06
1 1.03 103 0.651 -9.850 1.010 -0.305 -0.122 0.916 214.210 3166.987 -2951.577 -0.111 0.116 -0.013 -0.02 -0.67 0.74 0.06
1 1.04 104 0.484 -9.908 0.934 0.092 -1.099 0.519 214.210 3166.987 -2951.577 0.057 0.173 0.064 -0.02 -0.67 0.74 0.06
1 1.05 105 0.527 -9.740 1.044 0.061 -0.580 0.977 199.220 3227.098 -2966.717 0.014 0.006 -0.046 -0.02 -0.67 0.74 0.06
1 1.06 106 0.608 -9.898 1.020 0.427 -0.397 1.923 199.220 3227.098 -2966.717 -0.067 0.164 -0.022 -0.02 -0.67 0.74 0.06
1 1.07 107 0.608 -9.697 1.010 -0.549 0.305 1.648 109.279 3317.039 -2846.646 -0.068 -0.037 -0.010 -0.02 -0.67 0.74 0.06
1 1.08 108 0.503 -9.831 1.001 -0.641 0.275 1.709 214.210 3391.990 -2951.577 0.037 0.097 0.002 -0.02 -0.67 0.74 0.06
1 1.09 109 0.517 -9.821 1.058 -0.397 0.397 1.526 19.188 3302.049 -2966.717 0.021 0.088 -0.054 -0.02 -0.67 0.74 0.06
1 1.10 110 0.594 -9.697 1.058 -0.549 0.610 1.190 199.220 3407.130 -3071.649 -0.056 -0.037 -0.052 -0.02 -0.67 0.74 0.06
1 1.11 111 0.527 -9.860 0.939 -0.458 0.305 1.770 199.220 3407.130 -3071.649 0.010 0.126 0.069 -0.02 -0.67 0.74 0.06
1 1.12 112 0.488 -9.946 1.025 -0.427 0.153 1.434 94.289 3107.026 -2996.698 0.047 0.213 -0.018 -0.02 -0.67 0.74 0.06
1 1.13 113 0.464 -9.740 1.068 -0.214 -0.183 1.709 94.289 3107.026 -2996.698 0.071 0.007 -0.060 -0.02 -0.67 0.74 0.06
1 1.14 114 0.508 -9.841 1.149 -1.282 -0.519 0.977 154.250 3347.020 -2996.698 0.027 0.107 -0.141 -0.02 -0.67 0.74 0.06
1 1.15 115 0.407 -9.917 0.996 -1.373 -0.153 0.885 334.282 3287.059 -2951.577 0.127 0.184 0.013 -0.02 -0.67 0.74 0.06
1 1.16 116 0.455 -10.013 1.068 -0.610 -0.732 1.251 184.230 3137.006 -2906.606 0.078 0.280 -0.058 -0.02 -0.67 0.74 0.06
1 1.17 117 0.464 -9.864 1.082 -0.580 -0.427 1.007 94.289 3227.098 -3041.668 0.068 0.131 -0.073 -0.02 -0.67 0.74 0.06
1 1.18 118 0.551 -9.721 1.058 -0.885 -0.488 1.099 94.289 3227.098 -3041.668 -0.019 -0.013 -0.049 -0.02 -0.67 0.74 0.06
1 1.19 119 0.455 -9.778 1.144 -0.916 -0.275 0.977 259.181 3317.039 -2981.708 0.077 0.045 -0.135 -0.02 -0.67 0.74 0.06
1 1.20 120 0.618 -9.922 1.140 -0.641 -0.427 1.587 259.181 3317.039 -2981.708 -0.086 0.189 -0.130 -0.02 -0.67 0.74 0.06
1 1.21 121 0.694 -9.893 1.111 -0.549 -0.732 1.556 229.201 3347.020 -3146.600 -0.163 0.160 -0.100 -0.02 -0.67 0.74 0.06
1 1.22 122 0.450 -9.903 0.967 -0.458 0.000 1.556 124.269 3302.049 -2936.587 0.081 0.170 0.044 -0.02 -0.67 0.74 0.06
1 1.23 123 0.541 -9.764 1.068 0.031 -0.763 0.946 229.201 3227.098 -3071.649 -0.011 0.031 -0.055 -0.02 -0.67 0.74 0.06
1 1.24 124 0.603 -9.778 1.216 -0.519 0.397 1.465 154.250 3437.111 -3041.668 -0.074 0.045 -0.202 -0.02 -0.67 0.74 0.06
1 1.25 125 0.484 -9.812 1.087 -0.580 0.244 1.099 154.250 3437.111 -3041.668 0.046 0.079 -0.070 -0.02 -0.67 0.74 0.06
1 1.26 126 0.460 -9.826 1.140 -0.519 0.000 1.007 154.250 3377.000 -2996.698 0.069 0.093 -0.122 -0.02 -0.67 0.74 0.06
1 1.27 127 0.436 -9.874 1.111 -0.122 -0.183 1.282 154.250 3377.000 -2996.698 0.093 0.141 -0.093 -0.02 -0.67 0.74 0.06
1 1.28 128 0.536 -9.855 1.010 0.397 0.458 0.916 109.279 3317.039 -3056.659 -0.008 0.122 0.009 -0.02 -0.67 0.74 0.06
1 1.29 129 0.460 -9.788 1.049 0.153 0.183 0.885 184.230 3287.059 -2981.708 0.068 0.056 -0.026 -0.02 -0.67 0.74 0.06
1 1.30 130 0.560 -9.888 0.924 0.061 0.458 0.916 184.230 3287.059 -2981.708 -0.033 0.156 0.099 -0.02 -0.67 0.74 0.06
1 1.31 131 0.512 -9.927 0.996 0.122 0.214 1.495 94.289 3302.049 -2996.698 0.014 0.195 0.031 -0.02 -0.67 0.74 0.06
1 1.32 132 0.503 -9.884 0.872 0.671 1.251 1.587 94.289 3302.049 -2996.698 0.023 0.152 0.157 -0.02 -0.67 0.74 0.06
1 1.33 133 0.464 -9.793 1.058 -0.336 0.854 1.465 259.181 3287.059 -3056.659 0.059 0.061 -0.028 -0.02 -0.67 0.74 0.06
1 1.34 134 0.455 -9.912 1.101 0.214 1.434 1.160 259.181 3287.059 -3056.659 0.067 0.181 -0.069 -0.02 -0.67 0.74 0.06
1 1.35 135 0.484 -9.750 1.025 -0.366 0.885 1.617 184.230 3362.010 -2906.606 0.038 0.018 0.010 -0.02 -0.67 0.74 0.07
1 1.36 136 0.455 -9.807 0.943 0.580 1.007 1.526 64.308 3242.088 -2906.606 0.065 0.076 0.092 -0.02 -0.67 0.74 0.07
1 1.37 137 0.441 -9.912 0.977 0.061 0.427 1.587 64.308 3242.088 -2906.606 0.078 0.181 0.061 -0.02 -0.67 0.74 0.07
1 1.38 138 0.302 -9.793 1.034 0.183 0.183 1.160 289.312 3317.039 -3131.610 0.214 0.062 0.007 -0.02 -0.67 0.74 0.07
1 1.39 139 0.350 -9.812 1.044 0.519 -0.275 1.770 289.312 3317.039 -3131.610 0.163 0.081 -0.000 -0.02 -0.67 0.74 0.07
1 1.40 140 0.493 -9.888 0.924 0.946 -0.275 1.404 124.269 3347.020 -3071.649 0.018 0.158 0.121 -0.02 -0.67 0.74 0.07
1 1.41 141 0.431 -9.932 1.073 0.549 -0.305 1.587 124.269 3347.020 -3071.649 0.079 0.201 -0.025 -0.02 -0.67 0.74 0.07
1 1.42 142 0.445 -9.917 0.977 1.038 -0.458 1.312 154.250 3182.127 -3071.649 0.063 0.187 0.073 -0.02 -0.67 0.74 0.07
1 1.43 143 0.397 -9.874 0.967 -0.305 -1.038 1.678 139.259 3317.039 -3056.659 0.109 0.144 0.084 -0.02 -0.67 0.74 0.07
1 1.44 144 0.517 -9.812 1.001 0.397 -0.763 1.068 139.259 3317.039 -3056.659 -0.012 0.082 0.052 -0.02 -0.67 0.74 0.06
1 1.45 145 0.479 -9.812 0.924 0.183 -0.824 1.251 139.259 3287.059 -3101.629 0.025 0.082 0.131 -0.02 -0.67 0.74 0.07
1 1.46 146 0.431 -9.764 0.939 0.427 -0.946 1.495 139.259 3287.059 -3101.629 0.073 0.034 0.118 -0.02 -0.67 0.74 0.07
1 1.47 147 0.493 -9.735 1.063 0.366 -1.038 1.404 259.181 3137.006 -3056.659 0.010 0.005 -0.005 -0.02 -0.67 0.74 0.07
1 1.48 148 0.488 -9.783 1.058 0.000 -0.244 1.862 259.181 3137.006 -3056.659 0.014 0.054 0.002 -0.02 -0.67 0.74 0.07
1 1.49 149 0.551 -9.826 1.063 0.610 -0.580 1.221 109.279 3212.107 -3101.629 -0.049 0.097 -0.001 -0.02 -0.67 0.74 0.07
1 1.50 150 0.383 -9.874 1.049 0.153 -0.763 1.007 154.250 3151.997 -3041.668 0.118 0.145 0.014 -0.02 -0.67 0.74 0.07
1 1.51 151 0.546 -9.850 1.044 0.336 -0.488 1.068 154.250 3151.997 -3041.668 -0.045 0.121 0.020 -0.02 -0.67 0.74 0.07
1 1.52 152 0.508 -9.941 1.049 0.092 -0.275 0.916 229.201 3347.020 -2891.616 -0.008 0.212 0.019 -0.02 -0.67 0.74 0.06
1 1.53 153 0.584 -9.797 1.053 -0.061 -0.244 0.885 229.201 3347.020 -2891.616 -0.085 0.069 0.014 -0.02 -0.67 0.74 0.07
1 1.54 154 0.546 -9.898 1.101 0.183 -0.763 0.732 304.302 3107.026 -2966.717 -0.046 0.169 -0.032 -0.02 -0.67 0.74 0.07
1 1.55 155 0.517 -9.864 1.063 0.549 -0.641 0.580 304.302 3107.026 -2966.717 -0.018 0.136 0.007 -0.02 -0.67 0.74 0.07
1 1.56 156 0.536 -9.908 1.121 0.305 -0.580 0.458 184.230 3287.059 -2981.708 -0.037 0.179 -0.048 -0.02 -0.67 0.74 0.07
1 1.57 157 0.378 -9.773 1.082 -0.092 -0.519 0.031 154.250 3227.098 -2936.587 0.122 0.045 -0.008 -0.02 -0.67 0.74 0.07
1 1.58 158 0.445 -9.812 1.135 0.000 -0.824 0.763 154.250 3227.098 -2936.587 0.055 0.084 -0.058 -0.02 -0.67 0.74 0.07
1 1.59 159 0.551 -9.788 0.967 0.031 -0.458 0.427 199.220 3347.020 -3041.668 -0.050 0.060 0.110 -0.02 -0.67 0.74 0.07
1 1.60 160 0.469 -9.841 1.025 -0.275 -0.488 0.641 259.181 3391.990 -3056.659 0.031 0.113 0.054 -0.02 -0.67 0.74 0.07
1 1.61 161 0.570 -9.888 0.967 -0.153 0.092 0.824 49.168 3272.068 -3116.620 -0.070 0.161 0.112 -0.02 -0.67 0.74 0.07
1 1.62 162 0.393 -9.999 1.106 0.031 -0.458 0.580 49.168 3272.068 -3116.620 0.108 0.271 -0.028 -0.02 -0.67 0.74 0.07
1 1.63 163 0.369 -9.946 1.101 0.122 0.061 0.519 124.269 3302.049 -2936.587 0.131 0.218 -0.023 -0.02 -0.67 0.74 0.07
1 1.64 164 0.393 -9.821 1.101 0.854 -0.336 0.885 109.279 3212.107 -2981.708 0.107 0.094 -0.021 -0.02 -0.67 0.74 0.07
1 1.65 165 0.532 -9.797 1.106 0.153 -0.641 0.641 109.279 3212.107 -2981.708 -0.032 0.070 -0.025 -0.02 -0.67 0.74 0.07
1 1.66 166 0.369 -9.826 1.030 1.099 -0.183 1.129 124.269 3227.098 -2936.587 0.131 0.099 0.053 -0.02 -0.67 0.74 0.07
1 1.67 167 0.527 -9.764 1.068 0.244 -0.610 1.434 109.279 3212.107 -2876.626 -0.029 0.037 0.020 -0.02 -0.67 0.74 0.07
1 1.68 168 0.508 -9.917 1.101 0.275 -0.885 1.160 -10.643 3166.987 -2906.606 -0.009 0.191 -0.013 -0.02 -0.67 0.74 0.07
1 1.69 169 0.455 -9.893 1.111 0.397 -0.549 1.160 -10.643 3166.987 -2906.606 0.043 0.167 -0.020 -0.02 -0.67 0.74 0.06
1 1.70 170 0.450 -9.860 0.963 0.549 -0.885 0.977 154.250 3107.026 -2966.717 0.047 0.134 0.131 -0.02 -0.67 0.74 0.06
1 1.71 171 0.335 -9.826 1.030 1.068 -1.495 0.641 229.201 3347.020 -2816.665 0.162 0.100 0.066 -0.02 -0.67 0.74 0.06
1 1.72 172 0.503 -9.893 1.010 0.946 -2.197 0.397 229.201 3347.020 -2816.665 -0.006 0.168 0.088 -0.02 -0.67 0.74 0.06
1 1.73 173 0.374 -9.826 1.073 1.221 -2.258 0.519 109.279 3242.088 -3236.691 0.123 0.101 0.029 -0.02 -0.67 0.74 0.06
1 1.74 174 0.441 -9.893 1.116 1.831 -2.747 0.366 184.230 3212.107 -3101.629 0.057 0.168 -0.012 -0.02 -0.67 0.74 0.06
1 1.75 175 0.436 -9.903 1.135 1.251 -3.418 -0.305 34.178 3212.107 -2981.708 0.064 0.179 -0.024 -0.02 -0.67 0.74 0.06
1 1.76 176 0.479 -9.970 1.135 1.801 -3.632 -0.793 34.178 3212.107 -2981.708 0.022 0.246 -0.020 -0.02 -0.67 0.74 0.06
1 1.77 177 0.474 -9.932 1.274 1.495 -3.693 -0.427 139.259 3317.039 -3101.629 0.030 0.209 -0.155 -0.02 -0.67 0.74 0.06
1 1.78 178 0.493 -9.826 1.226 2.960 -5.035 -1.099 139.259 3287.059 -2906.606 0.013 0.104 -0.102 -0.02 -0.66 0.74 0.06
1 1.79 179 0.488 -9.812 1.312 1.862 -5.920 -1.434 139.259 3287.059 -2906.606 0.021 0.090 -0.183 -0.02 -0.66 0.74 0.06
1 1.80 180 0.508 -9.817 1.341 2.197 -6.104 -0.977 289.312 3287.059 -2981.708 0.006 0.096 -0.206 -0.02 -0.66 0.74 0.06
1 1.81 181 0.594 -9.821 1.264 2.197 -5.951 -0.610 94.289 3347.020 -2966.717 -0.076 0.102 -0.124 -0.02 -0.66 0.74 0.06
1 1.82 182 0.627 -9.797 1.398 2.045 -6.042 -0.824 229.201 3151.997 -2966.717 -0.102 0.080 -0.247 -0.02 -0.66 0.74 0.06
1 1.83 183 0.618 -9.874 1.240 2.197 -5.707 -0.946 229.201 3151.997 -2966.717 -0.088 0.157 -0.083 -0.02 -0.66 0.74 0.06
1 1.84 184 0.613 -9.841 1.360 1.892 -5.402 -0.488 229.201 3227.098 -3041.668 -0.080 0.124 -0.197 -0.02 -0.66 0.75 0.06
1 1.85 185 0.670 -9.726 1.326 2.777 -5.554 -0.458 124.269 3302.049 -3071.649 -0.134 0.010 -0.158 -0.02 -0.66 0.75 0.06
1 1.86 186 0.728 -9.716 1.250 2.869 -5.920 -0.641 124.269 3302.049 -3071.649 -0.187 0.002 -0.076 -0.02 -0.66 0.75 0.06
1 1.87 187 0.809 -9.740 1.207 3.265 -5.463 -0.824 199.220 3227.098 -2966.717 -0.264 0.027 -0.026 -0.02 -0.66 0.75 0.06
1 1.88 188 0.809 -9.726 1.197 2.899 -5.737 -0.519 94.289 3227.098 -3041.668 -0.259 0.013 -0.010 -0.02 -0.66 0.75 0.06
1 1.89 189 0.694 -9.730 1.178 2.014 -5.585 -0.885 139.259 3212.107 -3056.659 -0.135 0.020 0.020 -0.02 -0.66 0.75 0.06
1 1.90 190 0.895 -9.850 1.159 2.716 -5.280 -0.610 139.259 3212.107 -3056.659 -0.331 0.141 0.044 -0.02 -0.66 0.75 0.06
1 1.91 191 0.948 -9.735 1.221 2.716 -5.615 -1.221 184.230 3212.107 -3056.659 -0.378 0.027 -0.013 -0.02 -0.66 0.75 0.06
1 1.92 192 0.848 -9.841 1.264 2.411 -6.104 -1.251 94.289 3227.098 -3191.571 -0.271 0.133 -0.051 -0.02 -0.66 0.75 0.06
1 1.93 193 0.761 -9.773 1.298 2.472 -5.798 -0.885 94.289 3227.098 -3191.571 -0.179 0.067 -0.079 -0.02 -0.66 0.75 0.06
1 1.94 194 0.895 -9.817 1.307 2.258 -5.066 -0.946 -40.624 3212.107 -3026.678 -0.307 0.111 -0.084 -0.02 -0.66 0.75 0.06
1 1.95 195 1.006 -9.745 1.250 1.709 -5.066 -0.549 139.259 3287.059 -3101.629 -0.410 0.040 -0.022 -0.02 -0.66 0.75 0.06
1 1.96 196 1.077 -9.625 1.293 1.465 -4.150 -1.190 64.308 3212.107 -3026.678 -0.469 -0.078 -0.056 -0.01 -0.66 0.75 0.06
1 1.97 197 1.044 -9.730 1.168 1.221 -4.028 -1.129 64.308 3212.107 -3026.678 -0.429 0.029 0.072 -0.01 -0.66 0.75 0.06
1 1.98 198 1.087 -9.845 1.302 0.885 -3.662 -0.946 139.259 3287.059 -3161.590 -0.466 0.144 -0.058 -0.01 -0.66 0.75 0.06
1 1.99 199 0.958 -9.826 1.398 -0.183 -3.418 -0.519 94.289 3107.026 -2996.698 -0.330 0.126 -0.151 -0.01 -0.66 0.75 0.06
1 2.00 200 0.982 -9.745 1.326 -0.275 -3.357 -0.458 94.289 3107.026 -2996.698 -0.349 0.045 -0.078 -0.01 -0.66 0.75 0.06
1 2.01 201 0.915 -9.788 1.331 -0.305 -3.113 -0.183 124.269 3182.127 -3116.620 -0.277 0.089 -0.081 -0.01 -0.66 0.75 0.06
1 2.02 202 0.972 -9.826 1.365 -1.099 -3.235 -0.061 -40.624 3362.010 -3026.678 -0.330 0.128 -0.113 -0.01 -0.66 0.75 0.06
1 2.03 203 0.905 -9.750 1.312 -1.068 -2.869 0.031 -40.624 3362.010 -3026.678 -0.258 0.052 -0.059 -0.01 -0.66 0.75 0.06
1 2.04 204 0.891 -9.740 1.408 -0.610 -3.113 0.183 154.250 3227.098 -3041.668 -0.236 0.043 -0.153 -0.01 -0.66 0.75 0.06
1 2.05 205 0.814 -9.759 1.360 -0.397 -2.899 0.519 64.308 3166.987 -3101.629 -0.156 0.062 -0.104 -0.01 -0.66 0.75 0.06
1 2.06 206 0.910 -9.845 1.293 -0.244 -3.296 0.763 109.279 3212.107 -2981.708 -0.250 0.149 -0.035 -0.01 -0.66 0.75 0.06
1 2.07 207 0.776 -9.874 1.379 0.519 -3.967 0.977 109.279 3212.107 -2981.708 -0.113 0.178 -0.120 -0.01 -0.66 0.75 0.06
1 2.08 208 0.771 -9.841 1.302 -0.122 -4.211 1.556 94.289 3272.068 -3071.649 -0.107 0.145 -0.041 -0.01 -0.66 0.75 0.06
1 2.09 209 0.656 -9.855 1.360 0.092 -4.761 0.977 -55.614 3182.127 -3116.620 0.009 0.159 -0.097 -0.01 -0.66 0.75 0.06
1 2.10 210 0.785 -9.951 1.360 0.275 -5.463 1.617 -55.614 3182.127 -3116.620 -0.119 0.255 -0.095 -0.01 -0.66 0.75 0.06
1 2.11 211 0.857 -9.730 1.389 0.092 -5.676 2.106 139.259 3242.088 -3026.678 -0.189 0.036 -0.121 -0.01 -0.66 0.75 0.06
1 2.12 212 0.953 -9.864 1.341 -0.183 -5.768 1.709 154.250 3107.026 -3071.649 -0.283 0.170 -0.070 -0.01 -0.66 0.75 0.06
1 2.13 213 0.963 -9.745 1.379 0.885 -5.371 2.075 139.259 3212.107 -3101.629 -0.291 0.051 -0.107 -0.01 -0.66 0.75 0.06
1 2.14 214 1.154 -9.932 1.417 0.885 -5.035 2.045 139.259 3212.107 -3101.629 -0.481 0.238 -0.141 -0.01 -0.66 0.75 0.06
1 2.15 215 1.073 -9.884 1.379 0.671 -5.157 2.197 19.188 3227.098 -3116.620 -0.397 0.191 -0.099 -0.01 -0.66 0.75 0.06
1 2.16 216 1.039 -9.745 1.293 1.251 -4.547 2.136 -40.624 3242.088 -3131.610 -0.362 0.053 -0.010 -0.01 -0.66 0.75 0.06
1 2.17 217 1.025 -9.745 1.341 1.068 -4.181 2.014 -40.624 3242.088 -3131.610 -0.345 0.053 -0.055 -0.01 -0.66 0.75 0.06
1 2.18 218 1.073 -9.687 1.269 1.953 -3.998 1.007 109.279 3287.059 -3056.659 -0.391 -0.004 0.021 -0.01 -0.66 0.75 0.06
1 2.19 219 1.049 -9.759 1.370 1.160 -3.845 1.648 34.178 3317.039 -3206.711 -0.362 0.070 -0.072 -0.01 -0.66 0.75 0.06
1 2.20 220 1.149 -9.668 1.336 1.373 -2.930 1.129 124.269 3107.026 -3071.649 -0.460 -0.021 -0.035 -0.01 -0.66 0.75 0.06
1 2.21 221 1.025 -9.807 1.207 1.862 -3.021 1.526 124.269 3107.026 -3071.649 -0.332 0.119 0.098 -0.01 -0.66 0.75 0.06
1 2.22 222 0.943 -9.682 1.307 2.136 -2.747 1.251 49.168 3182.127 -3146.600 -0.248 -0.005 0.001 -0.01 -0.66 0.75 0.06
1 2.23 223 1.015 -9.745 1.365 2.502 -2.716 0.885 94.289 3182.127 -3146.600 -0.318 0.058 -0.051 -0.01 -0.66 0.75 0.06
1 2.24 224 1.097 -9.812 1.370 2.411 -1.556 1.282 94.289 3182.127 -3146.600 -0.397 0.126 -0.050 -0.01 -0.66 0.75 0.06
1 2.25 225 1.049 -9.687 1.322 2.258 -1.801 0.854 64.308 3092.036 -3056.659 -0.347 0.003 0.003 -0.01 -0.66 0.75 0.06
1 2.26 226 1.053 -9.836 1.422 1.709 -1.678 0.824 49.168 3002.094 -3116.620 -0.346 0.153 -0.087 -0.01 -0.66 0.75 0.06
1 2.27 227 1.121 -9.850 1.532 2.197 -0.854 0.244 -130.565 3077.045 -3071.649 -0.410 0.168 -0.192 -0.01 -0.66 0.75 0.06
1 2.28 228 1.049 -9.812 1.556 2.502 -1.068 0.763 -130.565 3077.045 -3071.649 -0.335 0.131 -0.210 -0.01 -0.66 0.75 0.06
1 2.29 229 0.967 -9.802 1.432 3.052 -0.427 0.671 49.168 3272.068 -3191.571 -0.250 0.123 -0.078 -0.01 -0.66 0.75 0.06
1 2.30 230 0.872 -9.802 1.499 3.540 -0.458 0.061 154.250 3107.026 -3116.620 -0.152 0.124 -0.138 -0.01 -0.66 0.75 0.06
1 2.31 231 0.915 -9.821 1.370 3.662 -0.763 0.153 154.250 3107.026 -3116.620 -0.192 0.144 -0.000 -0.01 -0.66 0.75 0.06
1 2.32 232 1.092 -9.884 1.475 4.120 -1.312 -0.488 -55.614 3077.045 -3071.649 -0.367 0.208 -0.098 -0.01 -0.66 0.75 0.06
1 2.33 233 0.905 -9.807 1.465 4.303 -0.366 -0.153 -70.604 3212.107 -3101.629 -0.173 0.134 -0.073 -0.01 -0.65 0.75 0.06
1 2.34 234 0.991 -9.874 1.437 4.425 -0.458 -0.519 109.279 3242.088 -3161.590 -0.257 0.203 -0.035 -0 -0.65 0.75 0.06
1 2.35 235 1.082 -9.764 1.441 4.211 0.031 0.153 109.279 3242.088 -3161.590 -0.344 0.094 -0.032 -0 -0.65 0.75 0.06
1 2.36 236 1.183 -9.912 1.432 4.608 0.977 -0.153 19.188 3227.098 -3071.649 -0.441 0.244 -0.013 -0 -0.65 0.75 0.06
1 2.37 237 1.077 -9.807 1.365 4.669 1.556 1.038 -10.643 3242.088 -3206.711 -0.332 0.140 0.063 -0 -0.65 0.75 0.06
1 2.38 238 1.149 -9.788 1.580 3.998 3.204 1.678 -10.643 3242.088 -3206.711 -0.402 0.123 -0.144 -0 -0.65 0.75 0.06
1 2.39 239 1.188 -9.807 1.623 4.272 4.364 1.923 -10.643 3212.107 -3236.691 -0.439 0.143 -0.178 -0 -0.65 0.75 0.06
1 2.40 240 1.034 -9.874 1.470 4.120 6.042 3.296 -25.633 3347.020 -3116.620 -0.286 0.213 -0.006 -0.01 -0.65 0.76 0.06
1 2.41 241 1.073 -9.946 1.556 4.364 6.592 4.028 -145.555 3137.006 -3131.610 -0.328 0.286 -0.083 -0.01 -0.65 0.76 0.06
1 2.42 242 1.015 -9.898 1.528 4.944 8.545 5.035 -145.555 3137.006 -3131.610 -0.275 0.239 -0.045 -0.01 -0.65 0.76 0.07
1 2.43 243 1.116 -9.927 1.767 4.150 9.888 6.134 124.269 3302.049 -3191.571 -0.382 0.269 -0.274 -0.01 -0.65 0.76 0.07
1 2.44 244 1.140 -10.070 1.595 3.571 13.428 6.928 109.279 3137.006 -3131.610 -0.414 0.414 -0.091 -0.01 -0.65 0.76 0.07
1 2.45 245 1.082 -10.128 1.571 4.486 14.954 9.338 109.279 3137.006 -3131.610 -0.367 0.472 -0.058 -0.01 -0.65 0.76 0.07
1 2.46 246 0.991 -10.195 1.801 6.317 16.174 10.681 -55.614 3151.997 -3116.620 -0.289 0.539 -0.278 -0.01 -0.65 0.76 0.07
1 2.47 247 1.015 -10.181 1.925 6.226 18.372 12.268 -55.614 3151.997 -3116.620 -0.328 0.526 -0.390 -0.01 -0.65 0.76 0.07
1 2.48 248 0.900 -10.209 1.935 7.568 22.156 14.160 184.230 3062.055 -3131.610 -0.253 0.557 -0.370 -0.01 -0.65 0.76 0.07
1 2.49 249 0.891 -10.209 1.930 10.345 24.353 16.022 184.230 3062.055 -3131.610 -0.267 0.558 -0.348 -0.02 -0.65 0.76 0.07
1 2.50 250 0.852 -10.219 2.040 12.970 26.917 16.388 109.279 3242.088 -3056.659 -0.256 0.570 -0.435 -0.02 -0.65 0.76 0.07
1 2.51 251 0.910 -10.233 2.050 15.808 29.175 16.968 154.250 3182.127 -3146.600 -0.341 0.587 -0.418 -0.02 -0.65 0.76 0.07
1 2.52 252 0.704 -10.032 2.097 18.311 33.997 16.876 154.250 3182.127 -3146.600 -0.165 0.389 -0.436 -0.02 -0.64 0.76 0.07
1 2.53 253 0.546 -9.841 2.126 18.311 36.316 15.839 94.289 3107.026 -3221.701 -0.038 0.202 -0.431 -0.03 -0.64 0.76 0.07
1 2.54 254 0.263 -9.501 2.073 18.280 39.032 14.221 94.289 3107.026 -3221.701 0.214 -0.134 -0.344 -0.03 -0.64 0.76 0.07
1 2.55 255 -0.091 -9.199 1.796 17.548 39.856 10.956 229.201 3107.026 -3191.571 0.506 -0.426 0.000 -0.03 -0.64 0.77 0.07
1 2.56 256 -0.484 -9.266 1.676 18.738 39.429 8.331 229.201 3107.026 -3191.571 0.871 -0.355 0.151 -0.04 -0.64 0.77 0.08
1 2.57 257 -0.661 -9.309 1.422 19.989 39.551 6.073 364.263 3137.006 -3131.610 1.021 -0.306 0.436 -0.04 -0.64 0.77 0.08
1 2.58 258 -0.986 -9.395 1.341 23.224 37.293 3.418 304.302 3107.026 -3191.571 1.322 -0.215 0.550 -0.04 -0.63 0.77 0.08
1 2.59 259 -1.006 -9.558 1.298 27.313 35.492 1.129 304.302 3107.026 -3191.571 1.319 -0.046 0.629 -0.05 -0.63 0.77 0.08
1 2.60 260 -1.283 -9.687 0.919 31.983 31.250 -2.808 379.253 3151.997 -3296.652 1.577 0.091 1.047 -0.05 -0.63 0.77 0.08
1 2.61 261 -1.556 -10.013 0.886 33.722 28.565 -4.211 379.253 3151.997 -3296.652 1.833 0.425 1.124 -0.05 -0.63 0.77 0.08
1 2.62 262 -1.686 -9.879 0.886 36.438 24.262 -4.730 454.204 3107.026 -3326.633 1.948 0.300 1.168 -0.05 -0.63 0.77 0.08
1 2.63 263 -1.365 -9.908 0.982 37.933 17.853 -4.852 454.204 3151.997 -3221.701 1.600 0.349 1.168 -0.05 -0.62 0.78 0.09
1 2.64 264 -1.322 -10.018 1.302 35.095 13.794 -3.510 289.312 2972.114 -3311.643 1.546 0.470 0.894 -0.06 -0.62 0.78 0.09
1 2.65 265 -1.020 -10.243 1.212 32.929 10.498 -2.777 349.272 3077.045 -3326.633 1.235 0.705 1.029 -0.06 -0.62 0.78 0.09
1 2.66 266 -0.694 -10.262 1.231 29.236 7.660 0.122 349.272 3077.045 -3326.633 0.900 0.733 1.050 -0.06 -0.62 0.78 0.09
1 2.67 267 -0.565 -10.468 1.537 25.452 7.111 2.930 424.224 3032.075 -3296.652 0.761 0.948 0.779 -0.06 -0.62 0.78 0.09
1 2.68 268 -0.340 -10.430 1.695 23.926 7.263 4.883 424.224 3032.075 -3296.652 0.525 0.917 0.654 -0.06 -0.61 0.78 0.09
1 2.69 269 -0.330 -10.262 1.724 21.607 8.942 6.989 514.165 2897.013 -3341.623 0.504 0.757 0.656 -0.06 -0.61 0.78 0.09
1 2.70 270 -0.484 -9.783 1.753 18.036 13.001 8.331 334.282 2972.114 -3281.662 0.623 0.291 0.679 -0.06 -0.61 0.78 0.09
1 2.71 271 -0.532 -9.544 1.590 16.541 14.160 9.460 454.204 2852.192 -3401.434 0.651 0.057 0.865 -0.06 -0.61 0.79 0.09
1 2.72 272 -0.752 -9.390 1.619 16.052 14.252 9.064 424.224 2807.221 -3476.535 0.848 -0.092 0.856 -0.06 -0.61 0.79 0.09
1 2.73 273 -0.833 -9.386 1.556 17.212 15.137 9.186 424.224 2807.221 -3476.535 0.905 -0.091 0.938 -0.06 -0.61 0.79 0.09
1 2.74 274 -1.068 -9.429 1.408 17.090 15.076 8.911 514.165 2867.182 -3416.424 1.115 -0.043 1.107 -0.07 -0.61 0.79 0.09
1 2.75 275 -1.192 -9.271 1.379 15.533 13.153 7.599 514.165 2867.182 -3416.424 1.215 -0.196 1.154 -0.07 -0.61 0.79 0.09
1 2.76 276 -1.178 -9.357 1.183 11.414 12.848 6.805 589.116 2972.264 -3491.525 1.177 -0.106 1.367 -0.07 -0.6 0.79 0.09
1 2.77 277 -1.408 -9.280 1.097 7.935 8.453 5.127 604.256 2762.250 -3371.454 1.363 -0.177 1.470 -0.07 -0.6 0.79 0.09
1 2.78 278 -1.255 -9.299 1.168 5.920 6.378 4.272 559.136 2927.143 -3401.434 1.191 -0.157 1.401 -0.07 -0.6 0.79 0.09
1 2.79 279 -1.221 -9.271 1.326 3.876 4.883 2.472 514.165 2867.182 -3416.424 1.141 -0.186 1.243 -0.07 -0.6 0.79 0.09
1 2.80 280 -1.202 -9.094 1.154 0.885 3.174 1.648 514.165 2867.182 -3416.424 1.109 -0.364 1.414 -0.07 -0.6 0.79 0.09
1 2.81 281 -1.106 -9.079 1.188 -1.434 0.397 0.061 559.136 2687.149 -3506.516 1.004 -0.380 1.373 -0.07 -0.6 0.79 0.09
1 2.82 282 -1.173 -9.070 1.341 -2.533 -2.716 -1.862 559.136 2687.149 -3506.516 1.065 -0.392 1.210 -0.07 -0.6 0.79 0.09
1 2.83 283 -1.302 -9.065 1.360 -3.174 -3.632 -2.838 559.136 2732.270 -3446.555 1.190 -0.400 1.180 -0.07 -0.6 0.79 0.09
1 2.84 284 -1.518 -8.931 1.274 -7.904 -4.669 -4.303 619.247 2792.231 -3536.496 1.400 -0.540 1.243 -0.07 -0.61 0.79 0.09
1 2.85 285 -1.523 -8.926 1.245 -8.881 -5.646 -5.127 469.194 2747.260 -3491.525 1.404 -0.549 1.254 -0.07 -0.61 0.79 0.09
1 2.86 286 -1.575 -9.161 1.077 -9.399 -9.522 -7.568 514.165 2822.211 -3386.444 1.459 -0.320 1.402 -0.07 -0.61 0.79 0.09
1 2.87 287 -1.475 -9.256 0.958 -8.789 -11.932 -8.514 514.165 2822.211 -3386.444 1.364 -0.229 1.501 -0.07 -0.61 0.79 0.09
1 2.88 288 -1.551 -9.280 0.881 -8.575 -15.076 -9.827 604.256 2762.250 -3401.434 1.448 -0.211 1.557 -0.07 -0.61 0.79 0.09
1 2.89 289 -1.393 -9.510 0.895 -9.522 -21.118 -11.444 604.256 2762.250 -3401.434 1.301 0.014 1.522 -0.07 -0.61 0.78 0.08
1 2.90 290 -1.231 -9.826 1.446 -9.125 -24.475 -10.529 529.155 2852.192 -3446.555 1.154 0.324 0.949 -0.07 -0.61 0.78 0.08
1 2.91 291 -0.800 -10.008 1.733 -7.782 -26.459 -10.925 499.175 2807.221 -3446.555 0.739 0.500 0.641 -0.07 -0.61 0.78 0.08
1 2.92 292 0.230 -10.506 2.471 -0.488 -28.046 -5.676 454.204 2852.192 -3401.434 -0.252 0.991 -0.124 -0.07 -0.61 0.78 0.08
1 2.93 293 1.164 -10.655 2.801 5.310 -24.872 -0.397 634.237 2807.221 -3401.434 -1.169 1.140 -0.452 -0.06 -0.61 0.78 0.08
1 2.94 294 1.710 -10.492 2.145 5.219 -20.386 4.944 634.237 2807.221 -3401.434 -1.707 0.980 0.214 -0.06 -0.61 0.78 0.08
1 2.95 295 1.714 -9.979 2.179 -0.580 -19.562 6.470 439.214 2867.182 -3461.545 -1.711 0.470 0.188 -0.06 -0.61 0.78 0.08
1 2.96 296 1.049 -9.644 2.643 -11.322 -16.022 6.073 439.214 2867.182 -3461.545 -1.033 0.133 -0.281 -0.06 -0.61 0.78 0.08
1 2.97 297 0.321 -9.831 2.634 -19.074 -12.970 6.653 304.152 2852.192 -3446.555 -0.296 0.317 -0.284 -0.06 -0.61 0.78 0.08
1 2.98 298 -0.177 -10.056 2.294 -22.797 -12.909 5.524 379.253 2687.149 -3371.454 0.205 0.537 0.035 -0.06 -0.61 0.78 0.08
1 2.99 299 -0.819 -9.783 2.126 -19.714 -13.031 0.916 439.214 2792.231 -3461.545 0.842 0.249 0.140 -0.06 -0.62 0.78 0.07
1 3.00 300 -1.053 -9.568 2.270 -16.846 -13.123 -1.984 349.123 2927.143 -3446.555 1.077 0.027 -0.031 -0.06 -0.62 0.78 0.07
1 3.01 301 -1.073 -9.635 2.452 -18.189 -13.580 -3.296 349.123 2927.143 -3446.555 1.098 0.088 -0.237 -0.06 -0.62 0.78 0.07
1 3.02 302 -1.288 -9.783 2.476 -19.775 -14.557 -3.906 379.253 2927.143 -3446.555 1.317 0.231 -0.285 -0.05 -0.62 0.78 0.07
1 3.03 303 -1.274 -9.960 2.452 -18.127 -16.510 -2.380 379.253 2927.143 -3446.555 1.304 0.403 -0.286 -0.05 -0.62 0.78 0.07
1 3.04 304 -0.900 -10.300 2.701 -11.475 -18.707 -0.275 499.175 2957.273 -3401.434 0.931 0.738 -0.556 -0.05 -0.62 0.78 0.07
1 3.05 305 -0.364 -10.252 2.945 -9.003 -19.867 1.129 334.132 2867.182 -3416.424 0.394 0.687 -0.815 -0.05 -0.62 0.78 0.07
1 3.06 306 0.225 -10.248 3.022 -8.637 -21.393 1.312 334.132 2867.182 -3416.424 -0.194 0.680 -0.900 -0.05 -0.62 0.78 0.07
1 3.07 307 0.670 -10.109 3.079 -8.942 -21.484 1.312 379.253 2957.273 -3506.516 -0.627 0.539 -0.969 -0.05 -0.62 0.78 0.06
1 3.08 308 0.776 -10.003 3.103 -8.881 -22.125 0.061 379.253 2957.273 -3506.516 -0.722 0.432 -0.998 -0.05 -0.62 0.78 0.06
1 3.09 309 0.905 -10.147 2.964 -10.559 -23.529 -1.434 199.220 2927.143 -3296.502 -0.837 0.575 -0.864 -0.05 -0.63 0.78 0.06
1 3.10 310 0.967 -10.224 3.012 -10.590 -23.956 -3.082 199.220 2927.143 -3296.502 -0.881 0.650 -0.920 -0.04 -0.63 0.78 0.06
1 3.11 311 0.977 -10.171 2.978 -8.637 -27.161 -7.904 349.123 2927.143 -3251.532 -0.869 0.596 -0.895 -0.04 -0.63 0.78 0.06
1 3.12 312 1.121 -10.070 3.117 -7.294 -28.198 -9.613 334.132 2822.211 -3491.525 -0.986 0.494 -1.040 -0.04 -0.63 0.78 0.06
1 3.13 313 1.140 -10.099 3.069 -6.531 -27.954 -11.932 334.132 2822.211 -3491.525 -0.974 0.522 -0.996 -0.04 -0.63 0.78 0.06
1 3.14 314 0.848 -9.874 3.074 -5.737 -28.961 -15.198 184.230 2792.231 -3281.512 -0.613 0.298 -1.005 -0.03 -0.63 0.78 0.06
1 3.15 315 0.814 -9.773 3.103 -5.829 -30.518 -17.639 184.230 2792.231 -3281.512 -0.541 0.198 -1.035 -0.03 -0.63 0.78 0.06
1 3.16 316 1.034 -9.620 3.151 -5.737 -31.677 -16.846 289.162 2897.163 -3236.542 -0.721 0.046 -1.084 -0.03 -0.63 0.78 0.06
1 3.17 317 1.063 -9.615 3.079 -6.775 -30.365 -14.954 289.162 2897.163 -3236.542 -0.709 0.042 -1.013 -0.02 -0.63 0.78 0.06
1 3.18 318 1.135 -9.534 2.921 -5.737 -28.931 -12.299 214.210 2972.264 -3386.444 -0.744 -0.038 -0.858 -0.02 -0.63 0.78 0.06
1 3.19 319 1.417 -9.132 2.921 -2.380 -27.649 -12.268 -100.584 2927.143 -3296.502 -0.993 -0.439 -0.859 -0.02 -0.63 0.78 0.06
1 3.20 320 1.743 -9.050 2.959 -1.129 -24.719 -12.421 -99.385 2925.794 -3298.601 -1.286 -0.519 -0.895 -0.02 -0.63 0.78 0.06
1 3.21 321 2.275 -8.821 2.715 -1.862 -18.707 -13.611 125.468 2925.794 -3373.702 -1.745 -0.743 -0.640 -0.01 -0.63 0.78 0.06
1 3.22 322 2.394 -8.950 2.706 -2.258 -13.886 -13.245 125.468 2925.794 -3373.702 -1.826 -0.610 -0.627 -0.01 -0.63 0.78 0.06
1 3.23 323 2.447 -8.916 2.538 -3.143 -9.308 -14.191 -24.434 2955.774 -3328.582 -1.839 -0.641 -0.457 -0.01 -0.63 0.78 0.06
1 3.24 324 2.567 -9.098 2.385 -3.052 -5.341 -15.198 -24.434 2955.774 -3328.582 -1.920 -0.456 -0.303 -0.01 -0.63 0.78 0.06
1 3.25 325 2.332 -9.194 2.375 -3.082 -1.923 -17.059 -9.444 2865.833 -3283.611 -1.645 -0.358 -0.293 -0 -0.63 0.78 0.06
1 3.26 326 1.973 -9.347 2.093 -2.228 3.479 -19.379 65.357 2970.765 -3538.595 -1.246 -0.201 -0.011 -0 -0.63 0.78 0.06
1 3.27 327 1.863 -9.553 2.093 -3.479 5.310 -19.928 65.357 2970.765 -3538.595 -1.097 0.008 -0.011 -0 -0.63 0.78 0.06
1 3.28 328 1.666 -9.678 1.944 -5.005 6.409 -21.271 -99.385 2850.843 -3253.630 -0.825 0.137 0.131 0 -0.63 0.78 0.07
1 3.29 329 1.676 -9.529 1.963 -4.547 6.226 -20.966 -99.385 2850.843 -3253.630 -0.799 -0.009 0.108 0 -0.63 0.78 0.07
1 3.30 330 1.441 -9.630 1.824 -4.608 5.920 -20.691 -114.375 3060.856 -3208.660 -0.529 0.093 0.241 0 -0.63 0.77 0.07
1 3.31 331 1.403 -9.496 1.901 -4.913 5.737 -20.294 -114.375 3060.856 -3208.660 -0.457 -0.038 0.159 0 -0.63 0.77 0.07
1 3.32 332 1.408 -9.448 1.791 -5.981 5.280 -19.409 125.468 3030.875 -3448.653 -0.430 -0.084 0.263 0 -0.63 0.77 0.07
1 3.33 333 1.346 -9.520 1.805 -7.660 3.632 -16.602 -99.385 2805.872 -3298.601 -0.338 -0.011 0.241 0 -0.63 0.77 0.08
1 3.34 334 1.441 -9.592 1.676 -7.629 2.625 -15.411 -99.385 2805.872 -3298.601 -0.407 0.061 0.360 0.01 -0.63 0.77 0.08
1 3.35 335 1.283 -9.649 1.609 -7.568 2.441 -13.062 -69.405 2820.862 -3343.572 -0.222 0.119 0.416 0.01 -0.63 0.77 0.08
1 3.36 336 1.470 -9.606 1.614 -7.599 2.686 -10.712 -129.366 2850.843 -3298.601 -0.366 0.076 0.388 0.01 -0.63 0.77 0.08
1 3.37 337 1.585 -9.620 1.647 -6.104 1.831 -8.850 -54.415 3000.895 -3373.702 -0.463 0.091 0.344 0.01 -0.63 0.77 0.08
1 3.38 338 1.465 -9.563 1.633 -5.646 1.923 -6.775 -54.415 3000.895 -3373.702 -0.327 0.033 0.349 0.01 -0.63 0.77 0.08
1 3.39 339 1.384 -9.347 1.580 -5.798 2.228 -5.310 -144.506 2895.813 -3283.611 -0.233 -0.183 0.393 0.01 -0.63 0.77 0.08
1 3.40 340 1.532 -9.295 1.652 -3.448 2.197 -2.899 -99.385 3105.827 -3223.650 -0.372 -0.236 0.312 0.01 -0.63 0.77 0.08
1 3.41 341 1.427 -9.376 1.556 -2.319 4.211 -0.641 -99.385 3105.827 -3223.650 -0.258 -0.155 0.402 0.01 -0.63 0.77 0.08
1 3.42 342 1.398 -9.299 1.518 -2.869 4.761 1.709 -114.375 2970.765 -3388.692 -0.224 -0.232 0.436 0.01 -0.63 0.77 0.08
1 3.43 343 1.532 -9.309 1.422 -4.730 5.676 4.364 -174.486 3000.895 -3298.601 -0.359 -0.224 0.523 0.01 -0.63 0.77 0.08
1 3.44 344 1.638 -9.314 1.513 -5.127 6.165 5.737 -144.506 2970.765 -3418.673 -0.469 -0.221 0.424 0.01 -0.63 0.77 0.08
1 3.45 345 1.580 -9.376 1.547 -5.188 6.256 7.141 -144.506 2970.765 -3418.673 -0.417 -0.161 0.383 0.01 -0.63 0.77 0.08
1 3.46 346 1.537 -9.376 1.513 -5.402 6.378 9.003 20.387 2850.843 -3253.630 -0.383 -0.164 0.409 0.01 -0.63 0.77 0.09
1 3.47 347 1.738 -9.405 1.547 -6.714 6.317 10.712 -99.385 2925.794 -3253.630 -0.595 -0.138 0.368 0.01 -0.63 0.77 0.09
1 3.48 348 1.547 -9.242 1.528 -10.040 6.836 12.024 -99.385 2925.794 -3253.630 -0.415 -0.304 0.377 0.01 -0.63 0.77 0.08
1 3.49 349 1.619 -9.213 1.370 -12.756 7.996 11.993 -39.424 2820.862 -3463.644 -0.500 -0.337 0.521 0 -0.64 0.77 0.08
1 3.50 350 1.532 -9.132 1.341 -14.771 7.568 12.543 -144.506 3060.856 -3238.640 -0.429 -0.424 0.532 0 -0.64 0.77 0.08
1 3.51 351 1.451 -9.237 1.259 -15.961 7.629 13.367 -219.457 2970.765 -3238.640 -0.379 -0.331 0.570 0 -0.64 0.77 0.08
1 3.52 352 1.772 -9.376 1.135 -15.137 7.233 13.153 -219.457 2970.765 -3238.640 -0.717 -0.198 0.671 0 -0.64 0.76 0.08
1 3.53 353 1.848 -9.501 1.140 -15.015 7.629 12.970 -144.506 2940.784 -3208.660 -0.808 -0.080 0.642 -0 -0.64 0.76 0.08
1 3.54 354 1.815 -9.486 1.235 -14.313 7.904 13.611 -54.415 2850.843 -3298.601 -0.788 -0.100 0.524 -0 -0.64 0.76 0.08
1 3.55 355 1.537 -9.572 1.288 -12.146 8.087 13.886 -54.415 2850.843 -3298.601 -0.526 -0.019 0.450 -0 -0.64 0.76 0.08
1 3.56 356 1.599 -9.491 1.255 -10.254 7.813 13.428 50.367 3000.895 -3223.650 -0.603 -0.106 0.464 -0 -0.64 0.76 0.08
1 3.57 357 1.518 -9.630 1.240 -9.827 8.118 14.557 -144.506 3015.885 -3163.689 -0.537 0.029 0.463 -0 -0.64 0.76 0.08
1 3.58 358 1.523 -9.601 1.274 -9.216 8.850 14.618 -54.415 2925.794 -3193.669 -0.577 -0.008 0.400 -0.01 -0.64 0.76 0.08
1 3.59 359 1.413 -9.678 1.384 -9.247 8.118 14.313 -54.415 2925.794 -3193.669 -0.485 0.064 0.277 -0.01 -0.64 0.76 0.08
1 3.60 360 1.484 -9.735 1.269 -7.629 8.240 14.465 125.468 3075.846 -3223.650 -0.574 0.118 0.379 -0.01 -0.64 0.76 0.08
1 3.61 361 1.408 -9.740 1.374 -6.622 7.629 13.275 200.419 3105.827 -3148.699 -0.514 0.119 0.263 -0.01 -0.65 0.76 0.08
1 3.62 362 1.264 -9.735 1.207 -6.836 6.683 11.139 200.419 3105.827 -3148.699 -0.387 0.111 0.422 -0.01 -0.65 0.76 0.08
1 3.63 363 1.140 -9.764 1.283 -8.545 5.585 10.010 35.377 2940.784 -3103.578 -0.275 0.137 0.335 -0.01 -0.65 0.76 0.08
1 3.64 364 1.063 -9.778 1.465 -8.575 4.181 9.125 35.377 2895.813 -3103.578 -0.211 0.148 0.141 -0.01 -0.65 0.76 0.08
1 3.65 365 1.101 -9.644 1.470 -10.407 2.075 9.247 -129.366 3075.846 -3328.582 -0.273 0.008 0.111 -0.01 -0.65 0.76 0.08
1 3.66 366 1.183 -9.539 1.264 -11.231 1.923 10.437 -129.366 3075.846 -3328.582 -0.366 -0.101 0.301 -0.01 -0.65 0.76 0.08
1 3.67 367 1.307 -9.682 1.322 -11.597 1.556 9.735 155.449 3030.875 -3118.718 -0.502 0.039 0.227 -0.01 -0.65 0.76 0.08
1 3.68 368 1.561 -9.730 1.226 -12.085 1.282 9.979 20.387 3030.875 -3148.699 -0.766 0.084 0.306 -0.01 -0.65 0.76 0.08
1 3.69 369 1.532 -9.558 1.183 -12.726 2.838 8.789 20.387 3030.875 -3148.699 -0.745 -0.092 0.331 -0.01 -0.65 0.76 0.08
1 3.70 370 1.475 -9.568 0.910 -11.353 4.486 7.599 140.458 3060.856 -3028.627 -0.694 -0.086 0.584 -0.02 -0.65 0.75 0.08
1 3.71 371 1.571 -9.577 1.020 -10.040 5.249 7.690 125.468 3180.778 -3253.630 -0.795 -0.080 0.456 -0.02 -0.65 0.75 0.08
1 3.72 372 1.523 -9.893 1.575 -7.965 7.019 4.120 110.478 3090.836 -3103.578 -0.757 0.231 -0.131 -0.02 -0.65 0.75 0.08
1 3.73 373 1.389 -10.085 1.652 -6.500 8.362 2.014 110.478 3090.836 -3103.578 -0.622 0.421 -0.215 -0.02 -0.65 0.75 0.08
1 3.74 374 0.680 -10.453 1.446 -5.127 10.773 -2.899 200.419 2955.774 -2938.686 0.091 0.789 -0.013 -0.02 -0.65 0.75 0.08
1 3.75 375 0.287 -10.262 1.269 -8.026 8.484 -7.629 95.338 3030.875 -3043.617 0.488 0.597 0.157 -0.02 -0.65 0.75 0.08
1 3.76 376 0.354 -10.137 1.508 -10.986 2.747 -13.947 95.338 3030.875 -3043.617 0.432 0.472 -0.095 -0.02 -0.65 0.75 0.08
1 3.77 377 0.709 -10.449 1.772 -11.780 -1.892 -18.066 65.357 2970.765 -3058.607 0.096 0.782 -0.373 -0.02 -0.65 0.75 0.08
1 3.78 378 0.512 -10.554 1.848 -11.749 -2.075 -20.630 110.478 3015.885 -3103.578 0.318 0.888 -0.465 -0.02 -0.66 0.75 0.08
1 3.79 379 0.383 -10.746 1.719 -10.773 -6.165 -24.262 110.478 3015.885 -3103.578 0.477 1.080 -0.349 -0.02 -0.66 0.75 0.09
1 3.80 380 0.575 -10.937 1.805 -7.935 -10.132 -27.313 50.367 3030.875 -2998.646 0.363 1.275 -0.463 -0.01 -0.66 0.75 0.09
1 3.81 381 0.819 -10.923 1.710 -7.294 -11.444 -27.863 65.357 3015.885 -3058.607 0.163 1.263 -0.378 -0.01 -0.66 0.75 0.09
1 3.82 382 1.116 -10.913 1.657 -6.897 -12.634 -24.262 -69.405 3090.836 -3133.708 -0.090 1.257 -0.335 -0.01 -0.66 0.75 0.09
1 3.83 383 1.403 -10.645 1.666 -5.920 -14.343 -21.057 -69.405 3090.836 -3133.708 -0.338 0.992 -0.355 -0.01 -0.66 0.75 0.09
1 3.84 384 2.097 -10.592 1.767 -4.120 -12.756 -15.472 200.419 2880.823 -3073.598 -0.998 0.942 -0.464 -0.01 -0.66 0.75 0.09
1 3.85 385 2.150 -10.267 2.275 -5.585 -8.026 -8.270 35.377 3015.885 -2983.656 -1.022 0.619 -0.978 -0 -0.66 0.75 0.09
1 3.86 386 1.949 -10.171 2.054 -5.676 -5.951 -4.608 35.377 3015.885 -2983.656 -0.803 0.524 -0.765 -0 -0.66 0.75 0.09
1 3.87 387 2.054 -9.826 2.184 -4.608 -5.676 -4.395 -174.486 3225.898 -3043.617 -0.876 0.183 -0.897 -0 -0.66 0.75 0.09
1 3.88 388 1.887 -9.644 2.428 -4.974 -1.984 -1.526 -99.385 3000.895 -3073.598 -0.695 0.002 -1.141 -0 -0.66 0.75 0.09
1 3.89 389 1.542 -9.659 2.265 -4.578 1.770 0.946 65.357 2970.765 -3058.607 -0.343 0.018 -0.976 -0 -0.66 0.75 0.09
1 3.90 390 1.302 -9.467 2.164 -0.763 2.563 3.052 65.357 2970.765 -3058.607 -0.102 -0.173 -0.871 -0 -0.66 0.75 0.09
1 3.91 391 1.283 -9.170 2.389 3.967 2.930 3.418 -114.375 3015.885 -3103.578 -0.086 -0.469 -1.086 -0 -0.66 0.75 0.09
1 3.92 392 1.389 -9.084 2.548 6.378 6.500 6.531 -69.405 3240.889 -3133.708 -0.196 -0.553 -1.227 -0 -0.66 0.75 0.09
1 3.93 393 1.427 -9.290 2.461 6.134 9.399 8.209 -69.405 3240.889 -3133.708 -0.241 -0.345 -1.119 -0 -0.66 0.75 0.09
1 3.94 394 1.192 -9.515 2.394 7.843 12.299 9.552 -24.434 3030.875 -2968.666 -0.016 -0.118 -1.030 -0 -0.66 0.75 0.09
1 3.95 395 0.891 -9.754 2.370 12.207 14.099 12.848 50.367 3150.797 -3148.699 0.253 0.125 -0.956 -0 -0.65 0.75 0.09
1 3.96 396 0.618 -9.764 2.495 15.869 13.062 12.604 35.377 2970.765 -3028.627 0.504 0.136 -1.050 -0.01 -0.65 0.75 0.09
1 3.97 397 0.599 -9.711 2.471 16.907 12.360 12.360 35.377 2970.765 -3028.627 0.499 0.086 -0.991 -0.01 -0.65 0.75 0.09
1 3.98 398 0.512 -9.797 2.433 15.778 12.726 12.451 125.468 3150.797 -3043.617 0.562 0.175 -0.916 -0.01 -0.65 0.75 0.09
1 3.99 399 0.445 -9.754 2.595 15.839 12.787 11.627 65.357 3060.856 -2983.656 0.604 0.135 -1.045 -0.01 -0.65 0.76 0.09
1 4.00 400 0.436 -9.769 2.595 16.754 14.496 11.017 65.357 3060.856 -2983.656 0.591 0.152 -1.011 -0.01 -0.65 0.76 0.09
1 4.01 401 0.407 -9.663 2.524 17.670 15.869 10.407 -39.424 3060.856 -3163.689 0.597 0.050 -0.904 -0.01 -0.65 0.76 0.09
1 4.02 402 0.383 -9.505 2.548 18.372 19.409 9.888 125.468 3105.827 -3118.718 0.576 -0.099 -0.852 -0.02 -0.64 0.76 0.09
1 4.03 403 0.311 -9.496 2.380 17.914 20.477 7.965 95.338 3030.875 -3073.598 0.625 -0.104 -0.647 -0.02 -0.64 0.76 0.1
1 4.04 404 0.196 -9.371 2.236 16.998 22.064 6.897 95.338 3030.875 -3073.598 0.721 -0.224 -0.467 -0.02 -0.64 0.76 0.1
1 4.05 405 0.158 -9.208 2.164 16.022 23.102 4.395 185.429 3015.885 -3283.611 0.740 -0.383 -0.362 -0.02 -0.64 0.76 0.1
1 4.06 406 0.048 -9.070 1.968 14.069 23.316 1.495 110.478 3015.885 -3103.578 0.834 -0.517 -0.135 -0.02 -0.64 0.76 0.1
1 4.07 407 -0.077 -9.041 1.801 13.794 21.118 -3.174 110.478 3015.885 -3103.578 0.946 -0.541 0.061 -0.02 -0.64 0.77 0.1
1 4.08 408 -0.211 -9.362 1.633 15.991 20.508 -5.096 140.458 2940.784 -3208.660 1.072 -0.217 0.253 -0.03 -0.63 0.77 0.1
1 4.09 409 -0.153 -9.821 1.686 21.759 18.738 -6.500 185.429 2970.765 -3133.708 1.006 0.254 0.257 -0.03 -0.63 0.77 0.1
1 4.10 410 -0.134 -9.936 1.508 23.895 17.609 -5.707 110.478 2940.784 -3058.607 0.984 0.376 0.470 -0.03 -0.63 0.77 0.1
1 4.11 411 -0.010 -10.204 1.839 25.330 16.632 -4.334 110.478 2940.784 -3058.607 0.856 0.651 0.175 -0.03 -0.63 0.77 0.1
1 4.12 412 -0.053 -10.420 2.021 25.360 16.907 -1.282 125.468 3075.846 -3253.630 0.893 0.874 0.031 -0.03 -0.63 0.77 0.1
1 4.13 413 0.220 -10.621 2.126 25.635 17.639 0.336 200.419 2805.872 -3118.718 0.610 1.083 -0.035 -0.03 -0.63 0.77 0.11
1 4.14 414 0.402 -10.583 2.327 20.538 18.372 4.547 200.419 2805.872 -3118.718 0.419 1.053 -0.196 -0.03 -0.62 0.77 0.11
1 4.15 415 0.493 -10.415 2.332 14.618 18.768 5.707 140.458 2940.784 -3238.640 0.317 0.892 -0.164 -0.03 -0.62 0.77 0.11
1 4.16 416 0.192 -9.860 2.318 8.453 21.088 7.050 200.419 2850.843 -3148.699 0.588 0.345 -0.103 -0.04 -0.62 0.78 0.11
1 4.17 417 0.034 -9.941 2.313 8.148 21.393 7.813 275.371 2925.794 -3148.699 0.724 0.429 -0.081 -0.04 -0.62 0.78 0.11
1 4.18 418 -0.239 -9.395 2.241 10.284 20.722 7.629 275.371 2925.794 -3148.699 0.975 -0.115 0.008 -0.04 -0.62 0.78 0.11
1 4.19 419 -0.297 -9.309 2.198 12.177 19.623 7.416 275.371 2925.794 -3073.598 1.008 -0.198 0.071 -0.04 -0.62 0.78 0.11
1 4.20 420 -0.330 -9.520 2.174 13.825 18.982 7.202 365.462 2820.862 -3103.578 1.018 0.016 0.117 -0.04 -0.62 0.78 0.11
1 4.21 421 -0.522 -9.529 2.303 15.411 16.480 6.104 372.357 2813.667 -3113.771 1.186 0.030 0.011 -0.04 -0.62 0.78 0.11
1 4.22 422 -0.589 -9.443 2.299 15.106 16.022 5.249 222.305 2858.638 -3173.732 1.230 -0.052 0.042 -0.05 -0.62 0.78 0.11
1 4.23 423 -0.642 -9.544 2.255 14.648 14.496 3.723 222.305 2858.638 -3173.732 1.261 0.054 0.110 -0.05 -0.61 0.78 0.11
1 4.24 424 -0.690 -9.534 2.188 15.198 12.634 2.838 297.256 3008.690 -3248.684 1.271 0.054 0.224 -0.05 -0.61 0.78 0.11
1 4.25 425 -0.661 -9.433 2.083 15.656 11.139 2.075 297.256 3008.690 -3248.684 1.225 -0.042 0.353 -0.05 -0.61 0.78 0.11
1 4.26 426 -0.488 -9.472 2.231 15.076 9.247 1.282 297.256 2813.667 -3293.804 1.038 0.001 0.228 -0.05 -0.61 0.78 0.11
1 4.27 427 -0.350 -9.510 2.112 13.580 9.369 0.977 402.338 2783.687 -3293.804 0.887 0.045 0.370 -0.05 -0.61 0.78 0.11
1 4.28 428 -0.163 -9.285 1.901 10.284 8.240 0.641 402.338 2783.687 -3293.804 0.690 -0.176 0.600 -0.05 -0.61 0.78 0.11
1 4.29 429 -0.407 -9.319 1.982 6.317 6.989 0.977 192.325 2708.735 -3353.765 0.924 -0.139 0.534 -0.05 -0.61 0.78 0.11
1 4.30 430 -0.493 -9.151 1.791 1.831 5.157 0.000 192.325 2708.735 -3353.765 1.002 -0.304 0.735 -0.05 -0.61 0.79 0.11
1 4.31 431 -0.723 -9.060 1.518 -5.005 0.427 -0.366 267.276 2783.687 -3248.684 1.218 -0.396 1.006 -0.05 -0.61 0.79 0.11
1 4.32 432 -0.910 -9.151 1.274 -8.667 -3.387 -1.038 267.276 2783.687 -3248.684 1.398 -0.309 1.238 -0.05 -0.61 0.78 0.11
1 4.33 433 -1.053 -9.371 1.077 -9.338 -7.416 -2.075 432.318 2678.605 -3233.693 1.537 -0.094 1.415 -0.05 -0.61 0.78 0.11
1 4.34 434 -1.188 -9.395 0.972 -9.186 -11.505 -2.319 267.276 2708.735 -3353.765 1.667 -0.076 1.499 -0.05 -0.61 0.78 0.11
1 4.35 435 -1.144 -9.472 0.872 -9.583 -16.785 -3.571 267.276 2708.735 -3353.765 1.622 -0.005 1.577 -0.05 -0.61 0.78 0.11
1 4.36 436 -1.087 -9.405 0.809 -14.801 -24.048 -5.798 387.348 2648.625 -3263.824 1.566 -0.079 1.614 -0.05 -0.61 0.78 0.11
1 4.37 437 -1.144 -9.146 0.776 -18.677 -29.389 -7.324 387.348 2648.625 -3263.824 1.628 -0.345 1.617 -0.05 -0.61 0.78 0.11
1 4.38 438 -0.996 -9.065 0.527 -23.071 -33.386 -9.033 207.315 2843.647 -3233.693 1.491 -0.435 1.829 -0.05 -0.61 0.78 0.11
1 4.39 439 -0.828 -9.036 0.292 -25.696 -38.757 -9.247 297.256 2813.667 -3293.804 1.355 -0.485 1.969 -0.05 -0.62 0.78 0.1
1 4.40 440 -0.838 -9.467 1.231 -22.461 -40.314 -7.507 102.233 2723.726 -3203.713 1.383 -0.065 0.979 -0.04 -0.62 0.78 0.1
1 4.41 441 -0.273 -10.339 2.461 -11.505 -38.544 -1.801 117.224 2813.667 -3113.771 0.832 0.798 -0.291 -0.04 -0.62 0.78 0.1
1 4.42 442 0.757 -10.889 1.777 -4.181 -35.584 7.416 117.224 2813.667 -3113.771 -0.193 1.346 0.379 -0.04 -0.62 0.78 0.1
1 4.43 443 2.140 -11.507 3.108 5.890 -32.257 6.866 222.305 2738.716 -3248.684 -1.574 1.962 -0.959 -0.04 -0.62 0.78 0.09
1 4.44 444 2.931 -12.513 3.740 25.452 -23.560 16.785 222.305 2738.716 -3248.684 -2.360 2.969 -1.588 -0.04 -0.62 0.78 0.09
1 4.45 445 3.496 -11.382 2.830 22.217 -15.076 23.529 222.305 2813.667 -3113.771 -2.936 1.845 -0.648 -0.04 -0.62 0.78 0.09
1 4.46 446 1.930 -9.261 2.332 -19.623 -13.367 10.956 132.364 2873.628 -3308.794 -1.416 -0.269 -0.108 -0.04 -0.62 0.78 0.09
1 4.47 447 0.235 -9.472 2.035 -40.161 -14.557 10.864 42.272 2783.687 -3218.703 0.283 -0.067 0.152 -0.03 -0.62 0.78 0.09
1 4.48 448 -1.034 -9.917 1.609 -49.133 -20.233 10.376 147.354 2783.687 -3293.804 1.543 0.364 0.516 -0.03 -0.62 0.78 0.08
1 4.49 449 -1.671 -10.420 1.475 -44.129 -26.642 7.782 147.354 2783.687 -3293.804 2.165 0.850 0.576 -0.03 -0.63 0.77 0.08
1 4.50 450 -1.901 -10.305 1.662 -34.149 -32.868 5.524 312.247 2843.647 -3233.693 2.378 0.720 0.323 -0.03 -0.63 0.77 0.08
1 4.51 451 -1.422 -9.414 1.992 -28.931 -37.354 5.249 312.247 2843.647 -3233.693 1.885 -0.182 -0.060 -0.03 -0.63 0.77 0.08
1 4.52 452 -0.632 -9.117 2.050 -24.780 -39.581 7.294 117.224 2858.638 -3143.752 1.084 -0.488 -0.162 -0.03 -0.63 0.77 0.07
1 4.53 453 0.646 -8.859 2.361 -12.695 -39.917 10.529 -17.539 2918.599 -3158.742 -0.212 -0.760 -0.537 -0.03 -0.64 0.77 0.07
1 4.54 454 1.302 -8.873 2.686 -5.310 -37.293 14.282 -89.492 2945.131 -3134.158 -0.872 -0.748 -0.874 -0.03 -0.64 0.77 0.07
1 4.55 455 1.599 -8.825 2.911 -1.221 -34.210 17.517 135.362 2990.252 -3134.158 -1.175 -0.796 -1.099 -0.02 -0.64 0.77 0.06
1 4.56 456 1.714 -8.974 2.978 1.129 -30.670 19.928 135.362 2990.252 -3134.158 -1.298 -0.647 -1.159 -0.02 -0.64 0.77 0.06
1 4.57 457 1.719 -9.070 3.098 2.777 -27.039 21.484 150.352 2885.170 -3149.148 -1.314 -0.549 -1.267 -0.02 -0.64 0.77 0.06
1 4.58 458 1.757 -9.371 3.055 -0.092 -26.398 21.484 150.352 2885.170 -3149.148 -1.366 -0.245 -1.210 -0.02 -0.64 0.77 0.06
1 4.59 459 1.748 -9.467 3.017 -3.784 -24.445 20.050 -179.433 2930.141 -3044.217 -1.369 -0.148 -1.161 -0.02 -0.64 0.77 0.05
1 4.60 460 1.523 -9.443 2.854 -5.310 -20.660 16.113 60.411 2915.151 -3089.188 -1.166 -0.172 -0.993 -0.02 -0.64 0.77 0.05
1 4.61 461 1.413 -9.419 2.859 -4.608 -20.111 13.367 45.420 2930.141 -3044.217 -1.061 -0.196 -0.997 -0.02 -0.64 0.77 0.05
1 4.62 462 1.293 -9.472 2.667 -3.998 -19.257 5.707 75.401 3005.242 -3149.148 -0.941 -0.143 -0.803 -0.02 -0.64 0.77 0.05
1 4.63 463 1.355 -9.630 2.696 -5.463 -19.226 0.549 75.401 3005.242 -3149.148 -0.996 0.016 -0.832 -0.01 -0.64 0.77 0.05
1 4.64 464 1.456 -9.864 2.686 -7.324 -17.822 -3.448 -59.511 2885.170 -3149.148 -1.082 0.250 -0.824 -0.01 -0.64 0.77 0.05
1 4.65 465 1.551 -10.099 2.605 -12.146 -17.151 -9.125 -59.511 2885.170 -3149.148 -1.157 0.485 -0.748 -0.01 -0.64 0.77 0.04
1 4.66 466 1.662 -10.099 2.548 -13.702 -16.449 -10.407 30.430 2750.258 -3089.188 -1.241 0.484 -0.702 -0.01 -0.64 0.77 0.04
1 4.67 467 1.537 -10.027 2.389 -11.658 -14.404 -11.139 75.401 2810.219 -3119.168 -1.088 0.410 -0.559 -0.01 -0.64 0.77 0.04
1 4.68 468 1.403 -9.788 2.241 -6.348 -12.726 -12.177 -89.492 2870.180 -3059.207 -0.895 0.169 -0.433 -0 -0.64 0.77 0.05
1 4.69 469 1.537 -9.678 2.198 -3.052 -12.665 -12.116 0.300 2930.141 -2969.266 -0.999 0.060 -0.394 -0 -0.64 0.77 0.05
1 4.70 470 1.556 -9.649 2.188 -1.160 -9.918 -11.200 0.300 2930.141 -2969.266 -0.989 0.033 -0.385 -0 -0.64 0.77 0.05
1 4.71 471 1.662 -9.682 2.030 -0.397 -7.355 -9.277 -89.492 2840.200 -3059.207 -1.068 0.069 -0.225 0 -0.64 0.77 0.05
1 4.72 472 1.815 -9.759 1.939 -1.465 -4.211 -7.935 -89.492 2840.200 -3059.207 -1.198 0.147 -0.132 0 -0.64 0.77 0.05
1 4.73 473 1.891 -9.850 1.939 -1.556 -1.770 -8.820 -29.531 2810.219 -3044.217 -1.252 0.240 -0.132 0 -0.64 0.77 0.05
1 4.74 474 1.978 -9.874 1.911 -1.526 1.465 -8.270 -14.541 2945.131 -2984.256 -1.315 0.265 -0.103 0 -0.64 0.77 0.05
1 4.75 475 1.614 -9.951 1.805 -1.373 6.348 -9.277 -269.524 2870.180 -3059.207 -0.906 0.345 0.003 0.01 -0.64 0.77 0.05
1 4.76 476 1.494 -9.678 1.911 -2.625 6.409 -11.353 -134.462 2780.239 -2894.165 -0.765 0.074 -0.103 0.01 -0.64 0.77 0.05
1 4.77 477 1.456 -9.711 1.810 -3.662 6.866 -13.031 -134.462 2780.239 -2894.165 -0.704 0.109 -0.003 0.01 -0.64 0.77 0.05
1 4.78 478 1.398 -9.529 1.829 -5.371 7.751 -14.404 -164.443 2945.131 -3059.207 -0.623 -0.072 -0.026 0.01 -0.64 0.77 0.05
1 4.79 479 1.202 -9.620 1.705 -6.042 7.385 -14.343 -164.443 2945.131 -3059.207 -0.402 0.020 0.094 0.01 -0.64 0.77 0.06
1 4.80 480 0.953 -9.596 1.671 -4.486 4.791 -13.306 -179.433 2930.141 -3119.168 -0.129 -0.003 0.121 0.01 -0.64 0.77 0.06
1 4.81 481 0.963 -9.505 1.475 -2.777 2.777 -11.658 -284.515 2960.122 -2924.295 -0.117 -0.093 0.312 0.01 -0.64 0.77 0.06
1 4.82 482 0.943 -9.635 1.532 -1.038 1.312 -10.345 -284.515 2960.122 -2924.295 -0.078 0.037 0.251 0.01 -0.64 0.77 0.06
1 4.83 483 0.819 -9.563 1.475 0.061 -1.221 -6.989 -59.511 2810.219 -2924.295 0.078 -0.032 0.305 0.01 -0.64 0.77 0.06
1 4.84 484 0.862 -9.501 1.417 -0.336 -3.143 -4.852 -59.511 2810.219 -2924.295 0.045 -0.094 0.363 0.01 -0.64 0.77 0.06
1 4.85 485 0.982 -9.366 1.393 -0.824 -4.700 -3.021 -134.462 2885.170 -3119.168 -0.066 -0.227 0.385 0.01 -0.64 0.77 0.06
1 4.86 486 0.991 -9.429 1.427 -1.404 -5.432 -1.556 -134.462 2885.170 -3119.168 -0.069 -0.165 0.349 0.01 -0.64 0.77 0.06
1 4.87 487 1.245 -9.481 1.408 -1.770 -5.219 0.275 -119.472 2945.131 -3239.240 -0.318 -0.112 0.364 0.01 -0.64 0.77 0.06
1 4.88 488 1.389 -9.486 1.465 -1.678 -4.944 1.495 -209.414 2885.170 -2999.246 -0.458 -0.108 0.303 0.01 -0.64 0.77 0.06
1 4.89 489 1.393 -9.520 1.326 -1.465 -4.913 2.167 -209.414 2885.170 -2999.246 -0.460 -0.075 0.438 0.01 -0.64 0.77 0.06
1 4.90 490 1.561 -9.280 1.346 -1.556 -3.113 3.174 -209.414 2810.219 -3119.168 -0.622 -0.315 0.411 0.01 -0.64 0.77 0.06
1 4.91 491 1.575 -9.405 1.279 -1.953 -1.495 3.418 -209.414 2810.219 -3119.168 -0.634 -0.191 0.474 0.01 -0.64 0.77 0.06
1 4.92 492 1.451 -9.304 1.159 -3.113 -0.305 4.791 -284.515 2930.141 -2999.246 -0.508 -0.293 0.589 0.01 -0.64 0.77 0.06
1 4.93 493 1.585 -9.247 1.030 -3.876 -0.183 5.096 -284.515 2930.141 -2999.246 -0.643 -0.351 0.711 0.01 -0.64 0.77 0.06
1 4.94 494 1.571 -9.333 1.039 -4.730 0.854 5.585 -134.462 3005.242 -3044.217 -0.630 -0.267 0.693 0.01 -0.64 0.76 0.06
1 4.95 495 1.762 -9.218 0.900 -5.310 1.617 7.019 -119.472 2870.180 -3014.236 -0.824 -0.384 0.822 0.01 -0.64 0.76 0.06
1 4.96 496 1.724 -9.271 1.015 -7.050 2.258 6.653 -119.472 2870.180 -3014.236 -0.789 -0.333 0.696 0.01 -0.64 0.76 0.06
1 4.97 497 1.834 -9.381 0.723 -9.491 3.784 7.446 -134.462 2885.170 -3074.197 -0.906 -0.229 0.960 0.01 -0.64 0.76 0.06
1 4.98 498 1.796 -9.232 0.709 -10.254 4.517 7.507 -134.462 2885.170 -3074.197 -0.871 -0.381 0.956 0.01 -0.64 0.76 0.06
1 4.99 499 1.729 -9.433 0.761 -10.254 5.249 7.965 -284.515 2885.170 -3044.217 -0.808 -0.183 0.884 0.01 -0.64 0.76 0.06
1 5.00 500 1.504 -9.419 0.623 -10.345 5.341 8.301 -284.515 2885.170 -3044.217 -0.589 -0.202 1.004 0.01 -0.65 0.76 0.06
1 5.01 501 1.604 -9.419 0.632 -11.902 5.341 7.935 -104.482 2885.170 -3074.197 -0.697 -0.206 0.975 0.01 -0.65 0.76 0.06
1 5.02 502 1.461 -9.481 0.603 -13.611 5.432 7.568 -134.462 2810.219 -3119.168 -0.560 -0.148 0.981 0.01 -0.65 0.76 0.06
1 5.03 503 1.293 -9.462 0.555 -13.123 4.669 7.263 -134.462 2810.219 -3119.168 -0.399 -0.171 1.005 0.01 -0.65 0.76 0.06
1 5.04 504 1.370 -9.558 0.651 -10.925 2.686 6.805 -59.511 2855.190 -3074.197 -0.488 -0.084 0.863 0.01 -0.65 0.76 0.06
1 5.05 505 1.393 -9.443 0.637 -10.956 2.289 7.050 -59.511 2855.190 -3074.197 -0.518 -0.203 0.857 0.01 -0.65 0.76 0.06
1 5.06 506 1.197 -9.572 0.728 -10.681 2.136 8.545 -119.472 2870.180 -3059.207 -0.328 -0.077 0.747 0.01 -0.65 0.76 0.06
1 5.07 507 1.216 -9.706 0.632 -9.888 0.885 8.972 -119.472 2870.180 -3059.207 -0.356 0.053 0.823 0.01 -0.65 0.76 0.06
1 5.08 508 1.274 -9.635 0.704 -8.881 0.122 9.460 -119.472 3020.232 -2984.256 -0.423 -0.022 0.733 0.01 -0.65 0.75 0.06
1 5.09 509 1.283 -9.989 0.814 -4.639 -0.824 8.698 -59.511 3005.242 -2924.295 -0.443 0.329 0.607 0.01 -0.65 0.75 0.06
1 5.10 510 1.293 -10.003 0.958 -2.777 -1.495 8.453 -59.511 3005.242 -2924.295 -0.461 0.341 0.452 0.01 -0.65 0.75 0.06
1 5.11 511 1.259 -10.152 0.790 -1.984 -1.923 7.660 -254.534 3125.164 -3044.217 -0.435 0.488 0.612 0.01 -0.65 0.75 0.06
1 5.12 512 1.111 -10.133 0.852 -1.678 -4.211 6.348 -59.511 2930.141 -2924.295 -0.299 0.466 0.539 0.01 -0.65 0.75 0.06
1 5.13 513 1.025 -10.166 0.886 -3.174 -6.683 5.310 -104.482 2810.219 -2924.295 -0.216 0.498 0.499 0.01 -0.66 0.75 0.06
1 5.14 514 1.164 -9.936 0.967 -5.554 -9.644 2.625 -104.482 2810.219 -2924.295 -0.357 0.267 0.409 0.01 -0.66 0.75 0.06
1 5.15 515 1.370 -10.061 0.862 -8.026 -11.658 1.404 -29.531 2960.122 -2894.165 -0.561 0.390 0.502 0.01 -0.66 0.75 0.05
1 5.16 516 1.470 -10.123 0.742 -8.972 -12.512 0.610 0.300 2855.190 -2924.295 -0.656 0.450 0.606 0.01 -0.66 0.75 0.05
1 5.17 517 1.686 -9.936 0.685 -7.965 -12.573 0.366 0.300 2855.190 -2924.295 -0.864 0.262 0.646 0.01 -0.66 0.75 0.05
1 5.18 518 1.695 -9.994 0.694 -7.233 -11.993 0.671 -134.462 3005.242 -2924.295 -0.865 0.318 0.619 0.01 -0.66 0.75 0.05
1 5.19 519 1.695 -10.032 1.034 -6.256 -11.292 -1.251 -119.472 3020.232 -3014.236 -0.847 0.354 0.249 0.01 -0.66 0.75 0.05
1 5.20 520 1.585 -10.310 1.494 -4.028 -9.064 -3.601 -119.472 2915.151 -2879.174 -0.725 0.631 -0.222 0.01 -0.66 0.75 0.05
1 5.21 521 1.398 -10.386 1.571 -1.801 -6.989 -8.301 -119.472 2915.151 -2879.174 -0.523 0.708 -0.303 0.01 -0.66 0.75 0.05
1 5.22 522 1.020 -10.334 1.475 -6.744 -4.608 -11.902 -209.414 3005.242 -2924.295 -0.124 0.657 -0.208 0.01 -0.66 0.75 0.05
1 5.23 523 0.651 -9.903 1.561 -14.038 -5.066 -17.609 -134.462 2855.190 -2864.184 0.267 0.227 -0.305 0.01 -0.66 0.75 0.05
1 5.24 524 1.212 -9.726 1.858 -19.653 -7.263 -24.414 -134.462 2855.190 -2864.184 -0.264 0.050 -0.621 0.02 -0.66 0.75 0.05
1 5.25 525 1.379 -9.869 1.939 -19.409 -5.127 -27.313 -209.414 3005.242 -2789.233 -0.395 0.194 -0.728 0.02 -0.66 0.75 0.06
1 5.26 526 1.427 -10.027 2.035 -16.022 -1.831 -30.609 -89.492 2990.252 -2804.223 -0.400 0.354 -0.847 0.02 -0.66 0.75 0.06
1 5.27 527 1.523 -10.497 2.231 -8.606 1.129 -34.790 -239.544 2945.131 -2879.174 -0.394 0.831 -1.073 0.02 -0.66 0.75 0.06
1 5.28 528 1.360 -11.109 2.097 -1.038 -0.671 -36.133 -239.544 2945.131 -2879.174 -0.177 1.450 -0.943 0.02 -0.66 0.74 0.06
1 5.29 529 1.245 -11.435 1.901 4.181 -1.282 -36.286 -194.423 2915.151 -2834.204 -0.006 1.783 -0.744 0.03 -0.66 0.74 0.07
1 5.30 530 1.212 -11.349 1.633 5.493 -3.387 -33.386 -254.534 2930.141 -2864.184 0.081 1.705 -0.467 0.03 -0.66 0.74 0.07
1 5.31 531 1.681 -10.932 1.585 -2.411 -8.637 -24.719 -254.534 2930.141 -2864.184 -0.338 1.296 -0.411 0.03 -0.66 0.75 0.07
1 5.32 532 2.346 -10.516 1.738 -12.146 -9.674 -18.341 -374.456 2990.252 -2774.243 -0.962 0.885 -0.565 0.03 -0.66 0.74 0.07
1 5.33 533 2.725 -10.382 1.499 -22.125 -8.453 -13.062 -374.456 2945.131 -2834.204 -1.308 0.754 -0.340 0.03 -0.66 0.74 0.07
1 5.34 534 2.868 -9.855 1.374 -29.389 -1.190 -4.181 -299.505 2945.131 -2804.223 -1.407 0.226 -0.283 0.04 -0.67 0.74 0.07
1 5.35 535 2.667 -9.826 1.379 -29.114 2.899 1.038 -299.505 2945.131 -2804.223 -1.190 0.195 -0.327 0.04 -0.67 0.74 0.07
1 5.36 536 2.078 -9.644 1.360 -25.238 5.981 4.608 -269.524 3095.184 -2804.223 -0.595 0.010 -0.345 0.04 -0.67 0.74 0.07
1 5.37 537 1.547 -9.357 1.547 -20.386 7.111 6.195 -374.456 3290.207 -2804.223 -0.065 -0.280 -0.562 0.04 -0.67 0.74 0.07
1 5.38 538 1.212 -9.189 1.619 -15.350 8.301 5.707 -374.456 3290.207 -2804.223 0.262 -0.451 -0.656 0.03 -0.67 0.74 0.07
1 5.39 539 0.785 -9.041 1.642 -7.172 11.139 4.852 -449.407 2990.252 -2804.223 0.679 -0.602 -0.692 0.03 -0.67 0.74 0.07
1 5.40 540 0.551 -9.113 1.762 -2.289 11.169 5.585 -179.433 3005.242 -2609.200 0.902 -0.533 -0.815 0.03 -0.67 0.74 0.07
1 5.41 541 0.350 -9.587 1.891 5.310 11.932 5.188 -427.072 2876.926 -2727.923 1.076 -0.061 -0.926 0.03 -0.67 0.74 0.08
1 5.42 542 0.560 -9.936 1.925 9.216 12.512 5.737 -427.072 2876.926 -2727.923 0.850 0.289 -0.939 0.03 -0.67 0.74 0.08
1 5.43 543 0.618 -10.094 2.002 12.421 12.604 7.904 -292.010 3011.988 -2712.933 0.775 0.447 -0.989 0.03 -0.67 0.74 0.08
1 5.44 544 0.766 -10.185 2.030 13.123 12.634 8.972 -366.961 3011.988 -2742.913 0.608 0.538 -0.987 0.03 -0.67 0.74 0.08
1 5.45 545 0.919 -9.975 2.150 10.193 13.672 10.529 -366.961 3011.988 -2742.913 0.436 0.328 -1.077 0.03 -0.67 0.74 0.08
1 5.46 546 0.895 -9.821 2.097 4.608 16.052 13.428 -321.990 3071.949 -2802.874 0.438 0.175 -0.998 0.02 -0.67 0.74 0.08
1 5.47 547 1.020 -9.687 2.126 0.885 17.120 13.580 -321.990 3041.968 -2652.822 0.289 0.040 -1.005 0.02 -0.67 0.74 0.08
1 5.48 548 1.063 -9.424 2.102 -0.153 20.142 14.008 -262.029 2936.887 -2817.864 0.196 -0.227 -0.952 0.02 -0.66 0.74 0.08
1 5.49 549 1.020 -9.429 2.073 -0.122 21.729 14.496 -262.029 2936.887 -2817.864 0.214 -0.224 -0.911 0.02 -0.66 0.74 0.08
1 5.50 550 0.900 -9.352 2.073 2.563 25.604 11.566 -111.977 2982.007 -2742.913 0.309 -0.302 -0.896 0.01 -0.66 0.74 0.08
1 5.51 551 0.642 -9.309 1.786 6.317 26.886 8.728 -202.068 2921.896 -2757.903 0.546 -0.345 -0.591 0.01 -0.66 0.75 0.08
1 5.52 552 0.685 -9.477 1.944 9.705 28.412 6.165 -202.068 2921.896 -2757.903 0.484 -0.177 -0.727 0.01 -0.66 0.75 0.08
1 5.53 553 0.297 -9.807 1.829 15.076 29.419 3.052 -232.049 3161.890 -2712.933 0.857 0.155 -0.585 0.01 -0.66 0.75 0.08
1 5.54 554 0.225 -9.989 1.623 19.165 29.236 1.526 -111.977 2936.887 -2712.933 0.914 0.339 -0.347 0.01 -0.66 0.75 0.08
1 5.55 555 0.057 -10.123 1.710 21.729 28.137 0.122 -111.977 2936.887 -2712.933 1.067 0.477 -0.396 0.01 -0.66 0.75 0.08
1 5.56 556 -0.077 -10.142 1.595 20.783 25.696 0.793 -187.078 2906.906 -2817.864 1.175 0.504 -0.200 0 -0.65 0.75 0.08
1 5.57 557 -0.115 -10.094 1.676 19.257 24.689 2.380 -171.938 3071.949 -2832.854 1.198 0.460 -0.244 0 -0.65 0.75 0.08
1 5.58 558 0.125 -10.152 1.666 17.029 23.102 3.937 -22.036 3041.968 -2907.956 0.942 0.521 -0.200 -0 -0.65 0.75 0.09
1 5.59 559 0.412 -10.224 1.580 16.663 22.400 5.829 -22.036 3041.968 -2907.956 0.636 0.596 -0.082 -0 -0.65 0.75 0.09
1 5.60 560 0.417 -10.123 1.686 14.832 22.034 8.026 -52.016 2996.998 -2832.854 0.612 0.498 -0.158 -0.01 -0.65 0.76 0.09
1 5.61 561 0.536 -10.070 1.652 13.275 22.644 9.003 37.775 2982.007 -2892.965 0.472 0.447 -0.096 -0.01 -0.65 0.76 0.09
1 5.62 562 0.517 -10.070 1.657 12.695 23.316 9.644 37.775 2982.007 -2892.965 0.470 0.449 -0.075 -0.01 -0.65 0.76 0.09
1 5.63 563 0.474 -10.046 1.619 13.428 23.529 8.881 -7.045 2906.906 -2967.917 0.469 0.429 0.012 -0.01 -0.65 0.76 0.09
1 5.64 564 0.249 -9.999 1.518 12.817 23.773 8.331 -37.026 2936.887 -2817.864 0.672 0.383 0.136 -0.01 -0.64 0.76 0.09
1 5.65 565 0.192 -9.951 1.513 11.719 23.682 8.209 82.896 2876.926 -2937.936 0.708 0.337 0.164 -0.02 -0.64 0.76 0.09
1 5.66 566 -0.019 -10.075 1.599 12.054 22.675 7.690 82.896 2876.926 -2937.936 0.896 0.463 0.098 -0.02 -0.64 0.76 0.09
1 5.67 567 -0.029 -10.022 1.547 13.306 22.095 7.660 -37.026 2861.936 -2922.946 0.883 0.412 0.172 -0.02 -0.64 0.76 0.09
1 5.68 568 -0.034 -9.869 1.590 13.641 19.806 5.920 -37.026 2936.887 -2847.845 0.865 0.261 0.152 -0.02 -0.64 0.76 0.09
1 5.69 569 -0.029 -9.764 1.590 13.580 18.616 5.096 -37.026 2936.887 -2847.845 0.840 0.158 0.175 -0.02 -0.64 0.76 0.09
1 5.70 570 -0.158 -9.692 1.393 12.695 17.731 5.005 52.916 2801.975 -2907.956 0.951 0.089 0.394 -0.02 -0.64 0.76 0.09
1 5.71 571 -0.129 -9.759 1.427 12.512 15.259 4.608 82.896 2951.877 -2907.956 0.888 0.161 0.400 -0.03 -0.64 0.76 0.09
1 5.72 572 -0.192 -9.730 1.302 13.245 13.947 4.150 -81.997 2861.936 -2817.864 0.934 0.135 0.544 -0.03 -0.64 0.77 0.09
1 5.73 573 -0.306 -9.759 1.393 13.001 11.353 3.876 -81.997 2861.936 -2817.864 1.034 0.166 0.471 -0.03 -0.64 0.77 0.09
1 5.74 574 -0.412 -9.783 1.178 13.580 10.071 3.265 52.916 2951.877 -3012.887 1.124 0.192 0.705 -0.03 -0.63 0.77 0.09
1 5.75 575 -0.479 -9.764 1.183 15.015 6.592 2.808 112.876 2831.955 -2922.946 1.176 0.175 0.718 -0.03 -0.63 0.77 0.09
1 5.76 576 -0.436 -9.615 1.140 15.289 4.028 2.441 112.876 2831.955 -2922.946 1.119 0.029 0.779 -0.03 -0.63 0.77 0.09
1 5.77 577 -0.407 -9.524 1.111 13.397 1.648 1.740 117.673 2901.810 -3035.522 1.078 -0.059 0.827 -0.03 -0.63 0.77 0.09
1 5.78 578 -0.436 -9.065 1.058 6.042 -2.167 1.282 12.592 2796.878 -2990.552 1.088 -0.514 0.906 -0.03 -0.63 0.77 0.09
1 5.79 579 -0.383 -8.974 0.838 1.129 -5.096 0.366 57.562 2841.849 -3020.532 1.027 -0.605 1.130 -0.03 -0.63 0.77 0.09
1 5.80 580 -0.364 -8.854 0.757 -2.594 -6.561 0.397 57.562 2841.849 -3020.532 1.003 -0.726 1.206 -0.03 -0.63 0.77 0.09
1 5.81 581 -0.326 -8.758 0.804 -6.592 -8.789 1.007 87.693 2841.849 -2945.581 0.960 -0.824 1.147 -0.03 -0.63 0.77 0.09
1 5.82 582 -0.407 -8.677 0.737 -10.040 -10.193 1.099 12.592 2841.849 -3065.503 1.044 -0.908 1.204 -0.03 -0.63 0.77 0.09
1 5.83 583 -0.383 -8.801 0.690 -8.820 -14.893 -1.129 12.592 2841.849 -3065.503 1.024 -0.786 1.238 -0.03 -0.63 0.77 0.09
1 5.84 584 -0.134 -8.998 0.575 -4.944 -16.144 -2.838 -32.229 2901.810 -2975.562 0.782 -0.592 1.339 -0.03 -0.63 0.77 0.09
1 5.85 585 0.067 -9.371 0.670 2.655 -16.510 -4.425 12.592 2766.897 -3065.503 0.589 -0.223 1.217 -0.03 -0.63 0.77 0.09
1 5.86 586 0.311 -9.639 0.776 5.615 -15.930 -3.723 72.553 2826.858 -2930.591 0.353 0.045 1.109 -0.03 -0.63 0.77 0.09
1 5.87 587 0.096 -9.754 1.020 7.263 -15.228 -2.472 72.553 2826.858 -2930.591 0.576 0.161 0.866 -0.03 -0.63 0.77 0.08
1 5.88 588 0.196 -9.797 1.097 7.813 -13.062 -0.946 177.634 2826.858 -2975.562 0.480 0.205 0.794 -0.02 -0.63 0.77 0.08
1 5.89 589 0.220 -9.893 1.279 9.430 -13.428 1.892 132.664 2841.849 -2945.581 0.457 0.302 0.618 -0.02 -0.63 0.77 0.08
1 5.90 590 0.421 -10.152 1.269 9.827 -11.780 3.326 132.664 2841.849 -2945.581 0.254 0.563 0.636 -0.02 -0.63 0.77 0.08
1 5.91 591 0.450 -10.228 1.293 9.033 -12.421 6.012 117.673 2736.917 -2975.562 0.221 0.641 0.622 -0.02 -0.63 0.77 0.08
1 5.92 592 0.594 -10.420 1.561 2.411 -12.878 8.392 -77.200 2706.937 -3005.542 0.068 0.834 0.366 -0.02 -0.63 0.77 0.08
1 5.93 593 0.656 -10.520 1.719 -0.519 -12.390 11.078 -107.180 2826.858 -3035.522 -0.005 0.934 0.206 -0.02 -0.63 0.77 0.08
1 5.94 594 1.049 -10.942 1.518 -6.195 -13.489 19.928 -107.180 2826.858 -3035.522 -0.416 1.353 0.402 -0.02 -0.63 0.77 0.08
1 5.95 595 1.302 -10.406 0.876 -13.123 -15.686 24.567 -77.200 2661.816 -2900.610 -0.696 0.812 1.033 -0.02 -0.63 0.77 0.07
1 5.96 596 1.422 -10.013 0.838 -19.775 -17.487 21.912 -17.239 2766.897 -2915.601 -0.843 0.413 1.045 -0.02 -0.64 0.77 0.07
1 5.97 597 0.723 -10.018 1.393 -22.430 -18.097 21.393 -17.239 2766.897 -2915.601 -0.162 0.409 0.451 -0.02 -0.64 0.77 0.07
1 5.98 598 -0.034 -10.386 1.882 -20.172 -19.226 24.017 -47.219 2721.927 -2990.552 0.573 0.769 -0.077 -0.02 -0.64 0.77 0.07
1 5.99 599 -0.603 -10.827 2.155 -15.900 -20.691 28.442 -47.219 2721.927 -2990.552 1.115 1.202 -0.383 -0.02 -0.64 0.77 0.07
1 6.00 600 -0.589 -10.679 2.270 -4.730 -25.055 33.478 132.664 2916.800 -2945.581 1.025 1.043 -0.538 -0.02 -0.64 0.76 0.06
1 6.01 601 -0.168 -10.238 2.595 1.831 -27.741 34.302 132.664 2916.800 -2945.581 0.562 0.600 -0.867 -0.02 -0.64 0.76 0.06
1 6.02 602 0.517 -9.682 3.098 3.815 -27.283 33.508 72.553 2856.839 -2795.529 -0.170 0.044 -1.362 -0.02 -0.64 0.77 0.05
1 6.03 603 0.493 -9.338 3.314 4.089 -23.377 32.257 132.664 2841.849 -2885.620 -0.187 -0.300 -1.562 -0.02 -0.64 0.77 0.05
1 6.04 604 0.508 -9.606 3.419 4.974 -18.585 32.196 132.664 2841.849 -2885.620 -0.240 -0.029 -1.649 -0.02 -0.64 0.77 0.05
1 6.05 605 0.560 -10.046 3.400 5.005 -16.907 29.236 132.664 2796.878 -2885.620 -0.333 0.414 -1.610 -0.02 -0.64 0.77 0.04
1 6.06 606 0.699 -10.008 3.472 6.134 -14.587 22.980 132.664 2796.878 -2885.620 -0.508 0.379 -1.662 -0.02 -0.64 0.77 0.04
1 6.07 607 0.723 -10.219 3.376 7.538 -8.728 13.031 -17.239 2766.897 -2915.601 -0.577 0.597 -1.523 -0.02 -0.64 0.77 0.04
1 6.08 608 0.910 -10.090 3.227 5.066 -5.707 7.721 -17.239 2766.897 -2915.601 -0.774 0.471 -1.353 -0.02 -0.64 0.77 0.04
1 6.09 609 0.771 -10.334 3.160 0.305 -5.859 1.801 -2.249 2826.858 -2975.562 -0.636 0.719 -1.269 -0.02 -0.63 0.77 0.04
1 6.10 610 0.675 -10.051 3.151 -3.754 -6.561 -3.479 42.572 2826.858 -2975.562 -0.536 0.437 -1.255 -0.02 -0.63 0.77 0.04
1 6.11 611 0.397 -9.975 2.974 -7.507 -7.050 -8.301 42.572 2826.858 -2975.562 -0.245 0.361 -1.076 -0.02 -0.63 0.77 0.04
1 6.12 612 0.464 -9.467 2.706 -7.385 -11.169 -13.977 -2.249 2931.790 -3005.542 -0.293 -0.146 -0.809 -0.02 -0.63 0.77 0.04
1 6.13 613 0.795 -9.319 2.686 -5.402 -16.174 -17.487 -2.249 2931.790 -3005.542 -0.598 -0.295 -0.793 -0.02 -0.63 0.77 0.04
1 6.14 614 1.063 -9.141 2.816 -1.526 -18.890 -18.463 -17.239 2766.897 -2915.601 -0.833 -0.471 -0.923 -0.02 -0.64 0.77 0.04
1 6.15 615 1.235 -8.787 2.528 5.981 -20.325 -15.900 12.592 2841.849 -2945.581 -0.929 -0.821 -0.622 -0.01 -0.63 0.77 0.04
1 6.16 616 1.528 -8.653 2.231 9.125 -20.935 -14.771 132.664 2766.897 -2915.601 -1.184 -0.950 -0.308 -0.01 -0.63 0.77 0.04
1 6.17 617 1.801 -8.629 2.380 13.580 -21.057 -13.855 -47.219 2841.849 -3020.532 -1.420 -0.969 -0.436 -0.01 -0.63 0.77 0.04
1 6.18 618 1.877 -8.883 2.514 15.350 -19.287 -11.963 -47.219 2841.849 -3020.532 -1.459 -0.708 -0.544 -0 -0.63 0.77 0.04
1 6.19 619 2.193 -9.137 2.471 15.533 -13.306 -7.355 -122.170 2691.796 -3020.532 -1.741 -0.447 -0.473 -0 -0.63 0.77 0.04
1 6.20 620 1.891 -9.711 2.351 15.778 -9.460 -6.104 -122.170 2691.796 -3020.532 -1.410 0.135 -0.325 0 -0.63 0.78 0.04
1 6.21 621 1.743 -9.836 2.279 14.801 -5.585 -6.653 -17.239 2871.829 -2990.552 -1.236 0.267 -0.225 0 -0.63 0.78 0.04
1 6.22 622 1.384 -9.864 2.231 10.773 -2.960 -8.972 -47.219 2721.927 -2915.601 -0.831 0.308 -0.131 0 -0.63 0.78 0.04
1 6.23 623 1.207 -9.726 2.236 7.874 -2.228 -10.498 12.592 2766.897 -2990.552 -0.632 0.175 -0.118 0 -0.63 0.78 0.04
1 6.24 624 1.168 -9.659 2.284 5.280 -1.617 -12.421 -242.242 2766.897 -3020.532 -0.571 0.111 -0.154 0.01 -0.63 0.78 0.04
1 6.25 625 1.130 -9.577 2.198 2.350 -1.709 -14.526 -242.242 2766.897 -3020.532 -0.509 0.034 -0.059 0.01 -0.63 0.78 0.04
1 6.26 626 1.255 -9.601 2.275 -0.183 -1.465 -16.602 -92.190 2646.826 -2915.601 -0.605 0.060 -0.131 0.01 -0.62 0.78 0.04
1 6.27 627 1.293 -9.558 1.939 -0.580 -2.411 -17.914 -92.190 2646.826 -2915.601 -0.613 0.020 0.205 0.01 -0.62 0.78 0.04
1 6.28 628 1.207 -9.544 1.863 0.702 -2.441 -17.487 -107.180 2826.858 -2930.591 -0.495 0.008 0.282 0.01 -0.62 0.78 0.05
1 6.29 629 1.082 -9.663 1.891 2.808 -3.143 -16.663 -152.151 2736.917 -3035.522 -0.308 0.133 0.256 0.01 -0.62 0.78 0.05
1 6.30 630 0.963 -9.572 1.733 4.456 -4.822 -15.289 -47.219 2796.878 -2885.620 -0.160 0.045 0.418 0.01 -0.62 0.78 0.05
1 6.31 631 0.881 -9.821 1.820 5.341 -7.935 -13.763 -107.180 2781.888 -2975.562 -0.052 0.298 0.337 0.01 -0.62 0.78 0.05
1 6.32 632 1.034 -9.697 1.820 4.822 -10.864 -12.360 -107.180 2781.888 -2975.562 -0.182 0.176 0.343 0.02 -0.62 0.78 0.05
1 6.33 633 1.188 -9.668 1.815 4.028 -12.604 -9.888 -227.252 2781.888 -2825.509 -0.313 0.151 0.351 0.02 -0.62 0.78 0.05
1 6.34 634 1.465 -9.553 1.724 2.930 -13.550 -6.195 -227.252 2781.888 -2825.509 -0.570 0.038 0.446 0.02 -0.62 0.78 0.05
1 6.35 635 1.542 -9.362 1.863 3.418 -14.099 -4.334 -272.223 2691.796 -3065.503 -0.627 -0.151 0.308 0.02 -0.62 0.78 0.05
1 6.36 636 1.604 -9.089 1.609 3.662 -14.099 -1.099 -227.252 2706.937 -3005.542 -0.658 -0.420 0.567 0.02 -0.62 0.78 0.05
1 6.37 637 1.628 -9.184 1.671 2.930 -12.787 -0.519 -227.252 2706.937 -2975.562 -0.670 -0.322 0.506 0.02 -0.62 0.78 0.05
1 6.38 638 1.662 -9.089 1.551 1.984 -12.695 0.854 -167.291 2646.826 -2990.552 -0.693 -0.417 0.626 0.02 -0.62 0.78 0.05
1 6.39 639 1.666 -9.151 1.504 0.702 -11.047 2.441 -167.291 2646.826 -2990.552 -0.689 -0.354 0.672 0.03 -0.62 0.78 0.05
1 6.40 640 1.767 -9.309 1.585 -0.061 -9.308 4.547 -152.151 2736.917 -2930.591 -0.784 -0.196 0.587 0.03 -0.62 0.78 0.05
1 6.41 641 1.700 -9.333 1.470 -1.831 -6.317 8.087 -152.151 2736.917 -2930.591 -0.714 -0.173 0.698 0.03 -0.62 0.78 0.05
1 6.42 642 1.628 -9.299 1.346 -3.479 -4.425 9.094 -272.223 2721.927 -2945.581 -0.643 -0.208 0.817 0.03 -0.62 0.78 0.05
1 6.43 643 1.786 -9.319 1.389 -4.303 -3.723 10.529 -197.271 2796.878 -2945.581 -0.805 -0.191 0.766 0.03 -0.62 0.78 0.05
1 6.44 644 1.666 -9.299 1.374 -4.700 -2.228 10.803 -257.232 2781.888 -3110.624 -0.699 -0.216 0.760 0.03 -0.62 0.78 0.05
1 6.45 645 1.695 -9.319 1.341 -5.707 -0.977 10.590 -437.265 2781.888 -3110.624 -0.736 -0.200 0.783 0.03 -0.63 0.78 0.05
1 6.46 646 1.681 -9.218 1.264 -6.317 -0.549 10.559 -433.967 2777.541 -3117.669 -0.730 -0.305 0.847 0.03 -0.63 0.78 0.04
1 6.47 647 1.671 -9.208 1.216 -5.707 -0.305 9.308 -238.944 2642.479 -2997.597 -0.728 -0.318 0.882 0.03 -0.63 0.78 0.04
1 6.48 648 2.016 -9.170 1.523 -4.272 -0.244 8.118 -238.944 2642.479 -2997.597 -1.079 -0.360 0.563 0.03 -0.63 0.78 0.04
1 6.49 649 1.978 -9.094 1.575 -5.524 1.526 8.301 -268.925 2762.400 -2892.666 -1.044 -0.439 0.500 0.03 -0.63 0.78 0.04
1 6.50 650 1.915 -9.036 1.346 -9.308 4.334 8.698 -238.944 2792.531 -2847.695 -0.984 -0.498 0.720 0.03 -0.63 0.78 0.04
1 6.51 651 2.002 -8.998 1.255 -11.017 4.211 7.416 -268.925 2687.449 -2922.646 -1.078 -0.545 0.778 0.03 -0.63 0.78 0.04
1 6.52 652 1.987 -9.122 1.226 -10.223 5.219 6.470 -223.954 2627.488 -2937.636 -1.066 -0.424 0.789 0.02 -0.63 0.78 0.04
1 6.53 653 1.901 -9.079 1.283 -10.010 6.561 5.005 -223.954 2627.488 -2937.636 -0.981 -0.471 0.715 0.02 -0.63 0.77 0.04
1 6.54 654 1.671 -9.323 1.226 -10.681 6.836 2.991 -283.915 2732.420 -2982.607 -0.751 -0.230 0.756 0.02 -0.63 0.77 0.04
1 6.55 655 1.484 -9.362 1.168 -11.536 6.317 1.190 -283.915 2732.420 -2982.607 -0.563 -0.195 0.795 0.02 -0.63 0.77 0.04
1 6.56 656 0.939 -9.429 1.001 -14.008 8.118 -0.153 -268.925 2717.430 -2847.695 -0.014 -0.132 0.943 0.02 -0.63 0.77 0.05
1 6.57 657 0.718 -9.352 0.809 -16.388 4.364 -3.143 -118.873 2717.430 -2847.695 0.207 -0.213 1.112 0.02 -0.63 0.77 0.05
1 6.58 658 0.982 -9.228 0.919 -17.578 -0.122 -5.829 -118.873 2717.430 -2847.695 -0.054 -0.343 0.975 0.02 -0.63 0.77 0.05
1 6.59 659 1.346 -9.247 0.876 -19.043 -0.824 -5.341 -178.833 2657.469 -3042.568 -0.399 -0.334 0.956 0.02 -0.64 0.77 0.05
1 6.60 660 1.398 -9.410 0.728 -19.562 -0.549 -3.326 -178.833 2657.469 -3042.568 -0.441 -0.176 1.072 0.02 -0.64 0.77 0.05
1 6.61 661 1.777 -9.400 0.809 -18.921 -1.099 -2.838 -238.944 2642.479 -2952.626 -0.809 -0.191 0.957 0.02 -0.64 0.77 0.05
1 6.62 662 1.810 -9.520 0.886 -17.670 0.153 -2.075 -238.944 2642.479 -2952.626 -0.832 -0.076 0.848 0.02 -0.64 0.77 0.05
1 6.63 663 1.992 -9.735 2.346 -12.573 2.869 -3.571 -178.833 2852.492 -2937.636 -1.004 0.135 -0.642 0.02 -0.64 0.76 0.05
1 6.64 664 1.451 -10.664 2.442 -8.942 6.165 -9.460 -223.954 2777.541 -2832.705 -0.451 1.062 -0.757 0.02 -0.64 0.76 0.05
1 6.65 665 0.713 -10.908 2.212 -8.728 8.148 -14.038 -223.954 2777.541 -2832.705 0.304 1.307 -0.533 0.03 -0.64 0.76 0.05
1 6.66 666 -0.273 -10.712 2.370 -8.698 3.571 -25.208 -193.974 2837.501 -2952.626 1.336 1.112 -0.711 0.03 -0.64 0.76 0.05
1 6.67 667 -0.067 -10.765 2.816 -6.073 -3.662 -31.586 -193.974 2837.501 -2952.626 1.171 1.168 -1.167 0.03 -0.64 0.76 0.06
1 6.68 668 0.369 -10.726 2.868 -7.019 -4.486 -35.706 -238.944 2792.531 -2922.646 0.786 1.134 -1.227 0.03 -0.64 0.76 0.06
1 6.69 669 0.503 -10.851 2.758 -11.444 -4.150 -37.293 -238.944 2792.531 -2922.646 0.708 1.264 -1.128 0.03 -0.64 0.76 0.06
1 6.70 670 0.919 -11.009 2.433 -14.832 -7.141 -38.635 -178.833 2897.462 -2832.705 0.349 1.426 -0.820 0.03 -0.65 0.76 0.06
1 6.71 671 2.078 -11.191 1.719 -14.099 -11.292 -31.830 -283.915 2822.511 -2862.685 -0.750 1.613 -0.128 0.03 -0.65 0.76 0.06
1 6.72 672 2.820 -10.856 1.590 -15.991 -11.444 -23.834 -283.915 2822.511 -2862.685 -1.439 1.282 -0.020 0.04 -0.65 0.76 0.07
1 6.73 673 3.529 -10.257 1.413 -23.285 -4.456 -11.353 -403.837 2852.492 -2757.604 -2.077 0.685 0.107 0.04 -0.65 0.76 0.07
1 6.74 674 3.706 -10.209 1.389 -26.093 0.702 -3.571 -403.837 2852.492 -2757.604 -2.239 0.634 0.096 0.04 -0.65 0.76 0.07
1 6.75 675 3.596 -10.070 1.489 -29.877 5.920 1.587 -448.958 2837.501 -2817.714 -2.125 0.490 -0.041 0.04 -0.65 0.75 0.07
1 6.76 676 3.103 -9.955 1.480 -32.654 11.932 4.791 -448.958 2837.501 -2817.714 -1.636 0.369 -0.073 0.04 -0.65 0.75 0.07
1 6.77 677 2.380 -9.773 1.437 -33.630 17.242 4.913 -403.837 2822.511 -2862.685 -0.909 0.181 -0.074 0.04 -0.65 0.75 0.07
1 6.78 678 1.427 -9.706 1.374 -27.893 17.029 0.946 -388.847 2912.453 -2772.594 0.043 0.108 -0.054 0.04 -0.66 0.75 0.07
1 6.79 679 1.049 -9.611 1.801 -21.607 15.900 -2.930 -388.847 2912.453 -2772.594 0.420 0.007 -0.518 0.04 -0.66 0.75 0.07
1 6.80 680 0.613 -9.496 1.920 -16.693 16.113 -5.707 -343.876 2612.498 -2817.714 0.855 -0.112 -0.665 0.04 -0.66 0.75 0.07
1 6.81 681 0.206 -9.635 1.901 -9.918 13.001 -7.263 -278.069 2965.668 -2619.094 1.265 0.024 -0.671 0.03 -0.66 0.75 0.07
1 6.82 682 0.311 -9.955 2.054 -3.845 10.284 -5.707 -172.987 2920.697 -2664.214 1.160 0.345 -0.826 0.03 -0.66 0.75 0.08
1 6.83 683 0.235 -9.989 2.227 0.732 9.064 -2.625 -172.987 2920.697 -2664.214 1.234 0.379 -0.992 0.03 -0.66 0.75 0.08
1 6.84 684 0.287 -10.099 2.299 2.716 9.216 1.312 -443.111 2680.704 -2604.104 1.174 0.489 -1.052 0.03 -0.66 0.75 0.08
1 6.85 685 0.484 -10.358 2.504 4.395 10.101 10.315 -427.971 2995.798 -2694.195 0.963 0.748 -1.242 0.03 -0.66 0.75 0.08
1 6.86 686 0.546 -10.233 2.658 3.937 13.550 16.083 -427.971 2995.798 -2694.195 0.879 0.622 -1.377 0.03 -0.66 0.75 0.08
1 6.87 687 0.656 -10.133 2.811 2.869 15.961 19.959 -308.049 2860.736 -2649.224 0.738 0.520 -1.511 0.03 -0.66 0.75 0.08
1 6.88 688 0.694 -9.630 2.619 0.549 19.592 21.820 -427.971 2815.766 -2694.195 0.623 0.011 -1.282 0.02 -0.66 0.75 0.07
1 6.89 689 0.709 -9.496 2.576 0.824 21.393 21.729 -308.049 2830.756 -2829.107 0.569 -0.126 -1.222 0.02 -0.66 0.75 0.07
1 6.90 690 0.934 -9.295 2.629 3.113 23.682 21.210 -308.049 2830.756 -2829.107 0.304 -0.330 -1.258 0.02 -0.66 0.75 0.07
1 6.91 691 0.852 -9.079 2.605 6.439 27.039 17.944 -218.108 2920.697 -2694.195 0.349 -0.547 -1.212 0.02 -0.65 0.75 0.07
1 6.92 692 0.680 -9.065 2.308 11.383 31.281 14.618 -427.971 2995.798 -2739.166 0.488 -0.561 -0.889 0.01 -0.65 0.75 0.07
1 6.93 693 0.445 -9.175 2.174 14.893 30.518 10.529 -427.971 2995.798 -2739.166 0.692 -0.450 -0.724 0.01 -0.65 0.75 0.07
1 6.94 694 0.249 -9.472 2.069 18.738 30.151 6.500 -113.026 2935.688 -2649.224 0.862 -0.151 -0.584 0.01 -0.65 0.75 0.08
1 6.95 695 0.005 -9.946 2.083 24.750 28.687 3.326 -172.987 2890.717 -2694.195 1.065 0.331 -0.517 0.01 -0.65 0.76 0.08
1 6.96 696 -0.172 -10.166 2.026 27.283 27.374 1.953 -248.088 3070.750 -2769.146 1.224 0.557 -0.412 0 -0.65 0.76 0.08
1 6.97 697 -0.101 -10.348 2.059 27.802 24.902 2.472 -248.088 3070.750 -2769.146 1.134 0.746 -0.396 0 -0.64 0.76 0.08
1 6.98 698 -0.081 -10.449 2.174 25.879 24.780 4.639 -113.026 2980.658 -2829.107 1.096 0.853 -0.463 0 -0.64 0.76 0.08
1 6.99 699 0.163 -10.243 2.155 23.224 23.193 6.958 -172.987 2815.766 -2739.166 0.830 0.653 -0.399 -0 -0.64 0.76 0.08
1 7.00 700 0.493 -10.300 2.102 17.914 22.217 9.857 -172.987 2815.766 -2739.166 0.476 0.715 -0.306 -0 -0.64 0.76 0.08
1 7.01 701 0.656 -10.137 1.973 16.388 22.766 11.017 -263.079 2830.756 -2784.136 0.289 0.557 -0.142 -0 -0.64 0.77 0.08
1 7.02 702 0.675 -9.965 1.954 15.320 24.139 12.360 -23.085 2815.766 -2769.146 0.246 0.388 -0.093 -0.01 -0.64 0.77 0.08
1 7.03 703 0.359 -9.759 1.863 16.724 26.093 12.634 -233.098 2755.805 -2829.107 0.508 0.188 0.055 -0.01 -0.63 0.77 0.08
1 7.04 704 0.263 -9.438 1.810 16.449 27.374 11.688 -233.098 2755.805 -2829.107 0.575 -0.130 0.137 -0.01 -0.63 0.77 0.08
1 7.05 705 0.201 -9.424 1.690 13.763 26.886 11.231 6.746 2725.674 -2769.146 0.609 -0.141 0.284 -0.01 -0.63 0.77 0.08
1 7.06 706 -0.014 -9.457 1.489 13.123 26.703 9.216 -23.085 2890.717 -2919.198 0.797 -0.105 0.508 -0.02 -0.63 0.77 0.08
1 7.07 707 -0.292 -9.481 1.355 16.022 25.360 7.019 -23.085 2890.717 -2919.198 1.049 -0.079 0.663 -0.02 -0.63 0.77 0.08
1 7.08 708 -0.350 -9.309 1.360 18.219 23.621 6.439 -98.036 2725.674 -2874.228 1.082 -0.248 0.682 -0.02 -0.63 0.77 0.08
1 7.09 709 -0.402 -9.448 1.245 19.623 22.003 4.883 -68.056 2890.717 -2874.228 1.110 -0.105 0.822 -0.02 -0.63 0.77 0.09
1 7.10 710 -0.474 -9.721 1.245 21.576 20.538 4.913 -38.075 2710.684 -2829.107 1.139 0.177 0.878 -0.03 -0.63 0.78 0.09
1 7.11 711 -0.469 -9.735 1.073 23.682 17.853 5.463 -38.075 2710.684 -2829.107 1.113 0.196 1.080 -0.03 -0.62 0.78 0.09
1 7.12 712 -0.522 -9.778 1.015 24.139 14.648 5.066 6.746 2920.697 -2814.117 1.145 0.245 1.168 -0.03 -0.62 0.78 0.09
1 7.13 713 -0.680 -9.730 1.044 23.834 12.329 5.280 -23.085 2770.795 -2994.149 1.283 0.203 1.169 -0.03 -0.62 0.78 0.09
1 7.14 714 -0.565 -9.826 1.034 21.973 8.911 4.883 -23.085 2770.795 -2994.149 1.149 0.304 1.207 -0.03 -0.62 0.78 0.09
1 7.15 715 -0.718 -9.558 1.111 19.440 5.493 4.272 -38.075 2830.756 -3009.140 1.285 0.041 1.155 -0.03 -0.62 0.78 0.09
1 7.16 716 -0.709 -9.065 0.958 11.566 1.984 3.265 156.798 2725.674 -2994.149 1.258 -0.448 1.332 -0.03 -0.62 0.78 0.09
1 7.17 717 -0.795 -8.720 0.891 -2.777 -3.540 2.777 148.703 2628.388 -2914.401 1.317 -0.791 1.412 -0.03 -0.62 0.78 0.08
1 7.18 718 -0.623 -8.648 0.709 -9.277 -6.409 3.448 148.703 2628.388 -2914.401 1.139 -0.866 1.585 -0.03 -0.62 0.78 0.08
1 7.19 719 -0.781 -8.337 0.599 -15.137 -8.026 4.211 58.762 2688.349 -2959.372 1.295 -1.181 1.680 -0.03 -0.62 0.78 0.08
1 7.20 720 -0.843 -8.150 0.441 -22.430 -9.552 4.150 193.674 2718.329 -2929.392 1.356 -1.373 1.815 -0.03 -0.62 0.78 0.08
1 7.21 721 -0.761 -8.155 0.225 -27.863 -11.749 3.021 193.674 2718.329 -2929.392 1.273 -1.376 1.996 -0.03 -0.62 0.78 0.08
1 7.22 722 -0.584 -8.725 0.292 -26.886 -12.817 -0.854 28.631 2703.339 -3049.463 1.098 -0.816 1.888 -0.03 -0.62 0.78 0.08
1 7.23 723 -0.230 -8.921 0.211 -20.355 -13.214 -0.610 193.674 2568.427 -3034.473 0.749 -0.628 1.929 -0.03 -0.62 0.78 0.08
1 7.24 724 0.038 -9.352 0.675 -12.848 -11.688 -1.678 28.631 2778.290 -2839.450 0.486 -0.213 1.393 -0.03 -0.63 0.77 0.08
1 7.25 725 0.091 -9.630 0.915 -11.078 -10.895 -1.434 28.631 2778.290 -2839.450 0.437 0.059 1.127 -0.03 -0.63 0.77 0.08
1 7.26 726 0.077 -10.195 1.810 -4.456 -8.942 0.977 -16.189 2688.349 -2929.392 0.453 0.621 0.214 -0.03 -0.63 0.77 0.08
1 7.27 727 0.345 -10.592 1.686 -0.122 -6.622 5.310 163.693 2808.420 -2854.440 0.181 1.017 0.332 -0.03 -0.63 0.77 0.08
1 7.28 728 0.498 -10.525 1.566 1.251 -6.439 7.416 163.693 2808.420 -2854.440 0.020 0.949 0.451 -0.03 -0.63 0.77 0.08
1 7.29 729 0.790 -11.344 3.160 8.575 -8.514 9.705 -31.180 2778.290 -2944.382 -0.279 1.768 -1.142 -0.03 -0.63 0.77 0.08
1 7.30 730 1.379 -11.335 2.610 9.583 -4.211 16.846 28.631 2748.310 -2914.401 -0.877 1.760 -0.580 -0.03 -0.63 0.77 0.07
1 7.31 731 1.446 -10.468 1.767 -4.364 -2.808 18.951 28.631 2748.310 -2914.401 -0.963 0.896 0.279 -0.03 -0.63 0.77 0.07
1 7.32 732 0.235 -10.027 1.595 -25.391 -7.599 18.250 73.752 2703.339 -2914.401 0.206 0.448 0.427 -0.03 -0.63 0.77 0.07
1 7.33 733 -1.073 -10.070 1.714 -33.112 -9.949 19.989 73.752 2778.290 -2974.362 1.490 0.481 0.264 -0.03 -0.63 0.77 0.07
1 7.34 734 -1.949 -10.841 1.935 -30.640 -14.740 19.714 148.703 2703.339 -2974.362 2.334 1.241 -0.006 -0.03 -0.63 0.77 0.07
1 7.35 735 -2.457 -11.449 2.303 -22.400 -17.609 19.806 148.703 2703.339 -2974.362 2.811 1.839 -0.417 -0.03 -0.63 0.77 0.06
1 7.36 736 -2.021 -10.918 1.992 -16.266 -22.461 16.907 88.742 2613.397 -2824.460 2.353 1.301 -0.136 -0.03 -0.64 0.77 0.06
1 7.37 737 -1.355 -10.611 2.275 -14.771 -26.245 13.214 193.674 2643.378 -2929.392 1.668 0.989 -0.443 -0.03 -0.64 0.77 0.06
1 7.38 738 -0.340 -10.607 2.322 -10.864 -27.802 10.681 193.674 2643.378 -2929.392 0.640 0.980 -0.512 -0.03 -0.64 0.77 0.06
1 7.39 739 0.824 -10.583 2.691 -8.026 -28.229 9.674 28.631 3018.434 -2914.401 -0.537 0.950 -0.911 -0.03 -0.64 0.77 0.05
1 7.40 740 1.159 -10.497 2.888 -11.536 -25.513 9.796 193.674 2718.329 -2749.359 -0.878 0.861 -1.119 -0.03 -0.64 0.77 0.05
1 7.41 741 1.164 -10.123 2.849 -16.663 -23.560 6.744 58.762 2763.300 -2854.440 -0.888 0.484 -1.099 -0.02 -0.64 0.77 0.05
1 7.42 742 1.192 -9.831 2.868 -20.020 -23.987 3.082 58.762 2763.300 -2854.440 -0.912 0.189 -1.136 -0.02 -0.64 0.77 0.05
1 7.43 743 1.365 -9.793 2.888 -19.806 -24.658 1.312 -31.180 2778.290 -3049.463 -1.073 0.148 -1.176 -0.02 -0.64 0.76 0.05
1 7.44 744 1.614 -9.501 2.859 -17.242 -24.994 -1.221 -136.111 2913.352 -2929.392 -1.309 -0.148 -1.168 -0.02 -0.64 0.76 0.05
1 7.45 745 1.666 -9.271 2.820 -14.191 -25.879 -3.174 -136.111 2913.352 -2929.392 -1.344 -0.380 -1.148 -0.02 -0.64 0.76 0.05
1 7.46 746 1.537 -8.955 2.897 -12.512 -25.360 -7.385 28.631 2853.391 -2794.479 -1.194 -0.698 -1.238 -0.01 -0.64 0.76 0.04
1 7.47 747 1.422 -8.849 3.002 -13.367 -25.024 -11.993 -1.199 2778.290 -2719.378 -1.021 -0.804 -1.361 -0.01 -0.65 0.76 0.04
1 7.48 748 1.384 -8.701 2.739 -13.092 -23.895 -13.611 148.703 2928.342 -2659.417 -0.949 -0.952 -1.106 -0.01 -0.65 0.76 0.04
1 7.49 749 1.240 -8.892 2.610 -10.590 -24.414 -13.367 148.703 2928.342 -2659.417 -0.770 -0.761 -0.986 -0.01 -0.65 0.76 0.04
1 7.50 750 1.470 -8.868 2.658 -8.026 -25.024 -13.397 -1.199 2823.411 -2869.431 -0.966 -0.784 -1.040 -0 -0.65 0.76 0.04
1 7.51 751 1.484 -9.156 2.576 -4.120 -21.027 -11.200 -1.199 2853.391 -2764.349 -0.947 -0.495 -0.961 -0 -0.65 0.76 0.04
1 7.52 752 1.518 -9.357 2.457 -1.068 -16.937 -10.803 -1.199 2853.391 -2764.349 -0.948 -0.292 -0.839 0 -0.65 0.76 0.04
1 7.53 753 1.437 -9.457 2.389 2.167 -15.503 -12.939 -136.111 2763.300 -2674.408 -0.838 -0.189 -0.767 0 -0.65 0.76 0.04
1 7.54 754 1.508 -9.726 2.322 3.540 -13.947 -17.029 -136.111 2913.352 -2629.437 -0.847 0.087 -0.681 0.01 -0.65 0.76 0.04
1 7.55 755 1.475 -9.735 2.265 2.899 -12.604 -16.693 -91.141 2958.323 -2824.460 -0.778 0.101 -0.612 0.01 -0.64 0.76 0.05
1 7.56 756 1.528 -9.936 2.227 1.495 -12.054 -17.120 -91.141 2958.323 -2824.460 -0.795 0.306 -0.565 0.01 -0.64 0.76 0.05
1 7.57 757 1.513 -9.869 2.011 -1.434 -12.329 -17.731 -311.797 2908.105 -2788.333 -0.745 0.243 -0.345 0.01 -0.64 0.76 0.05
1 7.58 758 1.480 -9.893 1.887 -3.174 -13.001 -18.524 -146.754 2848.145 -2803.324 -0.676 0.269 -0.220 0.01 -0.64 0.76 0.05
1 7.59 759 1.417 -9.721 1.777 -3.998 -15.778 -18.494 -146.754 2848.145 -2803.324 -0.576 0.100 -0.113 0.02 -0.64 0.76 0.05
1 7.60 760 1.590 -9.773 1.575 -5.066 -15.930 -18.189 -251.836 2848.145 -2803.324 -0.712 0.155 0.082 0.02 -0.64 0.76 0.05
1 7.61 761 1.733 -9.898 1.470 -3.845 -15.106 -16.205 -176.885 2968.066 -2803.324 -0.782 0.284 0.173 0.02 -0.64 0.76 0.05
1 7.62 762 1.729 -9.970 1.465 -2.869 -13.702 -14.313 -311.797 2953.076 -2758.353 -0.743 0.358 0.171 0.02 -0.64 0.76 0.05
1 7.63 763 1.801 -9.864 1.398 -1.678 -13.489 -13.641 -311.797 2953.076 -2758.353 -0.784 0.255 0.233 0.03 -0.65 0.76 0.05
1 7.64 764 1.547 -10.061 1.441 -0.061 -13.336 -12.207 -251.836 2968.066 -2848.294 -0.501 0.454 0.187 0.03 -0.65 0.76 0.05
1 7.65 765 1.537 -9.975 1.542 0.916 -12.207 -10.284 -296.807 2893.115 -2773.343 -0.466 0.370 0.084 0.03 -0.65 0.76 0.05
1 7.66 766 1.326 -9.754 1.681 1.038 -10.895 -10.559 -296.807 2893.115 -2773.343 -0.232 0.152 -0.055 0.03 -0.65 0.76 0.05
1 7.67 767 1.494 -9.764 1.456 0.488 -10.193 -10.284 -251.836 2818.164 -2803.324 -0.378 0.164 0.171 0.03 -0.65 0.76 0.05
1 7.68 768 1.461 -9.582 1.571 0.305 -8.575 -10.284 -251.836 2893.115 -2728.373 -0.303 -0.013 0.056 0.03 -0.64 0.76 0.05
1 7.69 769 1.671 -9.405 1.408 0.610 -7.843 -10.223 -386.748 2833.154 -2893.265 -0.493 -0.187 0.219 0.03 -0.64 0.76 0.05
1 7.70 770 1.724 -9.343 1.393 1.770 -5.981 -9.216 -386.748 2833.154 -2893.265 -0.524 -0.246 0.235 0.04 -0.64 0.76 0.05
1 7.71 771 1.537 -9.180 1.590 2.106 -3.784 -8.270 -296.807 2698.092 -2803.324 -0.318 -0.406 0.041 0.04 -0.64 0.76 0.05
1 7.72 772 1.638 -9.237 1.528 3.052 -2.319 -6.958 -371.758 2923.096 -2728.373 -0.401 -0.346 0.107 0.04 -0.64 0.76 0.05
1 7.73 773 1.671 -9.232 1.417 4.761 -1.251 -4.456 -371.758 2923.096 -2728.373 -0.420 -0.348 0.223 0.04 -0.64 0.76 0.05
1 7.74 774 1.413 -9.213 1.484 4.974 -0.122 -2.899 -236.846 2908.105 -2713.232 -0.149 -0.364 0.163 0.04 -0.64 0.76 0.05
1 7.75 775 1.561 -8.993 1.619 4.181 1.312 -0.702 -236.846 2908.105 -2713.232 -0.288 -0.582 0.037 0.04 -0.64 0.76 0.05
1 7.76 776 1.642 -9.122 1.417 2.777 1.862 1.434 -341.777 2878.125 -2713.232 -0.362 -0.449 0.254 0.04 -0.64 0.76 0.06
1 7.77 777 1.781 -8.988 1.547 2.014 2.991 1.953 -341.777 2878.125 -2713.232 -0.499 -0.582 0.130 0.04 -0.64 0.76 0.06
1 7.78 778 1.834 -8.902 1.710 2.075 5.249 3.632 -371.758 2893.115 -2773.343 -0.551 -0.667 -0.028 0.04 -0.64 0.76 0.06
1 7.79 779 1.954 -9.137 1.551 2.533 5.371 4.028 -371.758 2923.096 -2803.324 -0.671 -0.431 0.136 0.04 -0.64 0.76 0.06
1 7.80 780 2.117 -9.113 1.566 4.547 7.507 4.272 -371.758 2923.096 -2803.324 -0.835 -0.454 0.130 0.04 -0.64 0.76 0.06
1 7.81 781 1.944 -9.060 1.619 3.296 8.240 5.188 -296.807 2848.145 -2803.324 -0.664 -0.505 0.086 0.04 -0.64 0.76 0.06
1 7.82 782 1.982 -8.945 1.499 0.244 8.392 6.226 -296.807 2848.145 -2803.324 -0.704 -0.619 0.215 0.04 -0.64 0.76 0.06
1 7.83 783 1.839 -8.840 1.221 -6.622 10.040 6.531 -326.787 2818.164 -2923.246 -0.570 -0.725 0.493 0.04 -0.64 0.76 0.06
1 7.84 784 1.791 -8.854 1.164 -10.529 10.773 6.928 -326.787 2818.164 -2923.246 -0.528 -0.713 0.541 0.04 -0.64 0.76 0.06
1 7.85 785 1.729 -8.955 0.857 -13.184 11.566 7.721 -326.787 2893.115 -2728.373 -0.473 -0.617 0.833 0.03 -0.64 0.76 0.06
1 7.86 786 1.743 -9.252 0.661 -14.038 11.200 6.989 -236.846 2908.105 -2758.353 -0.496 -0.324 1.009 0.03 -0.64 0.76 0.06
1 7.87 787 1.968 -9.319 0.704 -13.123 11.108 6.012 -236.846 2908.105 -2758.353 -0.728 -0.262 0.943 0.03 -0.64 0.76 0.06
1 7.88 788 1.973 -9.721 0.575 -9.399 9.979 5.127 -341.777 2878.125 -2893.265 -0.737 0.136 1.051 0.03 -0.65 0.76 0.06
1 7.89 789 2.131 -10.118 0.776 -4.761 9.674 4.669 -341.777 2878.125 -2893.265 -0.898 0.530 0.832 0.03 -0.65 0.76 0.06
1 7.90 790 2.184 -10.286 0.891 -1.587 8.789 4.181 -326.787 2923.096 -2728.373 -0.953 0.695 0.705 0.03 -0.65 0.76 0.06
1 7.91 791 2.078 -10.152 0.986 -1.801 9.247 6.958 -251.836 2923.096 -2773.343 -0.852 0.559 0.600 0.03 -0.65 0.76 0.06
1 7.92 792 2.002 -9.989 1.101 -4.486 9.155 7.660 -251.836 2968.066 -2728.373 -0.781 0.395 0.480 0.03 -0.65 0.76 0.06
1 7.93 793 2.097 -9.884 0.982 -5.859 9.918 8.240 -206.865 3028.177 -2758.353 -0.884 0.287 0.592 0.03 -0.65 0.76 0.06
1 7.94 794 2.126 -9.941 1.168 -5.951 9.796 8.606 -206.865 3028.177 -2758.353 -0.920 0.342 0.394 0.03 -0.65 0.76 0.06
1 7.95 795 2.050 -9.979 1.274 -6.561 11.719 7.874 -266.826 2953.076 -2833.304 -0.850 0.378 0.280 0.03 -0.65 0.76 0.06
1 7.96 796 1.911 -10.224 1.283 -6.042 12.299 8.789 -266.826 2953.076 -2833.304 -0.717 0.620 0.261 0.03 -0.65 0.76 0.06
1 7.97 797 1.642 -10.109 1.192 -5.829 12.085 8.179 -251.836 2893.115 -2803.324 -0.457 0.503 0.345 0.02 -0.65 0.76 0.06
1 7.98 798 1.422 -10.128 1.393 -7.690 10.620 9.369 -371.758 2923.096 -2728.373 -0.257 0.517 0.127 0.02 -0.65 0.76 0.06
1 7.99 799 1.279 -9.802 1.480 -10.284 11.932 12.085 -11.842 2953.076 -2758.353 -0.128 0.188 0.030 0.02 -0.65 0.76 0.07
1 8.00 800 1.408 -9.682 1.346 -13.916 10.010 11.871 -341.777 3028.177 -2788.333 -0.275 0.064 0.151 0.02 -0.65 0.76 0.07
1 8.01 801 1.724 -9.697 1.207 -16.968 8.514 10.376 -341.777 3028.177 -2788.333 -0.607 0.073 0.270 0.02 -0.65 0.76 0.07
1 8.02 802 1.935 -9.673 1.288 -16.937 11.322 11.353 -146.754 3043.167 -2803.324 -0.830 0.044 0.165 0.02 -0.65 0.75 0.07
1 8.03 803 1.925 -9.491 0.843 -16.602 16.235 13.916 -146.754 3043.167 -2803.324 -0.833 -0.143 0.587 0.02 -0.65 0.75 0.07
1 8.04 804 1.944 -9.424 0.670 -14.099 16.968 15.076 -176.885 3013.187 -2668.262 -0.869 -0.215 0.737 0.02 -0.65 0.75 0.07
1 8.05 805 1.973 -9.232 1.863 -10.284 17.181 13.153 -206.865 2953.076 -2683.252 -0.933 -0.416 -0.494 0.01 -0.66 0.75 0.07
1 8.06 806 1.944 -9.548 1.408 -10.376 19.989 3.357 -26.833 3043.167 -2668.262 -0.916 -0.102 -0.047 0.01 -0.66 0.75 0.07
1 8.07 807 1.226 -9.879 1.006 -15.533 24.536 -1.617 -56.813 2953.076 -2788.333 -0.195 0.227 0.345 0.01 -0.66 0.75 0.07
1 8.08 808 0.148 -9.932 0.828 -16.052 23.316 -5.249 -56.813 2953.076 -2788.333 0.885 0.277 0.502 0.01 -0.66 0.75 0.07
1 8.09 809 0.077 -10.315 1.370 -9.674 10.742 -14.679 -86.793 3028.177 -2713.232 0.960 0.658 -0.059 0.01 -0.66 0.75 0.07
1 8.10 810 0.378 -10.808 1.705 -11.383 8.545 -21.515 -86.793 3028.177 -2713.232 0.675 1.151 -0.407 0.01 -0.66 0.75 0.07
1 8.11 811 0.120 -10.822 1.585 -15.015 10.468 -23.895 -206.865 2983.207 -2533.350 0.958 1.167 -0.298 0.01 -0.66 0.75 0.07
1 8.12 812 -0.005 -11.119 1.073 -18.890 3.998 -29.205 -86.793 2953.076 -2788.333 1.156 1.467 0.175 0.01 -0.66 0.75 0.08
1 8.13 813 0.048 -11.114 0.977 -19.745 0.641 -29.327 -26.833 3088.138 -2668.262 1.147 1.464 0.244 0.01 -0.66 0.75 0.08
1 8.14 814 0.670 -10.736 0.895 -20.783 -7.355 -29.602 -176.885 3013.187 -2728.373 0.570 1.088 0.297 0.01 -0.66 0.74 0.08
1 8.15 815 1.451 -10.353 1.087 -24.170 -10.284 -27.191 -176.885 3013.187 -2728.373 -0.165 0.707 0.073 0.01 -0.66 0.74 0.08
1 8.16 816 1.786 -10.142 1.144 -27.069 -9.247 -22.003 -221.855 3088.138 -2668.262 -0.460 0.497 -0.022 0.02 -0.67 0.74 0.08
1 8.17 817 1.930 -9.577 1.374 -24.933 -8.789 -14.191 -221.855 3088.138 -2668.262 -0.568 -0.067 -0.293 0.02 -0.67 0.74 0.09
1 8.18 818 1.853 -9.180 1.494 -23.773 -8.118 -10.590 -266.826 3058.158 -2683.252 -0.463 -0.465 -0.448 0.02 -0.67 0.74 0.09
1 8.19 819 1.700 -9.094 1.556 -21.973 -5.035 -6.195 -101.784 2968.066 -2623.291 -0.286 -0.551 -0.542 0.02 -0.67 0.74 0.09
1 8.20 820 0.953 -8.912 1.681 -17.548 -0.519 1.587 -71.803 2923.096 -2593.311 0.485 -0.735 -0.718 0.02 -0.67 0.74 0.09
1 8.21 821 0.790 -9.194 1.973 -10.864 1.312 3.693 -326.787 3163.089 -2623.291 0.644 -0.454 -1.026 0.02 -0.67 0.74 0.09
1 8.22 822 0.608 -9.347 2.045 -4.608 2.380 2.869 -326.787 3163.089 -2623.291 0.817 -0.303 -1.102 0.02 -0.67 0.74 0.09
1 8.23 823 0.742 -9.486 2.361 0.916 5.341 2.625 -206.865 3058.158 -2683.252 0.674 -0.164 -1.413 0.02 -0.67 0.74 0.09
1 8.24 824 0.728 -9.481 2.457 5.524 14.038 3.876 -206.865 3058.158 -2683.252 0.681 -0.169 -1.492 0.02 -0.67 0.74 0.09
1 8.25 825 0.359 -9.405 2.313 6.622 18.890 3.937 -221.855 3043.167 -2623.291 1.039 -0.244 -1.324 0.02 -0.67 0.74 0.09
1 8.26 826 0.393 -9.405 2.236 6.317 20.630 2.594 -236.846 3103.128 -2578.320 0.993 -0.244 -1.221 0.02 -0.67 0.74 0.09
1 8.27 827 0.086 -9.457 1.901 7.507 20.538 -3.693 -146.754 2848.145 -2728.373 1.276 -0.189 -0.836 0.01 -0.67 0.74 0.09
1 8.28 828 0.297 -9.673 1.633 8.545 19.104 -5.768 -176.885 3238.190 -2488.379 1.061 0.029 -0.544 0.01 -0.67 0.74 0.09
1 8.29 829 0.532 -9.955 1.599 9.735 17.944 -7.050 -176.885 3238.190 -2488.379 0.826 0.314 -0.486 0.01 -0.67 0.74 0.09
1 8.30 830 0.551 -10.099 1.551 12.177 16.235 -6.195 -251.836 3118.119 -2593.311 0.808 0.461 -0.414 0.01 -0.66 0.74 0.09
1 8.31 831 0.627 -10.501 1.666 15.137 14.923 -5.951 -251.836 3118.119 -2593.311 0.733 0.866 -0.502 0.01 -0.66 0.74 0.09
1 8.32 832 0.508 -10.894 1.686 21.545 14.221 -3.174 -266.826 3028.177 -2683.252 0.853 1.263 -0.489 0.01 -0.66 0.74 0.1
1 8.33 833 0.426 -11.296 1.815 26.001 12.909 -0.458 -251.836 3043.167 -2668.262 0.935 1.670 -0.582 0.01 -0.66 0.74 0.1
1 8.34 834 0.268 -11.679 2.011 27.741 11.688 2.838 -251.836 3043.167 -2668.262 1.094 2.058 -0.737 0.01 -0.66 0.75 0.1
1 8.35 835 0.105 -11.727 2.054 27.466 8.545 6.989 -146.754 3043.167 -2698.242 1.244 2.117 -0.688 0.01 -0.66 0.75 0.1
1 8.36 836 -0.038 -11.732 2.308 24.597 6.714 9.491 -146.754 3043.167 -2698.242 1.376 2.127 -0.899 0.01 -0.65 0.75 0.1
1 8.37 837 0.125 -11.545 2.255 24.323 5.493 13.458 -236.846 3028.177 -2683.252 1.198 1.943 -0.807 0 -0.65 0.75 0.1
1 8.38 838 0.479 -11.172 2.327 24.963 5.493 17.670 -236.846 3028.177 -2683.252 0.822 1.573 -0.840 0 -0.65 0.75 0.1
1 8.39 839 0.895 -10.468 2.437 24.719 7.721 21.118 -236.846 3253.181 -2758.353 0.378 0.872 -0.909 0 -0.65 0.75 0.1
1 8.40 840 1.087 -9.764 2.533 21.729 9.430 22.583 -206.865 3058.158 -2713.232 0.156 0.171 -0.964 0 -0.65 0.76 0.1
1 8.41 841 1.188 -9.343 2.375 19.013 11.871 21.973 -206.865 3058.158 -2713.232 0.020 -0.248 -0.764 0 -0.65 0.76 0.09
1 8.42 842 0.876 -8.835 2.030 17.212 15.472 21.271 -11.842 3028.177 -2788.333 0.262 -0.752 -0.345 -0 -0.64 0.76 0.09
1 8.43 843 0.699 -8.715 1.868 17.456 15.076 18.555 -11.842 3028.177 -2788.333 0.405 -0.869 -0.148 -0 -0.64 0.76 0.09
1 8.44 844 0.551 -8.888 1.733 16.022 14.557 17.181 -11.842 3028.177 -2788.333 0.522 -0.695 0.017 -0.01 -0.64 0.76 0.09
1 8.45 845 0.503 -8.902 1.518 15.961 15.472 14.557 -11.842 3028.177 -2788.333 0.540 -0.678 0.262 -0.01 -0.64 0.76 0.09
1 8.46 846 0.321 -9.141 1.504 18.585 15.289 12.207 78.099 2923.096 -2728.373 0.695 -0.437 0.305 -0.01 -0.64 0.76 0.09
1 8.47 847 0.306 -9.252 1.360 20.722 14.252 9.949 -56.813 2983.207 -2683.252 0.685 -0.323 0.480 -0.01 -0.64 0.77 0.09
1 8.48 848 0.139 -9.223 1.216 19.196 14.832 8.301 -56.813 2983.207 -2683.252 0.830 -0.348 0.655 -0.01 -0.64 0.77 0.09
1 8.49 849 0.235 -9.429 1.087 18.646 14.008 5.981 -26.833 2893.115 -2848.294 0.696 -0.135 0.841 -0.01 -0.63 0.77 0.09
1 8.50 850 0.105 -9.199 0.948 18.097 13.458 3.845 -26.833 2893.115 -2848.294 0.809 -0.361 1.006 -0.02 -0.63 0.77 0.09
1 8.51 851 0.125 -9.376 1.010 17.914 12.604 3.326 -56.813 2953.076 -2788.333 0.776 -0.180 0.967 -0.02 -0.63 0.77 0.09
1 8.52 852 0.153 -9.472 0.804 15.564 11.108 2.075 -56.813 2953.076 -2788.333 0.735 -0.081 1.195 -0.02 -0.63 0.77 0.09
1 8.53 853 0.010 -9.333 0.819 13.611 10.193 1.495 -11.842 2878.125 -2893.265 0.869 -0.217 1.198 -0.02 -0.63 0.77 0.09
1 8.54 854 0.010 -9.443 0.733 13.245 7.904 0.153 32.979 2848.145 -2878.275 0.859 -0.105 1.299 -0.02 -0.63 0.77 0.09
1 8.55 855 -0.144 -9.462 0.742 13.580 5.402 0.580 32.979 2848.145 -2878.275 1.004 -0.083 1.303 -0.02 -0.63 0.77 0.09
1 8.56 856 -0.120 -9.424 0.800 9.064 2.869 0.580 38.375 3037.771 -2856.389 0.965 -0.118 1.270 -0.02 -0.63 0.77 0.09
1 8.57 857 -0.211 -9.400 0.737 6.226 1.160 0.427 38.375 3037.771 -2856.389 1.049 -0.141 1.338 -0.02 -0.63 0.77 0.09
1 8.58 858 -0.230 -9.352 0.680 0.549 -2.472 1.038 38.375 2842.748 -2931.490 1.060 -0.191 1.391 -0.02 -0.63 0.77 0.09
1 8.59 859 -0.350 -9.443 0.426 -1.740 -5.341 1.434 38.375 2842.748 -2931.490 1.173 -0.102 1.636 -0.02 -0.63 0.77 0.09
1 8.60 860 -0.350 -9.309 0.445 -4.120 -8.972 1.373 -6.596 2947.830 -2871.529 1.166 -0.240 1.604 -0.02 -0.63 0.77 0.09
1 8.61 861 -0.330 -9.232 0.503 -9.155 -12.817 1.312 38.375 2767.797 -3066.402 1.140 -0.320 1.529 -0.02 -0.63 0.77 0.09
1 8.62 862 -0.369 -9.438 0.551 -11.505 -13.763 2.106 38.375 2767.797 -3066.402 1.173 -0.120 1.458 -0.02 -0.63 0.77 0.09
1 8.63 863 -0.364 -9.496 0.570 -10.010 -14.038 1.770 23.385 2902.709 -2976.461 1.163 -0.068 1.413 -0.02 -0.63 0.77 0.09
1 8.64 864 -0.192 -9.563 0.646 -7.904 -13.184 1.831 98.336 2947.830 -2871.529 0.978 -0.012 1.288 -0.02 -0.63 0.77 0.09
1 8.65 865 -0.019 -9.793 0.642 -6.317 -12.482 2.472 8.245 2917.699 -2961.471 0.800 0.213 1.273 -0.02 -0.63 0.77 0.09
1 8.66 866 0.211 -10.104 0.603 -3.113 -11.322 2.411 8.245 2917.699 -2961.471 0.565 0.521 1.294 -0.02 -0.63 0.77 0.09
1 8.67 867 0.278 -10.147 0.551 -1.312 -10.223 2.869 23.385 2797.777 -2796.428 0.494 0.561 1.334 -0.02 -0.64 0.77 0.08
1 8.68 868 0.297 -10.228 0.512 -0.916 -8.026 2.594 38.375 2887.719 -2781.438 0.471 0.640 1.361 -0.02 -0.64 0.77 0.08
1 8.69 869 0.072 -9.994 0.546 -2.106 -6.165 3.052 38.375 2887.719 -2781.438 0.692 0.403 1.317 -0.02 -0.64 0.77 0.08
1 8.70 870 -0.086 -10.051 0.455 -2.838 -7.019 2.960 23.385 2947.830 -2976.461 0.844 0.458 1.396 -0.02 -0.64 0.77 0.08
1 8.71 871 -0.397 -10.497 1.063 -0.336 -9.125 2.930 113.326 3037.771 -2931.490 1.142 0.897 0.763 -0.02 -0.64 0.77 0.08
1 8.72 872 -0.057 -10.865 1.571 4.425 -9.735 5.432 38.375 2962.820 -2856.389 0.792 1.264 0.250 -0.02 -0.64 0.77 0.08
1 8.73 873 0.249 -11.133 1.652 3.845 -10.223 8.637 38.375 2962.820 -2856.389 0.476 1.532 0.174 -0.02 -0.64 0.77 0.08
1 8.74 874 0.943 -11.143 1.772 0.793 -10.895 13.275 -6.596 2902.709 -2766.448 -0.228 1.542 0.060 -0.02 -0.64 0.77 0.08
1 8.75 875 1.312 -10.899 1.633 -4.425 -11.810 19.531 23.385 2902.709 -2946.480 -0.614 1.297 0.198 -0.02 -0.64 0.77 0.08
1 8.76 876 1.202 -9.769 1.604 -18.097 -13.214 24.139 23.385 2902.709 -2946.480 -0.530 0.163 0.217 -0.02 -0.64 0.77 0.08
1 8.77 877 0.977 -9.275 1.350 -26.550 -15.533 25.269 8.245 2887.719 -2931.490 -0.330 -0.337 0.447 -0.02 -0.64 0.77 0.07
1 8.78 878 0.479 -9.132 1.393 -31.128 -18.433 25.818 83.346 2917.699 -2961.471 0.140 -0.489 0.366 -0.02 -0.64 0.76 0.07
1 8.79 879 -0.498 -9.558 1.963 -25.116 -20.874 26.733 -21.586 3112.722 -2886.520 1.054 -0.083 -0.298 -0.02 -0.64 0.76 0.07
1 8.80 880 -0.699 -10.362 2.337 -11.078 -18.311 30.945 -21.586 3112.722 -2886.520 1.214 0.713 -0.703 -0.02 -0.65 0.76 0.06
1 8.81 881 -0.254 -10.664 2.255 4.028 -13.794 35.889 -51.566 3052.761 -2796.428 0.717 1.012 -0.626 -0.02 -0.65 0.76 0.06
1 8.82 882 0.249 -10.530 2.260 11.597 -12.604 33.508 113.326 3112.722 -2781.438 0.165 0.877 -0.621 -0.02 -0.64 0.76 0.06
1 8.83 883 0.948 -10.511 2.619 6.928 -13.611 23.254 113.326 3112.722 -2781.438 -0.577 0.860 -0.960 -0.02 -0.64 0.76 0.06
1 8.84 884 0.857 -10.774 2.782 1.556 -8.820 19.684 98.336 3052.761 -2871.529 -0.517 1.125 -1.105 -0.02 -0.64 0.76 0.05
1 8.85 885 0.469 -11.114 2.658 -1.251 -4.852 18.768 143.307 2977.810 -2871.529 -0.155 1.465 -0.975 -0.02 -0.64 0.76 0.05
1 8.86 886 -0.019 -11.114 2.648 -10.376 -9.613 13.153 68.355 2977.810 -3021.432 0.286 1.463 -0.971 -0.02 -0.64 0.76 0.05
1 8.87 887 0.105 -11.066 2.820 -18.494 -13.153 9.003 68.355 2977.810 -3021.432 0.147 1.411 -1.160 -0.02 -0.64 0.76 0.05
1 8.88 888 0.215 -10.918 2.883 -21.881 -11.566 7.446 83.346 2917.699 -2811.418 0.029 1.258 -1.250 -0.02 -0.65 0.76 0.05
1 8.89 889 0.350 -10.434 2.557 -18.341 -11.902 5.310 8.245 3037.771 -2781.438 -0.111 0.769 -0.954 -0.02 -0.65 0.76 0.05
1 8.90 890 0.512 -9.898 2.667 -14.343 -16.022 3.479 8.245 3037.771 -2781.438 -0.277 0.229 -1.086 -0.02 -0.65 0.76 0.04
1 8.91 891 0.967 -9.170 2.916 -12.878 -18.799 0.580 143.307 3217.804 -2871.529 -0.729 -0.501 -1.347 -0.02 -0.65 0.76 0.04
1 8.92 892 0.910 -8.916 3.084 -12.939 -19.836 0.092 38.375 2962.820 -2961.471 -0.663 -0.755 -1.523 -0.02 -0.65 0.76 0.04
1 8.93 893 0.651 -8.581 2.878 -6.928 -20.355 -2.594 -66.557 3082.742 -2781.438 -0.380 -1.092 -1.328 -0.02 -0.65 0.76 0.04
1 8.94 894 0.766 -8.327 2.773 -1.587 -22.553 -4.028 -66.557 3082.742 -2781.438 -0.481 -1.345 -1.219 -0.02 -0.65 0.76 0.04
1 8.95 895 0.939 -8.188 2.734 4.883 -24.963 -5.554 173.287 2947.830 -2691.497 -0.639 -1.482 -1.175 -0.01 -0.65 0.76 0.04
1 8.96 896 1.317 -8.275 2.902 10.986 -25.177 -3.510 23.385 2977.810 -2841.399 -1.002 -1.394 -1.332 -0.01 -0.65 0.76 0.04
1 8.97 897 1.729 -8.538 2.902 14.679 -23.651 -3.815 23.385 2977.810 -2841.399 -1.397 -1.126 -1.308 -0.01 -0.65 0.76 0.04
1 8.98 898 1.844 -8.883 2.744 17.334 -17.914 -3.845 -21.586 2962.820 -2736.467 -1.489 -0.775 -1.116 -0.01 -0.65 0.76 0.04
1 8.99 899 1.896 -9.328 2.777 17.883 -13.916 -3.815 -156.498 2977.810 -2796.428 -1.518 -0.322 -1.114 -0.01 -0.64 0.76 0.04
1 9.00 900 1.264 -9.879 2.480 16.998 -10.193 -3.113 98.336 3022.781 -2946.480 -0.844 0.242 -0.747 -0 -0.64 0.77 0.04
1 9.01 901 1.111 -9.936 2.452 15.442 -9.613 -2.472 98.336 3022.781 -2946.480 -0.675 0.306 -0.688 -0 -0.64 0.77 0.04
1 9.02 902 0.575 -10.027 2.322 9.522 -10.101 -3.784 8.245 3007.791 -2811.418 -0.128 0.402 -0.535 -0 -0.64 0.77 0.04
1 9.03 903 0.522 -9.965 2.255 6.317 -13.184 -4.364 -51.566 2977.810 -2796.428 -0.064 0.343 -0.451 -0 -0.64 0.77 0.04
1 9.04 904 0.508 -9.778 2.140 3.815 -16.632 -5.127 -51.566 2977.810 -2796.428 -0.038 0.159 -0.325 0 -0.64 0.77 0.04
1 9.05 905 1.020 -9.745 2.164 3.387 -18.707 -7.202 8.245 2962.820 -2931.490 -0.536 0.128 -0.341 0 -0.64 0.77 0.04
1 9.06 906 1.350 -9.797 2.179 3.754 -18.158 -7.935 -141.508 3037.771 -2856.389 -0.848 0.183 -0.347 0 -0.64 0.77 0.04
1 9.07 907 1.523 -9.941 2.006 3.418 -16.541 -9.399 -141.508 3037.771 -2856.389 -0.999 0.330 -0.167 0.01 -0.64 0.77 0.04
1 9.08 908 1.288 -9.797 1.834 3.357 -15.564 -11.841 -21.586 3082.742 -2931.490 -0.711 0.191 0.018 0.01 -0.64 0.77 0.04
1 9.09 909 1.350 -9.802 1.911 4.608 -14.801 -12.604 -141.508 3037.771 -2856.389 -0.744 0.199 -0.053 0.01 -0.64 0.77 0.04
1 9.10 910 1.302 -9.682 1.815 4.852 -15.442 -14.191 -171.488 3037.771 -2931.490 -0.667 0.083 0.050 0.01 -0.64 0.77 0.04
1 9.11 911 1.001 -9.654 1.580 4.791 -16.113 -13.855 -171.488 3037.771 -2931.490 -0.334 0.057 0.291 0.01 -0.64 0.77 0.04
1 9.12 912 1.068 -9.568 1.508 6.073 -18.524 -13.672 -171.488 3082.742 -2931.490 -0.372 -0.026 0.369 0.02 -0.64 0.77 0.04
1 9.13 913 1.101 -9.472 1.590 6.012 -19.318 -12.054 -156.498 3022.781 -2946.480 -0.377 -0.118 0.294 0.02 -0.64 0.77 0.04
1 9.14 914 1.106 -9.309 1.523 5.157 -18.189 -10.315 -156.498 3022.781 -2946.480 -0.353 -0.277 0.367 0.02 -0.63 0.77 0.04
1 9.15 915 1.370 -9.419 1.518 4.059 -19.135 -8.667 -81.547 2947.830 -2841.399 -0.567 -0.162 0.380 0.02 -0.63 0.77 0.04
1 9.16 916 1.518 -9.252 1.566 5.402 -16.846 -5.768 -231.599 3022.781 -2841.399 -0.693 -0.327 0.336 0.02 -0.63 0.77 0.04
1 9.17 917 1.360 -9.113 1.432 5.829 -14.160 -3.937 -156.498 3022.781 -2976.461 -0.515 -0.463 0.475 0.03 -0.63 0.77 0.04
1 9.18 918 1.259 -9.046 1.293 6.378 -12.329 -1.953 -156.498 3022.781 -2976.461 -0.400 -0.527 0.620 0.03 -0.63 0.77 0.04
1 9.19 919 1.269 -8.983 1.317 5.432 -12.054 0.488 -216.609 3037.771 -2931.490 -0.399 -0.587 0.602 0.03 -0.63 0.77 0.04
1 9.20 920 1.484 -9.151 1.235 4.150 -9.674 3.235 -201.469 3097.732 -2871.529 -0.608 -0.418 0.688 0.03 -0.63 0.77 0.04
1 9.21 921 1.571 -9.347 1.197 4.425 -8.637 5.188 -201.469 3097.732 -2871.529 -0.690 -0.221 0.728 0.03 -0.63 0.77 0.04
1 9.22 922 1.513 -9.395 1.226 3.937 -6.866 6.256 -302.953 2868.381 -2878.725 -0.631 -0.173 0.702 0.03 -0.63 0.77 0.04
1 9.23 923 1.556 -9.448 1.226 2.136 -4.944 8.698 -257.982 3093.385 -3058.757 -0.678 -0.120 0.704 0.03 -0.63 0.77 0.03
1 9.24 924 1.595 -9.592 1.168 1.770 -4.456 8.972 -362.914 2958.473 -2968.666 -0.721 0.023 0.761 0.03 -0.63 0.77 0.03
1 9.25 925 1.489 -9.362 1.288 1.434 -3.723 9.277 -362.914 2958.473 -2968.666 -0.621 -0.208 0.640 0.03 -0.63 0.77 0.03
1 9.26 926 1.542 -9.299 1.360 -0.916 -3.052 9.277 -152.900 2793.430 -2878.725 -0.681 -0.271 0.566 0.03 -0.63 0.77 0.03
1 9.27 927 1.456 -9.414 1.097 -4.364 -1.434 9.277 -257.982 2943.482 -2908.705 -0.600 -0.158 0.823 0.03 -0.63 0.77 0.03
1 9.28 928 1.461 -9.338 1.135 -4.059 -1.129 9.399 -257.982 2943.482 -2908.705 -0.612 -0.237 0.776 0.03 -0.63 0.77 0.03
1 9.29 929 1.547 -9.252 1.068 -5.005 -0.580 8.881 -257.982 2973.463 -3058.757 -0.705 -0.326 0.833 0.03 -0.63 0.77 0.03
1 9.30 930 1.662 -9.146 1.049 -6.470 0.214 8.301 -302.953 2973.463 -2908.705 -0.833 -0.436 0.830 0.03 -0.64 0.77 0.03
1 9.31 931 1.796 -9.323 1.144 -7.477 0.458 6.866 -213.011 3078.395 -2968.666 -0.971 -0.262 0.721 0.03 -0.64 0.77 0.03
1 9.32 932 1.805 -9.223 1.068 -7.355 -0.671 4.913 -213.011 3078.395 -2968.666 -0.982 -0.365 0.783 0.03 -0.64 0.77 0.03
1 9.33 933 1.939 -9.323 1.135 -6.775 0.244 3.571 -242.992 3003.443 -2863.734 -1.113 -0.267 0.703 0.03 -0.64 0.77 0.03
1 9.34 934 1.887 -9.309 1.121 -5.280 2.045 5.432 -228.001 3048.414 -2773.643 -1.057 -0.284 0.705 0.03 -0.64 0.77 0.03
1 9.35 935 2.040 -9.127 1.164 -4.822 2.930 4.089 -228.001 3048.414 -2773.643 -1.209 -0.467 0.652 0.03 -0.64 0.77 0.03
1 9.36 936 1.954 -9.184 1.374 -5.920 2.869 2.350 -122.920 2973.463 -2983.656 -1.120 -0.411 0.433 0.03 -0.64 0.77 0.03
1 9.37 937 1.868 -9.213 1.432 -6.165 4.669 0.702 -257.982 2943.482 -2908.705 -1.021 -0.385 0.356 0.03 -0.64 0.77 0.03
1 9.38 938 1.604 -9.448 1.532 -4.028 7.202 1.617 -242.992 3078.395 -2938.686 -0.750 -0.151 0.248 0.03 -0.64 0.77 0.03
1 9.39 939 1.355 -9.443 1.350 -4.028 6.714 -1.068 -242.992 3078.395 -2938.686 -0.497 -0.156 0.425 0.03 -0.64 0.77 0.03
1 9.40 940 1.149 -9.242 1.422 -3.998 4.761 -2.136 -152.900 2898.362 -2983.656 -0.286 -0.358 0.347 0.03 -0.64 0.77 0.04
1 9.41 941 1.221 -9.319 1.647 -5.249 4.913 -1.678 -137.910 3003.443 -2938.686 -0.352 -0.282 0.116 0.03 -0.64 0.77 0.04
1 9.42 942 1.087 -9.232 1.346 -9.827 5.371 -1.709 -137.910 3003.443 -2938.686 -0.213 -0.369 0.411 0.03 -0.64 0.77 0.04
1 9.43 943 1.398 -9.366 1.197 -12.451 5.341 -0.519 -213.011 3108.375 -2998.646 -0.520 -0.237 0.548 0.03 -0.64 0.77 0.04
1 9.44 944 1.609 -8.945 0.785 -17.822 11.871 4.639 -257.982 2943.482 -2983.656 -0.727 -0.665 0.919 0.03 -0.64 0.77 0.04
1 9.45 945 1.729 -8.907 0.642 -18.341 14.557 6.989 -137.910 3108.375 -2938.686 -0.852 -0.709 1.035 0.03 -0.64 0.76 0.04
1 9.46 946 1.719 -8.983 1.777 -17.548 17.304 9.094 -137.910 3108.375 -2938.686 -0.853 -0.638 -0.130 0.02 -0.64 0.76 0.04
1 9.47 947 1.762 -9.563 2.073 -12.756 20.538 -0.580 -198.021 3018.434 -2773.643 -0.903 -0.063 -0.447 0.02 -0.65 0.76 0.04
1 9.48 948 1.116 -10.765 1.590 -14.313 30.060 -14.435 -137.910 3078.395 -2998.646 -0.248 1.138 0.026 0.02 -0.65 0.76 0.04
1 9.49 949 -0.057 -11.172 1.494 -9.064 26.367 -25.421 -137.910 3078.395 -2998.646 0.945 1.544 0.106 0.02 -0.65 0.76 0.04
1 9.50 950 0.115 -12.129 2.193 0.916 16.144 -35.126 -302.953 3093.385 -2878.725 0.800 2.503 -0.603 0.02 -0.65 0.76 0.05
1 9.51 951 0.168 -12.809 2.270 6.104 15.686 -38.178 -302.953 3093.385 -2878.725 0.793 3.188 -0.677 0.02 -0.65 0.76 0.05
1 9.52 952 0.034 -13.011 2.476 7.721 12.177 -37.659 -77.949 3123.365 -2878.725 1.033 3.405 -0.855 0.02 -0.65 0.76 0.06
1 9.53 953 0.819 -13.331 2.533 2.777 3.937 -40.375 -77.949 3123.365 -2878.725 0.303 3.734 -0.898 0.02 -0.64 0.76 0.06
1 9.54 954 1.772 -13.284 2.672 -6.287 0.275 -38.574 -213.011 3078.395 -2818.614 -0.590 3.694 -1.033 0.03 -0.64 0.76 0.06
1 9.55 955 2.322 -12.627 2.619 -20.783 -0.214 -28.778 -287.962 3078.395 -2938.686 -1.086 3.043 -0.993 0.03 -0.65 0.76 0.06
1 9.56 956 3.160 -11.382 2.576 -38.574 1.953 -14.893 -287.962 3078.395 -2938.686 -1.884 1.797 -0.984 0.03 -0.65 0.76 0.07
1 9.57 957 3.285 -10.683 2.581 -42.969 6.561 -5.219 -302.953 2973.463 -3028.627 -1.982 1.093 -1.040 0.03 -0.65 0.76 0.07
1 9.58 958 2.993 -9.529 2.567 -43.549 12.268 3.998 -302.953 2973.463 -3028.627 -1.678 -0.068 -1.085 0.03 -0.65 0.76 0.07
1 9.59 959 2.476 -8.390 2.480 -39.948 18.585 8.881 -122.920 3123.365 -2803.624 -1.166 -1.225 -1.108 0.03 -0.66 0.75 0.07
1 9.60 960 1.705 -7.724 2.418 -33.783 23.254 10.071 -122.920 3123.365 -2803.624 -0.402 -1.897 -1.087 0.03 -0.66 0.75 0.07
1 9.61 961 1.092 -7.197 2.399 -26.489 25.971 10.986 -242.992 3033.424 -2893.715 0.192 -2.432 -1.109 0.02 -0.66 0.75 0.07
1 9.62 962 0.086 -7.087 2.356 -21.423 27.741 10.254 -228.001 3288.408 -2803.624 1.178 -2.549 -1.096 0.02 -0.66 0.75 0.07
1 9.63 963 -0.603 -7.135 2.394 -13.977 27.313 7.996 -227.552 3287.958 -2804.673 1.850 -2.506 -1.156 0.02 -0.66 0.75 0.07
1 9.64 964 -1.456 -7.906 2.208 -2.502 25.238 5.005 -317.493 3108.075 -2609.650 2.687 -1.739 -0.981 0.02 -0.66 0.75 0.08
1 9.65 965 -1.738 -8.490 2.327 7.477 22.949 2.411 -317.493 3108.075 -2609.650 2.958 -1.156 -1.101 0.02 -0.66 0.75 0.08
1 9.66 966 -1.484 -8.959 2.303 15.167 22.614 -0.427 -62.509 3153.046 -2864.634 2.696 -0.686 -1.063 0.01 -0.66 0.75 0.08
1 9.67 967 -1.077 -9.587 2.279 22.125 21.210 -2.014 -212.412 3153.046 -2969.715 2.245 -0.054 -0.962 0.01 -0.66 0.75 0.08
1 9.68 968 -0.895 -9.735 2.260 24.017 21.332 -0.946 -77.500 3318.088 -2849.644 2.046 0.099 -0.896 0.01 -0.66 0.75 0.08
1 9.69 969 -0.484 -9.826 2.054 24.078 20.691 -0.488 -92.490 3257.978 -2894.614 1.616 0.195 -0.643 0.01 -0.65 0.75 0.08
1 9.70 970 0.029 -10.018 1.968 21.942 19.714 -0.946 -92.490 3257.978 -2894.614 1.088 0.391 -0.511 0.01 -0.65 0.75 0.08
1 9.71 971 0.417 -10.094 2.054 14.404 17.883 0.092 -92.490 3183.026 -2894.614 0.689 0.473 -0.557 0 -0.65 0.75 0.08
1 9.72 972 0.699 -10.204 1.930 8.148 15.686 -0.336 -92.490 3183.026 -2894.614 0.396 0.586 -0.402 0 -0.65 0.76 0.08
1 9.73 973 0.876 -10.267 2.054 2.594 15.198 0.580 12.292 3078.095 -2969.715 0.212 0.651 -0.504 0 -0.65 0.76 0.08
1 9.74 974 0.661 -10.094 2.016 -2.655 14.465 1.129 -47.519 3242.987 -2954.725 0.415 0.481 -0.448 -0 -0.65 0.76 0.09
1 9.75 975 0.397 -10.094 2.174 -3.418 11.963 1.617 -167.441 3153.046 -2939.735 0.671 0.480 -0.604 -0 -0.65 0.76 0.09
1 9.76 976 0.402 -10.305 2.509 -2.319 9.888 3.113 -137.460 3032.974 -2864.634 0.657 0.690 -0.936 -0 -0.65 0.76 0.09
1 9.77 977 0.014 -10.492 2.466 -1.770 9.064 3.998 -137.460 3032.974 -2864.634 1.033 0.877 -0.887 -0 -0.65 0.76 0.09
1 9.78 978 -0.268 -10.391 2.610 0.000 8.240 6.714 12.292 3183.026 -2789.683 1.300 0.776 -1.023 -0 -0.65 0.76 0.09
1 9.79 979 -0.809 -10.425 2.634 0.336 6.714 9.430 12.292 3183.026 -2789.683 1.825 0.809 -1.040 -0.01 -0.65 0.76 0.09
1 9.80 980 -1.178 -10.315 2.552 1.221 6.134 11.749 -92.490 3227.997 -2894.614 2.167 0.698 -0.948 -0.01 -0.65 0.76 0.09
1 9.81 981 -1.135 -10.252 2.356 3.601 4.242 13.214 -92.490 3108.075 -2969.715 2.059 0.633 -0.729 -0.01 -0.65 0.76 0.08
1 9.82 982 -0.891 -10.099 2.174 5.890 3.479 12.695 -2.548 3213.007 -2804.673 1.779 0.478 -0.533 -0.01 -0.65 0.76 0.08
1 9.83 983 -0.656 -9.888 2.160 8.942 4.028 13.672 -62.509 3333.079 -2819.663 1.511 0.268 -0.502 -0.01 -0.64 0.76 0.08
1 9.84 984 -0.239 -9.659 1.954 13.062 5.096 13.123 -62.509 3333.079 -2819.663 1.062 0.039 -0.275 -0.01 -0.64 0.76 0.08
1 9.85 985 0.168 -9.568 1.925 17.029 5.463 12.634 12.292 3108.075 -2939.735 0.627 -0.050 -0.220 -0.01 -0.64 0.76 0.08
1 9.86 986 0.493 -9.592 1.906 21.729 7.355 11.047 12.292 3108.075 -2939.735 0.278 -0.023 -0.170 -0.02 -0.64 0.76 0.08
1 9.87 987 0.666 -9.419 1.724 22.644 9.338 9.888 -122.470 3213.007 -2909.604 0.086 -0.190 0.046 -0.02 -0.64 0.76 0.08
1 9.88 988 0.718 -9.620 1.705 20.630 10.651 7.477 -77.500 3123.065 -2909.604 0.001 0.022 0.136 -0.02 -0.64 0.77 0.08
1 9.89 989 0.570 -9.659 1.767 19.104 10.986 6.897 -2.548 3123.065 -3059.657 0.137 0.065 0.105 -0.02 -0.64 0.77 0.08
1 9.90 990 0.192 -9.735 1.757 15.533 11.658 4.852 87.393 3078.095 -2999.696 0.503 0.146 0.142 -0.02 -0.63 0.77 0.08
1 9.91 991 0.048 -9.860 1.671 13.153 12.177 3.021 87.393 3078.095 -2999.696 0.635 0.275 0.252 -0.02 -0.63 0.77 0.08
1 9.92 992 0.000 -9.730 1.614 11.017 11.475 0.549 27.432 3123.065 -3029.676 0.673 0.149 0.329 -0.02 -0.63 0.77 0.08
1 9.93 993 -0.263 -9.577 1.571 9.735 11.444 -1.648 27.432 3123.065 -3029.676 0.928 -0.002 0.389 -0.02 -0.63 0.77 0.08
1 9.94 994 -0.230 -9.462 1.437 9.369 10.986 -1.953 102.383 3123.065 -3089.637 0.888 -0.114 0.538 -0.02 -0.63 0.77 0.08
1 9.95 995 -0.321 -9.247 1.489 9.552 9.705 -2.625 177.334 3242.987 -2984.706 0.973 -0.327 0.499 -0.02 -0.63 0.77 0.08
1 9.96 996 -0.431 -9.189 1.374 9.857 6.836 -2.563 26.833 3168.636 -2953.676 1.073 -0.380 0.642 -0.02 -0.63 0.77 0.08
1 9.97 997 -0.493 -9.366 1.365 8.362 5.249 -1.465 101.784 3243.587 -3028.777 1.130 -0.200 0.664 -0.03 -0.63 0.77 0.08
1 9.98 998 -0.412 -9.256 1.293 5.493 4.456 -1.251 101.784 3243.587 -3028.777 1.042 -0.309 0.744 -0.03 -0.63 0.77 0.08
1 9.99 999 -0.584 -9.232 1.130 4.669 2.747 -0.519 41.823 2958.623 -3223.800 1.207 -0.332 0.912 -0.03 -0.63 0.77 0.08
1 10.00 1000 -0.388 -9.390 1.053 6.042 1.404 -0.153 41.823 2958.623 -3223.800 1.004 -0.174 0.992 -0.03 -0.63 0.77 0.08
1 10.01 1001 -0.283 -9.381 1.039 5.798 0.732 -0.488 116.774 3153.496 -3118.718 0.891 -0.183 1.011 -0.03 -0.63 0.77 0.08
1 10.02 1002 -0.177 -9.400 1.111 5.646 0.183 -0.458 116.774 3153.496 -2938.686 0.780 -0.164 0.942 -0.03 -0.63 0.77 0.08
1 10.03 1003 0.086 -9.390 1.350 4.120 0.061 -0.763 71.803 3318.538 -3133.708 0.509 -0.172 0.708 -0.03 -0.63 0.77 0.08
1 10.04 1004 0.096 -9.711 1.571 5.249 1.190 0.946 191.875 3183.626 -3118.718 0.497 0.149 0.491 -0.03 -0.63 0.77 0.08
1 10.05 1005 0.244 -10.032 1.719 7.599 3.937 3.967 191.875 3183.626 -3118.718 0.343 0.471 0.349 -0.03 -0.63 0.77 0.08
1 10.06 1006 0.455 -9.979 1.427 8.331 5.951 3.632 11.842 3108.525 -3073.748 0.123 0.420 0.652 -0.03 -0.63 0.77 0.08
1 10.07 1007 0.330 -9.869 1.456 4.761 5.615 1.282 11.842 3108.525 -3073.748 0.241 0.311 0.632 -0.03 -0.63 0.77 0.08
1 10.08 1008 -0.407 -10.113 1.441 4.150 5.585 2.380 116.774 3078.544 -2998.796 0.974 0.556 0.652 -0.03 -0.63 0.77 0.08
1 10.09 1009 -0.828 -10.190 1.274 6.012 4.334 2.594 116.774 3033.574 -2938.686 1.387 0.633 0.823 -0.03 -0.63 0.77 0.08
