COL1	TIME	ACC_X	ACC_Y	ACC_Z	GYR_X	GYR_Y	GYR_Z	MAG_X	MAG_Y	MAG_Z	LACC_X	LACC_Y	LACC_Z	QUAT_X	QUAT_Y	QUAT_Z	QUAT_W
1 0.00 0 -0.215 -7.628 6.048 0.793 -0.885 1.770 585.519 1511.016 -4270.568 -0.002 -0.100 -0.026 -0.05 -0.44 0.89 0.08
1 0.01 1 -0.215 -7.676 6.014 -0.122 -1.099 2.014 540.548 1586.117 -4195.467 -0.002 -0.052 0.008 -0.05 -0.44 0.89 0.08
1 0.02 2 -0.259 -7.710 6.058 0.275 -0.977 1.892 510.567 1511.016 -4090.535 0.042 -0.019 -0.035 -0.05 -0.44 0.89 0.08
1 0.03 3 -0.225 -7.681 6.000 0.153 -1.068 1.312 510.567 1511.016 -4090.535 0.008 -0.047 0.022 -0.05 -0.44 0.89 0.08
1 0.04 4 -0.268 -7.719 6.058 0.427 -0.305 1.373 450.606 1496.025 -4210.457 0.051 -0.009 -0.035 -0.05 -0.44 0.9 0.08
1 0.05 5 -0.311 -7.686 5.962 0.000 -1.099 2.106 600.509 1301.002 -4255.428 0.094 -0.042 0.061 -0.05 -0.44 0.9 0.08
1 0.06 6 -0.235 -7.623 6.029 0.488 -0.641 2.747 525.558 1451.055 -4360.509 0.017 -0.104 -0.006 -0.05 -0.44 0.89 0.08
1 0.07 7 -0.249 -7.595 6.010 0.092 -0.732 2.197 525.558 1451.055 -4360.509 0.031 -0.133 0.013 -0.05 -0.44 0.9 0.08
1 0.08 8 -0.273 -7.719 5.900 0.336 -0.793 2.014 540.548 1661.068 -4225.447 0.054 -0.008 0.124 -0.05 -0.44 0.9 0.08
1 0.09 9 -0.311 -7.767 6.024 0.610 -0.916 2.380 585.519 1511.016 -4015.434 0.092 0.039 -0.001 -0.05 -0.44 0.9 0.08
1 0.10 10 -0.283 -7.700 5.995 1.160 -1.129 2.350 585.519 1511.016 -4015.434 0.063 -0.028 0.027 -0.05 -0.44 0.89 0.08
1 0.11 11 -0.206 -7.671 5.957 1.617 -1.068 1.678 585.519 1361.113 -4225.447 -0.014 -0.057 0.065 -0.05 -0.44 0.89 0.08
1 0.12 12 -0.316 -7.643 5.986 1.678 -1.434 1.526 540.548 1436.064 -4120.516 0.096 -0.084 0.039 -0.05 -0.44 0.9 0.08
1 0.13 13 -0.311 -7.762 5.981 1.740 -1.007 1.801 525.558 1421.074 -4255.428 0.091 0.038 0.046 -0.05 -0.44 0.9 0.08
1 0.14 14 -0.206 -7.494 6.034 1.862 -1.099 1.770 525.558 1421.074 -4255.428 -0.014 -0.229 -0.005 -0.05 -0.44 0.9 0.08
1 0.15 15 -0.273 -7.676 6.048 1.251 -1.129 1.495 420.626 1496.025 -4075.545 0.053 -0.046 -0.018 -0.05 -0.44 0.9 0.08
1 0.16 16 -0.201 -7.667 5.952 1.465 -1.099 1.160 630.489 1376.104 -4180.477 -0.019 -0.055 0.078 -0.05 -0.44 0.9 0.08
1 0.17 17 -0.239 -7.657 5.895 1.129 -0.366 2.014 630.489 1376.104 -4180.477 0.020 -0.064 0.136 -0.05 -0.44 0.9 0.08
1 0.18 18 -0.144 -7.619 5.871 1.465 -0.275 1.556 630.489 1526.006 -4210.457 -0.076 -0.103 0.160 -0.05 -0.44 0.9 0.08
1 0.19 19 -0.359 -7.595 6.005 1.770 -0.641 2.563 465.597 1481.035 -4165.486 0.138 -0.125 0.028 -0.05 -0.44 0.9 0.08
1 0.20 20 -0.302 -7.566 5.957 1.282 -0.244 1.953 630.489 1421.074 -4210.457 0.080 -0.152 0.078 -0.05 -0.44 0.9 0.08
1 0.21 21 -0.359 -7.504 5.799 0.732 0.153 1.587 630.489 1421.074 -4210.457 0.137 -0.214 0.237 -0.05 -0.44 0.9 0.08
1 0.22 22 -0.220 -7.729 5.947 -0.336 -0.275 1.495 450.606 1345.973 -4105.525 -0.003 0.011 0.088 -0.05 -0.44 0.9 0.08
1 0.23 23 -0.254 -7.810 5.967 -0.305 -1.282 2.228 675.610 1421.074 -4210.457 0.031 0.092 0.068 -0.05 -0.44 0.9 0.08
1 0.24 24 -0.302 -7.901 5.943 0.977 -0.763 2.380 675.610 1421.074 -4210.457 0.078 0.182 0.091 -0.05 -0.44 0.9 0.08
1 0.25 25 -0.196 -7.805 5.971 2.441 -0.671 2.014 555.538 1451.055 -4180.477 -0.028 0.086 0.061 -0.05 -0.44 0.9 0.08
1 0.26 26 -0.235 -7.609 6.153 2.747 -0.366 2.686 555.538 1526.006 -4255.428 0.009 -0.107 -0.116 -0.05 -0.44 0.9 0.08
1 0.27 27 -0.292 -7.623 5.971 1.373 -0.275 1.953 540.548 1286.012 -4090.535 0.066 -0.090 0.069 -0.05 -0.43 0.9 0.08
1 0.28 28 -0.259 -7.547 5.967 0.092 -0.183 2.441 540.548 1286.012 -4090.535 0.031 -0.166 0.074 -0.05 -0.43 0.9 0.08
1 0.29 29 -0.134 -7.475 5.914 -0.061 -0.031 2.411 600.509 1526.006 -4255.428 -0.093 -0.238 0.127 -0.05 -0.43 0.9 0.08
1 0.30 30 -0.340 -7.437 5.923 -0.092 0.397 1.801 615.499 1481.035 -4195.467 0.112 -0.277 0.118 -0.05 -0.43 0.9 0.08
1 0.31 31 -0.201 -7.690 5.837 0.397 -0.366 1.740 615.499 1481.035 -4195.467 -0.027 -0.023 0.203 -0.05 -0.43 0.9 0.08
1 0.32 32 -0.120 -7.662 5.957 -0.031 -0.610 1.190 645.629 1631.087 -4165.486 -0.109 -0.051 0.084 -0.05 -0.43 0.9 0.08
1 0.33 33 -0.091 -7.571 6.058 -1.312 -0.153 1.495 555.538 1451.055 -4285.558 -0.137 -0.144 -0.018 -0.05 -0.43 0.9 0.08
1 0.34 34 -0.038 -7.738 6.072 -1.434 0.061 1.312 585.519 1406.084 -4165.486 -0.189 0.023 -0.034 -0.05 -0.44 0.9 0.08
1 0.35 35 -0.230 -7.738 6.010 -1.617 -0.031 0.854 585.519 1406.084 -4165.486 0.003 0.021 0.026 -0.05 -0.44 0.9 0.08
1 0.36 36 -0.096 -7.719 5.967 -0.946 0.244 1.221 585.519 1511.016 -4120.516 -0.131 0.000 0.067 -0.05 -0.44 0.9 0.08
1 0.37 37 -0.306 -7.676 5.971 0.214 0.031 0.793 645.629 1481.035 -4045.564 0.080 -0.043 0.062 -0.05 -0.44 0.9 0.08
1 0.38 38 -0.163 -7.628 5.967 0.885 0.031 1.160 645.629 1481.035 -4045.564 -0.064 -0.091 0.066 -0.05 -0.44 0.9 0.08
1 0.39 39 -0.120 -7.576 6.115 0.397 -0.305 1.312 525.558 1421.074 -4075.545 -0.108 -0.144 -0.082 -0.05 -0.44 0.9 0.08
1 0.40 40 -0.187 -7.671 6.014 0.244 -0.183 1.343 645.629 1436.064 -4225.447 -0.040 -0.048 0.019 -0.05 -0.44 0.9 0.08
1 0.41 41 -0.254 -7.690 5.895 -0.031 -0.427 1.587 675.610 1496.025 -4030.574 0.027 -0.029 0.139 -0.05 -0.44 0.9 0.08
1 0.42 42 -0.220 -7.815 6.058 0.336 -0.519 1.678 675.610 1496.025 -4030.574 -0.006 0.095 -0.025 -0.05 -0.44 0.9 0.08
1 0.43 43 -0.225 -7.748 6.038 0.183 -0.366 1.678 525.558 1451.055 -4255.428 -0.001 0.028 -0.006 -0.05 -0.44 0.9 0.08
1 0.44 44 -0.201 -7.738 6.096 -0.153 -0.641 2.594 615.499 1406.084 -4165.486 -0.025 0.018 -0.063 -0.05 -0.44 0.9 0.08
1 0.45 45 -0.335 -7.657 6.038 0.580 -1.160 2.350 615.499 1406.084 -4165.486 0.109 -0.063 -0.006 -0.05 -0.44 0.9 0.08
1 0.46 46 -0.187 -7.762 6.019 -0.092 -1.465 2.136 555.538 1496.025 -4255.428 -0.039 0.042 0.013 -0.05 -0.44 0.9 0.08
1 0.47 47 -0.254 -7.628 5.914 0.214 -1.495 1.984 555.538 1496.025 -4255.428 0.028 -0.092 0.119 -0.05 -0.44 0.9 0.08
1 0.48 48 -0.259 -7.667 5.962 0.275 -1.831 2.319 525.558 1451.055 -4210.457 0.033 -0.054 0.070 -0.05 -0.44 0.9 0.08
1 0.49 49 -0.215 -7.748 6.034 -0.366 -1.465 1.801 525.558 1451.055 -4210.457 -0.011 0.027 -0.002 -0.05 -0.44 0.9 0.08
1 0.50 50 -0.254 -7.652 5.991 0.092 -2.289 2.869 555.538 1496.025 -4135.506 0.028 -0.069 0.040 -0.05 -0.44 0.9 0.08
1 0.51 51 -0.287 -7.815 6.062 0.580 -2.319 2.380 540.548 1511.016 -4120.516 0.061 0.093 -0.032 -0.05 -0.44 0.9 0.08
1 0.52 52 -0.187 -7.714 5.986 1.068 -1.129 2.655 540.548 1511.016 -4120.516 -0.039 -0.007 0.045 -0.05 -0.44 0.9 0.08
1 0.53 53 -0.177 -7.542 6.029 -0.275 -0.793 2.960 525.558 1451.055 -4135.506 -0.049 -0.180 0.001 -0.05 -0.44 0.9 0.08
1 0.54 54 -0.259 -7.619 6.000 0.397 -1.587 2.411 525.558 1451.055 -4135.506 0.033 -0.103 0.030 -0.05 -0.44 0.9 0.08
1 0.55 55 -0.369 -7.695 5.938 -0.824 -1.801 2.167 555.538 1526.006 -4180.477 0.142 -0.026 0.093 -0.05 -0.44 0.9 0.08
1 0.56 56 -0.215 -7.571 5.909 -0.732 -2.197 2.075 555.538 1526.006 -4180.477 -0.012 -0.152 0.120 -0.05 -0.44 0.9 0.08
1 0.57 57 -0.225 -7.604 5.928 -0.458 -1.740 2.167 360.515 1511.016 -4195.467 -0.001 -0.119 0.100 -0.05 -0.44 0.9 0.08
1 0.58 58 -0.225 -7.690 5.938 -0.305 -1.404 1.343 405.486 1286.012 -4270.568 -0.001 -0.033 0.090 -0.05 -0.44 0.9 0.08
1 0.59 59 -0.230 -7.724 6.067 0.153 -1.862 1.648 405.486 1286.012 -4270.568 0.003 0.001 -0.039 -0.05 -0.44 0.9 0.08
1 0.60 60 -0.163 -7.753 5.943 -0.488 -1.129 1.770 540.548 1481.035 -4165.486 -0.063 0.030 0.086 -0.05 -0.44 0.9 0.08
1 0.61 61 -0.206 -7.738 6.019 -0.366 -1.160 1.587 540.548 1481.035 -4165.486 -0.021 0.015 0.009 -0.05 -0.44 0.9 0.08
1 0.62 62 -0.206 -7.724 6.014 -0.458 -0.549 1.617 510.567 1406.084 -4225.447 -0.020 0.000 0.014 -0.05 -0.44 0.9 0.08
1 0.63 63 -0.225 -7.757 5.933 -0.122 -0.519 0.885 510.567 1406.084 -4225.447 -0.001 0.034 0.095 -0.05 -0.44 0.9 0.08
1 0.64 64 -0.134 -7.652 5.991 0.488 -0.061 1.312 465.597 1511.016 -4225.447 -0.092 -0.072 0.037 -0.05 -0.44 0.9 0.08
1 0.65 65 -0.034 -7.762 5.890 0.793 -0.763 1.465 600.509 1451.055 -4105.525 -0.191 0.038 0.137 -0.05 -0.44 0.9 0.08
1 0.66 66 -0.239 -7.757 5.919 0.641 0.000 0.854 600.509 1451.055 -4105.525 0.015 0.033 0.109 -0.05 -0.44 0.9 0.08
1 0.67 67 -0.182 -7.657 5.986 -0.671 0.641 0.610 555.538 1345.973 -4255.428 -0.042 -0.067 0.042 -0.05 -0.44 0.9 0.08
1 0.68 68 -0.220 -7.542 5.943 -0.763 0.458 0.000 555.538 1345.973 -4255.428 -0.004 -0.182 0.084 -0.05 -0.44 0.9 0.08
1 0.69 69 -0.263 -7.633 5.890 -0.885 0.000 0.488 540.548 1481.035 -4165.486 0.040 -0.092 0.136 -0.05 -0.44 0.9 0.08
1 0.70 70 -0.196 -7.729 5.967 0.153 0.397 0.336 525.558 1451.055 -4135.506 -0.026 0.002 0.057 -0.05 -0.44 0.89 0.08
1 0.71 71 -0.254 -7.614 5.976 0.488 0.885 -0.092 435.616 1330.983 -4165.486 0.032 -0.114 0.047 -0.05 -0.44 0.89 0.08
1 0.72 72 -0.302 -7.690 5.971 -0.397 0.214 0.183 615.499 1436.064 -4195.467 0.081 -0.037 0.052 -0.05 -0.44 0.89 0.08
1 0.73 73 -0.292 -7.729 5.962 -0.397 0.702 -0.549 615.499 1436.064 -4195.467 0.071 0.001 0.061 -0.05 -0.44 0.89 0.08
1 0.74 74 -0.225 -7.595 5.914 -1.312 0.732 0.183 525.558 1376.104 -4210.457 0.005 -0.134 0.108 -0.05 -0.44 0.89 0.08
1 0.75 75 -0.297 -7.815 5.938 -0.427 0.427 0.061 525.558 1376.104 -4210.457 0.077 0.085 0.082 -0.05 -0.44 0.89 0.08
1 0.76 76 -0.105 -7.757 5.971 1.282 1.556 0.397 600.509 1526.006 -4105.525 -0.113 0.027 0.048 -0.05 -0.44 0.89 0.08
1 0.77 77 -0.287 -7.748 5.809 1.129 0.763 0.275 600.509 1526.006 -4105.525 0.068 0.018 0.211 -0.05 -0.44 0.89 0.08
1 0.78 78 -0.206 -7.801 6.034 -0.214 1.129 0.122 465.597 1406.084 -4225.447 -0.013 0.070 -0.014 -0.05 -0.44 0.89 0.08
1 0.79 79 -0.297 -7.734 5.962 0.000 0.275 -0.214 465.597 1286.012 -4195.467 0.078 0.003 0.057 -0.05 -0.44 0.89 0.08
1 0.80 80 -0.077 -7.714 5.914 0.305 0.763 0.824 465.597 1286.012 -4195.467 -0.141 -0.017 0.104 -0.05 -0.44 0.89 0.08
1 0.81 81 -0.081 -7.619 5.933 -0.061 0.885 0.549 540.548 1511.016 -4270.568 -0.135 -0.113 0.085 -0.05 -0.44 0.89 0.08
1 0.82 82 -0.187 -7.542 5.885 -0.793 0.610 0.092 540.548 1511.016 -4270.568 -0.029 -0.190 0.133 -0.05 -0.44 0.89 0.08
1 0.83 83 -0.311 -7.580 6.058 -1.465 0.092 -0.061 600.509 1451.055 -4210.457 0.095 -0.152 -0.040 -0.05 -0.44 0.89 0.08
1 0.84 84 -0.268 -7.590 5.856 -0.854 1.007 0.183 600.509 1421.074 -4180.477 0.054 -0.144 0.158 -0.05 -0.44 0.89 0.08
1 0.85 85 -0.292 -7.772 5.847 -0.244 0.061 0.458 555.538 1421.074 -4105.525 0.079 0.036 0.166 -0.05 -0.44 0.89 0.08
1 0.86 86 -0.287 -7.623 6.038 0.183 -0.031 0.153 690.600 1481.035 -4195.467 0.075 -0.113 -0.026 -0.05 -0.44 0.89 0.08
1 0.87 87 -0.283 -7.681 5.981 -0.336 -0.153 0.519 690.600 1481.035 -4195.467 0.071 -0.056 0.031 -0.05 -0.44 0.89 0.08
1 0.88 88 -0.335 -7.791 5.962 -1.068 -0.031 0.061 615.499 1555.986 -4120.516 0.124 0.054 0.049 -0.05 -0.44 0.89 0.08
1 0.89 89 -0.029 -7.743 6.043 -0.336 0.122 0.214 615.499 1555.986 -4120.516 -0.181 0.005 -0.033 -0.05 -0.44 0.89 0.08
1 0.90 90 -0.268 -7.705 5.923 0.427 0.214 0.214 585.519 1436.064 -4195.467 0.058 -0.034 0.085 -0.05 -0.44 0.89 0.08
1 0.91 91 -0.148 -7.585 5.919 0.885 0.366 1.068 615.499 1586.117 -4120.516 -0.061 -0.155 0.089 -0.05 -0.44 0.89 0.08
1 0.92 92 -0.172 -7.796 6.019 0.427 -0.427 0.305 495.577 1421.074 -4135.506 -0.037 0.056 -0.011 -0.05 -0.44 0.89 0.08
1 0.93 93 -0.292 -7.667 5.981 0.610 -0.061 0.397 540.548 1436.064 -4165.486 0.085 -0.073 0.028 -0.05 -0.44 0.89 0.08
1 0.94 94 -0.263 -7.801 5.995 1.038 -0.610 -0.183 540.548 1436.064 -4165.486 0.057 0.062 0.014 -0.05 -0.44 0.89 0.08
1 0.95 95 -0.215 -7.786 5.933 0.122 -1.099 0.183 585.519 1436.064 -4120.516 0.011 0.048 0.076 -0.05 -0.44 0.89 0.08
1 0.96 96 -0.153 -7.853 5.943 0.610 -0.854 -0.183 585.519 1436.064 -4120.516 -0.050 0.114 0.066 -0.05 -0.44 0.89 0.08
1 0.97 97 -0.431 -7.829 5.895 1.099 -0.702 -0.427 585.519 1256.032 -4195.467 0.230 0.090 0.114 -0.05 -0.44 0.89 0.08
1 0.98 98 -0.268 -7.944 5.900 2.014 -0.977 -0.153 630.489 1421.074 -4180.477 0.069 0.205 0.109 -0.05 -0.44 0.89 0.08
1 0.99 99 -0.230 -7.801 6.043 2.014 -1.373 0.244 645.629 1406.084 -4225.447 0.034 0.064 -0.032 -0.05 -0.44 0.89 0.08
1 1.00 100 -0.168 -7.877 5.991 0.977 -1.862 -0.092 555.538 1421.074 -4210.457 -0.025 0.141 0.022 -0.05 -0.44 0.89 0.09
1 1.01 101 -0.048 -7.858 6.029 1.099 -2.625 -0.397 555.538 1421.074 -4210.457 -0.141 0.122 -0.015 -0.05 -0.44 0.89 0.09
1 1.02 102 0.139 -7.791 5.947 2.502 -2.197 -0.031 630.489 1526.006 -4135.506 -0.323 0.056 0.067 -0.05 -0.44 0.89 0.09
1 1.03 103 0.029 -7.791 5.900 3.601 -3.662 0.214 630.489 1526.006 -4135.506 -0.207 0.058 0.117 -0.05 -0.44 0.89 0.09
1 1.04 104 0.072 -7.638 5.861 2.716 -4.364 0.153 525.558 1271.022 -4255.428 -0.244 -0.093 0.159 -0.05 -0.44 0.89 0.09
1 1.05 105 0.125 -7.710 5.809 2.289 -4.791 1.892 435.616 1436.064 -4225.447 -0.290 -0.019 0.214 -0.05 -0.44 0.89 0.09
1 1.06 106 0.249 -7.571 5.871 2.289 -2.197 3.510 450.606 1526.006 -4210.457 -0.405 -0.155 0.156 -0.05 -0.44 0.89 0.09
1 1.07 107 0.115 -7.734 5.631 2.106 -3.113 4.395 525.558 1526.006 -4285.558 -0.269 0.009 0.398 -0.05 -0.44 0.89 0.08
1 1.08 108 0.120 -7.801 5.612 2.197 -3.845 4.974 525.558 1526.006 -4285.558 -0.273 0.076 0.417 -0.05 -0.44 0.89 0.08
1 1.09 109 0.172 -7.872 5.737 3.235 -3.662 5.829 675.610 1496.025 -4255.428 -0.324 0.149 0.294 -0.05 -0.44 0.89 0.08
1 1.10 110 0.330 -7.777 5.804 3.510 -3.540 6.256 675.610 1496.025 -4255.428 -0.483 0.055 0.228 -0.05 -0.44 0.89 0.08
1 1.11 111 0.354 -7.820 5.799 4.181 -2.960 6.165 495.577 1451.055 -4180.477 -0.507 0.100 0.236 -0.05 -0.44 0.89 0.08
1 1.12 112 0.436 -7.738 5.722 3.052 -2.808 6.500 690.600 1511.016 -4270.568 -0.586 0.021 0.316 -0.05 -0.44 0.9 0.08
1 1.13 113 0.488 -7.825 5.876 1.984 -0.366 6.195 600.509 1345.973 -4180.477 -0.638 0.111 0.167 -0.05 -0.44 0.9 0.08
1 1.14 114 0.350 -7.791 5.900 1.923 -0.122 6.653 615.499 1631.087 -4195.467 -0.501 0.078 0.144 -0.05 -0.44 0.9 0.08
1 1.15 115 0.421 -7.738 5.890 2.563 -0.458 4.669 615.499 1631.087 -4195.467 -0.575 0.026 0.155 -0.05 -0.43 0.9 0.08
1 1.16 116 0.306 -7.734 5.785 2.411 -1.587 3.204 510.567 1555.986 -4165.486 -0.458 0.023 0.262 -0.05 -0.43 0.9 0.08
1 1.17 117 0.335 -7.858 5.871 2.045 -3.052 1.312 510.567 1555.986 -4165.486 -0.484 0.148 0.177 -0.05 -0.43 0.9 0.08
1 1.18 118 0.503 -7.829 5.780 -0.397 -3.723 0.732 525.558 1345.973 -4105.525 -0.645 0.120 0.269 -0.05 -0.43 0.9 0.08
1 1.19 119 0.570 -7.796 5.809 -1.190 -2.075 1.099 645.629 1256.032 -4165.486 -0.703 0.085 0.238 -0.05 -0.43 0.9 0.08
1 1.20 120 0.872 -7.805 5.636 -1.099 -0.244 3.082 495.577 1345.973 -4180.477 -0.992 0.089 0.404 -0.05 -0.44 0.9 0.08
1 1.21 121 0.484 -7.714 5.536 -0.458 0.488 3.540 510.567 1481.035 -4165.486 -0.600 -0.005 0.501 -0.05 -0.44 0.89 0.08
1 1.22 122 0.603 -7.690 5.411 -2.625 0.946 2.777 510.567 1481.035 -4165.486 -0.718 -0.032 0.621 -0.05 -0.44 0.89 0.08
1 1.23 123 0.709 -7.786 5.536 -4.059 0.641 2.716 600.509 1376.104 -4285.558 -0.820 0.059 0.490 -0.05 -0.44 0.89 0.08
1 1.24 124 0.685 -7.829 5.526 -4.974 0.824 2.716 600.509 1376.104 -4285.558 -0.793 0.095 0.492 -0.05 -0.44 0.89 0.08
1 1.25 125 0.517 -7.882 5.603 -3.815 0.336 1.892 555.538 1451.055 -4255.428 -0.622 0.141 0.407 -0.05 -0.44 0.89 0.08
1 1.26 126 0.637 -7.863 5.655 -2.411 -1.007 1.678 435.616 1361.113 -4195.467 -0.738 0.116 0.346 -0.05 -0.44 0.89 0.08
1 1.27 127 0.603 -7.944 5.698 -0.793 -1.160 2.380 435.616 1361.113 -4195.467 -0.700 0.193 0.298 -0.05 -0.44 0.89 0.08
1 1.28 128 0.680 -7.743 5.579 0.244 -0.061 4.791 465.597 1586.117 -4090.535 -0.766 -0.012 0.412 -0.05 -0.44 0.89 0.08
1 1.29 129 0.680 -7.815 5.646 -1.007 0.946 6.531 465.597 1586.117 -4090.535 -0.766 0.058 0.343 -0.05 -0.44 0.89 0.08
1 1.30 130 0.613 -7.676 5.742 -3.296 2.106 7.721 600.509 1376.104 -4075.545 -0.701 -0.084 0.243 -0.05 -0.44 0.89 0.08
1 1.31 131 0.522 -7.633 5.713 -5.646 2.167 7.813 600.509 1376.104 -4075.545 -0.615 -0.131 0.266 -0.05 -0.44 0.89 0.08
1 1.32 132 0.268 -7.724 5.526 -4.425 0.671 6.744 510.567 1361.113 -4195.467 -0.366 -0.046 0.445 -0.05 -0.44 0.89 0.08
1 1.33 133 0.297 -7.724 5.478 -4.242 -0.244 5.646 450.606 1345.973 -4210.457 -0.400 -0.052 0.486 -0.05 -0.44 0.89 0.08
1 1.34 134 0.393 -7.820 5.560 -5.371 -1.007 4.364 450.606 1345.973 -4210.457 -0.498 0.039 0.398 -0.05 -0.44 0.89 0.08
1 1.35 135 0.512 -7.911 5.665 -8.392 0.366 5.463 555.538 1451.055 -4210.457 -0.618 0.115 0.273 -0.05 -0.44 0.89 0.08
1 1.36 136 0.436 -7.844 5.708 -8.789 3.235 5.951 555.538 1451.055 -4210.457 -0.544 0.039 0.218 -0.05 -0.44 0.89 0.08
1 1.37 137 0.239 -7.652 5.603 -7.324 3.906 5.768 555.538 1451.055 -4210.457 -0.352 -0.161 0.312 -0.05 -0.44 0.89 0.08
1 1.38 138 0.053 -7.561 5.660 -8.453 4.761 4.059 555.538 1451.055 -4210.457 -0.171 -0.260 0.244 -0.05 -0.44 0.89 0.08
1 1.39 139 -0.192 -7.374 5.617 -10.010 3.998 1.099 585.519 1436.064 -4120.516 0.067 -0.455 0.275 -0.05 -0.44 0.89 0.08
1 1.40 140 -0.311 -7.374 5.488 -12.177 -0.092 -4.791 615.499 1481.035 -4195.467 0.185 -0.465 0.392 -0.05 -0.44 0.89 0.08
1 1.41 141 -0.479 -7.374 5.430 -13.184 -2.258 -7.416 615.499 1481.035 -4195.467 0.357 -0.476 0.435 -0.05 -0.45 0.89 0.08
1 1.42 142 -0.819 -7.523 5.545 -14.465 -4.242 -8.881 555.538 1526.006 -4135.506 0.717 -0.352 0.287 -0.05 -0.45 0.89 0.08
1 1.43 143 -0.867 -7.772 5.598 -15.228 -6.195 -9.277 555.538 1526.006 -4135.506 0.777 -0.117 0.216 -0.05 -0.45 0.89 0.09
1 1.44 144 -1.077 -7.935 5.627 -14.557 -6.714 -10.437 510.567 1586.117 -4165.486 1.001 0.032 0.169 -0.05 -0.45 0.89 0.09
1 1.45 145 -1.168 -8.208 5.689 -13.916 -8.911 -10.834 510.567 1586.117 -4165.486 1.104 0.292 0.088 -0.05 -0.45 0.89 0.09
1 1.46 146 -1.221 -8.548 5.789 -13.550 -11.322 -9.399 600.509 1570.977 -4135.506 1.172 0.618 -0.030 -0.05 -0.45 0.89 0.09
1 1.47 147 -1.183 -8.830 5.976 -11.627 -13.275 -3.998 495.577 1676.058 -4075.545 1.147 0.888 -0.235 -0.05 -0.45 0.89 0.09
1 1.48 148 -0.972 -9.036 6.019 -9.766 -14.496 1.495 495.577 1676.058 -4075.545 0.947 1.082 -0.295 -0.05 -0.45 0.89 0.09
1 1.49 149 -0.838 -8.969 5.890 -7.721 -14.191 6.348 465.597 1586.117 -3985.454 0.822 1.005 -0.179 -0.05 -0.45 0.89 0.09
1 1.50 150 -0.522 -8.610 5.780 -5.157 -11.932 13.275 510.567 1586.117 -4090.535 0.507 0.631 -0.089 -0.04 -0.46 0.89 0.08
1 1.51 151 -0.761 -8.083 5.631 -3.906 -9.613 13.153 435.616 1631.087 -4090.535 0.738 0.099 0.051 -0.04 -0.46 0.88 0.08
1 1.52 152 -0.575 -7.987 5.526 -8.179 -13.336 14.343 435.616 1631.087 -4090.535 0.540 -0.001 0.151 -0.04 -0.46 0.88 0.08
1 1.53 153 -0.488 -8.016 5.588 -14.069 -11.627 16.052 495.577 1601.107 -4255.428 0.446 0.018 0.075 -0.04 -0.46 0.88 0.08
1 1.54 154 -0.627 -8.054 5.172 -10.254 -3.601 17.151 525.558 1646.078 -4030.574 0.572 0.045 0.475 -0.04 -0.46 0.88 0.08
1 1.55 155 -0.795 -7.939 5.176 -8.606 -3.326 17.365 525.558 1646.078 -4030.574 0.721 -0.081 0.454 -0.04 -0.46 0.88 0.08
1 1.56 156 -1.006 -8.035 5.143 -5.920 -3.571 15.595 645.629 1586.117 -4165.486 0.888 -0.001 0.464 -0.05 -0.46 0.88 0.08
1 1.57 157 -1.044 -8.006 5.253 -5.859 -3.265 14.404 645.629 1586.117 -4165.486 0.906 -0.036 0.345 -0.05 -0.46 0.88 0.07
1 1.58 158 -1.255 -8.236 5.315 -7.111 -4.425 13.092 450.606 1646.078 -4075.545 1.097 0.187 0.273 -0.05 -0.46 0.88 0.07
1 1.59 159 -1.202 -8.505 5.167 -6.531 -6.012 11.231 450.606 1646.078 -4075.545 1.027 0.448 0.410 -0.05 -0.46 0.88 0.07
1 1.60 160 -1.288 -8.768 5.105 -4.303 -6.592 10.712 525.558 1721.029 -4180.477 1.099 0.704 0.461 -0.05 -0.46 0.88 0.07
1 1.61 161 -1.389 -8.624 5.014 0.427 -6.805 9.918 435.616 1736.019 -4045.564 1.185 0.554 0.543 -0.05 -0.46 0.88 0.07
1 1.62 162 -1.374 -8.653 5.042 4.608 -9.399 10.468 435.616 1736.019 -4045.564 1.158 0.581 0.511 -0.05 -0.46 0.88 0.07
1 1.63 163 -1.250 -8.672 5.200 -1.587 -10.895 13.428 465.597 1631.087 -4090.535 1.022 0.602 0.354 -0.05 -0.46 0.88 0.07
1 1.64 164 -1.101 -9.046 5.267 -8.820 -10.101 16.480 405.486 1631.087 -4120.516 0.844 0.965 0.271 -0.05 -0.46 0.88 0.06
1 1.65 165 -1.302 -8.993 5.090 -2.045 -9.583 16.998 465.597 1661.068 -4090.535 1.029 0.903 0.433 -0.05 -0.46 0.88 0.06
1 1.66 166 -1.053 -8.873 4.956 4.791 -10.529 16.296 465.597 1661.068 -4090.535 0.762 0.780 0.562 -0.05 -0.46 0.88 0.06
1 1.67 167 -1.121 -8.346 4.947 7.599 -9.644 17.731 510.567 1631.087 -4090.535 0.813 0.254 0.573 -0.05 -0.46 0.88 0.06
1 1.68 168 -1.015 -8.040 4.899 5.310 -8.881 17.914 420.626 1676.058 -4105.525 0.690 -0.048 0.625 -0.05 -0.46 0.88 0.06
1 1.69 169 -0.895 -7.987 4.822 2.350 -8.972 18.585 420.626 1676.058 -4105.525 0.552 -0.097 0.706 -0.05 -0.46 0.88 0.06
1 1.70 170 -0.963 -7.935 4.851 -0.122 -8.514 18.982 330.535 1706.039 -4090.535 0.600 -0.148 0.679 -0.05 -0.46 0.88 0.06
1 1.71 171 -0.953 -8.308 4.750 1.343 -7.202 19.440 450.606 1601.107 -4180.477 0.554 0.224 0.774 -0.05 -0.46 0.88 0.05
1 1.72 172 -0.776 -8.327 4.961 5.524 -7.080 18.707 540.548 1661.068 -4045.564 0.358 0.243 0.562 -0.05 -0.46 0.88 0.05
1 1.73 173 -0.646 -8.203 5.057 8.575 -5.676 17.090 540.548 1661.068 -4045.564 0.210 0.122 0.470 -0.05 -0.46 0.88 0.05
1 1.74 174 -0.733 -8.030 4.999 10.071 -3.937 16.449 510.567 1706.039 -4225.447 0.278 -0.044 0.535 -0.05 -0.46 0.88 0.05
1 1.75 175 -0.618 -8.088 4.980 7.263 -5.798 15.350 405.486 1586.117 -3940.483 0.147 0.020 0.563 -0.05 -0.46 0.88 0.05
1 1.76 176 -0.570 -8.112 4.808 5.890 -4.303 13.275 405.486 1586.117 -3940.483 0.085 0.049 0.741 -0.05 -0.46 0.88 0.05
1 1.77 177 -0.560 -8.117 4.755 7.507 -2.869 10.773 360.515 1586.117 -4165.486 0.063 0.057 0.797 -0.05 -0.46 0.88 0.04
1 1.78 178 -0.618 -8.045 4.803 11.108 -1.282 8.698 360.515 1586.117 -4120.516 0.110 -0.011 0.754 -0.05 -0.46 0.88 0.04
1 1.79 179 -0.512 -7.877 4.808 14.130 1.465 6.012 495.577 1676.058 -4180.477 -0.013 -0.165 0.768 -0.05 -0.46 0.88 0.04
1 1.80 180 -0.541 -7.743 4.683 13.428 2.869 4.242 495.577 1676.058 -4180.477 0.008 -0.289 0.906 -0.05 -0.46 0.89 0.04
1 1.81 181 -0.766 -7.734 4.587 10.162 4.852 3.113 510.567 1706.039 -4090.535 0.226 -0.291 1.013 -0.05 -0.46 0.89 0.04
1 1.82 182 -0.910 -7.729 4.669 7.935 5.188 1.282 375.505 1676.058 -4105.525 0.362 -0.290 0.938 -0.05 -0.46 0.89 0.04
1 1.83 183 -1.192 -7.925 4.573 6.592 3.937 -1.617 375.505 1676.058 -4105.525 0.638 -0.090 1.039 -0.05 -0.46 0.89 0.04
1 1.84 184 -1.097 -8.050 4.592 6.805 2.502 -2.899 510.567 1586.117 -4090.535 0.538 0.037 1.023 -0.05 -0.46 0.89 0.04
1 1.85 185 -1.259 -7.997 4.698 5.737 1.678 -3.784 525.558 1601.107 -4105.525 0.698 -0.013 0.920 -0.05 -0.46 0.89 0.04
1 1.86 186 -1.245 -8.313 4.621 3.754 -0.031 -4.974 330.535 1631.087 -4195.467 0.684 0.304 0.998 -0.06 -0.46 0.89 0.04
1 1.87 187 -1.240 -8.126 4.717 2.594 -0.763 -4.944 330.535 1631.087 -4195.467 0.681 0.116 0.901 -0.05 -0.46 0.89 0.04
1 1.88 188 -1.456 -8.490 4.779 2.747 -0.458 -4.089 450.606 1570.977 -4075.545 0.899 0.478 0.837 -0.05 -0.46 0.89 0.04
1 1.89 189 -1.566 -8.485 4.789 2.838 -1.068 -4.028 450.606 1570.977 -4285.558 1.010 0.471 0.824 -0.05 -0.46 0.89 0.04
1 1.90 190 -1.705 -8.572 4.808 2.808 -2.136 -2.533 450.606 1570.977 -4285.558 1.149 0.555 0.802 -0.06 -0.46 0.89 0.04
1 1.91 191 -1.772 -8.567 4.750 2.625 -4.303 -0.671 465.597 1586.117 -4195.467 1.215 0.548 0.856 -0.06 -0.46 0.89 0.04
1 1.92 192 -1.906 -8.648 4.851 1.282 -6.866 0.977 495.577 1570.977 -4030.574 1.345 0.628 0.753 -0.06 -0.46 0.89 0.04
1 1.93 193 -1.935 -8.744 4.827 -1.862 -9.399 3.082 420.626 1451.055 -4000.444 1.366 0.717 0.766 -0.06 -0.46 0.89 0.04
1 1.94 194 -1.853 -8.739 4.860 -3.021 -11.047 3.448 420.626 1451.055 -4000.444 1.280 0.706 0.724 -0.06 -0.46 0.88 0.04
1 1.95 195 -1.762 -8.749 4.808 -1.862 -12.482 2.625 375.505 1601.107 -4135.506 1.186 0.709 0.767 -0.05 -0.46 0.88 0.04
1 1.96 196 -1.456 -8.706 4.932 -1.282 -12.024 2.563 435.616 1586.117 -4165.486 0.880 0.661 0.635 -0.05 -0.46 0.88 0.04
1 1.97 197 -1.437 -8.509 4.817 0.214 -11.810 2.075 435.616 1586.117 -4165.486 0.862 0.460 0.743 -0.05 -0.46 0.88 0.04
1 1.98 198 -0.895 -8.356 4.631 -1.495 -11.993 3.265 315.544 1496.025 -4180.477 0.323 0.304 0.925 -0.05 -0.46 0.88 0.04
1 1.99 199 -1.049 -8.351 4.731 -5.798 -9.827 2.350 375.505 1676.058 -4000.444 0.479 0.295 0.819 -0.05 -0.46 0.88 0.04
1 2.00 200 -1.164 -9.031 5.076 -9.308 -9.064 -1.953 465.597 1436.064 -4165.486 0.602 0.955 0.447 -0.05 -0.46 0.88 0.04
1 2.01 201 -1.283 -9.161 5.598 -7.324 -9.583 -3.418 465.597 1436.064 -4165.486 0.730 1.073 -0.091 -0.05 -0.47 0.88 0.04
1 2.02 202 -1.010 -9.606 7.911 4.730 -13.001 -4.089 345.525 1570.977 -4000.444 0.473 1.517 -2.404 -0.05 -0.47 0.88 0.04
1 2.03 203 0.220 -10.688 8.179 -18.799 -24.292 6.561 465.597 1661.068 -4195.467 -0.740 2.600 -2.670 -0.05 -0.47 0.88 0.04
1 2.04 204 1.058 -11.397 8.054 -50.965 -12.390 16.937 465.597 1661.068 -4195.467 -1.569 3.285 -2.580 -0.05 -0.47 0.88 0.03
1 2.05 205 1.168 -10.463 5.090 8.026 1.068 11.292 375.505 1570.977 -4075.545 -1.694 2.312 0.325 -0.05 -0.47 0.88 0.03
1 2.06 206 1.480 -9.338 5.042 36.621 0.275 3.571 375.505 1570.977 -4030.574 -2.023 1.182 0.364 -0.05 -0.47 0.88 0.03
1 2.07 207 1.911 -7.360 5.540 32.806 14.252 1.892 375.505 1570.977 -4030.574 -2.459 -0.768 -0.094 -0.05 -0.47 0.88 0.03
1 2.08 208 0.972 -6.536 5.679 -13.001 36.194 1.984 315.544 1676.058 -4030.574 -1.528 -1.555 -0.178 -0.05 -0.47 0.88 0.03
1 2.09 209 -0.144 -7.599 5.459 -39.581 38.208 -2.136 405.486 1661.068 -4120.516 -0.443 -0.510 0.013 -0.05 -0.47 0.88 0.04
1 2.10 210 -0.809 -9.046 4.994 -44.159 33.295 -8.209 420.626 1570.977 -4135.506 0.203 0.903 0.425 -0.05 -0.47 0.88 0.04
1 2.11 211 -0.651 -9.817 4.851 -28.900 31.708 -12.939 420.626 1570.977 -4135.506 0.031 1.636 0.510 -0.06 -0.47 0.88 0.04
1 2.12 212 -0.996 -9.630 5.593 4.303 28.076 -14.252 420.626 1646.078 -4030.574 0.368 1.427 -0.268 -0.06 -0.47 0.88 0.04
1 2.13 213 -1.298 -8.983 6.014 13.519 27.222 -14.679 330.535 1631.087 -4015.434 0.666 0.778 -0.693 -0.06 -0.47 0.88 0.04
1 2.14 214 -1.293 -8.538 5.933 13.153 26.733 -17.609 330.535 1631.087 -4015.434 0.658 0.341 -0.600 -0.06 -0.47 0.88 0.04
1 2.15 215 -1.283 -7.916 5.449 10.101 22.827 -16.144 435.616 1631.087 -3985.454 0.645 -0.263 -0.088 -0.06 -0.47 0.88 0.05
1 2.16 216 -1.293 -7.657 5.392 11.780 20.264 -13.519 375.505 1526.006 -4000.444 0.652 -0.514 -0.019 -0.06 -0.47 0.88 0.05
1 2.17 217 -1.528 -7.207 5.234 14.099 15.472 -8.972 555.538 1570.977 -3850.542 0.882 -0.954 0.154 -0.06 -0.47 0.88 0.05
1 2.18 218 -1.638 -6.714 5.416 15.320 10.284 -6.592 555.538 1570.977 -3850.542 0.986 -1.434 -0.010 -0.07 -0.47 0.88 0.05
1 2.19 219 -1.504 -6.378 5.373 13.458 2.533 -2.136 435.616 1555.986 -4045.564 0.853 -1.758 0.051 -0.07 -0.47 0.88 0.05
1 2.20 220 -1.226 -6.010 5.464 3.265 -7.690 3.601 360.515 1511.016 -3910.502 0.578 -2.117 -0.025 -0.07 -0.47 0.88 0.05
1 2.21 221 -0.618 -6.005 5.339 -9.857 -15.106 7.904 360.515 1511.016 -3910.502 -0.027 -2.117 0.106 -0.07 -0.47 0.88 0.05
1 2.22 222 0.651 -6.493 5.272 -20.844 -22.095 17.120 600.509 1646.078 -4030.574 -1.289 -1.648 0.146 -0.06 -0.47 0.88 0.05
1 2.23 223 1.240 -7.240 5.651 -17.639 -17.975 25.940 435.616 1511.016 -4045.564 -1.882 -0.917 -0.257 -0.06 -0.47 0.88 0.05
1 2.24 224 1.906 -8.078 6.096 -12.360 -9.460 32.868 525.558 1451.055 -4000.444 -2.555 -0.087 -0.716 -0.06 -0.47 0.88 0.05
1 2.25 225 2.078 -8.873 6.292 -3.021 -0.946 37.140 525.558 1451.055 -4000.444 -2.744 0.704 -0.920 -0.06 -0.47 0.88 0.04
1 2.26 226 1.963 -9.615 6.441 3.876 4.181 39.124 555.538 1601.107 -4030.574 -2.665 1.449 -1.068 -0.06 -0.47 0.88 0.04
1 2.27 227 1.212 -9.477 5.991 17.090 8.911 34.912 405.486 1555.986 -3985.454 -1.965 1.319 -0.612 -0.06 -0.47 0.88 0.04
1 2.28 228 0.527 -8.725 5.531 27.100 9.522 27.710 405.486 1555.986 -3985.454 -1.331 0.583 -0.135 -0.07 -0.47 0.88 0.04
1 2.29 229 0.163 -8.093 5.478 34.485 7.782 17.181 465.597 1586.117 -4015.434 -1.010 -0.025 -0.054 -0.07 -0.47 0.88 0.04
1 2.30 230 -0.129 -7.192 5.593 27.771 3.754 1.007 525.558 1570.977 -4000.444 -0.745 -0.868 -0.088 -0.07 -0.46 0.88 0.03
1 2.31 231 -0.297 -7.082 5.746 15.472 2.533 -8.087 405.486 1586.117 -3880.522 -0.572 -0.957 -0.209 -0.07 -0.46 0.88 0.03
1 2.32 232 -0.455 -7.236 5.612 8.057 2.991 -15.198 405.486 1586.117 -3880.522 -0.398 -0.791 -0.055 -0.07 -0.46 0.88 0.04
1 2.33 233 -0.503 -7.657 5.344 9.583 3.235 -20.172 645.629 1436.064 -3940.483 -0.328 -0.364 0.225 -0.07 -0.46 0.88 0.04
1 2.34 234 -0.565 -7.576 5.416 12.756 -0.031 -22.522 465.597 1436.064 -4015.434 -0.239 -0.439 0.167 -0.07 -0.46 0.89 0.04
1 2.35 235 -0.455 -7.384 5.425 7.874 -4.334 -24.201 465.597 1436.064 -4015.434 -0.319 -0.622 0.174 -0.07 -0.46 0.89 0.04
1 2.36 236 -0.014 -7.576 5.243 -4.547 -11.505 -25.482 525.558 1646.078 -4075.545 -0.683 -0.426 0.371 -0.06 -0.46 0.89 0.04
1 2.37 237 0.129 -7.801 5.186 -6.042 -14.313 -25.330 435.616 1511.016 -4045.564 -0.779 -0.209 0.423 -0.06 -0.46 0.89 0.04
1 2.38 238 0.685 -8.165 4.927 -3.815 -15.228 -22.278 510.567 1436.064 -3880.522 -1.283 0.146 0.674 -0.06 -0.46 0.89 0.05
1 2.39 239 0.939 -8.141 5.047 -1.648 -15.778 -19.196 510.567 1436.064 -3880.522 -1.487 0.115 0.549 -0.06 -0.46 0.89 0.05
1 2.40 240 1.010 -8.064 5.028 -1.190 -14.221 -16.968 495.577 1496.025 -4000.444 -1.511 0.032 0.565 -0.05 -0.46 0.88 0.05
1 2.41 241 1.130 -8.112 4.942 0.610 -13.001 -14.252 465.597 1481.035 -3940.483 -1.587 0.075 0.648 -0.05 -0.46 0.88 0.05
1 2.42 242 1.240 -7.978 5.105 7.996 -10.529 -11.414 465.597 1481.035 -3940.483 -1.656 -0.061 0.484 -0.05 -0.46 0.88 0.05
1 2.43 243 1.288 -7.906 4.990 13.489 -8.942 -8.942 375.505 1345.973 -3970.463 -1.665 -0.132 0.604 -0.05 -0.46 0.88 0.05
1 2.44 244 1.192 -7.513 4.851 18.555 -4.669 -6.714 360.515 1361.113 -4090.535 -1.507 -0.505 0.775 -0.05 -0.46 0.89 0.05
1 2.45 245 1.053 -7.331 4.803 19.165 -2.258 -3.937 405.486 1555.986 -3985.454 -1.345 -0.673 0.844 -0.04 -0.46 0.89 0.05
1 2.46 246 1.049 -7.279 4.559 18.311 0.122 -0.580 405.486 1555.986 -3985.454 -1.324 -0.711 1.110 -0.04 -0.46 0.89 0.05
1 2.47 247 0.986 -7.097 4.444 18.097 3.784 2.441 255.583 1361.113 -3985.454 -1.262 -0.877 1.247 -0.04 -0.46 0.89 0.05
1 2.48 248 0.991 -7.159 4.176 15.900 7.538 3.540 420.626 1421.074 -4000.444 -1.272 -0.799 1.537 -0.04 -0.45 0.89 0.05
1 2.49 249 1.010 -7.307 4.118 13.458 8.637 4.486 420.626 1421.074 -4000.444 -1.300 -0.636 1.614 -0.04 -0.45 0.89 0.05
1 2.50 250 0.963 -7.513 4.286 7.935 9.949 3.754 330.535 1436.064 -3880.522 -1.263 -0.418 1.463 -0.04 -0.45 0.89 0.05
1 2.51 251 1.279 -8.160 4.271 4.791 11.139 2.686 270.574 1271.022 -4105.525 -1.598 0.240 1.491 -0.05 -0.45 0.89 0.05
1 2.52 252 1.575 -8.404 4.382 6.897 14.069 3.845 315.544 1421.074 -3970.463 -1.896 0.482 1.379 -0.05 -0.45 0.89 0.05
1 2.53 253 1.638 -8.404 4.530 10.742 19.318 4.913 315.544 1421.074 -3970.463 -1.961 0.482 1.230 -0.05 -0.45 0.89 0.06
1 2.54 254 1.355 -8.035 4.669 11.932 25.452 4.089 360.515 1406.084 -4015.434 -1.686 0.117 1.095 -0.05 -0.45 0.89 0.06
1 2.55 255 1.087 -7.451 5.066 10.345 26.947 0.885 405.486 1286.012 -3880.522 -1.430 -0.462 0.704 -0.05 -0.45 0.89 0.06
1 2.56 256 0.699 -6.843 4.698 0.702 24.414 -6.714 405.486 1286.012 -3880.522 -1.054 -1.065 1.079 -0.05 -0.45 0.89 0.06
1 2.57 257 0.249 -6.694 4.209 -6.012 19.745 -11.841 405.486 1361.113 -3910.502 -0.614 -1.213 1.568 -0.05 -0.45 0.89 0.06
1 2.58 258 0.048 -6.512 4.267 -7.813 13.001 -14.038 405.486 1361.113 -3910.502 -0.417 -1.400 1.504 -0.05 -0.45 0.89 0.06
1 2.59 259 -0.196 -6.010 6.216 -18.555 3.418 -8.423 465.597 1211.061 -3910.502 -0.157 -1.921 -0.470 -0.05 -0.45 0.89 0.06
1 2.60 260 -1.686 -5.866 8.710 -37.506 4.364 -13.763 465.597 1211.061 -3910.502 1.341 -2.086 -2.993 -0.05 -0.45 0.89 0.06
1 2.61 261 -3.500 -7.738 9.572 -63.904 1.556 -30.762 465.597 1406.084 -4015.434 3.167 -0.239 -3.890 -0.05 -0.46 0.89 0.07
1 2.62 262 -3.524 -11.670 8.624 -72.235 -15.991 -39.215 405.486 1406.084 -3880.522 3.236 3.632 -3.025 -0.05 -0.46 0.88 0.07
1 2.63 263 -3.639 -12.216 8.035 -34.485 -16.846 -19.959 405.486 1406.084 -3880.522 3.414 4.118 -2.521 -0.05 -0.46 0.88 0.07
1 2.64 264 -4.224 -9.735 7.039 -27.039 -28.534 -22.858 405.486 1436.064 -3985.454 4.045 1.601 -1.576 -0.05 -0.47 0.88 0.07
1 2.65 265 -4.257 -7.767 6.666 -33.661 -60.333 -29.511 405.486 1436.064 -3985.454 4.126 -0.391 -1.237 -0.05 -0.47 0.88 0.07
1 2.66 266 -1.379 -8.380 5.129 -61.859 -99.884 -33.814 420.626 1451.055 -3850.542 1.426 0.159 0.205 -0.04 -0.48 0.88 0.07
1 2.67 267 1.173 -9.759 5.148 -60.578 -104.065 -42.847 420.626 1451.055 -3850.542 -1.012 1.487 0.104 -0.03 -0.48 0.87 0.07
1 2.68 268 4.525 -10.937 6.761 -52.155 -95.856 -17.944 345.525 1451.055 -3925.493 -4.236 2.619 -1.587 -0.02 -0.49 0.87 0.07
1 2.69 269 6.091 -11.224 7.963 -27.313 -46.600 -3.693 270.574 1601.107 -3850.542 -5.715 2.870 -2.854 -0.01 -0.49 0.87 0.06
1 2.70 270 5.943 -10.353 7.777 8.179 -8.240 13.519 270.574 1601.107 -3850.542 -5.538 1.984 -2.693 -0.01 -0.49 0.87 0.06
1 2.71 271 3.998 -7.753 7.030 29.114 19.257 36.408 75.551 1736.019 -3910.502 -3.614 -0.605 -1.927 -0.01 -0.49 0.87 0.06
1 2.72 272 2.255 -6.694 6.192 15.595 34.607 37.567 75.551 1736.019 -3910.502 -1.924 -1.643 -1.052 -0.01 -0.49 0.87 0.06
1 2.73 273 -0.067 -6.733 4.990 -4.272 35.065 14.893 149.453 1584.168 -3914.100 0.280 -1.582 0.193 -0.02 -0.48 0.87 0.06
1 2.74 274 -0.747 -7.346 4.971 3.876 23.407 -3.632 149.453 1584.168 -3914.100 0.923 -0.972 0.209 -0.02 -0.48 0.87 0.06
1 2.75 275 -0.694 -7.456 5.253 25.574 13.428 -15.595 149.453 1584.168 -3838.999 0.861 -0.854 -0.061 -0.02 -0.48 0.87 0.06
1 2.76 276 -0.493 -6.809 5.995 36.377 9.155 -22.186 104.482 1659.269 -3809.019 0.668 -1.475 -0.763 -0.02 -0.48 0.87 0.06
1 2.77 277 -0.713 -6.369 6.651 23.987 10.437 -23.316 104.482 1659.269 -3809.019 0.905 -1.883 -1.368 -0.02 -0.48 0.87 0.06
1 2.78 278 -1.370 -7.331 6.287 -12.939 13.245 -19.684 269.375 1674.259 -3824.009 1.577 -0.897 -0.969 -0.02 -0.48 0.88 0.07
1 2.79 279 -1.571 -8.390 5.785 -24.841 7.874 -14.862 269.375 1674.259 -3824.009 1.788 0.163 -0.463 -0.02 -0.48 0.88 0.07
1 2.80 280 -2.471 -8.758 5.272 -17.242 -2.716 -3.784 134.462 1599.308 -3794.028 2.687 0.500 -0.000 -0.03 -0.48 0.87 0.07
1 2.81 281 -2.706 -8.744 5.114 -10.590 -5.402 -1.129 134.462 1599.308 -3794.028 2.910 0.473 0.139 -0.03 -0.48 0.87 0.07
1 2.82 282 -3.567 -8.011 4.947 0.549 -17.517 6.256 59.361 1644.279 -3749.058 3.754 -0.264 0.300 -0.03 -0.48 0.87 0.07
1 2.83 283 -3.582 -7.528 4.913 -0.244 -27.802 7.172 194.423 1674.259 -3929.090 3.750 -0.748 0.333 -0.03 -0.48 0.87 0.07
1 2.84 284 -2.706 -7.307 4.985 -8.270 -38.269 8.667 194.423 1674.259 -3929.090 2.861 -0.971 0.258 -0.03 -0.48 0.87 0.06
1 2.85 285 -1.006 -7.327 5.148 -19.409 -40.375 16.754 -45.420 1749.210 -3794.028 1.159 -0.959 0.083 -0.02 -0.48 0.87 0.06
1 2.86 286 -0.177 -7.772 5.205 -19.562 -34.149 26.978 -45.420 1749.210 -3794.028 0.333 -0.527 0.004 -0.02 -0.48 0.87 0.06
1 2.87 287 0.072 -8.093 5.315 -13.916 -26.825 40.985 89.492 1824.312 -3689.097 0.076 -0.221 -0.129 -0.02 -0.48 0.87 0.05
1 2.88 288 -0.278 -7.906 5.296 3.021 -18.005 54.016 74.501 1854.292 -3809.019 0.356 -0.425 -0.136 -0.02 -0.49 0.87 0.05
1 2.89 289 -0.397 -7.643 5.205 7.935 -19.806 52.918 -90.391 1569.178 -3794.028 0.420 -0.685 -0.038 -0.02 -0.49 0.87 0.04
1 2.90 290 -0.445 -7.681 5.162 3.510 -26.062 46.814 44.371 1854.292 -3704.087 0.418 -0.639 0.017 -0.02 -0.49 0.87 0.04
1 2.91 291 0.024 -7.595 5.148 -5.310 -31.464 38.880 44.371 1854.292 -3704.087 -0.088 -0.722 0.035 -0.02 -0.48 0.87 0.03
1 2.92 292 1.010 -7.686 5.038 -10.864 -23.987 28.626 -75.401 1704.240 -3764.048 -1.096 -0.635 0.139 -0.02 -0.49 0.87 0.03
1 2.93 293 1.441 -7.341 4.688 -11.658 -9.216 25.421 -75.401 1704.240 -3764.048 -1.539 -0.986 0.478 -0.02 -0.49 0.87 0.03
1 2.94 294 1.274 -7.001 4.453 -13.580 2.594 22.125 -90.391 1719.230 -3749.058 -1.384 -1.334 0.700 -0.02 -0.49 0.87 0.02
1 2.95 295 0.536 -7.413 4.640 -12.939 8.057 13.489 134.462 1644.279 -3794.028 -0.695 -0.943 0.478 -0.02 -0.49 0.87 0.02
1 2.96 296 -0.043 -8.021 4.889 -6.866 10.193 8.728 -15.440 1794.181 -3794.028 -0.136 -0.344 0.213 -0.02 -0.49 0.87 0.02
1 2.97 297 -0.785 -8.361 5.368 -0.885 10.590 3.815 -45.420 1899.263 -3794.028 0.593 -0.008 -0.273 -0.02 -0.49 0.87 0.02
1 2.98 298 -1.149 -8.844 5.603 3.601 9.003 0.031 -45.420 1899.263 -3794.028 0.944 0.476 -0.507 -0.02 -0.49 0.87 0.02
1 2.99 299 -1.484 -8.821 5.574 9.369 4.974 -3.601 134.462 1749.210 -3749.058 1.269 0.456 -0.472 -0.02 -0.49 0.87 0.02
1 3.00 300 -1.432 -8.519 4.851 21.637 -0.793 -5.859 134.462 1749.210 -3749.058 1.211 0.164 0.266 -0.02 -0.49 0.87 0.02
1 3.01 301 -1.159 -7.992 4.429 29.877 -3.906 -4.425 164.443 1824.312 -3644.126 0.937 -0.349 0.711 -0.02 -0.49 0.87 0.02
1 3.02 302 -0.963 -7.111 3.783 33.417 -7.446 -3.906 164.443 1869.282 -3749.058 0.750 -1.184 1.431 -0.02 -0.48 0.87 0.02
1 3.03 303 -0.709 -6.800 3.797 28.412 -7.813 -2.930 -45.420 1749.210 -3854.139 0.509 -1.470 1.458 -0.02 -0.48 0.88 0.02
1 3.04 304 -0.742 -6.608 3.998 17.242 -5.402 -1.892 104.482 1734.220 -3809.019 0.554 -1.641 1.289 -0.02 -0.48 0.88 0.02
1 3.05 305 -0.785 -6.924 3.845 4.883 -2.655 -2.258 104.482 1734.220 -3809.019 0.605 -1.313 1.460 -0.02 -0.48 0.88 0.02
1 3.06 306 -1.250 -7.192 3.864 -6.775 -2.594 -4.395 59.361 1794.181 -3689.097 1.076 -1.044 1.443 -0.02 -0.48 0.88 0.02
1 3.07 307 -1.499 -8.107 4.176 -17.029 -5.280 -9.186 59.361 1794.181 -3689.097 1.335 -0.137 1.121 -0.02 -0.48 0.88 0.02
1 3.08 308 -1.710 -8.567 4.386 -21.332 -7.599 -13.702 89.492 1824.312 -3929.090 1.557 0.308 0.888 -0.02 -0.48 0.88 0.02
1 3.09 309 -1.724 -9.079 4.310 -23.102 -11.231 -16.663 -45.420 1794.181 -3689.097 1.583 0.801 0.933 -0.02 -0.48 0.88 0.02
1 3.10 310 -1.657 -9.529 4.271 -19.196 -19.074 -18.005 -15.440 1644.279 -3794.028 1.559 1.206 0.900 -0.02 -0.49 0.87 0.02
1 3.11 311 -1.288 -9.706 4.410 -12.238 -22.278 -15.839 89.492 1719.230 -3794.028 1.219 1.363 0.730 -0.02 -0.49 0.87 0.02
1 3.12 312 -1.044 -9.630 4.549 -4.486 -23.956 -12.207 89.492 1719.230 -3794.028 1.003 1.273 0.569 -0.02 -0.49 0.87 0.02
1 3.13 313 -0.819 -9.419 4.693 3.723 -24.353 -7.965 -45.420 1824.312 -3719.077 0.809 1.058 0.419 -0.01 -0.49 0.87 0.02
1 3.14 314 -0.445 -9.146 5.109 9.583 -19.623 -1.038 -45.420 1824.312 -3719.077 0.459 0.785 0.003 -0.01 -0.49 0.87 0.02
1 3.15 315 -0.220 -9.266 5.109 6.042 -14.648 1.862 -90.391 1599.308 -3854.139 0.250 0.910 0.011 -0.01 -0.49 0.87 0.02
1 3.16 316 -0.532 -9.457 4.449 2.197 -8.514 0.366 -165.342 1719.230 -3644.126 0.575 1.105 0.678 -0.01 -0.49 0.87 0.02
1 3.17 317 -0.637 -9.682 4.291 3.082 -8.057 -1.892 -30.430 1704.240 -3734.067 0.686 1.328 0.833 -0.01 -0.49 0.87 0.02
1 3.18 318 -0.589 -9.572 5.684 14.648 -7.324 -12.177 -90.391 1749.210 -3569.025 0.648 1.218 -0.562 -0.01 -0.49 0.87 0.02
1 3.19 319 -0.450 -9.271 8.165 31.677 -12.421 -14.008 -90.391 1749.210 -3569.025 0.531 0.929 -3.022 -0.01 -0.49 0.87 0.02
1 3.20 320 2.035 -10.607 8.519 -17.944 -43.945 4.822 -105.381 1704.240 -3809.019 -1.923 2.285 -3.344 -0 -0.49 0.87 0.02
1 3.21 321 4.137 -13.767 10.473 -109.436 -26.886 41.565 -105.381 1704.240 -3809.019 -4.006 5.410 -5.356 -0 -0.49 0.87 0.02
1 3.22 322 3.194 -13.011 5.052 -13.580 25.238 38.117 -135.362 1854.292 -3734.067 -3.112 4.569 -0.075 -0 -0.5 0.87 0.01
1 3.23 323 3.706 -10.846 4.449 42.877 16.632 24.139 -120.372 1674.259 -3719.077 -3.696 2.374 0.478 -0.01 -0.5 0.87 0.01
1 3.24 324 3.654 -6.263 5.775 36.560 54.535 27.618 -30.430 1779.191 -3659.116 -3.745 -2.143 -0.739 -0.01 -0.49 0.87 0.01
1 3.25 325 1.231 -6.172 5.521 -19.867 78.400 20.660 -75.401 1704.240 -3734.067 -1.372 -2.212 -0.449 -0.01 -0.49 0.87 0.01
1 3.26 326 -0.737 -7.920 5.378 -56.732 69.641 8.362 -75.401 1704.240 -3734.067 0.515 -0.488 -0.349 -0.02 -0.49 0.87 0.01
1 3.27 327 -1.456 -9.649 5.612 -59.906 59.265 -0.519 -120.372 1719.230 -3719.077 1.175 1.196 -0.661 -0.02 -0.5 0.87 0.01
1 3.28 328 -1.700 -10.324 6.058 -19.653 49.011 -5.127 -120.372 1719.230 -3719.077 1.376 1.830 -1.180 -0.03 -0.5 0.87 0.02
1 3.29 329 -2.672 -9.496 7.192 5.157 42.633 -9.460 -30.430 1779.191 -3554.035 2.318 0.981 -2.354 -0.03 -0.5 0.86 0.02
1 3.30 330 -3.299 -8.730 7.346 20.447 38.696 -12.604 44.371 1734.220 -3704.087 2.925 0.214 -2.510 -0.03 -0.5 0.86 0.02
1 3.31 331 -3.414 -7.537 6.101 34.821 30.945 -3.113 164.443 1869.282 -3539.044 3.015 -0.946 -1.210 -0.04 -0.5 0.87 0.02
1 3.32 332 -2.888 -6.244 4.990 38.330 18.341 8.606 179.433 1809.171 -3659.116 2.458 -2.209 -0.050 -0.04 -0.5 0.87 0.02
1 3.33 333 -2.337 -4.540 4.568 31.220 -4.730 15.076 179.433 1809.171 -3659.116 1.875 -3.882 0.423 -0.04 -0.49 0.87 0.02
1 3.34 334 -1.350 -3.524 4.458 17.304 -23.377 13.275 194.423 1749.210 -3569.025 0.878 -4.874 0.570 -0.04 -0.49 0.87 0.02
1 3.35 335 -0.393 -3.893 4.554 0.763 -35.095 13.184 194.423 1749.210 -3569.025 -0.074 -4.495 0.492 -0.04 -0.49 0.87 0.02
1 3.36 336 0.977 -5.143 4.722 -15.381 -38.269 23.407 104.482 1704.240 -3734.067 -1.432 -3.247 0.323 -0.04 -0.49 0.87 0.02
1 3.37 337 1.398 -5.866 5.334 -23.193 -32.898 32.227 149.453 1659.269 -3599.005 -1.850 -2.533 -0.305 -0.04 -0.49 0.87 0.02
1 3.38 338 1.805 -6.757 5.971 -30.945 -26.642 37.781 149.453 1659.269 -3599.005 -2.267 -1.657 -0.967 -0.03 -0.49 0.87 0.01
1 3.39 339 2.797 -9.888 7.202 -32.471 -13.702 39.734 -0.450 1734.220 -3734.067 -3.298 1.438 -2.265 -0.03 -0.5 0.87 0
1 3.40 340 3.462 -12.297 7.475 -18.555 -3.510 44.190 -0.450 1734.220 -3734.067 -4.006 3.827 -2.576 -0.03 -0.5 0.87 0
1 3.41 341 3.285 -12.905 7.116 1.984 11.627 38.880 89.492 1794.181 -3644.126 -3.884 4.428 -2.236 0.03 0.5 -0.87 0
1 3.42 342 2.447 -11.354 5.957 47.882 29.511 27.039 89.492 1794.181 -3644.126 -3.103 2.889 -1.063 0.04 0.5 -0.87 0
1 3.43 343 0.575 -7.552 5.378 95.490 34.546 4.700 -0.450 1734.220 -3599.005 -1.284 -0.866 -0.410 0.04 0.49 -0.87 0
1 3.44 344 -0.192 -5.387 5.114 79.224 21.973 -11.444 89.492 1749.210 -3613.996 -0.546 -2.960 -0.032 0.04 0.49 -0.87 0
1 3.45 345 -0.464 -4.458 4.654 41.687 8.209 -25.421 89.492 1749.210 -3613.996 -0.278 -3.821 0.536 0.04 0.48 -0.87 0
1 3.46 346 -0.359 -5.430 4.161 0.732 -6.592 -40.039 104.482 1629.289 -3764.048 -0.319 -2.802 1.113 -0.04 -0.48 0.88 0
1 3.47 347 -0.283 -6.369 4.195 -3.906 -13.794 -42.297 104.482 1629.289 -3764.048 -0.335 -1.868 1.078 -0.04 -0.48 0.88 0.01
1 3.48 348 0.278 -7.058 4.899 -0.702 -15.717 -40.161 74.501 1704.240 -3659.116 -0.829 -1.186 0.371 -0.04 -0.48 0.88 0.01
1 3.49 349 0.608 -7.485 5.526 -1.343 -9.979 -33.783 74.501 1704.240 -3659.116 -1.096 -0.763 -0.255 -0.03 -0.48 0.88 0.01
1 3.50 350 0.766 -7.987 5.856 -7.202 -1.678 -24.384 -15.440 1569.178 -3689.097 -1.199 -0.263 -0.585 -0.03 -0.48 0.88 0.01
1 3.51 351 1.087 -8.481 5.636 -12.756 7.202 -11.963 74.501 1554.188 -3629.136 -1.481 0.224 -0.372 -0.03 -0.48 0.88 0.01
1 3.52 352 1.092 -8.543 5.267 -8.087 11.780 -4.272 74.501 1554.188 -3629.136 -1.461 0.277 -0.016 -0.03 -0.48 0.88 0.01
1 3.53 353 0.848 -8.476 4.698 6.928 11.414 0.183 -165.342 1719.230 -3569.025 -1.203 0.199 0.538 -0.03 -0.48 0.88 0.02
1 3.54 354 0.910 -8.672 4.784 16.174 5.524 -1.129 -165.342 1719.230 -3569.025 -1.262 0.400 0.459 -0.03 -0.48 0.88 0.02
1 3.55 355 1.279 -8.600 5.009 22.430 1.221 -3.296 149.453 1704.240 -3659.116 -1.621 0.339 0.252 -0.03 -0.48 0.88 0.02
1 3.56 356 1.413 -8.648 5.047 26.001 -0.580 -4.669 149.453 1704.240 -3659.116 -1.737 0.403 0.240 -0.03 -0.48 0.88 0.02
1 3.57 357 1.561 -8.452 5.014 28.931 1.862 -4.150 44.371 1704.240 -3704.087 -1.866 0.226 0.305 -0.03 -0.48 0.88 0.02
1 3.58 358 1.556 -7.930 4.822 28.748 12.817 0.580 194.423 1524.207 -3794.028 -1.843 -0.275 0.529 -0.03 -0.48 0.88 0.02
1 3.59 359 1.168 -7.643 4.511 28.839 19.714 2.167 194.423 1524.207 -3794.028 -1.448 -0.541 0.874 -0.03 -0.47 0.88 0.02
1 3.60 360 0.824 -7.154 4.147 26.795 20.874 1.587 89.492 1524.207 -3539.044 -1.119 -0.984 1.305 -0.03 -0.47 0.88 0.02
1 3.61 361 0.852 -7.121 4.156 24.262 21.515 0.397 89.492 1524.207 -3539.044 -1.165 -0.997 1.326 -0.03 -0.47 0.88 0.02
1 3.62 362 0.862 -6.987 3.975 16.907 24.231 -1.709 -30.430 1584.168 -3734.067 -1.190 -1.113 1.532 -0.03 -0.47 0.88 0.02
1 3.63 363 0.661 -6.996 3.735 13.092 27.069 -2.258 -30.430 1584.168 -3734.067 -1.007 -1.091 1.790 -0.03 -0.47 0.88 0.02
1 3.64 364 0.484 -7.188 3.453 11.780 25.604 -3.418 104.482 1509.217 -3734.067 -0.847 -0.889 2.086 -0.03 -0.47 0.88 0.02
1 3.65 365 0.570 -7.341 3.673 5.219 21.973 -5.554 134.462 1494.227 -3749.058 -0.949 -0.727 1.878 -0.03 -0.46 0.88 0.02
1 3.66 366 0.637 -7.571 3.769 -1.434 22.003 -5.737 134.462 1494.227 -3749.058 -1.027 -0.492 1.788 -0.04 -0.46 0.88 0.03
1 3.67 367 0.623 -8.131 4.291 -7.996 24.078 -6.622 89.492 1449.256 -3644.126 -1.023 0.068 1.265 -0.04 -0.46 0.88 0.03
1 3.68 368 0.163 -8.524 4.951 -7.507 24.628 -8.148 89.492 1419.275 -3689.097 -0.574 0.439 0.572 -0.04 -0.47 0.88 0.03
1 3.69 369 -0.230 -8.385 4.904 -3.174 23.010 -10.559 59.361 1599.308 -3689.097 -0.184 0.290 0.605 -0.04 -0.47 0.88 0.03
1 3.70 370 -0.350 -8.160 4.817 2.014 17.517 -14.008 59.361 1599.308 -3689.097 -0.065 0.060 0.683 -0.04 -0.47 0.88 0.03
1 3.71 371 -0.273 -7.772 4.750 1.068 13.336 -14.343 194.423 1494.227 -3794.028 -0.135 -0.331 0.747 -0.04 -0.47 0.88 0.03
1 3.72 372 -0.273 -7.576 4.190 -6.439 13.214 -11.261 284.365 1434.266 -3734.067 -0.126 -0.530 1.304 -0.04 -0.47 0.88 0.03
1 3.73 373 -0.311 -7.906 3.567 -13.611 9.857 -6.226 284.365 1434.266 -3734.067 -0.082 -0.206 1.916 -0.04 -0.47 0.88 0.04
1 3.74 374 -0.067 -8.308 3.050 -18.524 5.829 -1.068 164.443 1494.227 -3689.097 -0.324 0.185 2.418 -0.04 -0.47 0.88 0.04
1 3.75 375 -0.091 -9.165 3.132 -24.628 2.747 4.944 179.433 1404.285 -3764.048 -0.304 1.000 2.273 -0.04 -0.47 0.88 0.04
1 3.76 376 0.062 -9.692 4.702 -21.149 -2.167 9.674 269.375 1494.227 -3644.126 -0.463 1.497 0.656 -0.04 -0.47 0.88 0.04
1 3.77 377 -0.249 -9.204 9.544 -7.080 -9.949 11.383 269.375 1494.227 -3644.126 -0.157 0.987 -4.219 -0.04 -0.48 0.88 0.04
1 3.78 378 -2.576 -9.678 10.492 -9.796 11.841 -9.888 314.495 1569.178 -3644.126 2.168 1.457 -5.173 -0.04 -0.48 0.88 0.03
1 3.79 379 -3.931 -13.149 8.557 -42.969 -9.949 -37.048 104.482 1554.188 -3734.067 3.537 4.912 -3.263 -0.04 -0.48 0.88 0.04
1 3.80 380 -1.882 -12.024 7.762 25.452 -21.576 -12.543 104.482 1554.188 -3734.067 1.551 3.754 -2.515 -0.04 -0.48 0.88 0.04
1 3.81 381 -2.370 -9.184 6.766 19.318 -21.027 -5.005 149.453 1509.217 -3809.019 2.087 0.924 -1.502 -0.04 -0.48 0.88 0.04
1 3.82 382 -1.719 -6.407 6.699 -28.626 -42.145 -8.942 254.384 1659.269 -3629.136 1.490 -1.832 -1.398 -0.03 -0.48 0.88 0.04
1 3.83 383 -0.426 -7.705 4.990 -61.981 -58.624 -16.449 254.384 1434.266 -3734.067 0.238 -0.556 0.279 -0.03 -0.48 0.88 0.04
1 3.84 384 1.302 -8.950 4.951 -69.458 -72.907 -16.876 254.384 1434.266 -3734.067 -1.422 0.638 0.239 -0.03 -0.48 0.87 0.03
1 3.85 385 1.815 -9.046 5.727 -62.073 -56.305 -22.614 164.443 1599.308 -3613.996 -1.848 0.678 -0.626 -0.02 -0.49 0.87 0.03
1 3.86 386 3.218 -9.501 6.144 -47.180 -37.598 -16.205 104.482 1584.168 -3659.116 -3.181 1.087 -1.118 -0.02 -0.49 0.87 0.03
1 3.87 387 3.807 -8.342 7.360 -21.912 -11.810 1.740 104.482 1584.168 -3659.116 -3.726 -0.105 -2.391 -0.01 -0.5 0.87 0.03
1 3.88 388 3.486 -7.231 6.987 -6.439 2.228 6.744 -90.391 1674.259 -3644.126 -3.390 -1.236 -2.052 -0.01 -0.5 0.87 0.03
1 3.89 389 2.682 -6.460 6.211 0.275 12.848 5.432 -15.440 1644.279 -3644.126 -2.590 -2.014 -1.289 -0.01 -0.5 0.87 0.03
1 3.90 390 1.077 -6.201 4.784 4.059 27.649 -5.280 -0.450 1659.269 -3554.035 -0.981 -2.259 0.162 -0.01 -0.5 0.87 0.03
1 3.91 391 0.259 -6.666 4.568 9.430 30.762 -12.634 -0.450 1659.269 -3554.035 -0.173 -1.790 0.384 -0.01 -0.5 0.87 0.03
1 3.92 392 -0.551 -6.876 4.966 12.024 26.764 -17.517 44.371 1734.220 -3599.005 0.632 -1.571 0.001 -0.02 -0.5 0.87 0.04
1 3.93 393 -1.422 -7.106 5.732 12.054 16.724 -24.963 -75.401 1779.191 -3419.123 1.513 -1.332 -0.749 -0.02 -0.5 0.87 0.04
1 3.94 394 -2.126 -7.911 6.886 -3.082 5.554 -36.102 -75.401 1779.191 -3419.123 2.232 -0.514 -1.881 -0.02 -0.49 0.87 0.04
1 3.95 395 -2.610 -9.271 6.862 -19.257 -2.289 -42.450 -0.450 1629.289 -3599.005 2.742 0.853 -1.846 -0.02 -0.49 0.87 0.04
1 3.96 396 -2.806 -10.688 6.014 -19.928 -16.632 -39.002 149.453 1809.171 -3629.136 3.050 2.246 -1.043 -0.01 -0.5 0.87 0.05
1 3.97 397 -2.720 -10.530 5.540 -7.355 -18.341 -33.081 -30.430 1779.191 -3629.136 3.025 2.079 -0.588 -0.01 -0.5 0.87 0.05
1 3.98 398 -2.543 -8.840 4.908 26.489 -20.325 -10.040 -30.430 1779.191 -3629.136 2.893 0.399 0.058 -0.01 -0.5 0.87 0.05
1 3.99 399 -2.140 -7.403 5.076 28.534 -22.034 4.181 -75.401 1779.191 -3524.054 2.506 -1.017 -0.075 -0.01 -0.49 0.87 0.05
1 4.00 400 -1.585 -6.407 5.138 12.726 -24.811 15.839 -180.482 1809.171 -3734.067 1.940 -1.993 -0.103 -0.01 -0.49 0.87 0.05
1 4.01 401 -0.723 -6.206 5.382 -11.658 -25.787 23.773 -180.482 1809.171 -3734.067 1.076 -2.190 -0.341 -0 -0.49 0.87 0.04
1 4.02 402 0.359 -6.800 5.488 -26.001 -18.890 36.682 -45.420 1824.312 -3613.996 -0.019 -1.610 -0.468 -0 -0.49 0.87 0.04
1 4.03 403 1.015 -7.494 5.660 -19.928 -10.071 42.969 -210.463 1704.240 -3554.035 -0.701 -0.937 -0.675 -0 -0.5 0.87 0.04
1 4.04 404 0.498 -7.906 5.852 -3.967 1.831 48.645 -165.342 1794.181 -3613.996 -0.277 -0.550 -0.903 -0.01 -0.5 0.87 0.03
1 4.05 405 -0.302 -7.700 5.742 7.751 6.195 46.936 -165.342 1794.181 -3613.996 0.463 -0.754 -0.787 -0.01 -0.5 0.87 0.03
1 4.06 406 -1.077 -7.317 5.243 15.503 2.991 39.337 -15.440 1824.312 -3464.093 1.176 -1.126 -0.269 -0.01 -0.5 0.87 0.03
1 4.07 407 -1.566 -6.781 5.009 15.015 -6.958 28.107 44.371 1734.220 -3524.054 1.611 -1.647 -0.008 -0.01 -0.49 0.87 0.02
1 4.08 408 -1.125 -6.354 4.774 5.402 -13.031 17.151 44.371 1734.220 -3524.054 1.146 -2.063 0.244 -0.01 -0.49 0.87 0.02
1 4.09 409 -0.426 -6.527 4.779 -21.179 -11.627 9.491 -105.381 1779.191 -3599.005 0.439 -1.890 0.240 -0.01 -0.49 0.87 0.02
1 4.10 410 -0.374 -7.178 4.808 -31.891 -5.127 7.080 -90.391 1869.282 -3644.126 0.385 -1.252 0.190 -0.01 -0.49 0.87 0.02
1 4.11 411 -0.790 -8.701 4.860 -24.994 -2.563 2.411 -45.420 1749.210 -3464.093 0.794 0.224 0.058 -0.01 -0.5 0.87 0.02
1 4.12 412 -1.240 -9.343 4.980 -7.599 -3.906 0.885 -45.420 1749.210 -3464.093 1.241 0.850 -0.089 -0.01 -0.5 0.87 0.02
1 4.13 413 -1.748 -9.271 5.133 10.345 -7.050 -0.610 -30.430 1809.171 -3554.035 1.744 0.775 -0.248 -0.01 -0.5 0.87 0.02
1 4.14 414 -1.676 -8.730 5.028 19.440 -11.780 -1.343 44.371 1854.292 -3554.035 1.674 0.244 -0.126 -0.01 -0.5 0.87 0.02
1 4.15 415 -1.681 -8.112 4.621 19.287 -21.301 0.641 44.371 1854.292 -3554.035 1.679 -0.359 0.306 -0.01 -0.5 0.87 0.02
1 4.16 416 -1.092 -7.719 4.247 15.808 -29.358 0.061 -75.401 1854.292 -3629.136 1.096 -0.739 0.703 -0.01 -0.5 0.87 0.01
1 4.17 417 -0.646 -7.667 3.927 15.106 -33.936 0.275 -75.401 1854.292 -3659.116 0.664 -0.780 1.043 -0.01 -0.5 0.87 0.01
1 4.18 418 -0.642 -8.016 4.027 14.557 -33.905 1.465 -75.401 1854.292 -3659.116 0.681 -0.419 0.962 -0 -0.5 0.87 0.01
1 4.19 419 -0.675 -8.083 4.401 12.573 -28.046 6.165 44.371 1959.224 -3629.136 0.757 -0.332 0.621 -0 -0.49 0.87 0.01
1 4.20 420 -0.843 -8.188 4.319 10.071 -24.689 7.446 -75.401 1809.171 -3554.035 0.933 -0.220 0.714 0 -0.49 0.87 0.01
1 4.21 421 -1.125 -8.251 4.286 6.958 -25.787 6.897 -255.434 1719.230 -3539.044 1.219 -0.153 0.756 0 -0.49 0.87 0.01
1 4.22 422 -0.876 -8.366 4.008 2.991 -31.403 5.463 -255.434 1719.230 -3539.044 0.975 -0.036 1.037 0 -0.49 0.87 0
1 4.23 423 -0.306 -8.864 4.176 -8.698 -35.248 6.287 -315.395 1809.171 -3524.054 0.418 0.460 0.865 0.01 -0.49 0.87 0
1 4.24 424 -0.043 -9.151 4.271 -11.627 -33.295 5.859 -180.482 1809.171 -3629.136 0.170 0.739 0.754 -0.01 0.49 -0.87 0
1 4.25 425 0.153 -9.481 4.396 -8.850 -31.189 6.714 -180.482 1809.171 -3629.136 -0.008 1.056 0.608 -0.01 0.49 -0.87 0
1 4.26 426 0.029 -9.558 4.444 -0.671 -27.435 6.836 -225.453 1794.181 -3613.996 0.147 1.113 0.525 -0.01 0.5 -0.87 0
1 4.27 427 0.139 -9.376 4.597 1.129 -27.802 5.157 -105.381 1734.220 -3479.083 0.050 0.927 0.364 -0.01 0.5 -0.87 0.01
1 4.28 428 0.239 -9.194 4.693 2.014 -26.611 2.411 -330.385 1869.282 -3644.126 -0.035 0.742 0.264 -0.02 0.5 -0.87 0.01
1 4.29 429 0.340 -9.141 4.496 0.336 -25.726 -0.153 -330.385 1869.282 -3644.126 -0.116 0.688 0.457 -0.02 0.5 -0.87 0.01
1 4.30 430 0.297 -9.333 4.315 0.122 -24.536 -2.716 -195.473 2019.185 -3613.996 -0.051 0.877 0.633 -0.02 0.5 -0.87 0.01
1 4.31 431 0.316 -9.414 3.443 6.256 -19.165 -7.568 -255.434 1899.263 -3569.025 -0.046 0.956 1.498 -0.02 0.5 -0.87 0.01
1 4.32 432 0.081 -9.256 3.735 14.038 -15.595 -12.543 -255.434 1899.263 -3569.025 0.216 0.796 1.203 -0.02 0.5 -0.87 0.01
1 4.33 433 -0.077 -8.624 7.585 43.213 -15.656 -15.198 -270.424 1884.272 -3629.136 0.432 0.185 -2.616 -0.03 0.5 -0.87 0.01
1 4.34 434 2.586 -9.750 7.877 -7.538 -58.228 5.096 -195.473 1824.312 -3464.093 -2.193 1.339 -2.862 -0.03 0.49 -0.87 0.01
1 4.35 435 5.761 -13.820 11.612 -95.429 -23.804 51.392 -270.424 1704.240 -3524.054 -5.343 5.383 -6.644 -0.03 0.5 -0.87 0.01
1 4.36 436 4.822 -12.934 8.021 -49.805 34.607 73.517 -270.424 1704.240 -3524.054 -4.478 4.423 -3.174 -0.03 0.5 -0.86 0.02
1 4.37 437 3.290 -10.741 4.702 26.672 27.985 52.246 -420.476 1809.171 -3659.116 -3.061 2.207 0.111 -0.03 0.5 -0.86 0.02
1 4.38 438 4.089 -6.144 5.445 59.815 30.365 34.241 -435.466 1794.181 -3509.064 -3.936 -2.364 -0.584 -0.02 0.5 -0.86 0.02
1 4.39 439 2.485 -3.788 6.058 17.578 64.575 16.113 -437.565 1791.933 -3513.411 -2.379 -4.676 -1.119 -0.02 0.5 -0.87 0.02
1 4.40 440 -0.038 -5.885 5.799 -56.793 66.559 -4.700 -332.633 1941.985 -3618.493 0.033 -2.572 -0.847 -0.01 0.5 -0.87 0.02
1 4.41 441 -0.081 -6.987 5.818 -68.573 66.559 -8.881 -212.562 1806.923 -3558.532 0.037 -1.518 -0.948 -0.01 0.5 -0.86 0.02
1 4.42 442 -0.646 -8.811 6.067 -65.644 68.726 -3.693 -197.571 1791.933 -3513.411 0.562 0.258 -1.284 -0 0.51 -0.86 0.01
1 4.43 443 -1.868 -8.739 6.465 -44.464 56.458 -3.571 -197.571 1791.933 -3513.411 1.738 0.145 -1.757 0 0.51 -0.86 0.01
1 4.44 444 -3.007 -8.725 6.891 -17.700 36.621 -8.850 -197.571 1971.965 -3513.411 2.849 0.103 -2.235 0 0.51 -0.86 0.01
1 4.45 445 -2.768 -9.017 6.781 23.651 21.393 -6.958 -137.610 1926.995 -3603.502 2.601 0.387 -2.140 0.01 0.51 -0.86 0.01
1 4.46 446 -1.863 -8.155 6.187 37.567 18.982 9.033 -137.610 1926.995 -3603.502 1.693 -0.463 -1.524 0.01 0.51 -0.86 0.01
1 4.47 447 -1.393 -6.283 5.325 32.044 11.505 22.675 -122.620 1821.913 -3648.473 1.205 -2.310 -0.617 0.01 0.51 -0.86 0.01
1 4.48 448 -0.728 -5.646 4.492 15.808 -7.813 23.254 -33.428 2075.698 -3486.729 0.461 -2.898 0.302 0.01 0.51 -0.86 0.01
1 4.49 449 0.091 -6.761 4.702 6.073 -18.005 25.208 -198.471 1940.786 -3546.689 -0.379 -1.771 0.109 0.01 0.5 -0.86 0.01
1 4.50 450 0.737 -7.877 5.416 3.876 -15.625 33.478 -198.471 1940.786 -3546.689 -1.045 -0.651 -0.598 0.01 0.5 -0.86 0.01
1 4.51 451 0.872 -8.423 5.842 5.127 -7.935 43.732 -18.438 1895.815 -3576.670 -1.208 -0.098 -1.013 0.01 0.5 -0.86 0.02
1 4.52 452 0.886 -8.663 6.230 -1.068 -3.998 51.636 -78.549 1805.724 -3486.729 -1.266 0.151 -1.388 0.01 0.5 -0.86 0.02
1 4.53 453 1.025 -9.429 6.206 -8.545 -5.249 45.777 -78.549 1805.724 -3486.729 -1.458 0.924 -1.356 0.01 0.5 -0.86 0.02
1 4.54 454 1.566 -10.147 6.139 -0.092 -2.502 32.715 -78.549 1880.825 -3666.611 -2.051 1.642 -1.295 0.01 0.5 -0.86 0.03
1 4.55 455 1.877 -9.687 6.144 39.002 12.756 12.329 -48.418 2015.737 -3516.709 -2.436 1.197 -1.282 0.02 0.5 -0.86 0.03
1 4.56 456 1.887 -8.782 6.101 58.167 18.280 0.763 -18.438 1865.834 -3576.670 -2.467 0.326 -1.183 0.02 0.5 -0.87 0.03
1 4.57 457 1.523 -6.910 5.631 60.486 18.066 -7.080 -18.438 1865.834 -3576.670 -2.115 -1.502 -0.638 0.02 0.49 -0.87 0.03
1 4.58 458 1.025 -5.785 5.162 47.638 14.984 -15.595 -123.520 1940.786 -3441.758 -1.600 -2.580 -0.089 0.02 0.49 -0.87 0.03
1 4.59 459 0.670 -5.291 4.674 29.846 8.850 -23.590 -18.438 1865.834 -3621.641 -1.232 -3.041 0.453 0.02 0.49 -0.87 0.03
1 4.60 460 0.603 -5.847 4.453 9.735 -1.404 -32.745 -18.438 1865.834 -3621.641 -1.136 -2.468 0.706 0.02 0.49 -0.87 0.02
1 4.61 461 0.752 -6.704 4.631 0.916 -5.737 -34.851 101.334 1730.772 -3666.611 -1.243 -1.604 0.544 0.02 0.49 -0.87 0.02
1 4.62 462 1.413 -7.786 5.698 -6.409 -4.547 -33.753 -138.510 1805.724 -3561.680 -1.802 -0.528 -0.525 0.01 0.49 -0.87 0.02
1 4.63 463 1.829 -8.452 6.096 -2.502 1.923 -28.626 -3.448 1880.825 -3636.631 -2.161 0.133 -0.926 0.01 0.49 -0.87 0.02
1 4.64 464 1.997 -8.979 6.144 4.028 13.519 -20.783 -3.448 1880.825 -3636.631 -2.281 0.660 -0.971 0.01 0.49 -0.87 0.01
1 4.65 465 1.805 -8.955 5.727 13.794 23.895 -11.780 -4.647 1623.592 -3670.809 -2.078 0.640 -0.547 0.01 0.49 -0.87 0.01
1 4.66 466 1.355 -8.394 5.224 21.454 28.381 -6.042 -4.647 1878.576 -3640.828 -1.626 0.092 -0.025 0.01 0.48 -0.87 0.01
1 4.67 467 0.776 -7.892 4.722 28.931 24.902 -2.502 -4.647 1878.576 -3640.828 -1.047 -0.394 0.505 0.01 0.48 -0.88 0.01
1 4.68 468 0.421 -7.561 4.722 30.640 18.921 -3.387 -4.647 1698.543 -3610.848 -0.699 -0.704 0.537 0.01 0.48 -0.88 0.01
1 4.69 469 0.397 -7.336 4.789 30.396 13.855 -5.737 -4.647 1698.543 -3610.848 -0.679 -0.906 0.506 0.01 0.48 -0.88 0
1 4.70 470 0.651 -7.312 4.937 24.506 10.529 -4.822 -4.647 1728.524 -3745.760 -0.936 -0.884 0.428 0.01 0.48 -0.88 0
1 4.71 471 0.742 -7.303 4.927 20.142 12.604 -1.709 -4.647 1728.524 -3745.760 -1.026 -0.874 0.467 0.02 0.47 -0.88 0
1 4.72 472 0.929 -7.312 4.908 18.097 17.761 1.404 40.174 1728.524 -3715.779 -1.218 -0.849 0.510 0.02 0.47 -0.88 0
1 4.73 473 0.685 -7.413 4.779 16.998 22.492 5.188 70.154 1728.524 -3670.809 -0.987 -0.733 0.661 0.02 0.47 -0.88 0
1 4.74 474 0.469 -7.303 4.702 15.717 24.780 6.226 70.154 1728.524 -3670.809 -0.792 -0.830 0.756 0.02 0.47 -0.88 0
1 4.75 475 0.297 -7.192 4.473 14.099 23.834 6.470 -124.719 1593.612 -3730.770 -0.647 -0.926 1.005 -0.02 -0.47 0.88 0
1 4.76 476 0.354 -7.566 4.353 10.162 22.766 7.874 160.096 1593.612 -3730.770 -0.758 -0.530 1.155 -0.02 -0.47 0.88 0
1 4.77 477 0.388 -7.623 4.262 9.155 22.827 8.637 55.164 1638.583 -3730.770 -0.819 -0.464 1.256 -0.03 -0.47 0.88 0
1 4.78 478 0.627 -7.954 4.343 6.348 22.278 9.796 55.164 1638.583 -3730.770 -1.084 -0.129 1.179 -0.03 -0.47 0.88 0
1 4.79 479 0.680 -8.174 4.353 6.256 21.851 8.850 175.086 1623.592 -3715.779 -1.158 0.093 1.170 -0.03 -0.47 0.88 0
1 4.80 480 0.642 -8.256 4.511 7.202 21.362 7.446 310.148 1563.631 -3730.770 -1.139 0.176 1.013 -0.03 -0.47 0.88 0
1 4.81 481 0.397 -7.959 4.856 7.507 22.003 5.951 310.148 1563.631 -3730.770 -0.911 -0.119 0.670 -0.03 -0.47 0.88 0
1 4.82 482 -0.062 -8.169 4.784 7.294 19.928 2.594 145.105 1428.569 -3715.779 -0.468 0.095 0.745 -0.03 -0.47 0.88 0
1 4.83 483 -0.163 -7.844 4.645 8.026 16.937 0.610 145.105 1428.569 -3715.779 -0.382 -0.227 0.887 -0.03 -0.47 0.88 0
1 4.84 484 -0.455 -7.480 4.631 4.425 13.794 -0.824 145.105 1428.569 -3670.809 -0.110 -0.585 0.909 -0.04 -0.46 0.88 0.01
1 4.85 485 -0.584 -7.207 4.180 -1.526 12.726 -1.862 145.105 1428.569 -3670.809 0.011 -0.856 1.360 -0.04 -0.46 0.88 0.01
1 4.86 486 -0.800 -7.327 3.582 -6.744 9.583 0.183 235.197 1638.583 -3730.770 0.219 -0.739 1.954 -0.04 -0.46 0.88 0.01
1 4.87 487 -0.704 -7.762 2.950 -10.132 4.944 2.380 325.138 1578.622 -3775.740 0.117 -0.310 2.576 -0.04 -0.47 0.88 0.01
1 4.88 488 -0.512 -8.256 2.763 -12.543 0.519 6.561 325.138 1578.622 -3775.740 -0.081 0.175 2.749 -0.04 -0.47 0.88 0.01
1 4.89 489 0.196 -9.170 3.184 -15.472 -0.397 14.374 100.135 1548.641 -3775.740 -0.797 1.078 2.311 -0.04 -0.47 0.88 0.01
1 4.90 490 0.603 -9.544 4.688 -8.392 2.167 19.318 100.135 1548.641 -3775.740 -1.215 1.429 0.772 -0.04 -0.47 0.88 0.01
1 4.91 491 -0.158 -7.863 11.028 15.564 1.862 16.846 220.207 1578.622 -3715.779 -0.491 -0.266 -5.593 -0.04 -0.47 0.88 0
1 4.92 492 -3.687 -7.805 11.229 -8.911 14.435 -22.980 220.207 1578.622 -3715.779 3.024 -0.313 -5.780 -0.04 -0.47 0.88 0
1 4.93 493 -3.740 -10.865 8.648 -36.652 -17.426 -40.985 265.177 1563.631 -3655.818 3.110 2.727 -3.225 -0.04 -0.47 0.88 0.01
1 4.94 494 -1.949 -10.702 7.762 6.561 -28.656 -21.484 340.128 1713.534 -3865.832 1.387 2.538 -2.370 -0.04 -0.47 0.88 0.01
1 4.95 495 -2.509 -8.749 6.905 2.228 -15.808 -11.322 340.128 1713.534 -3865.832 1.990 0.590 -1.501 -0.03 -0.47 0.88 0.01
1 4.96 496 -2.179 -6.905 6.335 -53.559 -43.549 -24.902 190.076 1443.560 -3760.750 1.693 -1.259 -0.937 -0.03 -0.47 0.88 0.01
1 4.97 497 -1.283 -8.145 5.765 -80.567 -61.341 -35.828 190.076 1443.560 -3760.750 0.844 -0.050 -0.410 -0.03 -0.48 0.88 0.01
1 4.98 498 0.287 -9.496 5.770 -75.440 -73.456 -46.387 160.096 1713.534 -3805.721 -0.649 1.242 -0.500 -0.02 -0.48 0.88 0.01
1 4.99 499 3.132 -11.052 6.512 -37.995 -60.974 -46.784 175.086 1653.573 -3775.740 -3.256 2.687 -1.409 -0.01 -0.49 0.87 0.01
1 5.00 500 3.783 -10.391 7.403 -14.008 -33.508 -26.550 85.145 1743.514 -3760.750 -3.810 2.000 -2.340 -0.01 -0.49 0.87 0.01
1 5.01 501 3.429 -9.285 7.432 7.935 -11.139 -8.545 55.164 1743.514 -3475.786 -3.405 0.887 -2.380 -0 -0.49 0.87 0.01
1 5.02 502 3.079 -7.801 7.116 19.928 -2.258 1.160 55.164 1743.514 -3475.786 -3.040 -0.588 -2.049 -0 -0.49 0.87 0.01
1 5.03 503 2.356 -6.244 6.077 21.973 7.111 0.488 160.096 1893.566 -3760.750 -2.317 -2.128 -0.983 -0 -0.49 0.87 0.01
1 5.04 504 1.317 -5.842 5.291 17.456 11.749 -7.660 160.096 1893.566 -3760.750 -1.262 -2.505 -0.158 -0 -0.49 0.87 0.01
1 5.05 505 0.321 -6.603 5.018 12.970 11.231 -18.005 -19.637 1788.635 -3625.838 -0.257 -1.726 0.145 -0 -0.49 0.87 0.01
1 5.06 506 -0.220 -7.374 5.483 15.320 9.674 -25.574 10.193 1863.586 -3700.789 0.318 -0.933 -0.285 -0 -0.48 0.87 0.02
1 5.07 507 -0.881 -7.398 6.196 16.174 9.949 -27.283 40.174 1848.596 -3715.779 1.003 -0.893 -0.974 -0 -0.48 0.88 0.02
1 5.08 508 -1.432 -7.379 6.551 12.085 7.599 -27.863 -4.647 1848.596 -3820.711 1.576 -0.895 -1.301 -0 -0.48 0.88 0.02
1 5.09 509 -2.308 -7.810 6.608 3.479 0.183 -28.229 -4.647 1848.596 -3820.711 2.473 -0.449 -1.336 -0 -0.48 0.88 0.02
1 5.10 510 -2.686 -8.859 6.369 -4.700 -6.317 -25.696 -4.647 1653.573 -3775.740 2.872 0.607 -1.086 -0 -0.48 0.88 0.02
1 5.11 511 -3.132 -9.539 5.492 3.113 -13.336 -9.949 -4.647 1653.573 -3775.740 3.356 1.284 -0.216 -0 -0.48 0.88 0.03
1 5.12 512 -3.151 -8.428 5.138 11.566 -18.311 5.585 70.154 1773.645 -3775.740 3.403 0.174 0.139 0 -0.48 0.88 0.03
1 5.13 513 -2.955 -6.958 5.014 4.150 -27.924 23.163 -109.729 1728.524 -3670.809 3.196 -1.281 0.287 0 -0.48 0.88 0.02
1 5.14 514 -2.452 -6.350 5.081 -10.559 -36.224 30.792 -34.777 1728.524 -3640.828 2.663 -1.889 0.223 0 -0.48 0.88 0.02
1 5.15 515 -1.839 -6.532 4.961 -23.102 -41.718 37.201 10.193 1743.514 -3865.832 2.041 -1.719 0.323 0 -0.48 0.88 0.02
1 5.16 516 -0.905 -6.953 4.851 -27.344 -45.105 40.894 10.193 1743.514 -3865.832 1.095 -1.319 0.401 0 -0.48 0.88 0.01
1 5.17 517 -0.441 -7.422 5.344 -28.229 -45.319 44.495 -49.768 1713.534 -3760.750 0.615 -0.873 -0.130 0.01 -0.48 0.88 0.01
1 5.18 518 0.345 -8.208 5.995 -31.525 -43.640 50.781 -49.768 1713.534 -3760.750 -0.193 -0.111 -0.817 0.01 -0.49 0.87 0
1 5.19 519 0.359 -9.103 6.101 -25.421 -37.628 53.406 -169.689 1788.635 -3625.838 -0.235 0.761 -0.959 -0.01 0.49 -0.87 0
1 5.20 520 0.024 -8.859 5.516 -2.625 -29.480 52.033 -94.738 1788.635 -3655.818 0.025 0.484 -0.427 -0.01 0.49 -0.87 0.01
1 5.21 521 0.067 -8.528 5.445 6.439 -27.680 48.371 -169.689 1788.635 -3700.789 -0.058 0.156 -0.352 -0.01 0.49 -0.87 0.02
1 5.22 522 -0.125 -7.063 4.832 14.069 -24.780 38.971 -109.729 1878.576 -3715.779 0.099 -1.298 0.280 -0.01 0.49 -0.87 0.02
1 5.23 523 0.014 -6.412 4.511 4.730 -22.919 32.929 -109.729 1878.576 -3715.779 -0.067 -1.939 0.618 -0.01 0.49 -0.87 0.02
1 5.24 524 0.086 -6.206 4.439 -10.132 -17.365 26.489 -94.738 2013.638 -3625.838 -0.160 -2.144 0.691 -0.01 0.49 -0.87 0.03
1 5.25 525 0.038 -7.001 4.468 -24.872 -11.932 19.531 -94.738 2013.638 -3625.838 -0.130 -1.359 0.645 -0.01 0.49 -0.87 0.03
1 5.26 526 -0.383 -7.825 4.640 -21.545 -12.238 15.808 -109.729 1803.625 -3670.809 0.277 -0.554 0.442 -0.01 0.49 -0.87 0.03
1 5.27 527 -0.555 -8.725 4.870 -12.238 -12.329 13.855 -214.660 1728.524 -3610.848 0.438 0.329 0.183 -0.01 0.49 -0.87 0.03
1 5.28 528 -0.910 -9.247 5.243 5.096 -14.832 11.017 -34.777 1953.527 -3640.828 0.777 0.835 -0.217 -0.01 0.49 -0.87 0.03
1 5.29 529 -1.077 -9.261 5.176 13.458 -17.304 7.660 -244.641 2028.628 -3820.711 0.940 0.855 -0.141 -0.01 0.49 -0.87 0.03
1 5.30 530 -1.164 -8.821 4.923 19.898 -20.599 5.585 -244.940 2028.329 -3821.460 1.026 0.424 0.130 -0.01 0.49 -0.87 0.04
1 5.31 531 -0.958 -8.337 4.755 24.628 -24.292 4.608 -94.888 1818.315 -3701.539 0.824 -0.044 0.322 -0.01 0.49 -0.87 0.04
1 5.32 532 -0.575 -7.566 4.367 25.696 -27.008 5.096 -94.888 1818.315 -3701.539 0.450 -0.797 0.740 -0.01 0.49 -0.87 0.04
1 5.33 533 -0.345 -7.020 4.238 20.996 -25.452 7.080 -94.888 2013.338 -3761.500 0.232 -1.323 0.902 -0.02 0.49 -0.87 0.04
1 5.34 534 -0.172 -6.824 4.195 15.381 -22.247 7.904 -244.940 1998.348 -3776.490 0.073 -1.502 0.974 -0.02 0.49 -0.87 0.04
1 5.35 535 -0.101 -6.881 4.046 6.134 -18.372 10.407 -244.940 1878.276 -3851.441 0.019 -1.423 1.157 -0.02 0.48 -0.87 0.04
1 5.36 536 -0.029 -6.814 3.946 1.709 -16.022 13.672 -169.989 1863.286 -3731.519 -0.051 -1.486 1.265 -0.02 0.48 -0.87 0.05
1 5.37 537 0.072 -6.939 3.721 -2.930 -13.611 16.968 -169.989 1863.286 -3731.519 -0.156 -1.361 1.490 -0.02 0.48 -0.87 0.05
1 5.38 538 0.024 -7.063 3.745 -7.385 -10.284 20.752 -229.950 2043.319 -3806.470 -0.119 -1.239 1.461 -0.02 0.48 -0.87 0.05
1 5.39 539 -0.038 -7.216 3.726 -11.841 -7.599 22.675 -229.950 2043.319 -3806.470 -0.074 -1.093 1.470 -0.02 0.48 -0.87 0.05
1 5.40 540 -0.546 -7.868 4.003 -17.639 -5.096 20.111 -199.970 1893.267 -3731.519 0.412 -0.451 1.175 -0.02 0.49 -0.87 0.05
1 5.41 541 -1.010 -8.557 4.219 -21.179 -5.890 12.390 -274.921 2028.329 -3821.460 0.856 0.225 0.938 -0.02 0.49 -0.87 0.05
1 5.42 542 -1.547 -9.735 4.487 -22.583 -11.627 1.953 -184.979 1953.228 -3746.509 1.368 1.362 0.603 -0.02 0.49 -0.87 0.05
1 5.43 543 -1.571 -10.018 4.688 -20.355 -16.449 -4.303 -199.970 1968.218 -3731.519 1.399 1.625 0.370 -0.02 0.49 -0.87 0.06
1 5.44 544 -1.484 -10.722 4.573 -14.648 -19.592 -5.280 -199.970 1968.218 -3731.519 1.334 2.314 0.460 -0.02 0.49 -0.87 0.06
1 5.45 545 -1.130 -10.492 4.281 -4.669 -20.660 -4.517 -244.940 1878.276 -3671.408 1.003 2.075 0.736 -0.02 0.49 -0.87 0.06
1 5.46 546 -0.790 -10.430 4.118 5.981 -19.928 -3.967 -244.940 1878.276 -3671.408 0.686 2.011 0.897 -0.03 0.49 -0.87 0.06
1 5.47 547 -0.316 -9.821 4.118 10.559 -22.064 -1.038 -334.882 2118.270 -3656.418 0.234 1.408 0.907 -0.03 0.49 -0.87 0.06
1 5.48 548 -0.091 -9.807 4.626 9.796 -19.959 1.617 -274.921 2028.329 -3851.441 0.030 1.402 0.413 -0.03 0.49 -0.87 0.06
1 5.49 549 -0.244 -9.970 4.947 7.477 -13.062 3.510 -274.921 2028.329 -3851.441 0.198 1.569 0.100 -0.03 0.49 -0.87 0.06
1 5.50 550 -0.963 -10.319 4.726 8.057 -8.698 -0.977 -274.921 1953.228 -3671.408 0.932 1.930 0.339 -0.03 0.49 -0.87 0.06
1 5.51 551 -1.326 -10.415 4.487 13.580 -11.597 -7.050 -274.921 1953.228 -3671.408 1.308 2.033 0.590 -0.03 0.49 -0.87 0.06
1 5.52 552 -1.551 -9.946 4.142 17.975 -16.357 -13.825 -274.921 1998.348 -3716.529 1.556 1.575 0.954 -0.03 0.49 -0.87 0.06
1 5.53 553 -1.451 -9.606 4.195 19.531 -19.653 -19.501 -274.921 1998.348 -3716.529 1.491 1.250 0.925 -0.03 0.49 -0.87 0.06
1 5.54 554 -0.910 -8.677 8.586 24.567 -21.423 -18.799 -469.944 1968.218 -3836.451 0.981 0.330 -3.451 -0.04 0.49 -0.87 0.06
1 5.55 555 0.618 -9.017 7.054 -7.263 -50.568 1.678 -319.892 1923.247 -3671.408 -0.508 0.686 -1.894 -0.04 0.49 -0.87 0.06
1 5.56 556 4.698 -14.122 9.046 -115.845 -22.644 66.345 -469.944 1968.218 -3866.431 -4.542 5.732 -3.983 -0.04 0.49 -0.87 0.06
1 5.57 557 4.276 -13.389 7.757 -80.445 7.996 77.515 -424.973 1923.247 -3821.460 -4.207 4.923 -2.822 -0.04 0.5 -0.86 0.07
1 5.58 558 2.811 -10.482 3.855 35.736 21.576 49.164 -424.973 1923.247 -3821.460 -2.849 2.014 1.078 -0.04 0.5 -0.86 0.07
1 5.59 559 3.955 -7.662 5.176 39.215 14.526 36.652 -380.002 2028.329 -3851.441 -4.064 -0.777 -0.194 -0.04 0.49 -0.87 0.07
1 5.60 560 3.429 -6.445 6.053 0.122 42.786 27.924 -380.002 2028.329 -3851.441 -3.567 -1.969 -1.030 -0.03 0.49 -0.87 0.07
1 5.61 561 1.896 -7.810 6.029 -47.333 66.101 20.874 -380.002 2103.280 -3851.441 -2.076 -0.608 -1.015 -0.03 0.49 -0.87 0.07
1 5.62 562 0.019 -9.410 5.440 -46.051 75.104 10.590 -289.911 1818.315 -3761.500 -0.256 0.958 -0.484 -0.03 0.5 -0.86 0.07
1 5.63 563 -0.086 -8.888 5.651 -22.675 69.947 6.866 -289.911 1818.315 -3761.500 -0.214 0.400 -0.760 -0.02 0.5 -0.86 0.07
1 5.64 564 -0.302 -7.173 6.656 -1.678 65.003 2.319 -184.979 2133.260 -3776.490 -0.113 -1.339 -1.817 -0.01 0.5 -0.86 0.06
1 5.65 565 -0.919 -6.532 7.097 -3.998 61.737 -3.571 -184.979 2133.260 -3776.490 0.460 -1.975 -2.252 -0.01 0.5 -0.86 0.06
1 5.66 566 -1.302 -6.613 6.953 -10.773 57.434 -8.301 -274.921 2073.299 -3776.490 0.803 -1.887 -2.102 -0.01 0.5 -0.86 0.06
1 5.67 567 -1.604 -6.699 6.283 -10.712 50.629 -8.057 -274.921 2073.299 -3776.490 1.071 -1.799 -1.432 -0 0.5 -0.86 0.06
1 5.68 568 -1.609 -6.781 5.421 -4.639 39.795 1.526 -19.937 2088.290 -3836.451 1.042 -1.716 -0.571 0 0.5 -0.86 0.05
1 5.69 569 -1.125 -6.321 4.635 6.409 17.059 13.031 -19.937 2148.250 -3701.539 0.520 -2.172 0.217 0 0.5 -0.86 0.05
1 5.70 570 -0.474 -6.263 4.971 11.627 6.165 17.456 -19.937 2148.250 -3701.539 -0.160 -2.226 -0.115 0.01 0.5 -0.86 0.05
1 5.71 571 -0.144 -7.547 5.938 3.601 1.343 28.961 -140.009 1953.228 -3671.408 -0.546 -0.923 -1.057 0.01 0.5 -0.86 0.06
1 5.72 572 -0.292 -8.356 6.153 -7.050 2.747 37.323 -140.009 1953.228 -3671.408 -0.435 -0.105 -1.263 0.01 0.5 -0.86 0.06
1 5.73 573 -0.292 -8.557 6.058 -10.040 6.348 39.826 39.874 2028.329 -3716.529 -0.482 0.098 -1.171 0.01 0.5 -0.86 0.06
1 5.74 574 -0.393 -8.983 5.880 -7.782 5.524 34.790 39.874 2028.329 -3716.529 -0.432 0.525 -1.000 0.01 0.5 -0.86 0.06
1 5.75 575 -0.086 -9.630 6.038 -2.045 1.343 23.743 -34.927 1998.348 -3776.490 -0.778 1.172 -1.163 0.01 0.5 -0.86 0.06
1 5.76 576 0.948 -10.477 6.307 22.766 5.463 8.606 39.874 2073.299 -3776.490 -1.839 2.023 -1.431 0.01 0.5 -0.86 0.07
1 5.77 577 1.058 -9.912 6.168 44.281 11.017 2.380 39.874 2073.299 -3776.490 -1.964 1.473 -1.270 0.02 0.5 -0.86 0.07
1 5.78 578 0.991 -8.658 5.756 60.089 14.343 -5.615 39.874 2133.260 -3746.509 -1.908 0.248 -0.809 0.02 0.5 -0.86 0.07
1 5.79 579 0.613 -6.369 5.114 63.172 13.031 -16.846 189.626 2012.589 -3703.337 -1.514 -1.949 -0.012 0.02 0.49 -0.87 0.06
1 5.80 580 0.172 -5.373 4.554 50.324 9.857 -25.726 129.666 2087.690 -3868.230 -1.051 -2.899 0.627 0.02 0.49 -0.87 0.06
1 5.81 581 -0.034 -5.282 4.209 32.227 4.364 -35.065 129.666 2087.690 -3868.230 -0.814 -2.958 1.028 0.02 0.48 -0.87 0.06
1 5.82 582 0.067 -5.435 4.324 15.930 -2.136 -41.809 39.574 2102.680 -3928.341 -0.869 -2.787 0.948 0.02 0.48 -0.88 0.06
1 5.83 583 0.517 -6.115 4.477 2.533 -6.683 -45.929 99.535 1802.576 -3823.259 -1.260 -2.102 0.811 0.01 0.48 -0.88 0.05
1 5.84 584 0.737 -7.350 5.028 1.434 -5.280 -44.220 99.535 1802.576 -3823.259 -1.416 -0.869 0.266 0.01 0.48 -0.88 0.05
1 5.85 585 0.886 -8.275 5.339 3.693 -0.397 -38.757 -20.237 1967.618 -3808.269 -1.501 0.052 -0.043 0.01 0.48 -0.88 0.05
1 5.86 586 0.953 -8.730 5.138 8.301 9.064 -26.428 99.535 1997.599 -3928.341 -1.453 0.508 0.171 0.01 0.48 -0.88 0.04
1 5.87 587 0.828 -8.418 4.549 8.637 14.435 -17.578 159.646 2042.719 -3913.201 -1.293 0.200 0.768 0.01 0.48 -0.88 0.04
1 5.88 588 0.426 -8.117 4.013 6.653 15.045 -9.064 159.646 2042.719 -3913.201 -0.872 -0.100 1.310 0.01 0.48 -0.88 0.04
1 5.89 589 0.043 -7.791 3.678 4.852 10.407 -5.005 54.564 1967.618 -3988.302 -0.482 -0.426 1.646 0.01 0.48 -0.88 0.04
1 5.90 590 -0.048 -7.667 3.678 5.554 3.906 -3.693 129.666 1862.687 -3943.331 -0.390 -0.549 1.647 0.01 0.48 -0.88 0.03
1 5.91 591 0.493 -7.757 4.056 9.399 2.167 -3.021 129.666 1862.687 -3943.331 -0.927 -0.454 1.276 0.01 0.48 -0.88 0.03
1 5.92 592 0.699 -7.772 4.267 9.430 2.594 0.519 -95.188 1817.716 -3943.331 -1.129 -0.433 1.075 0.01 0.48 -0.88 0.03
1 5.93 593 1.144 -7.796 4.027 10.498 10.559 5.920 129.666 1817.716 -3913.201 -1.567 -0.399 1.331 0.01 0.48 -0.88 0.03
1 5.94 594 0.915 -7.480 3.500 10.284 13.794 8.606 84.545 1862.687 -3868.230 -1.342 -0.710 1.865 0.01 0.48 -0.88 0.03
1 5.95 595 1.044 -7.355 3.524 10.986 17.304 10.559 84.545 1862.687 -3868.230 -1.492 -0.826 1.853 0.01 0.47 -0.88 0.03
1 5.96 596 0.828 -7.154 3.309 9.308 20.691 9.979 129.666 1817.716 -3943.331 -1.303 -1.017 2.080 0.01 0.47 -0.88 0.03
1 5.97 597 0.848 -7.274 3.390 7.294 25.024 8.453 39.574 2027.579 -3958.321 -1.350 -0.890 2.007 0.01 0.47 -0.88 0.03
1 5.98 598 0.709 -7.791 3.227 7.904 29.266 4.059 39.574 2027.579 -3958.321 -1.240 -0.367 2.177 0.01 0.47 -0.88 0.03
1 5.99 599 0.776 -8.222 3.477 10.529 30.243 0.702 219.607 1877.677 -3853.240 -1.335 0.070 1.934 0.02 0.47 -0.88 0.03
1 6.00 600 0.833 -8.538 4.530 16.052 32.044 -4.639 189.626 1787.585 -4018.282 -1.429 0.397 0.893 0.02 0.47 -0.88 0.03
1 6.01 601 0.838 -8.471 4.985 16.846 34.424 -6.439 189.626 2012.589 -4018.282 -1.442 0.338 0.448 0.02 0.47 -0.88 0.03
1 6.02 602 -0.125 -8.117 4.904 14.282 38.757 -12.299 189.626 2012.589 -4018.282 -0.488 -0.007 0.543 0.02 0.47 -0.88 0.02
1 6.03 603 -0.666 -7.532 4.429 14.038 31.677 -19.013 264.578 1862.687 -3943.331 0.046 -0.583 1.029 0.03 0.47 -0.88 0.02
1 6.04 604 -0.690 -7.192 3.989 10.162 21.973 -23.499 309.548 1817.716 -3868.230 0.073 -0.915 1.482 0.03 0.47 -0.88 0.02
1 6.05 605 -0.575 -7.532 2.950 -3.632 18.127 -16.846 309.548 1817.716 -3868.230 -0.030 -0.571 2.529 0.03 0.47 -0.88 0.01
1 6.06 606 -0.570 -8.131 2.289 -13.550 14.893 -6.744 444.610 1817.716 -4093.233 -0.025 0.025 3.186 0.03 0.47 -0.88 0.01
1 6.07 607 -0.421 -8.533 2.356 -21.942 10.773 2.228 279.568 1697.644 -4003.292 -0.174 0.416 3.103 0.03 0.47 -0.88 0.01
1 6.08 608 -0.354 -8.888 6.378 -27.924 2.319 11.932 324.539 1922.647 -3958.321 -0.263 0.721 -0.996 0.03 0.47 -0.88 0.01
1 6.09 609 -1.561 -7.259 12.216 -30.579 1.648 4.364 324.539 1922.647 -3958.321 0.933 -0.932 -6.874 0.03 0.48 -0.88 0.01
1 6.10 610 -5.823 -9.501 10.746 -57.831 43.610 -55.969 264.877 1893.566 -4151.096 5.192 1.278 -5.451 0.03 0.48 -0.88 0.01
1 6.11 611 -5.756 -16.085 8.854 -79.682 -37.933 -81.574 369.959 1893.566 -4016.034 5.188 7.801 -3.649 0.03 0.48 -0.87 0
1 6.12 612 -1.590 -14.275 8.064 6.317 -53.772 -41.382 369.959 1893.566 -4016.034 1.165 5.935 -2.936 0.02 0.49 -0.87 0
1 6.13 613 -1.786 -10.482 6.939 3.387 -48.401 -21.820 399.939 1878.576 -4001.043 1.473 2.137 -1.810 -0.02 -0.49 0.87 0
1 6.14 614 -1.978 -7.576 5.943 -21.942 -57.892 -13.550 339.979 1893.566 -3866.131 1.738 -0.766 -0.805 -0.01 -0.49 0.87 0
1 6.15 615 0.666 -6.953 5.339 -62.012 -87.830 -17.700 -19.937 1968.518 -3836.151 -0.775 -1.433 -0.270 0.01 0.49 -0.87 0
1 6.16 616 1.844 -7.245 5.397 -60.517 -81.909 -35.492 -19.937 1968.518 -3836.151 -1.858 -1.190 -0.408 -0 0.5 -0.87 0
1 6.17 617 4.573 -9.046 4.875 -45.715 -70.740 -30.701 84.995 1938.537 -3986.053 -4.462 0.571 0.045 -0.01 0.5 -0.87 0
1 6.18 618 4.650 -8.797 6.814 -37.323 -35.553 -14.618 70.004 2073.599 -4031.024 -4.442 0.290 -1.952 -0.01 0.5 -0.86 0
1 6.19 619 3.362 -8.121 7.331 -23.682 -3.784 1.495 70.004 2073.599 -4031.024 -3.120 -0.411 -2.516 -0.02 0.5 -0.86 0
1 6.20 620 2.217 -7.192 8.045 -7.477 10.803 10.407 -34.927 2163.541 -4001.043 -1.978 -1.354 -3.256 -0.02 0.51 -0.86 0
1 6.21 621 1.571 -7.140 7.226 -11.810 20.050 11.169 -139.859 2163.541 -3956.073 -1.350 -1.414 -2.448 -0.02 0.51 -0.86 0
1 6.22 622 0.125 -7.963 5.392 -12.848 20.722 3.967 40.324 2029.078 -3849.792 0.060 -0.595 -0.620 -0.01 0.51 -0.86 0
1 6.23 623 -0.345 -8.227 5.071 2.777 11.475 -11.231 40.324 2029.078 -3849.792 0.518 -0.335 -0.305 -0.01 0.51 -0.86 0
1 6.24 624 -0.953 -8.155 5.282 22.858 3.693 -26.947 -34.478 2284.062 -3849.792 1.136 -0.400 -0.504 0.01 -0.51 0.86 0
1 6.25 625 -0.733 -7.499 5.440 35.034 4.730 -35.370 -94.588 2194.121 -3864.782 0.946 -1.033 -0.624 0.01 -0.5 0.86 0
1 6.26 626 -1.341 -6.814 5.492 27.832 3.265 -36.713 -94.588 2194.121 -3864.782 1.592 -1.688 -0.626 0.01 -0.5 0.87 0
1 6.27 627 -2.485 -7.101 5.569 -5.493 -10.345 -43.945 -139.559 2134.010 -3924.743 2.774 -1.378 -0.664 0.01 -0.5 0.87 0.01
1 6.28 628 -2.370 -9.098 5.627 -21.973 -24.292 -44.129 -34.478 2134.010 -3894.763 2.712 0.624 -0.716 0.01 -0.5 0.87 0.01
1 6.29 629 -2.217 -10.492 5.449 -23.560 -32.990 -32.440 -34.478 2134.010 -3894.763 2.613 2.009 -0.557 0.02 -0.5 0.87 0.01
1 6.30 630 -1.891 -9.726 4.712 8.209 -28.565 -6.531 -94.588 2149.000 -3864.782 2.412 1.220 0.128 0.02 -0.5 0.86 0.01
1 6.31 631 -1.504 -8.284 4.702 30.304 -23.224 11.536 -139.559 2134.010 -4029.825 2.049 -0.210 0.155 0.02 -0.5 0.86 0.01
1 6.32 632 -1.264 -6.910 4.798 34.973 -17.059 25.726 -229.500 2224.101 -3984.704 1.791 -1.563 0.098 0.02 -0.5 0.87 0.01
1 6.33 633 -0.872 -5.943 4.865 21.362 -15.167 35.614 -229.500 2224.101 -3984.704 1.368 -2.508 0.073 0.02 -0.5 0.87 0.01
1 6.34 634 -0.259 -5.818 5.119 -14.008 -12.634 41.535 -259.481 2269.072 -3864.782 0.721 -2.623 -0.162 0.02 -0.5 0.87 0.01
1 6.35 635 -0.182 -6.359 5.334 -30.335 -10.895 41.779 -184.530 2209.111 -3924.743 0.603 -2.091 -0.389 0.02 -0.5 0.87 0
1 6.36 636 -0.345 -7.547 5.449 -32.440 -9.003 41.870 -184.530 2209.111 -3924.743 0.722 -0.926 -0.539 -0.02 0.5 -0.87 0
1 6.37 637 -0.852 -8.399 5.435 -10.407 -9.613 41.748 -214.510 2163.990 -3954.724 1.133 -0.120 -0.598 -0.02 0.5 -0.86 0.01
1 6.38 638 -1.015 -8.026 4.918 9.674 -8.362 37.079 -259.481 2224.101 -4014.834 1.244 -0.496 -0.084 -0.02 0.5 -0.86 0.01
1 6.39 639 -0.905 -7.379 4.841 13.458 -12.817 28.107 -109.579 2284.062 -3924.743 1.087 -1.134 0.009 -0.02 0.5 -0.86 0.01
1 6.40 640 -0.493 -6.747 4.616 -1.587 -15.961 18.158 -109.579 2284.062 -3924.743 0.645 -1.758 0.251 -0.02 0.5 -0.86 0.02
1 6.41 641 -0.081 -6.675 4.453 -23.163 -16.327 11.597 -214.510 2074.049 -3924.743 0.226 -1.835 0.403 -0.02 0.5 -0.86 0.02
1 6.42 642 0.024 -8.035 4.324 -36.774 -9.979 9.094 -184.530 2134.010 -4029.825 0.120 -0.496 0.496 -0.02 0.5 -0.86 0.02
1 6.43 643 -0.129 -9.141 4.295 -21.484 -6.104 10.834 -184.530 2134.010 -4029.825 0.271 0.583 0.477 -0.02 0.51 -0.86 0.02
1 6.44 644 -0.646 -9.577 4.678 15.900 -10.101 15.900 -319.442 2314.042 -3999.694 0.766 0.993 0.049 -0.02 0.51 -0.86 0.02
1 6.45 645 -0.618 -9.026 4.923 33.203 -12.451 15.442 -214.510 2314.042 -3849.792 0.720 0.455 -0.172 -0.02 0.51 -0.86 0.02
1 6.46 646 -0.527 -8.112 4.875 35.553 -14.526 16.480 -259.481 2194.121 -4014.834 0.614 -0.435 -0.080 -0.02 0.5 -0.86 0.02
1 6.47 647 -0.369 -7.532 4.683 28.961 -14.587 16.449 -259.481 2194.121 -4014.834 0.442 -0.989 0.156 -0.02 0.5 -0.86 0.03
1 6.48 648 -0.455 -7.025 4.281 20.416 -12.665 14.038 -259.481 2194.121 -3864.782 0.517 -1.476 0.595 -0.02 0.5 -0.86 0.03
1 6.49 649 -0.555 -7.034 3.989 11.414 -10.315 6.561 -319.442 2134.010 -3849.792 0.611 -1.452 0.912 -0.02 0.5 -0.87 0.03
1 6.50 650 -0.661 -7.188 3.840 6.805 -8.637 0.916 -319.442 2134.010 -3849.792 0.716 -1.290 1.076 -0.02 0.5 -0.87 0.03
1 6.51 651 -0.886 -7.710 3.946 0.214 -6.683 -5.524 -334.582 2119.020 -4044.815 0.958 -0.759 0.985 -0.02 0.5 -0.87 0.03
1 6.52 652 -1.044 -8.050 4.042 -3.296 -5.096 -8.270 -259.481 2119.020 -3909.753 1.131 -0.420 0.888 -0.02 0.5 -0.87 0.03
1 6.53 653 -1.216 -8.342 3.984 -6.592 -7.446 -9.827 -214.510 2163.990 -4104.776 1.313 -0.133 0.937 -0.02 0.5 -0.87 0.03
1 6.54 654 -1.097 -8.548 3.716 -10.132 -8.331 -8.911 -214.510 2163.990 -4104.776 1.204 0.065 1.191 -0.02 0.5 -0.87 0.03
1 6.55 655 -1.053 -8.672 3.903 -14.679 -10.559 -8.362 -334.582 2269.072 -3939.733 1.172 0.177 0.983 -0.02 0.5 -0.87 0.03
1 6.56 656 -0.924 -9.424 3.979 -17.426 -13.123 -7.721 -214.510 2104.029 -3999.694 1.054 0.914 0.880 -0.03 0.5 -0.86 0.03
1 6.57 657 -1.010 -9.960 4.037 -14.069 -17.029 -8.575 -214.510 2104.029 -3999.694 1.153 1.434 0.792 -0.03 0.5 -0.86 0.03
1 6.58 658 -0.972 -10.430 4.224 -7.416 -21.729 -9.705 -379.553 2239.091 -3849.792 1.130 1.887 0.577 -0.03 0.5 -0.86 0.03
1 6.59 659 -0.824 -10.884 4.889 4.761 -25.879 -6.348 -319.442 2284.062 -4059.805 1.042 2.335 -0.104 -0.03 0.5 -0.86 0.03
1 6.60 660 -0.733 -10.679 4.913 12.512 -25.665 -3.693 -319.442 2284.062 -3924.743 0.979 2.134 -0.120 -0.03 0.5 -0.86 0.03
1 6.61 661 -0.584 -10.386 4.784 21.362 -27.893 -1.373 -319.442 2284.062 -3924.743 0.856 1.853 0.027 -0.03 0.5 -0.86 0.03
1 6.62 662 -0.474 -10.099 4.827 26.978 -27.557 -1.404 -319.442 2209.111 -3999.694 0.770 1.583 0.013 -0.04 0.5 -0.86 0.03
1 6.63 663 -0.034 -9.568 4.271 28.229 -24.231 -0.916 -349.572 2209.111 -4104.776 0.353 1.072 0.603 -0.04 0.5 -0.86 0.03
1 6.64 664 0.091 -9.290 3.601 25.635 -21.088 -0.336 -349.572 2209.111 -4104.776 0.248 0.813 1.305 -0.04 0.5 -0.87 0.03
1 6.65 665 0.225 -9.208 3.352 22.217 -17.914 -0.549 -364.562 2149.000 -3939.733 0.130 0.747 1.580 -0.04 0.5 -0.87 0.04
1 6.66 666 0.464 -9.189 5.258 24.780 -9.705 1.434 -379.553 2284.062 -4134.756 -0.084 0.749 -0.293 -0.04 0.49 -0.87 0.04
1 6.67 667 0.862 -8.730 7.801 31.189 -8.759 4.669 -439.514 2089.039 -4089.786 -0.476 0.307 -2.805 -0.04 0.49 -0.87 0.04
1 6.68 668 3.682 -11.301 6.963 -39.673 -50.049 35.889 -439.514 2089.039 -4089.786 -3.293 2.893 -1.943 -0.04 0.49 -0.87 0.04
1 6.69 669 5.368 -13.949 9.888 -98.908 -19.165 69.306 -379.553 2074.049 -4134.756 -5.000 5.490 -4.954 -0.05 0.5 -0.87 0.04
1 6.70 670 4.358 -13.092 6.541 -14.679 38.361 67.536 -424.523 2134.010 -3924.743 -4.079 4.567 -1.715 -0.04 0.5 -0.86 0.05
1 6.71 671 3.472 -9.568 4.492 51.666 30.701 42.023 -424.523 2134.010 -3924.743 -3.303 1.044 0.342 -0.04 0.5 -0.86 0.05
1 6.72 672 3.697 -6.637 5.425 40.192 41.321 32.410 -409.533 2344.023 -4119.766 -3.611 -1.851 -0.528 -0.03 0.5 -0.86 0.05
1 6.73 673 1.274 -6.996 5.670 -34.210 77.973 14.099 -289.461 2194.121 -4149.747 -1.296 -1.449 -0.698 -0.03 0.5 -0.87 0.05
1 6.74 674 -0.426 -8.447 5.569 -50.171 84.442 4.547 -409.533 2149.000 -4194.717 0.344 -0.023 -0.640 -0.02 0.5 -0.87 0.05
1 6.75 675 -1.116 -9.414 5.109 -41.382 88.074 -1.160 -409.533 2149.000 -4194.717 0.969 0.910 -0.241 -0.02 0.5 -0.86 0.04
1 6.76 676 -1.518 -9.098 5.627 -26.062 85.511 1.190 -199.520 2044.068 -4149.747 1.303 0.566 -0.810 -0.01 0.5 -0.86 0.04
1 6.77 677 -2.581 -8.390 6.307 -13.519 80.872 0.488 -259.481 2269.072 -4119.766 2.299 -0.159 -1.523 -0.01 0.51 -0.86 0.04
1 6.78 678 -4.042 -7.513 6.642 -2.136 61.890 -8.667 -259.481 2269.072 -4119.766 3.705 -1.044 -1.877 -0 0.51 -0.86 0.03
1 6.79 679 -4.305 -7.178 6.172 1.343 40.619 -14.343 40.324 2284.062 -4104.776 3.931 -1.382 -1.416 0 0.51 -0.86 0.03
1 6.80 680 -3.046 -6.493 5.363 8.118 6.042 -10.620 -49.468 2299.052 -3984.704 2.617 -2.053 -0.587 0.01 0.51 -0.86 0.03
1 6.81 681 -2.476 -6.287 5.172 8.820 -2.960 -8.026 -4.497 2163.990 -4029.825 2.038 -2.247 -0.375 0.01 0.51 -0.86 0.03
1 6.82 682 -0.867 -5.320 4.942 11.139 -17.670 -1.465 -4.497 2163.990 -4029.825 0.444 -3.207 -0.131 0.01 0.5 -0.86 0.03
1 6.83 683 0.134 -5.282 4.836 9.094 -20.783 2.075 10.343 2224.101 -4194.717 -0.541 -3.238 -0.011 0.01 0.5 -0.86 0.03
1 6.84 684 0.958 -6.144 5.100 2.228 -21.698 12.360 70.304 2239.091 -4059.805 -1.352 -2.371 -0.263 0.01 0.5 -0.86 0.03
1 6.85 685 1.628 -7.087 5.655 -7.660 -11.444 35.889 70.304 2239.091 -4059.805 -2.026 -1.426 -0.818 0.01 0.5 -0.86 0.03
1 6.86 686 1.887 -8.284 6.067 -12.482 -3.601 48.828 -34.478 2284.062 -4104.776 -2.314 -0.233 -1.238 0.01 0.5 -0.86 0.03
1 6.87 687 2.045 -9.802 6.522 -9.430 -2.167 57.373 -34.478 2284.062 -4104.776 -2.510 1.284 -1.698 0.01 0.5 -0.86 0.04
1 6.88 688 2.227 -11.555 6.848 7.233 2.289 54.962 -19.487 2269.072 -4119.766 -2.826 3.038 -2.037 0.01 0.5 -0.86 0.04
1 6.89 689 1.801 -11.402 6.474 30.548 13.306 42.694 -19.487 2269.072 -4119.766 -2.470 2.898 -1.649 0.01 0.5 -0.86 0.05
1 6.90 690 1.231 -9.984 5.909 59.052 24.109 24.902 -79.448 2314.042 -4179.727 -1.961 1.513 -1.036 0.01 0.5 -0.86 0.05
1 6.91 691 0.603 -8.117 5.339 76.844 23.102 6.683 -79.448 2284.062 -4059.805 -1.376 -0.304 -0.386 0.02 0.5 -0.87 0.05
1 6.92 692 -0.134 -5.880 4.947 64.087 9.766 -14.771 -79.448 2284.062 -4059.805 -0.645 -2.481 0.105 0.02 0.49 -0.87 0.05
1 6.93 693 -0.354 -5.263 4.587 42.328 5.493 -23.254 70.304 2209.111 -4209.708 -0.414 -3.046 0.553 0.02 0.49 -0.87 0.05
1 6.94 694 -0.316 -5.473 4.171 23.193 2.594 -28.839 70.304 2209.111 -4209.708 -0.429 -2.800 1.030 0.02 0.48 -0.87 0.05
1 6.95 695 -0.215 -6.101 4.247 12.238 -1.404 -32.013 130.265 2194.121 -4119.766 -0.496 -2.154 0.987 0.02 0.48 -0.87 0.04
1 6.96 696 0.254 -7.236 5.018 3.296 -5.035 -32.257 265.777 2195.170 -4146.149 -0.877 -1.008 0.244 0.01 0.48 -0.88 0.04
1 6.97 697 0.493 -7.896 5.521 1.312 -3.418 -28.809 175.835 2075.248 -4281.211 -1.071 -0.348 -0.255 0.01 0.48 -0.88 0.04
1 6.98 698 0.704 -8.390 5.770 0.977 0.061 -22.888 10.793 2120.219 -4221.100 -1.237 0.144 -0.500 0.01 0.48 -0.88 0.04
1 6.99 699 0.804 -8.514 5.507 2.136 3.906 -16.510 10.793 2120.219 -4221.100 -1.301 0.269 -0.234 0.01 0.48 -0.88 0.03
1 7.00 700 0.785 -8.303 4.745 5.493 8.392 -10.010 10.793 2120.219 -4221.100 -1.255 0.059 0.532 0.01 0.48 -0.88 0.03
1 7.01 701 0.905 -8.236 4.295 8.789 7.629 -6.866 10.793 2120.219 -4221.100 -1.356 -0.006 0.986 0.01 0.48 -0.88 0.03
1 7.02 702 0.915 -7.896 4.185 15.717 4.639 -4.486 40.773 2105.229 -4236.090 -1.339 -0.339 1.111 0.01 0.48 -0.88 0.03
1 7.03 703 0.876 -7.748 4.300 19.104 2.441 -4.730 40.773 2105.229 -4236.090 -1.287 -0.478 1.011 0.01 0.48 -0.88 0.03
1 7.04 704 0.876 -7.485 4.396 20.111 1.312 -5.341 160.845 2120.219 -4116.168 -1.272 -0.729 0.935 0.01 0.48 -0.88 0.03
1 7.05 705 1.015 -7.504 4.386 18.616 1.984 -5.890 40.773 2000.297 -4281.211 -1.398 -0.695 0.968 0.01 0.48 -0.88 0.03
1 7.06 706 1.097 -7.456 4.520 18.127 5.493 -4.639 40.773 2000.297 -4281.211 -1.473 -0.729 0.857 0.01 0.47 -0.88 0.03
1 7.07 707 1.202 -7.303 4.113 17.883 12.970 -1.221 55.764 1895.215 -4146.149 -1.576 -0.867 1.286 0.01 0.47 -0.88 0.02
1 7.08 708 1.063 -7.207 4.003 17.395 18.555 1.801 55.764 1895.215 -4146.149 -1.443 -0.949 1.417 0.01 0.47 -0.88 0.02
1 7.09 709 0.833 -7.116 3.946 15.900 21.271 2.655 40.773 1850.245 -4311.191 -1.227 -1.025 1.495 0.01 0.47 -0.88 0.02
1 7.10 710 0.541 -7.020 3.965 10.559 23.132 3.082 -19.038 2015.287 -4296.201 -0.975 -1.096 1.510 0.01 0.47 -0.88 0.02
1 7.11 711 0.546 -7.269 3.783 6.683 24.078 4.272 100.734 1925.196 -4311.191 -1.002 -0.839 1.702 0.02 0.47 -0.88 0.02
1 7.12 712 0.661 -7.528 3.510 3.906 21.637 3.693 145.705 2000.297 -4341.172 -1.140 -0.576 1.980 0.02 0.47 -0.88 0.02
1 7.13 713 0.895 -7.786 3.606 2.869 20.447 7.324 145.705 2000.297 -4341.172 -1.397 -0.314 1.887 0.02 0.47 -0.88 0.02
1 7.14 714 1.130 -7.949 3.912 -0.549 27.985 11.597 85.744 1895.215 -4296.201 -1.658 -0.149 1.582 0.02 0.47 -0.88 0.02
1 7.15 715 0.685 -8.208 3.941 -2.258 33.569 12.329 85.744 1895.215 -4296.201 -1.241 0.108 1.547 0.02 0.47 -0.88 0.02
1 7.16 716 0.474 -8.414 4.276 -3.143 35.278 8.606 265.777 1970.167 -4401.133 -1.059 0.307 1.199 0.02 0.47 -0.88 0.02
1 7.17 717 0.120 -8.193 4.693 -3.632 32.135 -0.336 250.787 2000.297 -4311.191 -0.762 0.071 0.753 0.03 0.47 -0.88 0.02
1 7.18 718 -0.259 -8.121 4.616 -0.885 25.757 -8.850 235.796 2090.238 -4401.133 -0.399 -0.007 0.818 0.03 0.47 -0.88 0.01
1 7.19 719 -0.450 -7.681 4.597 4.303 22.766 -16.785 130.715 2015.287 -4326.182 -0.209 -0.452 0.831 0.03 0.47 -0.88 0.01
1 7.20 720 -0.776 -7.901 4.166 4.364 20.111 -19.653 130.715 2015.287 -4326.182 0.123 -0.233 1.261 0.03 0.47 -0.88 0.01
1 7.21 721 -0.963 -7.801 3.601 -0.488 17.639 -16.327 310.748 1865.235 -4266.221 0.318 -0.336 1.823 0.03 0.47 -0.88 0.01
1 7.22 722 -0.948 -8.208 2.988 -11.597 10.559 -8.423 310.748 1865.235 -4266.221 0.309 0.064 2.427 0.03 0.47 -0.88 0.01
1 7.23 723 -0.814 -8.835 2.557 -17.426 7.568 -2.594 340.728 2120.219 -4371.152 0.178 0.679 2.839 0.03 0.47 -0.88 0.01
1 7.24 724 -0.259 -9.903 3.577 -19.409 -0.732 2.563 340.728 2015.287 -4326.182 -0.382 1.700 1.747 0.03 0.48 -0.88 0.01
1 7.25 725 0.177 -10.080 6.785 -11.963 -6.928 5.951 265.777 1940.186 -4326.182 -0.817 1.852 -1.501 0.03 0.48 -0.88 0.01
1 7.26 726 -0.608 -9.323 10.554 -6.683 -1.831 -0.122 355.718 1955.176 -4416.123 -0.031 1.087 -5.282 0.03 0.48 -0.88 0.01
1 7.27 727 -3.582 -9.989 10.626 -26.642 13.947 -31.067 355.718 1955.176 -4416.123 2.950 1.744 -5.367 0.03 0.48 -0.88 0.01
1 7.28 728 -4.123 -13.145 8.567 -44.464 -17.151 -55.451 310.748 2045.268 -4371.152 3.537 4.869 -3.351 0.03 0.48 -0.88 0
1 7.29 729 -0.718 -11.531 7.638 5.829 -39.124 -25.299 310.748 2045.268 -4371.152 0.223 3.220 -2.469 -0.03 -0.49 0.87 0
1 7.30 730 -1.307 -9.189 6.445 2.411 -24.384 -16.541 325.738 2165.189 -4386.143 0.887 0.873 -1.278 -0.03 -0.49 0.87 0
1 7.31 731 -1.255 -7.422 6.402 -58.991 -48.645 -25.513 175.835 2165.189 -4311.191 0.925 -0.910 -1.254 -0.02 -0.49 0.87 0
1 7.32 732 0.776 -8.217 6.034 -79.224 -67.291 -36.469 235.796 2015.287 -4401.133 -1.034 -0.162 -0.958 -0.02 -0.49 0.87 0
1 7.33 733 2.184 -9.290 5.856 -65.705 -64.118 -44.464 235.796 2090.238 -4371.152 -2.335 0.854 -0.871 -0.01 -0.5 0.87 0
1 7.34 734 3.295 -10.377 5.718 -38.605 -45.532 -43.732 235.796 2090.238 -4371.152 -3.332 1.896 -0.807 -0 -0.5 0.87 0
1 7.35 735 3.117 -9.491 6.819 -10.193 -20.111 -23.316 100.734 2285.261 -4341.172 -3.073 0.987 -1.949 0 -0.5 0.87 0
1 7.36 736 2.361 -7.571 7.518 5.585 3.906 -3.052 100.734 2285.261 -4341.172 -2.280 -0.938 -2.656 0 -0.5 0.86 0.01
1 7.37 737 2.174 -6.532 7.173 -0.549 7.568 3.204 55.764 2225.300 -4296.201 -2.085 -1.973 -2.305 0 -0.5 0.87 0.01
1 7.38 738 1.733 -5.981 6.330 -9.583 13.702 3.632 -79.148 2240.291 -4281.211 -1.642 -2.517 -1.450 0 -0.5 0.87 0.01
1 7.39 739 0.292 -6.235 4.961 -4.334 24.078 -8.026 -124.119 2300.251 -4221.100 -0.204 -2.261 -0.076 0 -0.5 0.87 0.01
1 7.40 740 -0.527 -6.512 4.511 8.789 23.926 -19.531 -94.139 2345.222 -4191.120 0.612 -1.984 0.372 -0 -0.5 0.87 0.01
1 7.41 741 -1.293 -6.867 4.741 16.480 17.456 -31.250 -94.139 2345.222 -4191.120 1.393 -1.621 0.157 -0 -0.5 0.87 0.01
1 7.42 742 -1.872 -6.867 5.339 16.815 7.874 -43.976 -34.028 2315.242 -4311.191 2.007 -1.608 -0.419 -0 -0.5 0.87 0.01
1 7.43 743 -2.164 -7.030 6.024 -1.740 -8.850 -56.824 -34.028 2315.242 -4311.191 2.350 -1.431 -1.081 0 -0.5 0.87 0.02
1 7.44 744 -2.749 -9.156 6.268 -18.127 -19.440 -59.021 -124.119 2300.251 -4191.120 2.994 0.704 -1.313 0 -0.5 0.87 0.02
1 7.45 745 -2.639 -11.373 6.105 -23.956 -25.787 -46.784 -34.028 2210.160 -4236.090 2.953 2.918 -1.161 0 -0.5 0.87 0.02
1 7.46 746 -1.781 -11.631 5.191 3.052 -21.088 -13.886 -49.018 2420.173 -4146.149 2.245 3.149 -0.304 0.01 -0.5 0.87 0.03
1 7.47 747 -1.504 -9.587 4.549 37.354 -13.550 8.667 -124.119 2420.173 -4191.120 1.993 1.114 0.352 0.01 -0.5 0.87 0.03
1 7.48 748 -1.518 -7.542 4.439 51.544 -11.200 24.048 -124.119 2420.173 -4191.120 1.994 -0.902 0.513 0.01 -0.5 0.87 0.03
1 7.49 749 -1.326 -6.335 4.722 35.980 -12.116 33.875 -227.252 2302.200 -4260.375 1.763 -2.074 0.291 0.01 -0.49 0.87 0.02
1 7.50 750 -0.910 -5.971 5.114 8.606 -14.435 39.398 -227.252 2302.200 -4260.375 1.312 -2.418 -0.065 0.01 -0.49 0.87 0.02
1 7.51 751 -0.326 -6.546 5.172 -24.841 -19.196 44.129 -107.330 2167.288 -4230.394 0.688 -1.845 -0.121 0.01 -0.49 0.87 0.02
1 7.52 752 -0.043 -7.518 5.492 -27.008 -20.294 42.206 -317.343 2287.210 -4335.476 0.365 -0.891 -0.471 0.01 -0.49 0.87 0.01
1 7.53 753 0.034 -8.323 5.512 -2.991 -10.651 41.107 -122.320 2302.200 -4260.375 0.209 -0.122 -0.545 0.01 -0.5 0.87 0.01
1 7.54 754 -0.412 -7.968 5.081 18.341 -3.784 39.734 -47.369 2452.252 -4290.505 0.608 -0.473 -0.106 0.01 -0.5 0.87 0
1 7.55 755 -0.915 -7.322 4.774 26.215 -3.571 37.262 -47.369 2452.252 -4290.505 1.062 -1.103 0.230 0.01 -0.49 0.87 0
1 7.56 756 -1.030 -6.522 4.616 16.815 -6.897 30.579 -92.340 2452.252 -4260.375 1.132 -1.884 0.421 -0.01 0.49 -0.87 0
1 7.57 757 -0.795 -6.220 4.425 -5.493 -11.108 21.027 -92.340 2452.252 -4260.375 0.869 -2.177 0.627 -0.01 0.49 -0.87 0
1 7.58 758 -0.321 -6.982 4.166 -31.464 -11.078 11.200 -272.373 2392.292 -4125.462 0.382 -1.424 0.872 -0.01 0.49 -0.87 0.01
1 7.59 759 -0.441 -7.973 4.262 -30.396 -7.111 9.155 -107.330 2362.161 -4305.495 0.496 -0.455 0.738 -0.01 0.49 -0.87 0.01
1 7.60 760 -0.872 -9.232 4.367 -2.716 -3.693 8.972 -107.330 2362.161 -4275.365 0.911 0.763 0.563 -0.01 0.5 -0.87 0.01
1 7.61 761 -1.188 -9.309 4.501 7.538 -5.066 8.392 -77.350 2467.243 -4230.394 1.214 0.838 0.426 -0.01 0.5 -0.87 0.01
1 7.62 762 -1.762 -8.983 4.568 24.567 -10.529 4.334 -77.350 2467.243 -4230.394 1.778 0.524 0.379 -0.01 0.5 -0.87 0.01
1 7.63 763 -1.863 -8.346 4.353 22.980 -15.625 1.068 -32.379 2467.243 -4230.394 1.871 -0.097 0.621 -0.01 0.5 -0.87 0.01
1 7.64 764 -1.777 -7.892 3.975 19.745 -22.797 -1.556 -32.379 2467.243 -4230.394 1.786 -0.538 1.025 -0.01 0.49 -0.87 0.01
1 7.65 765 -1.403 -7.394 3.630 18.189 -29.450 -5.768 -197.271 2377.301 -4260.375 1.422 -1.023 1.391 -0.01 0.49 -0.87 0.01
1 7.66 766 -1.173 -7.192 3.654 15.869 -30.914 -8.057 -167.291 2272.220 -4110.472 1.222 -1.210 1.390 -0.01 0.49 -0.87 0.01
1 7.67 767 -0.828 -6.948 3.639 11.444 -30.396 -10.223 -167.291 2272.220 -4110.472 0.912 -1.441 1.425 -0.01 0.49 -0.87 0.01
1 7.68 768 -0.469 -7.111 3.678 2.411 -26.520 -10.162 -242.392 2317.190 -4275.365 0.629 -1.263 1.410 -0.02 0.49 -0.87 0.01
1 7.69 769 -0.474 -7.403 3.654 -2.258 -23.834 -8.301 -242.392 2317.190 -4275.365 0.668 -0.970 1.435 -0.02 0.49 -0.87 0.01
1 7.70 770 -0.421 -7.681 3.524 -6.226 -22.430 -3.326 -347.324 2437.262 -4095.482 0.644 -0.695 1.558 -0.02 0.49 -0.87 0.02
1 7.71 771 -0.388 -8.064 3.678 -8.026 -21.027 0.244 -347.324 2437.262 -4095.482 0.632 -0.317 1.396 -0.02 0.49 -0.87 0.02
1 7.72 772 -0.508 -8.816 3.730 -9.399 -22.095 4.181 -212.262 2317.190 -4095.482 0.767 0.426 1.328 -0.02 0.49 -0.87 0.02
1 7.73 773 -0.579 -9.285 4.152 -9.155 -22.095 4.395 -497.376 2242.239 -4410.427 0.848 0.884 0.887 -0.03 0.49 -0.87 0.02
1 7.74 774 -0.670 -9.754 4.315 -10.040 -22.614 2.991 -497.376 2242.239 -4410.427 0.946 1.340 0.702 -0.03 0.49 -0.87 0.02
1 7.75 775 -0.800 -10.492 4.664 -6.989 -24.658 0.092 -332.333 2347.171 -4215.404 1.097 2.055 0.313 -0.03 0.5 -0.87 0.02
1 7.76 776 -1.015 -11.047 4.559 0.122 -26.703 0.336 -332.333 2347.171 -4215.404 1.333 2.606 0.410 -0.03 0.5 -0.87 0.02
1 7.77 777 -1.010 -11.358 4.602 10.712 -28.259 -0.580 -317.343 2467.243 -4050.361 1.351 2.919 0.368 -0.03 0.5 -0.87 0.02
1 7.78 778 -0.919 -11.081 4.664 18.738 -32.166 -2.289 -317.343 2467.243 -4050.361 1.285 2.651 0.321 -0.04 0.49 -0.87 0.02
1 7.79 779 -0.412 -10.741 4.554 22.308 -35.492 -0.580 -287.363 2377.301 -4215.404 0.808 2.327 0.455 -0.04 0.49 -0.87 0.03
1 7.80 780 0.417 -10.372 4.559 21.942 -30.609 8.789 -317.343 2467.243 -4380.446 0.007 1.975 0.476 -0.04 0.49 -0.87 0.03
1 7.81 781 0.278 -9.999 4.291 22.186 -22.217 15.167 -317.343 2467.243 -4380.446 0.164 1.618 0.770 -0.04 0.49 -0.87 0.03
1 7.82 782 0.570 -9.108 3.400 26.306 -15.533 14.954 -527.356 2392.292 -4170.433 -0.130 0.759 1.712 -0.04 0.49 -0.87 0.03
1 7.83 783 0.675 -8.835 3.151 25.391 -14.923 8.270 -527.356 2392.292 -4170.433 -0.238 0.498 1.982 -0.04 0.49 -0.87 0.03
1 7.84 784 0.618 -8.595 3.773 22.827 -15.137 1.617 -452.255 2392.292 -4170.433 -0.173 0.270 1.377 -0.04 0.48 -0.87 0.03
1 7.85 785 1.188 -8.289 8.562 26.489 -12.878 -0.519 -452.255 2392.292 -4170.433 -0.728 -0.025 -3.394 -0.05 0.48 -0.87 0.03
1 7.86 786 3.606 -10.276 6.742 -26.856 -49.469 29.480 -332.333 2452.252 -4140.453 -3.133 1.980 -1.548 -0.05 0.48 -0.87 0.04
1 7.87 787 5.588 -14.754 10.731 -92.804 8.240 85.785 -452.255 2512.213 -4275.365 -5.127 6.410 -5.611 -0.05 0.49 -0.87 0.04
1 7.88 788 3.151 -12.910 5.258 11.658 35.675 62.165 -452.255 2512.213 -4275.365 -2.785 4.481 -0.272 -0.05 0.49 -0.87 0.05
1 7.89 789 3.409 -9.754 5.267 44.434 19.592 39.581 -497.376 2392.292 -4305.495 -3.160 1.313 -0.296 -0.04 0.49 -0.87 0.05
1 7.90 790 3.433 -5.670 6.666 9.613 46.112 25.696 -542.347 2377.301 -4140.453 -3.301 -2.709 -1.585 -0.04 0.49 -0.87 0.05
1 7.91 791 2.054 -7.604 6.474 -51.392 65.399 29.511 -332.333 2452.252 -4185.423 -1.967 -0.770 -1.385 -0.03 0.49 -0.87 0.05
1 7.92 792 0.158 -9.074 6.503 -76.081 90.332 30.609 -332.333 2452.252 -4185.423 -0.145 0.660 -1.478 -0.03 0.49 -0.87 0.05
1 7.93 793 -1.058 -9.050 5.449 -66.773 102.875 27.039 -332.333 2422.272 -4185.423 0.962 0.579 -0.524 -0.02 0.5 -0.87 0.05
1 7.94 794 -1.978 -7.590 5.516 -28.046 82.398 14.771 -197.271 2527.204 -4185.423 1.771 -0.926 -0.671 -0.01 0.5 -0.86 0.05
1 7.95 795 -2.653 -6.819 6.187 -9.644 62.042 6.744 -197.271 2527.204 -4185.423 2.350 -1.720 -1.388 -0.01 0.51 -0.86 0.04
1 7.96 796 -2.978 -6.172 6.814 -0.885 48.126 2.686 -167.291 2497.223 -4110.472 2.603 -2.371 -2.028 -0 0.51 -0.86 0.04
1 7.97 797 -2.854 -6.316 6.340 3.113 32.562 8.057 -137.311 2617.295 -4200.414 2.366 -2.207 -1.528 0.01 0.5 -0.86 0.04
1 7.98 798 -1.987 -6.120 5.641 3.693 16.693 15.076 -16.339 2723.126 -4074.795 1.448 -2.390 -0.811 0.01 0.5 -0.86 0.04
1 7.99 799 -1.183 -5.651 4.856 9.308 1.617 16.388 -16.339 2723.126 -4074.795 0.608 -2.850 -0.014 0.01 0.5 -0.86 0.04
1 8.00 800 -0.230 -5.569 4.702 11.932 -6.866 16.724 -1.349 2692.996 -4119.916 -0.364 -2.923 0.153 0.01 0.5 -0.86 0.04
1 8.01 801 0.383 -6.570 5.402 6.592 -10.925 23.590 -31.330 2543.093 -4044.815 -0.992 -1.912 -0.531 0.01 0.5 -0.86 0.04
1 8.02 802 0.943 -8.993 6.876 -10.529 -3.418 43.640 -31.330 2543.093 -4044.815 -1.577 0.516 -2.001 0.01 0.5 -0.86 0.05
1 8.03 803 0.900 -10.295 7.264 -12.543 4.547 52.948 88.592 2648.025 -4029.825 -1.569 1.821 -2.388 0.01 0.5 -0.86 0.05
1 8.04 804 0.742 -11.301 6.546 -2.838 1.587 37.811 -46.320 2453.002 -4134.906 -1.544 2.820 -1.701 0.02 0.5 -0.86 0.05
1 8.05 805 1.130 -10.760 5.914 21.423 -0.153 15.747 73.602 2513.113 -4269.818 -1.973 2.285 -1.066 0.02 0.5 -0.86 0.06
1 8.06 806 1.513 -9.539 5.746 51.453 2.808 -2.838 73.602 2513.113 -4269.818 -2.368 1.086 -0.861 0.02 0.5 -0.86 0.06
1 8.07 807 1.753 -8.131 5.880 68.787 9.430 -13.825 43.622 2543.093 -4164.887 -2.602 -0.279 -0.922 0.02 0.5 -0.87 0.06
1 8.08 808 1.580 -6.848 5.540 67.169 15.656 -16.602 73.602 2543.093 -4164.887 -2.398 -1.511 -0.490 0.02 0.49 -0.87 0.05
1 8.09 809 1.058 -5.454 4.985 42.786 21.332 -24.536 73.602 2543.093 -4164.887 -1.848 -2.854 0.152 0.02 0.49 -0.87 0.05
1 8.10 810 0.666 -5.497 4.578 27.832 18.097 -33.173 -31.330 2588.064 -3984.854 -1.442 -2.777 0.616 0.02 0.48 -0.87 0.05
1 8.11 811 0.867 -6.172 4.947 17.059 7.690 -45.746 -31.330 2393.041 -4089.936 -1.574 -2.068 0.310 0.02 0.48 -0.88 0.04
1 8.12 812 0.872 -6.603 5.334 14.710 4.730 -51.056 148.553 2363.061 -4194.867 -1.524 -1.629 -0.058 0.02 0.48 -0.88 0.04
1 8.13 813 1.006 -7.101 5.837 10.162 4.700 -51.300 148.553 2363.061 -4194.867 -1.595 -1.125 -0.544 0.01 0.48 -0.88 0.04
1 8.14 814 0.991 -7.432 6.067 3.143 6.073 -48.340 149.153 2289.159 -4116.168 -1.508 -0.788 -0.757 0.01 0.48 -0.88 0.03
1 8.15 815 1.197 -8.050 6.091 1.526 11.078 -41.382 149.153 2289.159 -4161.139 -1.648 -0.168 -0.771 0.01 0.48 -0.88 0.03
1 8.16 816 0.991 -8.265 5.492 9.766 21.454 -27.496 149.153 2289.159 -4161.139 -1.390 0.049 -0.165 0.01 0.48 -0.88 0.03
1 8.17 817 0.824 -7.844 4.856 15.015 24.689 -18.890 -75.701 2364.260 -4041.217 -1.189 -0.367 0.482 0.01 0.48 -0.88 0.02
1 8.18 818 0.747 -7.576 4.578 16.602 23.956 -15.259 -90.691 2229.198 -4176.279 -1.094 -0.625 0.776 0.01 0.48 -0.88 0.02
1 8.19 819 0.752 -7.331 4.295 15.259 18.646 -13.184 134.163 2229.198 -3891.165 -1.083 -0.847 1.094 0.01 0.47 -0.88 0.02
1 8.20 820 0.872 -7.470 4.276 14.801 15.900 -13.977 134.163 2229.198 -3891.165 -1.199 -0.697 1.130 0.01 0.47 -0.88 0.01
1 8.21 821 0.958 -7.580 4.415 17.639 17.792 -12.573 -0.600 2319.139 -4161.139 -1.280 -0.574 1.011 0.01 0.47 -0.88 0.01
1 8.22 822 1.173 -7.403 4.453 19.165 20.355 -8.728 -45.720 2199.217 -4026.227 -1.495 -0.737 0.994 0.01 0.47 -0.88 0.01
1 8.23 823 0.953 -7.207 4.334 19.104 24.536 -3.906 -45.720 2199.217 -4026.227 -1.277 -0.919 1.135 0.01 0.47 -0.88 0.01
1 8.24 824 0.886 -6.886 4.109 12.848 27.222 0.214 74.202 2109.126 -4191.270 -1.225 -1.225 1.381 0.01 0.47 -0.88 0.01
1 8.25 825 0.848 -6.867 4.046 6.592 27.588 1.190 -105.681 2364.260 -4161.139 -1.207 -1.232 1.459 0.02 0.47 -0.88 0.01
1 8.26 826 0.838 -7.288 4.065 2.380 27.771 3.601 14.241 2229.198 -4281.211 -1.245 -0.801 1.452 0.02 0.47 -0.88 0.01
1 8.27 827 0.733 -7.667 4.152 1.099 30.731 5.554 14.241 2229.198 -4281.211 -1.167 -0.421 1.366 0.02 0.47 -0.88 0.01
1 8.28 828 0.527 -7.973 4.204 -1.221 34.058 5.798 44.221 2139.256 -4191.270 -0.993 -0.114 1.311 0.02 0.47 -0.88 0.01
1 8.29 829 0.555 -8.265 4.300 -0.366 35.584 5.096 179.133 2169.237 -4086.188 -1.053 0.175 1.208 0.03 0.47 -0.88 0
1 8.30 830 0.441 -8.466 4.674 3.082 36.224 5.035 179.133 2169.237 -4086.188 -0.965 0.371 0.825 0.03 0.47 -0.88 0
1 8.31 831 0.024 -7.868 4.966 4.852 40.253 3.723 44.221 2214.208 -4191.270 -0.577 -0.229 0.528 0.03 0.47 -0.88 0
1 8.32 832 -0.594 -7.786 4.779 4.822 38.574 0.488 179.133 2289.159 -4266.221 0.010 -0.308 0.715 0.03 0.47 -0.88 0
1 8.33 833 -0.704 -7.231 4.803 6.928 32.623 -4.272 149.153 2079.146 -4161.139 0.066 -0.859 0.692 -0.04 -0.47 0.88 0
1 8.34 834 -0.977 -7.255 4.841 4.211 32.898 -5.127 149.153 2079.146 -4161.139 0.318 -0.831 0.657 -0.04 -0.47 0.88 0
1 8.35 835 -1.149 -7.068 4.382 -1.068 30.243 -4.639 404.137 2169.237 -4116.168 0.471 -1.016 1.116 -0.04 -0.47 0.88 0
1 8.36 836 -1.365 -7.374 3.831 -8.575 27.649 -4.150 254.234 2214.208 -4086.188 0.669 -0.713 1.660 -0.04 -0.47 0.88 0.01
1 8.37 837 -1.494 -8.097 3.275 -12.756 23.865 -1.221 254.234 2214.208 -4086.188 0.782 0.001 2.200 -0.05 -0.47 0.88 0.01
1 8.38 838 -1.192 -9.630 2.835 -16.022 14.526 5.005 314.195 2124.116 -4071.198 0.461 1.519 2.616 -0.05 -0.47 0.88 0.01
1 8.39 839 -0.675 -10.520 3.529 -14.374 14.465 13.245 329.186 2169.237 -4266.221 -0.078 2.387 1.885 -0.05 -0.47 0.88 0.01
1 8.40 840 -0.053 -11.244 4.281 0.092 19.745 27.130 404.137 2169.237 -4086.188 -0.764 3.081 1.081 -0.05 -0.47 0.88 0.01
1 8.41 841 -0.005 -10.382 7.125 16.907 19.348 33.783 404.137 2169.237 -4086.188 -0.863 2.226 -1.761 -0.05 -0.47 0.88 0.01
1 8.42 842 -1.030 -7.863 11.095 29.297 27.496 27.985 524.208 2229.198 -3996.247 0.105 -0.271 -5.707 -0.06 -0.47 0.88 0
1 8.43 843 -5.636 -8.088 9.180 -1.129 35.065 -21.973 344.176 2154.247 -4131.159 4.665 -0.023 -3.766 -0.06 -0.47 0.88 0
1 8.44 844 -4.774 -10.501 7.614 -18.555 -25.757 -51.270 344.176 2154.247 -4131.159 3.827 2.376 -2.217 -0.06 -0.47 0.88 0.01
1 8.45 845 -1.437 -8.078 6.034 17.609 -22.003 -23.316 344.176 2229.198 -4131.159 0.579 -0.062 -0.645 -0.05 -0.47 0.88 0.01
1 8.46 846 -1.810 -5.866 5.085 -4.425 -21.423 -16.693 344.176 2124.116 -4206.260 1.012 -2.265 0.326 -0.05 -0.47 0.88 0.01
1 8.47 847 -1.805 -6.149 5.799 -50.354 -36.377 -22.949 344.176 2124.116 -4206.260 1.044 -1.981 -0.379 -0.05 -0.47 0.88 0.01
1 8.48 848 0.287 -8.481 6.029 -72.937 -53.955 -33.539 434.117 2139.256 -4161.139 -0.920 0.258 -0.734 -0.04 -0.48 0.88 0.01
1 8.49 849 0.977 -9.649 6.172 -58.319 -60.974 -36.591 314.195 2094.136 -4101.178 -1.515 1.371 -0.954 -0.04 -0.48 0.88 0.01
1 8.50 850 1.561 -9.366 7.561 -51.026 -57.800 -30.426 134.163 2274.168 -4101.178 -2.003 1.042 -2.409 -0.03 -0.49 0.87 0.01
1 8.51 851 1.551 -8.940 8.299 -56.030 -36.987 -19.592 134.163 2274.168 -4101.178 -1.915 0.573 -3.210 -0.03 -0.49 0.87 0.01
1 8.52 852 0.675 -8.107 7.614 -48.187 -12.787 -4.242 134.163 2304.149 -3921.146 -0.991 -0.306 -2.598 -0.02 -0.49 0.87 0.01
1 8.53 853 0.354 -7.901 6.512 -25.574 -11.627 -5.371 74.202 2364.260 -4041.217 -0.649 -0.552 -1.563 -0.02 -0.5 0.87 0.01
1 8.54 854 0.326 -8.165 5.718 -4.913 -16.724 -7.721 74.202 2364.260 -4041.217 -0.601 -0.309 -0.802 -0.02 -0.5 0.87 0.01
1 8.55 855 0.206 -8.610 6.230 7.538 -15.015 -5.493 134.163 2349.120 -3996.247 -0.425 0.140 -1.306 -0.02 -0.5 0.87 0.01
1 8.56 856 -0.148 -8.160 6.924 7.477 -8.850 -0.824 89.192 2454.201 -3996.247 -0.049 -0.301 -1.983 -0.02 -0.5 0.87 0.01
1 8.57 857 -0.666 -7.135 6.814 3.693 -3.174 1.251 -30.730 2289.159 -3981.256 0.477 -1.315 -1.854 -0.02 -0.5 0.87 0.01
1 8.58 858 -1.322 -6.359 6.393 -2.197 -3.082 -1.068 -30.730 2289.159 -3981.256 1.132 -2.081 -1.416 -0.02 -0.5 0.87 0.01
1 8.59 859 -1.901 -6.393 5.598 -6.897 -7.782 -5.219 74.202 2394.240 -3831.204 1.711 -2.041 -0.610 -0.02 -0.5 0.87 0.01
1 8.60 860 -2.701 -7.365 5.358 -4.181 -21.759 -13.825 -15.590 2304.149 -3816.214 2.528 -1.074 -0.380 -0.02 -0.5 0.87 0.01
1 8.61 861 -3.084 -8.112 5.622 1.495 -29.816 -12.756 -15.590 2304.149 -3816.214 2.926 -0.327 -0.641 -0.01 -0.5 0.87 0.01
1 8.62 862 -3.012 -8.686 5.794 3.571 -38.208 -0.671 -90.691 2424.221 -3891.165 2.892 0.256 -0.798 -0.01 -0.49 0.87 0.01
1 8.63 863 -2.806 -8.653 6.005 3.082 -39.459 5.035 14.241 2304.149 -3921.146 2.704 0.226 -1.003 -0.01 -0.49 0.87 0.01
1 8.64 864 -2.265 -8.308 5.698 -0.793 -38.056 22.827 -0.600 2319.139 -3801.224 2.167 -0.116 -0.692 -0.01 -0.49 0.87 0
1 8.65 865 -1.978 -8.112 5.483 -4.272 -38.422 33.325 -0.600 2319.139 -3801.224 1.861 -0.311 -0.474 0.01 0.49 -0.87 0
1 8.66 866 -1.801 -7.858 5.315 -4.425 -39.154 39.948 -120.671 2274.168 -3846.194 1.656 -0.564 -0.307 0.01 0.49 -0.87 0.01
1 8.67 867 -1.604 -7.485 5.263 -4.303 -45.258 44.891 -105.681 2439.211 -3936.136 1.425 -0.938 -0.256 0 0.49 -0.87 0.01
1 8.68 868 -1.350 -7.528 5.497 -6.073 -48.706 45.746 -105.681 2439.211 -3936.136 1.137 -0.895 -0.492 0 0.49 -0.87 0.01
1 8.69 869 -0.910 -7.561 5.809 -7.996 -49.805 44.953 -165.642 2379.250 -4026.227 0.666 -0.861 -0.804 0 0.49 -0.87 0.02
1 8.70 870 -0.833 -8.165 5.876 -9.522 -50.690 45.197 -180.632 2469.191 -3876.175 0.540 -0.259 -0.876 -0 0.49 -0.87 0.03
1 8.71 871 -0.967 -8.212 5.789 -8.942 -49.744 46.723 -105.681 2439.211 -3906.155 0.651 -0.213 -0.793 -0 0.5 -0.87 0.04
1 8.72 872 -0.958 -8.088 5.660 -7.294 -48.401 46.143 -105.681 2439.211 -3906.155 0.617 -0.338 -0.667 -0 0.5 -0.87 0.04
1 8.73 873 -0.929 -7.992 5.502 -6.287 -47.363 44.525 -45.720 2574.123 -3891.165 0.563 -0.434 -0.511 -0 0.5 -0.87 0.05
1 8.74 874 -0.958 -8.074 5.253 -8.209 -46.784 43.518 -225.603 2454.201 -3816.214 0.568 -0.352 -0.264 -0.01 0.5 -0.87 0.05
1 8.75 875 -0.709 -8.088 5.181 -10.071 -46.936 42.175 -225.603 2454.201 -3816.214 0.296 -0.340 -0.197 -0.01 0.5 -0.87 0.06
1 8.76 876 -0.680 -8.169 4.889 -6.836 -48.401 41.107 -375.206 2244.638 -3875.275 0.247 -0.262 0.088 -0.01 0.5 -0.87 0.06
1 8.77 877 -0.517 -8.179 4.813 4.517 -50.781 37.262 -195.173 2574.573 -3785.184 0.054 -0.253 0.161 -0.01 0.5 -0.87 0.07
1 8.78 878 -0.196 -7.935 4.932 10.590 -50.018 34.668 -255.284 2424.521 -3785.184 -0.274 -0.490 0.052 -0.01 0.5 -0.87 0.07
1 8.79 879 -0.120 -7.820 4.971 11.047 -47.852 33.020 -255.284 2424.521 -3785.184 -0.354 -0.593 0.033 -0.02 0.49 -0.87 0.08
1 8.80 880 -0.239 -7.628 4.827 7.690 -44.739 30.396 -315.245 2544.592 -3755.204 -0.236 -0.774 0.195 -0.02 0.49 -0.87 0.08
1 8.81 881 -0.244 -7.762 4.789 2.136 -43.793 27.191 -330.235 2454.651 -3740.213 -0.232 -0.632 0.246 -0.02 0.49 -0.87 0.09
1 8.82 882 -0.297 -7.796 4.755 2.716 -42.450 24.292 -330.235 2454.651 -3740.213 -0.179 -0.594 0.288 -0.02 0.49 -0.87 0.09
1 8.83 883 -0.335 -7.801 4.956 2.777 -41.504 22.705 -360.215 2454.651 -3815.165 -0.137 -0.585 0.093 -0.02 0.49 -0.87 0.09
1 8.84 884 -0.441 -7.580 5.014 -0.214 -37.872 20.844 -375.206 2469.641 -3800.174 -0.021 -0.798 0.049 -0.03 0.49 -0.87 0.1
1 8.85 885 -0.685 -7.662 5.176 -6.744 -39.154 19.653 -285.264 2499.622 -3890.266 0.228 -0.716 -0.112 -0.03 0.49 -0.86 0.1
1 8.86 886 -1.192 -7.772 5.062 -12.878 -40.527 20.233 -285.264 2499.622 -3890.266 0.742 -0.609 -0.002 -0.03 0.49 -0.86 0.1
1 8.87 887 -1.580 -8.256 4.736 -12.329 -43.152 19.013 -510.268 2604.553 -3920.246 1.133 -0.133 0.311 -0.03 0.49 -0.86 0.11
1 8.88 888 -1.820 -8.366 4.511 -8.575 -49.622 18.707 -405.186 2304.599 -3815.165 1.376 -0.031 0.523 -0.04 0.49 -0.86 0.11
1 8.89 889 -1.781 -8.643 4.573 2.228 -58.960 18.341 -405.186 2304.599 -3815.165 1.344 0.241 0.452 -0.04 0.49 -0.86 0.11
1 8.90 890 -1.441 -8.533 4.659 6.470 -64.606 20.355 -630.189 2439.511 -3830.155 1.016 0.130 0.365 -0.04 0.49 -0.86 0.12
1 8.91 891 -1.140 -8.289 4.635 8.606 -67.475 23.346 -630.189 2439.511 -3830.155 0.729 -0.111 0.396 -0.05 0.49 -0.86 0.12
1 8.92 892 -0.939 -8.318 4.564 5.188 -67.993 29.572 -585.219 2424.521 -3815.165 0.560 -0.070 0.490 -0.05 0.49 -0.86 0.13
1 8.93 893 -0.790 -8.318 4.602 3.967 -68.115 33.417 -585.219 2424.521 -3815.165 0.423 -0.066 0.459 -0.06 0.49 -0.86 0.14
1 8.94 894 -0.551 -8.418 4.674 4.272 -66.864 36.743 -645.180 2379.550 -3680.252 0.191 0.038 0.394 -0.06 0.49 -0.86 0.14
1 8.95 895 -0.421 -8.399 4.741 3.479 -65.552 38.941 -705.291 2589.563 -3650.272 0.065 0.022 0.333 -0.06 0.49 -0.86 0.15
1 8.96 896 -0.369 -8.730 4.769 -0.275 -64.484 40.833 -705.291 2589.563 -3650.272 0.014 0.355 0.309 -0.06 0.49 -0.86 0.15
1 8.97 897 -0.388 -8.730 4.784 -2.045 -66.345 40.131 -793.883 2500.371 -3812.916 0.033 0.356 0.295 -0.07 0.49 -0.86 0.16
1 8.98 898 -0.670 -8.768 4.659 -1.343 -67.932 38.086 -793.883 2500.371 -3812.916 0.317 0.393 0.418 -0.07 0.49 -0.86 0.16
1 8.99 899 -0.828 -8.931 4.501 2.197 -74.158 34.088 -868.834 2455.400 -3737.815 0.486 0.554 0.573 -0.08 0.48 -0.85 0.17
1 9.00 900 -1.063 -9.031 4.564 4.456 -77.210 32.745 -868.834 2455.400 -3737.815 0.734 0.655 0.513 -0.08 0.48 -0.85 0.18
1 9.01 901 -1.154 -9.189 4.774 7.172 -79.712 33.203 -778.893 2545.342 -3587.913 0.840 0.816 0.308 -0.08 0.48 -0.85 0.18
1 9.02 902 -1.173 -9.141 4.559 8.423 -81.879 34.424 -883.824 2545.342 -3692.844 0.873 0.772 0.531 -0.09 0.48 -0.85 0.19
1 9.03 903 -1.312 -9.247 4.712 9.155 -83.618 37.018 -883.824 2545.342 -3692.844 1.026 0.882 0.387 -0.09 0.48 -0.85 0.19
1 9.04 904 -1.264 -9.146 4.463 7.996 -86.121 40.985 -898.814 2500.371 -3677.854 0.990 0.787 0.645 -0.1 0.48 -0.85 0.2
1 9.05 905 -1.307 -8.974 4.391 6.805 -87.281 43.610 -898.814 2500.371 -3677.854 1.043 0.620 0.726 -0.1 0.48 -0.85 0.2
1 9.06 906 -1.010 -8.926 4.295 2.716 -89.905 45.868 -913.805 2320.338 -3512.812 0.760 0.577 0.831 -0.11 0.48 -0.85 0.22
1 9.07 907 -1.130 -8.878 4.171 0.336 -91.492 46.051 -913.805 2320.338 -3512.812 0.888 0.528 0.954 -0.11 0.48 -0.84 0.22
1 9.08 908 -1.106 -8.940 4.113 0.122 -94.605 45.288 -1078.847 2455.400 -3737.815 0.873 0.588 1.008 -0.12 0.47 -0.84 0.23
1 9.09 909 -0.828 -9.026 4.224 1.038 -96.955 45.715 -1048.867 2530.352 -3677.854 0.607 0.672 0.894 -0.12 0.47 -0.84 0.24
1 9.10 910 -0.895 -8.964 4.147 1.221 -96.924 47.363 -1048.867 2530.352 -3677.854 0.687 0.608 0.968 -0.12 0.47 -0.84 0.24
1 9.11 911 -0.924 -9.117 3.788 2.075 -94.422 49.469 -1316.892 2516.261 -3645.775 0.727 0.758 1.324 -0.13 0.47 -0.84 0.25
1 9.12 912 -1.183 -9.007 3.692 4.486 -94.879 50.263 -1316.892 2516.261 -3645.775 0.993 0.645 1.415 -0.13 0.47 -0.83 0.26
1 9.13 913 -1.413 -8.921 3.405 4.089 -96.436 49.286 -1152.000 2456.150 -3495.723 1.234 0.556 1.698 -0.14 0.47 -0.83 0.27
1 9.14 914 -1.829 -9.070 3.227 3.021 -99.182 48.676 -1152.000 2456.150 -3495.723 1.655 0.702 1.871 -0.15 0.47 -0.83 0.28
1 9.15 915 -1.829 -8.945 3.318 4.517 -101.868 48.493 -1346.873 2471.140 -3585.664 1.660 0.574 1.775 -0.15 0.47 -0.82 0.28
1 9.16 916 -2.045 -9.060 3.386 8.728 -106.934 47.302 -1346.873 2591.212 -3330.680 1.883 0.687 1.705 -0.15 0.47 -0.82 0.29
1 9.17 917 -2.050 -9.319 3.788 9.979 -115.143 48.676 -1346.873 2591.212 -3330.680 1.899 0.947 1.305 -0.16 0.46 -0.82 0.3
1 9.18 918 -0.953 -9.706 4.338 4.303 -131.348 55.451 -1256.931 2426.169 -3315.690 0.818 1.337 0.758 -0.16 0.46 -0.82 0.3
1 9.19 919 0.254 -9.888 5.162 4.761 -135.987 71.503 -1256.931 2426.169 -3315.690 -0.366 1.517 -0.068 -0.17 0.46 -0.81 0.31
1 9.20 920 1.786 -10.181 6.699 1.984 -135.254 100.190 -1481.935 2576.222 -3270.719 -1.883 1.816 -1.594 -0.18 0.45 -0.81 0.33
1 9.21 921 2.461 -10.430 7.111 -1.495 -133.027 106.751 -1481.935 2576.222 -3270.719 -2.584 2.066 -2.004 -0.19 0.45 -0.8 0.34
1 9.22 922 4.525 -10.602 7.207 -1.404 -129.334 121.460 -1646.977 2546.241 -3330.680 -4.694 2.238 -2.102 -0.19 0.45 -0.8 0.35
1 9.23 923 6.134 -10.209 7.542 12.878 -120.850 118.195 -1602.006 2771.245 -3330.680 -6.357 1.850 -2.432 -0.19 0.45 -0.79 0.37
1 9.24 924 7.619 -10.070 7.801 26.001 -100.434 115.784 -1602.006 2771.245 -3330.680 -7.898 1.729 -2.664 -0.2 0.45 -0.79 0.38
1 9.25 925 6.632 -9.022 7.274 24.689 -48.920 111.145 -1616.847 2606.202 -3165.638 -6.985 0.707 -2.099 -0.2 0.44 -0.78 0.39
1 9.26 926 4.147 -7.829 6.081 25.238 -25.848 103.089 -1616.847 2606.202 -3165.638 -4.594 -0.458 -0.870 -0.2 0.44 -0.78 0.4
1 9.27 927 1.767 -7.082 5.469 25.177 -24.384 85.205 -1586.866 2801.225 -3030.726 -2.323 -1.177 -0.223 -0.19 0.44 -0.78 0.4
1 9.28 928 -0.512 -7.183 5.617 23.193 -31.891 56.763 -1736.918 2681.303 -3030.726 -0.161 -1.020 -0.297 -0.19 0.44 -0.77 0.42
1 9.29 929 -1.844 -7.968 5.861 30.762 -32.562 40.894 -1616.847 2606.202 -3030.726 1.132 -0.207 -0.505 -0.19 0.44 -0.77 0.42
1 9.30 930 -2.753 -8.648 5.742 39.185 -41.748 26.886 -1661.967 2726.274 -3105.677 2.019 0.506 -0.337 -0.19 0.43 -0.77 0.43
1 9.31 931 -2.873 -9.070 5.933 50.873 -59.998 16.998 -1661.967 2726.274 -3105.677 2.135 0.966 -0.471 -0.19 0.43 -0.77 0.43
1 9.32 932 -1.949 -8.476 5.679 69.855 -76.233 12.451 -1526.905 2696.293 -3150.647 1.247 0.420 -0.143 -0.19 0.43 -0.77 0.43
1 9.33 933 -1.274 -7.906 5.531 69.855 -84.442 19.165 -1526.905 2696.293 -3150.647 0.616 -0.092 0.095 -0.19 0.42 -0.77 0.44
1 9.34 934 -0.479 -6.953 5.176 58.380 -90.332 29.358 -1751.909 2666.313 -3120.667 -0.135 -0.982 0.541 -0.2 0.41 -0.77 0.44
1 9.35 935 0.335 -6.254 4.654 38.056 -92.469 43.183 -1781.889 2666.313 -3150.647 -0.865 -1.580 1.210 -0.2 0.4 -0.77 0.45
1 9.36 936 0.646 -6.134 4.310 26.398 -94.422 47.608 -1796.879 2606.202 -2955.625 -1.144 -1.665 1.604 -0.2 0.4 -0.77 0.46
1 9.37 937 0.852 -6.201 4.444 18.402 -97.657 48.798 -1796.879 2531.251 -3135.657 -1.319 -1.572 1.505 -0.21 0.39 -0.77 0.47
1 9.38 938 1.006 -6.685 4.626 13.916 -102.204 48.950 -1796.879 2531.251 -3135.657 -1.439 -1.070 1.350 -0.21 0.39 -0.76 0.47
1 9.39 939 1.384 -7.207 4.899 11.627 -104.889 49.164 -1781.889 2516.261 -3120.667 -1.779 -0.533 1.099 -0.22 0.38 -0.76 0.48
1 9.40 940 1.733 -8.083 5.253 15.778 -101.807 53.833 -1781.889 2516.261 -3120.667 -2.089 0.356 0.764 -0.22 0.38 -0.76 0.48
1 9.41 941 1.753 -8.399 5.392 20.722 -95.703 60.364 -1826.860 2546.241 -3015.735 -2.060 0.685 0.644 -0.22 0.38 -0.75 0.49
1 9.42 942 1.523 -8.045 5.282 27.344 -88.532 70.099 -1976.912 2606.202 -2985.755 -1.768 0.366 0.802 -0.23 0.37 -0.75 0.5
1 9.43 943 1.341 -7.930 5.263 27.832 -89.112 72.235 -1916.951 2576.222 -2880.673 -1.572 0.275 0.852 -0.23 0.36 -0.74 0.51
1 9.44 944 1.101 -7.700 5.200 27.313 -95.429 74.707 -1946.932 2501.271 -2925.644 -1.320 0.069 0.944 -0.24 0.36 -0.74 0.52
1 9.45 945 1.068 -7.643 5.334 26.550 -98.297 77.271 -1946.932 2501.271 -2925.644 -1.272 0.035 0.840 -0.24 0.36 -0.74 0.52
1 9.46 946 0.848 -7.695 5.416 25.665 -100.037 79.743 -1961.922 2666.313 -2835.703 -1.038 0.111 0.788 -0.24 0.35 -0.73 0.53
1 9.47 947 0.833 -7.422 5.373 25.269 -101.746 84.168 -1961.922 2666.313 -2835.703 -1.012 -0.138 0.860 -0.25 0.35 -0.73 0.54
1 9.48 948 0.565 -7.317 5.296 23.224 -104.493 85.236 -2067.003 2696.293 -2790.732 -0.735 -0.221 0.965 -0.25 0.34 -0.72 0.55
1 9.49 949 0.479 -7.168 5.157 18.341 -108.094 85.724 -2126.964 2681.303 -2820.712 -0.639 -0.347 1.130 -0.25 0.34 -0.72 0.55
1 9.50 950 0.503 -7.164 5.124 9.338 -116.639 84.717 -2096.984 2801.225 -2775.742 -0.636 -0.323 1.198 -0.26 0.33 -0.71 0.57
1 9.51 951 0.575 -7.532 5.095 5.066 -121.949 84.412 -2186.925 2846.196 -2730.771 -0.689 0.055 1.239 -0.26 0.33 -0.7 0.58
1 9.52 952 0.881 -7.628 5.191 4.211 -124.573 84.381 -2186.925 2846.196 -2730.771 -0.967 0.152 1.144 -0.27 0.32 -0.69 0.58
1 9.53 953 1.173 -7.690 5.368 4.181 -126.618 83.618 -2111.974 2891.167 -2730.771 -1.226 0.214 0.967 -0.27 0.32 -0.69 0.59
1 9.54 954 1.537 -8.136 5.583 7.141 -127.625 84.168 -2111.974 2891.167 -2730.771 -1.553 0.659 0.752 -0.28 0.32 -0.68 0.6
1 9.55 955 1.891 -8.097 5.564 11.231 -125.977 86.640 -2186.925 2846.196 -2475.787 -1.866 0.622 0.772 -0.28 0.31 -0.67 0.61
1 9.56 956 2.054 -8.203 5.631 14.160 -122.589 89.173 -2111.974 2771.245 -2550.738 -1.991 0.731 0.710 -0.29 0.31 -0.67 0.61
1 9.57 957 1.968 -7.925 5.526 17.120 -119.080 90.210 -2217.056 2921.297 -2475.787 -1.840 0.471 0.835 -0.3 0.3 -0.66 0.63
1 9.58 958 2.112 -7.762 5.253 18.280 -119.385 89.051 -2232.046 2831.206 -2280.764 -1.955 0.319 1.119 -0.3 0.29 -0.65 0.64
1 9.59 959 1.858 -7.676 5.277 17.944 -119.599 89.417 -2233.545 2831.206 -2281.364 -1.670 0.243 1.106 -0.3 0.29 -0.64 0.64
1 9.60 960 1.891 -7.542 5.358 15.411 -118.195 89.295 -2188.574 2921.147 -2326.334 -1.675 0.118 1.035 -0.31 0.28 -0.64 0.65
1 9.61 961 1.695 -7.552 5.325 12.451 -116.883 90.912 -2188.574 2921.147 -2326.334 -1.451 0.135 1.076 -0.31 0.28 -0.63 0.66
1 9.62 962 1.777 -7.360 5.334 9.033 -113.251 92.804 -2188.574 2996.098 -2266.374 -1.509 -0.053 1.070 -0.31 0.27 -0.62 0.66
1 9.63 963 1.714 -7.513 5.473 8.301 -111.512 93.598 -2158.594 3176.131 -2281.364 -1.428 0.102 0.933 -0.32 0.27 -0.61 0.67
1 9.64 964 1.777 -7.839 5.536 6.348 -109.864 94.910 -2293.506 3116.170 -2191.272 -1.460 0.428 0.869 -0.32 0.26 -0.6 0.68
1 9.65 965 1.915 -7.973 5.536 5.402 -109.009 95.703 -2203.564 3101.180 -2101.331 -1.587 0.558 0.864 -0.33 0.26 -0.59 0.69
1 9.66 966 2.045 -8.064 5.378 7.874 -107.849 95.917 -2203.564 3101.180 -2101.331 -1.705 0.646 1.017 -0.33 0.25 -0.58 0.7
1 9.67 967 2.131 -8.131 5.483 10.986 -106.903 95.398 -2187.225 3370.854 -2086.041 -1.781 0.711 0.909 -0.33 0.25 -0.58 0.7
1 9.68 968 2.294 -8.232 5.454 10.864 -106.018 95.368 -2187.225 3370.854 -2086.041 -1.933 0.811 0.937 -0.34 0.24 -0.57 0.71
1 9.69 969 2.461 -8.121 5.526 8.789 -100.678 95.063 -2127.264 3325.883 -2071.051 -2.091 0.700 0.863 -0.34 0.24 -0.56 0.71
1 9.70 970 2.567 -8.131 5.516 9.430 -96.985 95.093 -2142.254 3220.952 -1906.008 -2.189 0.708 0.871 -0.34 0.24 -0.55 0.72
1 9.71 971 2.351 -7.858 5.588 12.024 -95.215 94.544 -2142.254 3220.952 -1906.008 -1.969 0.434 0.797 -0.35 0.23 -0.55 0.73
1 9.72 972 2.251 -7.609 5.435 10.010 -93.262 93.415 -2067.303 3445.955 -1755.956 -1.863 0.188 0.954 -0.35 0.23 -0.53 0.74
1 9.73 973 2.184 -7.638 5.344 6.653 -91.095 93.537 -2067.303 3445.955 -1755.956 -1.796 0.216 1.044 -0.35 0.22 -0.52 0.74
1 9.74 974 2.342 -7.657 5.368 3.876 -89.356 94.635 -2097.284 3550.887 -1785.937 -1.956 0.231 1.015 -0.36 0.22 -0.52 0.75
1 9.75 975 2.394 -7.801 5.373 2.655 -86.396 96.588 -2097.284 3550.887 -1785.937 -2.014 0.369 1.004 -0.36 0.22 -0.51 0.75
1 9.76 976 2.418 -7.676 5.311 5.859 -80.963 101.166 -1947.231 3580.867 -1681.005 -2.049 0.237 1.059 -0.36 0.21 -0.5 0.76
1 9.77 977 2.452 -7.604 5.416 5.981 -77.759 103.089 -1917.251 3505.916 -1605.904 -2.100 0.161 0.949 -0.36 0.21 -0.49 0.76
1 9.78 978 2.528 -7.609 5.545 3.754 -74.799 103.730 -1917.251 3505.916 -1605.904 -2.199 0.163 0.817 -0.36 0.21 -0.48 0.77
1 9.79 979 2.844 -7.872 5.995 2.380 -69.062 105.011 -1827.160 3670.958 -1470.992 -2.572 0.417 0.359 -0.37 0.2 -0.47 0.78
1 9.80 980 2.686 -7.839 6.201 3.204 -63.294 103.730 -1827.160 3670.958 -1470.992 -2.448 0.379 0.150 -0.37 0.2 -0.46 0.78
1 9.81 981 2.591 -7.930 6.383 0.580 -60.120 99.732 -1917.251 3655.968 -1560.933 -2.389 0.467 -0.034 -0.37 0.2 -0.45 0.79
1 9.82 982 2.188 -8.174 6.168 0.610 -58.716 94.178 -1917.251 3655.968 -1560.933 -2.021 0.708 0.178 -0.37 0.2 -0.45 0.79
1 9.83 983 2.140 -8.088 6.043 5.524 -55.481 89.569 -1752.208 3640.828 -1620.894 -2.005 0.619 0.300 -0.37 0.2 -0.44 0.79
1 9.84 984 1.911 -7.197 5.933 9.216 -52.612 85.022 -1617.146 3775.890 -1530.953 -1.807 -0.270 0.412 -0.37 0.19 -0.43 0.8
1 9.85 985 1.829 -6.666 6.058 5.859 -50.720 79.468 -1617.146 3775.890 -1530.953 -1.756 -0.797 0.294 -0.37 0.19 -0.43 0.8
1 9.86 986 1.590 -6.752 6.038 -2.960 -48.615 72.357 -1617.146 3850.841 -1635.884 -1.545 -0.704 0.321 -0.37 0.19 -0.42 0.81
1 9.87 987 1.432 -7.504 6.278 -12.177 -44.495 63.477 -1496.925 3895.662 -1545.943 -1.428 0.040 0.072 -0.37 0.19 -0.41 0.81
1 9.88 988 1.250 -7.872 6.417 -11.993 -42.084 57.770 -1436.964 3925.643 -1500.972 -1.262 0.396 -0.081 -0.38 0.19 -0.4 0.81
1 9.89 989 0.910 -8.059 6.709 -8.209 -40.863 50.537 -1436.964 3925.643 -1500.972 -0.934 0.572 -0.386 -0.38 0.19 -0.4 0.81
1 9.90 990 0.694 -7.757 6.771 -3.601 -41.474 42.359 -1421.824 3865.532 -1410.881 -0.725 0.262 -0.458 -0.38 0.18 -0.39 0.82
1 9.91 991 0.613 -7.288 6.699 -3.448 -41.992 27.466 -1481.935 3925.643 -1350.920 -0.642 -0.209 -0.388 -0.38 0.18 -0.39 0.82
1 9.92 992 0.464 -7.231 6.398 -6.928 -41.474 20.416 -1481.935 3925.643 -1350.920 -0.480 -0.268 -0.089 -0.38 0.18 -0.39 0.82
1 9.93 993 -0.096 -7.437 5.722 -10.559 -39.581 15.869 -1406.833 4030.574 -1425.871 0.125 -0.075 0.571 -0.38 0.18 -0.38 0.82
1 9.94 994 -0.077 -7.494 5.478 -8.820 -38.483 16.327 -1406.833 4030.574 -1425.871 0.125 -0.029 0.802 -0.39 0.17 -0.38 0.82
1 9.95 995 -0.488 -7.777 5.483 -4.913 -37.232 18.158 -1346.873 4015.584 -1335.930 0.553 0.242 0.783 -0.39 0.17 -0.38 0.82
1 9.96 996 -0.828 -8.006 5.684 -3.204 -36.926 15.900 -1346.873 4015.584 -1335.930 0.906 0.463 0.572 -0.39 0.17 -0.37 0.82
1 9.97 997 -0.986 -8.165 6.005 -0.031 -39.124 12.726 -1331.882 4105.675 -1350.920 1.077 0.615 0.243 -0.39 0.17 -0.37 0.83
1 9.98 998 -1.288 -8.476 6.225 7.996 -43.335 10.223 -1181.830 4075.545 -1275.969 1.396 0.924 0.020 -0.39 0.17 -0.37 0.83
1 9.99 999 -1.183 -8.591 6.321 12.116 -46.234 13.641 -1181.830 4075.545 -1275.969 1.311 1.043 -0.072 -0.39 0.17 -0.37 0.83
1 10.00 1000 -0.579 -8.485 6.163 15.747 -46.204 23.773 -1211.960 3970.613 -1230.998 0.744 0.955 0.106 -0.39 0.16 -0.36 0.83
1 10.01 1001 -0.450 -8.208 6.081 16.419 -45.258 28.168 -1211.960 3970.613 -1230.998 0.623 0.688 0.201 -0.39 0.16 -0.36 0.83
1 10.02 1002 -0.460 -7.714 5.655 18.219 -40.405 40.405 -1347.022 4015.884 -1080.796 0.630 0.208 0.642 -0.39 0.16 -0.35 0.83
