COL1	TIME	ACC_X	ACC_Y	ACC_Z	GYR_X	GYR_Y	GYR_Z	MAG_X	MAG_Y	MAG_Z	LACC_X	LACC_Y	LACC_Z	QUAT_X	QUAT_Y	QUAT_Z	QUAT_W
1 0.00 0 0.570 -8.844 4.343 -0.458 -1.251 0.671 164.593 2485.381 -4166.686 -0.103 0.011 -0.125 -0.01 -0.53 0.84 0.06
1 0.01 1 0.565 -8.912 4.166 -1.282 -1.587 0.336 164.593 2455.400 -4166.686 -0.098 0.078 0.052 -0.01 -0.53 0.84 0.06
1 0.02 2 0.579 -8.816 4.295 -1.984 -2.289 0.977 164.593 2455.400 -4166.686 -0.111 -0.018 -0.078 -0.01 -0.53 0.84 0.06
1 0.03 3 0.474 -8.935 4.271 -2.380 -1.495 0.275 14.690 2410.430 -4196.666 -0.005 0.102 -0.054 -0.01 -0.53 0.84 0.06
1 0.04 4 0.618 -9.055 4.252 -1.709 -1.892 0.397 149.603 2425.420 -4226.646 -0.145 0.221 -0.037 -0.01 -0.53 0.84 0.06
1 0.05 5 0.369 -8.916 4.315 -2.136 -1.678 0.519 119.622 2485.381 -4316.588 0.104 0.082 -0.100 -0.01 -0.53 0.84 0.06
1 0.06 6 0.532 -9.022 4.156 -0.641 -2.014 0.427 119.622 2485.381 -4316.588 -0.060 0.187 0.058 -0.01 -0.53 0.84 0.06
1 0.07 7 0.302 -8.873 4.133 -0.885 -1.892 1.373 149.603 2350.319 -3971.663 0.170 0.038 0.082 -0.01 -0.53 0.84 0.06
1 0.08 8 0.350 -8.950 4.271 -0.977 -1.801 0.702 149.603 2395.290 -4106.575 0.122 0.114 -0.058 -0.01 -0.53 0.84 0.06
1 0.09 9 0.417 -8.787 4.123 -0.946 -1.770 1.831 149.603 2395.290 -4106.575 0.054 -0.048 0.091 -0.01 -0.53 0.84 0.06
1 0.10 10 0.402 -8.950 4.190 -1.251 -2.106 2.075 119.622 2335.329 -4316.588 0.068 0.114 0.022 -0.01 -0.53 0.84 0.06
1 0.11 11 0.407 -9.003 4.243 -2.045 -2.045 2.075 119.622 2335.329 -4316.588 0.062 0.167 -0.030 -0.01 -0.53 0.84 0.06
1 0.12 12 0.450 -9.031 4.377 -1.038 -2.594 1.404 59.661 2410.430 -3911.552 0.017 0.194 -0.167 -0.01 -0.53 0.84 0.06
1 0.13 13 0.532 -9.065 4.137 -1.251 -2.106 2.228 59.661 2410.430 -3911.552 -0.065 0.227 0.072 -0.01 -0.53 0.84 0.06
1 0.14 14 0.417 -9.094 4.200 -1.068 -2.319 1.770 164.593 2410.430 -4136.555 0.049 0.255 0.008 -0.01 -0.53 0.84 0.06
1 0.15 15 0.517 -8.892 4.190 -0.366 -2.808 1.801 194.573 2455.400 -3956.672 -0.052 0.054 0.018 -0.01 -0.53 0.84 0.06
1 0.16 16 0.503 -9.022 4.252 -0.916 -3.052 1.862 194.573 2455.400 -3956.672 -0.037 0.184 -0.043 -0.01 -0.53 0.84 0.06
1 0.17 17 0.517 -9.055 4.142 -0.488 -3.418 1.617 -45.271 2395.290 -4181.676 -0.052 0.217 0.067 -0.01 -0.53 0.84 0.06
1 0.18 18 0.603 -9.007 4.319 -1.404 -3.510 1.709 -45.271 2395.290 -4181.676 -0.137 0.170 -0.110 -0.01 -0.53 0.84 0.06
1 0.19 19 0.421 -8.955 4.267 -1.160 -3.448 2.258 59.661 2365.309 -4241.637 0.046 0.116 -0.059 -0.01 -0.53 0.84 0.06
1 0.20 20 0.517 -8.955 4.185 -1.373 -3.510 1.862 59.661 2365.309 -4241.637 -0.050 0.116 0.022 -0.01 -0.53 0.84 0.06
1 0.21 21 0.575 -9.046 4.166 -0.916 -3.204 1.892 89.642 2410.430 -4091.584 -0.107 0.207 0.040 -0.01 -0.53 0.84 0.06
1 0.22 22 0.575 -9.046 4.156 -1.251 -3.265 1.953 14.690 2485.381 -4271.617 -0.106 0.206 0.049 -0.01 -0.53 0.84 0.06
1 0.23 23 0.517 -8.959 4.185 -1.434 -2.869 1.831 14.690 2485.381 -4271.617 -0.048 0.120 0.019 -0.01 -0.53 0.84 0.06
1 0.24 24 0.584 -8.912 4.291 -1.282 -2.228 1.434 89.642 2455.400 -4241.637 -0.115 0.071 -0.087 -0.01 -0.53 0.84 0.06
1 0.25 25 0.532 -8.859 4.128 -1.007 -2.258 1.862 89.642 2455.400 -4241.637 -0.062 0.018 0.075 -0.01 -0.53 0.84 0.06
1 0.26 26 0.431 -8.907 4.200 -1.373 -2.472 1.953 29.681 2470.391 -4151.695 0.039 0.066 0.003 -0.01 -0.53 0.84 0.06
1 0.27 27 0.441 -8.921 4.156 -1.831 -2.075 1.770 149.603 2395.290 -4226.646 0.029 0.080 0.045 -0.01 -0.53 0.84 0.06
1 0.28 28 0.522 -9.046 4.109 -1.831 -2.350 1.984 119.622 2455.400 -4241.637 -0.052 0.204 0.092 -0.01 -0.53 0.84 0.06
1 0.29 29 0.618 -8.931 4.238 -2.045 -2.319 1.862 179.583 2245.387 -4106.575 -0.149 0.088 -0.040 -0.01 -0.53 0.84 0.06
1 0.30 30 0.445 -9.007 4.013 -2.075 -1.862 2.350 179.583 2245.387 -4106.575 0.024 0.164 0.184 -0.01 -0.53 0.84 0.06
1 0.31 31 0.426 -8.844 4.147 -1.465 -1.801 1.312 89.642 2530.352 -4196.666 0.043 0.000 0.048 -0.01 -0.53 0.84 0.06
1 0.32 32 0.570 -9.050 4.142 -1.709 -1.526 1.556 89.642 2530.352 -4196.666 -0.101 0.206 0.053 -0.01 -0.53 0.84 0.06
1 0.33 33 0.503 -8.955 4.180 -1.770 -1.556 1.190 -45.271 2395.290 -4151.695 -0.034 0.110 0.014 -0.01 -0.53 0.84 0.06
1 0.34 34 0.632 -8.873 4.271 -1.923 -1.404 1.434 -0.150 2500.371 -4331.578 -0.162 0.028 -0.079 -0.01 -0.53 0.84 0.06
1 0.35 35 0.546 -8.993 4.147 -1.801 -2.014 1.617 74.651 2320.338 -4151.695 -0.075 0.148 0.046 -0.01 -0.53 0.84 0.06
1 0.36 36 0.522 -9.046 4.104 -1.892 -2.228 1.007 59.661 2455.400 -4136.555 -0.051 0.200 0.088 -0.01 -0.53 0.84 0.06
1 0.37 37 0.512 -8.998 4.089 -1.984 -2.075 0.977 59.661 2455.400 -4136.555 -0.041 0.152 0.101 -0.01 -0.53 0.84 0.06
1 0.38 38 0.503 -9.060 4.156 -1.465 -1.801 0.549 74.651 2350.319 -4106.575 -0.031 0.214 0.034 -0.01 -0.53 0.84 0.06
1 0.39 39 0.632 -9.041 4.358 -1.587 -1.648 1.160 74.651 2350.319 -4106.575 -0.160 0.194 -0.168 -0.01 -0.53 0.84 0.06
1 0.40 40 0.594 -9.122 4.233 -2.106 -1.099 0.641 14.690 2290.358 -4196.666 -0.121 0.275 -0.044 -0.01 -0.53 0.84 0.06
1 0.41 41 0.594 -9.108 4.142 -2.197 -1.221 0.366 104.632 2470.391 -4076.594 -0.119 0.261 0.046 -0.01 -0.54 0.84 0.06
1 0.42 42 0.412 -8.945 4.233 -2.197 -1.099 0.519 -45.271 2425.420 -4181.676 0.064 0.098 -0.045 -0.01 -0.54 0.84 0.06
1 0.43 43 0.603 -8.945 4.267 -1.099 -0.854 0.244 74.651 2470.391 -4151.695 -0.128 0.097 -0.080 -0.01 -0.54 0.84 0.06
1 0.44 44 0.584 -8.998 4.300 -1.465 -0.763 0.793 74.651 2470.391 -4151.695 -0.108 0.150 -0.113 -0.01 -0.54 0.84 0.06
1 0.45 45 0.474 -8.902 4.190 -1.434 -0.549 0.793 -75.251 2395.290 -4151.695 0.003 0.054 -0.003 -0.01 -0.54 0.84 0.06
1 0.46 46 0.522 -9.012 4.271 -1.099 -0.275 0.671 -75.251 2395.290 -4151.695 -0.045 0.164 -0.085 -0.01 -0.54 0.84 0.06
1 0.47 47 0.584 -9.060 4.156 -1.434 -0.244 0.366 59.661 2410.430 -4016.633 -0.106 0.212 0.029 -0.01 -0.54 0.84 0.06
1 0.48 48 0.469 -8.926 4.185 -1.495 -0.336 0.610 -15.290 2485.381 -4196.666 0.010 0.077 -0.000 -0.01 -0.54 0.84 0.06
1 0.49 49 0.460 -9.060 4.085 -1.007 -0.183 0.702 164.593 2410.430 -4061.604 0.019 0.211 0.100 -0.01 -0.54 0.84 0.06
1 0.50 50 0.551 -8.950 4.104 -0.641 0.214 0.793 149.603 2470.391 -3926.692 -0.072 0.101 0.080 -0.01 -0.54 0.84 0.06
1 0.51 51 0.532 -9.127 4.233 -0.336 -0.336 0.763 149.603 2470.391 -3926.692 -0.053 0.278 -0.049 -0.01 -0.54 0.84 0.06
1 0.52 52 0.469 -9.060 4.228 -0.458 -0.336 1.190 59.661 2455.400 -4061.604 0.010 0.210 -0.045 -0.01 -0.54 0.84 0.06
1 0.53 53 0.460 -9.026 4.161 -1.404 -0.580 1.160 59.661 2455.400 -4061.604 0.019 0.177 0.021 -0.01 -0.54 0.84 0.06
1 0.54 54 0.536 -8.931 4.104 -0.916 -0.702 0.885 89.642 2335.329 -4061.604 -0.057 0.081 0.078 -0.01 -0.54 0.84 0.06
1 0.55 55 0.570 -9.003 4.113 -1.373 -0.763 1.526 59.661 2455.400 -4166.686 -0.091 0.152 0.068 -0.01 -0.54 0.84 0.06
1 0.56 56 0.656 -8.883 4.118 -0.275 -1.099 0.610 -0.150 2395.290 -4046.614 -0.177 0.032 0.061 -0.01 -0.54 0.84 0.06
1 0.57 57 0.541 -8.854 4.171 -0.671 -0.854 1.160 74.651 2395.290 -4046.614 -0.061 0.003 0.008 -0.01 -0.54 0.84 0.06
1 0.58 58 0.527 -9.094 4.094 -0.732 -1.251 0.366 74.651 2395.290 -4046.614 -0.046 0.242 0.085 -0.01 -0.54 0.84 0.06
1 0.59 59 0.493 -8.907 4.113 -0.916 -1.709 0.977 14.690 2365.309 -4136.555 -0.012 0.055 0.065 -0.01 -0.54 0.84 0.06
1 0.60 60 0.503 -8.969 4.195 -0.610 -1.648 0.793 14.690 2365.309 -4136.555 -0.021 0.117 -0.016 -0.01 -0.54 0.84 0.06
1 0.61 61 0.546 -8.969 4.137 -1.068 -1.312 1.007 164.593 2485.381 -4166.686 -0.064 0.117 0.041 -0.01 -0.54 0.84 0.06
1 0.62 62 0.532 -9.022 4.267 -0.519 -1.221 0.916 74.651 2395.290 -4181.676 -0.050 0.170 -0.089 -0.01 -0.54 0.84 0.06
1 0.63 63 0.522 -9.055 4.137 -0.366 -0.885 1.770 104.632 2425.420 -4151.695 -0.039 0.203 0.039 -0.01 -0.54 0.84 0.06
1 0.64 64 0.445 -9.017 4.123 0.519 0.000 1.251 89.642 2335.329 -4166.686 0.037 0.165 0.054 -0.01 -0.54 0.84 0.06
1 0.65 65 0.541 -9.089 4.128 1.465 0.183 1.038 89.642 2335.329 -4166.686 -0.059 0.237 0.051 -0.01 -0.54 0.84 0.06
1 0.66 66 0.637 -8.959 4.185 0.977 0.397 1.099 104.632 2320.338 -4181.676 -0.156 0.109 -0.004 -0.01 -0.54 0.84 0.06
1 0.67 67 0.431 -8.821 4.180 0.427 0.183 1.007 104.632 2320.338 -4181.676 0.050 -0.028 0.004 -0.01 -0.54 0.84 0.06
1 0.68 68 0.512 -8.873 4.104 -0.519 0.000 0.977 -45.271 2320.338 -4046.614 -0.033 0.025 0.082 -0.01 -0.54 0.84 0.06
1 0.69 69 0.522 -8.892 4.334 -1.343 -0.214 1.343 164.593 2485.381 -4136.555 -0.043 0.044 -0.147 -0.01 -0.54 0.84 0.06
1 0.70 70 0.594 -9.003 4.219 -1.038 -0.275 1.068 29.681 2320.338 -4106.575 -0.115 0.155 -0.032 -0.01 -0.54 0.84 0.06
1 0.71 71 0.536 -8.902 4.252 -0.885 -0.397 1.221 74.651 2395.290 -4076.594 -0.057 0.054 -0.066 -0.01 -0.54 0.84 0.06
1 0.72 72 0.599 -9.079 4.109 -0.305 -0.427 0.641 74.651 2395.290 -4076.594 -0.118 0.232 0.078 -0.01 -0.54 0.84 0.06
1 0.73 73 0.455 -9.060 4.156 0.214 -0.671 0.885 89.642 2365.309 -4166.686 0.026 0.213 0.031 -0.01 -0.54 0.84 0.06
1 0.74 74 0.512 -9.017 4.276 1.007 -1.099 0.702 89.642 2365.309 -4166.686 -0.032 0.170 -0.087 -0.01 -0.53 0.84 0.06
1 0.75 75 0.637 -9.050 4.271 1.892 -0.854 0.122 59.661 2530.352 -4136.555 -0.156 0.205 -0.080 -0.01 -0.53 0.84 0.06
1 0.76 76 0.374 -9.098 4.405 1.343 -1.038 0.885 74.651 2425.420 -4046.614 0.108 0.255 -0.210 -0.01 -0.53 0.84 0.06
1 0.77 77 0.532 -8.998 4.152 1.343 -0.549 0.061 74.651 2425.420 -4046.614 -0.049 0.156 0.047 -0.01 -0.53 0.84 0.06
1 0.78 78 0.369 -8.950 4.257 -0.305 0.122 0.580 74.651 2425.420 -4181.676 0.114 0.110 -0.053 -0.01 -0.53 0.84 0.06
1 0.79 79 0.508 -8.955 4.190 -0.580 0.183 -0.061 74.651 2425.420 -4181.676 -0.026 0.116 0.015 -0.01 -0.53 0.84 0.06
1 0.80 80 0.536 -8.878 4.286 -1.373 0.061 0.000 -15.290 2365.309 -4166.686 -0.054 0.039 -0.080 -0.01 -0.53 0.84 0.06
1 0.81 81 0.321 -8.816 4.252 -0.671 0.244 0.031 -15.290 2365.309 -4166.686 0.162 -0.023 -0.047 -0.01 -0.53 0.84 0.06
1 0.82 82 0.393 -8.950 4.247 -0.214 -0.366 0.671 74.651 2395.290 -4076.594 0.090 0.112 -0.041 -0.01 -0.53 0.84 0.06
1 0.83 83 0.469 -9.046 4.319 0.732 -0.916 1.587 74.651 2350.319 -4181.676 0.012 0.208 -0.112 -0.01 -0.53 0.84 0.06
1 0.84 84 0.426 -8.835 4.228 1.373 -1.343 1.892 74.651 2350.319 -4181.676 0.055 -0.002 -0.019 -0.01 -0.53 0.84 0.06
1 0.85 85 0.445 -8.916 4.396 0.793 -2.350 2.075 179.583 2470.391 -4106.575 0.033 0.081 -0.183 -0.01 -0.53 0.84 0.06
1 0.86 86 0.469 -8.935 4.291 0.702 -2.258 2.441 179.583 2470.391 -4106.575 0.008 0.102 -0.075 -0.01 -0.53 0.84 0.06
1 0.87 87 0.417 -9.117 4.176 0.519 -1.923 2.380 149.603 2470.391 -4151.695 0.059 0.284 0.042 -0.01 -0.53 0.84 0.06
1 0.88 88 0.469 -8.964 4.195 0.092 -2.167 1.953 149.603 2470.391 -4151.695 0.005 0.132 0.024 -0.01 -0.53 0.84 0.06
1 0.89 89 0.364 -8.955 4.171 0.122 -2.289 2.136 74.651 2470.391 -4106.575 0.109 0.123 0.049 -0.01 -0.53 0.84 0.06
1 0.90 90 0.498 -9.060 4.219 0.183 -1.404 1.923 74.651 2425.420 -4151.695 -0.027 0.228 0.003 -0.01 -0.53 0.84 0.06
1 0.91 91 0.426 -9.050 4.300 0.519 -0.916 2.411 74.651 2425.420 -4151.695 0.045 0.219 -0.078 -0.01 -0.53 0.84 0.06
1 0.92 92 0.503 -8.998 4.276 -0.122 -0.275 1.282 -15.290 2365.309 -4166.686 -0.034 0.168 -0.051 -0.01 -0.53 0.84 0.06
1 0.93 93 0.508 -8.945 4.156 -0.092 -0.549 0.641 -15.290 2365.309 -4166.686 -0.039 0.115 0.069 -0.01 -0.53 0.84 0.06
1 0.94 94 0.421 -8.998 4.200 -0.336 -0.916 0.977 119.622 2365.309 -4136.555 0.047 0.168 0.026 -0.01 -0.53 0.84 0.06
1 0.95 95 0.393 -8.816 4.276 0.092 -1.831 1.221 119.622 2365.309 -4136.555 0.075 -0.015 -0.052 -0.01 -0.53 0.84 0.06
1 0.96 96 0.464 -8.983 4.180 1.038 -1.770 0.763 59.661 2455.400 -4136.555 0.003 0.153 0.044 -0.01 -0.53 0.84 0.06
1 0.97 97 0.503 -8.902 4.137 0.854 -2.594 0.732 59.661 2455.400 -4241.637 -0.034 0.072 0.088 -0.01 -0.53 0.84 0.06
1 0.98 98 0.479 -8.935 4.247 0.488 -2.350 0.763 59.661 2455.400 -4241.637 -0.010 0.107 -0.020 -0.01 -0.53 0.84 0.06
1 0.99 99 0.594 -8.907 4.324 0.244 -3.143 1.251 59.661 2365.309 -4061.604 -0.123 0.079 -0.095 -0.01 -0.53 0.84 0.06
1 1.00 100 0.503 -8.950 4.109 -0.244 -2.380 0.641 149.603 2395.290 -3971.663 -0.030 0.124 0.124 -0.01 -0.53 0.84 0.06
1 1.01 101 0.441 -8.854 4.305 -0.031 -1.831 0.885 149.603 2545.342 -4181.676 0.033 0.028 -0.073 -0.01 -0.53 0.84 0.06
1 1.02 102 0.460 -8.902 4.276 0.305 -1.862 0.885 149.603 2545.342 -4181.676 0.014 0.076 -0.043 -0.01 -0.53 0.84 0.06
1 1.03 103 0.369 -8.974 4.224 -0.031 -1.617 1.038 -45.271 2395.290 -4181.676 0.106 0.149 0.012 -0.01 -0.53 0.84 0.06
1 1.04 104 0.441 -8.940 4.209 0.183 -2.289 1.678 29.681 2425.420 -4181.676 0.033 0.115 0.026 -0.01 -0.53 0.84 0.06
1 1.05 105 0.445 -8.983 4.295 0.732 -2.045 1.709 29.681 2425.420 -4181.676 0.028 0.159 -0.060 -0.01 -0.53 0.84 0.06
1 1.06 106 0.445 -8.955 4.195 0.641 -2.289 2.350 29.681 2425.420 -4151.695 0.027 0.130 0.041 -0.01 -0.53 0.84 0.06
1 1.07 107 0.484 -9.036 4.219 0.000 -1.495 2.502 119.622 2455.400 -4166.686 -0.013 0.213 0.021 -0.01 -0.53 0.84 0.06
1 1.08 108 0.450 -8.926 4.094 -0.641 -1.892 1.923 59.661 2455.400 -4091.584 0.020 0.103 0.145 -0.01 -0.53 0.84 0.06
1 1.09 109 0.503 -8.854 4.147 -1.984 -1.984 2.441 59.661 2455.400 -4091.584 -0.033 0.030 0.091 -0.01 -0.53 0.84 0.06
1 1.10 110 0.536 -8.859 4.224 -2.106 -1.862 1.740 74.651 2320.338 -4151.695 -0.068 0.034 0.012 -0.01 -0.53 0.84 0.06
1 1.11 111 0.599 -8.921 4.133 -2.655 -1.251 1.617 -15.290 2365.309 -4091.584 -0.130 0.096 0.102 -0.01 -0.53 0.84 0.06
1 1.12 112 0.584 -8.950 4.324 -1.953 -1.312 1.251 -15.290 2365.309 -4091.584 -0.116 0.123 -0.092 -0.01 -0.53 0.84 0.06
1 1.13 113 0.464 -8.950 4.061 -1.099 -1.801 1.007 149.603 2395.290 -4301.598 0.004 0.123 0.170 -0.01 -0.53 0.84 0.06
1 1.14 114 0.618 -8.964 4.123 -0.366 -1.495 0.366 104.632 2395.290 -4331.578 -0.149 0.136 0.107 -0.01 -0.53 0.84 0.06
1 1.15 115 0.661 -8.979 4.200 -0.305 -1.770 0.641 -0.150 2350.319 -4151.695 -0.191 0.150 0.029 -0.01 -0.53 0.84 0.06
1 1.16 116 0.618 -9.003 4.200 -0.061 -2.136 0.458 -0.150 2350.319 -4151.695 -0.147 0.174 0.028 -0.01 -0.53 0.84 0.06
1 1.17 117 0.718 -9.079 4.094 0.275 -1.617 -0.092 -0.150 2425.420 -4106.575 -0.246 0.250 0.133 -0.01 -0.53 0.84 0.06
1 1.18 118 0.713 -8.902 4.286 0.305 -2.075 0.854 149.603 2545.342 -4151.695 -0.240 0.073 -0.059 -0.01 -0.53 0.84 0.06
1 1.19 119 0.690 -8.974 4.315 -0.458 -1.465 0.336 149.603 2545.342 -4151.695 -0.213 0.146 -0.086 -0.01 -0.53 0.84 0.06
1 1.20 120 0.555 -8.868 4.338 -1.007 -0.885 -0.122 119.622 2410.430 -4316.588 -0.078 0.040 -0.111 -0.01 -0.53 0.84 0.06
1 1.21 121 0.560 -8.878 4.305 -1.709 -0.458 0.000 104.632 2425.420 -4226.646 -0.082 0.050 -0.077 -0.01 -0.53 0.84 0.06
1 1.22 122 0.455 -8.935 4.224 -2.777 0.397 0.366 14.690 2365.309 -4136.555 0.026 0.106 0.002 -0.01 -0.53 0.84 0.06
1 1.23 123 0.484 -8.912 4.262 -2.960 -0.122 1.068 14.690 2365.309 -4136.555 -0.003 0.081 -0.039 -0.01 -0.53 0.84 0.06
1 1.24 124 0.546 -9.089 4.204 -2.930 -0.427 0.824 59.661 2410.430 -4166.686 -0.066 0.257 0.016 -0.01 -0.53 0.84 0.06
1 1.25 125 0.570 -9.079 4.276 -2.808 -0.214 1.495 59.661 2455.400 -4136.555 -0.090 0.246 -0.059 -0.01 -0.53 0.84 0.06
1 1.26 126 0.488 -9.098 4.133 -0.732 0.305 1.862 59.661 2455.400 -4136.555 -0.009 0.264 0.082 -0.01 -0.53 0.84 0.06
1 1.27 127 0.575 -9.084 4.056 0.763 0.122 1.251 119.622 2455.400 -4316.588 -0.097 0.249 0.158 -0.01 -0.53 0.84 0.06
1 1.28 128 0.493 -8.983 4.142 2.350 0.000 0.397 89.642 2455.400 -4136.555 -0.017 0.148 0.072 -0.01 -0.53 0.84 0.06
1 1.29 129 0.522 -9.017 4.195 1.831 -0.153 -0.122 -0.150 2425.420 -4301.598 -0.045 0.185 0.026 -0.01 -0.53 0.84 0.06
1 1.30 130 0.479 -8.849 4.276 1.434 -0.702 -0.397 -0.150 2425.420 -4301.598 -0.000 0.019 -0.053 -0.01 -0.53 0.84 0.06
1 1.31 131 0.450 -8.935 4.286 0.397 -0.885 -1.099 14.690 2455.400 -4166.686 0.031 0.107 -0.059 -0.01 -0.53 0.84 0.06
1 1.32 132 0.503 -8.883 4.338 -0.427 -1.526 -1.038 -45.271 2545.342 -4181.676 -0.020 0.055 -0.111 -0.01 -0.53 0.84 0.06
1 1.33 133 0.546 -8.912 4.286 -0.580 -1.556 -0.366 -45.271 2545.342 -4181.676 -0.060 0.084 -0.057 -0.01 -0.53 0.84 0.06
1 1.34 134 0.364 -8.935 4.233 -0.549 -1.740 0.946 -135.212 2410.430 -4091.584 0.123 0.108 -0.004 -0.01 -0.53 0.84 0.06
1 1.35 135 0.335 -8.979 4.123 -0.519 -2.136 1.251 29.681 2395.290 -4226.646 0.152 0.151 0.106 -0.01 -0.53 0.84 0.06
1 1.36 136 0.388 -9.122 4.195 -0.366 -2.289 2.045 149.603 2395.290 -4151.695 0.097 0.295 0.033 -0.01 -0.53 0.84 0.06
1 1.37 137 0.350 -8.945 4.171 -0.641 -2.106 1.892 149.603 2395.290 -4151.695 0.134 0.117 0.057 -0.01 -0.53 0.84 0.06
1 1.38 138 0.474 -9.070 4.204 0.427 -1.740 2.258 -15.290 2485.381 -4196.666 0.009 0.242 0.024 -0.01 -0.53 0.84 0.06
1 1.39 139 0.498 -8.998 4.276 1.373 -1.465 2.319 89.642 2455.400 -4136.555 -0.017 0.171 -0.046 -0.01 -0.53 0.84 0.06
1 1.40 140 0.575 -8.979 4.133 1.831 -0.519 2.289 89.642 2455.400 -4136.555 -0.095 0.153 0.100 -0.01 -0.53 0.84 0.06
1 1.41 141 0.546 -8.859 4.104 2.747 0.580 2.258 164.593 2335.329 -4391.689 -0.068 0.035 0.132 -0.01 -0.53 0.84 0.06
1 1.42 142 0.651 -8.797 4.214 1.953 0.977 1.526 89.642 2485.381 -4136.555 -0.175 -0.026 0.027 -0.01 -0.53 0.84 0.06
1 1.43 143 0.532 -8.734 4.271 1.953 1.434 1.312 89.642 2485.381 -4136.555 -0.057 -0.086 -0.027 -0.01 -0.53 0.84 0.06
1 1.44 144 0.565 -8.964 4.257 0.641 1.495 2.014 14.690 2365.309 -4166.686 -0.094 0.147 -0.006 -0.01 -0.53 0.84 0.06
1 1.45 145 0.579 -8.864 4.315 0.854 1.312 1.251 -60.261 2335.329 -4241.637 -0.110 0.047 -0.061 -0.01 -0.53 0.84 0.06
1 1.46 146 0.522 -9.007 4.228 1.099 1.099 1.648 74.651 2320.338 -4331.578 -0.054 0.192 0.028 -0.01 -0.53 0.84 0.06
1 1.47 147 0.599 -8.974 4.214 1.770 0.580 2.502 74.651 2320.338 -4331.578 -0.133 0.160 0.045 -0.01 -0.53 0.85 0.06
1 1.48 148 0.546 -9.094 4.372 2.991 -0.946 3.174 89.642 2455.400 -4316.588 -0.082 0.281 -0.109 -0.01 -0.53 0.85 0.06
1 1.49 149 0.436 -8.912 4.315 2.686 -1.923 4.059 14.690 2260.377 -4196.666 0.025 0.102 -0.047 -0.01 -0.53 0.85 0.06
1 1.50 150 0.642 -9.146 4.324 2.594 -2.899 4.608 14.690 2260.377 -4196.666 -0.185 0.338 -0.052 -0.01 -0.53 0.85 0.06
1 1.51 151 0.589 -9.046 4.286 2.808 -4.028 4.486 -45.271 2200.417 -4151.695 -0.137 0.242 -0.003 -0.01 -0.53 0.85 0.05
1 1.52 152 0.555 -9.175 4.161 2.808 -4.120 4.272 179.583 2425.420 -4256.627 -0.105 0.374 0.126 -0.01 -0.53 0.85 0.05
1 1.53 153 0.541 -9.175 3.998 3.601 -4.456 3.601 179.583 2425.420 -4151.695 -0.093 0.376 0.293 -0.01 -0.53 0.85 0.05
1 1.54 154 0.575 -9.084 4.099 3.510 -4.761 2.411 179.583 2425.420 -4151.695 -0.126 0.287 0.196 -0.01 -0.53 0.85 0.05
1 1.55 155 0.517 -8.964 4.109 3.601 -7.141 0.122 149.603 2395.290 -4256.627 -0.066 0.169 0.190 -0.01 -0.53 0.85 0.05
1 1.56 156 0.565 -9.003 4.415 4.364 -8.331 0.122 239.694 2335.329 -4316.588 -0.109 0.209 -0.112 -0.01 -0.53 0.85 0.05
1 1.57 157 0.608 -9.074 4.353 4.456 -10.407 -0.702 239.694 2335.329 -4316.588 -0.146 0.284 -0.045 -0.01 -0.53 0.85 0.05
1 1.58 158 0.618 -9.046 4.262 5.524 -13.763 -0.244 29.681 2350.319 -4331.578 -0.137 0.263 0.059 -0 -0.53 0.85 0.05
1 1.59 159 0.699 -8.979 4.286 6.561 -14.710 0.122 164.593 2410.430 -4061.604 -0.206 0.200 0.042 -0 -0.53 0.85 0.05
1 1.60 160 0.747 -8.859 4.214 6.928 -17.151 0.854 14.690 2365.309 -4136.555 -0.242 0.085 0.123 -0 -0.53 0.85 0.05
1 1.61 161 0.819 -8.844 4.324 7.721 -18.341 1.617 14.690 2365.309 -4136.555 -0.301 0.076 0.022 -0 -0.53 0.85 0.05
1 1.62 162 0.929 -8.959 4.247 6.195 -19.257 1.709 -90.241 2410.430 -4196.666 -0.398 0.196 0.108 0 -0.53 0.85 0.05
1 1.63 163 0.838 -9.055 4.300 4.425 -19.531 2.258 14.690 2215.407 -4241.637 -0.294 0.297 0.062 0 -0.53 0.85 0.05
1 1.64 164 0.934 -9.117 4.276 3.601 -19.226 1.099 14.690 2215.407 -4241.637 -0.376 0.362 0.091 0 -0.53 0.85 0.05
1 1.65 165 0.967 -9.036 4.247 3.693 -18.402 0.549 -60.261 2290.358 -4271.617 -0.395 0.283 0.123 0 -0.53 0.85 0.05
1 1.66 166 0.948 -9.194 4.367 5.310 -17.822 -0.824 -90.241 2455.400 -4241.637 -0.347 0.447 0.011 0.01 -0.53 0.85 0.05
1 1.67 167 0.900 -9.161 4.262 7.263 -17.242 -1.862 -0.150 2350.319 -4301.598 -0.283 0.418 0.122 0.01 -0.53 0.85 0.05
1 1.68 168 0.924 -9.108 4.214 8.972 -17.151 -2.350 -0.150 2350.319 -4301.598 -0.290 0.370 0.178 0.01 -0.53 0.85 0.05
1 1.69 169 1.034 -9.117 4.286 10.895 -17.151 -2.380 -15.290 2215.407 -4136.555 -0.383 0.386 0.117 0.01 -0.52 0.85 0.05
1 1.70 170 1.053 -9.103 4.238 12.360 -17.853 -1.617 -75.251 2425.420 -4226.646 -0.385 0.380 0.178 0.01 -0.52 0.85 0.05
1 1.71 171 1.001 -9.022 4.233 12.360 -18.494 -0.122 -75.251 2425.420 -4226.646 -0.316 0.307 0.197 0.01 -0.52 0.85 0.05
1 1.72 172 1.178 -9.065 4.176 11.261 -19.196 1.068 -60.261 2185.426 -4241.637 -0.476 0.358 0.267 0.01 -0.52 0.85 0.05
1 1.73 173 1.173 -8.844 4.209 9.430 -19.226 2.686 -15.290 2290.358 -4136.555 -0.441 0.152 0.257 0.02 -0.52 0.85 0.04
1 1.74 174 1.288 -8.677 4.200 8.331 -19.928 2.441 -135.212 2215.407 -4391.689 -0.542 -0.009 0.276 0.02 -0.52 0.85 0.04
1 1.75 175 1.245 -8.648 4.185 7.507 -20.569 1.617 -135.212 2215.407 -4391.689 -0.484 -0.033 0.298 0.02 -0.52 0.85 0.04
1 1.76 176 1.255 -8.519 4.214 6.775 -22.034 1.221 -165.192 2215.407 -4241.637 -0.477 -0.157 0.277 0.02 -0.52 0.85 0.04
1 1.77 177 1.365 -8.528 4.224 7.263 -22.858 0.397 -135.212 2290.358 -4346.568 -0.569 -0.142 0.274 0.02 -0.52 0.85 0.04
1 1.78 178 1.374 -8.351 4.391 8.453 -21.668 -1.801 -135.212 2290.358 -4346.568 -0.559 -0.314 0.114 0.02 -0.52 0.85 0.04
1 1.79 179 1.360 -8.217 4.243 9.918 -21.118 -3.113 14.690 2260.377 -4316.588 -0.523 -0.441 0.271 0.03 -0.52 0.85 0.04
1 1.80 180 1.212 -8.275 4.338 10.071 -19.684 -4.669 -0.150 2245.387 -4256.627 -0.328 -0.367 0.198 0.03 -0.52 0.85 0.04
1 1.81 181 1.111 -8.284 4.276 9.277 -19.135 -5.981 -210.163 2260.377 -4271.617 -0.204 -0.349 0.272 0.03 -0.52 0.85 0.04
1 1.82 182 1.164 -8.208 4.271 7.568 -19.928 -6.561 -212.412 2266.074 -4265.021 -0.232 -0.417 0.287 0.03 -0.52 0.85 0.04
1 1.83 183 1.149 -8.217 4.219 5.981 -21.393 -6.622 -227.402 2281.064 -4295.152 -0.192 -0.401 0.348 0.03 -0.52 0.86 0.04
1 1.84 184 1.207 -8.346 4.310 3.052 -21.729 -6.561 -167.441 2221.103 -4340.123 -0.222 -0.266 0.261 0.03 -0.52 0.86 0.04
1 1.85 185 1.317 -8.390 4.214 2.472 -22.522 -6.104 -167.441 2221.103 -4340.123 -0.307 -0.219 0.359 0.04 -0.52 0.86 0.04
1 1.86 186 1.341 -8.394 4.329 2.686 -22.827 -6.714 -302.503 2251.083 -4220.051 -0.304 -0.211 0.244 0.04 -0.52 0.86 0.04
1 1.87 187 1.341 -8.260 4.271 3.632 -23.254 -6.256 -302.503 2251.083 -4220.051 -0.277 -0.342 0.302 0.04 -0.51 0.86 0.04
1 1.88 188 1.432 -8.318 4.429 5.096 -24.414 -6.287 -242.392 2146.002 -4160.090 -0.312 -0.275 0.148 0.04 -0.51 0.86 0.04
1 1.89 189 1.690 -8.375 4.439 3.326 -24.414 -6.195 -242.392 2146.002 -4160.090 -0.543 -0.212 0.142 0.05 -0.51 0.86 0.04
1 1.90 190 1.729 -8.394 4.410 1.617 -23.651 -5.768 -302.503 2131.012 -4220.051 -0.551 -0.188 0.171 0.05 -0.51 0.86 0.04
1 1.91 191 1.868 -8.236 4.564 -1.343 -23.163 -5.188 -422.425 2221.103 -4265.021 -0.662 -0.343 0.016 0.05 -0.51 0.86 0.04
1 1.92 192 1.911 -8.409 4.487 -2.380 -21.607 -4.181 -422.425 2221.103 -4265.021 -0.677 -0.169 0.089 0.05 -0.51 0.86 0.04
1 1.93 193 2.093 -8.447 4.425 -2.533 -20.752 -3.845 -392.444 2266.074 -4340.123 -0.831 -0.130 0.146 0.05 -0.51 0.86 0.04
1 1.94 194 2.059 -8.538 4.535 -2.167 -19.562 -4.089 -392.444 2266.074 -4340.123 -0.773 -0.038 0.029 0.05 -0.51 0.86 0.04
1 1.95 195 2.203 -8.576 4.650 -2.869 -17.456 -5.096 -422.425 2191.123 -4265.021 -0.866 0.001 -0.098 0.06 -0.51 0.85 0.04
1 1.96 196 2.231 -8.706 4.669 -4.334 -15.320 -6.134 -422.425 2191.123 -4265.021 -0.869 0.131 -0.123 0.06 -0.51 0.85 0.04
1 1.97 197 2.351 -8.773 4.817 -4.852 -12.756 -7.568 -452.405 2281.064 -4250.031 -0.963 0.198 -0.279 0.06 -0.51 0.85 0.04
1 1.98 198 2.389 -8.969 4.932 -5.493 -10.101 -8.637 -467.396 2221.103 -4340.123 -0.976 0.395 -0.402 0.06 -0.51 0.85 0.04
1 1.99 199 2.447 -8.945 5.028 -5.096 -5.005 -8.667 -467.396 2221.103 -4340.123 -1.009 0.371 -0.504 0.06 -0.52 0.85 0.04
1 2.00 200 2.466 -9.151 5.033 -4.089 -2.869 -7.782 -557.487 2161.142 -4325.132 -1.006 0.578 -0.515 0.06 -0.52 0.85 0.04
1 2.01 201 2.504 -9.314 5.129 -2.625 -0.549 -6.928 -557.487 2161.142 -4325.132 -1.024 0.742 -0.614 0.06 -0.52 0.85 0.04
1 2.02 202 2.433 -9.228 5.258 -2.411 2.838 -4.395 -497.526 2221.103 -4235.041 -0.928 0.659 -0.747 0.06 -0.52 0.85 0.04
1 2.03 203 2.241 -9.108 5.143 -3.021 5.341 -2.899 -497.526 2221.103 -4235.041 -0.733 0.539 -0.633 0.06 -0.52 0.85 0.04
1 2.04 204 2.069 -9.146 5.047 -2.472 7.446 -1.221 -557.487 2251.083 -4250.031 -0.559 0.578 -0.537 0.06 -0.52 0.85 0.04
1 2.05 205 2.006 -8.935 5.009 -2.930 10.254 -0.244 -452.405 2161.142 -4355.113 -0.499 0.367 -0.498 0.06 -0.52 0.85 0.04
1 2.06 206 1.666 -8.610 4.971 -1.953 12.512 0.244 -452.405 2161.142 -4355.113 -0.163 0.042 -0.458 0.06 -0.52 0.85 0.04
1 2.07 207 1.264 -8.533 4.750 -1.312 16.785 0.092 -422.425 2296.054 -4310.142 0.231 -0.034 -0.233 0.06 -0.52 0.85 0.05
1 2.08 208 1.097 -8.265 4.698 -1.007 18.921 -0.031 -422.425 2296.054 -4310.142 0.389 -0.301 -0.175 0.06 -0.52 0.85 0.05
1 2.09 209 0.929 -8.217 4.525 -0.793 21.057 -0.977 -634.087 2361.562 -4213.305 0.543 -0.348 0.004 0.06 -0.52 0.85 0.05
1 2.10 210 0.661 -8.208 4.506 -1.862 24.506 -2.167 -484.035 2286.610 -4393.338 0.778 -0.356 0.036 0.06 -0.51 0.85 0.05
1 2.11 211 0.661 -8.466 4.267 -1.404 26.398 -3.815 -543.996 2346.571 -4303.247 0.759 -0.097 0.282 0.05 -0.51 0.85 0.05
1 2.12 212 0.488 -8.615 4.243 -0.671 28.137 -5.829 -394.093 2226.649 -4303.247 0.914 0.051 0.311 0.05 -0.51 0.85 0.05
1 2.13 213 0.316 -8.931 4.367 -0.763 28.992 -7.019 -394.093 2226.649 -4303.247 1.068 0.367 0.191 0.05 -0.51 0.85 0.05
1 2.14 214 0.062 -9.232 4.209 -0.610 29.999 -10.345 -424.074 2226.649 -4183.325 1.304 0.668 0.354 0.05 -0.51 0.85 0.05
1 2.15 215 -0.158 -9.635 4.176 -1.312 30.243 -12.238 -424.074 2226.649 -4183.325 1.507 1.070 0.392 0.05 -0.51 0.85 0.06
1 2.16 216 -0.441 -9.692 4.061 -1.770 29.694 -14.221 -499.025 2376.552 -4153.344 1.774 1.126 0.510 0.04 -0.51 0.85 0.06
1 2.17 217 -0.867 -9.955 3.730 -0.183 26.123 -14.130 -289.012 2271.620 -4123.364 2.172 1.385 0.840 0.04 -0.51 0.85 0.06
1 2.18 218 -0.943 -10.214 3.749 2.319 22.614 -12.543 -348.973 2151.548 -4258.276 2.233 1.641 0.820 0.04 -0.52 0.85 0.06
1 2.19 219 -1.025 -10.257 3.730 6.866 18.127 -10.864 -409.083 2256.630 -4288.256 2.308 1.687 0.846 0.04 -0.51 0.85 0.07
1 2.20 220 -1.111 -10.291 3.745 10.742 12.329 -7.721 -409.083 2256.630 -4288.256 2.396 1.729 0.847 0.04 -0.51 0.85 0.07
1 2.21 221 -1.010 -10.382 3.931 12.726 5.981 -3.784 -333.982 2331.581 -4318.237 2.297 1.830 0.679 0.04 -0.51 0.85 0.07
1 2.22 222 -0.584 -9.975 4.147 10.315 -2.625 3.510 -333.982 2331.581 -4318.237 1.872 1.433 0.482 0.04 -0.51 0.86 0.07
1 2.23 223 -0.321 -9.735 3.931 6.592 -7.629 7.813 -304.002 2286.610 -4213.305 1.607 1.202 0.714 0.04 -0.51 0.86 0.07
1 2.24 224 0.283 -9.175 3.893 3.754 -9.674 11.108 -289.012 2271.620 -4378.348 0.975 0.641 0.757 0.04 -0.51 0.86 0.07
1 2.25 225 0.627 -9.012 3.778 0.732 -10.223 11.536 -333.982 2166.539 -4348.367 0.615 0.474 0.870 0.04 -0.51 0.86 0.06
1 2.26 226 0.828 -8.868 3.749 -0.214 -8.850 10.590 -348.973 2376.552 -4378.348 0.400 0.325 0.892 0.04 -0.51 0.86 0.06
1 2.27 227 1.020 -8.931 3.654 -0.183 -5.463 9.125 -348.973 2376.552 -4378.348 0.198 0.382 0.981 0.04 -0.51 0.86 0.06
1 2.28 228 1.001 -9.261 3.745 5.219 2.502 7.141 -244.041 2076.597 -4228.295 0.208 0.708 0.884 0.04 -0.51 0.86 0.06
1 2.29 229 0.843 -9.299 3.812 11.780 9.033 4.211 -244.041 2076.597 -4228.295 0.354 0.745 0.817 0.03 -0.51 0.86 0.06
1 2.30 230 0.599 -9.539 3.644 20.111 14.862 1.556 -333.982 2211.659 -4243.286 0.585 0.987 0.994 0.03 -0.51 0.86 0.06
1 2.31 231 0.402 -9.687 3.793 26.276 19.318 -2.380 -244.041 2196.519 -4303.247 0.766 1.145 0.866 0.03 -0.51 0.86 0.06
1 2.32 232 0.096 -9.836 3.572 32.715 21.332 -7.538 -348.973 2151.548 -4258.276 1.042 1.324 1.150 0.03 -0.51 0.86 0.06
1 2.33 233 -0.311 -9.817 3.577 33.539 21.118 -9.583 -259.031 2166.539 -4348.367 1.435 1.325 1.183 0.03 -0.51 0.86 0.06
1 2.34 234 -0.292 -9.659 3.563 31.983 18.463 -11.108 -259.031 2166.539 -4348.367 1.404 1.186 1.235 0.03 -0.5 0.86 0.07
1 2.35 235 -0.498 -9.730 3.649 29.541 14.465 -11.597 -185.279 2259.628 -4164.887 1.602 1.277 1.184 0.03 -0.5 0.86 0.07
1 2.36 236 -0.484 -9.663 3.730 23.499 7.751 -8.820 -185.279 2259.628 -4164.887 1.580 1.226 1.133 0.03 -0.5 0.86 0.07
1 2.37 237 -0.417 -9.673 3.903 19.898 2.991 -6.714 -380.302 2139.556 -4389.890 1.506 1.249 0.986 0.03 -0.5 0.86 0.07
1 2.38 238 -0.311 -9.534 3.879 17.609 -1.862 -4.669 -215.260 2124.566 -4254.828 1.395 1.121 1.029 0.02 -0.5 0.86 0.07
1 2.39 239 -0.306 -9.405 3.941 16.937 -7.172 -2.838 -320.191 1959.673 -4254.828 1.384 1.008 0.996 0.02 -0.5 0.86 0.07
1 2.40 240 -0.120 -9.184 3.917 18.311 -8.820 -2.380 -290.211 2079.595 -4329.929 1.196 0.796 1.035 0.02 -0.5 0.86 0.07
1 2.41 241 -0.019 -9.117 3.927 20.752 -9.796 -2.960 -290.211 2079.595 -4329.929 1.096 0.739 1.042 0.03 -0.5 0.87 0.07
1 2.42 242 0.187 -8.979 3.927 22.919 -10.284 -4.181 -230.250 2019.634 -4239.838 0.895 0.612 1.061 0.03 -0.49 0.87 0.07
1 2.43 243 0.192 -8.749 3.764 26.276 -9.277 -5.585 -230.250 2019.634 -4239.838 0.897 0.397 1.246 0.03 -0.49 0.87 0.07
1 2.44 244 0.225 -8.648 3.711 27.222 -9.460 -7.080 -335.182 2064.605 -4464.841 0.871 0.312 1.324 0.03 -0.49 0.87 0.07
1 2.45 245 0.081 -8.734 3.424 28.870 -9.064 -7.446 -350.322 1854.592 -4434.861 1.024 0.416 1.637 0.03 -0.49 0.87 0.07
1 2.46 246 -0.211 -8.505 2.964 30.274 -9.125 -6.439 -217.059 2054.711 -4429.614 1.334 0.222 2.152 0.03 -0.49 0.87 0.07
1 2.47 247 -0.192 -8.433 2.548 30.884 -11.932 -5.127 -262.029 1874.679 -4414.624 1.322 0.168 2.595 0.03 -0.49 0.87 0.07
1 2.48 248 -0.350 -8.236 2.145 28.870 -17.120 -3.448 -262.029 1874.679 -4414.624 1.492 -0.008 3.029 0.03 -0.48 0.87 0.06
1 2.49 249 -0.436 -8.136 1.901 23.560 -24.597 -2.167 -397.091 1964.770 -4399.634 1.597 -0.085 3.306 0.03 -0.48 0.87 0.06
1 2.50 250 -0.244 -8.208 1.604 9.003 -38.910 0.641 -397.091 1964.770 -4399.634 1.430 0.006 3.627 0.03 -0.48 0.87 0.06
1 2.51 251 0.081 -8.409 1.872 -2.777 -48.248 1.160 -427.072 1814.718 -4474.585 1.134 0.217 3.368 0.04 -0.48 0.87 0.06
1 2.52 252 0.340 -8.955 2.725 -9.155 -54.444 1.862 -336.980 1919.799 -4309.692 0.911 0.764 2.509 0.04 -0.48 0.87 0.06
1 2.53 253 0.790 -9.184 3.884 -7.294 -53.894 0.885 -336.980 1919.799 -4309.692 0.497 0.982 1.323 0.04 -0.48 0.87 0.06
1 2.54 254 1.556 -8.945 5.263 8.270 -44.159 -0.824 -622.095 1934.790 -4324.683 -0.195 0.722 -0.109 0.05 -0.48 0.87 0.05
1 2.55 255 2.227 -8.442 5.761 21.088 -33.905 1.221 -622.095 1934.790 -4324.683 -0.832 0.227 -0.602 0.05 -0.48 0.87 0.05
1 2.56 256 2.782 -7.676 6.177 30.731 -20.783 5.981 -457.052 1949.780 -4309.692 -1.362 -0.518 -0.992 0.05 -0.48 0.87 0.05
1 2.57 257 2.916 -7.283 6.029 26.123 -9.369 14.984 -457.052 1949.780 -4309.692 -1.483 -0.882 -0.803 0.06 -0.48 0.87 0.05
1 2.58 258 3.122 -7.556 5.832 -10.101 -3.357 32.105 -697.046 1814.718 -4399.634 -1.694 -0.589 -0.573 0.06 -0.48 0.88 0.05
1 2.59 259 3.084 -8.198 5.469 -37.537 -0.305 43.274 -577.124 1889.819 -4249.582 -1.676 0.052 -0.206 0.06 -0.48 0.88 0.05
1 2.60 260 3.055 -8.744 5.325 -48.126 9.003 50.629 -577.124 1889.819 -4249.582 -1.683 0.569 -0.097 0.06 -0.48 0.87 0.04
1 2.61 261 2.710 -8.921 5.038 -28.809 33.112 56.824 -652.075 1784.737 -4579.667 -1.465 0.659 0.083 0.05 -0.49 0.87 0.04
1 2.62 262 2.227 -8.303 5.157 -6.897 49.713 56.946 -652.075 1784.737 -4579.667 -1.071 0.013 -0.061 0.05 -0.49 0.87 0.04
1 2.63 263 1.829 -7.662 5.258 11.475 63.477 54.901 -472.042 1859.688 -4369.653 -0.778 -0.638 -0.154 0.04 -0.49 0.87 0.04
1 2.64 264 1.551 -6.785 5.368 17.944 72.693 50.751 -472.042 1859.688 -4369.653 -0.613 -1.509 -0.233 0.04 -0.49 0.87 0.03
1 2.65 265 1.207 -6.369 5.603 11.139 78.430 46.753 -652.075 1814.718 -4399.634 -0.386 -1.916 -0.432 0.03 -0.49 0.87 0.03
1 2.66 266 0.623 -6.374 6.307 -17.029 82.123 39.185 -427.072 1934.790 -4474.585 0.077 -1.910 -1.116 0.02 -0.48 0.87 0.03
1 2.67 267 0.029 -7.106 6.757 -40.375 79.010 32.501 -427.072 1934.790 -4474.585 0.554 -1.189 -1.571 0.02 -0.48 0.87 0.03
1 2.68 268 -0.891 -9.405 7.451 -74.005 64.606 17.395 -217.059 1859.688 -4369.653 1.274 1.049 -2.344 0 -0.49 0.87 0.03
1 2.69 269 -1.638 -11.631 7.815 -88.471 49.896 4.547 -217.059 1859.688 -4369.653 1.955 3.215 -2.804 -0 -0.49 0.87 0.04
1 2.70 270 -2.227 -13.700 7.667 -87.830 31.525 -8.270 -96.987 1859.688 -4294.702 2.508 5.216 -2.769 -0.01 -0.5 0.87 0.04
1 2.71 271 -2.557 -14.711 6.958 -64.301 16.632 -19.013 -96.987 1859.688 -4294.702 2.833 6.166 -2.167 -0.01 -0.51 0.86 0.04
1 2.72 272 -2.500 -13.169 6.101 -8.911 8.362 -19.104 -52.016 2024.731 -4309.692 2.792 4.586 -1.379 -0.01 -0.51 0.86 0.04
1 2.73 273 -2.524 -11.114 5.933 2.563 5.341 -11.505 -67.006 2054.711 -4174.630 2.836 2.521 -1.233 -0.01 -0.51 0.86 0.04
1 2.74 274 -2.203 -9.285 5.986 -11.749 0.946 -1.617 -67.006 2054.711 -4174.630 2.530 0.694 -1.282 -0.01 -0.51 0.86 0.04
1 2.75 275 -1.781 -7.892 5.794 -34.729 -8.118 11.200 -7.045 2024.731 -4159.640 2.112 -0.704 -1.098 -0.01 -0.51 0.86 0.04
1 2.76 276 -1.245 -6.953 5.560 -55.329 -29.999 25.818 -81.997 1994.750 -4234.591 1.533 -1.690 -0.949 -0.01 -0.51 0.86 0.04
1 2.77 277 -0.876 -6.857 5.334 -52.918 -48.554 33.234 7.795 2159.793 -4144.650 1.140 -1.819 -0.786 -0.01 -0.52 0.85 0.04
1 2.78 278 -0.488 -7.341 5.258 -35.462 -67.475 39.826 7.795 2159.793 -4144.650 0.738 -1.367 -0.770 -0 -0.52 0.85 0.03
1 2.79 279 0.187 -7.532 5.071 -7.721 -80.170 45.960 -81.997 2069.702 -4234.591 0.054 -1.194 -0.618 -0 -0.52 0.85 0.03
1 2.80 280 1.307 -7.853 5.028 41.077 -78.705 56.214 -96.987 2159.793 -4174.630 -1.075 -0.870 -0.568 0 -0.52 0.85 0.02
1 2.81 281 2.069 -7.829 4.937 66.834 -64.026 61.127 -96.987 2159.793 -4174.630 -1.850 -0.869 -0.428 0 -0.52 0.85 0.01
1 2.82 282 2.691 -7.834 4.731 79.346 -41.992 63.568 -127.117 2174.783 -4129.660 -2.495 -0.820 -0.136 0.01 -0.52 0.86 0.01
1 2.83 283 3.299 -7.978 4.286 61.676 -5.188 63.263 -187.078 2099.682 -4234.591 -3.182 -0.563 0.518 -0.01 0.5 -0.86 0
1 2.84 284 3.553 -8.552 4.444 22.827 14.374 64.972 -262.029 1994.750 -4084.689 -3.495 0.050 0.430 -0.01 0.5 -0.87 0.01
1 2.85 285 3.687 -9.400 4.832 -37.903 23.010 65.491 -262.029 1994.750 -4084.689 -3.700 0.904 0.052 -0.01 0.5 -0.87 0.01
1 2.86 286 4.434 -10.444 5.449 -96.466 26.428 62.653 -142.107 1964.770 -4249.582 -4.535 1.908 -0.636 -0 0.5 -0.86 0.01
1 2.87 287 5.574 -11.497 6.393 -114.075 42.297 44.190 -52.016 1994.750 -4159.640 -5.774 2.887 -1.717 0 0.51 -0.86 0.02
1 2.88 288 5.785 -11.627 6.436 -74.066 59.662 22.797 -52.016 1994.750 -4159.640 -6.076 2.936 -1.916 0.01 0.52 -0.85 0.02
1 2.89 289 5.339 -11.009 6.105 -16.876 74.341 -0.122 22.785 1949.780 -4159.640 -5.706 2.262 -1.702 0.01 0.52 -0.85 0.02
1 2.90 290 3.826 -9.778 5.526 59.448 83.771 -27.802 22.785 2069.702 -4159.640 -4.281 1.026 -1.140 0.02 0.53 -0.85 0.01
1 2.91 291 2.279 -9.089 5.028 90.180 80.811 -37.476 84.245 2081.994 -3937.335 -2.749 0.382 -0.555 0.02 0.52 -0.85 0.01
1 2.92 292 0.881 -8.332 4.247 103.974 66.529 -40.161 84.245 2081.994 -3937.335 -1.343 -0.311 0.348 -0.03 -0.51 0.86 0
1 2.93 293 -0.517 -7.801 3.826 101.868 42.389 -40.802 -50.667 2142.104 -4057.407 0.078 -0.771 0.904 -0.03 -0.51 0.86 0.01
1 2.94 294 -1.695 -7.398 3.055 89.081 12.848 -41.779 9.144 2007.042 -4177.329 1.286 -1.103 1.803 -0.03 -0.5 0.86 0.01
1 2.95 295 -1.657 -6.814 3.041 56.976 -35.004 -40.161 9.144 2007.042 -4177.329 1.300 -1.625 1.928 -0.03 -0.5 0.87 0.01
1 2.96 296 -1.101 -6.647 3.093 28.595 -56.427 -34.790 159.196 1856.990 -4177.329 0.819 -1.745 1.960 -0.03 -0.49 0.87 0.01
1 2.97 297 -0.579 -6.757 3.362 0.610 -62.409 -27.893 174.187 1872.130 -4342.371 0.384 -1.608 1.741 -0.02 -0.49 0.87 0.02
1 2.98 298 0.498 -7.140 3.453 -22.278 -55.359 -19.409 52.766 1889.969 -4249.432 -0.528 -1.230 1.646 -0.01 -0.49 0.87 0.01
1 2.99 299 0.924 -7.413 3.582 -18.890 -44.434 -15.289 52.766 1889.969 -4249.432 -0.889 -0.973 1.489 -0.01 -0.49 0.87 0.01
1 3.00 300 1.336 -7.815 3.730 -7.507 -32.257 -13.367 52.766 1889.969 -4324.383 -1.249 -0.583 1.321 -0 -0.49 0.87 0.01
1 3.01 301 1.647 -7.652 3.797 1.892 -20.142 -11.658 -127.117 1874.979 -4279.412 -1.520 -0.748 1.249 -0 -0.49 0.87 0.01
1 3.02 302 1.690 -8.030 3.553 -2.533 -3.540 -10.498 -127.117 1874.979 -4279.412 -1.535 -0.367 1.497 0 -0.49 0.87 0.01
1 3.03 303 1.920 -8.380 3.290 -13.794 2.716 -10.712 -67.006 1740.066 -4144.500 -1.740 -0.018 1.757 0 -0.49 0.87 0.01
1 3.04 304 1.973 -8.983 3.376 -25.299 6.592 -10.529 -217.059 1859.988 -4294.402 -1.768 0.574 1.651 0 -0.49 0.87 0.02
1 3.05 305 2.050 -10.051 3.462 -28.168 11.993 -8.637 -142.107 1889.969 -4174.480 -1.803 1.592 1.479 0 -0.5 0.87 0.02
1 3.06 306 2.308 -10.947 3.788 -16.113 18.555 -6.165 -142.107 1889.969 -4174.480 -2.054 2.465 1.115 0 -0.5 0.87 0.02
1 3.07 307 2.160 -11.081 3.965 6.042 28.961 -2.838 -142.107 1889.969 -4294.402 -1.913 2.592 0.925 0 -0.5 0.87 0.02
1 3.08 308 1.853 -11.066 4.061 35.401 42.755 2.777 -142.107 1859.988 -4219.451 -1.629 2.588 0.849 0 -0.5 0.87 0.02
1 3.09 309 1.513 -10.520 4.037 62.012 55.664 7.965 -142.107 1859.988 -4219.451 -1.328 2.075 0.931 -0 -0.5 0.87 0.02
1 3.10 310 0.565 -9.007 3.606 85.541 68.329 15.045 -157.098 1844.998 -4129.510 -0.437 0.614 1.452 -0.01 -0.49 0.87 0.02
1 3.11 311 0.057 -7.796 3.510 82.550 68.024 17.212 -81.997 1874.979 -4129.510 0.004 -0.535 1.652 -0.01 -0.49 0.87 0.03
1 3.12 312 -0.426 -6.187 3.381 49.103 58.777 18.189 -22.036 1935.089 -4219.451 0.340 -2.024 1.968 -0.02 -0.48 0.88 0.03
1 3.13 313 -0.579 -5.660 3.481 13.763 48.493 18.127 -22.036 1935.089 -4219.451 0.425 -2.516 1.919 -0.02 -0.47 0.88 0.03
1 3.14 314 -0.594 -5.665 3.453 -24.353 36.957 17.456 112.727 1785.037 -4294.402 0.378 -2.507 1.953 -0.03 -0.47 0.88 0.03
1 3.15 315 -0.546 -6.043 3.567 -57.099 24.139 14.618 67.756 1755.057 -4204.461 0.282 -2.154 1.797 -0.03 -0.47 0.88 0.03
1 3.16 316 -0.148 -7.001 3.237 -83.069 3.265 8.423 67.756 1755.057 -4204.461 -0.149 -1.247 2.047 -0.03 -0.48 0.88 0.03
1 3.17 317 0.244 -7.738 3.223 -81.269 -6.378 5.157 187.828 1634.985 -4219.451 -0.559 -0.573 1.960 -0.03 -0.48 0.87 0.03
1 3.18 318 0.536 -8.428 3.079 -67.505 -10.559 2.899 112.727 1785.037 -4219.451 -0.855 0.052 1.999 -0.03 -0.49 0.87 0.03
1 3.19 319 0.838 -9.304 3.141 -44.129 -7.843 2.045 112.727 1785.037 -4219.451 -1.153 0.874 1.846 -0.03 -0.49 0.87 0.03
1 3.20 320 0.512 -9.793 4.281 3.021 7.050 0.549 82.746 1740.066 -4039.418 -0.809 1.295 0.591 -0.03 -0.5 0.86 0.02
1 3.21 321 0.244 -9.582 4.846 40.131 19.287 -0.977 172.837 1800.027 -4129.510 -0.541 1.089 0.035 -0.03 -0.5 0.87 0.03
1 3.22 322 0.072 -8.734 5.234 75.226 31.586 -5.310 172.837 1920.099 -4279.412 -0.381 0.278 -0.291 -0.03 -0.5 0.87 0.03
1 3.23 323 -0.431 -7.499 5.665 101.410 43.732 -10.590 172.837 1920.099 -4279.412 0.107 -0.895 -0.617 -0.03 -0.49 0.87 0.03
1 3.24 324 -1.250 -6.484 6.297 83.741 50.293 -23.377 172.837 1920.099 -4159.490 0.907 -1.827 -1.114 -0.04 -0.48 0.87 0.03
1 3.25 325 -1.863 -6.690 6.781 37.720 43.732 -33.356 112.727 1815.018 -4144.500 1.502 -1.542 -1.475 -0.04 -0.48 0.88 0.03
1 3.26 326 -2.337 -7.901 7.111 -14.496 30.792 -42.359 112.727 1815.018 -4144.500 1.970 -0.283 -1.732 -0.04 -0.47 0.88 0.04
1 3.27 327 -2.595 -9.510 7.015 -57.587 3.632 -52.063 82.746 1740.066 -4174.480 2.284 1.294 -1.682 -0.04 -0.48 0.88 0.04
1 3.28 328 -2.260 -10.046 6.900 -47.974 -10.986 -52.002 307.750 1634.985 -4219.451 2.015 1.783 -1.638 -0.04 -0.48 0.88 0.05
1 3.29 329 -1.575 -10.099 6.843 -18.036 -21.240 -49.164 217.808 1680.105 -4084.389 1.407 1.802 -1.631 -0.04 -0.48 0.87 0.05
1 3.30 330 -0.881 -9.491 6.785 9.125 -28.961 -41.870 217.808 1680.105 -4084.389 0.792 1.185 -1.585 -0.03 -0.48 0.87 0.05
1 3.31 331 0.402 -8.136 6.699 12.787 -44.342 -27.680 322.740 1680.105 -4084.389 -0.415 -0.159 -1.481 -0.03 -0.48 0.87 0.05
1 3.32 332 1.235 -7.604 6.532 -7.935 -57.007 -17.944 187.828 1859.988 -4174.480 -1.177 -0.678 -1.293 -0.03 -0.48 0.87 0.06
1 3.33 333 1.930 -7.714 6.072 -39.124 -68.115 -12.299 187.828 1859.988 -4174.480 -1.798 -0.563 -0.827 -0.02 -0.48 0.87 0.05
1 3.34 334 2.327 -8.509 5.718 -89.630 -80.048 -9.705 112.727 1859.988 -4069.399 -2.029 0.168 -0.582 -0.01 -0.49 0.87 0.05
1 3.35 335 2.457 -9.141 5.502 -114.350 -84.778 -7.965 7.795 1545.043 -4114.520 -2.068 0.729 -0.490 -0.01 -0.49 0.87 0.05
1 3.36 336 2.605 -9.807 5.646 -125.183 -86.487 -4.303 97.736 1800.027 -4084.389 -2.135 1.308 -0.790 0 -0.5 0.86 0.05
1 3.37 337 2.605 -10.195 6.115 -121.064 -80.963 0.641 97.736 1800.027 -4084.389 -2.068 1.605 -1.429 0.01 -0.51 0.86 0.04
1 3.38 338 2.782 -10.204 6.541 -106.049 -68.634 6.714 -52.016 1800.027 -4084.389 -2.192 1.532 -2.016 0.01 -0.52 0.85 0.04
1 3.39 339 2.921 -10.027 7.451 -73.242 -44.983 5.615 -232.049 2099.982 -4054.409 -2.296 1.285 -3.066 0.01 -0.53 0.85 0.04
1 3.40 340 2.926 -9.520 7.872 -48.035 -26.733 -2.899 -231.899 2099.532 -4055.008 -2.277 0.725 -3.598 0.02 -0.53 0.85 0.04
1 3.41 341 2.931 -9.261 8.184 -19.196 -4.517 -16.083 -216.909 2129.663 -3994.897 -2.260 0.432 -3.984 0.02 -0.53 0.84 0.03
1 3.42 342 2.801 -8.509 8.361 26.093 41.168 -34.515 -321.840 2354.666 -3994.897 -2.081 -0.329 -4.189 0.02 -0.54 0.84 0.04
1 3.43 343 2.107 -8.064 8.428 52.368 77.362 -47.852 -381.801 2339.526 -4084.989 -1.367 -0.748 -4.204 0.02 -0.53 0.84 0.04
1 3.44 344 0.819 -7.916 8.088 66.925 109.223 -63.904 -381.801 2339.526 -4084.989 -0.065 -0.852 -3.775 0.02 -0.53 0.85 0.05
1 3.45 345 -0.570 -8.212 7.475 63.782 126.191 -81.208 -351.821 2204.614 -3815.015 1.339 -0.501 -3.056 0.01 -0.52 0.85 0.06
1 3.46 346 -2.739 -9.745 5.746 21.729 108.155 -97.534 -336.831 2069.552 -3874.976 3.535 1.083 -1.232 0.01 -0.52 0.85 0.07
1 3.47 347 -4.022 -11.387 4.109 -23.071 67.475 -101.471 -336.831 2069.552 -3874.976 4.865 2.760 0.463 0 -0.52 0.85 0.08
1 3.48 348 -4.233 -13.619 2.433 -51.758 -4.761 -80.994 -291.860 2054.562 -3994.897 5.259 4.980 2.080 0 -0.52 0.85 0.09
1 3.49 349 -3.759 -13.738 2.375 -29.694 -45.349 -59.387 -156.798 2099.532 -3949.927 4.897 5.081 2.073 0.01 -0.52 0.85 0.1
1 3.50 350 -2.107 -12.843 3.654 5.402 -64.759 -34.729 -81.847 1994.601 -4024.878 3.352 4.182 0.759 0.01 -0.52 0.85 0.1
1 3.51 351 -2.241 -11.612 4.372 36.621 -64.423 -10.315 -81.847 1994.601 -4024.878 3.569 2.967 0.047 0.02 -0.52 0.85 0.1
1 3.52 352 -2.528 -10.190 4.362 65.979 -64.270 6.805 -261.879 2219.604 -3979.907 3.909 1.577 0.103 0.02 -0.52 0.85 0.1
1 3.53 353 -2.389 -8.686 4.137 98.542 -77.851 22.217 -321.840 2159.643 -3934.937 3.803 0.122 0.412 0.03 -0.52 0.85 0.09
1 3.54 354 -1.365 -6.958 4.075 102.173 -85.572 31.647 -321.840 2159.643 -3934.937 2.777 -1.549 0.581 0.03 -0.51 0.85 0.09
1 3.55 355 -0.723 -6.091 4.161 92.072 -84.229 39.215 -411.932 2069.552 -3904.956 2.146 -2.350 0.610 0.04 -0.51 0.86 0.08
1 3.56 356 0.014 -5.133 4.152 62.409 -62.683 42.053 -471.893 2054.562 -3994.897 1.429 -3.192 0.813 0.04 -0.49 0.87 0.07
1 3.57 357 0.268 -4.985 3.821 38.025 -40.589 39.246 -456.902 1844.548 -3949.927 1.167 -3.305 1.204 0.05 -0.49 0.87 0.07
1 3.58 358 0.469 -5.176 3.433 13.580 -14.984 34.149 -456.902 1844.548 -3949.927 0.944 -3.097 1.626 0.05 -0.49 0.87 0.06
1 3.59 359 0.345 -5.593 3.041 -4.883 8.209 28.687 -486.883 1724.626 -4024.878 1.034 -2.679 2.029 0.05 -0.49 0.87 0.06
1 3.60 360 -0.014 -6.656 2.490 -9.979 35.736 19.074 -456.902 1799.578 -4084.989 1.349 -1.627 2.575 0.05 -0.49 0.87 0.06
1 3.61 361 -0.603 -7.513 2.366 2.167 45.746 13.245 -456.902 1799.578 -4084.989 1.887 -0.781 2.694 0.04 -0.49 0.87 0.06
1 3.62 362 -0.967 -7.959 2.423 19.653 49.927 8.728 -396.792 1814.568 -3964.917 2.199 -0.339 2.644 0.04 -0.49 0.87 0.06
1 3.63 363 -1.537 -8.351 3.060 40.497 44.922 9.308 -486.883 1799.578 -4024.878 2.670 0.090 2.088 0.03 -0.49 0.87 0.06
1 3.64 364 -1.714 -8.610 3.505 45.807 36.865 12.939 -501.873 1889.669 -4114.969 2.791 0.376 1.699 0.03 -0.48 0.87 0.06
1 3.65 365 -1.891 -8.998 3.759 44.312 23.468 18.585 -501.873 1889.669 -4114.969 2.903 0.791 1.500 0.03 -0.48 0.87 0.06
1 3.66 366 -1.968 -8.959 3.812 38.757 4.089 23.529 -306.850 1754.607 -4024.878 2.919 0.777 1.496 0.02 -0.48 0.88 0.06
1 3.67 367 -1.901 -9.295 3.879 31.891 -20.050 25.482 -321.840 1739.617 -4219.901 2.801 1.131 1.468 0.02 -0.48 0.88 0.06
1 3.68 368 -1.336 -9.826 3.740 20.111 -60.608 22.919 -321.840 1739.617 -4219.901 2.206 1.675 1.631 0.02 -0.47 0.88 0.05
1 3.69 369 -0.603 -10.248 3.903 13.336 -83.466 19.867 -305.801 1646.827 -4132.508 1.468 2.102 1.478 0.02 -0.47 0.88 0.05
1 3.70 370 0.239 -10.702 3.692 8.698 -100.952 17.639 -305.801 1646.827 -4132.508 0.656 2.562 1.690 0.03 -0.47 0.88 0.04
1 3.71 371 2.164 -10.631 3.371 9.522 -113.678 12.268 -320.791 1631.837 -4177.479 -1.139 2.502 2.006 0.04 -0.47 0.88 0.03
1 3.72 372 3.443 -10.358 3.108 14.191 -113.373 7.080 -320.791 1631.837 -4177.479 -2.337 2.237 2.266 0.05 -0.47 0.88 0.03
1 3.73 373 4.870 -9.596 3.055 19.959 -104.859 0.977 -425.723 1811.720 -4042.566 -3.678 1.489 2.320 0.06 -0.47 0.88 0.03
1 3.74 374 5.483 -8.461 2.964 25.086 -85.449 -6.439 -620.746 1631.837 -4147.498 -4.206 0.373 2.420 0.06 -0.47 0.88 0.02
1 3.75 375 5.277 -7.350 3.184 23.041 -48.065 -11.871 -620.746 1631.837 -4147.498 -3.909 -0.717 2.208 0.07 -0.47 0.88 0.02
1 3.76 376 3.338 -5.919 3.400 9.094 -32.654 -13.458 -635.736 1571.726 -4057.557 -1.880 -2.128 2.001 0.07 -0.47 0.88 0.02
1 3.77 377 2.653 -5.770 3.994 -17.151 -25.055 -13.794 -635.736 1571.726 -4057.557 -1.135 -2.262 1.413 0.08 -0.47 0.88 0.02
1 3.78 378 2.639 -5.976 6.915 -52.918 -4.395 -13.855 -785.338 1450.155 -4089.036 -1.049 -2.086 -1.575 0.08 -0.47 0.88 0.02
1 3.79 379 2.763 -6.311 7.978 -60.852 27.222 -14.771 -785.338 1450.155 -4089.036 -1.149 -1.782 -2.692 0.08 -0.47 0.88 0.02
1 3.80 380 2.241 -6.129 7.815 -53.559 62.103 -14.862 -875.430 1660.168 -4119.167 -0.629 -1.994 -2.575 0.08 -0.48 0.88 0.02
1 3.81 381 1.441 -5.349 6.647 -29.144 81.909 -16.815 -785.338 1675.159 -4164.137 0.142 -2.793 -1.428 0.08 -0.48 0.87 0.03
1 3.82 382 1.302 -5.277 4.942 -1.312 77.729 -11.566 -785.338 1675.159 -4164.137 0.237 -2.871 0.281 0.07 -0.48 0.87 0.03
1 3.83 383 1.642 -6.359 4.856 1.007 55.023 11.658 -860.439 1750.110 -4089.036 -0.152 -1.784 0.389 0.07 -0.48 0.88 0.04
1 3.84 384 1.997 -7.930 5.378 -18.707 36.377 31.220 -860.439 1750.110 -4089.036 -0.562 -0.211 -0.113 0.06 -0.48 0.88 0.04
1 3.85 385 2.706 -9.663 6.043 -27.527 17.578 53.131 -665.417 1870.182 -4059.056 -1.402 1.478 -0.815 0.06 -0.48 0.87 0.03
1 3.86 386 2.423 -9.975 6.211 -4.211 23.346 58.777 -665.417 1870.182 -4059.056 -1.204 1.761 -1.006 0.05 -0.48 0.87 0.03
1 3.87 387 1.269 -9.625 6.398 25.269 33.478 59.540 -635.436 1795.081 -4059.056 -0.145 1.404 -1.182 0.05 -0.48 0.87 0.03
1 3.88 388 0.364 -9.151 6.532 43.976 42.694 54.138 -575.325 1705.139 -3999.095 0.658 0.947 -1.270 0.05 -0.48 0.88 0.03
1 3.89 389 -0.661 -8.883 6.805 41.840 47.730 44.830 -575.325 1705.139 -3999.095 1.582 0.709 -1.478 0.04 -0.48 0.88 0.02
1 3.90 390 -2.581 -8.912 7.418 -13.702 35.278 33.905 -470.394 1660.168 -4224.098 3.410 0.762 -2.038 0.04 -0.47 0.88 0.02
1 3.91 391 -3.175 -9.438 7.987 -72.449 17.365 32.837 -470.394 1660.168 -4224.098 3.928 1.285 -2.603 0.03 -0.47 0.88 0.02
1 3.92 392 -3.079 -10.540 8.074 -161.652 -0.305 34.180 -485.384 1645.178 -4029.075 3.726 2.238 -2.906 0.03 -0.49 0.87 0.02
1 3.93 393 -2.974 -10.990 7.959 -186.646 -4.272 34.882 -485.384 1645.178 -4029.075 3.578 2.550 -3.014 0.03 -0.5 0.87 0.02
1 3.94 394 -3.017 -12.048 8.026 -225.373 -5.951 31.464 -259.331 1747.562 -4091.584 3.583 3.449 -3.360 0.03 -0.51 0.86 0.01
1 3.95 395 -3.175 -12.038 7.796 -210.786 -5.066 27.069 -469.344 1882.624 -4076.594 3.705 3.282 -3.427 0.02 -0.53 0.85 0.01
1 3.96 396 -3.108 -11.445 7.432 -167.634 -14.282 25.818 -469.344 1882.624 -4076.594 3.606 2.556 -3.335 0.02 -0.54 0.84 0.01
1 3.97 397 -2.447 -10.928 7.250 -83.008 -39.459 30.640 -349.422 2077.497 -3821.610 2.922 1.943 -3.364 0.02 -0.55 0.84 0.01
1 3.98 398 -0.852 -10.339 6.398 -28.046 -51.636 39.063 -349.422 2077.497 -3821.610 1.308 1.296 -2.648 0.03 -0.56 0.83 0
1 3.99 399 0.460 -10.420 5.665 26.367 -57.892 51.178 -394.393 2122.617 -3821.610 -0.027 1.351 -1.975 -0.03 0.56 -0.83 0
1 4.00 400 1.925 -11.143 4.664 118.531 -52.735 70.130 -333.233 2254.681 -3734.967 -1.576 2.117 -0.862 -0.03 0.55 -0.83 0.01
1 4.01 401 3.213 -11.038 4.602 181.244 -38.696 78.614 -468.145 2224.701 -3719.977 -2.934 2.090 -0.615 -0.03 0.54 -0.84 0.02
1 4.02 402 4.305 -10.233 5.009 215.058 -12.207 83.954 -468.145 2269.671 -3719.977 -4.114 1.405 -0.758 -0.03 0.53 -0.85 0.03
1 4.03 403 4.884 -9.003 5.770 188.691 17.700 89.386 -468.145 2269.671 -3719.977 -4.804 0.317 -1.232 -0.02 0.52 -0.85 0.03
1 4.04 404 3.678 -7.542 5.737 43.793 27.344 93.323 -408.184 2164.590 -3734.967 -3.733 -1.021 -0.972 -0.02 0.51 -0.86 0.04
1 4.05 405 2.907 -7.360 5.397 -62.836 8.972 84.595 -408.184 2164.590 -3734.967 -3.089 -1.145 -0.531 -0.01 0.5 -0.86 0.04
1 4.06 406 2.672 -7.892 4.635 -115.692 -9.003 66.193 -258.132 1984.707 -3989.951 -2.950 -0.633 0.190 -0.01 0.5 -0.86 0.05
1 4.07 407 2.897 -9.031 3.702 -76.966 -8.698 31.128 -408.184 1909.606 -4064.902 -3.274 0.362 0.852 -0.01 0.52 -0.85 0.06
1 4.08 408 3.041 -9.094 3.309 -23.895 1.526 11.322 -288.262 2044.668 -3974.960 -3.422 0.379 1.158 -0.01 0.52 -0.85 0.06
1 4.09 409 3.199 -8.576 3.295 12.695 7.935 -2.289 -228.151 2059.658 -3839.898 -3.567 -0.151 1.149 -0.01 0.52 -0.85 0.06
1 4.10 410 3.457 -7.949 3.251 26.856 9.186 -13.153 -228.151 2059.658 -3839.898 -3.798 -0.770 1.210 -0.01 0.52 -0.85 0.06
1 4.11 411 3.783 -7.317 3.060 30.640 4.944 -25.086 -228.151 2014.688 -3959.970 -4.080 -1.386 1.435 -0.01 0.52 -0.85 0.05
1 4.12 412 3.893 -6.728 2.739 41.382 -6.561 -45.075 -228.151 2014.688 -3959.970 -4.138 -1.956 1.797 -0.02 0.52 -0.85 0.05
1 4.13 413 3.773 -6.402 3.060 57.312 -6.958 -52.643 -318.243 2044.668 -3944.980 -3.959 -2.255 1.529 -0.02 0.52 -0.86 0.05
1 4.14 414 3.175 -6.072 3.371 76.813 4.456 -53.406 -303.252 2014.688 -3885.019 -3.286 -2.548 1.290 -0.02 0.51 -0.86 0.05
1 4.15 415 2.198 -5.593 3.840 92.560 33.203 -44.953 -378.204 1909.606 -3915.000 -2.187 -2.908 1.034 -0.02 0.5 -0.86 0.04
1 4.16 416 1.432 -5.425 4.061 78.400 52.277 -35.980 -333.233 1864.635 -3959.970 -1.393 -3.006 0.934 -0.02 0.49 -0.87 0.03
1 4.17 417 0.670 -5.880 4.315 42.175 65.521 -25.787 -333.233 1864.635 -3959.970 -0.632 -2.495 0.773 -0.02 0.49 -0.87 0.03
1 4.18 418 0.081 -6.498 4.238 -7.111 66.193 -14.252 -211.662 1771.096 -4008.539 -0.065 -1.853 0.890 -0.02 0.49 -0.87 0.03
1 4.19 419 -0.067 -8.639 3.347 -67.780 34.119 2.136 -211.662 1771.096 -4008.539 0.048 0.273 1.757 -0.01 0.49 -0.87 0.02
1 4.20 420 0.192 -9.908 3.089 -75.379 -1.984 7.965 -226.802 1740.966 -3918.447 -0.242 1.496 1.940 -0.01 0.49 -0.87 0.02
1 4.21 421 0.804 -11.014 3.165 -53.345 -32.349 5.127 -151.701 1740.966 -3993.398 -0.869 2.539 1.756 -0.01 0.5 -0.87 0.02
1 4.22 422 2.021 -11.560 3.596 2.502 -40.894 -5.920 -301.753 1786.086 -3993.398 -2.041 3.018 1.208 -0.01 0.5 -0.86 0.02
1 4.23 423 2.332 -10.908 3.567 29.816 -19.714 -12.604 -166.691 1876.028 -3903.457 -2.315 2.375 1.252 -0.02 0.5 -0.86 0.03
1 4.24 424 1.858 -10.118 3.515 39.215 8.026 -15.411 -166.691 1876.028 -3903.457 -1.813 1.611 1.349 -0.02 0.5 -0.86 0.02
1 4.25 425 1.188 -9.410 3.453 29.236 28.473 -15.625 -181.682 1831.057 -3963.418 -1.133 0.931 1.462 -0.02 0.5 -0.87 0.02
1 4.26 426 0.464 -8.902 3.400 6.836 34.241 -15.411 -181.682 1831.057 -3963.418 -0.403 0.436 1.535 -0.02 0.5 -0.87 0.02
1 4.27 427 -0.115 -8.868 3.323 -26.367 26.764 -15.961 -256.783 1861.038 -3963.418 0.176 0.398 1.604 -0.01 0.5 -0.87 0.02
1 4.28 428 -0.321 -9.117 3.065 -35.858 24.597 -15.808 -406.685 1980.959 -4038.519 0.383 0.625 1.826 -0.01 0.5 -0.87 0.02
1 4.29 429 -0.694 -9.003 2.600 -22.492 36.987 -11.444 -391.695 1920.999 -4008.539 0.753 0.449 2.182 -0.01 0.51 -0.86 0.01
1 4.30 430 -0.934 -8.346 2.351 -1.678 52.307 -5.005 -256.783 1831.057 -4068.500 0.971 -0.227 2.396 -0.01 0.51 -0.86 0.01
1 4.31 431 -1.077 -7.446 2.121 15.961 68.207 2.441 -256.783 1831.057 -4068.500 1.074 -1.128 2.625 -0 0.51 -0.86 0.01
1 4.32 432 -0.943 -6.407 2.275 23.041 78.369 8.362 -136.711 1846.047 -3828.506 0.884 -2.152 2.497 0 0.51 -0.86 0.01
1 4.33 433 -0.963 -5.770 2.457 16.144 77.912 13.489 -136.711 1846.047 -3828.506 0.832 -2.772 2.344 0.01 0.51 -0.86 0
1 4.34 434 -0.713 -5.900 2.418 -13.031 55.176 20.355 88.143 1950.979 -3978.408 0.509 -2.633 2.398 0.01 0.5 -0.86 0
1 4.35 435 -0.397 -6.599 2.825 -33.112 30.212 22.919 -61.760 1876.028 -4008.539 0.123 -1.938 1.980 0.02 0.5 -0.86 0
1 4.36 436 -0.498 -7.877 4.827 -40.802 0.366 22.919 -61.760 1846.047 -3873.477 0.128 -0.707 -0.113 0.02 0.51 -0.86 0
1 4.37 437 -0.570 -8.256 5.291 -34.912 -6.195 21.759 -1.799 1861.038 -3963.418 0.173 -0.353 -0.625 0.02 0.51 -0.86 0
1 4.38 438 -0.508 -8.610 6.144 -2.197 -25.360 16.327 -1.799 1861.038 -3963.418 0.095 -0.008 -1.497 0.02 0.51 -0.86 0.01
1 4.39 439 -0.579 -8.121 6.723 37.232 -30.487 9.827 13.042 1996.100 -3753.405 0.166 -0.486 -2.056 0.02 0.51 -0.86 0.01
1 4.40 440 -0.484 -7.528 7.010 80.750 -23.468 2.106 13.042 1996.100 -3753.405 0.081 -1.037 -2.264 0.02 0.51 -0.86 0.01
1 4.41 441 -0.953 -8.437 7.801 94.727 -6.226 -17.151 28.182 1906.008 -3963.418 0.566 -0.053 -2.922 0.02 0.5 -0.87 0.01
1 4.42 442 -1.743 -10.161 8.256 56.244 -2.289 -33.966 -46.770 1861.038 -3813.516 1.380 1.749 -3.241 0.02 0.49 -0.87 0.01
1 4.43 443 -2.404 -11.775 8.011 1.099 -6.500 -51.483 -46.770 1861.038 -3813.516 2.082 3.415 -2.908 0.01 0.49 -0.87 0.01
1 4.44 444 -1.719 -11.727 7.384 -44.495 -23.590 -69.763 -16.789 1725.976 -3978.408 1.554 3.353 -2.296 0.01 0.49 -0.87 0
1 4.45 445 -0.263 -9.908 6.829 -48.706 -38.452 -71.717 -16.789 1725.976 -3978.408 0.211 1.497 -1.799 -0 -0.49 0.87 0
1 4.46 446 1.106 -8.241 6.153 -55.023 -47.394 -68.115 28.182 1710.985 -4038.519 -1.035 -0.206 -1.186 0 -0.5 0.87 0.01
1 4.47 447 2.021 -7.121 5.291 -73.761 -51.178 -60.761 28.182 1710.985 -4038.519 -1.822 -1.367 -0.396 0.01 -0.5 0.87 0.01
1 4.48 448 2.691 -6.417 4.678 -106.995 -46.112 -47.913 -151.701 1935.989 -3993.398 -2.366 -2.123 0.118 0.01 -0.51 0.86 0.01
1 4.49 449 2.897 -6.311 4.908 -114.807 -33.722 -38.330 -331.734 1861.038 -4068.500 -2.470 -2.299 -0.247 0.02 -0.51 0.86 0.01
1 4.50 450 2.782 -6.637 5.483 -113.465 -15.228 -28.504 -331.734 1861.038 -4068.500 -2.274 -2.049 -0.974 0.02 -0.52 0.85 0.01
1 4.51 451 2.318 -7.532 6.819 -110.199 6.348 -20.142 -301.753 2086.041 -3738.415 -1.703 -1.291 -2.599 0.03 -0.53 0.85 0.02
1 4.52 452 1.824 -8.528 7.633 -104.859 12.421 -19.104 -301.753 2086.041 -3738.415 -1.174 -0.352 -3.539 0.03 -0.54 0.84 0.02
1 4.53 453 1.513 -9.893 8.572 -90.302 12.299 -21.881 -301.753 2056.061 -3813.516 -0.844 0.953 -4.614 0.03 -0.55 0.84 0.02
1 4.54 454 1.259 -11.330 9.314 -66.498 5.890 -29.511 -301.753 2056.061 -3813.516 -0.564 2.342 -5.471 0.03 -0.55 0.83 0.02
1 4.55 455 1.116 -13.054 9.879 -35.980 -6.439 -43.183 -346.724 2146.002 -3723.424 -0.376 4.035 -6.115 0.03 -0.55 0.83 0.03
1 4.56 456 1.360 -15.165 9.486 5.737 -24.414 -77.606 -256.783 2251.083 -3603.502 -0.548 6.137 -5.761 0.03 -0.56 0.83 0.03
1 4.57 457 1.389 -15.462 7.815 37.171 -9.766 -105.622 -254.984 2246.886 -3608.299 -0.465 6.444 -4.092 0.04 -0.56 0.83 0.03
1 4.58 458 -0.235 -14.227 5.550 62.287 18.433 -121.613 -329.935 2351.818 -3638.280 1.305 5.241 -1.788 0.04 -0.55 0.83 0.04
1 4.59 459 -3.649 -12.125 4.300 -2.350 17.670 -124.421 -419.876 2216.756 -3653.270 5.034 3.247 -0.387 0.05 -0.55 0.83 0.06
1 4.60 460 -5.258 -12.359 4.865 -64.514 -2.594 -103.852 -449.857 2276.867 -3743.361 6.801 3.498 -0.975 0.05 -0.55 0.83 0.06
1 4.61 461 -5.224 -12.584 4.832 -68.634 -38.147 -56.793 -449.857 2276.867 -3743.361 6.901 3.706 -1.037 0.06 -0.55 0.83 0.07
1 4.62 462 -4.439 -11.823 4.343 -20.752 -71.808 -14.862 -539.948 2261.876 -3758.352 6.205 2.923 -0.640 0.06 -0.55 0.83 0.07
1 4.63 463 -2.921 -9.769 3.678 83.588 -63.202 17.578 -719.981 2531.851 -3758.352 4.741 0.870 0.003 0.07 -0.55 0.83 0.07
1 4.64 464 -1.848 -8.366 3.457 127.320 -28.259 34.699 -719.981 2531.851 -3758.202 3.691 -0.497 0.297 0.07 -0.55 0.83 0.06
1 4.65 465 -1.010 -6.805 3.170 135.437 2.045 46.906 -659.870 2321.987 -3668.110 2.819 -2.000 0.736 0.07 -0.54 0.83 0.06
1 4.66 466 -0.163 -4.784 2.926 101.197 15.900 48.340 -779.942 2201.916 -3668.110 1.828 -3.884 1.333 0.07 -0.53 0.85 0.05
1 4.67 467 -0.421 -4.089 2.978 64.362 8.881 44.647 -690.000 2261.876 -3728.221 2.015 -4.528 1.409 0.07 -0.52 0.85 0.05
1 4.68 468 -0.646 -4.166 3.242 28.656 -5.402 41.657 -690.000 2261.876 -3728.221 2.178 -4.423 1.221 0.06 -0.52 0.85 0.05
1 4.69 469 -0.986 -4.765 3.515 2.655 -26.550 37.689 -734.222 2003.745 -3791.780 2.472 -3.819 0.975 0.06 -0.52 0.85 0.04
1 4.70 470 -1.269 -5.651 3.836 -10.498 -47.058 31.616 -524.208 2048.715 -3821.760 2.729 -2.941 0.647 0.06 -0.52 0.85 0.04
1 4.71 471 -1.504 -7.293 4.329 -0.732 -64.209 19.592 -524.208 2048.715 -3821.760 2.960 -1.312 0.130 0.07 -0.52 0.85 0.04
1 4.72 472 -1.580 -8.002 4.238 24.109 -63.996 14.679 -629.140 2078.696 -3791.780 3.052 -0.610 0.202 0.07 -0.52 0.85 0.03
1 4.73 473 -1.307 -7.810 3.797 61.493 -55.542 12.329 -734.222 2123.667 -3791.780 2.795 -0.767 0.703 0.07 -0.51 0.85 0.02
1 4.74 474 -1.053 -7.264 3.639 63.233 -49.072 11.536 -644.130 2108.676 -3881.871 2.553 -1.273 0.934 0.08 -0.51 0.86 0.02
1 4.75 475 -0.642 -7.231 3.558 37.445 -45.624 11.444 -644.130 2108.676 -3881.871 2.160 -1.266 1.082 0.08 -0.51 0.86 0.02
1 4.76 476 -0.283 -8.078 3.472 -5.737 -43.945 13.153 -734.222 2003.745 -3896.861 1.819 -0.401 1.195 0.08 -0.51 0.86 0.01
1 4.77 477 0.302 -9.836 3.481 -45.532 -43.091 18.646 -749.212 1988.754 -3911.852 1.248 1.342 1.155 0.08 -0.51 0.86 0.01
1 4.78 478 0.872 -13.188 3.390 -49.286 -39.032 35.645 -749.212 1988.754 -3911.852 0.671 4.648 1.163 0.09 -0.51 0.86 0.01
1 4.79 479 1.422 -14.098 3.390 -4.852 -28.626 47.913 -794.183 2033.725 -3836.750 0.106 5.514 1.084 0.09 -0.51 0.85 0.01
1 4.80 480 1.705 -12.446 3.237 84.931 -5.951 51.575 -884.124 2078.696 -3821.760 -0.270 3.858 1.262 -0.09 0.51 -0.85 0
1 4.81 481 1.777 -11.378 3.108 104.889 -1.465 48.309 -749.212 2063.706 -3806.770 -0.405 2.847 1.517 -0.09 0.51 -0.86 0.01
1 4.82 482 1.326 -8.514 3.127 108.277 -3.906 34.699 -749.212 2063.706 -3806.770 -0.009 0.059 1.650 -0.08 0.5 -0.86 0.01
1 4.83 483 1.417 -7.202 3.587 73.303 -14.343 21.545 -809.173 1928.644 -3851.891 -0.135 -1.190 1.309 -0.08 0.49 -0.87 0.01
1 4.84 484 1.499 -6.718 3.879 29.022 -25.391 7.172 -749.212 1913.653 -3911.852 -0.226 -1.629 1.095 -0.08 0.49 -0.87 0.01
1 4.85 485 1.341 -7.432 4.128 -22.827 -41.657 -9.888 -749.212 1913.653 -3911.852 -0.051 -0.901 0.866 -0.08 0.49 -0.87 0.02
1 4.86 486 1.374 -8.107 3.879 -34.454 -53.833 -19.135 -659.121 1898.663 -4046.764 -0.044 -0.236 1.088 -0.09 0.49 -0.87 0.02
1 4.87 487 1.494 -8.902 3.611 -26.093 -66.223 -26.306 -884.124 2048.715 -3926.842 -0.103 0.538 1.303 -0.09 0.49 -0.87 0.02
1 4.88 488 2.480 -9.309 3.141 9.705 -77.790 -29.907 -869.134 1793.731 -3956.822 -0.917 0.922 1.680 -0.1 0.49 -0.86 0.02
1 4.89 489 3.366 -8.844 2.734 32.593 -75.226 -29.389 -869.134 1793.731 -3956.822 -1.701 0.471 2.078 -0.11 0.49 -0.86 0.02
1 4.90 490 3.975 -8.227 2.667 43.793 -62.256 -24.994 -959.225 1823.712 -4106.875 -2.208 -0.117 2.160 -0.12 0.49 -0.86 0.02
1 4.91 491 4.008 -7.743 2.552 39.185 -43.579 -20.966 -1019.186 1718.630 -3911.852 -2.151 -0.565 2.303 -0.12 0.49 -0.86 0.02
1 4.92 492 3.050 -7.173 2.428 8.484 -18.890 -14.130 -1019.186 1718.630 -3911.852 -1.121 -1.105 2.449 -0.12 0.49 -0.87 0.02
1 4.93 493 2.500 -7.025 2.844 -16.388 -7.416 -10.498 -1064.157 1658.669 -3851.891 -0.534 -1.237 2.046 -0.13 0.48 -0.87 0.02
1 4.94 494 2.423 -6.575 4.338 -31.403 5.707 -6.409 -1259.180 1778.741 -3746.809 -0.435 -1.691 0.537 -0.13 0.48 -0.87 0.02
1 4.95 495 2.586 -5.837 5.421 -32.288 37.537 -2.289 -1184.079 1820.264 -3975.710 -0.598 -2.469 -0.615 -0.13 0.49 -0.86 0.02
1 4.96 496 2.366 -5.296 5.483 -21.271 61.371 1.495 -1184.079 1820.264 -3975.710 -0.408 -3.031 -0.701 -0.12 0.49 -0.86 0.01
1 4.97 497 2.150 -4.678 4.947 -4.028 76.050 5.859 -1184.079 1850.245 -3855.788 -0.244 -3.661 -0.165 -0.12 0.49 -0.86 0.01
1 4.98 498 2.112 -4.846 4.276 6.592 75.470 13.947 -1109.127 1970.316 -3750.707 -0.272 -3.495 0.528 -0.11 0.49 -0.86 0.01
1 4.99 499 2.428 -5.904 4.405 -0.275 68.054 27.161 -1109.127 1970.316 -3750.707 -0.665 -2.436 0.429 -0.11 0.49 -0.86 0.01
1 5.00 500 2.629 -8.782 6.101 -28.442 56.702 47.150 -914.104 1730.323 -3900.759 -0.954 0.432 -1.253 -0.1 0.49 -0.86 0.01
1 5.01 501 2.605 -11.004 6.857 -32.227 51.911 56.091 -1049.167 1910.355 -3960.720 -1.026 2.628 -2.022 -0.1 0.49 -0.86 0.01
1 5.02 502 2.246 -12.508 7.111 -5.341 47.791 59.845 -1049.167 1910.355 -3960.720 -0.775 4.095 -2.304 -0.09 0.5 -0.86 0.01
1 5.03 503 1.848 -12.441 6.819 78.308 45.075 53.284 -899.114 1940.336 -3915.749 -0.600 4.020 -1.963 -0.08 0.5 -0.86 0.01
1 5.04 504 1.111 -10.803 6.709 125.611 47.638 40.039 -853.844 1968.967 -3932.238 0.038 2.444 -1.725 -0.08 0.49 -0.87 0.02
1 5.05 505 -0.014 -8.581 6.632 128.144 49.408 23.316 -853.844 1894.016 -4007.189 1.080 0.318 -1.472 -0.07 0.48 -0.87 0.02
1 5.06 506 -1.360 -6.441 6.752 64.789 45.715 10.254 -853.844 1894.016 -4007.189 2.362 -1.731 -1.435 -0.07 0.47 -0.88 0.02
1 5.07 507 -2.294 -5.799 6.718 -108.857 35.767 2.319 -613.850 1758.954 -4022.180 3.235 -2.335 -1.333 -0.06 0.47 -0.88 0.02
1 5.08 508 -2.423 -6.953 6.536 -217.103 28.229 1.007 -703.792 1773.944 -3977.209 3.309 -1.236 -1.226 -0.06 0.47 -0.88 0.02
1 5.09 509 -2.366 -8.739 6.522 -285.951 24.292 -3.479 -703.792 1773.944 -3977.209 3.202 0.406 -1.433 -0.06 0.49 -0.87 0.02
1 5.10 510 -2.102 -10.837 6.474 -289.216 29.083 -16.327 -643.831 1864.036 -4022.180 2.893 2.096 -2.114 -0.05 0.52 -0.85 0.01
1 5.11 511 -2.136 -11.588 6.369 -233.857 31.067 -26.886 -568.879 1909.006 -3992.199 2.934 2.673 -2.379 -0.05 0.54 -0.84 0.01
1 5.12 512 -1.767 -11.775 6.359 -153.504 25.024 -32.501 -583.870 2073.899 -3857.287 2.588 2.737 -2.660 -0.05 0.56 -0.83 0
1 5.13 513 -1.422 -11.579 6.474 -69.733 13.397 -29.602 -583.870 2073.899 -3857.287 2.276 2.472 -2.955 -0.05 0.56 -0.82 0
1 5.14 514 -1.039 -11.655 6.393 37.323 0.366 -4.517 -463.798 2359.013 -3707.235 1.926 2.526 -2.941 0.05 -0.57 0.82 0
1 5.15 515 -0.766 -11.521 6.330 90.668 -0.122 20.111 -688.801 2448.955 -3737.215 1.667 2.406 -2.847 0.05 -0.57 0.82 0
1 5.16 516 -0.613 -10.942 5.986 131.928 0.519 41.931 -688.651 2448.505 -3737.965 1.495 1.868 -2.391 0.05 -0.56 0.83 0
1 5.17 517 -0.182 -9.630 5.243 169.343 -7.263 63.172 -583.720 2538.446 -3497.971 0.942 0.707 -1.262 -0.05 0.54 -0.84 0.01
1 5.18 518 0.062 -8.437 4.717 160.401 -19.379 75.073 -643.681 2478.485 -3633.033 0.615 -0.385 -0.504 -0.05 0.53 -0.85 0.01
1 5.19 519 0.532 -7.968 4.200 110.352 -33.508 86.945 -463.648 2283.462 -3888.017 0.051 -0.760 0.219 -0.05 0.52 -0.85 0.02
1 5.20 520 1.063 -7.892 3.793 29.450 -45.471 94.483 -463.648 2283.462 -3888.017 -0.574 -0.780 0.747 -0.04 0.52 -0.85 0.03
1 5.21 521 1.681 -9.089 3.831 -55.481 -49.378 96.833 -568.729 2133.410 -3767.945 -1.285 0.417 0.717 -0.04 0.52 -0.85 0.03
1 5.22 522 2.337 -11.258 5.124 -105.927 -30.975 93.689 -523.759 2118.420 -3977.958 -2.028 2.531 -0.676 -0.04 0.52 -0.85 0.04
1 5.23 523 2.279 -12.010 5.756 -73.944 -10.681 85.388 -523.759 2118.420 -3977.958 -2.073 3.210 -1.449 -0.04 0.53 -0.85 0.05
1 5.24 524 2.773 -11.900 5.761 -3.662 9.949 58.472 -478.638 2148.550 -3752.955 -2.776 3.019 -1.616 -0.04 0.54 -0.84 0.06
1 5.25 525 3.338 -11.655 5.775 14.801 11.383 47.791 -583.720 2238.492 -3903.007 -3.420 2.780 -1.621 -0.03 0.54 -0.84 0.06
1 5.26 526 4.908 -9.898 4.745 50.629 8.911 16.754 -403.687 2268.472 -3752.955 -5.040 1.046 -0.542 -0.03 0.53 -0.84 0.06
1 5.27 527 5.488 -8.461 4.166 66.925 13.825 -3.235 -403.687 2268.472 -3752.955 -5.641 -0.353 0.113 -0.03 0.53 -0.85 0.07
1 5.28 528 5.210 -6.776 3.797 77.851 34.485 -24.689 -373.707 2148.550 -3752.955 -5.364 -1.992 0.577 -0.03 0.53 -0.85 0.06
1 5.29 529 4.200 -5.837 3.548 77.973 43.854 -32.196 -403.687 2148.550 -3858.037 -4.301 -2.879 0.931 -0.03 0.52 -0.85 0.06
1 5.30 530 3.146 -5.229 3.352 72.479 47.699 -33.600 -403.687 2148.550 -3858.037 -3.215 -3.432 1.234 -0.03 0.51 -0.85 0.06
1 5.31 531 1.968 -4.549 3.352 59.845 47.730 -30.518 -463.648 2283.462 -3962.968 -2.026 -4.058 1.333 -0.03 0.51 -0.86 0.05
1 5.32 532 0.675 -4.243 3.113 24.475 43.732 -20.172 -373.707 2118.420 -3903.007 -0.727 -4.285 1.716 -0.02 0.5 -0.86 0.05
1 5.33 533 0.105 -4.405 2.835 -7.141 35.187 -15.015 -373.707 2073.449 -3932.988 -0.163 -4.109 2.017 -0.02 0.5 -0.86 0.04
1 5.34 534 -0.182 -5.191 2.548 -37.964 20.264 -15.167 -373.707 2073.449 -3932.988 0.120 -3.334 2.286 -0.02 0.5 -0.86 0.04
1 5.35 535 -0.129 -6.211 2.121 -55.023 -0.549 -16.754 -238.195 2027.279 -3994.298 0.077 -2.346 2.656 -0.02 0.51 -0.86 0.04
1 5.36 536 1.020 -7.944 1.714 -34.424 -33.966 -20.172 -283.166 2057.260 -3964.317 -1.044 -0.651 2.993 -0.02 0.51 -0.86 0.04
1 5.37 537 1.729 -8.600 1.815 1.495 -43.244 -24.750 -283.166 2057.260 -3964.317 -1.706 -0.024 2.840 -0.02 0.51 -0.86 0.04
1 5.38 538 2.571 -9.117 2.294 40.100 -40.253 -30.975 -313.146 2102.230 -3889.366 -2.487 0.489 2.351 -0.03 0.51 -0.86 0.04
1 5.39 539 3.376 -9.520 2.725 72.357 -15.533 -37.750 -523.159 1967.168 -3934.337 -3.122 0.943 2.009 -0.04 0.51 -0.86 0.04
1 5.40 540 3.189 -9.481 3.117 70.404 7.355 -39.673 -403.237 2192.172 -3979.308 -2.854 0.953 1.699 -0.04 0.5 -0.86 0.03
1 5.41 541 2.677 -9.304 3.491 50.629 25.848 -38.239 -403.237 2192.172 -3979.308 -2.277 0.821 1.399 -0.04 0.5 -0.87 0.03
1 5.42 542 1.829 -9.151 3.788 19.348 35.401 -35.065 -448.208 1967.168 -4084.389 -1.383 0.697 1.149 -0.04 0.5 -0.87 0.03
1 5.43 543 1.130 -9.304 4.276 -13.123 36.377 -29.602 -448.208 1997.149 -3934.337 -0.655 0.857 0.669 -0.04 0.5 -0.87 0.02
1 5.44 544 0.450 -9.951 4.559 -52.887 33.508 -16.449 -448.208 1997.149 -3934.337 0.040 1.487 0.356 -0.04 0.5 -0.87 0.02
1 5.45 545 0.067 -10.348 4.520 -66.651 35.492 -4.608 -253.185 1847.247 -4054.409 0.424 1.848 0.332 -0.04 0.5 -0.86 0.02
1 5.46 546 -0.374 -10.477 4.334 -66.132 43.396 9.644 -253.185 1847.247 -4054.409 0.850 1.932 0.439 -0.04 0.51 -0.86 0.01
1 5.47 547 -0.814 -10.233 3.558 -37.140 61.554 28.870 -418.228 2027.279 -3964.317 1.188 1.599 1.064 -0.03 0.51 -0.86 0.01
1 5.48 548 -0.972 -9.304 3.002 -5.646 72.663 33.966 -418.228 2027.279 -3964.317 1.260 0.649 1.585 -0.02 0.52 -0.86 0.01
1 5.49 549 -1.034 -8.442 2.567 24.689 80.170 32.227 -328.136 2072.250 -4009.288 1.216 -0.218 2.016 -0.02 0.52 -0.86 0.01
1 5.50 550 -1.149 -7.552 2.236 41.870 80.506 27.496 -283.166 1907.208 -3769.294 1.225 -1.094 2.378 -0.01 0.51 -0.86 0.01
1 5.51 551 -1.274 -6.675 2.112 36.072 62.592 23.590 -283.166 1907.208 -3769.294 1.259 -1.939 2.562 -0 0.51 -0.86 0.01
1 5.52 552 -1.398 -6.455 2.375 15.747 40.650 23.102 -133.113 2102.230 -4024.278 1.303 -2.130 2.351 0 0.51 -0.86 0.01
1 5.53 553 -1.542 -6.302 3.591 -5.432 17.120 22.980 -133.113 2102.230 -4024.278 1.383 -2.266 1.163 0.01 0.51 -0.86 0.01
1 5.54 554 -1.791 -6.263 5.052 -23.102 -12.390 21.088 -43.172 2117.221 -3934.337 1.555 -2.314 -0.317 0.01 0.51 -0.86 0.01
1 5.55 555 -1.614 -6.244 5.373 -20.416 -29.144 18.127 -43.172 2117.221 -3934.337 1.364 -2.348 -0.667 0.01 0.51 -0.86 0.01
1 5.56 556 -1.360 -6.192 5.804 -0.458 -35.126 12.817 -43.172 2192.172 -4009.288 1.111 -2.412 -1.117 0.01 0.51 -0.86 0.01
1 5.57 557 -1.408 -6.776 5.967 23.682 -28.656 2.167 16.639 1982.159 -4099.379 1.170 -1.822 -1.270 0 0.51 -0.86 0.02
1 5.58 558 -1.724 -10.291 7.188 26.520 -15.686 -20.630 16.639 1982.159 -4099.379 1.503 1.717 -2.446 0 0.51 -0.86 0.02
1 5.59 559 -1.686 -13.432 8.136 1.221 -19.165 -35.553 -133.113 1907.208 -3844.396 1.495 4.884 -3.347 0 0.51 -0.86 0.02
1 5.60 560 -1.810 -14.993 8.155 -15.350 -22.522 -45.563 -133.113 1907.208 -3844.396 1.674 6.450 -3.354 -0 0.51 -0.86 0.02
1 5.61 561 -0.790 -13.020 7.015 13.428 -23.285 -53.894 -178.234 1997.149 -4159.340 0.811 4.465 -2.235 -0.01 0.51 -0.86 0.01
1 5.62 562 0.393 -10.161 6.053 30.731 -31.769 -54.901 -178.234 1997.149 -4159.340 -0.281 1.622 -1.247 -0.01 0.5 -0.86 0.01
1 5.63 563 1.446 -7.580 5.344 19.226 -44.220 -52.399 -73.152 2117.221 -3934.337 -1.237 -0.935 -0.498 -0.02 0.5 -0.86 0.01
1 5.64 564 2.222 -6.196 4.894 -20.966 -53.528 -46.906 -58.162 2057.260 -4024.278 -1.903 -2.305 -0.030 -0.02 0.5 -0.86 0
1 5.65 565 2.868 -5.459 4.975 -69.153 -56.946 -39.978 -58.162 2057.260 -4024.278 -2.449 -3.064 -0.156 -0.03 0.5 -0.86 0
1 5.66 566 3.433 -5.234 5.560 -126.313 -44.373 -27.313 -298.156 1967.168 -4009.288 -2.923 -3.344 -0.848 -0.03 0.51 -0.86 0
1 5.67 567 3.567 -5.694 6.192 -149.933 -26.459 -20.172 -298.156 1967.168 -4009.288 -2.983 -2.965 -1.640 -0.04 0.52 -0.86 0
1 5.68 568 3.232 -6.738 7.140 -166.626 -1.953 -15.686 -463.198 2132.211 -3994.298 -2.530 -2.103 -2.970 0.04 -0.53 0.84 0
1 5.69 569 2.959 -7.245 7.418 -166.474 3.540 -16.937 -463.198 2132.211 -3994.298 -2.215 -1.684 -3.449 0.04 -0.54 0.84 0
1 5.70 570 2.078 -9.017 8.370 -142.212 9.827 -22.766 -418.228 2327.234 -3919.347 -1.304 0.003 -4.604 0.04 -0.55 0.83 0.01
1 5.71 571 1.437 -10.717 8.792 -103.852 5.280 -31.799 -478.188 2462.146 -3859.386 -0.632 1.631 -5.209 0.04 -0.56 0.83 0.01
1 5.72 572 1.077 -12.723 9.089 -47.150 -5.249 -44.708 -478.338 2462.596 -3858.786 -0.224 3.593 -5.631 0.04 -0.57 0.82 0.01
1 5.73 573 1.355 -15.031 8.634 52.704 -21.790 -74.402 -448.208 2612.648 -3798.825 -0.428 5.893 -5.219 0.05 -0.57 0.82 0.01
1 5.74 574 1.580 -16.008 8.030 117.218 -6.256 -105.591 -448.208 2612.648 -3798.825 -0.545 6.900 -4.566 0.05 -0.57 0.82 0.02
1 5.75 575 0.259 -15.170 7.073 162.354 34.302 -136.109 -388.247 2702.589 -3588.812 0.920 6.134 -3.468 0.06 -0.56 0.83 0.02
1 5.76 576 -3.955 -11.732 3.812 28.931 55.603 -142.975 -388.247 2747.560 -3663.763 5.463 2.918 0.197 0.06 -0.54 0.84 0.04
1 5.77 577 -6.536 -11.315 3.678 -97.443 23.590 -113.007 -583.270 2492.576 -3858.786 8.201 2.530 0.333 0.07 -0.54 0.84 0.06
1 5.78 578 -5.967 -11.708 3.745 -107.758 -28.351 -57.709 -703.192 2342.524 -3858.786 7.760 2.886 0.127 0.07 -0.55 0.83 0.06
1 5.79 579 -4.305 -11.416 4.032 -45.868 -77.454 -13.519 -703.192 2342.524 -3858.786 6.185 2.552 -0.300 0.07 -0.55 0.83 0.06
1 5.80 580 -1.968 -10.066 3.884 72.449 -67.078 14.648 -643.231 2402.635 -3888.767 3.905 1.189 -0.209 0.08 -0.55 0.83 0.06
1 5.81 581 -0.934 -8.979 3.649 121.247 -31.036 29.053 -643.231 2402.635 -3888.767 2.898 0.131 0.079 0.08 -0.55 0.83 0.06
1 5.82 582 -0.445 -8.069 3.376 128.754 -3.632 37.628 -808.273 2417.625 -3903.757 2.386 -0.724 0.493 0.08 -0.54 0.83 0.05
1 5.83 583 -0.311 -7.125 3.635 91.523 3.815 37.567 -748.312 2447.605 -3708.734 2.136 -1.541 0.562 0.08 -0.53 0.84 0.05
1 5.84 584 -0.441 -7.044 3.879 60.608 -6.409 35.980 -778.293 2462.596 -3858.786 2.216 -1.577 0.431 0.08 -0.52 0.85 0.04
1 5.85 585 -0.613 -7.125 3.812 39.276 -19.379 36.621 -733.322 2387.645 -4053.809 2.348 -1.467 0.569 0.08 -0.52 0.85 0.04
1 5.86 586 -0.737 -7.264 3.697 33.692 -32.166 38.391 -733.322 2387.645 -4053.809 2.439 -1.312 0.729 0.08 -0.52 0.85 0.04
1 5.87 587 -1.082 -6.709 2.974 54.840 -43.671 39.978 -703.192 2342.524 -3978.858 2.757 -1.853 1.491 0.08 -0.52 0.85 0.03
1 5.88 588 -1.111 -5.947 2.773 76.660 -45.197 41.687 -703.192 2342.524 -3978.858 2.763 -2.589 1.748 0.08 -0.51 0.85 0.03
1 5.89 589 -1.006 -5.239 2.945 83.679 -43.579 41.718 -658.221 2237.592 -3933.737 2.635 -3.257 1.660 0.08 -0.51 0.86 0.02
1 5.90 590 -0.828 -4.573 3.227 68.421 -41.870 39.581 -778.293 2237.592 -4188.871 2.435 -3.873 1.476 0.08 -0.5 0.86 0.02
1 5.91 591 -0.527 -4.669 3.917 8.148 -40.711 31.464 -718.332 2102.530 -4068.799 2.099 -3.709 0.918 0.09 -0.5 0.86 0.01
1 5.92 592 -0.402 -5.636 4.626 -38.422 -37.323 27.863 -883.225 2147.651 -4083.790 1.965 -2.751 0.196 0.09 -0.5 0.86 0.01
1 5.93 593 -0.077 -7.408 4.674 -74.860 -30.243 26.398 -883.375 2149.300 -4081.691 1.631 -1.020 0.079 0.09 -0.5 0.86 0
1 5.94 594 0.306 -9.592 4.506 -86.914 -19.287 31.036 -808.423 1969.267 -4051.710 1.233 1.100 0.138 0.09 -0.5 0.86 0
1 5.95 595 0.953 -12.814 3.443 -41.840 -0.031 41.718 -808.423 1969.267 -4051.710 0.546 4.255 1.088 0.09 -0.51 0.86 0
1 5.96 596 1.010 -13.494 2.725 26.886 12.848 47.241 -778.443 2119.319 -4051.710 0.439 4.890 1.737 -0.09 0.51 -0.85 0
1 5.97 597 1.044 -12.522 2.366 96.863 20.172 47.302 -778.443 2239.241 -4051.710 0.338 3.914 2.111 -0.09 0.51 -0.85 0
1 5.98 598 0.656 -9.486 2.691 132.691 10.132 30.304 -748.462 2254.231 -3991.600 0.584 1.010 2.068 -0.08 0.5 -0.86 0.01
1 5.99 599 0.393 -7.844 3.079 98.450 -9.918 14.130 -688.352 2104.329 -4066.701 0.807 -0.548 1.839 -0.08 0.49 -0.87 0.01
1 6.00 600 0.393 -6.953 3.323 39.581 -30.945 -3.204 -688.352 2104.329 -4066.701 0.805 -1.379 1.696 -0.08 0.49 -0.87 0.01
1 6.01 601 0.287 -7.159 3.658 -17.426 -48.737 -17.792 -748.462 2029.228 -4276.714 0.946 -1.152 1.387 -0.08 0.49 -0.87 0.01
1 6.02 602 0.330 -8.725 3.601 -57.068 -66.620 -32.410 -748.462 2029.228 -4276.714 0.971 0.398 1.400 -0.08 0.49 -0.87 0.02
1 6.03 603 0.340 -9.793 3.563 -46.356 -77.942 -37.964 -793.433 1939.287 -4276.714 1.045 1.429 1.354 -0.09 0.49 -0.87 0.02
1 6.04 604 0.771 -10.674 3.386 -16.968 -89.325 -40.711 -718.482 2104.329 -4171.632 0.710 2.275 1.442 -0.1 0.49 -0.86 0.02
1 6.05 605 2.284 -10.444 3.170 36.987 -100.891 -34.363 -883.375 2149.300 -4306.694 -0.569 2.052 1.592 -0.11 0.49 -0.86 0.02
1 6.06 606 3.453 -9.630 3.046 60.150 -95.093 -25.757 -823.414 1984.257 -3916.648 -1.622 1.280 1.747 -0.12 0.49 -0.86 0.02
1 6.07 607 4.367 -8.356 2.897 67.017 -75.226 -14.648 -823.414 1984.257 -3916.648 -2.434 0.057 1.944 -0.13 0.49 -0.86 0.02
1 6.08 608 4.152 -7.274 2.777 56.091 -47.241 -5.219 -973.466 2059.208 -4096.681 -2.136 -0.975 2.114 -0.13 0.48 -0.87 0.02
1 6.09 609 3.242 -6.407 2.447 29.389 -22.797 -0.397 -973.466 2059.208 -4096.681 -1.181 -1.803 2.490 -0.13 0.48 -0.87 0.02
1 6.10 610 2.270 -5.852 2.571 -25.086 -7.935 4.730 -1198.469 2029.228 -4141.652 -0.195 -2.342 2.388 -0.13 0.48 -0.87 0.02
1 6.11 611 2.452 -5.550 4.094 -52.979 -1.617 8.423 -1213.459 1999.248 -4081.691 -0.374 -2.656 0.844 -0.14 0.48 -0.87 0.02
1 6.12 612 2.792 -5.382 5.569 -63.141 24.353 9.552 -1213.459 1969.267 -4231.593 -0.739 -2.908 -0.763 -0.13 0.49 -0.86 0.02
1 6.13 613 2.763 -5.272 5.703 -60.089 37.628 10.864 -1183.479 1969.267 -4186.623 -0.746 -3.065 -0.965 -0.13 0.49 -0.86 0.02
1 6.14 614 2.212 -4.559 5.186 -31.952 66.834 11.475 -1183.479 1969.267 -4186.623 -0.249 -3.816 -0.491 -0.13 0.49 -0.86 0.02
1 6.15 615 1.844 -4.501 4.319 -12.573 66.345 13.886 -1138.358 1999.248 -4186.623 0.056 -3.895 0.363 -0.12 0.5 -0.86 0.02
1 6.16 616 2.035 -5.416 4.669 -12.970 56.183 22.186 -1138.358 1999.248 -4186.623 -0.201 -2.992 0.020 -0.12 0.5 -0.86 0.02
1 6.17 617 2.667 -7.944 6.800 -46.234 37.323 43.121 -898.365 2029.228 -4096.681 -0.904 -0.483 -2.118 -0.11 0.5 -0.86 0.01
1 6.18 618 2.749 -10.573 7.863 -56.397 33.905 53.711 -1018.437 2029.228 -4021.580 -1.062 2.111 -3.216 -0.11 0.5 -0.86 0.01
1 6.19 619 2.150 -12.896 8.064 -34.485 36.194 59.509 -1018.437 2029.228 -4021.580 -0.554 4.382 -3.479 -0.1 0.51 -0.86 0.02
1 6.20 620 1.532 -13.777 7.226 54.749 39.948 55.023 -958.476 2239.241 -4111.671 -0.141 5.212 -2.670 -0.1 0.51 -0.86 0.02
1 6.21 621 1.144 -12.302 6.369 121.125 50.354 40.802 -958.476 2239.241 -4111.671 0.150 3.779 -1.708 -0.09 0.5 -0.86 0.02
1 6.22 622 -0.239 -9.898 5.555 148.072 58.960 22.461 -793.433 2179.280 -4096.681 1.448 1.466 -0.710 -0.09 0.5 -0.86 0.02
1 6.23 623 -1.848 -6.910 5.402 97.351 54.901 7.690 -793.433 2179.280 -4096.681 2.989 -1.418 -0.363 -0.08 0.49 -0.87 0.02
1 6.24 624 -2.624 -5.191 5.880 -92.926 41.016 1.343 -718.482 2134.310 -4141.652 3.699 -3.081 -0.737 -0.08 0.48 -0.87 0.02
1 6.25 625 -2.605 -6.249 6.330 -222.596 34.363 0.336 -553.439 1999.248 -4231.593 3.644 -2.068 -1.252 -0.07 0.49 -0.87 0.02
1 6.26 626 -2.504 -8.064 6.919 -310.151 31.616 -4.761 -553.439 1999.248 -4231.593 3.516 -0.398 -2.081 -0.07 0.5 -0.86 0.02
1 6.27 627 -2.615 -10.985 7.528 -323.884 32.654 -17.792 -613.400 2179.280 -4141.652 3.575 2.107 -3.490 -0.07 0.54 -0.84 0.01
1 6.28 628 -2.303 -12.264 7.327 -265.412 22.369 -25.177 -613.400 2179.280 -4141.652 3.274 3.206 -3.713 -0.07 0.56 -0.83 0.01
1 6.29 629 -1.590 -13.025 7.274 -177.216 1.892 -24.353 -478.788 2420.473 -3974.960 2.588 3.843 -3.998 -0.07 0.57 -0.82 0
1 6.30 630 -0.656 -13.408 7.116 -82.093 -21.698 -10.925 -478.788 2420.473 -3974.960 1.687 4.155 -4.056 -0.07 0.58 -0.81 0
1 6.31 631 0.029 -13.154 6.982 2.686 -38.178 12.695 -583.720 2570.525 -3719.977 1.023 3.875 -4.009 -0.07 0.59 -0.81 0
1 6.32 632 0.852 -12.948 6.259 105.713 -39.124 48.737 -553.739 2885.470 -3539.944 0.191 3.677 -3.260 -0.07 0.58 -0.81 0.01
1 6.33 633 0.713 -12.469 5.272 166.443 -27.435 63.873 -553.739 2885.620 -3539.494 0.288 3.234 -2.150 -0.07 0.58 -0.81 0.01
1 6.34 634 0.891 -11.181 4.650 217.896 -14.587 73.273 -718.782 2825.659 -3809.618 0.041 2.013 -1.316 -0.07 0.57 -0.82 0.02
1 6.35 635 1.264 -8.969 4.391 215.028 -3.357 87.250 -613.700 2825.659 -3764.498 -0.528 0.028 -0.447 -0.06 0.54 -0.84 0.03
1 6.36 636 1.700 -8.471 4.755 130.219 -11.200 99.091 -568.729 2675.607 -3809.618 -1.080 -0.355 -0.541 -0.06 0.53 -0.84 0.04
1 6.37 637 2.279 -9.424 5.172 1.526 -29.633 108.826 -568.729 2675.607 -3809.618 -1.779 0.657 -0.820 -0.06 0.52 -0.85 0.04
1 6.38 638 2.950 -10.702 6.096 -113.343 -38.666 106.049 -659.121 2242.239 -4077.494 -2.568 1.910 -1.784 -0.05 0.53 -0.85 0.05
1 6.39 639 2.500 -11.904 6.350 -112.793 -1.221 80.109 -374.006 2197.269 -4182.425 -2.234 3.026 -2.209 -0.05 0.53 -0.84 0.06
1 6.40 640 1.753 -12.005 5.287 -34.760 29.297 56.519 -374.006 2197.269 -4182.425 -1.596 3.047 -1.316 -0.05 0.54 -0.84 0.06
1 6.41 641 1.887 -10.918 4.224 28.809 32.074 31.006 -418.977 2482.233 -4137.455 -1.829 1.926 -0.327 -0.05 0.55 -0.83 0.07
1 6.42 642 3.448 -8.418 3.232 70.740 9.186 -3.021 -464.098 2362.311 -3912.451 -3.491 -0.530 0.764 -0.04 0.54 -0.84 0.07
1 6.43 643 4.343 -6.781 2.878 71.869 4.791 -21.454 -449.107 2572.324 -4047.513 -4.356 -2.124 1.214 -0.04 0.54 -0.84 0.07
1 6.44 644 4.817 -5.598 2.615 61.585 11.871 -38.483 -449.107 2572.324 -4047.513 -4.782 -3.263 1.572 -0.04 0.53 -0.84 0.06
1 6.45 645 4.391 -4.880 2.394 49.225 20.691 -53.101 -254.384 2467.992 -3926.392 -4.307 -3.942 1.874 -0.04 0.53 -0.85 0.06
1 6.46 646 3.146 -4.635 2.811 39.978 28.107 -59.693 -419.277 2363.061 -4061.454 -3.001 -4.153 1.523 -0.04 0.53 -0.85 0.06
1 6.47 647 2.275 -4.654 3.199 35.462 32.288 -54.657 -419.277 2363.061 -4061.454 -2.067 -4.104 1.193 -0.04 0.52 -0.85 0.05
1 6.48 648 1.671 -4.607 3.390 28.504 36.896 -43.732 -479.388 2423.021 -4106.425 -1.408 -4.124 1.053 -0.04 0.52 -0.85 0.05
1 6.49 649 1.231 -5.090 3.826 5.127 40.344 -29.205 -494.378 2363.061 -4196.366 -0.907 -3.602 0.689 -0.04 0.52 -0.85 0.04
1 6.50 650 0.876 -5.799 4.037 -17.822 39.581 -20.905 -389.296 2333.080 -4091.435 -0.544 -2.891 0.481 -0.04 0.52 -0.85 0.03
1 6.51 651 0.872 -6.819 4.046 -37.750 35.675 -15.137 -389.296 2333.080 -4091.435 -0.540 -1.886 0.444 -0.04 0.52 -0.85 0.03
1 6.52 652 0.814 -7.868 3.539 -42.725 25.726 -12.054 -449.407 2318.090 -4151.396 -0.486 -0.863 0.901 -0.04 0.52 -0.85 0.03
1 6.53 653 1.073 -8.912 2.854 -25.147 7.507 -14.618 -284.365 2213.008 -4061.454 -0.742 0.156 1.535 -0.04 0.52 -0.85 0.03
1 6.54 654 1.824 -9.845 2.734 33.112 -20.477 -25.574 -284.365 2213.008 -4061.454 -1.468 1.076 1.626 -0.04 0.53 -0.85 0.03
1 6.55 655 2.337 -10.137 3.213 70.984 -28.259 -33.936 -329.335 2348.070 -4226.347 -1.930 1.380 1.166 -0.04 0.52 -0.85 0.02
1 6.56 656 2.768 -10.113 3.917 92.865 -16.510 -39.795 -449.407 2423.021 -4151.396 -2.219 1.459 0.648 -0.05 0.51 -0.86 0.02
1 6.57 657 2.557 -9.903 4.065 88.471 -7.782 -40.589 -479.388 2393.041 -4076.444 -1.946 1.317 0.620 -0.05 0.51 -0.86 0.02
1 6.58 658 1.480 -9.175 4.511 39.063 18.555 -39.185 -479.388 2393.041 -4076.444 -0.814 0.642 0.263 -0.05 0.5 -0.86 0.02
1 6.59 659 0.579 -8.754 4.564 -6.470 27.466 -36.163 -479.388 2123.067 -4226.347 0.129 0.244 0.246 -0.05 0.5 -0.86 0.01
1 6.60 660 -0.014 -8.921 4.367 -50.751 27.008 -30.670 -329.335 2153.047 -4331.428 0.749 0.402 0.420 -0.05 0.5 -0.86 0.01
1 6.61 661 -0.077 -9.194 3.893 -93.537 21.607 -18.494 -330.535 2157.095 -4326.631 0.826 0.633 0.818 -0.05 0.51 -0.86 0.01
1 6.62 662 0.268 -9.572 3.505 -97.321 26.398 -5.737 -570.528 2187.075 -4266.670 0.486 0.949 1.089 -0.05 0.51 -0.86 0
1 6.63 663 0.201 -9.644 2.974 -79.163 40.314 7.660 -540.548 2217.056 -4311.641 0.544 0.951 1.489 -0.05 0.52 -0.85 0
1 6.64 664 0.024 -9.165 2.576 -24.567 69.031 22.858 -375.505 2277.017 -4251.530 0.626 0.368 1.693 0.04 -0.53 0.85 0
1 6.65 665 -0.283 -8.562 2.548 16.968 84.595 28.656 -375.505 2277.017 -4251.530 0.849 -0.252 1.700 0.03 -0.53 0.85 0
1 6.66 666 -0.474 -8.021 2.366 48.981 93.842 30.884 -330.535 2202.065 -4176.579 0.939 -0.782 1.916 0.03 -0.53 0.85 0
1 6.67 667 -0.833 -7.585 2.677 66.712 94.635 30.579 -405.486 2351.968 -4101.628 1.194 -1.183 1.685 0.02 -0.53 0.85 0.01
1 6.68 668 -1.403 -7.331 2.969 66.132 79.254 30.151 -405.486 2351.968 -4101.628 1.660 -1.391 1.491 0.01 -0.52 0.85 0.01
1 6.69 669 -1.595 -7.327 3.046 53.375 57.251 29.907 -180.632 2397.088 -4176.579 1.754 -1.349 1.509 0 -0.52 0.86 0.01
1 6.70 670 -1.714 -7.422 3.113 34.668 29.999 30.335 -135.512 2262.026 -4191.569 1.790 -1.213 1.520 -0 -0.51 0.86 0.01
1 6.71 671 -1.504 -7.561 3.170 2.197 -7.294 28.259 -45.570 2321.987 -4041.667 1.467 -1.031 1.543 -0.01 -0.51 0.86 0.01
1 6.72 672 -1.245 -8.193 2.974 -19.440 -22.766 24.139 -45.570 2321.987 -4041.667 1.182 -0.400 1.737 -0.01 -0.51 0.86 0
1 6.73 673 -1.164 -8.940 2.768 -34.210 -30.426 17.059 87.843 2190.223 -4262.923 1.089 0.331 1.913 -0.01 -0.51 0.86 0
1 6.74 674 -1.111 -10.075 2.428 -35.797 -34.546 8.637 -17.089 2295.305 -4307.894 1.031 1.435 2.196 0 0.51 -0.86 0
1 6.75 675 -0.986 -10.999 2.873 -21.484 -36.194 0.946 -17.089 2295.305 -4307.894 0.915 2.328 1.693 0 0.52 -0.86 0
1 6.76 676 -0.737 -11.148 4.492 18.555 -32.593 -5.829 87.843 2070.301 -4337.874 0.692 2.467 0.056 0 0.52 -0.86 0
1 6.77 677 -0.273 -10.425 5.114 39.490 -31.464 -6.500 -2.099 2280.314 -4292.903 0.259 1.753 -0.550 -0 0.52 -0.86 0
1 6.78 678 0.235 -9.491 5.775 53.040 -28.198 -5.066 -2.099 2280.314 -4292.903 -0.218 0.844 -1.163 -0 0.51 -0.86 0.01
1 6.79 679 0.781 -7.695 6.455 49.469 -14.648 -3.479 -122.021 2250.184 -4247.933 -0.712 -0.872 -1.696 -0.01 0.51 -0.86 0.01
1 6.80 680 0.819 -7.389 6.694 23.468 -3.693 -5.157 -152.001 2205.213 -4247.933 -0.731 -1.139 -1.866 -0.01 0.5 -0.86 0.01
1 6.81 681 0.594 -8.011 7.441 -17.670 4.791 -10.040 -77.050 2250.184 -4397.985 -0.491 -0.497 -2.580 -0.01 0.5 -0.86 0.01
1 6.82 682 0.431 -9.213 7.259 -56.885 7.629 -17.792 -77.050 2250.184 -4397.985 -0.314 0.689 -2.426 -0.01 0.5 -0.86 0
1 6.83 683 0.436 -10.343 6.316 -73.364 0.183 -29.480 -166.991 2145.252 -4307.894 -0.297 1.774 -1.564 -0.01 0.51 -0.86 0
1 6.84 684 0.814 -10.348 5.804 -48.950 -3.754 -34.210 -226.952 2130.262 -4217.952 -0.640 1.726 -1.148 -0.01 0.51 -0.86 0
1 6.85 685 1.264 -9.611 5.531 -11.627 -4.364 -33.142 -226.952 2130.262 -4217.952 -1.043 0.951 -0.948 0.01 -0.52 0.86 0
1 6.86 686 1.614 -8.021 5.210 28.870 -4.272 -28.442 -2.099 2205.213 -4247.933 -1.294 -0.640 -0.635 0.02 -0.52 0.86 0.01
1 6.87 687 1.446 -7.054 5.119 34.912 -6.958 -24.262 -137.011 2415.227 -4232.942 -1.077 -1.580 -0.497 0.02 -0.51 0.86 0.01
1 6.88 688 1.259 -6.220 5.215 24.445 -11.566 -20.996 -211.962 2370.256 -4262.923 -0.845 -2.384 -0.541 0.02 -0.51 0.86 0.01
1 6.89 689 0.776 -5.986 5.306 4.608 -19.959 -17.426 -211.962 2370.256 -4262.923 -0.324 -2.602 -0.605 0.02 -0.51 0.86 0.01
1 6.90 690 0.249 -5.598 5.995 -32.806 -35.126 -13.519 -166.991 2340.275 -4337.874 0.242 -2.988 -1.297 0.02 -0.51 0.86 0.01
1 6.91 691 0.096 -5.627 6.479 -61.371 -43.854 -11.231 -62.060 2145.252 -4337.874 0.438 -2.977 -1.816 0.03 -0.51 0.86 0.01
1 6.92 692 0.134 -6.201 6.996 -89.783 -50.446 -8.911 -62.060 2145.252 -4337.874 0.446 -2.438 -2.407 0.03 -0.51 0.86 0.01
1 6.93 693 0.153 -7.528 7.231 -121.979 -54.413 -11.719 -211.962 2220.204 -4382.995 0.518 -1.222 -2.869 0.04 -0.53 0.85 0.01
1 6.94 694 0.450 -8.983 7.298 -128.693 -53.620 -20.630 -318.093 2298.752 -4258.426 0.272 0.165 -3.085 0.04 -0.53 0.85 0.01
1 6.95 695 0.819 -10.865 7.456 -120.911 -49.774 -33.112 -378.054 2403.834 -4288.406 -0.030 1.969 -3.422 0.04 -0.54 0.84 0.01
1 6.96 696 1.671 -13.049 7.212 -97.168 -39.246 -47.821 -378.054 2403.834 -4288.406 -0.802 4.088 -3.341 0.05 -0.55 0.84 0.01
1 6.97 697 2.447 -14.744 6.948 -53.894 -13.336 -60.944 -453.155 2628.688 -4288.406 -1.486 5.740 -3.202 0.05 -0.55 0.83 0.01
1 6.98 698 1.504 -14.251 6.929 30.029 34.607 -79.865 -498.125 2688.798 -4183.325 -0.450 5.235 -3.236 0.05 -0.56 0.83 0.01
1 6.99 699 -0.096 -12.785 7.078 56.976 43.915 -97.229 -498.125 2688.798 -4183.325 1.240 3.793 -3.354 0.06 -0.55 0.83 0.02
1 7.00 700 -2.581 -11.943 6.876 27.863 21.912 -113.556 -453.754 2751.458 -4028.625 3.957 3.050 -2.994 0.06 -0.55 0.83 0.04
1 7.01 701 -3.170 -12.321 6.891 9.033 10.315 -109.131 -573.826 2616.545 -4223.499 4.689 3.465 -2.978 0.06 -0.54 0.84 0.05
1 7.02 702 -3.524 -13.561 5.603 -19.287 -30.121 -71.045 -558.836 2631.536 -4208.508 5.174 4.722 -1.706 0.07 -0.54 0.83 0.05
1 7.03 703 -2.993 -14.122 4.180 1.343 -51.636 -40.070 -558.836 2631.536 -4208.508 4.751 5.290 -0.314 0.07 -0.55 0.83 0.05
1 7.04 704 -2.174 -13.389 3.213 50.018 -51.270 -6.317 -693.748 2646.526 -4043.616 4.007 4.574 0.657 0.08 -0.54 0.83 0.05
1 7.05 705 -1.097 -10.985 3.017 116.730 -31.525 35.309 -693.748 2721.477 -4043.616 2.957 2.209 0.928 0.08 -0.54 0.84 0.05
1 7.06 706 -0.479 -9.213 3.299 123.902 -27.069 51.392 -693.748 2721.477 -4043.616 2.322 0.497 0.783 0.08 -0.53 0.84 0.05
1 7.07 707 -0.010 -7.705 3.505 106.354 -31.342 55.725 -738.719 2511.464 -4133.557 1.797 -0.949 0.732 0.08 -0.53 0.85 0.04
1 7.08 708 0.872 -6.273 3.572 69.855 -43.976 50.232 -783.839 2511.464 -4163.538 0.803 -2.280 0.910 0.08 -0.51 0.85 0.03
1 7.09 709 1.264 -5.521 3.563 51.056 -44.495 44.068 -813.820 2481.483 -4208.508 0.378 -2.998 0.995 0.08 -0.51 0.86 0.03
1 7.10 710 1.298 -5.186 3.496 38.971 -35.950 36.652 -813.820 2481.483 -4208.508 0.321 -3.309 1.115 0.08 -0.51 0.86 0.02
1 7.11 711 1.168 -5.038 3.338 29.419 -20.783 30.151 -754.309 2231.296 -4366.955 0.428 -3.439 1.315 0.08 -0.51 0.86 0.02
1 7.12 712 0.618 -5.023 3.208 14.648 0.214 20.630 -784.289 2216.306 -4277.014 0.954 -3.439 1.477 0.08 -0.5 0.86 0.02
1 7.13 713 0.168 -5.320 3.251 4.608 8.667 14.099 -784.289 2216.306 -4277.014 1.378 -3.134 1.457 0.08 -0.5 0.86 0.01
1 7.14 714 -0.125 -5.761 3.103 -3.876 13.519 7.782 -784.289 2261.277 -4411.926 1.645 -2.691 1.618 0.08 -0.5 0.86 0.01
1 7.15 715 -0.498 -6.857 3.031 -7.172 16.419 1.282 -814.270 2216.306 -4487.027 1.983 -1.602 1.688 0.08 -0.5 0.86 0.01
1 7.16 716 -0.661 -7.504 3.041 0.153 17.578 -0.702 -799.279 2081.394 -4321.984 2.133 -0.959 1.676 0.08 -0.5 0.86 0.01
1 7.17 717 -0.967 -8.141 2.706 13.397 17.792 -0.946 -799.279 2081.394 -4321.984 2.429 -0.319 2.021 0.08 -0.5 0.86 0.02
1 7.18 718 -1.164 -8.481 2.658 30.792 16.480 1.373 -694.198 2351.368 -4321.984 2.613 0.035 2.097 0.08 -0.5 0.86 0.02
1 7.19 719 -1.523 -8.629 2.490 44.983 11.688 5.402 -694.198 2306.397 -4366.955 2.941 0.200 2.304 0.07 -0.5 0.86 0.02
1 7.20 720 -1.772 -8.610 2.773 49.317 -4.334 9.827 -694.198 2306.397 -4366.955 3.155 0.205 2.074 0.07 -0.5 0.86 0.02
1 7.21 721 -1.714 -8.595 3.069 37.628 -21.210 10.651 -649.227 2231.296 -4396.936 3.064 0.217 1.831 0.07 -0.49 0.87 0.01
1 7.22 722 -1.341 -8.912 3.433 18.402 -40.314 8.423 -649.227 2231.296 -4396.936 2.668 0.553 1.507 0.07 -0.49 0.87 0.01
1 7.23 723 -0.484 -9.726 3.927 -5.829 -64.636 2.960 -739.318 1991.303 -4517.007 1.819 1.370 1.016 0.07 -0.49 0.87 0.01
1 7.24 724 0.196 -10.233 3.893 -9.644 -76.660 -1.251 -739.318 1991.303 -4517.007 1.173 1.864 1.019 0.08 -0.49 0.87 0
1 7.25 725 0.833 -10.434 3.687 -0.092 -85.419 -5.096 -784.289 2066.254 -4456.896 0.593 2.057 1.194 0.08 -0.49 0.87 0
1 7.26 726 1.743 -10.520 3.639 17.670 -90.180 -10.284 -889.221 2261.277 -4456.896 -0.243 2.148 1.229 -0.09 0.49 -0.87 0
1 7.27 727 2.792 -10.042 3.347 46.295 -89.783 -14.557 -889.221 2261.277 -4456.896 -1.210 1.690 1.530 -0.1 0.49 -0.87 0
1 7.28 728 3.338 -9.213 3.386 58.869 -80.963 -17.212 -919.201 2066.254 -4456.896 -1.669 0.898 1.525 -0.1 0.49 -0.87 0.01
1 7.29 729 3.524 -8.054 3.505 58.808 -66.529 -18.463 -919.201 2066.254 -4456.896 -1.766 -0.216 1.449 -0.11 0.49 -0.87 0.01
1 7.30 730 3.563 -6.345 3.745 25.055 -37.537 -16.449 -1069.253 2066.254 -4381.945 -1.638 -1.839 1.292 -0.12 0.48 -0.87 0.01
1 7.31 731 3.084 -5.943 3.520 -14.130 -17.883 -12.878 -1069.253 2066.254 -4381.945 -1.114 -2.223 1.528 -0.12 0.48 -0.87 0.01
1 7.32 732 2.586 -5.679 3.553 -55.084 -2.777 -8.759 -1054.263 2006.293 -4426.916 -0.590 -2.501 1.461 -0.12 0.48 -0.87 0.01
1 7.33 733 2.356 -6.005 4.190 -86.609 8.484 -5.249 -1204.315 1886.371 -4472.037 -0.350 -2.221 0.745 -0.12 0.48 -0.87 0.01
1 7.34 734 2.366 -5.976 5.133 -102.051 24.475 -3.632 -1203.866 1892.367 -4464.392 -0.362 -2.315 -0.309 -0.12 0.49 -0.86 0.01
1 7.35 735 2.265 -6.005 5.660 -95.948 40.100 -1.862 -1128.915 2087.390 -4539.343 -0.271 -2.358 -0.956 -0.12 0.5 -0.86 0
1 7.36 736 2.093 -5.641 5.464 -75.470 54.871 -0.122 -1128.915 2087.390 -4539.343 -0.121 -2.790 -0.874 -0.12 0.5 -0.86 0
1 7.37 737 2.102 -5.569 4.659 -46.784 59.418 5.951 -1098.934 2012.439 -4419.421 -0.165 -2.918 -0.158 0.12 -0.51 0.85 0
1 7.38 738 2.437 -6.857 3.941 -18.189 46.906 24.414 -1277.768 2317.940 -4350.616 -0.602 -1.690 0.488 0.11 -0.51 0.85 0
1 7.39 739 2.739 -8.423 4.338 -11.292 33.936 39.795 -1127.865 2392.891 -4305.495 -0.970 -0.142 0.083 0.1 -0.51 0.85 0
1 7.40 740 3.151 -10.161 4.956 -2.319 24.750 52.429 -917.852 2422.872 -4365.606 -1.451 1.581 -0.537 0.1 -0.51 0.85 0
1 7.41 741 3.122 -11.478 5.837 16.571 20.111 60.456 -917.852 2422.872 -4365.606 -1.505 2.886 -1.409 0.1 -0.51 0.85 0
1 7.42 742 3.366 -12.517 6.627 61.859 22.064 65.247 -992.803 2377.901 -4365.606 -1.844 3.927 -2.162 -0.09 0.51 -0.85 0
1 7.43 743 3.611 -12.220 6.857 94.239 34.302 59.998 -992.803 2377.901 -4365.606 -2.189 3.654 -2.315 -0.09 0.51 -0.86 0.01
1 7.44 744 2.255 -10.003 6.795 118.256 69.062 40.741 -902.862 2242.839 -4410.577 -1.041 1.558 -1.974 -0.08 0.5 -0.86 0.01
1 7.45 745 -0.852 -7.427 6.900 82.215 81.177 23.010 -902.862 2242.839 -4410.577 1.966 -0.939 -1.919 -0.07 0.49 -0.87 0.01
1 7.46 746 -3.845 -6.072 6.790 -7.507 78.064 6.531 -902.862 2287.959 -4485.528 4.865 -2.244 -1.707 -0.07 0.49 -0.87 0.01
1 7.47 747 -4.999 -6.211 6.139 -128.449 58.411 -0.336 -632.738 2227.849 -4500.518 5.926 -2.126 -1.072 -0.06 0.49 -0.87 0.01
1 7.48 748 -4.889 -7.360 5.890 -239.808 29.389 1.007 -633.787 2233.995 -4492.273 5.734 -1.091 -1.000 -0.05 0.5 -0.87 0.01
1 7.49 749 -4.324 -9.812 6.742 -332.124 8.667 -2.716 -543.846 2294.105 -4627.335 5.108 1.175 -2.178 -0.05 0.51 -0.86 0.01
1 7.50 750 -4.046 -11.272 6.613 -322.938 8.881 -11.841 -543.846 2294.105 -4627.335 4.826 2.421 -2.480 -0.05 0.54 -0.84 0
1 7.51 751 -3.673 -11.775 6.292 -262.574 5.280 -22.339 -693.748 2324.086 -4627.335 4.460 2.728 -2.609 -0.05 0.56 -0.83 0
1 7.52 752 -2.615 -11.665 6.311 -129.029 -15.961 -25.665 -499.475 2822.811 -4184.974 3.468 2.379 -3.298 0.05 -0.59 0.81 0
1 7.53 753 -1.642 -11.526 6.211 -45.105 -32.044 -11.261 -664.517 2927.893 -4124.863 2.538 2.195 -3.352 0.05 -0.59 0.8 0
1 7.54 754 -0.541 -11.679 6.101 24.689 -44.922 14.618 -649.527 3137.906 -3959.970 1.461 2.338 -3.284 0.06 -0.59 0.8 0
1 7.55 755 0.493 -11.962 5.651 86.914 -52.277 46.723 -649.527 3137.906 -3959.970 0.416 2.636 -2.781 -0.06 0.59 -0.8 0
1 7.56 756 2.140 -12.489 4.899 189.484 -48.309 83.100 -709.338 3229.496 -3833.752 -1.284 3.202 -1.888 -0.06 0.59 -0.81 0.01
1 7.57 757 2.725 -12.316 4.683 261.964 -37.445 90.668 -709.338 3229.496 -3833.752 -1.955 3.103 -1.433 -0.06 0.58 -0.82 0.02
1 7.58 758 3.500 -11.665 4.994 297.181 -21.332 95.673 -559.286 3199.516 -3908.704 -2.834 2.571 -1.403 -0.06 0.56 -0.83 0.02
1 7.59 759 3.328 -10.090 4.439 154.786 -30.792 122.712 -619.247 2989.502 -4073.746 -2.909 1.317 -0.091 -0.05 0.52 -0.85 0.04
1 7.60 760 3.773 -8.701 4.980 -59.265 -55.756 137.543 -739.318 2738.266 -4186.623 -3.499 -0.008 -0.495 -0.05 0.52 -0.85 0.05
1 7.61 761 5.047 -8.720 5.746 -213.135 -42.694 125.916 -649.377 2528.403 -4501.717 -4.904 -0.063 -1.402 -0.05 0.53 -0.85 0.06
1 7.62 762 5.038 -10.865 5.627 -225.129 13.031 94.574 -649.377 2528.403 -4501.717 -5.035 1.937 -1.587 -0.05 0.54 -0.84 0.07
1 7.63 763 4.698 -12.771 4.645 -135.193 60.120 65.644 -469.344 2678.305 -4321.685 -4.830 3.720 -0.890 -0.04 0.55 -0.83 0.07
1 7.64 764 5.062 -11.253 3.769 26.306 70.984 20.325 -469.344 2678.305 -4321.685 -5.312 2.144 -0.162 -0.04 0.56 -0.82 0.07
1 7.65 765 5.085 -8.859 3.256 96.192 62.470 -15.686 -484.334 2813.367 -4291.704 -5.415 -0.247 0.351 -0.03 0.56 -0.82 0.07
1 7.66 766 3.984 -5.976 2.322 136.902 44.800 -59.967 -335.481 2861.936 -4149.896 -4.276 -3.015 1.564 -0.02 0.55 -0.83 0.06
1 7.67 767 3.630 -5.406 2.198 135.224 27.863 -78.980 -290.511 2876.926 -4014.984 -3.856 -3.503 1.877 -0.02 0.54 -0.84 0.06
1 7.68 768 2.318 -4.616 2.753 121.308 15.472 -85.175 -260.380 2816.965 -4224.998 -2.448 -4.210 1.502 -0.03 0.53 -0.85 0.05
1 7.69 769 1.748 -4.434 3.443 100.159 16.357 -80.994 -260.380 2816.965 -4224.998 -1.774 -4.315 0.971 -0.03 0.52 -0.85 0.05
1 7.70 770 1.192 -4.482 3.606 76.172 26.398 -69.947 -395.442 2606.952 -4374.900 -1.125 -4.201 0.936 -0.03 0.52 -0.85 0.04
1 7.71 771 0.670 -4.875 3.898 35.645 38.452 -47.699 -395.442 2606.952 -4374.900 -0.535 -3.758 0.739 -0.03 0.51 -0.86 0.04
1 7.72 772 0.388 -5.536 4.008 3.754 41.260 -30.548 -425.423 2501.870 -4374.900 -0.210 -3.064 0.688 -0.03 0.51 -0.86 0.03
1 7.73 773 0.101 -6.474 3.726 -31.128 39.734 -13.367 -350.472 2456.899 -4450.001 0.094 -2.115 0.989 -0.03 0.51 -0.86 0.03
1 7.74 774 -0.263 -8.265 2.682 -68.054 18.951 4.639 -321.990 2342.674 -4306.844 0.434 -0.377 1.937 -0.02 0.51 -0.86 0.02
1 7.75 775 -0.125 -9.242 2.231 -62.836 -11.597 5.371 -351.971 2462.596 -4366.955 0.280 0.553 2.297 -0.02 0.52 -0.85 0.02
1 7.76 776 0.244 -9.716 2.160 -33.447 -42.481 -3.418 -351.971 2462.596 -4366.955 -0.081 0.981 2.280 -0.02 0.52 -0.85 0.02
1 7.77 777 0.943 -10.056 2.830 4.822 -58.350 -13.275 -307.000 2552.687 -4351.965 -0.740 1.297 1.561 -0.03 0.52 -0.85 0.03
1 7.78 778 1.911 -9.960 3.807 39.978 -41.077 -20.538 -307.000 2552.687 -4351.965 -1.643 1.204 0.586 -0.03 0.52 -0.85 0.03
1 7.79 779 1.791 -9.644 4.089 41.870 -9.857 -22.064 -471.893 2762.700 -4441.906 -1.456 0.909 0.341 -0.04 0.52 -0.85 0.03
1 7.80 780 1.010 -9.400 4.295 28.687 19.989 -22.980 -471.893 2417.625 -4231.893 -0.628 0.695 0.189 -0.04 0.52 -0.85 0.03
1 7.81 781 0.163 -9.323 3.960 -3.906 40.589 -23.438 -471.893 2612.648 -4366.955 0.261 0.650 0.582 -0.04 0.52 -0.86 0.02
1 7.82 782 0.125 -9.180 3.807 -23.956 37.171 -21.698 -456.902 2477.586 -4351.965 0.301 0.499 0.722 -0.04 0.52 -0.85 0.02
1 7.83 783 0.268 -9.611 3.682 -36.591 30.762 -16.785 -456.902 2477.586 -4351.965 0.158 0.911 0.808 -0.03 0.52 -0.85 0.01
1 7.84 784 0.517 -9.812 3.491 -36.194 28.717 -8.331 -396.941 2507.716 -4486.877 -0.092 1.084 0.946 -0.03 0.52 -0.85 0.01
1 7.85 785 0.781 -9.721 3.060 -10.620 42.023 9.705 -396.941 2507.716 -4486.877 -0.367 0.967 1.327 -0.03 0.52 -0.85 0.01
1 7.86 786 0.441 -9.098 2.950 16.083 56.061 19.959 -292.010 2537.697 -4441.906 -0.060 0.329 1.409 -0.03 0.53 -0.85 0.01
1 7.87 787 0.172 -8.327 2.911 38.818 67.749 26.245 -381.951 2627.638 -4396.936 0.153 -0.441 1.454 -0.02 0.53 -0.85 0.01
1 7.88 788 -0.354 -7.887 3.256 54.901 73.761 30.731 -307.000 2522.707 -4321.834 0.516 -0.830 1.219 -0.01 0.52 -0.85 0.01
1 7.89 789 -0.436 -7.647 3.529 51.392 70.679 32.044 -292.010 2732.720 -4306.844 0.506 -1.031 1.022 -0.01 0.52 -0.86 0.01
1 7.90 790 -0.761 -7.566 3.946 37.964 60.578 34.180 -292.010 2732.720 -4306.844 0.739 -1.078 0.671 -0 0.51 -0.86 0.01
1 7.91 791 -0.666 -7.753 4.008 22.064 44.129 35.278 -351.971 2657.619 -4336.975 0.558 -0.866 0.655 0 0.51 -0.86 0.01
1 7.92 792 -0.694 -7.930 3.998 8.545 23.621 35.339 -351.971 2657.619 -4336.975 0.512 -0.674 0.689 0.01 0.51 -0.86 0.01
1 7.93 793 -0.527 -7.944 3.318 -4.852 -6.073 31.921 -126.967 2522.707 -4456.896 0.284 -0.654 1.377 0.01 0.51 -0.86 0.01
1 7.94 794 -0.192 -8.059 2.830 -11.231 -21.393 27.954 -52.016 2447.605 -4606.949 -0.095 -0.541 1.861 0.01 0.51 -0.86 0.01
1 7.95 795 -0.053 -8.524 2.557 -17.273 -31.647 22.614 -52.016 2447.605 -4606.949 -0.258 -0.081 2.123 0.01 0.51 -0.86 0.01
1 7.96 796 0.316 -9.424 3.137 -13.092 -36.438 10.742 7.945 2462.596 -4411.926 -0.632 0.791 1.491 0.01 0.51 -0.86 0.02
1 7.97 797 0.522 -9.754 4.008 1.923 -34.332 2.167 7.945 2462.596 -4411.926 -0.819 1.109 0.598 0 0.51 -0.86 0.02
1 7.98 798 0.919 -9.448 4.731 18.280 -32.105 -5.768 -67.006 2582.667 -4441.906 -1.186 0.804 -0.122 0 0.51 -0.86 0.02
1 7.99 799 1.121 -8.720 5.540 32.959 -24.475 -13.825 -67.006 2582.667 -4441.906 -1.347 0.090 -0.902 -0 0.51 -0.86 0.02
1 8.00 800 1.173 -7.461 6.369 34.180 -4.517 -25.696 -126.967 2477.586 -4531.848 -1.352 -1.142 -1.679 -0 0.51 -0.86 0.02
1 8.01 801 0.929 -7.523 6.699 13.428 10.345 -32.929 -231.899 2477.586 -4426.916 -1.059 -1.049 -1.950 -0 0.51 -0.86 0.02
1 8.02 802 0.436 -8.476 7.154 -17.334 22.858 -41.718 -231.899 2477.586 -4426.916 -0.521 -0.073 -2.364 -0.01 0.51 -0.86 0.02
1 8.03 803 0.158 -10.702 7.049 -48.279 31.189 -54.871 -321.990 2387.645 -4561.978 -0.156 2.128 -2.303 -0.01 0.51 -0.86 0.01
1 8.04 804 0.517 -11.119 6.795 -43.579 29.419 -60.517 -321.990 2387.645 -4561.978 -0.462 2.510 -2.112 -0.01 0.51 -0.86 0.01
1 8.05 805 0.771 -10.793 6.369 -21.729 29.846 -60.364 -21.886 2462.596 -4486.877 -0.656 2.158 -1.736 -0.01 0.51 -0.86 0
1 8.06 806 0.833 -9.457 5.856 5.707 30.182 -56.244 -21.886 2462.596 -4486.877 -0.660 0.814 -1.241 0.01 -0.51 0.86 0
1 8.07 807 0.843 -7.983 5.334 22.003 28.473 -49.286 -171.938 2612.648 -4441.906 -0.618 -0.651 -0.703 0.01 -0.51 0.86 0.01
1 8.08 808 0.627 -6.177 5.239 17.304 19.592 -37.689 -292.010 2582.667 -4366.955 -0.354 -2.434 -0.569 0.01 -0.51 0.86 0.01
1 8.09 809 0.512 -5.411 5.200 0.305 8.850 -31.006 -292.010 2582.667 -4366.955 -0.200 -3.182 -0.498 0.01 -0.51 0.86 0.02
1 8.10 810 0.057 -5.143 5.698 -37.171 -12.024 -26.367 -171.938 2462.596 -4411.926 0.329 -3.454 -1.009 0.01 -0.51 0.86 0.02
1 8.11 811 -0.172 -5.454 6.311 -67.475 -25.574 -25.330 -171.938 2462.596 -4411.926 0.604 -3.172 -1.681 0.01 -0.51 0.86 0.02
1 8.12 812 -0.192 -6.034 6.800 -97.321 -38.391 -22.980 -307.000 2672.609 -4426.916 0.677 -2.643 -2.270 0.02 -0.52 0.85 0.02
1 8.13 813 -0.273 -7.192 7.202 -121.979 -51.117 -21.912 -307.000 2672.609 -4426.916 0.815 -1.547 -2.801 0.02 -0.52 0.85 0.02
1 8.14 814 -0.129 -8.505 7.576 -137.818 -64.667 -22.308 -321.990 2612.648 -4306.844 0.732 -0.305 -3.325 0.02 -0.53 0.85 0.02
1 8.15 815 0.512 -11.282 7.872 -140.015 -78.675 -33.875 -351.971 2657.619 -4336.975 0.166 2.386 -3.817 0.03 -0.54 0.84 0.02
1 8.16 816 1.518 -13.279 7.662 -127.381 -74.341 -51.026 -351.971 2657.619 -4336.975 -0.750 4.301 -3.807 0.03 -0.55 0.83 0.02
1 8.17 817 2.643 -15.098 6.905 -94.239 -48.248 -71.655 -292.010 2837.651 -4156.942 -1.766 6.052 -3.241 0.04 -0.56 0.83 0.02
1 8.18 818 2.528 -14.557 6.168 8.881 25.238 -82.733 -816.368 3050.962 -4133.107 -1.407 5.452 -2.722 0.05 -0.57 0.82 0.03
1 8.19 819 1.010 -12.608 6.168 67.597 64.087 -87.982 -501.423 3110.923 -3968.065 0.210 3.533 -2.677 0.05 -0.56 0.82 0.03
1 8.20 820 -0.728 -11.526 6.302 81.146 74.036 -98.816 -501.423 3110.923 -3968.065 2.038 2.509 -2.693 0.05 -0.56 0.83 0.04
1 8.21 821 -2.227 -11.378 6.307 52.429 63.019 -101.715 -546.394 3230.995 -4103.127 3.636 2.425 -2.577 0.05 -0.55 0.83 0.05
1 8.22 822 -3.869 -12.383 5.560 -3.662 28.168 -70.313 -726.427 3080.943 -4103.127 5.381 3.478 -1.758 0.05 -0.55 0.83 0.06
1 8.23 823 -3.831 -12.781 4.262 -10.986 -1.526 -32.166 -726.427 3080.943 -4103.127 5.429 3.897 -0.445 0.05 -0.55 0.83 0.07
1 8.24 824 -3.448 -12.244 3.227 11.383 -14.923 3.845 -666.316 2900.910 -4238.189 5.101 3.366 0.577 0.06 -0.55 0.83 0.07
1 8.25 825 -2.777 -10.104 2.777 70.496 1.404 45.563 -756.407 3005.992 -4103.127 4.415 1.247 1.085 0.06 -0.55 0.83 0.07
1 8.26 826 -2.375 -8.112 2.830 98.786 7.813 59.326 -756.407 3110.923 -4103.127 3.943 -0.708 1.143 0.05 -0.54 0.84 0.06
1 8.27 827 -1.858 -6.599 2.873 102.356 -3.204 63.172 -756.407 3110.923 -4103.127 3.312 -2.180 1.234 0.05 -0.54 0.84 0.06
1 8.28 828 -1.020 -5.224 3.295 83.710 -22.217 60.059 -756.407 2960.871 -4178.078 2.395 -3.503 0.945 0.05 -0.53 0.84 0.05
1 8.29 829 -0.541 -4.487 3.625 50.415 -38.910 54.962 -741.417 2825.959 -4163.088 1.856 -4.202 0.712 0.05 -0.53 0.85 0.05
1 8.30 830 -0.364 -4.200 3.984 0.366 -50.385 44.678 -741.417 2825.959 -4163.088 1.635 -4.471 0.402 0.05 -0.52 0.85 0.04
1 8.31 831 -0.441 -4.813 4.056 -24.201 -52.246 35.919 -651.326 2765.998 -4358.111 1.684 -3.861 0.333 0.05 -0.52 0.85 0.04
1 8.32 832 -0.565 -6.086 3.965 -36.438 -49.744 23.956 -711.437 2870.930 -4313.140 1.788 -2.633 0.337 0.06 -0.53 0.85 0.03
1 8.33 833 -0.747 -7.245 3.994 -28.504 -45.044 17.029 -801.378 2690.897 -4253.179 1.973 -1.501 0.254 0.06 -0.53 0.85 0.03
1 8.34 834 -0.680 -8.112 3.965 -11.993 -38.452 10.529 -801.378 2690.897 -4253.179 1.914 -0.652 0.243 0.06 -0.53 0.85 0.02
1 8.35 835 -0.814 -9.046 3.706 10.284 -31.372 4.578 -891.319 2870.930 -4268.169 2.053 0.276 0.488 0.06 -0.53 0.84 0.02
1 8.36 836 -0.929 -9.678 3.711 46.082 -20.447 0.671 -756.407 2765.998 -4178.078 2.168 0.915 0.499 0.06 -0.53 0.85 0.02
1 8.37 837 -0.934 -10.171 3.611 66.956 -12.421 1.831 -756.407 2765.998 -4178.078 2.170 1.431 0.646 0.06 -0.53 0.85 0.02
1 8.38 838 -0.982 -10.022 3.591 79.468 -5.554 7.965 -921.300 2795.979 -4208.059 2.209 1.318 0.741 0.06 -0.52 0.85 0.02
1 8.39 839 -0.795 -9.898 3.539 82.855 -1.343 18.402 -876.329 2735.868 -4253.179 2.020 1.246 0.897 0.06 -0.52 0.85 0.01
1 8.40 840 -0.661 -9.323 3.658 66.681 -0.427 34.241 -786.388 2635.133 -4260.974 1.800 0.763 0.974 0.06 -0.51 0.86 0.01
1 8.41 841 -0.129 -9.017 3.654 44.953 -4.852 39.002 -786.388 2635.133 -4260.974 1.209 0.489 1.053 0.06 -0.51 0.86 0.01
1 8.42 842 0.263 -8.988 3.998 17.212 -12.665 39.154 -756.407 2620.143 -4245.984 0.760 0.477 0.751 0.06 -0.5 0.86 0
1 8.43 843 0.752 -9.433 4.228 -10.498 -22.827 35.645 -831.358 2470.091 -4426.017 0.226 0.921 0.527 -0.06 0.5 -0.86 0
1 8.44 844 1.197 -10.008 4.429 -34.302 -37.872 22.888 -831.358 2470.091 -4426.017 -0.247 1.476 0.297 -0.06 0.51 -0.86 0
1 8.45 845 1.355 -10.291 4.104 -29.450 -47.638 10.254 -696.296 2590.013 -4290.955 -0.412 1.730 0.572 -0.06 0.51 -0.86 0.01
1 8.46 846 1.523 -10.477 4.042 -9.369 -57.678 -2.869 -711.437 2605.153 -4335.925 -0.564 1.893 0.587 -0.06 0.51 -0.86 0.01
1 8.47 847 1.762 -10.262 3.931 34.454 -73.426 -20.020 -861.339 2560.032 -4230.994 -0.701 1.678 0.677 -0.07 0.51 -0.86 0.01
1 8.48 848 2.026 -9.558 3.625 58.685 -81.543 -25.665 -861.339 2560.032 -4230.994 -0.881 1.008 1.026 -0.08 0.51 -0.86 0.02
1 8.49 849 2.677 -8.754 3.558 71.137 -82.733 -25.787 -861.339 2605.153 -4305.945 -1.434 0.250 1.152 -0.08 0.5 -0.86 0.02
1 8.50 850 3.433 -7.724 3.520 69.367 -75.104 -22.492 -831.358 2425.120 -4426.017 -2.088 -0.725 1.259 -0.09 0.5 -0.86 0.02
1 8.51 851 3.812 -6.766 3.496 54.260 -58.960 -19.165 -831.358 2425.120 -4426.017 -2.371 -1.630 1.349 -0.1 0.49 -0.86 0.02
1 8.52 852 3.639 -6.000 3.390 14.374 -27.008 -15.259 -1205.215 2594.360 -4238.189 -2.134 -2.355 1.506 -0.1 0.49 -0.87 0.02
1 8.53 853 2.959 -5.957 3.218 -12.756 -9.918 -15.625 -1115.124 2534.399 -4433.062 -1.410 -2.377 1.700 -0.1 0.49 -0.87 0.02
1 8.54 854 1.844 -6.546 2.667 -36.438 4.456 -17.853 -1160.094 2429.317 -4388.091 -0.241 -1.803 2.207 -0.11 0.49 -0.87 0.02
1 8.55 855 1.336 -6.891 2.366 -36.987 8.301 -19.104 -1160.094 2429.317 -4388.091 0.286 -1.481 2.464 -0.11 0.49 -0.86 0.02
1 8.56 856 1.144 -7.259 2.969 -27.649 11.108 -19.806 -1220.205 2384.347 -4433.062 0.497 -1.132 1.820 -0.11 0.49 -0.86 0.02
1 8.57 857 1.235 -7.034 3.879 -14.252 18.189 -18.890 -1295.156 2339.376 -4223.199 0.422 -1.369 0.884 -0.11 0.5 -0.86 0.01
1 8.58 858 1.015 -6.680 4.602 -2.228 29.694 -17.639 -1295.156 2339.376 -4223.199 0.652 -1.725 0.153 -0.11 0.5 -0.86 0.01
1 8.59 859 0.522 -6.072 4.808 11.841 46.295 -10.162 -1145.104 2534.399 -4298.150 1.143 -2.328 -0.042 -0.1 0.5 -0.86 0.01
1 8.60 860 0.771 -5.794 4.884 15.259 45.929 -0.244 -1235.195 2519.259 -4313.140 0.878 -2.594 -0.093 -0.1 0.5 -0.86 0.01
1 8.61 861 1.121 -6.110 4.899 10.742 39.398 14.832 -1235.195 2519.259 -4313.140 0.498 -2.265 -0.075 -0.1 0.49 -0.86 0.01
1 8.62 862 1.456 -7.633 5.277 -6.592 18.799 40.772 -1145.104 2414.327 -4298.150 0.060 -0.738 -0.412 -0.09 0.49 -0.86 0.01
1 8.63 863 1.571 -9.141 5.923 -18.036 4.456 54.199 -1070.153 2339.376 -4148.098 -0.123 0.755 -1.064 -0.09 0.49 -0.86 0.01
1 8.64 864 1.729 -10.793 6.465 -15.106 -4.120 62.378 -1145.104 2489.278 -4298.150 -0.355 2.384 -1.625 -0.09 0.5 -0.86 0.01
1 8.65 865 1.623 -11.857 7.216 6.195 -3.357 67.078 -1145.104 2489.278 -4298.150 -0.329 3.426 -2.390 -0.09 0.5 -0.86 0.02
1 8.66 866 1.489 -11.971 8.131 47.486 11.383 64.911 -920.101 2459.298 -4298.150 -0.280 3.539 -3.286 -0.08 0.5 -0.86 0.02
1 8.67 867 1.053 -10.975 8.428 59.723 22.308 55.603 -875.130 2399.337 -4238.189 0.064 2.563 -3.526 -0.08 0.49 -0.87 0.03
1 8.68 868 0.345 -9.582 8.332 43.976 26.093 41.168 -875.130 2399.337 -4238.189 0.683 1.205 -3.351 -0.08 0.49 -0.87 0.03
1 8.69 869 -0.656 -7.700 7.202 -33.356 20.844 21.393 -965.221 2459.298 -4193.068 1.548 -0.639 -2.132 -0.07 0.49 -0.87 0.03
1 8.70 870 -1.226 -7.576 6.833 -102.722 16.022 11.475 -980.211 2399.337 -4238.189 2.073 -0.800 -1.816 -0.07 0.49 -0.87 0.03
1 8.71 871 -1.508 -8.145 6.283 -165.955 13.001 2.350 -830.159 2324.386 -4388.091 2.318 -0.314 -1.402 -0.07 0.5 -0.86 0.03
1 8.72 872 -1.571 -9.036 6.206 -207.276 13.336 -5.035 -830.159 2324.386 -4388.091 2.354 0.452 -1.543 -0.07 0.51 -0.86 0.03
1 8.73 873 -1.389 -9.932 6.115 -216.096 16.571 -12.787 -875.130 2474.288 -4238.189 2.163 1.204 -1.726 -0.07 0.52 -0.85 0.03
1 8.74 874 -0.977 -10.525 5.967 -168.305 17.609 -24.567 -800.179 2699.292 -4238.189 1.761 1.662 -1.860 -0.07 0.53 -0.84 0.03
1 8.75 875 -0.503 -10.497 6.402 -115.387 16.937 -28.809 -800.029 2703.189 -4230.994 1.307 1.527 -2.538 -0.07 0.55 -0.83 0.03
1 8.76 876 0.024 -10.482 6.484 -38.178 18.921 -20.111 -785.039 2913.202 -4066.101 0.840 1.404 -2.895 -0.07 0.56 -0.83 0.02
1 8.77 877 -0.110 -10.477 6.546 2.960 24.872 -0.702 -830.009 2943.183 -3841.098 0.985 1.387 -2.991 -0.07 0.56 -0.83 0.02
1 8.78 878 -0.670 -10.171 6.469 39.826 33.814 24.445 -905.110 3018.284 -3841.098 1.523 1.087 -2.892 -0.06 0.56 -0.83 0.02
1 8.79 879 -1.207 -9.663 6.034 78.247 37.018 43.976 -905.110 3018.284 -3841.098 1.999 0.604 -2.382 -0.06 0.56 -0.83 0.02
1 8.80 880 -1.317 -8.691 5.607 133.393 13.428 66.162 -740.068 3063.254 -3856.088 2.023 -0.323 -1.828 -0.06 0.55 -0.83 0.02
1 8.81 881 -0.675 -7.245 5.406 143.616 -15.839 81.330 -800.029 2973.163 -3841.098 1.277 -1.698 -1.444 -0.05 0.54 -0.84 0.02
1 8.82 882 -0.177 -6.852 5.349 122.223 -50.659 94.239 -800.029 2973.163 -3841.098 0.667 -2.002 -1.178 -0.05 0.53 -0.84 0.03
1 8.83 883 0.508 -7.240 5.157 72.937 -87.036 102.021 -725.078 2853.241 -3871.078 -0.121 -1.529 -0.800 -0.05 0.52 -0.85 0.04
1 8.84 884 1.901 -9.319 5.090 -25.269 -118.500 104.859 -725.078 2778.290 -3976.010 -1.656 0.621 -0.581 -0.05 0.52 -0.85 0.06
1 8.85 885 2.816 -11.521 4.860 -82.215 -101.410 100.647 -755.058 2628.238 -4020.980 -2.619 2.795 -0.406 -0.06 0.52 -0.85 0.07
1 8.86 886 3.429 -13.039 4.645 -105.957 -56.458 92.499 -755.058 2628.238 -4020.980 -3.302 4.249 -0.313 -0.06 0.52 -0.85 0.08
1 8.87 887 3.778 -13.207 4.765 -82.855 -11.688 85.785 -725.078 2703.189 -4051.111 -3.746 4.349 -0.571 -0.06 0.53 -0.84 0.09
1 8.88 888 5.397 -12.053 5.382 -20.020 16.693 61.127 -695.097 2748.160 -4020.980 -5.475 3.150 -1.287 -0.06 0.54 -0.84 0.09
1 8.89 889 6.867 -10.516 5.421 16.357 24.841 35.950 -695.097 2748.160 -4020.980 -7.044 1.596 -1.365 -0.05 0.54 -0.83 0.1
1 8.90 890 7.465 -8.495 5.196 49.683 43.121 12.177 -725.078 2853.241 -3976.010 -7.714 -0.418 -1.129 -0.05 0.54 -0.84 0.1
1 8.91 891 5.923 -5.947 4.429 86.304 82.337 -15.533 -755.058 2823.261 -3946.029 -6.256 -2.892 -0.212 -0.04 0.53 -0.84 0.1
1 8.92 892 4.286 -4.860 3.845 88.532 94.086 -28.076 -634.986 2838.251 -3991.000 -4.600 -3.919 0.498 -0.04 0.53 -0.84 0.09
1 8.93 893 2.524 -4.372 3.510 73.395 87.067 -35.278 -634.986 2838.251 -3991.000 -2.859 -4.350 0.946 -0.03 0.52 -0.85 0.09
1 8.94 894 1.121 -4.281 3.572 43.976 69.489 -34.607 -590.016 2763.300 -4066.101 -1.465 -4.396 0.970 -0.03 0.52 -0.85 0.08
1 8.95 895 0.412 -4.592 3.381 -8.392 45.563 -20.172 -409.983 2688.199 -4141.052 -0.758 -4.061 1.206 -0.03 0.52 -0.85 0.08
1 8.96 896 -0.091 -5.497 3.103 -36.224 32.868 -10.071 -409.983 2688.199 -4141.052 -0.258 -3.156 1.483 -0.02 0.52 -0.85 0.07
1 8.97 897 -0.211 -6.666 2.682 -51.697 19.531 -3.204 -485.084 2643.228 -3991.000 -0.146 -2.009 1.864 -0.02 0.52 -0.85 0.07
1 8.98 898 -0.374 -8.366 2.457 -36.743 -3.052 -5.066 -395.742 2555.835 -4152.295 0.005 -0.376 1.958 -0.02 0.52 -0.85 0.07
1 8.99 899 0.000 -9.189 2.442 -1.556 -19.898 -12.634 -335.631 2735.718 -4032.223 -0.354 0.428 1.935 -0.02 0.53 -0.85 0.07
1 9.00 900 0.441 -9.659 2.763 41.290 -35.523 -23.041 -335.631 2735.718 -4032.223 -0.756 0.897 1.616 -0.03 0.53 -0.85 0.07
1 9.01 901 0.872 -9.802 3.500 73.548 -45.319 -34.210 -470.693 2675.757 -4077.344 -1.121 1.068 0.937 -0.03 0.52 -0.85 0.07
1 9.02 902 1.312 -9.841 4.305 82.764 -45.471 -41.535 -530.654 2735.718 -4107.324 -1.474 1.154 0.228 -0.03 0.52 -0.85 0.07
1 9.03 903 1.365 -9.721 5.196 46.478 -31.586 -45.166 -530.654 2735.718 -4107.324 -1.434 1.088 -0.558 -0.04 0.51 -0.86 0.07
1 9.04 904 1.082 -9.745 4.841 -0.488 -19.348 -43.152 -410.732 2645.776 -4107.324 -1.066 1.152 -0.129 -0.04 0.51 -0.86 0.07
1 9.05 905 0.579 -9.721 4.142 -43.640 -12.756 -37.903 -410.732 2645.776 -4107.324 -0.489 1.138 0.587 -0.04 0.51 -0.86 0.07
1 9.06 906 0.345 -9.793 3.333 -72.785 -10.590 -28.381 -575.625 2435.763 -4122.314 -0.134 1.139 1.262 -0.05 0.51 -0.85 0.06
1 9.07 907 0.484 -10.099 3.266 -72.541 -5.951 -18.005 -575.625 2435.763 -4122.314 -0.230 1.391 1.222 -0.05 0.52 -0.85 0.06
1 9.08 908 0.627 -10.118 3.218 -60.272 5.768 -3.235 -590.615 2570.825 -4032.223 -0.350 1.358 1.166 -0.05 0.52 -0.85 0.06
1 9.09 909 0.718 -10.032 3.103 -37.445 23.926 15.595 -755.658 2435.763 -4047.363 -0.446 1.230 1.198 -0.05 0.53 -0.85 0.06
1 9.10 910 0.551 -9.759 3.127 8.698 51.605 42.938 -755.658 2435.763 -4047.363 -0.322 0.933 1.125 -0.05 0.53 -0.84 0.06
1 9.11 911 0.383 -9.299 3.146 39.856 65.979 53.925 -620.746 2825.809 -4047.363 -0.234 0.468 1.100 -0.05 0.53 -0.84 0.06
1 9.12 912 0.292 -8.505 3.189 64.423 74.188 56.915 -620.746 2825.809 -4047.363 -0.250 -0.310 1.094 -0.04 0.53 -0.85 0.06
1 9.13 913 -0.048 -7.571 3.227 82.154 79.865 51.392 -650.726 2675.757 -3867.331 -0.153 -1.158 1.224 -0.03 0.52 -0.85 0.06
1 9.14 914 -0.153 -6.958 3.371 80.597 77.027 46.173 -650.726 2675.757 -3867.331 -0.169 -1.711 1.189 -0.02 0.52 -0.85 0.06
1 9.15 915 -0.278 -6.383 3.328 69.214 67.688 42.511 -530.654 2570.825 -4032.223 -0.157 -2.226 1.333 -0.01 0.51 -0.86 0.06
1 9.16 916 -0.326 -5.895 3.520 47.241 49.317 38.788 -410.732 2465.744 -3957.272 -0.210 -2.665 1.223 -0.01 0.51 -0.86 0.06
1 9.17 917 -0.168 -5.402 3.625 17.548 23.865 35.004 -410.732 2465.744 -3957.272 -0.448 -3.124 1.168 -0 0.51 -0.86 0.07
1 9.18 918 0.508 -5.622 3.606 -31.860 -14.038 30.274 -290.661 2480.734 -4197.266 -1.180 -2.893 1.199 0 0.5 -0.86 0.07
1 9.19 919 1.001 -6.340 3.668 -59.296 -34.241 28.442 -290.661 2480.734 -4197.266 -1.707 -2.189 1.107 0 0.51 -0.86 0.07
1 9.20 920 1.523 -7.614 4.712 -76.020 -49.317 22.492 -155.749 2270.721 -4032.223 -2.247 -0.997 -0.090 -0 0.51 -0.85 0.08
1 9.21 921 1.609 -8.423 5.076 -68.085 -50.232 15.289 -155.749 2270.721 -4032.223 -2.317 -0.237 -0.543 -0.01 0.52 -0.85 0.08
1 9.22 922 1.901 -8.734 5.124 -50.354 -45.349 6.287 -305.651 2465.744 -4137.305 -2.575 0.034 -0.665 -0.01 0.52 -0.85 0.08
1 9.23 923 1.978 -8.682 5.483 -24.048 -29.755 -6.928 -290.661 2480.734 -3942.282 -2.608 -0.047 -1.072 -0.01 0.52 -0.85 0.08
1 9.24 924 1.451 -8.481 6.000 12.421 6.134 -32.623 -290.661 2480.734 -3942.282 -2.030 -0.258 -1.602 -0.02 0.52 -0.85 0.08
1 9.25 925 0.709 -8.792 6.125 22.614 30.914 -51.544 -410.732 2645.776 -3987.252 -1.231 0.060 -1.707 -0.02 0.52 -0.85 0.08
1 9.26 926 0.034 -9.850 6.187 23.590 53.742 -70.221 -410.732 2645.776 -3987.252 -0.497 1.134 -1.731 -0.02 0.52 -0.85 0.08
1 9.27 927 -0.412 -11.268 6.230 20.050 72.754 -83.802 -260.680 2540.845 -3927.292 0.009 2.566 -1.739 -0.02 0.52 -0.85 0.07
1 9.28 928 -0.867 -12.283 7.092 3.296 79.376 -99.549 -305.651 2570.825 -4032.223 0.593 3.598 -2.560 -0.02 0.52 -0.85 0.05
1 9.29 929 -1.259 -12.259 7.532 -14.954 69.367 -103.974 -395.742 2525.705 -4197.266 1.068 3.570 -3.004 -0.02 0.52 -0.85 0.05
1 9.30 930 -1.681 -11.684 7.480 -31.128 47.211 -97.382 -305.651 2540.845 -4032.223 1.582 2.980 -2.977 -0.02 0.52 -0.85 0.04
1 9.31 931 -1.863 -10.870 6.896 -42.328 19.348 -84.290 -305.651 2540.845 -4032.223 1.864 2.143 -2.438 -0.02 0.52 -0.85 0.03
1 9.32 932 -1.125 -9.122 5.665 -46.082 -13.947 -58.624 -380.752 2540.845 -4032.223 1.225 0.366 -1.264 -0.02 0.52 -0.85 0.02
1 9.33 933 -0.532 -8.275 5.200 -40.283 -24.658 -43.121 -380.752 2540.845 -4032.223 0.724 -0.510 -0.861 -0.02 0.53 -0.85 0.02
1 9.34 934 -0.043 -7.245 5.224 -32.013 -29.907 -30.701 -320.641 2630.786 -4047.363 0.310 -1.564 -0.938 -0.03 0.53 -0.85 0.02
1 9.35 935 0.560 -6.225 5.569 -34.882 -33.997 -13.306 -410.732 2495.724 -3987.252 -0.185 -2.615 -1.356 -0.03 0.53 -0.85 0.02
1 9.36 936 0.651 -6.029 5.971 -48.981 -38.086 -5.676 -485.684 2570.825 -3882.321 -0.238 -2.835 -1.811 -0.04 0.54 -0.84 0.02
1 9.37 937 0.397 -6.283 6.053 -65.735 -45.227 -0.854 -455.703 2735.718 -3882.321 0.048 -2.614 -1.966 -0.04 0.54 -0.84 0.02
1 9.38 938 0.168 -7.135 6.450 -78.614 -53.345 0.732 -455.703 2735.718 -3882.321 0.308 -1.804 -2.461 -0.04 0.54 -0.84 0.02
1 9.39 939 -0.196 -8.864 6.809 -79.529 -61.493 -9.247 -650.726 2780.838 -3867.331 0.704 -0.114 -2.912 -0.05 0.55 -0.84 0.02
1 9.40 940 -0.302 -10.315 7.068 -66.071 -62.805 -22.675 -650.726 2780.838 -3867.331 0.851 1.300 -3.264 -0.05 0.55 -0.83 0.02
1 9.41 941 0.239 -11.608 7.111 -39.459 -57.160 -35.492 -395.742 2600.806 -3762.249 0.373 2.555 -3.408 -0.05 0.56 -0.83 0.02
1 9.42 942 1.719 -13.058 7.298 20.294 -22.400 -55.206 -665.716 2765.698 -3882.321 -0.938 3.982 -3.685 -0.06 0.56 -0.83 0.02
1 9.43 943 1.801 -12.632 7.571 62.226 22.827 -68.695 -635.736 2916.200 -3671.258 -0.931 3.582 -3.913 -0.07 0.56 -0.83 0.02
1 9.44 944 1.197 -11.751 7.513 73.303 66.742 -84.168 -650.726 2901.210 -3641.278 -0.246 2.750 -3.755 -0.07 0.55 -0.83 0.01
1 9.45 945 -0.273 -10.832 7.054 41.382 88.806 -97.443 -650.726 2901.210 -3641.278 1.302 1.885 -3.189 -0.07 0.55 -0.83 0.01
1 9.46 946 -1.863 -10.621 6.354 -12.451 86.212 -103.241 -860.739 2736.317 -3701.239 2.976 1.708 -2.435 0.07 -0.54 0.84 0
1 9.47 947 -3.864 -11.325 4.180 -47.882 56.854 -73.670 -860.739 2736.317 -3701.239 5.067 2.417 -0.277 0.06 -0.54 0.84 0.01
1 9.48 948 -4.386 -11.406 2.615 -20.264 29.541 -32.990 -830.759 2601.255 -3896.262 5.664 2.486 1.238 0.06 -0.55 0.83 0.02
1 9.49 949 -4.118 -10.482 1.729 22.461 6.989 6.866 -620.746 2436.213 -3761.350 5.435 1.555 2.093 0.06 -0.55 0.83 0.03
1 9.50 950 -3.850 -8.715 1.853 57.068 -1.709 42.816 -710.387 2644.877 -3853.240 5.126 -0.182 2.052 0.06 -0.54 0.84 0.02
1 9.51 951 -3.601 -7.485 2.126 57.160 -10.101 52.612 -860.439 2644.877 -3883.220 4.780 -1.396 1.846 0.06 -0.54 0.84 0.02
1 9.52 952 -3.156 -6.527 2.457 48.340 -26.550 52.948 -860.439 2644.877 -3883.220 4.253 -2.333 1.585 0.06 -0.54 0.84 0.01
1 9.53 953 -2.327 -5.866 3.117 36.469 -46.173 52.460 -710.387 2614.896 -3853.240 3.374 -2.973 0.983 0.06 -0.54 0.84 0.01
1 9.54 954 -1.269 -5.483 4.147 17.853 -64.057 52.643 -710.387 2614.896 -3853.240 2.277 -3.343 -0.008 0.06 -0.53 0.84 0
1 9.55 955 -0.910 -5.679 4.544 8.331 -66.162 51.178 -965.371 2644.877 -3853.240 1.886 -3.140 -0.385 -0.06 0.53 -0.84 0
1 9.56 956 -1.053 -5.919 4.913 3.754 -65.338 45.990 -725.377 2599.906 -3763.148 2.003 -2.901 -0.748 -0.06 0.53 -0.84 0.01
1 9.57 957 -1.322 -6.896 5.272 6.897 -66.559 34.424 -740.518 2494.975 -3988.152 2.237 -1.929 -1.110 -0.07 0.53 -0.84 0.02
1 9.58 958 -1.633 -7.667 5.320 8.606 -69.977 23.926 -830.459 2524.955 -3793.279 2.549 -1.157 -1.156 -0.07 0.53 -0.84 0.02
1 9.59 959 -1.642 -8.629 5.181 7.141 -71.533 12.146 -830.459 2524.955 -3793.279 2.557 -0.188 -1.002 -0.07 0.53 -0.84 0.03
1 9.60 960 -1.350 -9.673 5.066 4.822 -69.824 0.977 -830.459 2435.014 -3838.250 2.279 0.862 -0.878 -0.08 0.53 -0.84 0.03
1 9.61 961 -0.771 -10.659 4.477 6.836 -58.258 -6.622 -830.459 2435.014 -3838.250 1.736 1.852 -0.289 -0.08 0.53 -0.84 0.04
1 9.62 962 0.340 -11.517 3.941 29.144 -32.959 -3.754 -875.430 2629.887 -3898.210 0.671 2.717 0.253 -0.09 0.53 -0.84 0.04
1 9.63 963 0.958 -11.339 4.137 49.988 -20.416 5.737 -1100.433 2435.014 -3868.230 0.085 2.557 0.085 -0.09 0.53 -0.84 0.04
1 9.64 964 2.035 -10.185 4.564 66.742 -12.116 22.705 -1040.322 2495.424 -3927.591 -0.989 1.472 -0.201 -0.09 0.52 -0.85 0.04
1 9.65 965 2.878 -8.873 4.990 60.333 -6.622 32.074 -980.361 2480.434 -4047.513 -1.858 0.202 -0.539 -0.09 0.51 -0.85 0.05
1 9.66 966 2.959 -7.777 4.899 39.093 -0.824 36.865 -980.361 2480.434 -4047.513 -1.973 -0.859 -0.373 -0.09 0.51 -0.85 0.05
1 9.67 967 2.624 -7.221 4.683 6.134 2.930 34.760 -1130.414 2435.313 -4017.533 -1.671 -1.394 -0.111 -0.09 0.51 -0.85 0.05
1 9.68 968 1.762 -7.470 4.056 -45.868 -3.235 24.292 -1130.414 2435.313 -4017.533 -0.841 -1.147 0.519 -0.09 0.51 -0.85 0.05
1 9.69 969 1.101 -8.284 3.630 -61.920 -14.710 13.580 -890.420 2390.343 -3957.572 -0.214 -0.363 0.896 -0.09 0.51 -0.85 0.06
1 9.70 970 0.761 -9.070 3.084 -54.596 -26.611 0.275 -950.381 2360.362 -3897.611 0.116 0.380 1.362 -0.09 0.52 -0.85 0.06
1 9.71 971 0.718 -9.587 2.744 -26.184 -38.117 -14.648 -950.381 2360.362 -3897.611 0.172 0.856 1.617 -0.09 0.52 -0.85 0.06
1 9.72 972 0.766 -9.529 2.595 33.997 -50.903 -36.835 -950.381 2480.434 -3942.582 0.226 0.774 1.693 -0.1 0.52 -0.85 0.06
1 9.73 973 1.183 -9.103 2.744 70.374 -56.030 -47.791 -950.381 2480.434 -3942.582 -0.104 0.377 1.585 -0.1 0.52 -0.85 0.06
1 9.74 974 1.389 -8.562 3.117 93.201 -58.594 -55.878 -1130.414 2480.434 -4017.533 -0.205 -0.108 1.295 -0.11 0.51 -0.85 0.06
1 9.75 975 1.824 -8.136 3.567 96.222 -56.671 -58.441 -1130.414 2480.434 -4017.533 -0.525 -0.462 0.952 -0.11 0.51 -0.85 0.06
1 9.76 976 2.064 -7.901 4.583 73.120 -47.821 -57.617 -1190.375 2390.343 -3882.621 -0.644 -0.620 0.044 -0.12 0.5 -0.86 0.06
1 9.77 977 2.198 -7.944 5.143 47.547 -36.530 -54.321 -1115.273 2315.392 -3987.552 -0.661 -0.507 -0.426 -0.12 0.49 -0.86 0.05
1 9.78 978 1.997 -8.447 5.454 25.940 -23.438 -49.317 -1115.273 2315.392 -3987.552 -0.356 0.051 -0.673 -0.13 0.49 -0.86 0.05
1 9.79 979 1.733 -9.170 5.531 10.559 -4.395 -39.398 -1310.296 2255.431 -4047.513 0.064 0.840 -0.692 -0.13 0.49 -0.86 0.05
1 9.80 980 1.408 -9.151 5.291 14.191 5.310 -32.501 -1310.296 2255.431 -4047.513 0.439 0.841 -0.436 -0.13 0.48 -0.86 0.05
1 9.81 981 1.235 -8.806 4.846 19.989 11.780 -25.971 -1280.316 2180.330 -4122.614 0.641 0.517 0.033 -0.13 0.48 -0.86 0.04
1 9.82 982 1.049 -8.404 4.334 19.379 14.099 -19.531 -1280.316 2180.330 -4122.614 0.845 0.136 0.575 -0.13 0.48 -0.87 0.04
1 9.83 983 0.666 -7.839 3.563 -4.395 10.437 -9.918 -1385.397 2210.310 -3972.562 1.234 -0.413 1.370 -0.13 0.48 -0.87 0.04
1 9.84 984 0.330 -7.585 2.878 -28.870 5.707 -3.937 -1400.388 2150.349 -3957.572 1.569 -0.666 2.057 -0.13 0.48 -0.87 0.04
1 9.85 985 0.014 -7.590 2.241 -50.080 1.434 1.801 -1400.388 2150.349 -3957.572 1.886 -0.676 2.669 -0.13 0.48 -0.87 0.04
1 9.86 986 -0.311 -7.853 1.829 -59.998 -3.052 6.287 -1325.287 2120.369 -4032.523 2.210 -0.446 3.025 -0.13 0.48 -0.86 0.04
1 9.87 987 -0.699 -7.963 2.361 -51.788 -5.981 10.071 -1505.169 2061.157 -3971.513 2.585 -0.424 2.345 -0.13 0.49 -0.86 0.04
1 9.88 988 -0.656 -7.925 3.199 -37.048 -5.981 9.796 -1385.098 2136.108 -4076.594 2.534 -0.498 1.445 -0.13 0.5 -0.86 0.04
1 9.89 989 -0.532 -7.662 3.778 -21.942 -7.263 9.399 -1385.098 2136.108 -4076.594 2.402 -0.787 0.822 -0.13 0.5 -0.86 0.04
1 9.90 990 0.144 -7.556 4.142 -8.545 -10.712 10.773 -1280.166 2106.128 -3896.562 1.720 -0.907 0.434 -0.13 0.5 -0.86 0.04
1 9.91 991 1.298 -7.312 4.540 7.294 -19.562 15.198 -1520.160 2121.118 -3881.571 0.560 -1.157 0.027 -0.13 0.5 -0.86 0.04
1 9.92 992 2.318 -7.690 4.554 14.801 -24.597 21.698 -1520.160 2121.118 -3881.571 -0.466 -0.779 0.016 -0.14 0.5 -0.86 0.04
1 9.93 993 3.232 -8.399 4.904 17.456 -28.046 29.083 -1385.098 2256.180 -3866.581 -1.389 -0.065 -0.320 -0.14 0.5 -0.86 0.05
1 9.94 994 4.257 -9.352 5.258 7.568 -25.604 43.091 -1355.117 2181.079 -3941.532 -2.440 0.900 -0.643 -0.14 0.5 -0.86 0.05
1 9.95 995 4.726 -9.759 5.703 -7.599 -17.670 50.018 -1355.117 2136.108 -3866.581 -2.951 1.298 -1.088 -0.14 0.5 -0.86 0.06
1 9.96 996 5.081 -9.740 6.216 -22.461 -5.005 51.758 -1355.117 2136.108 -3866.581 -3.360 1.258 -1.617 -0.14 0.5 -0.86 0.06
