COL1	TIME	ACC_X	ACC_Y	ACC_Z	GYR_X	GYR_Y	GYR_Z	MAG_X	MAG_Y	MAG_Z	LACC_X	LACC_Y	LACC_Z	QUAT_X	QUAT_Y	QUAT_Z	QUAT_W
1 0.00 0 0.862 -8.959 4.214 -0.671 -0.031 1.587 -779.942 -1349.871 -3854.889 -0.011 0.107 -0.098 -0.09 0.53 -0.84 0.05
1 0.01 1 0.828 -8.892 4.147 -0.854 -0.336 0.977 -824.913 -1349.871 -3824.908 0.022 0.039 -0.031 -0.09 0.53 -0.84 0.05
1 0.02 2 0.761 -8.974 4.133 -0.397 -0.183 1.038 -824.913 -1379.851 -3794.928 0.089 0.121 -0.017 -0.09 0.53 -0.84 0.05
1 0.03 3 0.814 -8.969 4.171 0.092 -0.458 1.373 -749.961 -1379.851 -3824.908 0.036 0.116 -0.055 -0.09 0.53 -0.84 0.05
1 0.04 4 0.848 -8.988 4.166 -0.427 -0.824 1.099 -764.952 -1289.910 -3764.947 0.002 0.135 -0.051 -0.09 0.53 -0.84 0.05
1 0.05 5 0.838 -8.950 4.094 -0.305 -0.854 1.282 -764.952 -1289.910 -3764.947 0.012 0.097 0.021 -0.09 0.53 -0.84 0.05
1 0.06 6 0.862 -8.907 4.238 -1.068 -0.824 1.465 -824.913 -1349.871 -3899.859 -0.013 0.053 -0.123 -0.09 0.53 -0.84 0.05
1 0.07 7 0.881 -8.964 4.195 -1.068 -0.946 1.221 -824.913 -1349.871 -3899.859 -0.032 0.111 -0.080 -0.09 0.53 -0.84 0.05
1 0.08 8 0.939 -8.931 4.195 -1.282 -0.519 0.854 -839.903 -1289.910 -3809.918 -0.089 0.077 -0.079 -0.09 0.53 -0.84 0.05
1 0.09 9 0.771 -8.945 4.137 -2.014 -0.763 0.885 -779.942 -1304.900 -3824.908 0.079 0.092 -0.021 -0.09 0.53 -0.84 0.05
1 0.10 10 0.848 -8.883 4.209 -1.404 -0.610 0.885 -824.913 -1274.919 -3899.859 0.002 0.030 -0.094 -0.09 0.53 -0.84 0.05
1 0.11 11 0.953 -8.998 4.080 -1.648 -0.549 1.282 -734.971 -1409.981 -3839.898 -0.103 0.145 0.036 -0.09 0.53 -0.84 0.05
1 0.12 12 0.828 -8.950 4.018 -0.946 -0.916 1.465 -734.971 -1409.981 -3839.898 0.022 0.097 0.098 -0.09 0.53 -0.84 0.05
1 0.13 13 0.929 -8.840 4.190 -0.946 -1.251 0.702 -824.913 -1469.942 -3854.889 -0.079 -0.014 -0.075 -0.09 0.53 -0.84 0.05
1 0.14 14 0.910 -8.950 4.142 -0.305 -0.732 0.580 -824.913 -1469.942 -3854.889 -0.059 0.097 -0.027 -0.09 0.53 -0.84 0.05
1 0.15 15 0.895 -8.955 4.061 -0.702 -1.099 0.946 -779.942 -1304.900 -3854.889 -0.045 0.102 0.055 -0.09 0.53 -0.84 0.05
1 0.16 16 0.972 -8.988 4.247 -0.549 -0.031 0.885 -794.932 -1439.962 -3915.000 -0.121 0.135 -0.133 -0.09 0.53 -0.84 0.05
1 0.17 17 0.972 -8.959 4.243 -1.038 -0.061 0.946 -674.860 -1469.942 -3974.960 -0.121 0.106 -0.128 -0.09 0.53 -0.84 0.05
1 0.18 18 0.838 -9.036 4.315 -0.549 0.305 1.099 -794.932 -1514.913 -3734.967 0.015 0.183 -0.199 -0.09 0.53 -0.84 0.05
1 0.19 19 0.919 -8.868 4.214 -0.977 0.519 1.251 -794.932 -1514.913 -3734.967 -0.067 0.016 -0.098 -0.09 0.53 -0.84 0.05
1 0.20 20 0.958 -8.964 4.089 -1.251 -0.031 1.678 -839.903 -1334.880 -3809.918 -0.105 0.112 0.027 -0.09 0.53 -0.84 0.05
1 0.21 21 0.814 -9.017 4.252 -0.977 0.153 1.251 -839.903 -1334.880 -3809.918 0.038 0.164 -0.136 -0.09 0.53 -0.84 0.05
1 0.22 22 0.881 -8.955 4.137 -0.519 -0.275 1.038 -794.932 -1364.861 -3809.918 -0.029 0.102 -0.021 -0.09 0.53 -0.84 0.05
1 0.23 23 0.910 -8.931 4.190 -0.549 -0.580 0.885 -839.903 -1259.929 -3839.898 -0.059 0.078 -0.074 -0.09 0.53 -0.84 0.05
1 0.24 24 0.814 -8.868 4.109 -0.549 -0.916 1.007 -764.952 -1439.962 -3809.918 0.037 0.015 0.007 -0.09 0.53 -0.84 0.05
1 0.25 25 0.982 -9.094 4.281 0.244 -1.007 0.977 -824.913 -1349.871 -3854.889 -0.131 0.241 -0.165 -0.09 0.53 -0.84 0.05
1 0.26 26 1.015 -8.864 4.176 -1.038 -1.556 1.068 -824.913 -1349.871 -3854.889 -0.164 0.011 -0.059 -0.09 0.53 -0.84 0.05
1 0.27 27 0.958 -8.988 4.195 -0.549 -1.007 0.153 -734.971 -1364.861 -3704.986 -0.106 0.136 -0.078 -0.09 0.53 -0.84 0.05
1 0.28 28 0.910 -8.964 4.195 -0.946 -0.641 0.946 -734.971 -1364.861 -3704.986 -0.058 0.112 -0.078 -0.09 0.53 -0.84 0.05
1 0.29 29 0.886 -8.931 4.233 -0.793 -0.793 1.282 -854.893 -1469.942 -3794.928 -0.034 0.078 -0.116 -0.09 0.53 -0.84 0.05
1 0.30 30 0.953 -8.792 4.214 -1.587 -0.549 1.251 -824.913 -1379.851 -3854.889 -0.101 -0.060 -0.096 -0.09 0.53 -0.84 0.05
1 0.31 31 0.967 -8.969 4.166 -1.007 -0.183 0.366 -839.903 -1334.880 -3839.898 -0.115 0.117 -0.048 -0.09 0.53 -0.84 0.05
1 0.32 32 0.910 -8.907 4.094 -0.946 -0.427 0.580 -839.903 -1259.929 -3764.947 -0.057 0.055 0.024 -0.09 0.53 -0.84 0.05
1 0.33 33 0.804 -8.964 4.156 -1.160 -0.336 0.885 -839.903 -1259.929 -3764.947 0.049 0.112 -0.038 -0.09 0.53 -0.84 0.05
1 0.34 34 0.886 -8.950 4.142 -0.549 -0.549 0.702 -749.961 -1304.900 -3854.889 -0.033 0.098 -0.024 -0.09 0.53 -0.84 0.05
1 0.35 35 0.833 -8.969 4.247 -0.580 -0.519 0.854 -749.961 -1304.900 -3854.889 0.020 0.117 -0.130 -0.09 0.53 -0.84 0.05
1 0.36 36 0.915 -8.892 4.214 -0.641 -0.671 0.671 -779.942 -1424.972 -3719.977 -0.061 0.041 -0.096 -0.09 0.53 -0.84 0.05
1 0.37 37 0.895 -8.945 4.133 -0.488 0.214 0.671 -764.952 -1289.910 -3659.866 -0.042 0.094 -0.014 -0.09 0.53 -0.84 0.05
1 0.38 38 0.800 -8.964 4.319 -1.129 -0.519 0.763 -690.000 -1289.910 -3884.869 0.055 0.113 -0.200 -0.09 0.53 -0.84 0.05
1 0.39 39 0.833 -9.103 4.142 -0.977 -0.519 1.038 -734.971 -1559.884 -3809.918 0.021 0.252 -0.022 -0.09 0.53 -0.84 0.05
1 0.40 40 0.833 -8.926 4.161 0.061 -0.977 0.793 -734.971 -1559.884 -3809.918 0.021 0.075 -0.042 -0.09 0.53 -0.84 0.05
1 0.41 41 0.814 -8.950 4.152 0.275 -0.702 0.793 -794.932 -1409.981 -3734.967 0.040 0.099 -0.033 -0.09 0.53 -0.84 0.05
1 0.42 42 0.862 -8.935 4.367 0.610 -0.854 1.282 -794.932 -1409.981 -3734.967 -0.008 0.085 -0.247 -0.09 0.53 -0.84 0.05
1 0.43 43 0.824 -8.830 4.228 -0.427 -1.190 1.038 -764.952 -1334.880 -3884.869 0.029 -0.020 -0.106 -0.09 0.53 -0.84 0.05
1 0.44 44 0.838 -8.955 4.176 -0.854 -1.190 1.404 -929.994 -1574.874 -3794.928 0.015 0.105 -0.053 -0.09 0.53 -0.84 0.05
1 0.45 45 0.881 -9.026 4.209 -1.038 -0.366 1.678 -929.994 -1574.874 -3794.928 -0.028 0.177 -0.086 -0.09 0.53 -0.84 0.05
1 0.46 46 0.876 -8.940 4.267 -1.862 -0.916 0.458 -779.942 -1424.972 -3749.957 -0.024 0.091 -0.144 -0.09 0.53 -0.84 0.05
1 0.47 47 0.852 -8.864 4.262 -1.923 -0.702 1.038 -779.942 -1424.972 -3749.957 0.000 0.014 -0.139 -0.09 0.53 -0.84 0.05
1 0.48 48 0.800 -8.883 4.233 -1.648 -0.458 0.702 -794.932 -1334.880 -3809.918 0.053 0.033 -0.110 -0.09 0.53 -0.84 0.05
1 0.49 49 0.838 -8.974 4.190 -1.648 -1.099 1.251 -794.932 -1334.880 -3809.918 0.014 0.125 -0.066 -0.09 0.53 -0.84 0.05
1 0.50 50 0.781 -8.926 4.046 -1.251 -0.397 1.099 -824.913 -1349.871 -3794.928 0.071 0.077 0.077 -0.09 0.53 -0.84 0.05
1 0.51 51 0.833 -8.964 4.137 -0.916 -1.312 0.427 -779.942 -1304.900 -3854.889 0.019 0.115 -0.013 -0.09 0.53 -0.84 0.05
1 0.52 52 0.824 -8.988 4.276 -0.549 -1.556 0.641 -779.942 -1304.900 -3854.889 0.028 0.139 -0.152 -0.09 0.53 -0.84 0.05
1 0.53 53 0.848 -8.993 4.200 -0.549 -1.617 0.427 -929.994 -1424.972 -3674.856 0.004 0.144 -0.076 -0.09 0.53 -0.84 0.05
1 0.54 54 0.819 -9.055 4.348 -0.519 -1.526 0.580 -929.994 -1424.972 -3674.856 0.033 0.206 -0.224 -0.09 0.53 -0.84 0.05
1 0.55 55 0.872 -9.003 4.343 -1.129 -1.801 0.824 -749.961 -1424.972 -3794.928 -0.019 0.154 -0.218 -0.09 0.53 -0.84 0.05
1 0.56 56 0.905 -9.060 4.291 -0.793 -1.495 0.885 -749.961 -1424.972 -3794.928 -0.053 0.212 -0.165 -0.09 0.53 -0.84 0.05
1 0.57 57 0.991 -9.026 4.257 -1.099 -0.885 1.648 -690.000 -1409.981 -3839.898 -0.139 0.178 -0.131 -0.09 0.53 -0.84 0.05
1 0.58 58 0.852 -8.969 4.166 -1.617 -0.336 1.587 -794.932 -1259.929 -3809.918 0.000 0.121 -0.040 -0.09 0.53 -0.84 0.05
1 0.59 59 0.857 -8.888 4.224 -1.251 -0.244 1.648 -794.932 -1259.929 -3809.918 -0.005 0.040 -0.097 -0.09 0.53 -0.84 0.05
1 0.60 60 0.915 -8.979 4.166 -2.014 -0.488 1.526 -899.864 -1544.894 -3824.908 -0.062 0.131 -0.039 -0.09 0.53 -0.84 0.05
1 0.61 61 0.685 -8.859 4.156 -1.617 -0.671 1.465 -899.864 -1544.894 -3824.908 0.168 0.011 -0.030 -0.09 0.53 -0.84 0.05
1 0.62 62 0.867 -8.945 4.209 -1.862 -0.458 1.587 -794.932 -1364.861 -3839.898 -0.015 0.097 -0.083 -0.09 0.53 -0.84 0.05
1 0.63 63 0.843 -8.921 4.142 -1.190 -0.946 1.801 -794.932 -1364.861 -3839.898 0.008 0.073 -0.015 -0.09 0.53 -0.84 0.05
1 0.64 64 0.733 -8.864 4.200 -0.732 -1.038 1.312 -674.860 -1424.972 -3794.928 0.119 0.016 -0.073 -0.09 0.53 -0.84 0.05
1 0.65 65 0.776 -8.959 4.257 -0.122 -1.312 0.824 -674.860 -1304.900 -3794.928 0.075 0.112 -0.130 -0.09 0.53 -0.84 0.05
1 0.66 66 0.824 -8.854 4.233 -0.153 -1.617 1.465 -674.860 -1304.900 -3794.928 0.026 0.006 -0.106 -0.09 0.53 -0.84 0.05
1 0.67 67 0.728 -9.046 4.180 -0.488 -1.740 0.488 -779.942 -1424.972 -3719.977 0.121 0.198 -0.053 -0.09 0.53 -0.84 0.05
1 0.68 68 0.828 -8.945 4.224 -0.916 -1.129 1.282 -764.952 -1409.981 -3734.967 0.021 0.098 -0.095 -0.09 0.53 -0.84 0.05
1 0.69 69 0.843 -8.974 4.075 -1.312 -1.526 1.312 -869.883 -1439.962 -3809.918 0.006 0.127 0.054 -0.09 0.53 -0.84 0.05
1 0.70 70 0.905 -8.945 4.262 -1.648 -1.007 0.977 -869.883 -1439.962 -3809.918 -0.056 0.098 -0.133 -0.09 0.53 -0.84 0.05
1 0.71 71 0.876 -8.945 4.185 -1.617 -0.458 1.038 -824.913 -1379.851 -3824.908 -0.027 0.098 -0.056 -0.09 0.53 -0.84 0.05
1 0.72 72 1.006 -8.988 4.224 -1.648 -0.336 1.556 -854.893 -1379.851 -3794.928 -0.156 0.141 -0.094 -0.09 0.53 -0.84 0.05
1 0.73 73 0.872 -8.883 4.233 -1.282 -0.671 1.984 -854.893 -1379.851 -3794.928 -0.021 0.036 -0.104 -0.09 0.53 -0.84 0.05
1 0.74 74 0.891 -8.935 4.161 -1.373 -0.427 1.312 -794.932 -1364.861 -3659.866 -0.040 0.089 -0.032 -0.09 0.53 -0.84 0.05
1 0.75 75 0.872 -8.988 4.190 -1.709 -0.793 1.160 -824.913 -1469.942 -3899.859 -0.021 0.142 -0.060 -0.09 0.53 -0.84 0.05
1 0.76 76 0.804 -8.897 4.214 -1.709 -0.793 0.458 -824.913 -1379.851 -3749.957 0.047 0.051 -0.085 -0.09 0.53 -0.84 0.05
1 0.77 77 0.852 -8.907 4.276 -0.824 -1.099 0.702 -824.913 -1379.851 -3749.957 -0.001 0.060 -0.147 -0.09 0.53 -0.84 0.05
1 0.78 78 0.958 -8.859 4.200 -0.366 -1.221 1.190 -764.952 -1364.861 -3734.967 -0.107 0.012 -0.070 -0.09 0.53 -0.84 0.05
1 0.79 79 0.867 -8.931 4.262 -0.305 -1.129 0.549 -929.994 -1379.851 -3794.928 -0.016 0.084 -0.132 -0.09 0.53 -0.84 0.05
1 0.80 80 0.876 -8.979 4.262 -0.824 -0.977 0.610 -929.994 -1379.851 -3794.928 -0.025 0.132 -0.131 -0.09 0.53 -0.84 0.05
1 0.81 81 0.881 -8.912 4.267 -0.854 -0.488 0.946 -659.870 -1334.880 -3734.967 -0.030 0.065 -0.136 -0.09 0.53 -0.84 0.05
1 0.82 82 0.795 -8.907 4.252 -0.763 -0.092 1.221 -749.961 -1379.851 -3674.856 0.057 0.061 -0.121 -0.09 0.53 -0.84 0.05
1 0.83 83 0.848 -8.892 4.195 -1.251 0.275 0.854 -690.000 -1409.981 -3734.967 0.003 0.047 -0.063 -0.09 0.53 -0.84 0.05
1 0.84 84 0.809 -8.955 4.032 -1.617 0.244 0.854 -690.000 -1409.981 -3734.967 0.042 0.109 0.101 -0.09 0.53 -0.84 0.05
1 0.85 85 0.804 -8.931 4.147 -1.526 -0.183 0.946 -914.854 -1439.962 -3884.869 0.045 0.085 -0.016 -0.09 0.53 -0.84 0.05
1 0.86 86 0.867 -9.036 4.113 -1.007 0.122 1.617 -854.893 -1304.900 -3749.957 -0.017 0.190 0.018 -0.09 0.53 -0.84 0.05
1 0.87 87 0.790 -9.022 4.037 -1.221 -0.305 1.007 -854.893 -1304.900 -3749.957 0.060 0.176 0.094 -0.09 0.53 -0.84 0.05
1 0.88 88 0.785 -8.883 4.133 -1.373 -0.732 1.007 -794.932 -1334.880 -3839.898 0.064 0.037 -0.002 -0.09 0.53 -0.84 0.05
1 0.89 89 0.862 -8.950 4.022 -0.916 -1.099 0.793 -869.883 -1559.884 -3704.986 -0.013 0.103 0.108 -0.09 0.53 -0.84 0.05
1 0.90 90 0.843 -8.955 4.247 -0.824 -1.068 1.221 -794.932 -1289.910 -3989.951 0.006 0.108 -0.119 -0.09 0.53 -0.84 0.05
1 0.91 91 0.958 -8.926 4.190 -1.343 -1.007 0.732 -794.932 -1289.910 -3989.951 -0.109 0.079 -0.061 -0.09 0.53 -0.84 0.05
1 0.92 92 0.900 -8.931 4.224 -0.824 -1.007 0.519 -690.000 -1289.910 -3809.918 -0.051 0.084 -0.094 -0.09 0.53 -0.84 0.05
1 0.93 93 0.795 -8.979 4.262 -0.854 -0.763 0.610 -764.952 -1514.913 -3839.898 0.055 0.132 -0.132 -0.09 0.53 -0.84 0.05
1 0.94 94 0.886 -8.964 4.291 -0.824 -0.092 0.824 -764.952 -1514.913 -3839.898 -0.037 0.118 -0.160 -0.09 0.53 -0.84 0.05
1 0.95 95 0.819 -9.017 4.152 -1.343 -0.458 0.366 -749.961 -1469.942 -3719.977 0.030 0.170 -0.021 -0.09 0.53 -0.84 0.05
1 0.96 96 0.742 -8.849 4.262 -1.312 -0.336 0.732 -824.913 -1469.942 -3749.957 0.107 0.003 -0.131 -0.09 0.53 -0.84 0.05
1 0.97 97 0.785 -8.993 4.209 -1.526 -0.732 0.732 -779.942 -1469.942 -3824.908 0.063 0.147 -0.078 -0.09 0.53 -0.84 0.05
1 0.98 98 0.939 -8.797 4.156 -1.740 -0.641 0.641 -779.942 -1469.942 -3824.908 -0.090 -0.049 -0.025 -0.09 0.53 -0.84 0.05
1 0.99 99 0.852 -8.935 4.214 -1.984 -0.519 0.610 -690.000 -1409.981 -3915.000 -0.003 0.090 -0.082 -0.09 0.53 -0.84 0.05
1 1.00 100 0.795 -9.003 4.156 -0.824 -0.671 1.373 -674.860 -1379.851 -3674.856 0.054 0.157 -0.025 -0.09 0.53 -0.84 0.05
1 1.01 101 0.862 -8.921 4.152 -1.160 -0.977 1.038 -674.860 -1379.851 -3674.856 -0.014 0.075 -0.020 -0.09 0.53 -0.84 0.05
1 1.02 102 0.905 -9.022 4.142 -0.885 -0.824 1.373 -989.955 -1364.861 -3839.898 -0.057 0.176 -0.011 -0.09 0.53 -0.84 0.05
1 1.03 103 0.958 -9.031 4.152 -0.793 -0.549 0.946 -794.932 -1439.962 -3809.918 -0.110 0.185 -0.020 -0.09 0.53 -0.84 0.05
1 1.04 104 0.886 -9.070 4.200 -0.793 -1.190 1.648 -704.991 -1424.972 -3794.928 -0.037 0.223 -0.068 -0.09 0.53 -0.84 0.05
1 1.05 105 0.833 -9.079 4.147 -0.519 -1.282 1.740 -704.991 -1424.972 -3794.928 0.015 0.233 -0.016 -0.09 0.53 -0.84 0.05
1 1.06 106 0.857 -8.945 4.219 0.031 -1.190 1.038 -794.932 -1334.880 -3704.986 -0.009 0.099 -0.088 -0.09 0.53 -0.84 0.05
1 1.07 107 0.828 -8.883 4.190 0.366 -1.282 1.099 -764.952 -1439.962 -3629.885 0.020 0.037 -0.058 -0.09 0.53 -0.84 0.05
1 1.08 108 0.814 -8.974 4.228 -0.519 -0.793 1.068 -764.952 -1439.962 -3629.885 0.034 0.129 -0.095 -0.09 0.53 -0.84 0.05
1 1.09 109 0.790 -8.955 4.204 -0.916 -0.610 1.038 -764.952 -1364.861 -3809.918 0.058 0.110 -0.070 -0.09 0.53 -0.84 0.05
1 1.10 110 0.881 -8.892 4.243 -1.312 -1.160 0.977 -839.903 -1289.910 -3734.967 -0.033 0.048 -0.108 -0.09 0.53 -0.84 0.05
1 1.11 111 0.862 -9.012 4.147 -2.136 -1.343 1.343 -839.903 -1289.910 -3734.967 -0.014 0.168 -0.012 -0.09 0.53 -0.84 0.05
1 1.12 112 0.862 -8.983 4.267 -2.289 -0.946 1.434 -779.942 -1469.942 -3749.957 -0.014 0.139 -0.131 -0.09 0.53 -0.84 0.05
1 1.13 113 0.934 -8.868 4.147 -1.953 -0.916 1.678 -764.952 -1439.962 -3734.967 -0.085 0.024 -0.012 -0.09 0.53 -0.84 0.05
1 1.14 114 1.015 -8.983 4.147 -1.556 -1.434 1.709 -674.860 -1379.851 -3824.908 -0.167 0.139 -0.012 -0.09 0.53 -0.84 0.05
1 1.15 115 0.991 -8.969 4.128 -0.488 -1.190 0.580 -674.860 -1379.851 -3824.908 -0.142 0.125 0.007 -0.09 0.53 -0.84 0.05
1 1.16 116 1.015 -9.003 4.224 -0.580 -1.862 0.427 -824.913 -1469.942 -3674.856 -0.164 0.159 -0.088 -0.09 0.53 -0.84 0.05
1 1.17 117 1.020 -8.979 4.247 0.061 -2.167 0.183 -854.893 -1304.900 -3794.928 -0.168 0.135 -0.111 -0.09 0.53 -0.84 0.05
1 1.18 118 1.144 -8.897 4.262 0.183 -2.838 -0.305 -854.893 -1304.900 -3794.928 -0.290 0.055 -0.124 -0.09 0.53 -0.84 0.05
1 1.19 119 1.001 -8.935 4.353 -0.092 -3.082 -0.427 -764.952 -1514.913 -3764.947 -0.138 0.095 -0.212 -0.09 0.53 -0.84 0.05
1 1.20 120 1.063 -9.026 4.401 0.427 -3.967 -0.793 -584.919 -1409.981 -3704.986 -0.195 0.188 -0.258 -0.09 0.53 -0.84 0.05
1 1.21 121 1.125 -9.208 4.396 -0.244 -4.272 -0.702 -779.942 -1379.851 -3824.908 -0.252 0.371 -0.251 -0.09 0.53 -0.84 0.05
1 1.22 122 1.082 -9.065 4.319 -0.702 -5.035 -1.038 -779.942 -1379.851 -3824.908 -0.203 0.228 -0.174 -0.09 0.53 -0.84 0.05
1 1.23 123 1.097 -9.055 4.362 -0.031 -4.883 -0.916 -690.000 -1514.913 -3915.000 -0.211 0.220 -0.216 -0.09 0.53 -0.84 0.05
1 1.24 124 1.135 -9.022 4.315 0.214 -4.913 -1.923 -869.883 -1364.861 -3884.869 -0.242 0.188 -0.167 -0.09 0.53 -0.84 0.05
1 1.25 125 1.159 -9.084 4.319 0.305 -4.852 -0.885 -869.883 -1364.861 -3884.869 -0.258 0.251 -0.170 -0.09 0.53 -0.84 0.05
1 1.26 126 1.264 -8.888 4.343 1.312 -3.937 -0.793 -704.991 -1424.972 -3719.977 -0.350 0.058 -0.190 -0.09 0.53 -0.84 0.05
1 1.27 127 1.092 -8.792 4.276 2.594 -3.326 -0.549 -779.942 -1424.972 -3854.889 -0.172 -0.035 -0.119 -0.09 0.53 -0.84 0.05
1 1.28 128 1.226 -8.720 4.204 2.930 -2.747 -0.793 -929.994 -1469.942 -3749.957 -0.301 -0.103 -0.041 -0.09 0.53 -0.84 0.05
1 1.29 129 1.140 -8.797 4.310 3.632 -2.533 -1.465 -929.994 -1469.942 -3749.957 -0.210 -0.023 -0.140 -0.09 0.53 -0.84 0.05
1 1.30 130 1.245 -8.773 4.329 3.632 -2.441 -1.556 -824.913 -1469.942 -3824.908 -0.309 -0.043 -0.152 -0.09 0.53 -0.84 0.05
1 1.31 131 1.178 -8.672 4.338 1.740 -2.441 -1.526 -704.991 -1274.919 -3824.908 -0.235 -0.140 -0.155 -0.09 0.53 -0.84 0.05
1 1.32 132 1.341 -8.888 4.195 -0.244 -3.021 -0.854 -704.991 -1274.919 -3824.908 -0.392 0.078 -0.007 -0.09 0.53 -0.84 0.05
1 1.33 133 1.341 -8.777 4.185 -0.183 -2.869 0.214 -779.942 -1349.871 -3824.908 -0.386 -0.030 0.005 -0.09 0.53 -0.84 0.05
1 1.34 134 1.370 -8.979 4.329 1.190 -1.923 2.228 -854.893 -1379.851 -3929.990 -0.405 0.174 -0.135 -0.09 0.53 -0.84 0.05
1 1.35 135 1.422 -8.749 4.286 2.533 -1.251 3.387 -764.952 -1634.985 -3764.947 -0.457 -0.054 -0.088 -0.09 0.53 -0.84 0.05
1 1.36 136 1.384 -8.801 4.147 3.326 0.641 1.160 -764.952 -1634.985 -3764.947 -0.418 0.001 0.056 -0.09 0.53 -0.84 0.05
1 1.37 137 1.341 -8.768 4.171 2.686 2.472 1.709 -1034.926 -1499.923 -3899.859 -0.373 -0.030 0.037 -0.09 0.53 -0.84 0.05
1 1.38 138 1.298 -8.739 4.224 2.747 2.960 0.671 -839.903 -1514.913 -3884.869 -0.331 -0.056 -0.010 -0.09 0.53 -0.84 0.05
1 1.39 139 1.235 -8.983 4.137 2.350 2.167 1.129 -839.903 -1514.913 -3884.869 -0.269 0.191 0.081 -0.09 0.53 -0.84 0.05
1 1.40 140 1.197 -9.041 4.075 1.587 -0.397 0.702 -764.952 -1364.861 -3809.918 -0.230 0.252 0.151 -0.09 0.53 -0.84 0.05
1 1.41 141 1.173 -8.964 3.912 0.854 -1.099 1.221 -854.893 -1544.894 -3719.977 -0.204 0.176 0.315 -0.09 0.53 -0.84 0.05
1 1.42 142 1.192 -8.950 4.123 -0.488 -3.113 0.580 -779.942 -1349.871 -3794.928 -0.220 0.162 0.104 -0.09 0.53 -0.84 0.05
1 1.43 143 1.259 -9.003 4.085 -0.061 -4.303 0.305 -779.942 -1349.871 -3794.928 -0.283 0.215 0.142 -0.09 0.53 -0.84 0.05
1 1.44 144 1.164 -8.816 4.089 -0.244 -4.944 -0.122 -899.864 -1379.851 -3854.889 -0.181 0.029 0.137 -0.09 0.53 -0.84 0.05
1 1.45 145 1.164 -8.811 4.147 -0.092 -4.669 -0.580 -929.994 -1469.942 -3674.856 -0.175 0.024 0.079 -0.09 0.53 -0.84 0.05
1 1.46 146 1.255 -8.806 4.185 -0.122 -3.754 0.122 -929.994 -1469.942 -3674.856 -0.260 0.021 0.041 -0.09 0.53 -0.84 0.05
1 1.47 147 1.226 -8.715 4.214 -1.038 -3.204 0.153 -929.994 -1379.851 -3974.960 -0.226 -0.070 0.013 -0.09 0.52 -0.84 0.05
1 1.48 148 1.068 -8.691 4.147 -3.815 -2.869 0.366 -824.913 -1499.923 -3749.957 -0.060 -0.094 0.077 -0.09 0.52 -0.84 0.05
1 1.49 149 0.943 -8.787 4.018 -4.822 -2.808 1.404 -854.893 -1544.894 -3824.908 0.068 -0.000 0.202 -0.09 0.53 -0.84 0.05
1 1.50 150 1.039 -8.619 4.219 -5.646 -4.761 2.014 -854.893 -1544.894 -3824.908 -0.027 -0.171 -0.006 -0.09 0.53 -0.84 0.05
1 1.51 151 1.097 -8.787 4.085 -5.035 -6.378 1.678 -914.854 -1484.933 -3915.000 -0.082 -0.006 0.122 -0.1 0.53 -0.84 0.05
1 1.52 152 1.130 -8.725 4.238 -5.127 -7.568 2.319 -869.883 -1409.981 -3809.918 -0.113 -0.071 -0.038 -0.1 0.53 -0.84 0.05
1 1.53 153 1.283 -8.782 4.065 -5.737 -7.996 3.784 -869.883 -1409.981 -3809.918 -0.263 -0.016 0.129 -0.1 0.53 -0.84 0.05
1 1.54 154 1.240 -8.734 4.156 -5.981 -6.653 4.761 -839.903 -1484.933 -3839.898 -0.217 -0.067 0.030 -0.1 0.53 -0.84 0.06
1 1.55 155 1.360 -8.763 4.238 -6.928 -5.615 5.157 -839.903 -1484.933 -3839.898 -0.335 -0.042 -0.059 -0.1 0.53 -0.84 0.06
1 1.56 156 1.451 -8.710 4.228 -8.789 -3.204 7.690 -914.854 -1439.962 -3764.947 -0.429 -0.103 -0.067 -0.1 0.53 -0.84 0.06
1 1.57 157 1.350 -8.663 4.305 -9.522 -2.319 8.881 -914.854 -1439.962 -3764.947 -0.334 -0.157 -0.154 -0.1 0.53 -0.84 0.06
1 1.58 158 1.293 -8.691 4.219 -10.529 -0.488 9.460 -779.942 -1229.949 -3749.957 -0.284 -0.134 -0.079 -0.1 0.53 -0.84 0.06
1 1.59 159 1.240 -8.658 4.204 -11.536 1.648 10.742 -854.893 -1379.851 -3824.908 -0.241 -0.174 -0.077 -0.1 0.53 -0.84 0.06
1 1.60 160 1.259 -8.844 4.166 -12.054 3.998 12.146 -854.893 -1379.851 -3824.908 -0.273 0.005 -0.051 -0.1 0.53 -0.84 0.06
1 1.61 161 1.116 -8.888 4.214 -11.963 6.165 13.611 -929.994 -1379.851 -3674.856 -0.145 0.041 -0.111 -0.1 0.53 -0.84 0.06
1 1.62 162 1.121 -8.955 4.286 -15.198 8.637 13.641 -929.994 -1379.851 -3674.856 -0.169 0.100 -0.195 -0.1 0.53 -0.84 0.06
1 1.63 163 0.948 -9.184 4.166 -19.775 11.505 13.092 -929.994 -1379.851 -3674.856 -0.040 0.309 -0.112 -0.09 0.53 -0.84 0.06
1 1.64 164 0.891 -9.280 3.984 -19.165 11.749 13.916 -929.994 -1379.851 -3674.856 -0.007 0.391 0.046 -0.09 0.53 -0.84 0.06
1 1.65 165 1.049 -9.328 4.171 -14.587 13.092 13.123 -869.883 -1259.929 -3704.986 -0.190 0.427 -0.163 -0.09 0.54 -0.84 0.06
1 1.66 166 1.010 -9.467 3.936 -7.904 14.465 12.909 -854.893 -1349.871 -3719.977 -0.176 0.556 0.057 -0.09 0.54 -0.84 0.06
1 1.67 167 1.173 -9.410 3.706 -1.221 15.717 11.902 -854.893 -1349.871 -3719.977 -0.364 0.494 0.280 -0.09 0.54 -0.84 0.06
1 1.68 168 1.154 -9.285 3.850 5.981 19.287 7.568 -764.952 -1289.910 -3809.918 -0.367 0.368 0.137 -0.09 0.54 -0.84 0.06
1 1.69 169 1.101 -9.338 3.735 9.918 20.813 4.639 -764.952 -1289.910 -3809.918 -0.333 0.423 0.261 -0.09 0.54 -0.84 0.06
1 1.70 170 1.121 -9.328 3.740 8.240 22.461 -0.092 -839.903 -1334.880 -3584.915 -0.381 0.424 0.285 -0.08 0.54 -0.84 0.06
1 1.71 171 1.183 -9.625 3.687 3.540 23.682 -2.655 -839.903 -1334.880 -3584.915 -0.453 0.725 0.349 -0.08 0.54 -0.84 0.06
1 1.72 172 1.121 -9.721 3.946 -3.906 25.696 -3.296 -734.971 -1364.861 -3659.866 -0.398 0.821 0.094 -0.08 0.54 -0.84 0.06
1 1.73 173 1.077 -9.903 3.907 -11.719 29.114 -3.967 -794.932 -1289.910 -3839.898 -0.364 1.000 0.126 -0.08 0.54 -0.84 0.05
1 1.74 174 1.053 -10.046 3.726 -16.632 33.447 -3.052 -794.932 -1289.910 -3839.898 -0.349 1.135 0.291 -0.08 0.54 -0.84 0.05
1 1.75 175 0.819 -10.056 3.309 -14.618 41.382 1.007 -659.870 -1484.933 -3734.967 -0.130 1.134 0.685 -0.07 0.54 -0.84 0.05
1 1.76 176 0.283 -9.965 3.275 -6.134 46.295 2.625 -659.870 -1484.933 -3734.967 0.383 1.033 0.701 -0.07 0.54 -0.84 0.05
1 1.77 177 -0.426 -9.419 2.715 8.728 47.394 5.157 -659.870 -1289.910 -3659.866 1.025 0.476 1.248 -0.07 0.54 -0.84 0.05
1 1.78 178 -0.704 -9.271 2.619 11.627 43.640 5.310 -659.870 -1289.910 -3659.866 1.262 0.330 1.355 -0.06 0.54 -0.84 0.04
1 1.79 179 -1.192 -8.658 2.399 15.869 30.518 3.784 -569.929 -1349.871 -3674.856 1.712 -0.278 1.592 -0.06 0.54 -0.84 0.04
1 1.80 180 -1.518 -8.394 2.337 13.275 21.332 1.465 -674.860 -1349.871 -3674.856 2.005 -0.535 1.671 -0.06 0.54 -0.84 0.04
1 1.81 181 -1.556 -8.203 2.289 8.789 12.726 -1.953 -674.860 -1349.871 -3674.856 2.017 -0.723 1.730 -0.06 0.54 -0.84 0.04
1 1.82 182 -1.561 -8.299 2.423 -7.324 4.242 -3.662 -704.991 -1424.972 -3824.908 2.013 -0.624 1.604 -0.05 0.54 -0.84 0.04
1 1.83 183 -1.370 -8.327 2.591 -18.646 2.594 -4.303 -704.991 -1424.972 -3824.908 1.824 -0.597 1.432 -0.05 0.54 -0.84 0.04
1 1.84 184 -1.154 -8.758 2.763 -30.640 4.425 -3.143 -569.929 -1349.871 -3854.889 1.603 -0.193 1.201 -0.05 0.54 -0.84 0.04
1 1.85 185 -1.106 -9.094 2.811 -33.783 5.249 -1.312 -569.929 -1349.871 -3854.889 1.544 0.120 1.104 -0.05 0.55 -0.84 0.04
1 1.86 186 -1.020 -9.773 2.768 -37.354 0.488 4.578 -449.857 -1469.942 -3599.905 1.443 0.775 1.091 -0.05 0.55 -0.83 0.04
1 1.87 187 -0.723 -10.353 2.777 -32.135 -5.737 7.874 -524.958 -1304.900 -3644.875 1.130 1.329 1.024 -0.05 0.55 -0.83 0.04
1 1.88 188 -0.551 -10.846 2.749 -22.705 -12.878 11.322 -524.958 -1304.900 -3644.875 0.942 1.801 1.002 -0.05 0.55 -0.83 0.04
1 1.89 189 -0.144 -10.884 2.945 -13.733 -17.639 14.526 -464.997 -1409.981 -3659.866 0.526 1.827 0.778 -0.05 0.55 -0.83 0.04
1 1.90 190 0.464 -10.712 3.165 -0.763 -19.562 17.090 -464.997 -1409.981 -3659.866 -0.092 1.648 0.542 -0.05 0.56 -0.83 0.04
1 1.91 191 0.723 -10.463 3.141 6.348 -16.632 17.578 -374.906 -1124.867 -3644.875 -0.362 1.397 0.562 -0.05 0.56 -0.83 0.05
1 1.92 192 0.752 -9.927 3.084 13.367 -10.468 15.930 -584.919 -1334.880 -3629.885 -0.418 0.869 0.643 -0.05 0.55 -0.83 0.05
1 1.93 193 0.680 -9.501 3.089 12.878 -5.554 14.648 -614.899 -1139.857 -3734.967 -0.358 0.448 0.652 -0.05 0.55 -0.83 0.05
1 1.94 194 0.646 -9.141 2.988 9.766 -0.031 13.489 -539.948 -1094.887 -3764.947 -0.338 0.094 0.765 -0.05 0.55 -0.83 0.05
1 1.95 195 0.436 -8.940 2.854 5.219 4.272 11.841 -539.948 -1094.887 -3764.947 -0.142 -0.104 0.908 -0.05 0.55 -0.83 0.05
1 1.96 196 0.192 -8.854 2.768 1.312 6.744 9.857 -614.899 -1214.958 -3584.915 0.086 -0.190 0.996 -0.05 0.55 -0.83 0.05
1 1.97 197 0.182 -8.979 2.653 0.702 7.843 5.066 -614.899 -1214.958 -3584.915 0.080 -0.068 1.107 -0.05 0.55 -0.83 0.05
1 1.98 198 0.125 -9.103 2.605 1.862 7.416 1.923 -419.876 -1304.900 -3644.875 0.126 0.055 1.151 -0.05 0.55 -0.83 0.05
1 1.99 199 -0.057 -8.955 2.744 6.317 5.981 -3.204 -524.958 -1349.871 -3719.977 0.298 -0.095 1.010 -0.05 0.55 -0.83 0.05
1 2.00 200 -0.014 -8.959 2.926 10.223 4.242 -5.646 -419.876 -1229.949 -3644.875 0.257 -0.087 0.834 -0.05 0.55 -0.83 0.05
1 2.01 201 -0.043 -9.026 2.978 13.428 3.998 -7.263 -539.948 -1409.981 -3764.947 0.291 -0.015 0.793 -0.05 0.55 -0.83 0.05
1 2.02 202 -0.010 -8.878 2.978 15.717 6.104 -7.965 -539.948 -1409.981 -3764.947 0.264 -0.157 0.809 -0.05 0.55 -0.83 0.05
1 2.03 203 -0.110 -9.036 3.012 16.632 7.721 -7.385 -599.909 -1469.942 -3644.875 0.371 0.009 0.795 -0.05 0.55 -0.83 0.05
1 2.04 204 -0.335 -9.046 3.170 16.693 8.606 -6.653 -599.909 -1469.942 -3644.875 0.600 0.028 0.657 -0.05 0.55 -0.83 0.05
1 2.05 205 -0.350 -9.199 3.137 14.954 8.881 -6.073 -569.929 -1274.919 -3719.977 0.617 0.190 0.711 -0.05 0.55 -0.83 0.05
1 2.06 206 -0.532 -9.199 3.069 12.054 8.667 -4.639 -449.857 -1349.871 -3644.875 0.799 0.197 0.796 -0.05 0.55 -0.83 0.05
1 2.07 207 -0.670 -9.256 3.046 8.270 5.432 -2.808 -449.857 -1274.919 -3719.977 0.931 0.265 0.844 -0.05 0.55 -0.83 0.05
1 2.08 208 -0.804 -9.141 3.170 7.294 1.282 -2.899 -464.997 -1364.861 -3659.866 1.060 0.153 0.726 -0.05 0.55 -0.83 0.05
1 2.09 209 -0.781 -9.065 3.022 8.911 -3.906 -1.831 -464.997 -1364.861 -3659.866 1.032 0.079 0.881 -0.05 0.55 -0.83 0.05
1 2.10 210 -0.747 -8.830 3.026 8.606 -9.399 -2.380 -524.958 -1304.900 -3674.856 0.998 -0.153 0.884 -0.05 0.55 -0.84 0.05
1 2.11 211 -0.594 -8.749 2.911 7.751 -14.893 -2.808 -524.958 -1304.900 -3674.856 0.848 -0.231 1.006 -0.05 0.55 -0.84 0.05
1 2.12 212 -0.517 -8.409 3.141 4.852 -20.172 -4.242 -509.968 -1364.861 -3704.986 0.779 -0.568 0.782 -0.05 0.55 -0.84 0.05
1 2.13 213 -0.479 -8.270 3.290 -0.641 -19.501 -4.974 -659.870 -1169.988 -3764.947 0.752 -0.704 0.638 -0.05 0.55 -0.84 0.05
1 2.14 214 -0.397 -8.385 3.376 -12.909 -16.571 -4.944 -599.909 -1379.851 -3719.977 0.698 -0.594 0.540 -0.05 0.55 -0.84 0.05
1 2.15 215 -0.436 -8.758 3.596 -18.372 -12.512 -4.517 -374.906 -1304.900 -3854.889 0.748 -0.229 0.299 -0.05 0.55 -0.83 0.05
1 2.16 216 -0.412 -8.945 3.544 -23.041 -8.637 -2.045 -374.906 -1304.900 -3854.889 0.731 -0.053 0.325 -0.05 0.55 -0.83 0.05
1 2.17 217 -0.484 -9.242 3.663 -24.292 -4.639 -1.740 -584.919 -1364.861 -3704.986 0.805 0.230 0.172 -0.05 0.55 -0.83 0.05
1 2.18 218 -0.546 -9.773 3.783 -22.614 -2.167 -0.427 -584.919 -1364.861 -3704.986 0.866 0.747 0.020 -0.05 0.55 -0.83 0.05
1 2.19 219 -0.728 -10.262 3.754 -15.533 -1.099 1.892 -569.929 -1349.871 -3749.957 1.043 1.223 0.019 -0.05 0.55 -0.83 0.05
1 2.20 220 -0.761 -10.808 3.816 -3.815 -3.113 4.150 -599.909 -1424.972 -3794.928 1.068 1.758 -0.068 -0.05 0.55 -0.83 0.05
1 2.21 221 -0.464 -11.004 3.821 14.130 -5.035 4.364 -569.929 -1229.949 -3674.856 0.766 1.955 -0.072 -0.05 0.55 -0.83 0.05
1 2.22 222 -0.383 -10.980 3.778 18.097 -5.005 4.120 -494.978 -1379.851 -3644.875 0.682 1.941 -0.005 -0.05 0.55 -0.83 0.05
1 2.23 223 -0.215 -11.038 3.874 21.088 -3.387 5.341 -494.978 -1379.851 -3644.875 0.511 2.011 -0.071 -0.05 0.55 -0.83 0.05
1 2.24 224 -0.005 -10.918 3.793 21.515 -2.228 4.486 -584.919 -1259.929 -3704.986 0.296 1.904 0.042 -0.05 0.55 -0.83 0.05
1 2.25 225 0.014 -11.038 3.994 20.660 0.397 3.662 -584.919 -1259.929 -3704.986 0.273 2.037 -0.128 -0.05 0.55 -0.83 0.05
1 2.26 226 -0.038 -10.884 4.219 18.341 4.334 3.815 -674.860 -1469.942 -3794.928 0.321 1.896 -0.324 -0.05 0.55 -0.83 0.05
1 2.27 227 0.019 -10.942 4.238 18.005 7.446 3.052 -599.909 -1469.942 -3674.856 0.257 1.966 -0.315 -0.05 0.55 -0.84 0.05
1 2.28 228 0.067 -11.167 4.152 11.292 9.125 5.432 -659.870 -1334.880 -3734.967 0.192 2.212 -0.179 -0.05 0.54 -0.84 0.05
1 2.29 229 0.067 -11.224 4.094 7.538 9.644 6.226 -509.968 -1484.933 -3764.947 0.179 2.276 -0.106 -0.05 0.54 -0.84 0.05
1 2.30 230 0.283 -10.961 4.267 -2.045 7.751 8.850 -509.968 -1484.933 -3764.947 -0.051 2.014 -0.274 -0.05 0.54 -0.84 0.05
1 2.31 231 0.484 -10.592 4.224 -6.836 10.590 10.681 -614.899 -1364.861 -3764.947 -0.269 1.644 -0.234 -0.05 0.54 -0.84 0.05
1 2.32 232 0.326 -10.339 4.434 -12.970 15.991 12.970 -614.899 -1364.861 -3764.947 -0.133 1.385 -0.454 -0.05 0.54 -0.84 0.05
1 2.33 233 -0.182 -10.224 4.176 -14.801 20.477 12.817 -539.948 -1439.962 -3659.866 0.347 1.262 -0.212 -0.04 0.54 -0.84 0.05
1 2.34 234 -0.321 -10.094 3.486 -5.646 22.064 8.270 -524.958 -1469.942 -3749.957 0.457 1.125 0.460 -0.04 0.54 -0.84 0.05
1 2.35 235 -0.019 -9.955 3.237 -2.258 19.348 4.425 -524.958 -1469.942 -3749.957 0.130 0.982 0.701 -0.04 0.55 -0.84 0.05
1 2.36 236 -0.134 -9.405 3.017 -4.639 15.381 0.397 -584.919 -1259.929 -3734.967 0.211 0.424 0.904 -0.04 0.55 -0.84 0.05
1 2.37 237 -0.192 -9.017 3.060 -5.798 16.449 -3.021 -584.919 -1259.929 -3734.967 0.259 0.030 0.848 -0.04 0.55 -0.83 0.05
1 2.38 238 -0.565 -8.548 3.328 -5.554 16.876 -6.805 -599.909 -1469.942 -3794.928 0.628 -0.444 0.569 -0.04 0.55 -0.83 0.05
1 2.39 239 -0.848 -8.265 3.888 -5.829 16.357 -8.637 -599.909 -1469.942 -3794.928 0.908 -0.731 -0.001 -0.04 0.55 -0.83 0.05
1 2.40 240 -1.006 -7.901 4.578 -10.132 14.618 -8.881 -329.935 -1364.861 -3734.967 1.063 -1.097 -0.697 -0.03 0.55 -0.83 0.05
1 2.41 241 -1.082 -7.604 5.459 -22.430 11.993 -5.127 -434.867 -1409.981 -3704.986 1.136 -1.398 -1.586 -0.03 0.55 -0.83 0.05
1 2.42 242 -1.317 -7.293 5.382 -33.722 7.996 -1.587 -434.867 -1409.981 -3704.986 1.364 -1.715 -1.524 -0.03 0.55 -0.83 0.05
1 2.43 243 -1.571 -7.446 5.081 -47.058 -1.465 4.242 -494.978 -1499.923 -3599.905 1.594 -1.591 -1.290 -0.03 0.55 -0.83 0.05
1 2.44 244 -1.671 -7.614 4.813 -49.103 -11.597 7.507 -494.978 -1499.923 -3599.905 1.680 -1.445 -1.074 -0.03 0.56 -0.83 0.05
1 2.45 245 -1.489 -7.638 4.621 -42.053 -24.078 11.444 -434.867 -1439.962 -3659.866 1.482 -1.443 -0.936 -0.03 0.56 -0.83 0.05
1 2.46 246 -1.068 -7.801 4.271 -29.053 -37.109 14.526 -434.867 -1439.962 -3659.866 1.049 -1.297 -0.629 -0.03 0.56 -0.83 0.05
1 2.47 247 -0.374 -7.815 4.099 -11.444 -49.194 17.334 -419.876 -1349.871 -3644.875 0.347 -1.293 -0.481 -0.03 0.56 -0.83 0.05
1 2.48 248 0.848 -8.093 4.319 16.083 -54.169 22.003 -509.968 -1289.910 -3629.885 -0.875 -1.015 -0.702 -0.04 0.56 -0.83 0.06
1 2.49 249 1.384 -8.208 4.587 27.130 -49.103 23.682 -509.968 -1289.910 -3629.885 -1.408 -0.890 -0.945 -0.04 0.56 -0.83 0.06
1 2.50 250 1.939 -8.658 4.980 30.029 -39.703 26.489 -539.948 -1334.880 -3584.915 -1.959 -0.422 -1.294 -0.04 0.56 -0.83 0.06
1 2.51 251 2.519 -9.395 5.459 12.726 -24.078 28.137 -509.968 -1409.981 -3629.885 -2.541 0.354 -1.678 -0.04 0.55 -0.83 0.07
1 2.52 252 2.820 -10.142 5.612 -4.547 -15.106 29.266 -584.919 -1334.880 -3629.885 -2.869 1.107 -1.818 -0.04 0.55 -0.83 0.07
1 2.53 253 2.878 -10.592 5.368 -16.266 -7.660 30.762 -584.919 -1334.880 -3629.885 -2.959 1.553 -1.583 -0.04 0.55 -0.83 0.07
1 2.54 254 2.801 -10.894 5.038 -15.350 -1.678 27.741 -464.997 -1364.861 -3629.885 -2.919 1.846 -1.274 -0.04 0.55 -0.83 0.07
1 2.55 255 2.308 -10.765 4.587 -3.876 3.540 23.987 -494.978 -1274.919 -3719.977 -2.463 1.710 -0.841 -0.04 0.55 -0.83 0.08
1 2.56 256 1.671 -9.682 3.888 34.424 3.113 12.695 -494.978 -1274.919 -3719.977 -1.858 0.631 -0.138 -0.04 0.55 -0.83 0.08
1 2.57 257 1.264 -8.825 3.505 58.136 -2.380 3.387 -524.958 -1274.919 -3464.993 -1.473 -0.210 0.285 -0.04 0.55 -0.83 0.08
1 2.58 258 1.111 -7.633 3.184 71.381 -6.866 -9.338 -734.971 -1334.880 -3659.866 -1.293 -1.331 0.773 -0.04 0.54 -0.83 0.08
1 2.59 259 1.087 -7.188 3.069 64.606 -8.392 -13.886 -659.870 -1334.880 -3629.885 -1.249 -1.732 0.986 -0.04 0.54 -0.84 0.08
1 2.60 260 0.891 -6.876 3.012 50.598 -9.186 -18.189 -659.870 -1334.880 -3629.885 -1.026 -2.004 1.130 -0.04 0.54 -0.84 0.08
1 2.61 261 1.125 -7.082 3.012 31.647 -8.240 -21.088 -674.860 -1544.894 -3599.905 -1.228 -1.769 1.194 -0.04 0.53 -0.84 0.08
1 2.62 262 1.121 -7.154 2.897 13.336 -5.188 -21.240 -599.909 -1574.874 -3599.905 -1.188 -1.679 1.347 -0.04 0.53 -0.84 0.07
1 2.63 263 1.140 -7.657 2.639 -10.681 -3.143 -19.592 -599.909 -1574.874 -3599.905 -1.175 -1.170 1.619 -0.04 0.53 -0.84 0.07
1 2.64 264 1.025 -8.131 2.729 -22.278 -7.965 -18.585 -659.870 -1589.864 -3704.986 -1.031 -0.699 1.521 -0.04 0.53 -0.84 0.07
1 2.65 265 1.173 -8.677 2.859 -33.844 -16.541 -17.273 -614.899 -1559.884 -3629.885 -1.115 -0.183 1.329 -0.05 0.53 -0.84 0.07
1 2.66 266 1.044 -8.686 2.873 -36.194 -19.135 -17.090 -659.870 -1589.864 -3704.986 -0.942 -0.198 1.261 -0.05 0.54 -0.84 0.07
1 2.67 267 1.408 -8.940 3.036 -40.283 -21.332 -14.984 -659.870 -1589.864 -3704.986 -1.263 0.029 1.040 -0.05 0.54 -0.84 0.07
1 2.68 268 1.480 -8.888 2.988 -38.880 -17.700 -12.939 -464.997 -1634.985 -3584.915 -1.292 -0.050 1.027 -0.05 0.54 -0.84 0.07
1 2.69 269 1.638 -9.127 2.873 -32.379 -11.627 -11.292 -764.952 -1514.913 -3509.963 -1.412 0.165 1.085 -0.06 0.54 -0.84 0.07
1 2.70 270 1.939 -9.151 2.873 -16.388 1.007 -8.331 -764.952 -1514.913 -3509.963 -1.681 0.169 1.038 -0.06 0.54 -0.83 0.07
1 2.71 271 1.978 -9.194 2.950 -3.662 9.460 -6.775 -584.919 -1514.913 -3629.885 -1.695 0.199 0.930 -0.06 0.55 -0.83 0.06
1 2.72 272 2.275 -9.113 3.117 10.742 23.071 -4.272 -734.971 -1484.933 -3629.885 -1.960 0.114 0.750 -0.06 0.55 -0.83 0.06
1 2.73 273 2.251 -9.036 3.184 13.580 26.978 -3.387 -584.919 -1409.981 -3629.885 -1.929 0.043 0.697 -0.06 0.55 -0.83 0.06
1 2.74 274 2.236 -8.878 3.544 17.212 33.447 -3.052 -584.919 -1409.981 -3629.885 -1.914 -0.105 0.360 -0.06 0.55 -0.83 0.06
1 2.75 275 2.255 -9.079 3.601 13.367 35.370 -2.350 -734.971 -1409.981 -3584.915 -1.934 0.106 0.326 -0.06 0.54 -0.83 0.06
1 2.76 276 2.509 -9.314 3.778 9.949 37.659 -3.754 -749.961 -1469.942 -3644.875 -2.190 0.349 0.167 -0.05 0.54 -0.84 0.05
1 2.77 277 2.471 -9.563 3.783 8.118 42.450 -5.859 -749.961 -1469.942 -3644.875 -2.152 0.604 0.176 -0.05 0.54 -0.84 0.05
1 2.78 278 2.356 -9.817 3.726 10.712 57.373 -8.972 -584.919 -1364.861 -3704.986 -2.038 0.863 0.246 -0.05 0.54 -0.84 0.05
1 2.79 279 1.891 -9.491 3.654 8.148 68.756 -15.991 -539.948 -1514.913 -3659.866 -1.587 0.544 0.335 -0.05 0.54 -0.84 0.05
1 2.80 280 1.245 -9.472 3.539 -4.425 88.379 -21.698 -734.971 -1484.933 -3584.915 -0.956 0.533 0.468 -0.04 0.54 -0.84 0.04
1 2.81 281 0.441 -9.400 3.352 -16.022 97.992 -24.201 -734.971 -1484.933 -3584.915 -0.168 0.457 0.647 -0.04 0.54 -0.84 0.03
1 2.82 282 -0.345 -9.654 2.998 -24.231 100.464 -27.557 -584.919 -1484.933 -3509.963 0.595 0.699 0.976 -0.03 0.54 -0.84 0.03
1 2.83 283 -1.164 -10.037 2.725 -25.269 92.163 -30.884 -569.929 -1469.942 -3539.944 1.391 1.066 1.213 -0.03 0.55 -0.84 0.02
1 2.84 284 -1.733 -10.329 2.322 -16.541 75.409 -34.912 -569.929 -1469.942 -3539.944 1.943 1.341 1.578 -0.02 0.55 -0.84 0.02
1 2.85 285 -2.203 -10.707 2.203 9.644 37.995 -39.551 -389.896 -1409.981 -3554.934 2.407 1.708 1.671 -0.02 0.55 -0.84 0.01
1 2.86 286 -1.997 -10.774 2.610 29.022 11.871 -42.908 -344.925 -1574.874 -3674.856 2.229 1.780 1.273 -0.02 0.55 -0.84 0.01
1 2.87 287 -1.341 -10.133 4.765 49.774 -20.691 -44.281 -329.935 -1559.884 -3554.934 1.685 1.182 -0.788 -0.02 0.54 -0.84 0
1 2.88 288 -0.737 -9.410 5.545 59.937 -30.090 -45.715 -329.935 -1559.884 -3554.934 1.159 0.495 -1.496 -0.03 0.54 -0.84 0
1 2.89 289 -0.369 -9.371 6.081 55.512 -33.234 -52.429 -299.955 -1499.923 -3539.944 0.875 0.499 -1.951 0.03 -0.54 0.84 0
1 2.90 290 -0.196 -9.711 5.818 31.433 -34.271 -54.535 -419.876 -1499.923 -3569.924 0.798 0.876 -1.621 0.03 -0.53 0.85 0
1 2.91 291 0.057 -10.066 5.459 2.136 -35.889 -47.913 -419.876 -1499.923 -3569.924 0.639 1.252 -1.231 0.04 -0.53 0.85 0
1 2.92 292 0.527 -10.152 5.349 -49.957 -35.492 -30.518 -464.997 -1514.913 -3509.963 0.256 1.341 -1.130 0.04 -0.53 0.85 0.01
1 2.93 293 1.106 -10.372 5.387 -82.337 -23.560 -17.334 -494.978 -1574.874 -3644.875 -0.254 1.540 -1.226 0.05 -0.53 0.84 0.01
1 2.94 294 1.647 -11.186 5.167 -87.799 -11.749 -5.127 -494.978 -1574.874 -3644.875 -0.749 2.310 -1.111 0.05 -0.54 0.84 0.01
1 2.95 295 1.901 -12.498 4.951 -19.928 -2.441 4.913 -509.968 -1784.887 -3659.866 -0.979 3.532 -1.106 0.05 -0.55 0.83 0.01
1 2.96 296 2.030 -11.588 4.884 45.014 6.592 8.026 -614.899 -1514.913 -3659.866 -1.114 2.620 -1.041 0.05 -0.55 0.83 0.01
1 2.97 297 1.159 -10.075 4.477 85.388 10.712 14.740 -524.958 -1349.871 -3539.944 -0.261 1.140 -0.553 0.05 -0.55 0.84 0
1 2.98 298 0.915 -8.686 4.420 95.764 2.319 15.411 -524.958 -1349.871 -3539.944 -0.042 -0.194 -0.369 0.05 -0.54 0.84 0
1 2.99 299 0.939 -7.441 4.573 70.496 -11.139 19.440 -539.948 -1439.962 -3449.853 -0.086 -1.382 -0.395 0.05 -0.53 0.84 0
1 3.00 300 1.087 -6.565 5.153 -5.768 -18.829 24.445 -569.929 -1499.923 -3599.905 -0.251 -2.221 -0.892 -0.05 0.53 -0.85 0
1 3.01 301 1.063 -6.527 5.373 -59.448 -16.937 26.733 -569.929 -1499.923 -3599.905 -0.246 -2.256 -1.102 -0.05 0.53 -0.85 0
1 3.02 302 0.575 -7.283 5.320 -111.084 -8.240 28.168 -629.890 -1574.874 -3644.875 0.190 -1.592 -1.235 -0.05 0.54 -0.84 0.01
1 3.03 303 0.436 -7.925 5.162 -116.150 -2.106 25.391 -569.929 -1574.874 -3569.924 0.295 -1.020 -1.225 -0.05 0.54 -0.84 0.01
1 3.04 304 0.163 -8.715 5.191 -98.633 1.587 21.851 -584.919 -1634.985 -3629.885 0.534 -0.293 -1.396 -0.05 0.55 -0.83 0.01
1 3.05 305 -0.067 -9.199 5.004 -60.181 0.092 18.646 -584.919 -1634.985 -3629.885 0.731 0.142 -1.321 -0.05 0.56 -0.83 0.01
1 3.06 306 0.062 -8.931 4.951 -15.381 -6.866 16.327 -659.870 -1439.962 -3479.983 0.574 -0.152 -1.325 -0.05 0.56 -0.83 0.01
1 3.07 307 0.306 -7.963 4.722 36.591 -9.033 8.118 -614.899 -1289.910 -3509.963 0.307 -1.120 -1.093 -0.05 0.56 -0.83 0.02
1 3.08 308 0.263 -7.532 4.434 55.573 -5.066 3.387 -614.899 -1289.910 -3509.963 0.338 -1.531 -0.756 -0.05 0.56 -0.83 0.02
1 3.09 309 -0.057 -6.144 3.812 55.512 -1.404 -0.763 -524.958 -1304.900 -3419.872 0.656 -2.851 0.032 -0.05 0.55 -0.83 0.02
1 3.10 310 -0.297 -5.823 3.764 47.638 -1.984 -2.563 -584.919 -1334.880 -3449.853 0.900 -3.140 0.152 -0.05 0.55 -0.84 0.02
1 3.11 311 -0.623 -5.311 3.907 5.432 -8.087 -11.078 -569.929 -1349.871 -3539.944 1.238 -3.634 0.049 -0.05 0.54 -0.84 0.02
1 3.12 312 -0.757 -5.512 4.200 -27.985 -14.923 -16.235 -569.929 -1349.871 -3539.944 1.396 -3.433 -0.246 -0.05 0.54 -0.84 0.02
1 3.13 313 -0.670 -6.517 4.616 -57.038 -19.745 -23.651 -674.860 -1544.894 -3569.924 1.346 -2.446 -0.711 -0.05 0.55 -0.84 0.02
1 3.14 314 -0.479 -8.284 5.071 -86.762 -24.384 -25.604 -449.857 -1304.900 -3539.944 1.201 -0.713 -1.253 -0.06 0.55 -0.83 0.02
1 3.15 315 -0.656 -10.487 5.176 -88.715 -24.750 -23.773 -449.857 -1304.900 -3539.944 1.424 1.448 -1.469 -0.06 0.55 -0.83 0.02
1 3.16 316 -0.321 -12.134 5.023 -35.462 -23.987 -13.702 -659.870 -1364.861 -3374.901 1.169 3.019 -1.525 -0.06 0.56 -0.82 0.02
1 3.17 317 -0.192 -12.244 5.018 -16.785 -20.050 -10.376 -599.909 -1349.871 -3314.940 1.069 3.118 -1.558 -0.07 0.56 -0.82 0.02
1 3.18 318 0.235 -11.258 4.899 12.695 -1.373 2.869 -734.971 -1334.880 -3509.963 0.655 2.134 -1.434 -0.07 0.56 -0.82 0.02
1 3.19 319 -0.024 -11.014 4.477 20.355 9.766 9.979 -734.971 -1334.880 -3509.963 0.908 1.898 -0.991 -0.07 0.56 -0.82 0.02
1 3.20 320 -0.196 -10.166 3.611 34.027 8.057 17.395 -704.991 -1229.949 -3314.940 1.059 1.062 -0.088 -0.07 0.56 -0.82 0.02
1 3.21 321 -0.397 -9.213 2.955 46.112 -5.737 20.020 -674.860 -1424.972 -3389.892 1.233 0.128 0.623 -0.07 0.56 -0.83 0.02
1 3.22 322 -0.192 -7.930 2.720 44.037 -30.365 17.822 -674.860 -1424.972 -3389.892 0.997 -1.134 0.919 -0.07 0.56 -0.83 0.02
1 3.23 323 0.139 -7.470 2.686 28.626 -41.504 15.442 -659.870 -1334.880 -3554.934 0.653 -1.570 1.013 -0.07 0.55 -0.83 0.03
1 3.24 324 0.757 -7.437 3.151 -0.244 -39.642 12.543 -674.860 -1349.871 -3389.892 0.043 -1.579 0.606 -0.07 0.55 -0.83 0.03
1 3.25 325 1.087 -7.963 3.395 -13.031 -26.947 11.383 -690.000 -1364.861 -3374.901 -0.282 -1.055 0.354 -0.07 0.55 -0.83 0.03
1 3.26 326 1.370 -8.351 3.390 -16.357 -9.552 11.780 -690.000 -1364.861 -3374.901 -0.566 -0.677 0.337 -0.07 0.55 -0.83 0.04
1 3.27 327 1.518 -8.686 3.486 -13.641 8.514 14.191 -764.952 -1484.933 -3449.853 -0.723 -0.351 0.220 -0.07 0.55 -0.83 0.04
1 3.28 328 1.518 -8.639 3.290 -10.162 21.912 16.876 -734.971 -1364.861 -3299.950 -0.745 -0.406 0.402 -0.07 0.55 -0.83 0.04
1 3.29 329 1.245 -8.495 3.160 -13.641 35.889 19.257 -734.971 -1364.861 -3299.950 -0.503 -0.557 0.521 -0.07 0.55 -0.83 0.04
1 3.30 330 1.073 -8.212 2.878 -22.278 38.971 20.142 -599.909 -1469.942 -3314.940 -0.370 -0.848 0.789 -0.07 0.56 -0.83 0.04
1 3.31 331 0.594 -8.433 2.864 -38.788 37.628 18.951 -704.991 -1349.871 -3464.993 0.019 -0.660 0.741 -0.06 0.56 -0.83 0.04
1 3.32 332 0.091 -8.471 2.682 -45.838 35.187 16.480 -734.971 -1409.981 -3449.853 0.478 -0.646 0.867 -0.06 0.56 -0.82 0.04
1 3.33 333 -0.306 -8.830 2.490 -44.922 31.098 13.702 -734.971 -1409.981 -3449.853 0.834 -0.314 0.996 -0.06 0.56 -0.82 0.04
1 3.34 334 -0.852 -9.151 2.461 -36.255 22.553 9.644 -734.971 -1364.861 -3479.983 1.342 -0.018 0.964 -0.05 0.57 -0.82 0.04
1 3.35 335 -1.307 -9.630 2.399 -22.217 12.085 7.141 -629.890 -1349.871 -3359.911 1.767 0.441 0.977 -0.05 0.57 -0.82 0.04
1 3.36 336 -1.987 -9.682 2.279 23.316 -10.407 4.425 -629.890 -1349.871 -3359.911 2.420 0.483 1.071 -0.05 0.57 -0.82 0.04
1 3.37 337 -2.016 -9.117 2.404 44.861 -27.222 0.793 -614.899 -1364.861 -3329.931 2.430 -0.078 0.961 -0.05 0.57 -0.82 0.04
1 3.38 338 -1.949 -8.849 2.782 49.286 -39.337 -3.387 -614.899 -1364.861 -3329.931 2.355 -0.328 0.632 -0.05 0.57 -0.82 0.04
1 3.39 339 -1.686 -8.557 3.232 36.530 -45.410 -4.089 -539.948 -1364.861 -3404.882 2.111 -0.573 0.303 -0.06 0.56 -0.82 0.04
1 3.40 340 -1.575 -8.595 3.285 22.644 -44.830 -5.127 -539.948 -1364.861 -3404.882 2.016 -0.517 0.294 -0.06 0.56 -0.82 0.05
1 3.41 341 -1.638 -8.557 3.271 9.522 -42.572 -3.723 -629.890 -1304.900 -3314.940 2.095 -0.544 0.335 -0.06 0.56 -0.83 0.05
1 3.42 342 -1.513 -8.437 3.007 0.214 -42.450 -2.319 -614.899 -1259.929 -3449.853 1.984 -0.660 0.606 -0.06 0.56 -0.83 0.05
1 3.43 343 -1.326 -8.548 2.854 -7.355 -45.197 0.153 -614.899 -1259.929 -3449.853 1.809 -0.552 0.753 -0.07 0.56 -0.83 0.05
1 3.44 344 -0.958 -8.768 2.729 -9.613 -50.965 3.265 -690.000 -1364.861 -3479.983 1.452 -0.337 0.861 -0.07 0.56 -0.82 0.05
1 3.45 345 -0.469 -8.988 2.921 -7.172 -52.338 4.059 -690.000 -1364.861 -3479.983 0.977 -0.124 0.649 -0.07 0.56 -0.82 0.06
1 3.46 346 0.072 -9.553 3.069 2.197 -49.622 6.165 -764.952 -1439.962 -3299.950 0.465 0.432 0.473 -0.08 0.56 -0.82 0.06
1 3.47 347 0.541 -10.137 3.462 12.604 -47.150 7.050 -764.952 -1439.962 -3299.950 0.010 1.017 0.080 -0.08 0.56 -0.82 0.07
1 3.48 348 1.020 -10.880 3.821 22.369 -43.854 9.399 -914.854 -1334.880 -3404.882 -0.455 1.765 -0.264 -0.08 0.56 -0.82 0.07
1 3.49 349 1.360 -11.325 4.377 29.175 -39.612 14.160 -914.854 -1259.929 -3404.882 -0.785 2.224 -0.788 -0.08 0.56 -0.82 0.07
1 3.50 350 1.642 -11.473 4.640 31.677 -34.760 17.883 -914.854 -1259.929 -3404.882 -1.066 2.388 -1.011 -0.09 0.55 -0.82 0.07
1 3.51 351 1.954 -12.077 5.157 28.473 -28.931 18.127 -914.854 -1484.933 -3224.999 -1.382 3.009 -1.485 -0.09 0.55 -0.83 0.08
1 3.52 352 1.959 -11.981 5.229 23.987 -25.665 15.930 -914.854 -1484.933 -3224.999 -1.394 2.929 -1.517 -0.09 0.55 -0.83 0.08
1 3.53 353 2.150 -11.622 5.416 15.411 -18.341 11.780 -914.854 -1514.913 -3509.963 -1.597 2.594 -1.643 -0.09 0.55 -0.83 0.08
1 3.54 354 2.251 -11.378 5.674 12.909 -14.404 10.162 -914.854 -1514.913 -3509.963 -1.702 2.358 -1.881 -0.09 0.55 -0.83 0.08
1 3.55 355 2.404 -10.813 5.358 12.207 0.336 6.256 -944.984 -1409.981 -3374.901 -1.861 1.800 -1.547 -0.09 0.55 -0.83 0.09
1 3.56 356 2.246 -10.698 5.272 8.270 10.986 4.944 -974.965 -1544.894 -3359.911 -1.712 1.693 -1.442 -0.09 0.54 -0.83 0.09
1 3.57 357 2.504 -10.300 5.239 -3.174 21.851 1.160 -974.965 -1544.894 -3359.911 -1.983 1.299 -1.398 -0.09 0.54 -0.83 0.09
1 3.58 358 2.792 -9.989 4.813 -15.900 43.701 -2.197 -1079.896 -1574.874 -3494.973 -2.285 0.985 -0.976 -0.09 0.54 -0.83 0.08
1 3.59 359 2.203 -9.908 4.741 -21.973 53.559 1.007 -1079.896 -1574.874 -3494.973 -1.716 0.896 -0.919 -0.08 0.55 -0.83 0.08
1 3.60 360 1.542 -10.214 4.813 -33.112 60.761 5.341 -944.984 -1439.962 -3449.853 -1.122 1.176 -1.047 -0.08 0.55 -0.83 0.08
1 3.61 361 1.504 -10.032 4.683 -33.997 62.073 3.235 -944.984 -1439.962 -3449.853 -1.124 0.975 -0.959 -0.07 0.55 -0.83 0.08
1 3.62 362 1.389 -9.649 4.516 -34.638 64.270 0.916 -749.961 -1424.972 -3359.911 -1.047 0.573 -0.834 -0.07 0.55 -0.83 0.07
1 3.63 363 0.953 -9.237 4.271 -34.882 62.714 -4.303 -764.952 -1439.962 -3254.979 -0.642 0.144 -0.631 -0.07 0.56 -0.83 0.07
1 3.64 364 0.388 -8.677 4.415 -31.281 60.120 -6.775 -764.952 -1439.962 -3254.979 -0.098 -0.433 -0.814 -0.06 0.56 -0.82 0.07
1 3.65 365 -0.311 -8.155 4.429 -25.940 56.030 -9.460 -854.893 -1499.923 -3419.872 0.582 -0.968 -0.860 -0.06 0.56 -0.82 0.06
1 3.66 366 -1.125 -7.528 4.951 -20.996 50.751 -12.787 -854.893 -1499.923 -3419.872 1.379 -1.605 -1.405 -0.06 0.56 -0.82 0.06
1 3.67 367 -1.528 -7.403 5.133 -17.944 46.509 -10.834 -839.903 -1334.880 -3404.882 1.765 -1.736 -1.603 -0.05 0.56 -0.82 0.06
1 3.68 368 -1.777 -7.068 5.330 -18.890 41.199 -5.035 -734.971 -1484.933 -3374.901 1.969 -2.078 -1.815 -0.05 0.56 -0.82 0.05
1 3.69 369 -1.997 -6.862 5.220 -23.560 36.896 -1.404 -779.942 -1304.900 -3314.940 2.160 -2.288 -1.713 -0.05 0.56 -0.82 0.05
1 3.70 370 -2.097 -6.752 4.884 -28.778 29.205 4.578 -569.929 -1304.900 -3134.908 2.226 -2.404 -1.392 -0.04 0.57 -0.82 0.05
1 3.71 371 -2.342 -6.781 4.434 -33.753 19.135 9.216 -569.929 -1304.900 -3134.908 2.449 -2.391 -0.983 -0.04 0.57 -0.82 0.05
1 3.72 372 -2.198 -7.322 3.998 -33.661 6.958 15.228 -734.971 -1364.861 -3299.950 2.282 -1.867 -0.593 -0.04 0.57 -0.82 0.05
1 3.73 373 -1.427 -7.973 3.654 -24.384 -12.634 21.881 -734.971 -1364.861 -3299.950 1.487 -1.232 -0.293 -0.04 0.57 -0.82 0.05
1 3.74 374 -0.699 -8.251 3.658 -12.726 -22.797 26.184 -614.899 -1169.988 -3194.869 0.736 -0.968 -0.333 -0.04 0.57 -0.82 0.05
1 3.75 375 0.393 -8.840 4.075 0.824 -28.076 29.053 -569.929 -1304.900 -3314.940 -0.418 -0.384 -0.765 -0.04 0.57 -0.82 0.06
1 3.76 376 1.135 -9.515 4.573 2.930 -26.825 26.642 -659.870 -1439.962 -3119.917 -1.184 0.295 -1.252 -0.04 0.57 -0.82 0.06
1 3.77 377 1.662 -10.482 4.832 3.296 -23.438 23.316 -599.909 -1469.942 -3239.989 -1.725 1.267 -1.497 -0.04 0.57 -0.82 0.06
1 3.78 378 2.102 -11.478 5.042 6.195 -19.287 18.768 -599.909 -1469.942 -3239.989 -2.184 2.266 -1.700 -0.04 0.57 -0.82 0.07
1 3.79 379 2.332 -11.986 5.315 14.801 -15.015 13.580 -690.000 -1214.958 -3254.979 -2.429 2.779 -1.960 -0.04 0.57 -0.82 0.07
1 3.80 380 2.490 -11.766 4.927 36.896 -8.087 7.874 -690.000 -1214.958 -3254.979 -2.596 2.569 -1.544 -0.04 0.57 -0.82 0.07
1 3.81 381 2.624 -10.908 4.616 57.556 -6.622 2.899 -659.870 -1364.861 -3119.917 -2.737 1.729 -1.185 -0.04 0.57 -0.82 0.07
1 3.82 382 2.682 -10.003 4.257 81.269 -7.294 -0.092 -509.968 -1259.929 -3224.999 -2.796 0.853 -0.751 -0.04 0.57 -0.82 0.07
1 3.83 383 2.825 -8.193 3.678 101.899 -3.235 -6.897 -584.919 -1259.929 -3254.979 -2.914 -0.861 0.070 -0.04 0.55 -0.83 0.07
1 3.84 384 2.701 -7.001 3.208 99.518 1.648 -10.468 -599.909 -1349.871 -3419.872 -2.754 -1.993 0.683 -0.04 0.55 -0.83 0.07
1 3.85 385 2.495 -6.163 2.773 82.642 7.477 -10.956 -599.909 -1349.871 -3419.872 -2.534 -2.772 1.254 -0.04 0.54 -0.84 0.07
1 3.86 386 2.160 -5.603 2.457 52.185 11.200 -8.759 -659.870 -1559.884 -3254.979 -2.189 -3.284 1.675 -0.04 0.54 -0.84 0.07
1 3.87 387 1.848 -5.435 2.480 15.228 15.686 -5.737 -659.870 -1559.884 -3254.979 -1.873 -3.423 1.711 -0.04 0.53 -0.84 0.07
1 3.88 388 1.279 -6.201 2.552 -34.943 17.883 -1.556 -674.860 -1469.942 -3569.924 -1.306 -2.652 1.649 -0.04 0.53 -0.84 0.07
1 3.89 389 0.934 -7.034 2.792 -59.082 13.825 -2.625 -584.919 -1514.913 -3479.983 -0.970 -1.836 1.374 -0.04 0.53 -0.84 0.07
1 3.90 390 0.690 -8.327 3.137 -74.707 5.463 -7.507 -690.000 -1589.864 -3299.950 -0.728 -0.619 0.864 -0.04 0.54 -0.84 0.07
1 3.91 391 0.235 -9.146 3.510 -72.968 2.502 -10.223 -734.971 -1514.913 -3329.931 -0.261 0.155 0.387 -0.04 0.55 -0.83 0.06
1 3.92 392 0.335 -9.759 3.783 -61.829 1.617 -14.648 -734.971 -1514.913 -3329.931 -0.344 0.725 0.016 -0.04 0.55 -0.83 0.06
1 3.93 393 0.393 -10.444 3.860 -42.236 0.671 -18.524 -449.857 -1499.923 -3464.993 -0.377 1.377 -0.141 -0.04 0.56 -0.83 0.06
1 3.94 394 0.460 -10.755 3.965 -18.890 0.275 -21.301 -449.857 -1499.923 -3464.993 -0.416 1.668 -0.296 -0.04 0.56 -0.83 0.06
1 3.95 395 0.838 -10.439 3.769 20.722 3.174 -23.743 -629.890 -1424.972 -3209.859 -0.763 1.346 -0.115 -0.04 0.56 -0.83 0.06
1 3.96 396 1.164 -9.750 3.625 34.607 7.172 -18.280 -674.860 -1349.871 -3314.940 -1.054 0.666 0.052 -0.05 0.56 -0.83 0.06
1 3.97 397 1.489 -8.983 3.357 36.224 13.733 -17.517 -690.000 -1439.962 -3329.931 -1.325 -0.059 0.417 -0.05 0.55 -0.83 0.05
1 3.98 398 1.585 -8.868 3.227 33.051 15.930 -16.907 -659.870 -1559.884 -3299.950 -1.395 -0.154 0.594 -0.05 0.55 -0.83 0.05
1 3.99 399 1.700 -8.658 3.333 22.919 21.668 -13.367 -659.870 -1559.884 -3299.950 -1.489 -0.348 0.526 -0.05 0.55 -0.83 0.05
1 4.00 400 1.590 -8.864 3.127 20.538 22.308 -10.437 -690.000 -1514.913 -3404.882 -1.362 -0.129 0.762 -0.05 0.55 -0.83 0.05
1 4.01 401 1.508 -8.945 2.974 20.935 21.057 -6.836 -690.000 -1514.913 -3404.882 -1.269 -0.036 0.942 -0.05 0.55 -0.84 0.05
1 4.02 402 1.619 -8.734 2.955 17.090 20.966 -1.709 -614.899 -1439.962 -3299.950 -1.372 -0.235 0.986 -0.05 0.54 -0.84 0.05
1 4.03 403 1.700 -8.619 2.859 9.430 23.712 -1.617 -659.870 -1514.913 -3329.931 -1.452 -0.340 1.104 -0.04 0.54 -0.84 0.04
1 4.04 404 1.312 -8.509 2.978 -6.195 32.868 -1.770 -629.890 -1574.874 -3239.989 -1.067 -0.445 0.995 -0.04 0.54 -0.84 0.04
1 4.05 405 1.235 -8.533 2.902 -11.566 36.408 -2.441 -494.978 -1574.874 -3464.993 -0.998 -0.428 1.057 -0.04 0.54 -0.84 0.04
1 4.06 406 0.704 -8.950 3.103 -23.651 43.183 -5.005 -494.978 -1574.874 -3464.993 -0.479 -0.024 0.829 -0.04 0.55 -0.84 0.04
1 4.07 407 0.522 -9.213 3.237 -23.682 42.633 -8.179 -659.870 -1589.864 -3299.950 -0.310 0.223 0.659 -0.04 0.55 -0.84 0.04
1 4.08 408 0.129 -9.620 3.122 -11.078 34.973 -12.207 -659.870 -1589.864 -3299.950 0.074 0.617 0.742 -0.03 0.55 -0.83 0.03
1 4.09 409 -0.125 -9.778 3.180 11.627 24.445 -16.052 -524.958 -1574.874 -3284.960 0.327 0.770 0.674 -0.03 0.55 -0.83 0.03
1 4.10 410 -0.244 -9.615 3.275 29.663 11.292 -21.912 -569.929 -1619.995 -3359.911 0.456 0.615 0.597 -0.03 0.55 -0.83 0.03
1 4.11 411 -0.091 -9.510 3.208 31.525 4.822 -24.384 -569.929 -1619.995 -3359.911 0.321 0.526 0.699 -0.03 0.55 -0.84 0.03
1 4.12 412 0.713 -9.568 3.697 26.367 -3.998 -32.074 -584.919 -1439.962 -3224.999 -0.420 0.618 0.285 -0.03 0.54 -0.84 0.03
1 4.13 413 0.704 -9.936 5.109 25.086 -8.514 -32.288 -584.919 -1439.962 -3224.999 -0.360 1.003 -1.096 -0.04 0.54 -0.84 0.02
1 4.14 414 1.178 -9.414 5.521 26.367 -10.651 -20.447 -599.909 -1424.972 -3389.892 -0.786 0.499 -1.471 -0.04 0.54 -0.84 0.02
1 4.15 415 1.245 -9.544 5.852 15.442 -15.045 -24.719 -599.909 -1424.972 -3389.892 -0.816 0.646 -1.767 -0.04 0.54 -0.84 0.02
1 4.16 416 1.360 -10.133 5.718 -6.104 -21.423 -31.128 -494.978 -1499.923 -3359.911 -0.883 1.244 -1.618 -0.04 0.54 -0.84 0.02
1 4.17 417 1.221 -11.196 4.971 -34.851 -22.278 -29.327 -524.958 -1544.894 -3359.911 -0.687 2.303 -0.887 -0.05 0.54 -0.84 0.02
1 4.18 418 1.202 -11.382 4.937 -54.657 -24.231 -24.994 -524.958 -1544.894 -3359.911 -0.611 2.474 -0.895 -0.05 0.54 -0.84 0.02
1 4.19 419 1.360 -12.110 4.559 -65.247 -18.982 -15.839 -629.890 -1619.995 -3359.911 -0.673 3.138 -0.678 -0.05 0.55 -0.84 0.02
1 4.20 420 1.575 -12.230 4.353 -34.515 -16.327 -4.303 -629.890 -1619.995 -3359.911 -0.859 3.225 -0.554 -0.06 0.55 -0.83 0.02
1 4.21 421 1.446 -11.095 4.698 5.280 -11.475 4.883 -704.991 -1469.942 -3389.892 -0.717 2.077 -0.933 -0.06 0.55 -0.83 0.02
1 4.22 422 0.939 -9.620 4.650 34.393 -2.655 11.536 -704.991 -1469.942 -3389.892 -0.213 0.610 -0.865 -0.06 0.55 -0.83 0.02
1 4.23 423 0.809 -8.050 4.511 44.434 1.923 12.970 -704.991 -1499.923 -3209.859 -0.099 -0.938 -0.670 -0.06 0.55 -0.83 0.02
1 4.24 424 0.646 -7.815 4.678 29.816 -0.763 9.766 -659.870 -1484.933 -3329.931 0.050 -1.144 -0.769 -0.06 0.55 -0.84 0.02
1 4.25 425 0.522 -7.643 4.856 8.301 -3.723 9.949 -659.870 -1484.933 -3329.931 0.163 -1.293 -0.890 -0.06 0.54 -0.84 0.02
1 4.26 426 0.627 -7.695 5.009 -13.733 -9.796 9.094 -629.890 -1469.942 -3359.911 0.046 -1.228 -1.014 -0.06 0.54 -0.84 0.03
1 4.27 427 0.819 -8.021 5.315 -45.624 -14.526 9.033 -614.899 -1484.933 -3299.950 -0.158 -0.917 -1.351 -0.06 0.54 -0.84 0.03
1 4.28 428 0.699 -8.418 5.325 -57.953 -13.123 10.284 -539.948 -1559.884 -3329.931 -0.041 -0.544 -1.416 -0.06 0.55 -0.84 0.03
1 4.29 429 0.541 -8.667 5.157 -57.312 -9.705 10.407 -539.948 -1559.884 -3329.931 0.111 -0.325 -1.317 -0.06 0.55 -0.83 0.03
1 4.30 430 0.488 -8.902 4.961 -47.791 -7.477 10.407 -584.919 -1514.913 -3299.950 0.155 -0.119 -1.186 -0.06 0.55 -0.83 0.03
1 4.31 431 0.445 -8.782 4.899 -30.853 -6.317 11.841 -509.968 -1589.864 -3224.999 0.187 -0.261 -1.175 -0.06 0.55 -0.83 0.03
1 4.32 432 0.388 -8.136 4.683 -1.617 -6.165 15.808 -509.968 -1589.864 -3224.999 0.230 -0.919 -0.985 -0.06 0.55 -0.83 0.03
1 4.33 433 0.426 -7.279 4.324 9.644 -3.510 14.496 -734.971 -1409.981 -3194.869 0.172 -1.777 -0.625 -0.06 0.55 -0.83 0.03
1 4.34 434 0.014 -6.426 4.046 7.568 -0.427 15.076 -659.870 -1334.880 -3329.931 0.549 -2.618 -0.315 -0.06 0.55 -0.83 0.04
1 4.35 435 0.014 -5.612 3.951 4.303 -3.571 3.448 -659.870 -1289.910 -3194.869 0.531 -3.429 -0.209 -0.06 0.55 -0.83 0.04
1 4.36 436 -0.460 -5.919 3.998 -1.465 -4.456 -0.366 -659.870 -1289.910 -3194.869 1.008 -3.120 -0.251 -0.06 0.55 -0.83 0.04
1 4.37 437 -0.685 -6.206 4.176 -9.766 -8.179 -2.014 -779.942 -1349.871 -3239.989 1.238 -2.834 -0.432 -0.06 0.55 -0.83 0.04
1 4.38 438 -0.824 -6.632 4.405 -15.076 -13.550 -9.064 -704.991 -1379.851 -3239.989 1.387 -2.413 -0.677 -0.06 0.55 -0.83 0.04
1 4.39 439 -0.852 -7.892 4.856 -17.090 -25.421 -16.449 -704.991 -1379.851 -3239.989 1.441 -1.161 -1.149 -0.06 0.55 -0.83 0.04
1 4.40 440 -0.833 -8.567 4.999 -18.646 -29.694 -18.158 -614.899 -1364.861 -3194.869 1.458 -0.494 -1.317 -0.06 0.55 -0.83 0.04
1 4.41 441 -0.690 -9.960 5.392 -26.703 -26.093 -17.883 -854.893 -1304.900 -3284.960 1.378 0.889 -1.747 -0.07 0.56 -0.83 0.04
1 4.42 442 -0.570 -10.540 5.301 -30.457 -22.736 -16.815 -824.913 -1379.851 -3164.888 1.297 1.456 -1.697 -0.07 0.56 -0.83 0.04
1 4.43 443 -0.340 -11.004 4.741 -36.499 -7.111 -9.186 -824.913 -1379.851 -3164.888 1.094 1.903 -1.185 -0.07 0.56 -0.82 0.04
1 4.44 444 -0.412 -11.153 4.113 -31.250 0.732 0.641 -674.860 -1349.871 -3164.888 1.179 2.034 -0.606 -0.07 0.56 -0.82 0.04
1 4.45 445 -0.369 -10.865 3.481 -20.813 -0.671 11.353 -704.991 -1349.871 -3164.888 1.132 1.731 -0.013 -0.07 0.56 -0.82 0.04
1 4.46 446 -0.249 -9.898 2.782 -5.554 -14.191 20.783 -704.991 -1349.871 -3164.888 0.995 0.754 0.663 -0.07 0.56 -0.82 0.04
1 4.47 447 -0.148 -9.347 2.576 1.648 -30.182 23.132 -779.942 -1349.871 -3284.960 0.870 0.196 0.855 -0.07 0.57 -0.82 0.04
1 4.48 448 0.206 -8.624 2.773 -1.282 -48.859 26.825 -734.971 -1139.857 -3224.999 0.474 -0.535 0.645 -0.08 0.57 -0.82 0.05
1 4.49 449 0.369 -8.643 2.868 -4.303 -50.873 26.093 -764.952 -1139.857 -3119.917 0.297 -0.521 0.538 -0.08 0.57 -0.82 0.05
1 4.50 450 1.030 -8.658 3.366 -7.294 -46.112 22.430 -764.952 -1139.857 -3119.917 -0.370 -0.513 0.025 -0.08 0.57 -0.82 0.06
1 4.51 451 1.235 -8.816 3.620 -4.059 -34.851 24.017 -839.903 -1169.988 -3194.869 -0.581 -0.360 -0.240 -0.08 0.57 -0.82 0.06
1 4.52 452 1.365 -8.935 3.587 -0.610 -19.318 28.046 -929.994 -1349.871 -3239.989 -0.725 -0.242 -0.210 -0.08 0.57 -0.82 0.06
1 4.53 453 1.413 -8.754 3.505 -1.709 -6.866 31.372 -929.994 -1349.871 -3239.989 -0.800 -0.426 -0.128 -0.08 0.57 -0.82 0.07
1 4.54 454 1.279 -8.873 3.160 -11.627 9.491 34.363 -914.854 -1439.962 -3074.947 -0.701 -0.309 0.215 -0.08 0.57 -0.82 0.07
1 4.55 455 1.183 -8.878 2.931 -21.454 17.456 36.347 -914.854 -1289.910 -3074.947 -0.649 -0.311 0.435 -0.08 0.57 -0.82 0.07
1 4.56 456 0.852 -9.199 2.854 -34.729 25.269 35.462 -824.913 -1229.949 -3164.888 -0.427 -0.019 0.447 -0.08 0.57 -0.81 0.07
1 4.57 457 0.402 -9.347 2.691 -32.410 27.588 31.433 -824.913 -1229.949 -3164.888 -0.034 0.110 0.561 -0.07 0.57 -0.81 0.07
1 4.58 458 -0.091 -9.879 2.667 -20.386 27.527 24.139 -764.952 -1289.910 -3119.917 0.406 0.624 0.541 -0.07 0.58 -0.81 0.07
1 4.59 459 -0.474 -9.965 2.701 -2.838 22.369 19.684 -749.961 -1079.896 -3284.960 0.742 0.701 0.483 -0.07 0.58 -0.81 0.07
1 4.60 460 -0.881 -9.903 2.840 15.411 13.702 13.367 -749.961 -1079.896 -3284.960 1.109 0.637 0.345 -0.07 0.58 -0.81 0.07
1 4.61 461 -1.489 -9.577 2.926 35.004 -1.831 6.561 -749.961 -1229.949 -3029.976 1.687 0.320 0.283 -0.07 0.58 -0.81 0.07
1 4.62 462 -1.858 -9.347 2.677 40.955 -14.038 7.568 -690.000 -1139.857 -3119.917 2.035 0.104 0.576 -0.06 0.57 -0.81 0.08
1 4.63 463 -1.968 -8.897 2.500 41.870 -37.659 -1.801 -584.919 -1214.958 -3149.898 2.122 -0.307 0.863 -0.06 0.57 -0.82 0.08
1 4.64 464 -1.844 -8.787 2.490 40.100 -50.720 -4.211 -584.919 -1214.958 -3149.898 2.008 -0.397 0.926 -0.07 0.57 -0.82 0.08
1 4.65 465 -1.710 -8.485 2.514 37.842 -60.150 -6.928 -944.984 -1139.857 -3149.898 1.894 -0.679 0.953 -0.07 0.56 -0.82 0.08
1 4.66 466 -1.427 -8.303 2.591 30.823 -66.681 -7.599 -824.913 -1229.949 -3209.859 1.641 -0.843 0.922 -0.07 0.56 -0.82 0.09
1 4.67 467 -1.053 -8.375 2.619 21.271 -71.655 -5.859 -824.913 -1229.949 -3209.859 1.309 -0.756 0.930 -0.08 0.56 -0.82 0.09
1 4.68 468 -0.570 -8.490 2.600 9.033 -69.580 -2.380 -914.854 -1364.861 -3194.869 0.870 -0.631 0.972 -0.08 0.56 -0.82 0.09
1 4.69 469 -0.211 -8.816 2.782 5.310 -65.460 1.648 -899.864 -1274.919 -3284.960 0.552 -0.299 0.801 -0.09 0.56 -0.82 0.1
1 4.70 470 0.010 -8.979 2.854 6.866 -60.120 4.944 -899.864 -1274.919 -3284.960 0.362 -0.135 0.730 -0.09 0.56 -0.82 0.1
1 4.71 471 0.321 -9.137 2.768 13.825 -48.065 10.529 -914.854 -1289.910 -3224.999 0.093 0.029 0.826 -0.1 0.55 -0.82 0.1
1 4.72 472 0.536 -9.084 3.055 19.592 -41.565 13.947 -869.883 -1364.861 -3254.979 -0.113 -0.018 0.554 -0.1 0.55 -0.82 0.11
1 4.73 473 0.723 -9.357 3.204 24.902 -35.553 15.900 -1034.926 -1424.972 -3209.859 -0.296 0.265 0.430 -0.1 0.55 -0.82 0.11
1 4.74 474 0.824 -9.405 3.620 27.771 -31.189 17.578 -1034.926 -1424.972 -3209.859 -0.397 0.326 0.045 -0.1 0.55 -0.82 0.11
1 4.75 475 0.872 -9.692 3.816 26.886 -29.236 18.494 -1034.926 -1304.900 -3164.888 -0.449 0.628 -0.116 -0.1 0.55 -0.82 0.11
1 4.76 476 0.977 -9.773 4.104 20.233 -27.618 18.677 -1004.945 -1349.871 -3284.960 -0.561 0.723 -0.368 -0.1 0.55 -0.82 0.12
1 4.77 477 1.135 -10.085 4.252 14.648 -27.405 19.257 -1004.945 -1349.871 -3284.960 -0.725 1.046 -0.487 -0.1 0.55 -0.82 0.12
1 4.78 478 1.298 -10.291 4.271 9.399 -29.358 18.402 -944.984 -1514.913 -3149.898 -0.902 1.267 -0.468 -0.11 0.54 -0.82 0.12
1 4.79 479 1.322 -10.506 4.405 9.827 -29.907 17.639 -974.965 -1379.851 -3209.859 -0.934 1.488 -0.589 -0.11 0.54 -0.82 0.12
1 4.80 480 1.551 -10.458 4.267 13.672 -29.755 17.609 -944.984 -1289.910 -3149.898 -1.169 1.446 -0.436 -0.11 0.54 -0.82 0.13
1 4.81 481 1.772 -10.726 4.195 17.181 -27.283 15.595 -944.984 -1289.910 -3149.898 -1.395 1.723 -0.344 -0.11 0.54 -0.82 0.13
1 4.82 482 1.695 -10.755 3.826 22.125 -22.858 14.435 -1169.988 -1409.981 -3194.869 -1.324 1.762 0.051 -0.11 0.54 -0.83 0.13
1 4.83 483 1.389 -10.473 3.448 30.060 -16.327 9.460 -1094.887 -1364.861 -3254.979 -1.022 1.494 0.462 -0.11 0.54 -0.83 0.13
1 4.84 484 1.063 -10.190 4.056 33.814 -13.428 6.439 -1094.887 -1364.861 -3254.979 -0.700 1.229 -0.105 -0.11 0.54 -0.83 0.13
1 4.85 485 1.231 -9.539 4.401 33.569 -11.444 -1.923 -1094.887 -1439.962 -3299.950 -0.864 0.621 -0.354 -0.11 0.53 -0.83 0.14
1 4.86 486 1.015 -9.730 4.654 28.961 -7.019 -5.035 -1079.896 -1619.995 -3164.888 -0.632 0.833 -0.565 -0.11 0.53 -0.83 0.14
1 4.87 487 0.661 -10.492 4.889 4.547 2.899 2.258 -1109.877 -1574.874 -3164.888 -0.273 1.606 -0.775 -0.11 0.53 -0.83 0.14
1 4.88 488 0.809 -10.607 4.798 -8.331 7.965 3.113 -1109.877 -1574.874 -3164.888 -0.427 1.722 -0.681 -0.11 0.53 -0.83 0.14
1 4.89 489 0.546 -10.362 4.664 -18.646 15.137 5.768 -1094.887 -1679.956 -3254.979 -0.174 1.471 -0.559 -0.11 0.53 -0.83 0.13
1 4.90 490 -0.134 -9.927 5.066 -25.269 17.090 11.383 -1064.906 -1364.861 -3194.869 0.487 1.023 -0.988 -0.11 0.53 -0.83 0.13
1 4.91 491 0.086 -9.524 5.114 -21.881 21.790 9.552 -1064.906 -1364.861 -3194.869 0.241 0.605 -1.068 -0.11 0.53 -0.83 0.13
1 4.92 492 0.263 -9.247 4.564 -29.419 30.853 5.554 -1139.857 -1439.962 -3299.950 0.011 0.300 -0.573 -0.1 0.53 -0.83 0.13
1 4.93 493 0.364 -9.347 4.367 -34.515 31.067 4.425 -1094.887 -1364.861 -3329.931 -0.114 0.384 -0.414 -0.1 0.54 -0.83 0.13
1 4.94 494 0.412 -9.888 4.429 -45.258 35.370 7.965 -1094.887 -1409.981 -3299.950 -0.185 0.901 -0.528 -0.1 0.54 -0.83 0.13
1 4.95 495 0.115 -9.735 4.080 -46.326 31.220 13.947 -1094.887 -1409.981 -3299.950 0.079 0.721 -0.239 -0.1 0.54 -0.82 0.13
1 4.96 496 0.096 -9.553 4.506 -45.349 23.987 16.388 -1004.945 -1469.942 -3134.908 0.062 0.512 -0.727 -0.09 0.55 -0.82 0.13
1 4.97 497 0.086 -9.050 4.827 -40.955 19.440 19.653 -974.965 -1424.972 -3209.859 0.034 -0.015 -1.105 -0.09 0.55 -0.82 0.13
1 4.98 498 0.249 -8.208 5.694 -38.605 23.193 17.761 -974.965 -1424.972 -3209.859 -0.166 -0.877 -2.019 -0.09 0.55 -0.82 0.13
1 4.99 499 -0.019 -8.030 5.387 -42.297 27.924 25.208 -1064.906 -1334.880 -3254.979 0.066 -1.070 -1.751 -0.09 0.55 -0.82 0.13
1 5.00 500 -0.110 -7.025 5.153 -43.884 23.895 23.834 -839.903 -1259.929 -3329.931 0.058 -2.109 -1.602 -0.08 0.56 -0.82 0.13
1 5.01 501 -0.488 -7.264 4.961 -40.711 20.538 25.787 -1004.945 -1274.919 -3134.908 0.391 -1.889 -1.462 -0.08 0.56 -0.81 0.13
1 5.02 502 -0.560 -7.250 4.616 -33.386 13.916 27.863 -1004.945 -1274.919 -3134.908 0.415 -1.920 -1.163 -0.08 0.56 -0.81 0.13
1 5.03 503 -0.369 -7.384 4.678 -23.590 4.974 24.689 -839.903 -1334.880 -3119.917 0.180 -1.801 -1.268 -0.08 0.57 -0.81 0.13
1 5.04 504 -0.096 -7.480 4.650 -9.888 -7.568 22.095 -869.883 -1214.958 -3044.966 -0.128 -1.715 -1.267 -0.08 0.57 -0.81 0.13
1 5.05 505 0.517 -8.030 4.755 -3.693 -13.886 22.034 -869.883 -1214.958 -3044.966 -0.769 -1.169 -1.388 -0.07 0.57 -0.81 0.13
1 5.06 506 0.996 -8.198 4.851 -4.059 -18.951 17.792 -824.913 -1079.896 -3029.976 -1.268 -0.998 -1.476 -0.07 0.57 -0.81 0.13
1 5.07 507 1.595 -8.663 5.124 -6.805 -18.433 9.338 -914.854 -1169.988 -3149.898 -1.875 -0.528 -1.733 -0.08 0.57 -0.81 0.13
1 5.08 508 1.887 -9.041 5.229 -9.766 -12.665 1.221 -839.903 -1094.887 -3194.869 -2.155 -0.148 -1.834 -0.08 0.57 -0.81 0.13
1 5.09 509 1.896 -9.659 5.153 -7.904 -6.897 -5.066 -839.903 -1094.887 -3194.869 -2.141 0.469 -1.756 -0.08 0.57 -0.81 0.13
1 5.10 510 1.939 -9.874 5.157 2.899 -0.610 -10.742 -779.942 -1079.896 -3029.976 -2.171 0.682 -1.767 -0.08 0.57 -0.81 0.13
1 5.11 511 1.796 -10.066 4.836 16.663 6.348 -11.688 -914.854 -1169.988 -3119.917 -2.012 0.877 -1.435 -0.08 0.57 -0.81 0.13
1 5.12 512 1.374 -9.936 4.449 31.036 9.888 -11.963 -914.854 -1169.988 -3119.917 -1.577 0.758 -1.018 -0.08 0.56 -0.81 0.13
1 5.13 513 1.168 -9.529 4.042 35.065 10.254 -11.414 -794.932 -1169.988 -3224.999 -1.360 0.367 -0.569 -0.08 0.56 -0.81 0.13
1 5.14 514 1.015 -9.060 3.639 31.921 7.446 -12.268 -794.932 -1169.988 -3224.999 -1.189 -0.083 -0.116 -0.08 0.56 -0.81 0.13
1 5.15 515 0.915 -8.303 3.390 24.017 1.434 -15.839 -749.961 -1079.896 -3164.888 -1.040 -0.805 0.224 -0.08 0.56 -0.82 0.13
1 5.16 516 1.288 -8.188 3.299 19.928 -0.061 -17.944 -749.961 -1079.896 -3164.888 -1.382 -0.907 0.349 -0.08 0.55 -0.82 0.12
1 5.17 517 1.264 -7.815 3.299 16.968 4.852 -19.196 -824.913 -1154.998 -3314.940 -1.322 -1.269 0.378 -0.08 0.55 -0.82 0.12
1 5.18 518 1.422 -7.724 3.208 11.200 9.430 -20.233 -869.883 -1064.906 -3149.898 -1.455 -1.350 0.493 -0.08 0.55 -0.82 0.12
1 5.19 519 1.413 -7.848 3.227 0.488 13.947 -17.792 -869.883 -1064.906 -3149.898 -1.424 -1.220 0.488 -0.08 0.55 -0.82 0.12
1 5.20 520 0.867 -8.260 3.117 -18.250 16.419 -17.029 -869.883 -1259.929 -3194.869 -0.861 -0.809 0.596 -0.08 0.55 -0.82 0.12
1 5.21 521 0.560 -8.509 3.036 -28.107 13.977 -17.242 -869.883 -1259.929 -3194.869 -0.539 -0.568 0.658 -0.08 0.55 -0.82 0.11
1 5.22 522 0.441 -9.165 2.998 -29.999 10.223 -17.914 -929.994 -1199.968 -3314.940 -0.374 0.056 0.617 -0.08 0.56 -0.82 0.11
1 5.23 523 0.397 -9.390 2.854 -26.001 7.629 -19.165 -929.994 -1199.968 -3314.940 -0.306 0.264 0.716 -0.08 0.56 -0.82 0.11
1 5.24 524 0.335 -9.639 3.060 -15.503 3.601 -22.614 -914.854 -1289.910 -3254.979 -0.216 0.500 0.474 -0.08 0.56 -0.82 0.11
1 5.25 525 0.498 -9.553 3.084 -3.052 1.465 -24.292 -1019.936 -1139.857 -3149.898 -0.346 0.406 0.430 -0.08 0.56 -0.82 0.1
1 5.26 526 0.570 -9.429 3.026 2.869 0.153 -24.048 -1019.936 -1139.857 -3149.898 -0.381 0.281 0.483 -0.08 0.56 -0.82 0.1
1 5.27 527 0.661 -9.290 3.084 6.500 -3.448 -23.834 -734.971 -1094.887 -3194.869 -0.434 0.144 0.429 -0.08 0.56 -0.82 0.1
1 5.28 528 0.742 -9.290 3.036 7.446 -6.653 -23.224 -734.971 -1094.887 -3194.869 -0.478 0.147 0.482 -0.08 0.56 -0.82 0.1
1 5.29 529 0.872 -9.625 3.031 14.740 -9.857 -17.914 -929.994 -1199.968 -3209.859 -0.529 0.492 0.507 -0.09 0.56 -0.82 0.1
1 5.30 530 1.087 -9.548 3.127 17.395 -9.583 -14.923 -929.994 -1199.968 -3209.859 -0.712 0.425 0.430 -0.09 0.56 -0.82 0.1
1 5.31 531 1.384 -9.429 3.079 25.024 -6.378 -6.256 -974.965 -1199.968 -3209.859 -0.983 0.317 0.505 -0.09 0.56 -0.82 0.1
1 5.32 532 1.446 -9.232 3.007 28.320 -1.617 -0.885 -869.883 -1169.988 -3074.947 -1.028 0.134 0.610 -0.09 0.55 -0.82 0.1
1 5.33 533 1.441 -9.022 2.897 29.755 5.890 5.432 -869.883 -1169.988 -3074.947 -1.016 -0.062 0.757 -0.09 0.55 -0.82 0.1
1 5.34 534 1.772 -8.840 2.773 21.027 21.973 4.700 -1004.945 -1229.949 -3314.940 -1.349 -0.229 0.919 -0.09 0.55 -0.82 0.1
1 5.35 535 1.695 -8.581 2.864 19.501 33.295 8.148 -1004.945 -1229.949 -3314.940 -1.278 -0.475 0.858 -0.09 0.55 -0.83 0.09
1 5.36 536 1.762 -8.643 3.007 17.700 51.300 5.188 -854.893 -1274.919 -3209.859 -1.383 -0.393 0.766 -0.08 0.55 -0.83 0.09
1 5.37 537 1.762 -8.696 2.868 18.250 56.641 5.280 -854.893 -1274.919 -3209.859 -1.410 -0.331 0.930 -0.08 0.55 -0.83 0.09
1 5.38 538 1.671 -8.777 3.031 16.357 67.749 1.434 -899.864 -1199.968 -3284.960 -1.352 -0.241 0.791 -0.08 0.55 -0.83 0.09
1 5.39 539 1.245 -8.935 3.141 14.191 67.932 -2.563 -929.994 -1274.919 -3314.940 -0.956 -0.074 0.703 -0.07 0.55 -0.83 0.08
1 5.40 540 0.977 -8.912 3.199 9.735 61.341 -8.545 -929.994 -1274.919 -3314.940 -0.712 -0.092 0.663 -0.07 0.55 -0.83 0.08
1 5.41 541 0.761 -9.117 3.342 4.761 50.385 -15.411 -929.994 -1229.949 -3284.960 -0.511 0.119 0.531 -0.07 0.55 -0.83 0.08
1 5.42 542 0.479 -9.204 3.558 -0.946 30.762 -23.682 -929.994 -1229.949 -3284.960 -0.227 0.207 0.320 -0.06 0.55 -0.83 0.07
1 5.43 543 0.283 -9.161 3.352 -1.099 19.013 -26.398 -764.952 -1259.929 -3329.931 -0.016 0.164 0.526 -0.06 0.55 -0.83 0.07
1 5.44 544 0.019 -9.453 3.122 4.059 4.028 -30.884 -749.961 -1304.900 -3239.989 0.305 0.457 0.753 -0.06 0.55 -0.83 0.07
1 5.45 545 0.091 -9.534 3.065 9.155 -1.617 -34.332 -734.971 -1259.929 -3329.931 0.274 0.541 0.813 -0.07 0.55 -0.83 0.07
1 5.46 546 0.043 -9.702 2.993 14.587 -3.052 -36.530 -779.942 -1304.900 -3164.888 0.370 0.715 0.895 -0.07 0.55 -0.83 0.06
1 5.47 547 0.278 -9.841 2.840 19.501 -1.038 -38.696 -779.942 -1304.900 -3164.888 0.186 0.863 1.063 -0.07 0.54 -0.83 0.06
1 5.48 548 0.311 -9.874 2.806 22.614 4.822 -36.621 -629.890 -1304.900 -3389.892 0.204 0.909 1.118 -0.07 0.54 -0.83 0.06
1 5.49 549 0.493 -10.075 3.175 23.804 7.965 -20.996 -629.890 -1304.900 -3389.892 0.070 1.123 0.773 -0.07 0.54 -0.84 0.06
1 5.50 550 0.761 -9.524 4.401 20.691 7.416 -17.639 -824.913 -1154.998 -3239.989 -0.171 0.585 -0.428 -0.07 0.54 -0.84 0.05
1 5.51 551 1.250 -9.113 5.574 12.695 16.327 -8.026 -869.883 -1259.929 -3329.931 -0.627 0.201 -1.545 -0.07 0.54 -0.84 0.05
1 5.52 552 1.106 -9.448 5.478 -2.960 19.440 -13.184 -734.971 -1334.880 -3329.931 -0.478 0.547 -1.425 -0.07 0.54 -0.84 0.05
1 5.53 553 1.121 -10.209 5.392 -18.250 16.998 -17.731 -914.854 -1409.981 -3509.963 -0.482 1.309 -1.341 -0.07 0.54 -0.84 0.05
1 5.54 554 0.857 -11.167 5.148 -25.513 13.367 -21.118 -914.854 -1409.981 -3509.963 -0.201 2.257 -1.121 -0.07 0.54 -0.84 0.05
1 5.55 555 0.996 -11.751 5.287 -35.217 6.561 -25.452 -704.991 -1379.851 -3419.872 -0.316 2.827 -1.294 -0.07 0.54 -0.84 0.05
1 5.56 556 1.307 -13.087 5.186 -36.224 -1.312 -23.071 -704.991 -1379.851 -3419.872 -0.592 4.144 -1.244 -0.07 0.54 -0.84 0.04
1 5.57 557 1.350 -13.030 4.784 -8.423 -6.409 -16.449 -674.860 -1469.942 -3389.892 -0.600 4.067 -0.893 -0.07 0.54 -0.83 0.04
1 5.58 558 1.374 -11.660 4.798 21.576 -7.233 -9.277 -824.913 -1304.900 -3494.973 -0.594 2.690 -0.929 -0.07 0.54 -0.83 0.04
1 5.59 559 1.202 -8.639 4.520 36.804 -3.784 -11.597 -854.893 -1349.871 -3389.892 -0.387 -0.299 -0.583 -0.08 0.54 -0.84 0.04
1 5.60 560 0.958 -7.959 4.315 31.128 -3.113 -12.726 -734.971 -1364.861 -3374.901 -0.119 -0.952 -0.323 -0.08 0.54 -0.84 0.04
1 5.61 561 0.704 -7.097 3.989 12.665 -7.660 -9.399 -734.971 -1364.861 -3374.901 0.156 -1.793 0.045 -0.08 0.54 -0.84 0.04
1 5.62 562 0.685 -7.130 3.912 -14.496 -16.327 -9.155 -779.942 -1424.972 -3464.993 0.195 -1.754 0.130 -0.08 0.54 -0.84 0.04
1 5.63 563 0.900 -7.346 4.075 -38.330 -24.048 -7.263 -779.942 -1424.972 -3464.993 0.004 -1.549 -0.062 -0.08 0.54 -0.84 0.04
1 5.64 564 1.010 -7.643 4.420 -63.599 -23.926 -3.204 -764.952 -1514.913 -3404.882 -0.081 -1.277 -0.467 -0.08 0.54 -0.84 0.04
1 5.65 565 0.776 -7.949 4.870 -69.245 -17.853 1.923 -869.883 -1334.880 -3329.931 0.175 -1.005 -1.001 -0.09 0.54 -0.83 0.04
1 5.66 566 0.546 -8.485 5.248 -57.221 -6.378 5.188 -839.903 -1169.988 -3329.931 0.417 -0.538 -1.548 -0.09 0.55 -0.83 0.04
1 5.67 567 0.575 -8.567 5.603 -35.980 0.854 8.148 -914.854 -1259.929 -3224.999 0.382 -0.482 -1.962 -0.09 0.55 -0.83 0.04
1 5.68 568 0.484 -8.198 5.742 -13.153 7.599 7.751 -914.854 -1259.929 -3224.999 0.457 -0.862 -2.127 -0.09 0.55 -0.83 0.04
1 5.69 569 0.311 -7.863 5.655 3.265 13.428 9.247 -974.965 -929.994 -3359.911 0.611 -1.197 -2.034 -0.09 0.55 -0.83 0.04
1 5.70 570 0.196 -7.068 5.315 9.369 14.648 6.165 -974.965 -929.994 -3359.911 0.703 -1.983 -1.666 -0.09 0.55 -0.83 0.05
1 5.71 571 -0.115 -6.302 4.492 1.984 8.179 2.258 -869.883 -1169.988 -3254.979 0.995 -2.738 -0.810 -0.08 0.55 -0.83 0.05
1 5.72 572 -0.378 -6.441 4.166 -6.042 4.578 -5.219 -944.984 -1214.958 -3224.999 1.248 -2.597 -0.477 -0.08 0.55 -0.83 0.05
1 5.73 573 -0.627 -6.551 3.984 -14.343 -5.829 -7.263 -929.994 -1304.900 -3464.993 1.511 -2.493 -0.313 -0.08 0.55 -0.83 0.05
1 5.74 574 -0.694 -6.924 4.113 -16.632 -7.477 -11.200 -854.893 -1199.968 -3209.859 1.595 -2.126 -0.463 -0.09 0.55 -0.83 0.05
1 5.75 575 -0.699 -8.011 4.142 -23.590 -16.541 -16.296 -854.893 -1199.968 -3209.859 1.628 -1.047 -0.520 -0.09 0.55 -0.83 0.04
1 5.76 576 -0.522 -8.744 4.559 -22.644 -21.637 -16.785 -839.903 -1259.929 -3149.898 1.479 -0.324 -0.967 -0.09 0.56 -0.83 0.04
1 5.77 577 -0.268 -9.711 4.971 -24.201 -21.576 -15.442 -839.903 -1259.929 -3149.898 1.249 0.636 -1.405 -0.09 0.56 -0.82 0.05
1 5.78 578 0.326 -10.975 5.392 -27.954 -11.444 -10.742 -899.864 -1154.998 -3314.940 0.683 1.890 -1.859 -0.09 0.56 -0.82 0.05
1 5.79 579 0.292 -11.244 5.172 -22.308 0.153 0.793 -794.932 -1139.857 -3254.979 0.743 2.146 -1.678 -0.09 0.56 -0.82 0.04
1 5.80 580 -0.053 -10.980 4.353 -13.641 15.411 16.174 -1034.926 -1124.867 -3314.940 1.079 1.861 -0.914 -0.09 0.56 -0.82 0.05
1 5.81 581 -0.182 -10.554 3.773 -10.132 16.785 21.088 -974.965 -1199.968 -3239.989 1.175 1.427 -0.347 -0.09 0.56 -0.82 0.05
1 5.82 582 -0.709 -9.098 2.959 -4.730 2.014 25.299 -974.965 -1199.968 -3239.989 1.658 -0.037 0.459 -0.09 0.56 -0.82 0.05
1 5.83 583 -1.030 -8.706 2.480 -3.662 -14.404 27.649 -779.942 -1079.896 -3209.859 1.933 -0.437 0.931 -0.09 0.56 -0.82 0.05
1 5.84 584 -0.948 -8.629 2.380 -9.277 -33.966 28.198 -779.942 -1079.896 -3209.859 1.811 -0.522 1.019 -0.09 0.56 -0.82 0.05
1 5.85 585 -0.699 -8.418 2.548 -13.794 -49.164 26.306 -869.883 -1139.857 -3254.979 1.530 -0.744 0.828 -0.09 0.57 -0.82 0.06
1 5.86 586 -0.249 -8.859 2.945 -15.564 -60.211 24.170 -974.965 -1124.867 -3134.908 1.065 -0.315 0.404 -0.09 0.57 -0.82 0.06
1 5.87 587 0.220 -8.744 3.357 -13.397 -57.800 22.400 -974.965 -1124.867 -3134.908 0.583 -0.442 -0.038 -0.1 0.57 -0.82 0.06
1 5.88 588 0.958 -9.003 3.630 -7.507 -36.804 24.963 -914.854 -1094.887 -3329.931 -0.171 -0.200 -0.354 -0.1 0.57 -0.81 0.07
1 5.89 589 1.293 -9.031 3.687 -9.186 -17.731 28.595 -914.854 -1094.887 -3329.931 -0.525 -0.176 -0.421 -0.1 0.57 -0.81 0.08
1 5.90 590 1.341 -8.902 3.342 -15.350 -3.845 31.189 -1004.945 -1004.945 -3314.940 -0.603 -0.312 -0.087 -0.1 0.57 -0.81 0.08
1 5.91 591 1.403 -9.117 3.103 -20.874 6.470 35.462 -1004.945 -1004.945 -3314.940 -0.704 -0.107 0.132 -0.1 0.57 -0.81 0.08
1 5.92 592 1.001 -9.347 2.883 -27.161 11.231 40.497 -989.955 -1169.988 -3194.869 -0.351 0.109 0.324 -0.1 0.57 -0.81 0.08
1 5.93 593 1.159 -9.510 2.725 -26.215 10.315 40.436 -974.965 -1049.916 -3314.940 -0.566 0.256 0.445 -0.1 0.57 -0.81 0.08
1 5.94 594 0.986 -9.788 2.777 -17.944 10.345 38.574 -974.965 -1049.916 -3314.940 -0.450 0.517 0.354 -0.09 0.58 -0.81 0.08
1 5.95 595 0.579 -9.817 2.983 -0.092 10.620 33.325 -869.883 -989.955 -3074.947 -0.150 0.525 0.104 -0.09 0.58 -0.81 0.09
1 5.96 596 0.148 -9.615 2.921 13.733 8.362 29.572 -869.883 -989.955 -3074.947 0.233 0.324 0.171 -0.09 0.58 -0.81 0.09
1 5.97 597 -0.148 -9.256 2.902 24.597 2.350 19.562 -764.952 -944.984 -3224.999 0.488 -0.029 0.213 -0.09 0.58 -0.81 0.09
1 5.98 598 -0.426 -9.070 2.715 29.572 -4.669 13.092 -764.952 -944.984 -3224.999 0.738 -0.204 0.437 -0.09 0.58 -0.81 0.09
1 5.99 599 -0.814 -8.768 2.423 27.588 -11.658 8.881 -854.893 -929.994 -3059.957 1.108 -0.493 0.770 -0.08 0.57 -0.81 0.09
1 6.00 600 -1.101 -8.567 2.270 21.484 -26.489 1.404 -779.942 -1049.916 -3209.859 1.384 -0.682 0.959 -0.08 0.57 -0.81 0.09
1 6.01 601 -1.393 -8.505 2.351 17.120 -34.577 -0.458 -779.942 -1049.916 -3209.859 1.679 -0.733 0.908 -0.09 0.57 -0.81 0.1
1 6.02 602 -1.398 -8.437 2.303 15.320 -40.650 -1.862 -839.903 -869.883 -3194.869 1.692 -0.792 0.977 -0.09 0.57 -0.81 0.1
1 6.03 603 -1.432 -8.725 2.437 13.977 -48.676 -5.005 -839.903 -1019.936 -3194.869 1.754 -0.492 0.876 -0.09 0.57 -0.81 0.1
1 6.04 604 -1.188 -8.897 2.729 12.817 -53.436 -5.310 -794.932 -989.955 -3374.901 1.531 -0.314 0.599 -0.09 0.57 -0.81 0.1
1 6.05 605 -0.929 -8.806 2.710 9.522 -53.192 -4.272 -794.932 -989.955 -3374.901 1.296 -0.399 0.630 -0.1 0.57 -0.81 0.11
1 6.06 606 -0.709 -8.912 2.749 5.890 -51.087 -2.899 -824.913 -884.874 -3359.911 1.099 -0.291 0.599 -0.1 0.57 -0.81 0.11
1 6.07 607 -0.412 -8.974 2.739 3.876 -47.608 -3.296 -1034.926 -1004.945 -3164.888 0.825 -0.226 0.612 -0.1 0.56 -0.81 0.11
1 6.08 608 -0.215 -9.065 2.629 5.280 -41.809 1.892 -1034.926 -1004.945 -3164.888 0.650 -0.134 0.722 -0.1 0.56 -0.81 0.11
1 6.09 609 -0.144 -9.208 2.600 7.019 -37.567 4.272 -944.984 -1094.887 -3224.999 0.595 0.011 0.752 -0.11 0.56 -0.81 0.11
1 6.10 610 0.335 -9.266 2.873 13.306 -31.555 8.911 -1004.945 -1199.968 -3209.859 0.132 0.073 0.491 -0.11 0.56 -0.81 0.12
1 6.11 611 0.546 -9.529 3.127 16.113 -26.703 11.780 -944.984 -944.984 -3329.931 -0.077 0.342 0.252 -0.11 0.56 -0.81 0.12
1 6.12 612 0.546 -9.831 3.352 16.449 -24.414 16.968 -944.984 -944.984 -3329.931 -0.080 0.651 0.048 -0.11 0.56 -0.81 0.12
1 6.13 613 0.776 -9.654 3.591 14.771 -27.771 25.818 -989.955 -989.955 -3224.999 -0.326 0.482 -0.170 -0.11 0.56 -0.81 0.12
1 6.14 614 0.819 -9.754 3.797 7.751 -32.776 21.576 -1094.887 -989.955 -3224.999 -0.384 0.588 -0.359 -0.11 0.56 -0.81 0.13
1 6.15 615 1.226 -10.032 4.113 -4.944 -38.330 18.677 -1094.887 -989.955 -3224.999 -0.801 0.868 -0.666 -0.11 0.56 -0.81 0.13
1 6.16 616 1.288 -10.497 3.994 -10.834 -39.093 19.135 -1079.896 -1079.896 -3209.859 -0.865 1.332 -0.549 -0.12 0.56 -0.81 0.13
1 6.17 617 1.408 -10.856 3.979 -2.686 -39.826 16.907 -1199.968 -1094.887 -3194.869 -0.994 1.680 -0.564 -0.12 0.56 -0.81 0.14
1 6.18 618 1.408 -11.023 3.989 3.662 -39.398 16.388 -1034.926 -1049.916 -3314.940 -0.995 1.847 -0.573 -0.12 0.56 -0.81 0.14
1 6.19 619 1.456 -11.244 3.793 26.489 -32.654 11.932 -1034.926 -1049.916 -3314.940 -1.043 2.075 -0.356 -0.12 0.56 -0.81 0.14
1 6.20 620 1.250 -11.229 3.481 38.818 -25.848 7.660 -1109.877 -1049.916 -3314.940 -0.836 2.077 -0.003 -0.12 0.55 -0.81 0.14
1 6.21 621 1.101 -11.177 3.251 45.685 -21.454 3.357 -1184.978 -1154.998 -3209.859 -0.682 2.046 0.285 -0.12 0.55 -0.81 0.14
1 6.22 622 0.824 -10.846 3.582 45.685 -13.641 -0.244 -1184.978 -1154.998 -3209.859 -0.396 1.742 0.020 -0.12 0.55 -0.81 0.14
1 6.23 623 0.852 -10.315 3.975 39.917 -10.101 -4.242 -1139.857 -1064.906 -3299.950 -0.415 1.237 -0.307 -0.12 0.55 -0.82 0.15
1 6.24 624 0.565 -10.607 4.037 16.937 2.960 -3.113 -1154.998 -1199.968 -3284.960 -0.104 1.572 -0.268 -0.12 0.54 -0.82 0.15
1 6.25 625 0.306 -10.884 3.874 9.399 7.050 0.488 -1094.887 -1169.988 -3374.901 0.154 1.858 -0.085 -0.12 0.54 -0.82 0.14
1 6.26 626 0.575 -11.335 3.611 -2.838 15.900 4.852 -1094.887 -1169.988 -3374.901 -0.124 2.310 0.184 -0.12 0.54 -0.82 0.14
1 6.27 627 0.575 -11.124 3.639 -8.362 19.104 6.439 -1184.978 -1154.998 -3389.892 -0.141 2.098 0.153 -0.12 0.54 -0.82 0.14
1 6.28 628 0.522 -11.004 3.907 -15.015 22.736 8.575 -1244.939 -1169.988 -3299.950 -0.108 1.972 -0.127 -0.12 0.54 -0.82 0.14
1 6.29 629 0.393 -10.559 4.022 -10.773 29.450 10.864 -1244.939 -1169.988 -3299.950 -0.005 1.519 -0.259 -0.12 0.54 -0.82 0.14
1 6.30 630 0.335 -9.630 3.716 -10.651 38.178 12.848 -1199.968 -1169.988 -3374.901 0.020 0.584 0.038 -0.12 0.54 -0.82 0.14
1 6.31 631 0.311 -9.457 3.304 -22.034 35.675 12.848 -1154.998 -1154.998 -3419.872 0.005 0.406 0.440 -0.11 0.54 -0.82 0.14
1 6.32 632 0.215 -8.955 3.199 -35.553 25.574 15.350 -1079.896 -1154.998 -3239.989 0.029 -0.126 0.478 -0.11 0.55 -0.82 0.14
1 6.33 633 0.215 -8.088 3.309 -41.901 14.587 14.862 -1079.896 -1154.998 -3239.989 -0.004 -1.014 0.317 -0.11 0.55 -0.82 0.14
1 6.34 634 0.125 -7.772 3.467 -47.943 5.096 9.277 -1244.939 -1139.857 -3254.979 0.061 -1.354 0.099 -0.1 0.55 -0.81 0.14
1 6.35 635 0.177 -7.585 4.070 -49.225 3.143 11.353 -1064.906 -989.955 -3404.882 -0.005 -1.567 -0.570 -0.1 0.56 -0.81 0.14
1 6.36 636 0.517 -7.264 4.702 -50.873 12.177 9.094 -1064.906 -989.955 -3404.882 -0.364 -1.913 -1.269 -0.1 0.56 -0.81 0.14
1 6.37 637 0.278 -7.920 5.416 -54.077 24.323 20.844 -989.955 -1019.936 -3449.853 -0.143 -1.281 -2.046 -0.1 0.56 -0.81 0.14
1 6.38 638 0.254 -7.331 5.574 -58.624 27.222 24.689 -1079.896 -1079.896 -3284.960 -0.149 -1.891 -2.260 -0.1 0.57 -0.81 0.13
1 6.39 639 -0.053 -7.805 5.220 -60.272 28.351 22.797 -1019.936 -989.955 -3254.979 0.070 -1.462 -2.032 -0.1 0.57 -0.8 0.13
1 6.40 640 -0.254 -8.030 4.880 -53.314 25.910 29.846 -1019.936 -989.955 -3254.979 0.223 -1.258 -1.756 -0.09 0.58 -0.8 0.13
1 6.41 641 -0.393 -8.844 4.741 -44.647 18.616 27.435 -1094.887 -914.854 -3374.901 0.309 -0.463 -1.673 -0.09 0.58 -0.8 0.13
1 6.42 642 -0.034 -9.089 4.477 -31.647 7.843 25.574 -914.854 -794.932 -3044.966 -0.096 -0.232 -1.453 -0.09 0.58 -0.8 0.13
1 6.43 643 0.278 -9.295 4.511 -19.165 -1.404 19.592 -914.854 -794.932 -3044.966 -0.444 -0.035 -1.515 -0.09 0.58 -0.8 0.14
1 6.44 644 1.097 -9.826 4.525 -8.087 -11.200 9.460 -1019.936 -869.883 -3149.898 -1.284 0.493 -1.541 -0.09 0.58 -0.8 0.14
1 6.45 645 1.302 -10.367 4.511 -8.484 -8.759 -1.831 -899.864 -704.991 -3239.989 -1.498 1.032 -1.534 -0.09 0.58 -0.8 0.14
1 6.46 646 1.360 -10.430 4.707 -3.632 -3.540 -1.709 -899.864 -704.991 -3239.989 -1.550 1.091 -1.740 -0.09 0.58 -0.8 0.14
1 6.47 647 1.245 -10.463 4.669 13.825 7.202 -14.435 -824.913 -779.942 -3134.908 -1.418 1.125 -1.701 -0.09 0.58 -0.8 0.14
1 6.48 648 0.986 -10.233 4.458 25.910 15.076 -13.763 -854.893 -704.991 -3239.989 -1.141 0.903 -1.464 -0.09 0.58 -0.8 0.13
1 6.49 649 0.929 -10.176 4.152 34.088 17.181 -11.749 -914.854 -794.932 -3194.869 -1.072 0.859 -1.116 -0.09 0.58 -0.8 0.13
1 6.50 650 0.651 -9.611 3.582 37.171 14.099 -11.108 -914.854 -794.932 -3194.869 -0.784 0.311 -0.494 -0.09 0.58 -0.8 0.13
1 6.51 651 0.464 -9.194 3.271 34.332 1.923 -11.902 -854.893 -734.971 -3164.888 -0.580 -0.086 -0.125 -0.09 0.58 -0.8 0.13
1 6.52 652 0.268 -8.777 2.758 27.008 -10.223 -14.069 -854.893 -779.942 -3284.960 -0.363 -0.485 0.441 -0.09 0.57 -0.8 0.13
1 6.53 653 0.565 -8.409 2.734 23.712 -23.773 -14.679 -854.893 -779.942 -3284.960 -0.633 -0.840 0.506 -0.09 0.57 -0.81 0.13
1 6.54 654 1.197 -8.303 2.911 22.339 -32.654 -15.656 -929.994 -884.874 -3284.960 -1.189 -0.922 0.396 -0.09 0.57 -0.81 0.13
1 6.55 655 1.748 -8.102 3.046 19.043 -28.961 -13.916 -869.883 -989.955 -3224.999 -1.696 -1.111 0.293 -0.09 0.57 -0.81 0.13
1 6.56 656 1.963 -8.112 3.223 15.564 -18.677 -13.031 -854.893 -884.874 -3314.940 -1.871 -1.091 0.143 -0.09 0.57 -0.81 0.13
1 6.57 657 1.906 -8.131 3.223 9.552 -7.538 -13.519 -854.893 -884.874 -3314.940 -1.772 -1.063 0.167 -0.1 0.56 -0.81 0.13
1 6.58 658 1.891 -8.423 3.194 6.012 2.777 -13.794 -899.864 -854.893 -3359.911 -1.722 -0.765 0.211 -0.1 0.56 -0.81 0.13
1 6.59 659 1.772 -8.572 3.151 5.188 12.390 -14.099 -914.854 -914.854 -3299.950 -1.571 -0.612 0.263 -0.1 0.56 -0.81 0.12
1 6.60 660 1.575 -8.744 3.141 7.721 15.015 -15.106 -914.854 -914.854 -3299.950 -1.348 -0.436 0.281 -0.1 0.56 -0.81 0.12
1 6.61 661 1.355 -8.744 3.132 10.407 14.710 -17.120 -1034.926 -959.975 -3284.960 -1.077 -0.425 0.317 -0.1 0.56 -0.81 0.12
1 6.62 662 1.427 -8.720 3.237 7.538 13.611 -21.179 -989.955 -914.854 -3404.882 -1.121 -0.442 0.227 -0.1 0.56 -0.81 0.12
1 6.63 663 1.250 -8.873 3.237 4.395 14.618 -20.996 -989.955 -989.955 -3509.963 -0.912 -0.284 0.237 -0.1 0.56 -0.82 0.11
1 6.64 664 1.279 -9.070 3.055 1.770 16.083 -19.501 -989.955 -989.955 -3509.963 -0.910 -0.084 0.426 -0.1 0.56 -0.82 0.11
1 6.65 665 1.403 -9.089 2.792 0.946 16.846 -17.212 -944.984 -989.955 -3329.931 -1.009 -0.063 0.692 -0.1 0.56 -0.82 0.11
1 6.66 666 1.499 -9.285 2.543 4.791 18.066 -14.252 -944.984 -869.883 -3479.983 -1.082 0.134 0.941 -0.1 0.56 -0.82 0.11
1 6.67 667 1.475 -9.481 2.236 11.047 19.409 -10.498 -944.984 -869.883 -3479.983 -1.037 0.333 1.250 -0.1 0.56 -0.82 0.1
1 6.68 668 1.346 -9.228 2.203 24.139 20.569 -1.007 -1019.936 -1019.936 -3449.853 -0.887 0.091 1.311 -0.1 0.56 -0.82 0.1
1 6.69 669 1.269 -9.146 2.227 27.100 21.179 1.312 -989.955 -989.955 -3329.931 -0.814 0.021 1.317 -0.1 0.56 -0.82 0.1
1 6.70 670 1.379 -8.921 2.461 24.262 22.583 1.709 -989.955 -944.984 -3329.931 -0.932 -0.192 1.116 -0.09 0.56 -0.82 0.1
1 6.71 671 1.360 -8.782 2.581 19.348 25.208 0.214 -989.955 -944.984 -3329.931 -0.919 -0.320 1.024 -0.09 0.55 -0.82 0.1
1 6.72 672 1.365 -8.706 2.859 15.442 30.518 -0.610 -914.854 -914.854 -3329.931 -0.930 -0.388 0.769 -0.09 0.55 -0.82 0.1
1 6.73 673 1.360 -8.763 3.170 12.817 42.908 -2.441 -929.994 -1049.916 -3569.924 -0.933 -0.323 0.478 -0.09 0.55 -0.82 0.09
1 6.74 674 1.226 -8.959 3.496 12.634 53.101 -4.700 -929.994 -1049.916 -3569.924 -0.811 -0.119 0.172 -0.09 0.55 -0.82 0.09
1 6.75 675 1.130 -8.955 3.553 12.177 62.226 -7.111 -839.903 -944.984 -3509.963 -0.730 -0.116 0.135 -0.08 0.55 -0.82 0.09
1 6.76 676 0.862 -8.835 3.745 8.453 67.932 -14.801 -1064.906 -1019.936 -3479.983 -0.497 -0.220 -0.016 -0.08 0.55 -0.83 0.08
1 6.77 677 0.670 -9.060 3.692 5.432 65.064 -19.867 -899.864 -1004.945 -3539.944 -0.317 0.011 0.054 -0.07 0.55 -0.83 0.08
1 6.78 678 0.431 -9.184 3.567 3.357 57.862 -25.116 -899.864 -1004.945 -3539.944 -0.081 0.140 0.189 -0.07 0.55 -0.83 0.08
1 6.79 679 0.369 -9.314 3.486 3.601 47.241 -29.114 -734.971 -1094.887 -3509.963 -0.012 0.273 0.279 -0.07 0.55 -0.83 0.07
1 6.80 680 0.335 -9.366 3.218 6.989 30.090 -33.234 -629.890 -1154.998 -3389.892 0.039 0.329 0.554 -0.07 0.55 -0.83 0.07
1 6.81 681 0.354 -9.544 2.777 9.796 19.867 -34.332 -629.890 -1154.998 -3389.892 0.046 0.511 1.003 -0.07 0.55 -0.83 0.06
1 6.82 682 0.225 -9.673 2.524 16.205 8.179 -28.168 -659.870 -1169.988 -3629.885 0.210 0.646 1.267 -0.07 0.55 -0.83 0.06
1 6.83 683 0.603 -9.477 2.662 22.400 -2.441 -33.539 -869.883 -1094.887 -3449.853 -0.094 0.468 1.161 -0.07 0.55 -0.83 0.06
1 6.84 684 0.761 -9.366 3.649 27.741 -1.648 -30.182 -794.932 -1094.887 -3479.983 -0.205 0.371 0.199 -0.07 0.55 -0.83 0.05
1 6.85 685 0.939 -9.055 4.396 30.487 4.608 -28.992 -794.932 -1094.887 -3479.983 -0.339 0.078 -0.511 -0.07 0.54 -0.83 0.05
1 6.86 686 0.895 -8.730 4.927 22.797 10.071 -25.482 -824.913 -1229.949 -3644.875 -0.259 -0.225 -0.997 -0.07 0.54 -0.84 0.05
1 6.87 687 0.508 -9.103 5.267 1.251 10.376 -34.821 -704.991 -1079.896 -3539.944 0.163 0.166 -1.304 -0.07 0.54 -0.84 0.05
1 6.88 688 0.105 -10.602 4.793 -28.595 10.193 -43.854 -704.991 -1079.896 -3539.944 0.610 1.670 -0.825 -0.07 0.54 -0.84 0.05
1 6.89 689 -0.125 -11.545 4.980 -45.227 5.524 -45.044 -659.870 -1169.988 -3629.885 0.895 2.604 -1.042 -0.07 0.54 -0.84 0.04
1 6.90 690 0.000 -12.455 5.052 -55.237 0.122 -36.133 -659.870 -1169.988 -3629.885 0.829 3.496 -1.168 -0.08 0.54 -0.83 0.04
1 6.91 691 1.044 -13.274 5.081 -19.959 -6.958 -28.473 -779.942 -1274.919 -3539.944 -0.114 4.268 -1.330 -0.08 0.55 -0.83 0.03
1 6.92 692 1.796 -12.584 5.138 21.820 -4.120 -22.247 -779.942 -1274.919 -3539.944 -0.824 3.578 -1.400 -0.08 0.55 -0.83 0.03
1 6.93 693 1.623 -11.244 4.870 52.826 2.319 -5.615 -899.864 -1154.998 -3569.924 -0.622 2.258 -1.088 -0.08 0.55 -0.83 0.03
1 6.94 694 1.518 -9.338 4.516 65.125 3.784 4.730 -779.942 -1004.945 -3569.924 -0.515 0.387 -0.653 -0.08 0.54 -0.83 0.03
1 6.95 695 1.915 -7.968 4.147 40.711 -8.057 5.005 -779.942 -1004.945 -3569.924 -0.919 -0.943 -0.193 -0.08 0.54 -0.84 0.03
1 6.96 696 2.164 -7.135 3.802 8.881 -15.198 5.920 -734.971 -1019.936 -3629.885 -1.165 -1.745 0.220 -0.08 0.54 -0.84 0.03
1 6.97 697 2.279 -6.929 3.769 -29.358 -17.029 3.998 -734.971 -1019.936 -3629.885 -1.278 -1.941 0.277 -0.08 0.54 -0.84 0.04
1 6.98 698 1.384 -7.791 3.970 -68.115 -17.609 15.106 -974.965 -1154.998 -3599.905 -0.379 -1.125 -0.027 -0.09 0.54 -0.84 0.04
1 6.99 699 1.302 -8.088 3.979 -73.731 -16.968 9.491 -974.965 -1154.998 -3599.905 -0.303 -0.870 -0.132 -0.09 0.54 -0.83 0.04
1 7.00 700 1.111 -8.519 4.372 -65.705 -10.895 9.613 -824.913 -1154.998 -3749.957 -0.113 -0.481 -0.624 -0.09 0.55 -0.83 0.04
1 7.01 701 0.699 -8.983 4.602 -47.974 -0.977 7.446 -764.952 -1094.887 -3479.983 0.293 -0.050 -0.934 -0.09 0.55 -0.83 0.04
1 7.02 702 0.354 -9.213 4.875 -24.323 5.890 5.646 -764.952 -1094.887 -3479.983 0.627 0.158 -1.257 -0.09 0.55 -0.83 0.04
1 7.03 703 0.014 -8.658 5.167 8.331 13.031 4.913 -794.932 -1094.887 -3404.882 0.953 -0.404 -1.564 -0.09 0.56 -0.83 0.04
1 7.04 704 -0.393 -8.332 5.167 18.860 14.221 2.533 -794.932 -1094.887 -3404.882 1.340 -0.724 -1.544 -0.09 0.55 -0.83 0.04
1 7.05 705 -0.709 -7.168 5.018 10.773 11.017 3.723 -899.864 -1124.867 -3464.993 1.615 -1.860 -1.317 -0.08 0.55 -0.83 0.04
1 7.06 706 -0.828 -6.967 4.908 -3.876 6.592 -0.519 -899.864 -1124.867 -3464.993 1.721 -2.055 -1.188 -0.08 0.55 -0.83 0.04
1 7.07 707 -1.039 -6.484 4.405 -20.081 0.549 -0.183 -839.903 -989.955 -3509.963 1.931 -2.542 -0.694 -0.08 0.55 -0.83 0.04
1 7.08 708 -1.077 -6.718 4.396 -28.229 -6.592 -3.387 -734.971 -869.883 -3659.866 1.973 -2.319 -0.714 -0.08 0.55 -0.83 0.04
1 7.09 709 -0.771 -6.905 4.324 -27.374 -14.008 -5.890 -734.971 -869.883 -3659.866 1.677 -2.147 -0.681 -0.08 0.55 -0.83 0.04
1 7.10 710 -1.006 -7.882 4.391 -18.311 -21.851 -7.690 -690.000 -1094.887 -3509.963 1.932 -1.184 -0.786 -0.09 0.56 -0.83 0.04
1 7.11 711 -0.699 -8.452 4.463 -8.728 -27.039 -7.660 -690.000 -1094.887 -3509.963 1.642 -0.622 -0.884 -0.09 0.56 -0.83 0.04
1 7.12 712 -0.192 -9.194 4.702 -6.256 -26.642 -11.993 -839.903 -1064.906 -3554.934 1.168 0.118 -1.136 -0.09 0.56 -0.82 0.04
1 7.13 713 -0.081 -9.572 4.961 -6.470 -22.186 -9.674 -839.903 -1064.906 -3554.934 1.077 0.498 -1.398 -0.09 0.56 -0.82 0.04
1 7.14 714 0.096 -9.984 4.482 -12.909 -11.108 -4.913 -1019.936 -989.955 -3704.986 0.915 0.907 -0.928 -0.09 0.56 -0.82 0.05
1 7.15 715 0.110 -10.243 4.156 -14.313 -1.984 -0.336 -899.864 -854.893 -3359.911 0.912 1.160 -0.621 -0.09 0.56 -0.82 0.05
1 7.16 716 -0.029 -10.233 3.893 -18.250 4.730 5.829 -899.864 -854.893 -3359.911 1.051 1.143 -0.377 -0.09 0.56 -0.82 0.05
1 7.17 717 -0.297 -10.066 3.477 -21.210 -2.136 15.198 -929.994 -959.975 -3599.905 1.307 0.965 0.017 -0.09 0.56 -0.82 0.05
1 7.18 718 -0.800 -10.157 2.868 -19.714 -19.714 17.670 -929.994 -959.975 -3599.905 1.781 1.042 0.596 -0.09 0.56 -0.82 0.05
1 7.19 719 -0.536 -10.267 2.753 -13.367 -42.145 21.088 -1034.926 -929.994 -3494.973 1.490 1.137 0.677 -0.09 0.56 -0.82 0.05
1 7.20 720 0.292 -9.917 3.457 -6.287 -59.937 14.526 -1019.936 -1019.936 -3509.963 0.635 0.763 -0.084 -0.1 0.56 -0.82 0.06
1 7.21 721 0.723 -9.582 3.721 4.272 -54.962 13.580 -854.893 -959.975 -3464.993 0.210 0.423 -0.362 -0.1 0.56 -0.82 0.06
1 7.22 722 1.097 -9.328 3.907 11.078 -44.251 12.878 -1034.926 -959.975 -3539.944 -0.156 0.171 -0.545 -0.1 0.56 -0.82 0.06
1 7.23 723 1.336 -9.012 3.644 13.245 -30.609 15.991 -1034.926 -959.975 -3539.944 -0.392 -0.139 -0.267 -0.1 0.56 -0.82 0.07
1 7.24 724 1.451 -8.686 3.467 13.916 -12.939 20.905 -944.984 -914.854 -3374.901 -0.513 -0.458 -0.071 -0.11 0.56 -0.82 0.07
1 7.25 725 1.508 -8.385 3.060 6.653 -5.280 22.522 -944.984 -914.854 -3374.901 -0.585 -0.754 0.357 -0.11 0.56 -0.82 0.07
1 7.26 726 1.561 -8.270 2.753 4.059 0.122 20.355 -1004.945 -959.975 -3494.973 -0.660 -0.866 0.677 -0.11 0.56 -0.82 0.07
1 7.27 727 1.274 -8.634 2.816 -15.411 9.613 24.201 -1079.896 -779.942 -3419.872 -0.422 -0.506 0.616 -0.1 0.56 -0.82 0.07
1 7.28 728 0.862 -8.964 2.969 -23.316 12.482 23.773 -794.932 -944.984 -3479.983 -0.045 -0.188 0.438 -0.1 0.56 -0.82 0.08
1 7.29 729 0.522 -9.060 2.921 -22.064 11.169 21.790 -1109.877 -854.893 -3494.973 0.258 -0.107 0.454 -0.1 0.56 -0.82 0.08
1 7.30 730 0.230 -9.218 2.888 -17.151 8.362 20.660 -1109.877 -854.893 -3494.973 0.515 0.037 0.458 -0.1 0.57 -0.82 0.08
1 7.31 731 -0.220 -9.625 3.175 -10.529 1.221 20.081 -1004.945 -929.994 -3539.944 0.930 0.433 0.148 -0.1 0.57 -0.81 0.08
1 7.32 732 -0.364 -9.797 3.237 9.918 -11.414 17.487 -1004.945 -929.994 -3539.944 1.041 0.599 0.075 -0.1 0.57 -0.81 0.08
1 7.33 733 -0.460 -9.371 3.433 25.299 -17.700 15.595 -914.854 -944.984 -3479.983 1.110 0.174 -0.114 -0.1 0.57 -0.81 0.08
1 7.34 734 -0.450 -9.457 3.357 31.342 -23.682 11.963 -1094.887 -914.854 -3509.963 1.076 0.269 -0.008 -0.1 0.57 -0.81 0.08
1 7.35 735 -0.527 -9.261 3.409 34.790 -31.342 11.292 -1019.936 -794.932 -3554.934 1.131 0.103 0.026 -0.1 0.56 -0.82 0.09
1 7.36 736 -0.426 -8.758 3.515 33.905 -36.347 6.653 -974.965 -929.994 -3464.993 1.025 -0.382 -0.032 -0.1 0.56 -0.82 0.09
1 7.37 737 -0.125 -8.691 3.515 29.785 -37.537 4.425 -974.965 -929.994 -3464.993 0.729 -0.431 0.014 -0.1 0.56 -0.82 0.09
1 7.38 738 -0.215 -8.433 3.357 24.201 -37.842 3.632 -944.984 -914.854 -3554.934 0.829 -0.674 0.211 -0.1 0.55 -0.82 0.09
1 7.39 739 -0.029 -8.313 3.275 16.235 -35.156 0.000 -944.984 -914.854 -3554.934 0.655 -0.781 0.323 -0.1 0.55 -0.82 0.1
1 7.40 740 -0.019 -8.270 2.907 10.315 -30.487 0.702 -1079.896 -929.994 -3644.875 0.662 -0.814 0.715 -0.11 0.55 -0.82 0.1
1 7.41 741 0.134 -8.256 2.753 10.742 -27.710 -0.336 -1004.945 -884.874 -3494.973 0.525 -0.821 0.883 -0.11 0.55 -0.82 0.1
1 7.42 742 0.292 -8.428 2.351 12.939 -22.583 -4.364 -974.965 -959.975 -3464.993 0.402 -0.635 1.314 -0.11 0.55 -0.82 0.1
1 7.43 743 0.374 -8.888 2.447 18.402 -21.240 -5.829 -1019.936 -944.984 -3629.885 0.341 -0.165 1.237 -0.11 0.55 -0.82 0.1
1 7.44 744 0.335 -9.103 2.538 23.834 -20.447 -6.073 -1019.936 -944.984 -3629.885 0.398 0.059 1.165 -0.11 0.55 -0.82 0.1
1 7.45 745 0.388 -9.477 2.840 25.940 -20.752 -5.127 -1244.939 -869.883 -3764.947 0.364 0.445 0.889 -0.11 0.54 -0.82 0.1
1 7.46 746 0.417 -9.778 3.022 26.581 -23.071 -4.181 -1244.939 -869.883 -3764.947 0.352 0.759 0.735 -0.12 0.54 -0.83 0.1
1 7.47 747 0.412 -10.085 3.553 24.963 -24.780 1.434 -1244.939 -1139.857 -3479.983 0.373 1.079 0.232 -0.12 0.54 -0.83 0.1
1 7.48 748 0.426 -9.884 3.740 25.177 -28.351 1.526 -1064.906 -1064.906 -3584.915 0.371 0.891 0.073 -0.12 0.54 -0.83 0.11
1 7.49 749 0.220 -10.200 4.219 25.696 -28.442 4.059 -1229.949 -884.874 -3644.875 0.601 1.235 -0.345 -0.12 0.54 -0.83 0.11
1 7.50 750 0.345 -10.070 4.372 23.438 -29.633 7.660 -1079.896 -959.975 -3569.924 0.487 1.121 -0.465 -0.12 0.53 -0.83 0.11
1 7.51 751 0.244 -10.046 4.683 19.745 -30.090 10.345 -1079.896 -959.975 -3569.924 0.595 1.111 -0.748 -0.12 0.53 -0.83 0.11
1 7.52 752 0.283 -10.008 4.554 13.550 -30.304 12.604 -1154.998 -959.975 -3569.924 0.562 1.083 -0.596 -0.12 0.53 -0.83 0.11
1 7.53 753 0.335 -10.051 4.535 8.118 -28.046 16.388 -1154.998 -959.975 -3569.924 0.510 1.133 -0.562 -0.13 0.53 -0.83 0.12
1 7.54 754 0.402 -9.879 3.831 5.859 -23.865 21.423 -1259.929 -1229.949 -3719.977 0.437 0.963 0.150 -0.13 0.53 -0.83 0.12
1 7.55 755 0.402 -9.864 3.405 8.362 -22.339 21.149 -1199.968 -1214.958 -3554.934 0.420 0.950 0.582 -0.13 0.53 -0.83 0.12
1 7.56 756 0.498 -9.965 3.055 15.289 -26.703 17.670 -1274.919 -1064.906 -3629.885 0.291 1.053 0.944 -0.13 0.53 -0.83 0.12
1 7.57 757 0.623 -9.951 3.084 17.059 -27.680 15.961 -1229.949 -1079.896 -3749.957 0.159 1.043 0.927 -0.13 0.53 -0.83 0.13
1 7.58 758 0.867 -9.951 3.338 22.369 -28.137 9.125 -1229.949 -1079.896 -3749.957 -0.085 1.051 0.691 -0.13 0.53 -0.83 0.13
1 7.59 759 1.125 -10.051 3.826 24.048 -26.123 5.951 -1259.929 -1154.998 -3719.977 -0.336 1.163 0.225 -0.13 0.53 -0.83 0.13
1 7.60 760 1.331 -10.051 4.161 22.369 -24.170 4.852 -1259.929 -1154.998 -3719.977 -0.533 1.176 -0.083 -0.13 0.52 -0.83 0.13
1 7.61 761 1.422 -10.300 4.386 13.306 -18.036 6.317 -1274.919 -1214.958 -3704.986 -0.614 1.438 -0.282 -0.13 0.52 -0.83 0.13
1 7.62 762 1.834 -10.822 4.722 2.136 -14.404 5.829 -1349.871 -1169.988 -3659.866 -1.022 1.970 -0.597 -0.13 0.52 -0.83 0.13
1 7.63 763 2.308 -10.841 4.827 -6.012 -3.723 4.211 -1349.871 -1169.988 -3659.866 -1.493 1.992 -0.695 -0.13 0.52 -0.83 0.13
1 7.64 764 2.231 -10.755 4.659 -13.550 17.853 6.348 -1409.981 -1304.900 -3749.957 -1.429 1.898 -0.543 -0.13 0.52 -0.83 0.13
1 7.65 765 1.829 -10.520 4.875 -13.611 29.785 9.796 -1409.981 -1304.900 -3749.957 -1.049 1.654 -0.774 -0.13 0.52 -0.83 0.13
1 7.66 766 1.403 -9.994 4.798 -7.721 42.206 11.444 -1304.900 -1079.896 -3749.957 -0.656 1.119 -0.708 -0.13 0.52 -0.83 0.13
1 7.67 767 1.274 -9.242 4.535 -6.866 52.765 11.993 -1304.900 -1079.896 -3749.957 -0.570 0.363 -0.448 -0.13 0.53 -0.83 0.13
1 7.68 768 0.728 -9.213 4.051 -20.844 53.620 14.221 -1349.871 -1214.958 -3764.947 -0.071 0.328 0.032 -0.12 0.53 -0.83 0.13
1 7.69 769 0.661 -8.495 4.027 -25.086 44.617 14.252 -1334.880 -1079.896 -3719.977 -0.051 -0.402 0.037 -0.12 0.53 -0.83 0.13
1 7.70 770 0.364 -8.126 4.271 -29.602 38.117 11.780 -1334.880 -1079.896 -3719.977 0.197 -0.786 -0.234 -0.11 0.53 -0.83 0.13
1 7.71 771 0.096 -7.556 4.765 -41.290 34.058 11.841 -1184.978 -1124.867 -3854.889 0.389 -1.391 -0.797 -0.11 0.53 -0.83 0.12
1 7.72 772 -0.354 -7.130 4.932 -49.652 32.715 13.916 -1184.978 -1124.867 -3854.889 0.801 -1.842 -1.016 -0.11 0.54 -0.83 0.12
1 7.73 773 -0.508 -6.800 5.224 -56.427 31.098 17.181 -1109.877 -1079.896 -3854.889 0.916 -2.203 -1.375 -0.1 0.54 -0.83 0.12
1 7.74 774 -0.685 -6.599 5.363 -62.439 27.527 16.968 -1109.877 -1079.896 -3854.889 1.052 -2.439 -1.591 -0.1 0.55 -0.82 0.12
1 7.75 775 -0.450 -6.551 5.320 -65.888 20.660 21.149 -1169.988 -989.955 -3659.866 0.780 -2.523 -1.633 -0.1 0.55 -0.82 0.12
1 7.76 776 -0.718 -6.694 5.196 -64.331 8.484 24.414 -1154.998 -1049.916 -3794.928 1.009 -2.417 -1.600 -0.1 0.55 -0.82 0.12
1 7.77 777 -0.493 -7.063 5.109 -56.275 2.045 27.222 -1154.998 -1049.916 -3794.928 0.746 -2.084 -1.603 -0.1 0.56 -0.82 0.12
1 7.78 778 -0.493 -7.547 4.999 -45.044 -1.160 28.809 -989.955 -914.854 -3584.915 0.708 -1.632 -1.574 -0.1 0.56 -0.81 0.12
1 7.79 779 -0.034 -8.552 4.927 -23.224 -1.282 29.816 -1094.887 -869.883 -3584.915 0.167 -0.665 -1.600 -0.09 0.57 -0.81 0.12
1 7.80 780 0.326 -9.108 4.860 -12.878 -0.580 29.144 -974.965 -779.942 -3644.875 -0.235 -0.115 -1.547 -0.09 0.57 -0.81 0.12
1 7.81 781 0.623 -9.553 4.784 -6.928 -0.732 27.435 -974.965 -779.942 -3644.875 -0.570 0.329 -1.473 -0.09 0.57 -0.81 0.13
1 7.82 782 0.867 -10.645 4.817 -5.524 0.000 23.895 -989.955 -749.961 -3509.963 -0.846 1.422 -1.505 -0.09 0.57 -0.81 0.13
1 7.83 783 1.168 -11.248 4.793 -7.233 1.831 19.013 -1004.945 -659.870 -3464.993 -1.180 2.022 -1.489 -0.09 0.57 -0.81 0.13
1 7.84 784 1.475 -11.617 4.726 5.432 4.272 15.778 -1004.945 -659.870 -3464.993 -1.513 2.388 -1.431 -0.09 0.57 -0.81 0.13
1 7.85 785 1.542 -11.258 4.707 23.407 9.705 15.503 -899.864 -734.971 -3569.924 -1.605 2.030 -1.408 -0.09 0.57 -0.81 0.13
1 7.86 786 1.235 -10.133 4.386 45.960 14.282 11.017 -929.994 -704.991 -3599.905 -1.349 0.934 -1.008 -0.08 0.57 -0.81 0.13
1 7.87 787 1.159 -9.242 3.936 55.725 12.268 6.104 -779.942 -809.922 -3599.905 -1.293 0.070 -0.488 -0.08 0.56 -0.81 0.13
1 7.88 788 1.049 -8.691 3.591 62.103 4.181 1.373 -779.942 -809.922 -3599.905 -1.186 -0.448 -0.058 -0.08 0.56 -0.81 0.13
1 7.89 789 1.360 -8.198 3.467 64.362 -3.754 -5.524 -974.965 -809.922 -3644.875 -1.488 -0.906 0.158 -0.08 0.56 -0.82 0.13
1 7.90 790 1.777 -7.887 3.290 57.800 -6.622 -11.658 -914.854 -839.903 -3764.947 -1.880 -1.181 0.426 -0.08 0.55 -0.82 0.13
1 7.91 791 1.896 -7.255 3.227 45.075 -3.601 -14.954 -914.854 -839.903 -3764.947 -1.971 -1.781 0.567 -0.08 0.55 -0.82 0.13
1 7.92 792 2.078 -6.867 3.318 32.929 1.343 -15.595 -824.913 -779.942 -3719.977 -2.130 -2.140 0.544 -0.08 0.54 -0.83 0.13
1 7.93 793 2.073 -6.560 3.352 7.172 13.916 -16.205 -929.994 -884.874 -3749.957 -2.083 -2.410 0.593 -0.08 0.54 -0.83 0.12
1 7.94 794 1.973 -6.565 3.347 -14.893 23.224 -16.083 -914.854 -869.883 -3809.918 -1.969 -2.403 0.603 -0.08 0.54 -0.83 0.12
1 7.95 795 1.427 -7.087 3.122 -36.438 27.405 -17.487 -914.854 -869.883 -3809.918 -1.415 -1.893 0.802 -0.08 0.54 -0.83 0.12
1 7.96 796 1.111 -7.580 3.093 -54.016 25.147 -20.722 -989.955 -1019.936 -3704.986 -1.089 -1.424 0.776 -0.08 0.54 -0.83 0.12
1 7.97 797 0.963 -8.323 3.342 -66.406 20.020 -22.583 -854.893 -1049.916 -3854.889 -0.925 -0.714 0.449 -0.08 0.55 -0.82 0.11
1 7.98 798 0.757 -9.429 3.788 -72.571 14.160 -25.910 -854.893 -1049.916 -3854.889 -0.693 0.353 -0.091 -0.08 0.55 -0.82 0.11
1 7.99 799 0.876 -10.425 3.888 -55.206 11.261 -32.776 -974.965 -854.893 -3824.908 -0.778 1.309 -0.291 -0.08 0.56 -0.82 0.11
1 8.00 800 1.015 -10.655 4.496 -6.561 16.510 -28.961 -929.994 -884.874 -3674.856 -0.832 1.493 -1.022 -0.08 0.56 -0.82 0.1
1 8.01 801 0.929 -10.650 4.568 2.869 20.386 -27.802 -929.994 -704.991 -3674.856 -0.715 1.489 -1.095 -0.08 0.56 -0.82 0.1
1 8.02 802 0.900 -10.157 4.271 12.939 30.975 -20.722 -929.994 -704.991 -3674.856 -0.667 1.002 -0.781 -0.08 0.56 -0.82 0.1
1 8.03 803 0.852 -9.826 3.989 11.200 33.997 -16.541 -914.854 -914.854 -3704.986 -0.608 0.680 -0.478 -0.08 0.56 -0.82 0.09
1 8.04 804 0.757 -9.520 3.366 9.369 35.065 -11.536 -1109.877 -854.893 -3674.856 -0.504 0.381 0.164 -0.08 0.56 -0.82 0.09
1 8.05 805 0.771 -9.338 3.127 10.223 31.525 -5.554 -1109.877 -854.893 -3674.856 -0.517 0.205 0.418 -0.08 0.56 -0.82 0.09
1 8.06 806 0.666 -9.184 2.820 13.184 30.182 -0.092 -779.942 -929.994 -3599.905 -0.415 0.057 0.739 -0.07 0.56 -0.82 0.09
1 8.07 807 0.512 -8.801 2.921 17.975 29.144 3.082 -869.883 -749.961 -3659.866 -0.273 -0.320 0.654 -0.07 0.56 -0.82 0.08
1 8.08 808 0.570 -8.624 3.089 20.996 32.288 7.538 -854.893 -659.870 -3794.928 -0.367 -0.479 0.535 -0.07 0.56 -0.82 0.08
1 8.09 809 0.709 -8.222 3.156 16.724 36.011 4.456 -854.893 -659.870 -3794.928 -0.530 -0.871 0.496 -0.07 0.56 -0.82 0.08
1 8.10 810 0.613 -8.538 3.395 14.008 43.976 3.265 -899.864 -809.922 -3794.928 -0.456 -0.546 0.279 -0.06 0.56 -0.83 0.08
1 8.11 811 0.565 -8.706 3.596 16.296 51.605 2.380 -854.893 -929.994 -3719.977 -0.433 -0.370 0.100 -0.06 0.55 -0.83 0.08
1 8.12 812 0.134 -8.983 3.548 23.377 56.122 -0.763 -854.893 -929.994 -3719.977 -0.030 -0.081 0.175 -0.06 0.55 -0.83 0.08
1 8.13 813 -0.024 -9.036 3.630 26.795 52.735 -2.808 -734.971 -914.854 -3734.967 0.100 -0.016 0.125 -0.05 0.55 -0.83 0.07
1 8.14 814 -0.158 -9.175 3.658 26.184 44.434 -5.646 -599.909 -809.922 -3824.908 0.207 0.139 0.134 -0.05 0.55 -0.83 0.07
1 8.15 815 -0.062 -9.352 3.931 20.416 28.809 -13.001 -704.991 -884.874 -3794.928 0.082 0.345 -0.069 -0.05 0.55 -0.83 0.07
1 8.16 816 0.129 -9.491 3.960 15.808 19.226 -17.365 -704.991 -884.874 -3794.928 -0.106 0.496 -0.071 -0.04 0.55 -0.83 0.06
1 8.17 817 0.263 -9.548 3.903 14.740 13.702 -20.355 -509.968 -989.955 -3839.898 -0.225 0.563 0.009 -0.04 0.55 -0.83 0.06
1 8.18 818 0.431 -9.601 3.807 16.235 11.414 -23.804 -629.890 -929.994 -3899.859 -0.369 0.625 0.125 -0.04 0.55 -0.83 0.06
1 8.19 819 0.651 -9.587 3.797 17.792 11.719 -25.330 -629.890 -929.994 -3899.859 -0.559 0.621 0.157 -0.04 0.54 -0.84 0.06
1 8.20 820 0.723 -9.496 3.620 17.792 14.099 -27.008 -599.909 -1049.916 -3854.889 -0.598 0.540 0.358 -0.04 0.54 -0.84 0.06
1 8.21 821 0.718 -9.443 3.582 16.052 16.815 -27.344 -584.919 -1019.936 -3764.947 -0.559 0.498 0.419 -0.04 0.54 -0.84 0.05
1 8.22 822 0.838 -9.381 3.606 12.329 20.844 -27.405 -584.919 -1019.936 -3764.947 -0.646 0.446 0.416 -0.04 0.54 -0.84 0.05
1 8.23 823 0.642 -9.524 3.400 7.141 30.060 -18.951 -659.870 -944.984 -3884.869 -0.394 0.603 0.647 -0.04 0.54 -0.84 0.05
1 8.24 824 0.790 -9.280 3.304 6.439 33.203 -16.357 -734.971 -1019.936 -3809.918 -0.534 0.362 0.751 -0.04 0.54 -0.84 0.04
1 8.25 825 0.723 -9.481 3.328 4.425 37.567 -14.343 -524.958 -1049.916 -3974.960 -0.462 0.566 0.732 -0.04 0.54 -0.84 0.04
1 8.26 826 0.785 -9.429 3.160 3.418 42.999 -12.451 -524.958 -1049.916 -3974.960 -0.525 0.514 0.902 -0.04 0.54 -0.84 0.04
1 8.27 827 0.838 -9.582 3.089 8.392 46.448 -10.834 -659.870 -869.883 -3944.980 -0.584 0.668 0.976 -0.04 0.54 -0.84 0.04
1 8.28 828 0.848 -9.773 2.940 15.533 45.136 -11.139 -539.948 -989.955 -3944.980 -0.603 0.862 1.130 -0.04 0.54 -0.84 0.03
1 8.29 829 0.838 -9.606 2.854 24.506 41.962 -15.198 -539.948 -989.955 -3944.980 -0.602 0.700 1.229 -0.03 0.54 -0.84 0.03
1 8.30 830 1.015 -9.668 3.898 36.041 35.095 -17.273 -569.929 -929.994 -3854.889 -0.777 0.789 0.243 -0.03 0.54 -0.84 0.03
1 8.31 831 1.039 -9.122 4.702 39.887 30.884 -20.844 -494.978 -1049.916 -4004.941 -0.793 0.266 -0.513 -0.03 0.53 -0.84 0.02
1 8.32 832 0.967 -8.993 5.234 34.271 26.032 -27.649 -374.906 -1079.896 -3899.859 -0.703 0.164 -0.988 -0.03 0.53 -0.85 0.02
1 8.33 833 0.579 -9.299 5.507 16.480 18.616 -38.361 -374.906 -1079.896 -3899.859 -0.284 0.495 -1.214 -0.03 0.53 -0.85 0.02
1 8.34 834 0.048 -10.161 5.330 -4.761 10.773 -50.018 -569.929 -959.975 -4079.892 0.296 1.368 -1.016 -0.03 0.53 -0.85 0.01
1 8.35 835 -0.766 -11.306 5.047 -27.283 -10.559 -52.033 -434.867 -944.984 -4094.882 1.175 2.511 -0.743 -0.03 0.53 -0.85 0.01
1 8.36 836 -0.776 -11.880 5.205 -38.880 -27.405 -53.192 -434.867 -944.984 -4094.882 1.259 3.074 -0.932 -0.03 0.53 -0.85 0.01
1 8.37 837 -0.608 -12.129 5.325 -31.738 -39.398 -48.157 -539.948 -1019.936 -3884.869 1.275 3.286 -1.156 -0.04 0.53 -0.84 0
1 8.38 838 -0.570 -11.938 5.320 -12.268 -37.323 -35.919 -569.929 -1229.949 -4079.892 1.324 3.082 -1.191 -0.05 0.54 -0.84 0
1 8.39 839 -0.369 -10.281 4.827 4.456 -28.870 -26.825 -674.860 -1004.945 -3974.960 1.192 1.426 -0.711 -0.05 0.54 -0.84 0
1 8.40 840 -0.393 -9.089 4.592 14.984 -20.020 -17.395 -674.860 -1004.945 -3974.960 1.267 0.242 -0.468 -0.05 0.54 -0.84 0
1 8.41 841 -0.244 -8.165 4.377 17.212 -15.900 -7.141 -674.860 -1049.916 -3929.990 1.146 -0.669 -0.231 -0.06 0.53 -0.84 0
1 8.42 842 0.086 -7.489 4.219 6.348 -19.562 6.744 -749.961 -1154.998 -3929.990 0.824 -1.332 -0.048 -0.06 0.53 -0.84 0
1 8.43 843 0.273 -7.504 4.492 1.099 -23.163 13.214 -749.961 -1154.998 -3929.990 0.639 -1.312 -0.309 -0.06 0.53 -0.84 0.01
1 8.44 844 0.603 -7.614 4.990 -5.585 -21.271 20.538 -674.860 -1079.896 -3974.960 0.299 -1.203 -0.807 -0.06 0.53 -0.84 0.01
1 8.45 845 0.623 -7.719 4.932 -7.416 -18.951 22.644 -674.860 -1049.916 -4049.912 0.263 -1.100 -0.752 -0.06 0.53 -0.84 0.01
1 8.46 846 0.891 -7.585 5.186 -9.003 -7.904 29.755 -824.913 -1124.867 -3854.889 -0.036 -1.239 -1.009 -0.06 0.53 -0.84 0.02
1 8.47 847 1.025 -7.781 5.172 -5.585 -0.214 30.731 -824.913 -1124.867 -3854.889 -0.206 -1.046 -0.995 -0.06 0.53 -0.84 0.02
1 8.48 848 1.111 -7.724 5.253 -1.465 5.035 32.074 -779.942 -929.994 -4049.912 -0.333 -1.105 -1.072 -0.06 0.53 -0.84 0.02
1 8.49 849 1.274 -7.652 5.186 -0.824 7.050 31.555 -764.952 -1019.936 -3989.951 -0.540 -1.176 -0.995 -0.06 0.53 -0.84 0.02
1 8.50 850 1.063 -7.418 4.813 -7.324 3.784 29.175 -764.952 -1019.936 -3989.951 -0.372 -1.409 -0.610 -0.06 0.53 -0.84 0.02
1 8.51 851 0.915 -7.279 4.813 -19.104 -1.526 25.086 -869.883 -1019.936 -3884.869 -0.263 -1.549 -0.606 -0.06 0.53 -0.84 0.03
1 8.52 852 0.843 -7.125 4.578 -31.525 -11.719 16.937 -764.952 -989.955 -3884.869 -0.246 -1.728 -0.418 -0.05 0.53 -0.84 0.03
1 8.53 853 0.982 -7.350 4.559 -32.654 -16.083 8.575 -704.991 -959.975 -3974.960 -0.396 -1.524 -0.442 -0.06 0.54 -0.84 0.03
1 8.54 854 0.723 -7.274 4.573 -29.663 -18.066 3.113 -704.991 -959.975 -3974.960 -0.135 -1.621 -0.501 -0.06 0.54 -0.84 0.03
1 8.55 855 0.646 -7.173 4.453 -22.156 -18.402 -1.373 -794.932 -944.984 -3884.869 -0.049 -1.738 -0.419 -0.06 0.54 -0.84 0.03
1 8.56 856 0.479 -7.283 4.520 -12.177 -18.311 -10.712 -674.860 -929.994 -3749.957 0.134 -1.639 -0.514 -0.06 0.54 -0.84 0.03
1 8.57 857 0.469 -7.197 4.640 -10.529 -18.097 -13.397 -674.860 -929.994 -3749.957 0.169 -1.732 -0.652 -0.06 0.54 -0.84 0.03
1 8.58 858 0.201 -7.829 4.822 -12.939 -16.876 -17.029 -704.991 -1004.945 -4049.912 0.467 -1.104 -0.848 -0.06 0.54 -0.84 0.03
1 8.59 859 0.201 -8.600 5.167 -17.426 -14.221 -19.013 -764.952 -944.984 -3764.947 0.533 -0.341 -1.223 -0.07 0.54 -0.84 0.03
1 8.60 860 0.206 -9.070 5.220 -21.973 -6.165 -18.372 -824.913 -959.975 -3794.928 0.558 0.123 -1.292 -0.07 0.54 -0.84 0.03
1 8.61 861 0.206 -9.347 5.248 -25.757 5.646 -18.494 -824.913 -959.975 -3794.928 0.582 0.394 -1.343 -0.07 0.54 -0.84 0.03
1 8.62 862 -0.168 -9.850 4.971 -31.708 15.564 -13.825 -779.942 -779.942 -4004.941 0.971 0.886 -1.092 -0.07 0.55 -0.83 0.03
1 8.63 863 -0.460 -9.864 4.564 -35.584 14.832 -5.463 -749.961 -734.971 -3749.957 1.271 0.883 -0.726 -0.07 0.55 -0.83 0.03
1 8.64 864 -0.986 -10.209 4.032 -35.309 0.458 5.188 -749.961 -734.971 -3749.957 1.796 1.209 -0.241 -0.07 0.55 -0.83 0.03
1 8.65 865 -1.001 -10.032 3.850 -31.647 -16.815 12.939 -734.971 -989.955 -3764.947 1.806 1.011 -0.106 -0.07 0.55 -0.83 0.03
1 8.66 866 -0.833 -9.999 3.745 -23.193 -34.943 19.470 -734.971 -989.955 -3764.947 1.623 0.957 -0.047 -0.07 0.55 -0.83 0.03
1 8.67 867 -0.488 -9.400 4.089 -7.080 -48.981 22.980 -869.883 -749.961 -3704.986 1.254 0.331 -0.455 -0.07 0.56 -0.83 0.04
1 8.68 868 0.048 -9.328 4.310 -0.336 -46.845 23.163 -869.883 -749.961 -3704.986 0.703 0.254 -0.685 -0.07 0.56 -0.83 0.04
1 8.69 869 0.201 -8.912 4.243 0.031 -37.323 24.658 -914.854 -599.909 -3704.986 0.537 -0.163 -0.617 -0.08 0.56 -0.83 0.04
1 8.70 870 0.364 -8.572 3.975 -0.916 -28.656 28.809 -839.903 -674.860 -3704.986 0.354 -0.504 -0.347 -0.08 0.56 -0.83 0.05
1 8.71 871 0.393 -8.490 3.615 0.122 -20.783 32.410 -839.903 -674.860 -3704.986 0.297 -0.587 0.013 -0.08 0.56 -0.83 0.05
1 8.72 872 0.886 -8.476 3.563 0.153 -16.144 31.983 -914.854 -749.961 -3884.869 -0.230 -0.604 0.067 -0.08 0.56 -0.83 0.05
1 8.73 873 1.101 -8.835 3.596 -0.427 -7.416 32.440 -914.854 -749.961 -3884.869 -0.479 -0.246 0.035 -0.08 0.56 -0.83 0.06
1 8.74 874 1.140 -8.983 3.553 -10.956 4.364 34.210 -839.903 -674.860 -3629.885 -0.595 -0.104 0.074 -0.08 0.56 -0.83 0.06
1 8.75 875 1.087 -9.429 3.544 -17.212 9.308 32.898 -839.903 -674.860 -3629.885 -0.588 0.332 0.067 -0.07 0.56 -0.82 0.06
1 8.76 876 0.943 -9.462 3.505 -16.480 11.444 29.541 -779.942 -704.991 -3599.905 -0.489 0.354 0.083 -0.07 0.56 -0.82 0.07
1 8.77 877 0.632 -9.563 3.261 -9.735 13.855 27.863 -914.854 -674.860 -3584.915 -0.220 0.445 0.307 -0.07 0.56 -0.82 0.07
1 8.78 878 0.302 -9.376 3.275 -3.693 12.146 22.461 -914.854 -674.860 -3584.915 0.070 0.252 0.281 -0.07 0.56 -0.82 0.07
1 8.79 879 -0.479 -9.390 3.170 5.157 3.662 16.571 -764.952 -749.961 -3554.934 0.817 0.263 0.383 -0.07 0.56 -0.82 0.07
1 8.80 880 -0.781 -8.988 3.342 14.984 -6.104 11.292 -764.952 -749.961 -3554.934 1.091 -0.138 0.214 -0.07 0.56 -0.82 0.07
1 8.81 881 -1.015 -9.252 3.481 24.109 -19.470 2.228 -704.991 -704.991 -3794.928 1.297 0.142 0.120 -0.07 0.56 -0.82 0.07
1 8.82 882 -1.140 -9.285 3.496 26.520 -27.588 0.305 -704.991 -704.991 -3794.928 1.423 0.189 0.140 -0.07 0.56 -0.82 0.07
1 8.83 883 -1.346 -9.003 3.405 29.266 -37.018 -5.798 -929.994 -659.870 -3644.875 1.637 -0.079 0.268 -0.07 0.55 -0.83 0.07
1 8.84 884 -1.226 -9.017 3.500 26.886 -46.539 -9.033 -869.883 -719.981 -3704.986 1.538 -0.048 0.210 -0.07 0.55 -0.83 0.08
1 8.85 885 -1.322 -9.007 3.309 23.438 -53.559 -8.301 -869.883 -719.981 -3704.986 1.663 -0.043 0.436 -0.07 0.55 -0.83 0.08
1 8.86 886 -1.101 -9.108 3.280 18.829 -61.188 -5.737 -869.883 -839.903 -3734.967 1.474 0.071 0.492 -0.08 0.55 -0.83 0.08
1 8.87 887 -1.178 -8.883 3.213 17.639 -61.829 -3.448 -869.883 -839.903 -3734.967 1.583 -0.144 0.581 -0.08 0.55 -0.83 0.08
1 8.88 888 -0.704 -8.696 2.777 15.350 -57.373 4.059 -899.864 -779.942 -3674.856 1.165 -0.313 1.053 -0.09 0.55 -0.83 0.09
1 8.89 889 -0.407 -8.476 2.672 14.282 -53.925 5.005 -899.864 -779.942 -3674.856 0.886 -0.526 1.171 -0.09 0.54 -0.83 0.09
1 8.90 890 0.024 -8.346 2.342 4.547 -41.168 2.716 -989.955 -839.903 -3734.967 0.477 -0.651 1.510 -0.09 0.54 -0.83 0.09
1 8.91 891 -0.067 -8.754 2.294 4.242 -34.638 2.686 -1019.936 -719.981 -3704.986 0.589 -0.241 1.562 -0.09 0.54 -0.83 0.09
1 8.92 892 -0.062 -8.983 1.915 10.284 -33.386 6.439 -1019.936 -719.981 -3704.986 0.597 -0.010 1.942 -0.1 0.54 -0.83 0.1
1 8.93 893 0.062 -9.031 2.083 19.379 -40.436 5.768 -1004.945 -734.971 -3749.957 0.480 0.041 1.779 -0.1 0.54 -0.83 0.1
1 8.94 894 0.187 -9.347 2.662 23.468 -46.875 7.446 -1004.945 -734.971 -3749.957 0.368 0.362 1.211 -0.1 0.54 -0.83 0.1
1 8.95 895 0.555 -9.199 3.079 20.172 -52.735 1.099 -1094.887 -944.984 -3734.967 0.013 0.223 0.813 -0.1 0.54 -0.83 0.1
1 8.96 896 0.527 -9.836 3.673 15.411 -56.061 0.244 -989.955 -869.883 -3809.918 0.102 0.878 0.252 -0.11 0.54 -0.83 0.11
1 8.97 897 0.431 -10.046 4.171 16.052 -60.120 3.906 -1019.936 -869.883 -3764.947 0.230 1.097 -0.233 -0.11 0.54 -0.83 0.11
1 8.98 898 0.560 -10.066 4.343 18.738 -65.857 7.690 -1259.929 -1079.896 -3794.928 0.131 1.126 -0.389 -0.11 0.53 -0.83 0.11
1 8.99 899 0.656 -9.908 4.319 24.994 -71.167 22.278 -1259.929 -1079.896 -3794.928 0.062 0.979 -0.343 -0.12 0.53 -0.83 0.12
1 9.00 900 1.298 -9.184 4.549 25.238 -75.348 23.285 -1274.919 -794.932 -3734.967 -0.565 0.270 -0.544 -0.12 0.53 -0.83 0.12
1 9.01 901 1.422 -9.237 4.463 23.254 -67.963 23.743 -1274.919 -794.932 -3734.967 -0.673 0.338 -0.428 -0.13 0.53 -0.83 0.12
1 9.02 902 1.714 -9.108 4.305 21.668 -60.639 28.748 -1169.988 -794.932 -3809.918 -0.948 0.223 -0.242 -0.13 0.53 -0.83 0.13
1 9.03 903 1.920 -9.007 3.802 20.020 -51.941 29.968 -1409.981 -779.942 -3749.957 -1.143 0.146 0.310 -0.13 0.52 -0.83 0.14
1 9.04 904 1.963 -9.079 3.577 17.609 -45.746 29.236 -1484.933 -779.942 -3749.957 -1.185 0.227 0.555 -0.14 0.52 -0.83 0.14
1 9.05 905 2.097 -9.390 3.314 16.205 -41.351 26.795 -1334.880 -884.874 -3719.977 -1.320 0.546 0.835 -0.14 0.52 -0.83 0.14
1 9.06 906 1.973 -9.400 3.304 17.151 -38.483 24.414 -1334.880 -884.874 -3719.977 -1.195 0.562 0.857 -0.14 0.52 -0.83 0.15
1 9.07 907 1.786 -9.678 3.491 20.203 -34.332 20.691 -1499.923 -989.955 -3734.967 -1.006 0.846 0.685 -0.14 0.52 -0.83 0.15
1 9.08 908 1.470 -10.061 3.275 29.724 -27.374 14.099 -1499.923 -989.955 -3734.967 -0.686 1.239 0.920 -0.14 0.52 -0.83 0.15
1 9.09 909 1.082 -9.979 3.563 36.347 -21.362 5.920 -1514.913 -959.975 -3749.957 -0.293 1.171 0.660 -0.14 0.51 -0.83 0.15
1 9.10 910 0.848 -9.673 4.583 37.109 -15.869 5.127 -1499.923 -839.903 -3764.947 -0.047 0.883 -0.324 -0.14 0.51 -0.83 0.15
1 9.11 911 0.407 -9.625 4.702 24.323 -12.482 11.078 -1544.894 -839.903 -3704.986 0.396 0.880 -0.353 -0.14 0.51 -0.84 0.16
1 9.12 912 0.091 -10.482 4.674 5.157 -14.771 13.092 -1514.913 -1004.945 -3794.928 0.704 1.749 -0.298 -0.14 0.51 -0.84 0.16
1 9.13 913 0.464 -11.105 4.482 -8.850 -21.698 20.691 -1514.913 -1004.945 -3794.928 0.321 2.371 -0.106 -0.14 0.51 -0.84 0.16
1 9.14 914 1.049 -11.584 4.496 -12.604 -22.369 18.189 -1664.965 -929.994 -3899.859 -0.274 2.842 -0.135 -0.14 0.51 -0.83 0.16
1 9.15 915 1.164 -11.493 4.870 -20.325 -14.343 22.369 -1664.965 -929.994 -3899.859 -0.399 2.740 -0.528 -0.15 0.51 -0.83 0.16
1 9.16 916 1.293 -11.047 5.181 -18.738 -9.033 26.398 -1439.962 -1049.916 -3719.977 -0.546 2.281 -0.864 -0.15 0.51 -0.83 0.16
1 9.17 917 1.346 -10.382 5.248 -19.135 -3.876 29.419 -1589.864 -959.975 -3719.977 -0.625 1.601 -0.957 -0.15 0.51 -0.83 0.16
1 9.18 918 1.283 -10.070 4.429 -28.168 -4.242 31.342 -1649.975 -914.854 -3734.967 -0.634 1.257 -0.193 -0.14 0.51 -0.83 0.17
1 9.19 919 1.499 -9.472 4.233 -24.231 -7.874 33.356 -1514.913 -1004.945 -3719.977 -0.889 0.638 -0.033 -0.14 0.52 -0.83 0.17
1 9.20 920 1.580 -8.265 4.463 -22.522 -6.226 26.428 -1514.913 -1004.945 -3719.977 -1.005 -0.586 -0.295 -0.14 0.52 -0.83 0.17
1 9.21 921 1.293 -7.820 4.856 -27.588 2.380 31.769 -1544.894 -869.883 -3629.885 -0.743 -1.046 -0.716 -0.14 0.52 -0.83 0.17
1 9.22 922 0.963 -6.881 5.119 -36.255 11.597 31.281 -1544.894 -869.883 -3629.885 -0.452 -2.002 -1.013 -0.14 0.52 -0.82 0.17
1 9.23 923 0.694 -6.393 5.531 -47.272 26.642 24.231 -1394.991 -794.932 -3734.967 -0.229 -2.514 -1.470 -0.14 0.52 -0.82 0.17
1 9.24 924 0.402 -6.149 5.756 -54.321 32.593 26.276 -1439.962 -809.922 -3644.875 0.015 -2.787 -1.754 -0.14 0.53 -0.82 0.17
1 9.25 925 0.321 -6.340 5.363 -59.296 24.841 31.250 -1409.981 -1049.916 -3644.875 -0.013 -2.664 -1.506 -0.13 0.53 -0.82 0.17
1 9.26 926 0.326 -6.378 5.354 -53.711 11.292 32.715 -1544.894 -794.932 -3584.915 -0.073 -2.660 -1.575 -0.13 0.54 -0.81 0.17
1 9.27 927 0.642 -7.030 5.124 -42.694 -2.502 35.217 -1544.894 -794.932 -3584.915 -0.440 -2.039 -1.414 -0.13 0.54 -0.81 0.17
1 9.28 928 0.996 -7.604 5.153 -31.525 -12.085 35.370 -1364.861 -779.942 -3464.993 -0.840 -1.487 -1.497 -0.13 0.55 -0.81 0.17
1 9.29 929 1.662 -7.882 5.287 -22.522 -15.015 29.938 -1364.861 -779.942 -3464.993 -1.538 -1.220 -1.656 -0.13 0.55 -0.81 0.18
1 9.30 930 2.275 -8.821 5.536 -16.663 -6.287 21.454 -1304.900 -659.870 -3539.944 -2.172 -0.287 -1.918 -0.13 0.55 -0.81 0.18
1 9.31 931 2.447 -9.161 5.430 -20.813 2.808 13.153 -1199.968 -599.909 -3509.963 -2.357 0.050 -1.821 -0.13 0.55 -0.81 0.18
1 9.32 932 2.361 -10.085 5.143 -21.545 17.029 -3.021 -1259.929 -584.919 -3539.944 -2.295 0.954 -1.584 -0.13 0.55 -0.81 0.18
1 9.33 933 2.284 -10.157 5.062 -16.724 21.179 -8.942 -1079.896 -704.991 -3494.973 -2.219 1.016 -1.528 -0.12 0.55 -0.81 0.18
1 9.34 934 1.317 -10.837 4.923 11.658 34.271 -14.069 -1079.896 -704.991 -3494.973 -1.244 1.694 -1.394 -0.12 0.55 -0.81 0.17
1 9.35 935 0.670 -10.013 4.544 22.247 38.178 -21.057 -1259.929 -539.948 -3359.911 -0.595 0.880 -0.992 -0.12 0.55 -0.81 0.17
1 9.36 936 0.067 -9.615 4.573 28.504 33.508 -27.496 -1259.929 -539.948 -3359.911 0.022 0.496 -0.985 -0.12 0.55 -0.81 0.17
1 9.37 937 -0.187 -9.333 4.156 32.196 22.278 -28.687 -1349.871 -569.929 -3374.901 0.297 0.232 -0.523 -0.12 0.55 -0.81 0.16
1 9.38 938 -0.431 -9.089 3.759 31.494 10.223 -27.100 -1094.887 -524.958 -3449.853 0.565 0.008 -0.076 -0.12 0.55 -0.81 0.16
1 9.39 939 -0.048 -8.801 3.888 32.379 -1.587 -24.750 -1094.887 -524.958 -3449.853 0.212 -0.259 -0.157 -0.12 0.54 -0.82 0.16
1 9.40 940 0.450 -8.514 3.539 35.156 -13.092 -17.700 -1259.929 -704.991 -3389.892 -0.221 -0.505 0.288 -0.12 0.54 -0.82 0.16
1 9.41 941 0.737 -8.083 3.491 33.844 -16.419 -14.557 -1259.929 -704.991 -3389.892 -0.475 -0.914 0.385 -0.12 0.54 -0.82 0.16
1 9.42 942 1.058 -7.820 3.390 28.626 -15.381 -12.024 -1169.988 -674.860 -3509.963 -0.763 -1.156 0.531 -0.12 0.53 -0.82 0.16
1 9.43 943 1.398 -7.528 3.500 17.212 -8.820 -9.583 -1169.988 -674.860 -3509.963 -1.077 -1.432 0.458 -0.12 0.53 -0.82 0.15
1 9.44 944 1.523 -7.504 3.342 -4.913 1.984 -5.890 -1244.939 -644.880 -3554.934 -1.185 -1.446 0.637 -0.12 0.53 -0.82 0.15
1 9.45 945 1.451 -7.777 3.146 -14.496 5.829 -5.493 -1304.900 -809.922 -3464.993 -1.104 -1.172 0.833 -0.12 0.53 -0.82 0.15
1 9.46 946 1.437 -8.136 3.098 -19.775 6.744 -6.714 -1304.900 -809.922 -3464.993 -1.084 -0.820 0.866 -0.12 0.53 -0.82 0.15
1 9.47 947 1.269 -8.730 3.175 -19.867 7.385 -7.965 -1169.988 -839.903 -3404.882 -0.900 -0.248 0.737 -0.12 0.53 -0.82 0.15
1 9.48 948 1.331 -9.070 3.347 -15.503 8.392 -10.345 -1169.988 -839.903 -3404.882 -0.947 0.080 0.537 -0.12 0.54 -0.82 0.15
1 9.49 949 1.341 -9.189 3.342 -11.749 10.407 -12.238 -1199.968 -599.909 -3374.901 -0.938 0.192 0.521 -0.12 0.54 -0.82 0.15
1 9.50 950 1.475 -9.395 3.357 -9.064 12.756 -14.160 -1199.968 -599.909 -3374.901 -1.053 0.391 0.490 -0.12 0.54 -0.82 0.14
1 9.51 951 1.676 -9.524 3.333 -2.594 16.815 -14.984 -1304.900 -809.922 -3599.905 -1.234 0.517 0.502 -0.12 0.54 -0.82 0.14
1 9.52 952 1.911 -9.256 3.089 1.312 27.649 -10.590 -1439.962 -704.991 -3389.892 -1.449 0.248 0.742 -0.12 0.54 -0.82 0.14
1 9.53 953 1.743 -9.084 3.012 3.021 33.966 -5.524 -1439.962 -704.991 -3389.892 -1.269 0.076 0.819 -0.12 0.54 -0.82 0.14
1 9.54 954 1.590 -9.017 2.849 4.852 38.391 -3.632 -1424.972 -794.932 -3509.963 -1.113 0.010 0.984 -0.12 0.54 -0.82 0.14
1 9.55 955 1.647 -9.208 2.849 7.568 38.971 -3.052 -1259.929 -704.991 -3464.993 -1.186 0.206 0.995 -0.12 0.54 -0.82 0.13
1 9.56 956 1.547 -9.285 2.897 11.261 39.276 -2.960 -1364.861 -884.874 -3464.993 -1.095 0.285 0.955 -0.11 0.54 -0.82 0.13
1 9.57 957 1.599 -9.266 2.897 14.710 40.039 -2.563 -1364.861 -884.874 -3464.993 -1.157 0.272 0.970 -0.11 0.54 -0.83 0.13
1 9.58 958 1.528 -8.868 2.926 15.808 41.901 -4.089 -1424.972 -719.981 -3584.915 -1.096 -0.118 0.959 -0.11 0.54 -0.83 0.13
1 9.59 959 1.326 -8.682 3.199 11.688 46.539 -8.270 -1109.877 -854.893 -3569.924 -0.904 -0.297 0.705 -0.11 0.54 -0.83 0.12
1 9.60 960 1.235 -8.572 3.180 3.723 50.263 -12.970 -1109.877 -854.893 -3569.924 -0.821 -0.400 0.741 -0.1 0.54 -0.83 0.12
1 9.61 961 1.044 -8.610 3.237 -4.456 53.681 -15.564 -1199.968 -839.903 -3509.963 -0.635 -0.358 0.693 -0.1 0.54 -0.83 0.12
1 9.62 962 0.785 -8.811 3.438 -14.740 55.023 -20.874 -1094.887 -989.955 -3764.947 -0.382 -0.164 0.478 -0.1 0.54 -0.83 0.11
1 9.63 963 0.431 -9.041 3.639 -17.731 54.444 -24.445 -1034.926 -809.922 -3539.944 -0.027 0.058 0.258 -0.09 0.54 -0.83 0.11
1 9.64 964 0.297 -9.247 3.893 -18.768 52.307 -28.687 -1034.926 -809.922 -3539.944 0.112 0.255 -0.018 -0.09 0.54 -0.83 0.1
1 9.65 965 -0.024 -9.802 3.975 -13.275 50.171 -31.860 -1154.998 -809.922 -3539.944 0.444 0.802 -0.120 -0.09 0.54 -0.83 0.1
1 9.66 966 -0.172 -10.128 3.893 -0.244 47.333 -33.051 -1034.926 -854.893 -3599.905 0.606 1.124 -0.049 -0.09 0.54 -0.83 0.09
1 9.67 967 -0.374 -10.506 3.663 26.886 42.908 -28.931 -1034.926 -854.893 -3599.905 0.824 1.507 0.190 -0.09 0.54 -0.83 0.09
1 9.68 968 -0.397 -10.147 3.888 42.206 38.605 -27.466 -1019.936 -914.854 -3554.934 0.864 1.164 0.001 -0.09 0.54 -0.83 0.09
1 9.69 969 -0.168 -8.888 4.473 42.053 27.924 -32.776 -1064.906 -794.932 -3554.934 0.667 -0.040 -0.461 -0.08 0.54 -0.84 0.08
1 9.70 970 -0.369 -8.600 4.702 24.933 20.966 -38.391 -1079.896 -884.874 -3494.973 0.894 -0.299 -0.632 -0.08 0.53 -0.84 0.08
1 9.71 971 -0.838 -9.228 4.544 -0.885 8.820 -38.025 -1079.896 -884.874 -3494.973 1.399 0.346 -0.441 -0.08 0.53 -0.84 0.08
1 9.72 972 -1.168 -9.678 4.123 -27.283 -10.651 -44.647 -1019.936 -869.883 -3629.885 1.771 0.796 -0.026 -0.08 0.53 -0.84 0.07
1 9.73 973 -1.116 -10.377 4.061 -43.488 -29.297 -50.263 -1019.936 -869.883 -3659.866 1.779 1.479 -0.008 -0.09 0.53 -0.84 0.07
1 9.74 974 -0.618 -10.947 4.396 -55.634 -42.481 -37.842 -1019.936 -869.883 -3659.866 1.369 2.026 -0.408 -0.09 0.54 -0.84 0.07
1 9.75 975 0.168 -11.129 4.717 -48.889 -41.901 -30.182 -974.965 -959.975 -3539.944 0.666 2.181 -0.808 -0.1 0.54 -0.83 0.07
1 9.76 976 1.657 -11.569 5.229 -14.099 -28.046 -18.677 -1154.998 -929.994 -3494.973 -0.697 2.580 -1.446 -0.1 0.54 -0.83 0.07
1 9.77 977 1.959 -11.540 5.363 1.892 -18.280 -13.825 -1169.988 -869.883 -3479.983 -0.962 2.551 -1.590 -0.11 0.54 -0.83 0.07
1 9.78 978 2.322 -11.081 5.550 44.769 12.146 6.775 -1169.988 -869.883 -3479.983 -1.316 2.108 -1.741 -0.11 0.54 -0.83 0.07
1 9.79 979 2.370 -9.764 5.311 55.084 22.888 16.663 -1319.890 -794.932 -3584.915 -1.387 0.819 -1.430 -0.1 0.54 -0.83 0.07
1 9.80 980 2.667 -8.777 5.009 39.612 20.233 14.832 -1244.939 -914.854 -3404.882 -1.719 -0.137 -1.051 -0.1 0.54 -0.83 0.07
1 9.81 981 2.528 -8.117 4.798 -4.974 9.552 17.548 -1244.939 -914.854 -3404.882 -1.604 -0.778 -0.789 -0.1 0.53 -0.84 0.07
1 9.82 982 2.576 -7.714 4.616 -33.264 4.669 14.435 -1334.880 -959.975 -3464.993 -1.670 -1.176 -0.595 -0.1 0.53 -0.84 0.07
1 9.83 983 2.073 -7.652 4.583 -50.690 5.371 20.081 -1244.939 -1019.936 -3554.934 -1.178 -1.252 -0.588 -0.1 0.53 -0.84 0.07
