COL1	TIME	ACC_X	ACC_Y	ACC_Z	GYR_X	GYR_Y	GYR_Z	MAG_X	MAG_Y	MAG_Z	LACC_X	LACC_Y	LACC_Z	QUAT_X	QUAT_Y	QUAT_Z	QUAT_W
1 0.00 0 0.177 -9.864 1.317 -4.089 1.434 2.808 -659.870 -299.955 -3074.947 0.381 0.160 -0.074 -0.1 0.65 -0.75 0.07
1 0.01 1 0.010 -9.888 1.307 -5.707 1.984 3.448 -659.870 -299.955 -3074.947 0.544 0.183 -0.068 -0.1 0.65 -0.75 0.07
1 0.02 2 0.172 -10.204 1.298 -5.096 0.000 5.096 -734.971 -449.857 -3014.986 0.365 0.496 -0.073 -0.1 0.65 -0.75 0.07
1 0.03 3 0.646 -10.075 1.432 -0.488 -0.122 5.524 -734.971 -449.857 -3014.986 -0.119 0.366 -0.211 -0.1 0.65 -0.75 0.07
1 0.04 4 0.848 -9.955 1.346 0.031 0.824 6.226 -854.893 -239.994 -3134.908 -0.328 0.246 -0.123 -0.1 0.65 -0.75 0.07
1 0.05 5 0.565 -9.778 1.231 -1.404 2.228 6.683 -854.893 -239.994 -3134.908 -0.052 0.069 -0.006 -0.1 0.65 -0.75 0.08
1 0.06 6 0.570 -9.864 1.288 -2.075 2.441 7.385 -659.870 -374.906 -3014.986 -0.065 0.154 -0.064 -0.1 0.65 -0.75 0.08
1 0.07 7 0.584 -9.611 1.279 0.641 1.221 8.850 -824.913 -209.863 -2984.855 -0.089 -0.100 -0.055 -0.1 0.65 -0.75 0.08
1 0.08 8 0.417 -9.682 1.475 0.153 2.472 9.125 -824.913 -209.863 -2984.855 0.066 -0.029 -0.249 -0.1 0.65 -0.75 0.08
1 0.09 9 0.311 -9.735 1.346 -2.411 3.937 9.186 -690.000 -299.955 -2939.885 0.146 0.023 -0.116 -0.1 0.65 -0.75 0.08
1 0.10 10 0.450 -9.730 1.322 -3.967 3.204 10.590 -690.000 -299.955 -2939.885 -0.008 0.018 -0.094 -0.1 0.65 -0.75 0.08
1 0.11 11 0.421 -9.860 1.427 -3.876 2.594 10.498 -599.909 -284.964 -2804.973 0.005 0.146 -0.203 -0.1 0.65 -0.75 0.08
1 0.12 12 0.345 -10.013 1.518 -1.099 1.373 10.284 -599.909 -284.964 -2804.973 0.067 0.298 -0.297 -0.1 0.65 -0.75 0.08
1 0.13 13 0.474 -9.941 1.221 -1.251 -0.641 6.439 -854.893 -314.945 -2879.924 -0.075 0.226 0.002 -0.1 0.65 -0.75 0.08
1 0.14 14 0.685 -10.013 1.331 -2.380 -1.343 1.923 -690.000 -254.984 -3014.986 -0.293 0.297 -0.109 -0.1 0.65 -0.75 0.08
1 0.15 15 0.785 -9.821 1.360 -0.549 -2.411 0.031 -690.000 -254.984 -3014.986 -0.394 0.106 -0.139 -0.1 0.65 -0.75 0.08
1 0.16 16 0.742 -9.706 1.293 -2.258 -2.563 -1.068 -690.000 -329.935 -2969.865 -0.343 -0.009 -0.072 -0.1 0.65 -0.75 0.08
1 0.17 17 0.752 -9.587 1.293 -2.167 -2.563 -2.716 -690.000 -329.935 -2969.865 -0.345 -0.129 -0.074 -0.1 0.65 -0.75 0.08
1 0.18 18 0.656 -9.630 1.393 -2.808 -1.953 -3.235 -704.991 -284.964 -2954.875 -0.240 -0.085 -0.175 -0.1 0.65 -0.75 0.08
1 0.19 19 0.508 -9.802 1.188 -1.617 -1.495 -0.793 -704.991 -284.964 -2954.875 -0.084 0.087 0.029 -0.1 0.65 -0.75 0.08
1 0.20 20 0.321 -9.831 1.298 -0.763 -1.709 0.977 -749.961 -209.863 -3059.957 0.106 0.116 -0.082 -0.1 0.65 -0.75 0.08
1 0.21 21 0.330 -9.802 1.302 -1.434 -1.434 2.045 -779.942 -164.893 -2849.943 0.095 0.087 -0.085 -0.1 0.65 -0.75 0.08
1 0.22 22 0.388 -9.745 1.374 -1.282 -0.732 0.732 -779.942 -164.893 -2849.943 0.036 0.030 -0.157 -0.1 0.65 -0.75 0.08
1 0.23 23 0.551 -9.783 1.274 -0.824 -0.214 1.282 -674.860 -389.896 -2879.924 -0.127 0.068 -0.056 -0.1 0.65 -0.75 0.08
1 0.24 24 0.555 -9.836 1.178 -1.678 -1.740 -1.770 -690.000 -374.906 -2969.865 -0.128 0.121 0.042 -0.1 0.65 -0.75 0.08
1 0.25 25 0.642 -9.520 1.317 -2.014 -2.747 -3.052 -614.899 -374.906 -3014.986 -0.209 -0.195 -0.098 -0.1 0.65 -0.75 0.08
1 0.26 26 0.733 -9.544 1.235 -3.235 -3.021 -6.409 -614.899 -374.906 -3014.986 -0.290 -0.170 -0.019 -0.1 0.65 -0.75 0.08
1 0.27 27 0.771 -9.572 1.322 -4.211 -3.235 -7.263 -674.860 -284.964 -3029.976 -0.315 -0.142 -0.109 -0.1 0.65 -0.75 0.08
1 0.28 28 0.809 -9.826 1.188 -4.669 -3.052 -10.254 -659.870 -254.984 -3014.986 -0.336 0.113 0.021 -0.1 0.65 -0.75 0.07
1 0.29 29 0.766 -9.864 1.374 -4.028 -2.350 -9.552 -659.870 -254.984 -3014.986 -0.272 0.151 -0.170 -0.1 0.65 -0.75 0.07
1 0.30 30 0.737 -9.984 1.149 3.387 -3.448 -2.136 -794.932 -254.984 -2969.865 -0.226 0.271 0.050 -0.1 0.65 -0.75 0.07
1 0.31 31 0.541 -9.601 1.288 7.233 -1.404 -5.676 -599.909 -284.964 -3029.976 -0.012 -0.109 -0.074 -0.1 0.65 -0.75 0.07
1 0.32 32 0.436 -9.778 1.226 -1.984 -0.397 -7.935 -690.000 -329.935 -2969.865 0.104 0.070 -0.002 -0.1 0.65 -0.75 0.07
1 0.33 33 0.388 -10.147 1.135 -3.204 -1.770 -7.202 -690.000 -329.935 -2969.865 0.164 0.439 0.086 -0.1 0.65 -0.75 0.07
1 0.34 34 0.551 -10.003 1.231 1.953 -2.716 -3.967 -749.961 -239.994 -3029.976 0.011 0.296 -0.013 -0.1 0.65 -0.75 0.07
1 0.35 35 0.402 -9.936 1.240 3.540 -1.221 -3.235 -690.000 -329.935 -2969.865 0.166 0.230 -0.017 -0.1 0.65 -0.75 0.07
1 0.36 36 0.512 -9.745 1.245 1.892 -2.502 -3.571 -690.000 -329.935 -2969.865 0.061 0.039 -0.016 -0.1 0.65 -0.75 0.07
1 0.37 37 0.508 -9.735 1.374 1.740 -2.350 -2.930 -824.913 -209.863 -2954.875 0.072 0.030 -0.140 -0.1 0.65 -0.75 0.07
1 0.38 38 0.728 -9.697 1.302 4.181 -3.326 -3.632 -674.860 -359.916 -2954.875 -0.142 -0.007 -0.066 -0.1 0.65 -0.75 0.07
1 0.39 39 0.412 -9.635 1.255 -3.387 -1.129 -3.296 -764.952 -299.955 -2939.885 0.189 -0.067 -0.009 -0.1 0.65 -0.75 0.07
1 0.40 40 0.536 -9.932 1.264 -2.777 -2.380 -2.502 -764.952 -299.955 -2939.885 0.070 0.229 -0.024 -0.1 0.65 -0.75 0.07
1 0.41 41 0.350 -9.864 1.365 -0.946 -1.587 -0.183 -794.932 -374.906 -3014.986 0.261 0.162 -0.127 -0.1 0.65 -0.75 0.07
1 0.42 42 0.369 -9.759 1.389 -1.007 -2.380 0.397 -749.961 -359.916 -2909.904 0.242 0.057 -0.150 -0.1 0.65 -0.75 0.07
1 0.43 43 0.522 -9.692 1.121 -1.770 -2.075 2.930 -749.961 -359.916 -2909.904 0.088 -0.010 0.118 -0.1 0.65 -0.75 0.07
1 0.44 44 0.723 -9.817 1.207 -0.946 -3.082 2.808 -704.991 -314.945 -2954.875 -0.117 0.114 0.031 -0.1 0.65 -0.75 0.07
1 0.45 45 0.627 -9.769 1.269 -0.671 -1.190 4.791 -749.961 -389.896 -2984.855 -0.022 0.066 -0.034 -0.1 0.65 -0.75 0.07
1 0.46 46 0.517 -9.812 1.010 0.061 -1.465 3.021 -764.952 -374.906 -3014.986 0.080 0.108 0.224 -0.1 0.65 -0.75 0.07
1 0.47 47 0.670 -9.898 1.135 -0.549 -1.617 3.204 -764.952 -374.906 -3014.986 -0.077 0.194 0.099 -0.1 0.65 -0.75 0.07
1 0.48 48 0.441 -9.888 1.250 0.366 -1.373 2.838 -674.860 -239.994 -2984.855 0.151 0.184 -0.017 -0.1 0.65 -0.75 0.07
1 0.49 49 0.541 -9.874 1.063 0.488 -3.326 1.953 -629.890 -209.863 -2984.855 0.048 0.170 0.171 -0.1 0.65 -0.75 0.07
1 0.50 50 0.747 -9.836 1.226 -0.732 -3.296 0.641 -629.890 -209.863 -2984.855 -0.159 0.132 0.009 -0.1 0.65 -0.75 0.07
1 0.51 51 0.670 -9.788 1.140 -0.824 -2.502 -0.244 -690.000 -329.935 -2969.865 -0.081 0.084 0.094 -0.1 0.65 -0.75 0.07
1 0.52 52 0.800 -9.778 1.226 -0.671 -3.052 -1.678 -749.961 -209.863 -2879.924 -0.208 0.074 0.008 -0.1 0.65 -0.75 0.07
1 0.53 53 0.699 -9.630 1.269 -0.702 -1.770 -1.495 -614.899 -224.854 -3014.986 -0.097 -0.074 -0.037 -0.1 0.65 -0.75 0.07
1 0.54 54 0.709 -9.706 1.264 1.343 -1.892 -1.587 -614.899 -224.854 -3014.986 -0.102 0.003 -0.031 -0.1 0.65 -0.75 0.07
1 0.55 55 0.747 -9.802 1.307 0.793 -1.770 -1.770 -824.913 -314.945 -2984.855 -0.135 0.100 -0.071 -0.1 0.65 -0.75 0.07
1 0.56 56 0.713 -9.841 1.470 -0.061 -0.824 -1.587 -779.942 -314.945 -2954.875 -0.096 0.139 -0.231 -0.1 0.65 -0.75 0.07
1 0.57 57 0.670 -9.927 1.322 0.214 -0.946 -1.434 -779.942 -314.945 -2954.875 -0.048 0.226 -0.080 -0.1 0.65 -0.75 0.07
1 0.58 58 0.536 -9.697 1.403 -0.366 -0.641 -1.221 -824.913 -314.945 -3029.976 0.090 -0.004 -0.159 -0.1 0.65 -0.75 0.07
1 0.59 59 0.781 -9.735 1.370 0.671 -0.763 -0.641 -704.991 -359.916 -2879.924 -0.151 0.035 -0.124 -0.1 0.65 -0.75 0.07
1 0.60 60 0.747 -9.807 1.379 -0.610 -0.397 -0.214 -749.961 -314.945 -3029.976 -0.112 0.108 -0.130 -0.1 0.65 -0.75 0.07
1 0.61 61 0.627 -9.711 1.302 -1.617 0.397 0.275 -749.961 -314.945 -3029.976 0.008 0.012 -0.052 -0.1 0.65 -0.75 0.07
1 0.62 62 0.718 -9.821 1.202 -1.740 -0.244 1.068 -764.952 -374.906 -2939.885 -0.083 0.122 0.047 -0.1 0.65 -0.75 0.07
1 0.63 63 0.632 -9.687 1.283 -1.648 -0.977 1.160 -690.000 -224.854 -2939.885 0.004 -0.012 -0.034 -0.1 0.65 -0.75 0.07
1 0.64 64 0.608 -9.668 1.154 -0.854 0.000 1.526 -690.000 -224.854 -2939.885 0.027 -0.031 0.095 -0.1 0.65 -0.75 0.07
1 0.65 65 0.536 -9.946 1.212 -0.946 -0.031 2.655 -749.961 -359.916 -2879.924 0.098 0.246 0.037 -0.1 0.65 -0.75 0.07
1 0.66 66 0.651 -9.778 1.259 -0.458 -0.702 0.946 -914.854 -179.883 -2894.914 -0.019 0.079 -0.012 -0.1 0.65 -0.75 0.07
1 0.67 67 0.632 -9.927 1.427 -0.732 0.122 1.678 -914.854 -179.883 -2894.914 0.000 0.227 -0.179 -0.1 0.65 -0.75 0.07
1 0.68 68 0.627 -9.888 1.346 -0.946 -0.244 0.580 -899.864 -359.916 -3029.976 0.005 0.189 -0.097 -0.11 0.65 -0.75 0.07
1 0.69 69 0.685 -9.807 1.336 -1.495 -0.458 -0.549 -734.971 -224.854 -2969.865 -0.052 0.107 -0.088 -0.11 0.65 -0.75 0.07
1 0.70 70 0.642 -9.778 1.288 -1.923 -0.671 -1.190 -659.870 -254.984 -2894.914 -0.006 0.079 -0.041 -0.11 0.65 -0.75 0.07
1 0.71 71 0.464 -9.797 1.226 -1.617 -0.793 -1.343 -659.870 -254.984 -2894.914 0.174 0.098 0.020 -0.11 0.65 -0.75 0.07
1 0.72 72 0.527 -9.927 1.317 -0.885 -1.160 -1.434 -869.883 -224.854 -2969.865 0.114 0.227 -0.072 -0.11 0.65 -0.75 0.07
1 0.73 73 0.546 -9.817 1.231 2.563 -1.312 -0.458 -764.952 -254.984 -3014.986 0.098 0.117 0.014 -0.11 0.65 -0.75 0.07
1 0.74 74 0.512 -9.706 1.235 2.167 -0.854 -0.122 -764.952 -254.984 -3014.986 0.133 0.008 0.013 -0.11 0.65 -0.75 0.07
1 0.75 75 0.599 -9.912 1.322 -0.885 -1.282 0.610 -704.991 -209.863 -2879.924 0.047 0.214 -0.069 -0.11 0.65 -0.75 0.07
1 0.76 76 0.795 -9.841 1.307 -1.099 -1.678 0.336 -764.952 -179.883 -2864.934 -0.150 0.142 -0.054 -0.11 0.65 -0.75 0.07
1 0.77 77 0.675 -9.860 1.322 0.977 -1.099 0.763 -734.971 -374.906 -2894.914 -0.030 0.162 -0.068 -0.11 0.65 -0.75 0.07
1 0.78 78 0.685 -9.831 1.226 2.228 -1.282 0.397 -734.971 -374.906 -2894.914 -0.039 0.133 0.031 -0.11 0.65 -0.75 0.07
1 0.79 79 0.675 -9.797 1.384 0.122 -1.373 0.061 -749.961 -314.945 -3029.976 -0.028 0.100 -0.123 -0.11 0.65 -0.75 0.07
1 0.80 80 0.752 -9.812 1.279 -0.275 -1.190 -0.427 -749.961 -164.893 -3059.957 -0.103 0.115 -0.017 -0.11 0.65 -0.75 0.07
1 0.81 81 0.421 -9.917 1.250 2.228 -1.282 0.244 -749.961 -164.893 -3059.957 0.230 0.221 0.012 -0.11 0.65 -0.75 0.07
1 0.82 82 0.666 -9.697 1.173 4.272 -1.526 -0.275 -794.932 -374.906 -2894.914 -0.013 0.001 0.091 -0.11 0.65 -0.75 0.07
1 0.83 83 0.632 -9.692 1.255 -2.930 -1.404 -0.549 -989.955 -299.955 -3014.986 0.024 -0.003 0.017 -0.11 0.65 -0.75 0.07
1 0.84 84 0.627 -9.697 1.331 -0.061 -1.648 -1.282 -794.932 -149.902 -3119.917 0.031 0.002 -0.062 -0.11 0.65 -0.75 0.07
1 0.85 85 0.737 -9.821 1.269 1.770 -1.495 -0.397 -794.932 -149.902 -3119.917 -0.077 0.127 0.003 -0.11 0.65 -0.75 0.07
1 0.86 86 0.804 -9.721 1.417 0.183 -1.312 0.427 -690.000 -224.854 -3014.986 -0.142 0.027 -0.142 -0.11 0.65 -0.75 0.07
1 0.87 87 0.594 -9.932 1.456 -1.129 -0.244 0.519 -869.883 -149.902 -2939.885 0.070 0.238 -0.179 -0.11 0.65 -0.75 0.07
1 0.88 88 0.747 -9.864 1.441 -0.885 -0.305 0.793 -869.883 -149.902 -2939.885 -0.082 0.171 -0.164 -0.11 0.65 -0.75 0.07
1 0.89 89 0.742 -9.726 1.528 -0.427 -0.183 1.282 -764.952 -329.935 -3044.966 -0.078 0.032 -0.249 -0.11 0.65 -0.75 0.07
1 0.90 90 0.651 -9.807 1.470 -0.946 -0.336 0.732 -659.870 -254.984 -2864.934 0.014 0.114 -0.189 -0.11 0.65 -0.75 0.07
1 0.91 91 0.541 -9.773 1.331 -1.160 -0.122 0.641 -854.893 -239.994 -2954.875 0.124 0.081 -0.049 -0.11 0.65 -0.75 0.07
1 0.92 92 0.642 -9.678 1.288 -0.977 -0.946 0.549 -854.893 -239.994 -2954.875 0.023 -0.015 -0.006 -0.11 0.65 -0.75 0.07
1 0.93 93 0.637 -9.692 1.159 -1.526 -1.007 0.488 -734.971 -179.883 -2969.865 0.027 -0.001 0.124 -0.11 0.65 -0.75 0.07
1 0.94 94 0.613 -9.726 1.283 -2.380 -1.312 0.763 -794.932 -374.906 -2894.914 0.051 0.033 -0.002 -0.11 0.65 -0.75 0.07
1 0.95 95 0.618 -9.860 1.264 -1.709 -1.648 1.709 -794.932 -374.906 -2894.914 0.046 0.166 0.016 -0.11 0.65 -0.75 0.07
1 0.96 96 0.565 -9.845 1.326 -0.946 -1.953 1.617 -764.952 -329.935 -2969.865 0.097 0.152 -0.048 -0.11 0.65 -0.75 0.07
1 0.97 97 0.594 -9.908 1.269 -1.221 -1.831 1.770 -794.932 -299.955 -2939.885 0.067 0.214 0.009 -0.11 0.65 -0.75 0.07
1 0.98 98 0.800 -9.869 1.346 -1.160 -1.678 1.099 -690.000 -329.935 -3074.947 -0.140 0.175 -0.068 -0.11 0.65 -0.75 0.07
1 0.99 99 0.915 -9.745 1.413 -0.488 -1.740 1.282 -690.000 -329.935 -3074.947 -0.254 0.051 -0.135 -0.11 0.65 -0.75 0.07
1 1.00 100 0.872 -9.831 1.441 -0.641 -1.862 0.275 -914.854 -374.906 -2939.885 -0.210 0.137 -0.163 -0.11 0.65 -0.75 0.07
1 1.01 101 0.699 -9.659 1.532 -0.885 -1.526 0.885 -929.994 -434.867 -2954.875 -0.036 -0.035 -0.253 -0.11 0.65 -0.75 0.07
1 1.02 102 0.675 -9.793 1.427 -1.007 -1.343 -0.366 -929.994 -434.867 -2954.875 -0.011 0.099 -0.147 -0.11 0.65 -0.75 0.07
1 1.03 103 0.599 -9.773 1.432 -0.671 -0.854 -0.824 -779.942 -119.922 -2984.855 0.067 0.080 -0.151 -0.11 0.65 -0.75 0.07
1 1.04 104 0.541 -9.850 1.370 -0.946 -1.373 -0.336 -944.984 -299.955 -2969.865 0.127 0.157 -0.087 -0.11 0.65 -0.75 0.07
1 1.05 105 0.532 -9.797 1.212 0.549 -1.709 1.251 -974.965 -359.916 -2984.855 0.136 0.105 0.072 -0.11 0.65 -0.75 0.07
1 1.06 106 0.584 -9.769 1.317 -0.763 -2.045 0.427 -974.965 -359.916 -2984.855 0.084 0.076 -0.031 -0.11 0.65 -0.75 0.07
1 1.07 107 0.642 -9.687 1.451 -1.251 -1.373 0.031 -824.913 -284.964 -2954.875 0.026 -0.005 -0.166 -0.11 0.65 -0.75 0.07
1 1.08 108 0.632 -9.778 1.350 -0.244 -1.953 0.397 -764.952 -419.876 -2939.885 0.036 0.086 -0.065 -0.11 0.65 -0.75 0.07
1 1.09 109 0.517 -9.783 1.317 -0.763 -1.007 0.946 -764.952 -419.876 -2939.885 0.151 0.091 -0.031 -0.11 0.65 -0.75 0.07
1 1.10 110 0.680 -9.893 1.437 -0.580 -1.495 1.007 -794.932 -179.883 -2939.885 -0.012 0.201 -0.150 -0.11 0.65 -0.75 0.07
1 1.11 111 0.522 -9.807 1.398 0.122 -1.801 1.465 -794.932 -179.883 -2939.885 0.145 0.115 -0.111 -0.11 0.65 -0.75 0.07
1 1.12 112 0.761 -9.682 1.513 -1.160 -1.434 1.434 -839.903 -419.876 -3044.966 -0.095 -0.009 -0.224 -0.11 0.65 -0.75 0.07
1 1.13 113 0.642 -9.702 1.279 -0.824 -0.336 1.221 -839.903 -419.876 -3044.966 0.025 0.010 0.011 -0.11 0.65 -0.75 0.07
1 1.14 114 0.757 -9.678 1.298 -0.946 -0.793 1.251 -749.961 -359.916 -3059.957 -0.090 -0.014 -0.008 -0.11 0.65 -0.75 0.07
1 1.15 115 0.781 -9.773 1.432 -1.465 -0.732 1.068 -779.942 -239.994 -3029.976 -0.113 0.082 -0.141 -0.11 0.65 -0.75 0.07
1 1.16 116 0.790 -9.802 1.221 -2.441 0.854 1.678 -779.942 -239.994 -3029.976 -0.122 0.111 0.069 -0.11 0.65 -0.75 0.07
1 1.17 117 0.737 -9.946 1.288 -2.350 -0.305 1.831 -854.893 -314.945 -3029.976 -0.071 0.254 0.000 -0.11 0.65 -0.75 0.07
1 1.18 118 0.656 -9.989 1.216 -0.946 -0.427 1.373 -854.893 -314.945 -3029.976 0.010 0.297 0.070 -0.11 0.65 -0.75 0.07
1 1.19 119 0.709 -9.869 1.317 -0.732 -0.305 1.251 -779.942 -314.945 -2879.924 -0.042 0.177 -0.031 -0.11 0.65 -0.75 0.07
1 1.20 120 0.781 -9.855 1.159 -0.854 -0.427 0.519 -779.942 -314.945 -2879.924 -0.114 0.162 0.126 -0.11 0.65 -0.75 0.07
1 1.21 121 0.781 -9.812 1.370 -0.488 -0.763 0.885 -794.932 -299.955 -2894.914 -0.113 0.119 -0.085 -0.11 0.65 -0.75 0.07
1 1.22 122 0.747 -9.807 1.288 -0.671 -0.641 0.549 -839.903 -254.984 -2894.914 -0.079 0.115 -0.004 -0.11 0.65 -0.75 0.07
1 1.23 123 0.694 -9.596 1.274 -0.458 -0.824 0.916 -839.903 -254.984 -2894.914 -0.025 -0.096 0.011 -0.11 0.65 -0.75 0.07
1 1.24 124 0.771 -9.702 1.317 -0.458 -0.488 0.275 -824.913 -284.964 -3059.957 -0.102 0.009 -0.032 -0.11 0.65 -0.75 0.07
1 1.25 125 0.627 -9.639 1.393 -0.610 -0.214 0.488 -824.913 -284.964 -3059.957 0.042 -0.053 -0.108 -0.11 0.65 -0.75 0.07
1 1.26 126 0.670 -9.778 1.274 3.357 -1.007 0.671 -899.864 -464.997 -2984.855 -0.000 0.086 0.015 -0.11 0.65 -0.75 0.07
1 1.27 127 0.599 -9.702 1.331 2.075 -0.824 1.129 -899.864 -464.997 -2984.855 0.071 0.010 -0.038 -0.11 0.65 -0.75 0.07
1 1.28 128 0.737 -9.855 1.183 -1.801 -0.580 0.488 -764.952 -329.935 -3149.898 -0.069 0.164 0.111 -0.11 0.65 -0.75 0.07
1 1.29 129 0.723 -9.879 1.370 -0.702 -1.221 0.305 -749.961 -314.945 -3059.957 -0.054 0.188 -0.076 -0.11 0.65 -0.75 0.07
1 1.30 130 0.728 -9.884 1.398 -0.702 -0.793 0.397 -749.961 -314.945 -3059.957 -0.059 0.192 -0.105 -0.11 0.65 -0.75 0.07
1 1.31 131 0.785 -9.831 1.360 -0.244 -0.793 0.610 -779.942 -359.916 -2984.855 -0.116 0.140 -0.066 -0.11 0.65 -0.75 0.07
1 1.32 132 0.651 -9.860 1.288 -0.854 -0.305 0.549 -779.942 -359.916 -2984.855 0.018 0.169 0.006 -0.11 0.65 -0.75 0.07
1 1.33 133 0.761 -9.635 1.437 -1.099 -0.092 1.007 -899.864 -239.994 -3059.957 -0.092 -0.056 -0.142 -0.11 0.65 -0.75 0.07
1 1.34 134 0.694 -9.654 1.350 -0.336 0.183 1.068 -794.932 -329.935 -2939.885 -0.023 -0.037 -0.054 -0.11 0.65 -0.75 0.07
1 1.35 135 0.704 -9.659 1.365 -0.671 0.244 1.129 -914.854 -374.906 -3014.986 -0.032 -0.032 -0.068 -0.11 0.65 -0.75 0.07
1 1.36 136 0.627 -9.692 1.240 -1.678 0.275 0.702 -1004.945 -314.945 -2954.875 0.045 0.002 0.056 -0.11 0.65 -0.75 0.07
1 1.37 137 0.613 -9.702 1.331 -1.801 -0.061 1.587 -1004.945 -314.945 -2954.875 0.059 0.011 -0.035 -0.11 0.65 -0.75 0.07
1 1.38 138 0.613 -9.812 1.235 -1.617 -0.153 1.831 -1004.945 -359.916 -2954.875 0.058 0.121 0.059 -0.11 0.65 -0.75 0.07
1 1.39 139 0.747 -9.778 1.326 -1.556 0.183 1.282 -1004.945 -359.916 -2954.875 -0.077 0.087 -0.033 -0.11 0.65 -0.75 0.07
1 1.40 140 0.785 -10.008 1.403 -1.831 0.427 1.617 -779.942 -239.994 -3104.927 -0.115 0.317 -0.110 -0.11 0.65 -0.75 0.07
1 1.41 141 0.670 -9.912 1.326 -1.740 0.336 1.434 -749.961 -209.863 -3029.976 -0.001 0.221 -0.035 -0.11 0.65 -0.75 0.07
1 1.42 142 0.675 -9.888 1.417 -1.312 0.763 1.923 -824.913 -209.863 -2984.855 -0.007 0.197 -0.127 -0.11 0.65 -0.75 0.07
1 1.43 143 0.661 -9.903 1.384 -1.160 0.519 1.251 -854.893 -314.945 -2954.875 0.007 0.211 -0.094 -0.11 0.65 -0.75 0.07
1 1.44 144 0.551 -9.826 1.393 -0.854 0.732 1.556 -854.893 -314.945 -2954.875 0.115 0.134 -0.104 -0.11 0.65 -0.75 0.07
1 1.45 145 0.445 -9.754 1.389 -0.519 1.495 2.106 -794.932 -224.854 -3044.966 0.219 0.062 -0.098 -0.11 0.65 -0.75 0.07
1 1.46 146 0.484 -9.539 1.422 -1.556 1.923 2.289 -794.932 -224.854 -3044.966 0.176 -0.153 -0.131 -0.11 0.65 -0.75 0.07
1 1.47 147 0.508 -9.601 1.341 -1.892 1.404 3.143 -899.864 -359.916 -2984.855 0.149 -0.091 -0.049 -0.11 0.65 -0.75 0.07
1 1.48 148 0.407 -9.812 1.322 -2.136 2.167 3.357 -779.942 -434.867 -2909.904 0.241 0.119 -0.032 -0.11 0.65 -0.75 0.07
1 1.49 149 0.393 -9.726 1.461 -2.960 1.801 3.937 -794.932 -329.935 -3044.966 0.249 0.032 -0.173 -0.11 0.65 -0.75 0.07
1 1.50 150 0.646 -9.941 1.312 -2.533 2.472 4.395 -764.952 -149.902 -2969.865 -0.012 0.246 -0.027 -0.11 0.65 -0.75 0.07
1 1.51 151 0.527 -9.855 1.312 -2.563 3.113 5.249 -764.952 -149.902 -2969.865 0.102 0.160 -0.029 -0.11 0.65 -0.75 0.07
1 1.52 152 0.455 -10.008 1.379 -2.441 2.869 5.310 -794.932 -419.876 -3119.917 0.166 0.312 -0.098 -0.11 0.65 -0.75 0.07
1 1.53 153 0.541 -9.778 1.365 -5.524 3.052 5.035 -794.932 -419.876 -3119.917 0.072 0.082 -0.085 -0.11 0.65 -0.75 0.07
1 1.54 154 0.335 -9.927 1.379 -10.468 3.448 5.615 -749.961 -239.994 -3059.957 0.268 0.229 -0.103 -0.11 0.65 -0.75 0.07
1 1.55 155 0.512 -9.860 1.499 -6.805 3.204 5.524 -749.961 -239.994 -2984.855 0.083 0.160 -0.236 -0.1 0.65 -0.75 0.07
1 1.56 156 0.321 -9.927 1.274 -5.341 6.744 7.019 -869.883 -254.984 -3044.966 0.256 0.224 -0.025 -0.1 0.65 -0.75 0.07
1 1.57 157 0.402 -9.989 1.216 -5.859 6.470 6.928 -794.932 -224.854 -3044.966 0.163 0.285 0.027 -0.1 0.65 -0.75 0.07
1 1.58 158 0.321 -10.099 1.302 -3.296 6.073 7.538 -794.932 -224.854 -3044.966 0.233 0.393 -0.065 -0.1 0.65 -0.75 0.07
1 1.59 159 0.206 -10.008 1.207 -0.397 7.324 7.629 -824.913 -239.994 -2909.904 0.336 0.301 0.028 -0.1 0.65 -0.75 0.07
1 1.60 160 0.211 -9.769 1.159 -0.031 8.240 8.270 -824.913 -239.994 -2909.904 0.317 0.061 0.077 -0.1 0.65 -0.75 0.07
1 1.61 161 0.187 -9.682 0.977 -1.190 8.148 7.843 -764.952 -254.984 -2969.865 0.327 -0.025 0.261 -0.1 0.65 -0.75 0.07
1 1.62 162 0.187 -9.726 1.058 -3.204 7.416 6.714 -749.961 -284.964 -2909.904 0.313 0.017 0.180 -0.1 0.65 -0.75 0.07
1 1.63 163 0.316 -9.841 1.044 -1.953 7.874 6.439 -749.961 -314.945 -3134.908 0.160 0.130 0.186 -0.1 0.65 -0.75 0.07
1 1.64 164 0.192 -9.726 1.173 -0.732 6.897 5.951 -734.971 -254.984 -2894.914 0.273 0.014 0.055 -0.1 0.65 -0.75 0.07
1 1.65 165 0.096 -9.721 0.986 -1.831 6.317 5.463 -734.971 -254.984 -2894.914 0.359 0.009 0.241 -0.1 0.65 -0.75 0.07
1 1.66 166 0.206 -9.682 0.953 -3.052 5.554 5.066 -659.870 -329.935 -2969.865 0.238 -0.031 0.272 -0.1 0.65 -0.75 0.07
1 1.67 167 0.148 -9.754 0.857 -3.418 5.920 4.089 -659.870 -329.935 -2969.865 0.286 0.040 0.363 -0.09 0.65 -0.75 0.07
1 1.68 168 0.038 -9.687 0.824 -3.082 5.676 3.021 -659.870 -254.984 -2969.865 0.389 -0.028 0.391 -0.09 0.66 -0.75 0.07
1 1.69 169 0.335 -9.869 1.178 -2.808 5.341 0.641 -690.000 -299.955 -2969.865 0.084 0.153 0.032 -0.09 0.66 -0.75 0.07
1 1.70 170 0.024 -9.999 0.905 -4.242 7.324 1.862 -704.991 -164.893 -2984.855 0.389 0.281 0.295 -0.09 0.66 -0.75 0.07
1 1.71 171 0.072 -9.922 0.963 -1.434 6.500 0.885 -629.890 -314.945 -2984.855 0.336 0.204 0.233 -0.09 0.66 -0.75 0.07
1 1.72 172 0.072 -9.773 1.135 1.343 6.287 -0.031 -629.890 -314.945 -2984.855 0.335 0.056 0.065 -0.09 0.66 -0.75 0.07
1 1.73 173 -0.005 -9.740 1.049 -1.678 6.928 0.031 -674.860 -239.994 -3029.976 0.410 0.022 0.153 -0.09 0.66 -0.75 0.07
1 1.74 174 -0.053 -9.893 0.943 -2.930 5.951 -0.793 -674.860 -239.994 -3029.976 0.456 0.175 0.256 -0.09 0.66 -0.75 0.07
1 1.75 175 0.000 -9.884 1.125 -0.549 4.944 -0.580 -659.870 -254.984 -2894.914 0.402 0.165 0.070 -0.09 0.66 -0.75 0.07
1 1.76 176 -0.067 -9.730 1.087 -1.038 4.486 -0.519 -764.952 -179.883 -3119.917 0.466 0.012 0.107 -0.09 0.66 -0.75 0.07
1 1.77 177 -0.086 -9.644 1.077 -1.892 4.578 -0.488 -764.952 -179.883 -3119.917 0.484 -0.075 0.116 -0.09 0.66 -0.75 0.07
1 1.78 178 -0.091 -9.888 1.154 -3.784 3.845 0.366 -599.909 -434.867 -3029.976 0.485 0.169 0.035 -0.09 0.66 -0.75 0.07
1 1.79 179 -0.201 -9.965 1.212 -3.632 4.700 1.038 -599.909 -434.867 -3029.976 0.591 0.245 -0.027 -0.09 0.66 -0.75 0.07
1 1.80 180 -0.417 -9.893 1.030 -0.793 3.296 1.068 -599.909 -314.945 -2879.924 0.801 0.172 0.152 -0.09 0.66 -0.75 0.07
1 1.81 181 0.690 -9.888 0.737 -0.916 -1.221 2.716 -599.909 -314.945 -2879.924 -0.311 0.167 0.443 -0.09 0.66 -0.75 0.07
1 1.82 182 0.383 -10.018 1.619 -2.899 0.519 8.087 -690.000 -74.951 -2864.934 -0.010 0.296 -0.439 -0.09 0.66 -0.75 0.07
1 1.83 183 -1.748 -10.228 0.742 -8.606 3.601 0.977 -690.000 -224.854 -2939.885 2.110 0.506 0.432 -0.09 0.66 -0.74 0.07
1 1.84 184 -0.728 -10.056 1.144 1.587 -8.057 1.190 -690.000 -224.854 -2939.885 1.074 0.331 0.015 -0.09 0.66 -0.74 0.07
1 1.85 185 -0.177 -10.142 1.259 -2.625 -3.448 9.613 -749.961 -359.916 -2909.904 0.497 0.417 -0.098 -0.09 0.66 -0.74 0.07
1 1.86 186 -0.843 -10.137 0.967 -4.334 -4.211 8.698 -749.961 -359.916 -2909.904 1.147 0.411 0.190 -0.09 0.66 -0.74 0.07
1 1.87 187 -0.670 -10.147 0.977 0.275 -9.766 7.721 -599.909 -89.941 -3029.976 0.957 0.419 0.176 -0.08 0.66 -0.74 0.07
1 1.88 188 -0.220 -10.070 1.302 1.892 -11.139 7.538 -599.909 -89.941 -3029.976 0.491 0.342 -0.150 -0.08 0.66 -0.74 0.07
1 1.89 189 0.038 -9.769 1.207 1.617 -9.644 7.996 -659.870 -149.902 -3194.869 0.220 0.041 -0.050 -0.08 0.66 -0.74 0.08
1 1.90 190 0.115 -9.884 1.231 1.770 -10.864 5.524 -690.000 -254.984 -2969.865 0.134 0.156 -0.070 -0.08 0.66 -0.74 0.08
1 1.91 191 0.192 -9.726 1.274 2.106 -11.322 3.723 -690.000 -254.984 -2969.865 0.050 -0.002 -0.109 -0.08 0.66 -0.74 0.08
1 1.92 192 0.110 -9.711 1.379 2.838 -9.766 3.204 -524.958 -284.964 -2954.875 0.126 -0.015 -0.205 -0.09 0.66 -0.74 0.08
1 1.93 193 -0.043 -9.750 1.188 3.143 -9.766 1.923 -524.958 -284.964 -2954.875 0.277 0.024 -0.008 -0.09 0.66 -0.74 0.08
1 1.94 194 -0.206 -9.850 1.360 5.310 -10.254 2.930 -779.942 -239.994 -2954.875 0.436 0.125 -0.172 -0.09 0.66 -0.74 0.08
1 1.95 195 -0.168 -9.975 1.355 5.768 -10.223 3.967 -779.942 -239.994 -2954.875 0.394 0.251 -0.158 -0.09 0.66 -0.74 0.08
1 1.96 196 -0.249 -10.022 1.341 6.836 -11.169 5.585 -629.890 -284.964 -3059.957 0.469 0.300 -0.133 -0.09 0.66 -0.75 0.08
1 1.97 197 -0.172 -9.793 1.446 9.399 -12.421 4.669 -690.000 -254.984 -2939.885 0.383 0.071 -0.226 -0.09 0.66 -0.75 0.08
1 1.98 198 0.014 -10.003 1.475 10.193 -12.177 5.829 -690.000 -254.984 -2939.885 0.188 0.284 -0.240 -0.09 0.66 -0.75 0.08
1 1.99 199 0.144 -9.898 1.417 9.674 -11.993 6.378 -704.991 -239.994 -2954.875 0.053 0.180 -0.166 -0.09 0.65 -0.75 0.08
1 2.00 200 0.105 -9.654 1.331 9.003 -13.519 5.859 -599.909 -209.863 -3059.957 0.080 -0.060 -0.047 -0.09 0.65 -0.75 0.09
1 2.01 201 0.081 -9.668 1.341 8.392 -14.374 5.676 -629.890 -239.994 -3104.927 0.099 -0.044 -0.042 -0.09 0.65 -0.75 0.09
1 2.02 202 0.397 -9.659 1.317 6.958 -17.242 3.693 -629.890 -239.994 -3104.927 -0.221 -0.052 -0.005 -0.09 0.65 -0.75 0.09
1 2.03 203 0.517 -9.606 1.537 5.585 -18.341 1.404 -584.919 -299.955 -2939.885 -0.339 -0.103 -0.215 -0.09 0.65 -0.75 0.09
1 2.04 204 0.464 -9.764 1.475 5.859 -18.250 0.641 -584.919 -224.854 -3044.966 -0.281 0.057 -0.142 -0.09 0.65 -0.75 0.09
1 2.05 205 -0.129 -9.864 1.461 9.186 -20.935 1.251 -584.919 -224.854 -3044.966 0.318 0.159 -0.117 -0.09 0.65 -0.75 0.09
1 2.06 206 -0.187 -9.836 1.451 10.345 -25.513 -1.251 -764.952 -179.883 -2969.865 0.381 0.132 -0.095 -0.09 0.65 -0.75 0.09
1 2.07 207 -0.005 -10.037 1.561 8.545 -27.344 -3.387 -779.942 -284.964 -3059.957 0.213 0.338 -0.175 -0.09 0.65 -0.75 0.09
1 2.08 208 0.196 -10.137 1.585 10.345 -28.809 -5.402 -704.991 -284.964 -3059.957 0.023 0.440 -0.185 -0.1 0.65 -0.75 0.09
1 2.09 209 0.182 -10.262 1.590 11.017 -31.647 -7.050 -704.991 -284.964 -3059.957 0.053 0.568 -0.174 -0.1 0.65 -0.75 0.09
1 2.10 210 0.383 -10.271 1.451 9.399 -36.865 -8.759 -659.870 -299.955 -3194.869 -0.129 0.580 -0.019 -0.1 0.65 -0.75 0.1
1 2.11 211 0.536 -10.305 1.551 5.157 -39.917 -9.338 -690.000 -329.935 -3044.966 -0.259 0.616 -0.109 -0.1 0.64 -0.75 0.1
1 2.12 212 0.924 -9.951 1.508 9.522 -39.246 -11.017 -690.000 -329.935 -3044.966 -0.622 0.263 -0.057 -0.1 0.64 -0.75 0.1
1 2.13 213 1.030 -10.070 1.255 12.024 -38.696 -12.451 -764.952 -374.906 -3194.869 -0.699 0.386 0.209 -0.11 0.64 -0.75 0.1
1 2.14 214 1.360 -9.793 1.106 10.437 -35.950 -10.986 -854.893 -284.964 -3029.976 -0.964 0.115 0.388 -0.11 0.64 -0.75 0.1
1 2.15 215 1.360 -9.582 1.010 10.590 -34.485 -10.529 -869.883 -524.958 -3014.986 -0.933 -0.092 0.495 -0.12 0.64 -0.75 0.1
1 2.16 216 1.504 -9.395 0.814 10.315 -32.074 -11.078 -869.883 -524.958 -3014.986 -1.044 -0.276 0.703 -0.12 0.64 -0.75 0.1
1 2.17 217 1.350 -9.328 0.589 9.888 -28.565 -7.385 -794.932 -374.906 -3074.947 -0.859 -0.340 0.938 -0.12 0.64 -0.75 0.1
1 2.18 218 1.614 -9.228 0.713 8.820 -27.100 -4.883 -929.994 -434.867 -2984.855 -1.097 -0.438 0.821 -0.12 0.64 -0.75 0.1
1 2.19 219 2.093 -9.515 0.527 9.277 -24.353 -4.395 -929.994 -434.867 -2984.855 -1.553 -0.148 1.014 -0.12 0.64 -0.75 0.1
1 2.20 220 2.519 -9.520 0.637 10.407 -23.834 -3.906 -929.994 -509.968 -3239.989 -1.957 -0.141 0.910 -0.13 0.64 -0.75 0.1
1 2.21 221 2.423 -9.362 0.828 10.254 -18.433 -5.798 -1094.887 -329.935 -3149.898 -1.835 -0.297 0.724 -0.13 0.64 -0.75 0.1
1 2.22 222 2.088 -9.524 0.594 8.972 -12.054 -5.829 -1034.926 -434.867 -3209.859 -1.443 -0.127 0.976 -0.13 0.63 -0.75 0.1
1 2.23 223 1.748 -9.524 0.694 1.801 -11.353 -3.845 -1034.926 -434.867 -3209.859 -1.081 -0.125 0.880 -0.13 0.63 -0.75 0.1
1 2.24 224 1.695 -10.046 0.785 -3.082 -6.714 -7.324 -1019.936 -494.978 -3014.986 -1.009 0.397 0.783 -0.13 0.63 -0.75 0.1
1 2.25 225 1.690 -10.286 0.824 -0.458 -7.294 -11.566 -1019.936 -494.978 -3074.947 -0.982 0.637 0.735 -0.13 0.63 -0.75 0.1
1 2.26 226 1.508 -10.688 1.001 4.974 -5.463 -17.639 -1019.936 -494.978 -3074.947 -0.770 1.040 0.553 -0.14 0.63 -0.75 0.1
1 2.27 227 1.350 -10.568 1.101 9.918 -2.930 -22.827 -1169.988 -374.906 -3044.966 -0.578 0.924 0.460 -0.14 0.63 -0.75 0.1
1 2.28 228 1.192 -10.530 1.049 11.780 -2.533 -23.346 -1019.936 -419.876 -3074.947 -0.386 0.891 0.527 -0.14 0.63 -0.76 0.1
1 2.29 229 1.705 -10.262 1.197 14.771 -2.289 -21.973 -1064.906 -494.978 -3224.999 -0.821 0.634 0.405 -0.14 0.63 -0.76 0.1
1 2.30 230 1.504 -9.750 1.164 14.618 2.350 -18.738 -1064.906 -494.978 -3224.999 -0.583 0.129 0.458 -0.14 0.63 -0.76 0.1
1 2.31 231 1.508 -9.764 1.030 13.245 0.305 -16.968 -1229.949 -539.948 -3104.927 -0.555 0.149 0.611 -0.14 0.63 -0.76 0.1
1 2.32 232 1.705 -9.620 1.111 13.062 -0.946 -14.374 -1184.978 -629.890 -3164.888 -0.722 0.011 0.546 -0.14 0.63 -0.76 0.09
1 2.33 233 1.733 -9.611 1.144 11.444 0.549 -12.482 -1184.978 -629.890 -3164.888 -0.725 0.007 0.527 -0.15 0.63 -0.76 0.09
1 2.34 234 1.446 -9.290 1.030 11.566 1.678 -8.545 -1064.906 -569.929 -3149.898 -0.413 -0.309 0.656 -0.15 0.63 -0.76 0.09
1 2.35 235 1.398 -9.213 1.044 9.766 1.556 -6.714 -1064.906 -524.958 -3044.966 -0.346 -0.381 0.656 -0.15 0.63 -0.76 0.09
1 2.36 236 1.456 -9.060 1.116 9.369 3.357 -5.402 -1154.998 -434.867 -3209.859 -0.376 -0.527 0.606 -0.15 0.62 -0.76 0.09
1 2.37 237 1.279 -9.074 1.106 10.071 3.754 -4.303 -1154.998 -434.867 -3209.859 -0.188 -0.509 0.628 -0.15 0.62 -0.76 0.09
1 2.38 238 1.178 -8.801 1.049 8.575 4.791 -2.655 -1229.949 -584.919 -3134.908 -0.081 -0.779 0.697 -0.15 0.62 -0.76 0.09
1 2.39 239 1.403 -8.888 0.819 9.552 6.012 -3.113 -989.955 -599.909 -3254.979 -0.302 -0.691 0.937 -0.15 0.62 -0.76 0.09
1 2.40 240 1.322 -8.854 1.097 11.627 9.827 -0.854 -989.955 -599.909 -3254.979 -0.214 -0.721 0.672 -0.15 0.62 -0.76 0.09
1 2.41 241 1.528 -8.830 1.192 9.888 12.329 -0.153 -1169.988 -449.857 -3074.947 -0.417 -0.742 0.591 -0.15 0.62 -0.76 0.09
1 2.42 242 1.312 -8.883 1.073 8.514 14.496 0.732 -1169.988 -569.929 -3224.999 -0.200 -0.686 0.726 -0.15 0.62 -0.76 0.09
1 2.43 243 1.393 -8.849 1.106 5.066 15.533 1.099 -1169.988 -569.929 -3224.999 -0.281 -0.717 0.705 -0.15 0.62 -0.76 0.09
1 2.44 244 1.451 -9.065 0.656 -5.249 12.695 2.625 -1199.968 -494.978 -3149.898 -0.343 -0.500 1.166 -0.14 0.62 -0.77 0.09
1 2.45 245 1.772 -9.405 1.034 -9.705 12.817 2.441 -1229.949 -539.948 -3164.888 -0.666 -0.163 0.773 -0.14 0.62 -0.76 0.09
1 2.46 246 1.882 -9.620 0.694 -2.075 12.909 2.563 -1109.877 -509.968 -3104.927 -0.778 0.049 1.099 -0.14 0.62 -0.76 0.08
1 2.47 247 1.695 -9.630 0.623 1.099 10.040 3.204 -1109.877 -509.968 -3104.927 -0.592 0.058 1.165 -0.14 0.62 -0.76 0.08
1 2.48 248 1.336 -9.501 0.551 -2.716 10.376 5.249 -1154.998 -509.968 -3284.960 -0.234 -0.073 1.232 -0.14 0.62 -0.76 0.08
1 2.49 249 1.240 -9.376 0.560 -4.272 12.665 7.446 -1079.896 -539.948 -3134.908 -0.142 -0.199 1.214 -0.14 0.62 -0.76 0.08
1 2.50 250 1.154 -9.615 0.417 -2.472 14.130 8.789 -1079.896 -539.948 -3134.908 -0.066 0.037 1.346 -0.14 0.62 -0.76 0.08
1 2.51 251 1.235 -9.955 0.733 2.228 17.029 7.172 -1094.887 -569.929 -3074.947 -0.174 0.371 1.014 -0.14 0.63 -0.76 0.08
1 2.52 252 1.346 -9.773 0.718 2.594 17.212 6.714 -1094.887 -494.978 -3254.979 -0.297 0.188 1.028 -0.14 0.63 -0.76 0.08
1 2.53 253 1.125 -9.836 0.704 -1.526 15.869 8.423 -1034.926 -629.890 -3104.927 -0.088 0.248 1.042 -0.14 0.63 -0.76 0.08
1 2.54 254 1.154 -9.510 0.804 -8.728 13.977 8.057 -1034.926 -629.890 -3104.927 -0.131 -0.080 0.932 -0.13 0.63 -0.76 0.08
1 2.55 255 1.326 -9.773 0.919 -8.118 15.198 6.928 -1079.896 -584.919 -3164.888 -0.316 0.179 0.800 -0.13 0.63 -0.76 0.08
1 2.56 256 1.197 -9.615 0.565 -0.641 17.151 3.693 -1064.906 -599.909 -3224.999 -0.198 0.018 1.144 -0.13 0.63 -0.76 0.08
1 2.57 257 1.307 -9.735 0.455 -3.784 15.869 3.510 -1064.906 -599.909 -3224.999 -0.314 0.136 1.250 -0.13 0.63 -0.76 0.08
1 2.58 258 1.475 -9.716 0.541 -6.805 17.273 4.303 -1094.887 -644.880 -3224.999 -0.493 0.111 1.140 -0.13 0.63 -0.76 0.08
1 2.59 259 1.595 -9.831 0.326 -7.141 18.066 5.005 -929.994 -734.971 -3314.940 -0.620 0.223 1.341 -0.13 0.63 -0.76 0.08
1 2.60 260 1.757 -9.989 0.311 -6.805 17.853 4.181 -929.994 -629.890 -3239.989 -0.789 0.378 1.338 -0.13 0.63 -0.76 0.08
1 2.61 261 1.743 -10.008 0.192 -6.622 19.409 4.242 -929.994 -629.890 -3239.989 -0.778 0.393 1.442 -0.13 0.63 -0.76 0.07
1 2.62 262 1.772 -10.075 0.244 -5.951 20.508 2.869 -914.854 -524.958 -3194.869 -0.811 0.457 1.373 -0.13 0.63 -0.76 0.07
1 2.63 263 1.877 -10.267 0.402 -5.737 20.081 2.167 -854.893 -539.948 -3164.888 -0.919 0.646 1.200 -0.13 0.63 -0.76 0.07
1 2.64 264 1.805 -10.497 0.546 -5.127 20.538 1.709 -854.893 -539.948 -3164.888 -0.848 0.873 1.041 -0.12 0.64 -0.76 0.07
1 2.65 265 1.791 -10.477 0.551 -5.096 20.294 1.495 -1064.906 -599.909 -3149.898 -0.833 0.852 1.023 -0.12 0.64 -0.76 0.07
1 2.66 266 2.035 -10.683 0.661 -2.228 22.461 2.594 -929.994 -539.948 -3284.960 -1.076 1.054 0.890 -0.12 0.64 -0.76 0.07
1 2.67 267 2.255 -10.487 0.570 -2.014 24.933 3.235 -914.854 -569.929 -3119.917 -1.302 0.857 0.978 -0.12 0.64 -0.76 0.07
1 2.68 268 2.385 -10.430 0.455 -2.197 28.595 4.974 -914.854 -569.929 -3119.917 -1.436 0.799 1.091 -0.12 0.64 -0.76 0.07
1 2.69 269 2.619 -10.386 0.417 -4.883 31.372 8.514 -989.955 -644.880 -3224.999 -1.676 0.754 1.121 -0.12 0.64 -0.76 0.06
1 2.70 270 2.485 -10.674 2.241 -22.888 24.445 7.111 -899.864 -539.948 -3104.927 -1.549 1.038 -0.717 -0.12 0.64 -0.76 0.06
1 2.71 271 1.652 -12.335 2.136 -36.591 23.834 -7.751 -899.864 -539.948 -3104.927 -0.728 2.695 -0.637 -0.11 0.64 -0.76 0.06
1 2.72 272 0.503 -12.556 1.475 -16.663 27.252 -20.752 -869.883 -524.958 -3119.917 0.423 2.908 -0.022 -0.11 0.64 -0.76 0.06
1 2.73 273 -0.627 -12.134 0.986 -6.531 13.672 -34.454 -869.883 -644.880 -3224.999 1.615 2.489 0.437 -0.11 0.64 -0.75 0.05
1 2.74 274 -0.709 -12.541 0.910 -21.118 2.716 -26.856 -794.932 -494.978 -3119.917 1.745 2.899 0.499 -0.11 0.64 -0.75 0.05
1 2.75 275 -0.278 -12.474 0.876 -14.801 3.571 -11.505 -794.932 -494.978 -3119.917 1.349 2.831 0.504 -0.12 0.65 -0.75 0.05
1 2.76 276 0.215 -11.871 0.752 -10.407 4.974 0.946 -854.893 -659.870 -3164.888 0.868 2.227 0.611 -0.12 0.65 -0.75 0.05
1 2.77 277 0.781 -11.287 0.713 -15.015 3.571 9.735 -824.913 -509.968 -3059.957 0.298 1.640 0.634 -0.12 0.65 -0.75 0.05
1 2.78 278 1.542 -10.535 0.469 -16.632 9.003 22.522 -824.913 -509.968 -3059.957 -0.480 0.883 0.856 -0.12 0.65 -0.75 0.05
1 2.79 279 2.155 -10.181 0.441 -17.334 10.559 25.543 -749.961 -629.890 -3029.976 -1.123 0.522 0.858 -0.11 0.65 -0.75 0.05
1 2.80 280 2.322 -9.821 0.886 -21.729 13.336 26.978 -899.864 -389.896 -2984.855 -1.354 0.148 0.350 -0.11 0.65 -0.75 0.05
1 2.81 281 2.327 -9.323 1.034 -21.515 13.825 29.358 -794.932 -524.958 -3074.947 -1.391 -0.357 0.170 -0.11 0.65 -0.75 0.05
1 2.82 282 1.777 -8.686 1.317 -26.001 14.160 30.335 -794.932 -524.958 -3074.947 -0.875 -1.001 -0.143 -0.11 0.65 -0.75 0.05
1 2.83 283 1.255 -8.490 1.772 -29.175 12.848 29.663 -779.942 -464.997 -3104.927 -0.391 -1.205 -0.634 -0.11 0.66 -0.75 0.05
1 2.84 284 0.713 -8.481 1.872 -27.252 10.345 25.330 -749.961 -584.919 -2879.924 0.106 -1.223 -0.775 -0.1 0.66 -0.74 0.05
1 2.85 285 0.019 -8.337 1.738 -18.677 8.606 13.794 -749.961 -584.919 -2879.924 0.766 -1.374 -0.677 -0.1 0.66 -0.74 0.05
1 2.86 286 -0.445 -8.121 2.064 -13.001 9.399 11.444 -659.870 -524.958 -2969.865 1.208 -1.594 -1.031 -0.1 0.66 -0.74 0.05
1 2.87 287 -0.895 -8.313 2.265 -14.587 11.810 10.651 -659.870 -524.958 -2969.865 1.641 -1.406 -1.251 -0.1 0.66 -0.74 0.05
1 2.88 288 -0.857 -9.457 2.591 -16.998 15.015 4.150 -734.971 -374.906 -2969.865 1.566 -0.268 -1.611 -0.1 0.66 -0.74 0.05
1 2.89 289 -0.632 -9.879 2.418 -17.456 12.970 0.763 -734.971 -374.906 -2969.865 1.325 0.152 -1.449 -0.1 0.66 -0.74 0.05
1 2.90 290 -0.345 -10.109 2.648 -20.233 11.597 3.510 -734.971 -299.955 -2939.885 1.025 0.379 -1.692 -0.1 0.66 -0.74 0.05
1 2.91 291 0.029 -9.879 2.820 -18.738 13.641 8.820 -779.942 -359.916 -2909.904 0.636 0.147 -1.880 -0.09 0.67 -0.74 0.05
1 2.92 292 0.115 -9.615 2.734 -14.404 16.541 14.465 -779.942 -359.916 -2909.904 0.529 -0.119 -1.804 -0.09 0.67 -0.74 0.05
1 2.93 293 0.158 -9.558 2.653 -10.376 17.242 18.524 -734.971 -374.906 -2939.885 0.460 -0.179 -1.728 -0.09 0.67 -0.74 0.05
1 2.94 294 0.450 -9.084 2.571 -7.843 17.853 16.113 -734.971 -374.906 -2939.885 0.137 -0.655 -1.647 -0.09 0.67 -0.74 0.05
1 2.95 295 0.575 -9.022 2.610 -9.277 19.379 10.254 -614.899 -419.876 -2789.982 -0.039 -0.719 -1.678 -0.09 0.67 -0.74 0.05
1 2.96 296 0.474 -9.022 2.318 -11.017 21.423 7.263 -614.899 -419.876 -2789.982 0.046 -0.720 -1.385 -0.08 0.67 -0.74 0.05
1 2.97 297 0.091 -9.156 2.236 -12.299 22.247 6.409 -599.909 -359.916 -2729.872 0.417 -0.587 -1.306 -0.08 0.67 -0.74 0.05
1 2.98 298 -0.091 -9.232 1.911 -12.238 21.179 5.157 -614.899 -224.854 -2714.881 0.587 -0.511 -0.986 -0.08 0.67 -0.74 0.05
1 2.99 299 -0.297 -9.443 1.853 -11.688 17.090 3.082 -614.899 -224.854 -2714.881 0.781 -0.302 -0.935 -0.08 0.67 -0.74 0.05
1 3.00 300 -0.948 -9.908 1.757 -12.390 13.977 3.784 -599.909 -239.994 -2849.943 1.420 0.161 -0.847 -0.08 0.67 -0.74 0.05
1 3.01 301 -1.264 -10.209 1.729 -13.702 10.315 3.937 -599.909 -239.994 -2849.943 1.722 0.462 -0.827 -0.08 0.67 -0.74 0.05
1 3.02 302 -1.461 -10.396 1.690 -12.268 3.784 9.125 -509.968 -449.857 -2759.852 1.879 0.644 -0.814 -0.08 0.67 -0.74 0.05
1 3.03 303 -1.484 -10.348 1.609 -10.468 0.336 14.160 -509.968 -449.857 -2759.852 1.874 0.594 -0.743 -0.07 0.67 -0.74 0.05
1 3.04 304 -1.437 -10.157 1.729 -9.033 -1.160 20.935 -569.929 -239.994 -2879.924 1.790 0.401 -0.871 -0.07 0.67 -0.74 0.05
1 3.05 305 -1.178 -10.090 1.599 -6.928 -1.740 26.215 -629.890 -314.945 -2909.904 1.487 0.331 -0.748 -0.07 0.67 -0.74 0.05
1 3.06 306 -1.101 -9.788 1.609 -6.195 -2.350 29.389 -629.890 -314.945 -2909.904 1.359 0.028 -0.761 -0.07 0.67 -0.73 0.06
1 3.07 307 -0.579 -9.764 1.681 -3.387 -1.465 33.478 -584.919 -419.876 -2759.852 0.784 0.003 -0.834 -0.07 0.67 -0.73 0.06
1 3.08 308 -0.575 -9.548 1.623 -1.617 0.305 34.638 -584.919 -419.876 -2759.852 0.724 -0.214 -0.775 -0.07 0.67 -0.73 0.06
1 3.09 309 -0.541 -9.424 1.489 0.244 -0.214 34.210 -539.948 -254.984 -2894.914 0.635 -0.338 -0.637 -0.06 0.67 -0.73 0.06
1 3.10 310 -0.254 -9.223 1.365 1.556 -1.923 31.311 -584.919 -329.935 -2759.852 0.242 -0.539 -0.497 -0.06 0.67 -0.73 0.07
1 3.11 311 -0.287 -9.204 1.302 -0.214 -2.197 29.266 -569.929 -284.964 -2669.911 0.228 -0.557 -0.428 -0.06 0.67 -0.73 0.07
1 3.12 312 -0.230 -9.290 1.034 -1.129 -3.387 26.947 -449.857 -314.945 -2729.872 0.128 -0.470 -0.156 -0.06 0.67 -0.73 0.07
1 3.13 313 -0.311 -9.453 1.121 0.916 -3.937 23.010 -449.857 -314.945 -2729.872 0.171 -0.307 -0.239 -0.06 0.67 -0.73 0.07
1 3.14 314 -0.278 -9.390 0.958 2.319 -5.707 19.836 -584.919 -299.955 -2819.963 0.104 -0.368 -0.072 -0.06 0.67 -0.73 0.07
1 3.15 315 -0.397 -9.156 0.776 2.228 -6.470 16.052 -584.919 -299.955 -2819.963 0.194 -0.601 0.116 -0.05 0.67 -0.73 0.08
1 3.16 316 -0.335 -9.366 0.646 -0.031 -7.935 14.160 -524.958 -389.896 -2729.872 0.108 -0.390 0.250 -0.05 0.67 -0.73 0.08
1 3.17 317 -0.551 -9.338 0.493 -0.946 -11.231 13.123 -464.997 -374.906 -2759.852 0.286 -0.417 0.405 -0.05 0.67 -0.73 0.08
1 3.18 318 -0.623 -8.878 0.613 4.883 -8.698 11.017 -269.974 -434.867 -2849.943 0.339 -0.877 0.286 -0.05 0.67 -0.73 0.08
1 3.19 319 -0.713 -8.777 0.259 3.235 -10.742 7.568 -434.867 -224.854 -2789.982 0.415 -0.976 0.646 -0.05 0.67 -0.73 0.08
1 3.20 320 -0.848 -9.003 0.249 -2.167 -11.536 4.852 -434.867 -224.854 -2789.982 0.540 -0.750 0.659 -0.05 0.67 -0.73 0.08
1 3.21 321 -0.795 -9.050 0.148 -3.693 -12.054 4.181 -359.916 -449.857 -2684.901 0.480 -0.703 0.754 -0.05 0.67 -0.73 0.08
1 3.22 322 -0.603 -9.328 -0.005 -1.953 -12.878 2.960 -359.916 -449.857 -2684.901 0.281 -0.426 0.898 -0.05 0.67 -0.73 0.08
1 3.23 323 -0.603 -9.223 -0.115 0.183 -13.641 0.824 -344.925 -389.896 -2624.940 0.275 -0.532 1.000 -0.05 0.67 -0.73 0.08
1 3.24 324 -0.536 -8.907 -0.153 -1.434 -15.198 -1.892 -449.857 -164.893 -2774.992 0.207 -0.849 1.028 -0.05 0.67 -0.73 0.08
1 3.25 325 -0.397 -8.921 -0.287 -4.456 -17.365 -6.897 -449.857 -359.916 -2729.872 0.075 -0.835 1.155 -0.06 0.67 -0.73 0.08
1 3.26 326 -0.359 -8.926 -0.364 -6.531 -19.623 -11.841 -524.958 -284.964 -2729.872 0.051 -0.832 1.218 -0.06 0.67 -0.73 0.09
1 3.27 327 -0.613 -9.050 -0.503 -8.606 -22.156 -15.259 -524.958 -284.964 -2729.872 0.327 -0.710 1.339 -0.06 0.67 -0.73 0.09
1 3.28 328 -0.608 -8.888 -0.445 -8.820 -26.245 -17.731 -509.968 -449.857 -2714.881 0.348 -0.875 1.262 -0.06 0.67 -0.73 0.09
1 3.29 329 -0.670 -9.065 -0.479 -10.742 -29.694 -23.346 -509.968 -449.857 -2714.881 0.440 -0.700 1.275 -0.06 0.67 -0.73 0.09
1 3.30 330 -0.565 -9.146 -0.484 -15.411 -29.877 -26.306 -509.968 -419.876 -2759.852 0.370 -0.621 1.258 -0.07 0.68 -0.73 0.09
1 3.31 331 -0.335 -9.309 -0.287 -18.982 -28.717 -27.191 -584.919 -254.984 -2684.901 0.179 -0.461 1.033 -0.07 0.68 -0.73 0.09
1 3.32 332 -0.182 -9.663 0.057 -11.963 -24.689 -19.013 -584.919 -299.955 -2639.930 0.109 -0.113 0.623 -0.07 0.68 -0.73 0.09
1 3.33 333 -0.201 -9.467 0.254 -10.437 -19.775 -12.970 -690.000 -329.935 -2714.881 0.157 -0.311 0.406 -0.08 0.68 -0.73 0.09
1 3.34 334 -0.694 -9.735 0.340 -10.712 -20.233 -10.376 -690.000 -329.935 -2714.881 0.671 -0.044 0.302 -0.08 0.68 -0.72 0.09
1 3.35 335 -0.522 -9.745 0.680 -9.186 -18.433 -8.270 -690.000 -419.876 -2789.982 0.512 -0.035 -0.055 -0.08 0.68 -0.72 0.09
1 3.36 336 -0.182 -10.066 1.298 -1.953 -11.719 -6.470 -690.000 -419.876 -2789.982 0.183 0.285 -0.684 -0.08 0.68 -0.72 0.09
1 3.37 337 -0.129 -10.291 1.279 6.042 -6.561 -5.890 -629.890 -239.994 -2594.959 0.140 0.510 -0.666 -0.08 0.68 -0.72 0.09
1 3.38 338 -0.158 -10.281 1.398 9.186 -2.258 -6.317 -674.860 -314.945 -2669.911 0.179 0.501 -0.773 -0.08 0.68 -0.72 0.09
1 3.39 339 0.168 -10.410 1.144 11.963 -1.221 -5.005 -629.890 -314.945 -2624.940 -0.129 0.633 -0.478 -0.08 0.68 -0.73 0.09
1 3.40 340 0.091 -10.248 0.661 10.529 -2.228 -1.251 -764.952 -299.955 -2714.881 -0.044 0.472 0.028 -0.08 0.68 -0.73 0.09
1 3.41 341 -0.053 -9.975 0.206 7.935 -7.385 0.763 -764.952 -299.955 -2714.881 0.102 0.200 0.500 -0.08 0.68 -0.73 0.09
1 3.42 342 -0.364 -10.046 0.067 3.021 -12.329 -0.854 -704.991 -359.916 -2624.940 0.415 0.273 0.647 -0.08 0.68 -0.73 0.09
1 3.43 343 -0.809 -10.319 -0.206 -0.824 -16.296 -1.007 -704.991 -359.916 -2624.940 0.862 0.546 0.920 -0.09 0.68 -0.73 0.09
1 3.44 344 -1.422 -10.884 -0.484 1.495 -22.400 -3.632 -629.890 -314.945 -2804.973 1.475 1.110 1.191 -0.09 0.68 -0.73 0.09
1 3.45 345 -2.164 -11.574 -0.733 -1.831 -21.484 5.798 -704.991 -389.896 -2669.911 2.217 1.799 1.433 -0.09 0.68 -0.73 0.09
1 3.46 346 -2.495 -10.808 -0.972 -1.770 -30.579 8.301 -749.961 -389.896 -2594.959 2.533 1.033 1.666 -0.09 0.68 -0.73 0.09
1 3.47 347 -2.519 -11.081 -1.030 -0.092 -32.074 6.592 -690.000 -299.955 -2639.930 2.550 1.305 1.724 -0.09 0.68 -0.73 0.09
1 3.48 348 -2.562 -10.559 -1.250 -10.437 -33.051 6.653 -690.000 -299.955 -2639.930 2.587 0.783 1.941 -0.09 0.68 -0.73 0.1
1 3.49 349 -2.428 -10.367 -1.413 -16.785 -41.687 -0.153 -764.952 -299.955 -2684.901 2.450 0.591 2.087 -0.09 0.68 -0.72 0.1
1 3.50 350 -1.824 -10.530 -1.006 -19.989 -49.927 -3.754 -764.952 -299.955 -2684.901 1.836 0.751 1.639 -0.1 0.68 -0.72 0.1
1 3.51 351 -0.833 -12.010 2.792 -16.022 -37.079 1.465 -734.971 -329.935 -2684.901 0.850 2.228 -2.196 -0.1 0.68 -0.72 0.1
1 3.52 352 0.144 -12.723 0.943 -16.083 -24.506 19.135 -839.903 -329.935 -2684.901 -0.120 2.940 -0.374 -0.1 0.68 -0.72 0.11
1 3.53 353 1.528 -13.020 1.039 -5.798 -5.646 28.900 -839.903 -329.935 -2684.901 -1.524 3.235 -0.492 -0.1 0.68 -0.72 0.11
1 3.54 354 1.499 -12.647 -0.263 -3.510 -3.937 58.411 -854.893 -359.916 -2729.872 -1.591 2.862 0.799 -0.1 0.68 -0.72 0.11
1 3.55 355 0.603 -11.588 0.302 -3.723 -8.667 60.578 -854.893 -359.916 -2729.872 -0.786 1.804 0.230 -0.1 0.68 -0.72 0.12
1 3.56 356 -0.115 -11.086 1.221 -7.782 -4.486 34.638 -899.864 -359.916 -2624.940 -0.147 1.303 -0.694 -0.09 0.68 -0.72 0.12
1 3.57 357 0.196 -11.981 1.279 -18.341 -6.928 15.686 -899.864 -359.916 -2624.940 -0.500 2.199 -0.766 -0.09 0.68 -0.72 0.12
1 3.58 358 0.666 -12.216 0.953 -5.676 -4.425 3.876 -839.903 -299.955 -2714.881 -0.988 2.433 -0.467 -0.09 0.68 -0.71 0.12
1 3.59 359 0.010 -10.947 0.508 0.153 -5.127 -4.303 -779.942 -209.863 -2594.959 -0.338 1.164 -0.034 -0.09 0.68 -0.71 0.12
1 3.60 360 -0.608 -10.281 0.479 -7.385 -13.519 -15.442 -779.942 -209.863 -2594.959 0.284 0.498 -0.004 -0.09 0.68 -0.71 0.12
1 3.61 361 -0.728 -10.544 1.159 -6.805 -28.565 -13.001 -794.932 -374.906 -2609.950 0.452 0.759 -0.707 -0.1 0.68 -0.71 0.12
1 3.62 362 -1.403 -9.232 1.810 0.275 -28.412 -15.106 -794.932 -374.906 -2609.950 1.149 -0.554 -1.360 -0.1 0.68 -0.71 0.12
1 3.63 363 -1.767 -8.351 2.289 0.854 -32.440 -13.245 -914.854 -374.906 -2609.950 1.531 -1.435 -1.827 -0.1 0.68 -0.71 0.12
1 3.64 364 -1.465 -7.508 2.528 5.859 -40.283 -5.951 -914.854 -374.906 -2609.950 1.239 -2.277 -2.048 -0.1 0.68 -0.71 0.12
1 3.65 365 -0.565 -7.058 3.017 8.331 -39.581 -5.096 -854.893 -314.945 -2624.940 0.352 -2.727 -2.523 -0.11 0.68 -0.71 0.13
1 3.66 366 0.417 -7.192 2.955 -1.068 -26.672 7.843 -974.965 -434.867 -2444.907 -0.620 -2.592 -2.449 -0.11 0.68 -0.71 0.13
1 3.67 367 0.608 -7.432 2.677 -4.364 -21.698 20.752 -974.965 -434.867 -2444.907 -0.815 -2.353 -2.170 -0.11 0.68 -0.71 0.13
1 3.68 368 1.312 -7.590 2.557 -9.277 -9.216 27.100 -914.854 -449.857 -2564.979 -1.578 -2.194 -2.062 -0.11 0.68 -0.71 0.13
1 3.69 369 1.714 -8.543 2.112 -13.367 -1.190 23.773 -914.854 -449.857 -2564.979 -2.019 -1.241 -1.632 -0.11 0.68 -0.71 0.14
1 3.70 370 2.246 -9.826 1.868 -4.303 4.547 13.794 -944.984 -329.935 -2504.868 -2.573 0.043 -1.398 -0.11 0.68 -0.71 0.14
1 3.71 371 2.753 -10.688 2.083 3.204 5.463 9.033 -944.984 -329.935 -2504.868 -3.079 0.905 -1.604 -0.11 0.68 -0.71 0.14
1 3.72 372 2.806 -11.009 1.959 -1.831 5.219 7.141 -869.883 -254.984 -2609.950 -3.144 1.227 -1.475 -0.11 0.68 -0.71 0.14
1 3.73 373 2.035 -10.707 1.633 -4.364 5.615 -5.737 -1004.945 -284.964 -2519.858 -2.381 0.925 -1.154 -0.11 0.68 -0.71 0.14
1 3.74 374 1.250 -10.458 1.595 -1.343 5.280 -14.923 -1004.945 -284.964 -2519.858 -1.590 0.676 -1.122 -0.11 0.68 -0.71 0.14
1 3.75 375 0.560 -10.176 1.470 -4.150 4.456 -20.142 -974.965 -239.994 -2519.858 -0.880 0.392 -1.000 -0.11 0.68 -0.71 0.13
1 3.76 376 0.192 -10.070 1.044 -7.141 1.373 -27.130 -944.984 -329.935 -2459.897 -0.429 0.285 -0.572 -0.11 0.68 -0.71 0.13
1 3.77 377 0.125 -9.917 1.207 -4.883 -0.885 -31.799 -974.965 -359.916 -2444.907 -0.314 0.130 -0.739 -0.11 0.68 -0.71 0.13
1 3.78 378 0.105 -9.706 1.188 -1.587 -1.892 -34.882 -974.965 -359.916 -2444.907 -0.243 -0.081 -0.720 -0.11 0.68 -0.71 0.13
1 3.79 379 -0.043 -9.539 1.341 0.916 -2.289 -35.645 -839.903 -329.935 -2354.966 -0.039 -0.249 -0.867 -0.11 0.68 -0.71 0.13
1 3.80 380 -0.091 -9.414 1.475 1.099 -1.007 -32.959 -869.883 -374.906 -2564.979 0.064 -0.374 -0.992 -0.12 0.68 -0.71 0.12
1 3.81 381 -0.101 -9.438 1.360 0.702 -0.519 -30.487 -869.883 -374.906 -2564.979 0.124 -0.349 -0.867 -0.12 0.68 -0.71 0.12
1 3.82 382 -0.034 -9.314 1.221 2.808 -0.610 -29.236 -914.854 -299.955 -2429.917 0.104 -0.473 -0.718 -0.12 0.68 -0.71 0.12
1 3.83 383 0.235 -9.141 1.216 6.104 2.167 -28.534 -1019.936 -299.955 -2609.950 -0.076 -0.643 -0.689 -0.12 0.68 -0.72 0.12
1 3.84 384 0.397 -8.955 1.053 7.507 4.425 -26.978 -1064.906 -329.935 -2534.999 -0.195 -0.828 -0.509 -0.12 0.68 -0.72 0.12
1 3.85 385 0.560 -8.907 1.087 7.965 6.714 -23.468 -1064.906 -329.935 -2534.999 -0.317 -0.874 -0.525 -0.12 0.68 -0.72 0.11
1 3.86 386 0.680 -8.854 0.919 10.376 9.003 -19.257 -1034.926 -464.997 -2444.907 -0.399 -0.925 -0.339 -0.13 0.67 -0.72 0.11
1 3.87 387 0.804 -8.782 0.680 12.268 8.698 -16.602 -1079.896 -284.964 -2549.989 -0.493 -0.994 -0.079 -0.13 0.67 -0.72 0.11
1 3.88 388 1.087 -8.768 0.728 11.536 7.965 -16.174 -1079.896 -284.964 -2549.989 -0.746 -1.006 -0.106 -0.13 0.67 -0.72 0.11
1 3.89 389 1.087 -8.691 0.704 11.047 6.683 -17.212 -1079.896 -359.916 -2519.858 -0.719 -1.081 -0.061 -0.13 0.67 -0.72 0.11
1 3.90 390 0.833 -8.682 0.546 11.261 6.317 -17.426 -1154.998 -434.867 -2444.907 -0.410 -1.085 0.134 -0.13 0.67 -0.72 0.11
1 3.91 391 0.737 -9.223 0.321 8.148 7.111 -16.266 -1109.877 -434.867 -2519.858 -0.288 -0.542 0.377 -0.13 0.67 -0.72 0.11
1 3.92 392 0.795 -9.644 0.206 5.219 8.270 -13.031 -1109.877 -434.867 -2519.858 -0.318 -0.119 0.502 -0.13 0.67 -0.72 0.11
1 3.93 393 0.843 -10.032 0.062 5.005 9.827 -9.186 -1229.949 -464.997 -2549.989 -0.345 0.271 0.652 -0.13 0.67 -0.72 0.1
1 3.94 394 0.924 -10.219 0.029 4.791 10.254 -3.754 -1094.887 -419.876 -2429.917 -0.412 0.459 0.690 -0.13 0.67 -0.73 0.1
1 3.95 395 0.747 -10.080 0.029 5.371 11.536 4.791 -1094.887 -419.876 -2429.917 -0.229 0.320 0.694 -0.13 0.67 -0.73 0.1
1 3.96 396 0.584 -9.649 -0.350 5.127 12.512 8.301 -1034.926 -464.997 -2444.907 -0.070 -0.110 1.077 -0.13 0.67 -0.73 0.1
1 3.97 397 0.551 -9.783 -0.484 1.465 12.207 13.855 -1139.857 -374.906 -2609.950 -0.047 0.023 1.215 -0.13 0.67 -0.73 0.1
1 3.98 398 0.551 -9.314 -0.766 -1.740 13.825 17.883 -1139.857 -449.857 -2504.868 -0.089 -0.449 1.486 -0.13 0.67 -0.73 0.1
1 3.99 399 0.709 -9.180 -0.527 -5.066 13.306 21.362 -1139.857 -449.857 -2504.868 -0.275 -0.585 1.235 -0.13 0.67 -0.72 0.1
1 4.00 400 0.661 -9.132 -0.158 -10.956 14.526 21.393 -1229.949 -659.870 -2669.911 -0.256 -0.635 0.848 -0.12 0.67 -0.72 0.1
1 4.01 401 0.685 -9.050 -0.105 -14.221 16.968 22.064 -1109.877 -359.916 -2474.888 -0.309 -0.720 0.773 -0.12 0.67 -0.72 0.1
1 4.02 402 0.996 -9.055 0.259 -11.749 19.898 16.357 -1109.877 -359.916 -2474.888 -0.650 -0.718 0.384 -0.12 0.67 -0.72 0.1
1 4.03 403 1.365 -9.280 0.225 -6.989 21.210 14.954 -1004.945 -389.896 -2519.858 -1.041 -0.495 0.397 -0.12 0.67 -0.72 0.1
1 4.04 404 1.662 -9.333 0.163 -0.763 22.247 14.252 -1064.906 -374.906 -2354.966 -1.355 -0.443 0.446 -0.12 0.67 -0.72 0.1
1 4.05 405 1.767 -9.826 0.407 -4.395 19.898 10.010 -989.955 -419.876 -2504.868 -1.484 0.049 0.196 -0.12 0.68 -0.72 0.1
1 4.06 406 1.484 -10.262 0.618 -3.784 18.494 10.376 -989.955 -419.876 -2504.868 -1.206 0.484 -0.022 -0.12 0.68 -0.72 0.1
1 4.07 407 1.250 -10.655 0.584 -1.465 14.648 8.453 -1154.998 -434.867 -2594.959 -0.976 0.876 0.009 -0.11 0.68 -0.72 0.1
1 4.08 408 0.910 -10.961 0.479 0.092 13.275 9.766 -989.955 -449.857 -2459.897 -0.641 1.183 0.114 -0.11 0.68 -0.72 0.1
1 4.09 409 0.723 -11.282 0.029 0.671 12.878 6.866 -989.955 -449.857 -2459.897 -0.468 1.503 0.567 -0.11 0.68 -0.72 0.1
1 4.10 410 0.081 -11.617 -0.354 -2.411 15.289 4.913 -989.955 -374.906 -2504.868 0.164 1.838 0.952 -0.11 0.68 -0.72 0.1
1 4.11 411 -0.330 -11.698 -0.685 5.341 21.393 14.771 -839.903 -449.857 -2384.946 0.570 1.920 1.281 -0.11 0.68 -0.72 0.1
1 4.12 412 0.101 -11.488 -0.848 10.315 20.203 18.189 -869.883 -329.935 -2354.966 0.090 1.709 1.468 -0.11 0.68 -0.72 0.1
1 4.13 413 0.407 -11.742 -0.934 10.407 24.109 16.571 -869.883 -329.935 -2354.966 -0.243 1.964 1.571 -0.11 0.68 -0.72 0.1
1 4.14 414 0.527 -11.344 -1.058 9.674 26.398 14.221 -899.864 -509.968 -2519.858 -0.387 1.567 1.713 -0.1 0.68 -0.72 0.1
1 4.15 415 0.848 -10.961 -1.312 5.554 27.710 11.261 -1034.926 -464.997 -2444.907 -0.731 1.185 1.982 -0.1 0.67 -0.72 0.1
1 4.16 416 1.116 -10.516 -1.619 3.296 30.335 10.925 -1034.926 -464.997 -2444.907 -1.016 0.740 2.297 -0.1 0.67 -0.72 0.1
1 4.17 417 1.590 -10.224 -1.331 2.808 29.175 10.468 -869.883 -419.876 -2429.917 -1.504 0.447 2.006 -0.1 0.68 -0.72 0.1
1 4.18 418 1.796 -10.865 1.920 -9.216 7.965 2.350 -869.883 -449.857 -2384.946 -1.716 1.088 -1.259 -0.1 0.68 -0.72 0.1
1 4.19 419 0.709 -11.751 0.412 -10.986 0.183 -6.317 -869.883 -449.857 -2384.946 -0.625 1.973 0.233 -0.1 0.68 -0.72 0.1
1 4.20 420 -0.527 -11.277 1.341 -14.710 7.843 -19.196 -779.942 -464.997 -2549.989 0.637 1.496 -0.735 -0.1 0.68 -0.72 0.09
1 4.21 421 -1.264 -10.348 0.747 -32.471 9.094 -33.447 -914.854 -494.978 -2564.979 1.410 0.566 -0.166 -0.1 0.68 -0.72 0.09
1 4.22 422 -1.360 -11.253 -0.436 -39.124 11.993 -34.210 -764.952 -419.876 -2429.917 1.548 1.469 0.966 -0.1 0.68 -0.72 0.09
1 4.23 423 -1.183 -11.440 0.283 -17.151 9.186 -26.093 -764.952 -419.876 -2429.917 1.414 1.654 0.196 -0.1 0.68 -0.72 0.09
1 4.24 424 -0.948 -10.717 1.135 -13.428 13.092 -19.775 -794.932 -419.876 -2564.979 1.217 0.931 -0.676 -0.1 0.68 -0.72 0.09
1 4.25 425 -0.579 -11.200 1.403 -13.428 18.066 -12.634 -854.893 -434.867 -2414.927 0.874 1.415 -0.959 -0.1 0.68 -0.72 0.08
1 4.26 426 -0.536 -11.263 2.198 -7.538 13.245 -3.815 -854.893 -434.867 -2414.927 0.854 1.477 -1.773 -0.1 0.68 -0.72 0.08
1 4.27 427 -0.450 -10.779 2.797 -7.080 7.690 -1.892 -854.893 -314.945 -2414.927 0.781 0.993 -2.391 -0.1 0.68 -0.72 0.08
1 4.28 428 -0.220 -10.535 2.993 -0.336 4.456 -6.531 -974.965 -389.896 -2444.907 0.556 0.749 -2.595 -0.1 0.69 -0.72 0.08
1 4.29 429 0.297 -9.615 3.323 6.378 5.432 -7.080 -764.952 -299.955 -2564.979 0.051 -0.170 -2.922 -0.1 0.68 -0.72 0.08
1 4.30 430 0.685 -8.993 3.438 11.719 12.817 -5.890 -764.952 -299.955 -2564.979 -0.328 -0.791 -3.002 -0.1 0.68 -0.72 0.08
1 4.31 431 1.058 -8.246 3.544 18.555 19.043 -9.430 -944.984 -449.857 -2324.985 -0.691 -1.535 -3.062 -0.1 0.68 -0.72 0.08
1 4.32 432 1.724 -7.130 3.759 23.682 34.149 -22.064 -824.913 -389.896 -2369.956 -1.336 -2.647 -3.222 -0.1 0.68 -0.72 0.08
1 4.33 433 1.537 -6.623 2.998 16.602 40.558 -26.917 -824.913 -389.896 -2369.956 -1.120 -3.152 -2.422 -0.1 0.68 -0.72 0.08
1 4.34 434 0.967 -7.657 2.715 -3.174 38.941 -28.381 -779.942 -389.896 -2474.888 -0.472 -2.111 -2.095 -0.1 0.68 -0.73 0.07
1 4.35 435 0.790 -8.500 2.193 -4.944 38.818 -21.881 -944.984 -419.876 -2384.946 -0.257 -1.266 -1.575 -0.1 0.68 -0.73 0.07
1 4.36 436 0.766 -8.969 2.126 -3.174 38.696 -14.313 -914.854 -494.978 -2504.868 -0.205 -0.796 -1.511 -0.1 0.68 -0.73 0.06
1 4.37 437 0.713 -9.165 1.844 -12.817 34.577 -13.611 -914.854 -494.978 -2504.868 -0.132 -0.597 -1.219 -0.1 0.68 -0.73 0.06
1 4.38 438 0.407 -10.233 1.676 -30.670 30.426 -12.299 -899.864 -509.968 -2414.927 0.194 0.471 -1.063 -0.1 0.68 -0.73 0.06
1 4.39 439 -0.321 -11.880 1.489 -24.017 23.682 -10.315 -974.965 -434.867 -2414.927 0.937 2.117 -0.913 -0.1 0.68 -0.73 0.06
1 4.40 440 -0.584 -12.086 1.446 -9.064 20.111 -8.423 -974.965 -434.867 -2414.927 1.215 2.322 -0.908 -0.1 0.68 -0.72 0.05
1 4.41 441 -1.111 -12.082 1.504 -1.190 14.252 -1.709 -944.984 -419.876 -2504.868 1.755 2.317 -0.981 -0.09 0.68 -0.72 0.05
1 4.42 442 -0.872 -10.841 1.518 7.355 8.301 8.606 -764.952 -524.958 -2429.917 1.517 1.077 -0.988 -0.09 0.68 -0.72 0.05
1 4.43 443 -0.579 -10.315 1.513 5.585 9.491 18.280 -779.942 -464.997 -2414.927 1.209 0.550 -0.970 -0.09 0.68 -0.72 0.05
1 4.44 444 -0.244 -9.644 1.192 5.951 10.834 26.428 -779.942 -464.997 -2414.927 0.834 -0.122 -0.632 -0.09 0.68 -0.73 0.05
1 4.45 445 -0.043 -9.386 1.178 6.042 12.329 30.731 -734.971 -329.935 -2324.985 0.584 -0.382 -0.601 -0.09 0.68 -0.73 0.06
1 4.46 446 0.129 -9.070 1.106 5.432 16.632 35.950 -914.854 -419.876 -2384.946 0.360 -0.700 -0.513 -0.09 0.68 -0.73 0.06
1 4.47 447 -0.105 -8.940 0.943 5.157 15.869 32.868 -914.854 -419.876 -2384.946 0.538 -0.831 -0.336 -0.08 0.68 -0.73 0.06
1 4.48 448 -0.374 -8.797 0.924 3.815 14.954 30.182 -869.883 -449.857 -2429.917 0.752 -0.976 -0.304 -0.08 0.68 -0.73 0.06
1 4.49 449 -0.656 -8.926 0.642 1.312 6.744 32.898 -734.971 -419.876 -2354.966 0.936 -0.849 -0.004 -0.08 0.68 -0.73 0.06
1 4.50 450 -0.508 -8.663 0.886 2.625 2.197 29.877 -704.991 -464.997 -2339.976 0.733 -1.114 -0.244 -0.08 0.68 -0.73 0.06
1 4.51 451 -0.263 -8.672 0.694 3.143 0.946 24.933 -704.991 -464.997 -2339.976 0.446 -1.105 -0.047 -0.07 0.68 -0.73 0.07
1 4.52 452 -0.235 -8.763 0.766 6.012 -2.411 18.066 -824.913 -539.948 -2294.855 0.382 -1.014 -0.111 -0.07 0.68 -0.73 0.07
1 4.53 453 -0.326 -8.840 0.646 8.057 -5.280 15.320 -659.870 -494.978 -2354.966 0.450 -0.937 0.021 -0.07 0.68 -0.73 0.07
1 4.54 454 -0.479 -8.399 0.508 9.827 -10.712 14.862 -659.870 -494.978 -2354.966 0.581 -1.377 0.173 -0.07 0.68 -0.73 0.07
1 4.55 455 -0.632 -8.433 0.345 8.301 -13.123 11.292 -659.870 -329.935 -2384.946 0.711 -1.342 0.351 -0.07 0.68 -0.73 0.07
1 4.56 456 -0.699 -8.160 0.374 5.493 -17.548 4.944 -614.899 -374.906 -2504.868 0.754 -1.613 0.349 -0.07 0.68 -0.73 0.08
1 4.57 457 -0.690 -8.260 0.402 3.265 -20.081 2.899 -569.929 -389.896 -2294.855 0.742 -1.512 0.328 -0.07 0.68 -0.73 0.08
1 4.58 458 -0.632 -8.346 0.048 0.092 -23.499 3.296 -569.929 -389.896 -2294.855 0.683 -1.426 0.687 -0.08 0.68 -0.73 0.08
1 4.59 459 -0.584 -8.476 -0.048 -2.319 -27.222 0.397 -539.948 -494.978 -2504.868 0.636 -1.296 0.783 -0.08 0.68 -0.73 0.08
1 4.60 460 -0.532 -8.854 -0.129 -4.395 -31.067 -3.387 -584.919 -449.857 -2354.966 0.589 -0.918 0.861 -0.08 0.68 -0.73 0.08
1 4.61 461 -0.632 -9.180 -0.172 -5.646 -34.027 -6.683 -584.919 -449.857 -2354.966 0.698 -0.593 0.894 -0.08 0.68 -0.73 0.08
1 4.62 462 -0.575 -9.328 -0.187 -5.280 -34.882 -10.681 -794.932 -524.958 -2384.946 0.651 -0.446 0.894 -0.08 0.68 -0.73 0.08
1 4.63 463 -0.737 -9.366 -0.096 -7.172 -38.147 -15.381 -794.932 -524.958 -2384.946 0.828 -0.409 0.789 -0.09 0.68 -0.73 0.08
1 4.64 464 -0.804 -9.606 0.053 -9.796 -44.006 -18.585 -794.932 -449.857 -2384.946 0.942 -0.171 0.606 -0.09 0.68 -0.73 0.09
1 4.65 465 -0.804 -9.151 -0.105 -10.864 -44.464 -17.853 -794.932 -449.857 -2384.946 0.967 -0.627 0.743 -0.09 0.68 -0.72 0.09
1 4.66 466 -0.862 -9.003 -0.278 -13.550 -47.730 -22.308 -734.971 -524.958 -2324.985 1.051 -0.776 0.894 -0.1 0.68 -0.72 0.09
1 4.67 467 -0.776 -9.113 -0.120 -15.717 -52.887 -21.362 -914.854 -329.935 -2429.917 0.997 -0.667 0.708 -0.1 0.68 -0.72 0.09
1 4.68 468 -0.646 -8.974 0.086 -15.961 -52.460 -17.212 -914.854 -329.935 -2429.917 0.898 -0.807 0.472 -0.11 0.68 -0.72 0.09
1 4.69 469 -0.579 -8.935 0.273 -15.259 -51.239 -12.512 -839.903 -374.906 -2429.917 0.857 -0.846 0.256 -0.11 0.68 -0.72 0.1
1 4.70 470 -0.685 -8.998 0.690 -14.038 -51.483 -6.470 -839.903 -374.906 -2429.917 0.982 -0.785 -0.188 -0.11 0.68 -0.72 0.1
1 4.71 471 -0.292 -9.558 1.302 -6.805 -41.901 4.059 -1019.936 -329.935 -2279.865 0.601 -0.226 -0.840 -0.12 0.68 -0.72 0.1
1 4.72 472 -0.268 -9.687 1.556 0.061 -31.952 12.085 -1019.936 -329.935 -2279.865 0.567 -0.097 -1.096 -0.12 0.68 -0.72 0.11
1 4.73 473 0.105 -9.922 1.896 4.639 -23.132 15.961 -1079.896 -434.867 -2444.907 0.172 0.137 -1.426 -0.12 0.68 -0.72 0.11
1 4.74 474 0.350 -10.200 1.657 7.172 -14.587 17.426 -944.984 -374.906 -2429.917 -0.096 0.415 -1.168 -0.12 0.68 -0.72 0.11
1 4.75 475 0.895 -10.506 1.125 9.583 -10.651 15.167 -944.984 -374.906 -2429.917 -0.664 0.722 -0.615 -0.12 0.68 -0.72 0.11
1 4.76 476 1.657 -10.827 0.215 5.707 -9.979 13.123 -1019.936 -299.955 -2429.917 -1.443 1.044 0.314 -0.12 0.68 -0.72 0.11
1 4.77 477 1.551 -11.517 -0.441 6.256 -10.590 11.292 -1019.936 -299.955 -2429.917 -1.356 1.733 0.981 -0.12 0.68 -0.72 0.11
1 4.78 478 0.187 -12.000 -1.125 5.615 -16.144 8.972 -944.984 -419.876 -2204.914 -0.019 2.218 1.686 -0.12 0.68 -0.72 0.12
1 4.79 479 -0.972 -12.168 -1.408 1.678 -19.562 10.681 -944.984 -419.876 -2204.914 1.129 2.386 1.976 -0.12 0.68 -0.72 0.12
1 4.80 480 -1.657 -12.072 -1.772 -5.432 -26.306 10.712 -1004.945 -434.867 -2369.956 1.800 2.290 2.341 -0.12 0.67 -0.72 0.12
1 4.81 481 -1.839 -11.813 -1.781 -10.956 -32.806 5.493 -944.984 -254.984 -2324.985 1.972 2.030 2.340 -0.13 0.68 -0.72 0.12
1 4.82 482 -2.069 -11.593 -1.695 -12.787 -33.447 4.974 -944.984 -254.984 -2324.985 2.197 1.809 2.237 -0.13 0.68 -0.72 0.13
1 4.83 483 -2.117 -11.287 -1.504 -7.355 -36.255 -6.165 -1004.945 -314.945 -2294.855 2.243 1.501 2.027 -0.13 0.68 -0.71 0.13
1 4.84 484 -2.366 -12.364 1.580 -11.139 -33.783 4.639 -1004.945 -314.945 -2294.855 2.503 2.578 -1.070 -0.13 0.68 -0.71 0.13
1 4.85 485 -0.508 -12.709 0.919 -17.761 -14.374 13.977 -1019.936 -329.935 -2324.985 0.651 2.923 -0.420 -0.13 0.68 -0.71 0.13
1 4.86 486 2.126 -12.623 1.676 -16.693 6.226 32.166 -1184.978 -314.945 -2264.875 -2.040 2.833 -1.232 -0.13 0.68 -0.71 0.13
1 4.87 487 2.854 -12.474 0.005 -4.913 23.712 38.788 -1079.896 -239.994 -2219.904 -2.815 2.684 0.422 -0.13 0.68 -0.71 0.13
1 4.88 488 2.413 -11.698 -1.202 -6.744 9.308 48.493 -869.883 -374.906 -2354.966 -2.439 1.907 1.621 -0.13 0.68 -0.71 0.14
1 4.89 489 1.087 -11.100 0.239 -9.003 -0.885 39.063 -869.883 -374.906 -2354.966 -1.181 1.309 0.171 -0.13 0.68 -0.71 0.14
1 4.90 490 0.771 -11.483 1.528 -5.554 -2.960 19.653 -1094.887 -224.854 -2249.884 -0.917 1.692 -1.132 -0.12 0.68 -0.71 0.14
1 4.91 491 0.469 -11.799 1.642 -0.793 -0.031 25.513 -1094.887 -224.854 -2249.884 -0.646 2.008 -1.257 -0.12 0.68 -0.71 0.14
1 4.92 492 -0.680 -10.300 1.192 1.831 -11.719 17.914 -914.854 -299.955 -2249.884 0.433 0.511 -0.806 -0.12 0.68 -0.71 0.14
1 4.93 493 -0.843 -9.917 1.480 0.061 -16.968 11.108 -914.854 -299.955 -2249.884 0.574 0.129 -1.087 -0.12 0.68 -0.71 0.15
1 4.94 494 -1.350 -10.535 2.653 -9.705 -31.677 -3.510 -944.984 -299.955 -2354.966 1.078 0.747 -2.256 -0.12 0.68 -0.71 0.15
1 4.95 495 -1.566 -10.295 3.084 -7.080 -37.628 -4.822 -929.994 -164.893 -2219.904 1.300 0.507 -2.692 -0.12 0.68 -0.71 0.15
1 4.96 496 -1.662 -9.012 3.218 2.899 -38.208 -9.857 -929.994 -164.893 -2219.904 1.408 -0.777 -2.831 -0.13 0.68 -0.71 0.15
1 4.97 497 -1.887 -8.308 3.098 1.678 -36.408 -9.735 -1064.906 -224.854 -2384.946 1.645 -1.480 -2.681 -0.13 0.68 -0.71 0.15
1 4.98 498 -1.465 -7.705 2.715 -12.634 -38.513 19.165 -1064.906 -224.854 -2384.946 1.236 -2.082 -2.269 -0.13 0.68 -0.71 0.15
1 4.99 499 -0.623 -7.542 2.691 -11.261 -33.692 22.797 -1004.945 -314.945 -2219.904 0.365 -2.244 -2.238 -0.13 0.68 -0.71 0.16
1 5.00 500 0.555 -7.820 2.006 -5.554 -21.423 27.039 -989.955 -254.984 -2174.933 -0.876 -1.966 -1.580 -0.13 0.68 -0.7 0.16
1 5.01 501 0.905 -8.466 1.801 -9.003 -17.181 24.139 -1004.945 -314.945 -2264.875 -1.262 -1.318 -1.381 -0.13 0.68 -0.7 0.16
1 5.02 502 1.154 -9.161 1.748 -13.672 -13.428 24.384 -1079.896 -359.916 -2159.943 -1.544 -0.623 -1.342 -0.13 0.68 -0.7 0.17
1 5.03 503 1.437 -9.836 1.595 -13.214 -12.482 19.928 -1079.896 -359.916 -2159.943 -1.848 0.053 -1.197 -0.13 0.68 -0.7 0.17
1 5.04 504 1.805 -10.817 1.432 -13.763 -11.993 12.939 -1139.857 -299.955 -2249.884 -2.229 1.034 -1.043 -0.13 0.68 -0.7 0.17
1 5.05 505 1.997 -11.521 1.336 -2.045 -12.726 -2.533 -1139.857 -299.955 -2249.884 -2.426 1.738 -0.960 -0.13 0.68 -0.7 0.17
1 5.06 506 1.992 -11.234 1.312 6.348 -12.604 -10.315 -944.984 -374.906 -2174.933 -2.419 1.450 -0.941 -0.13 0.68 -0.7 0.17
1 5.07 507 1.331 -10.022 1.168 10.376 -13.062 -18.890 -899.864 -164.893 -2264.875 -1.718 0.238 -0.773 -0.14 0.68 -0.7 0.17
1 5.08 508 1.106 -9.400 1.001 7.324 -14.862 -23.377 -1004.945 -314.945 -2219.904 -1.447 -0.385 -0.583 -0.14 0.68 -0.7 0.17
1 5.09 509 1.063 -9.228 1.077 1.160 -17.304 -28.015 -989.955 -329.935 -2324.985 -1.354 -0.558 -0.644 -0.14 0.68 -0.7 0.17
1 5.10 510 1.384 -10.085 0.886 -3.265 -17.853 -43.793 -989.955 -329.935 -2324.985 -1.611 0.297 -0.449 -0.14 0.68 -0.7 0.17
1 5.11 511 0.996 -9.151 1.408 12.634 -16.388 -20.538 -854.893 -209.863 -2159.943 -1.153 -0.638 -0.965 -0.15 0.68 -0.7 0.17
1 5.12 512 0.565 -8.040 1.532 15.198 -11.322 -25.330 -854.893 -209.863 -2159.943 -0.682 -1.748 -1.058 -0.15 0.67 -0.71 0.16
1 5.13 513 0.297 -8.246 1.384 5.280 -6.226 -30.060 -1034.926 -209.863 -2219.904 -0.376 -1.541 -0.881 -0.15 0.67 -0.71 0.16
1 5.14 514 0.077 -8.351 1.240 9.583 -1.862 -30.487 -1034.926 -284.964 -2264.875 -0.110 -1.435 -0.726 -0.15 0.67 -0.71 0.16
1 5.15 515 0.407 -8.260 0.934 18.433 -3.113 -26.764 -1094.887 -149.902 -2129.962 -0.352 -1.524 -0.381 -0.15 0.67 -0.71 0.16
1 5.16 516 0.737 -8.466 0.895 17.334 -1.862 -26.428 -1079.896 -314.945 -2264.875 -0.640 -1.316 -0.315 -0.16 0.67 -0.71 0.16
1 5.17 517 0.891 -8.581 0.776 15.717 -1.709 -26.215 -1079.896 -314.945 -2264.875 -0.752 -1.199 -0.169 -0.16 0.67 -0.71 0.16
1 5.18 518 1.317 -8.811 0.781 13.886 -0.488 -21.332 -1139.857 -179.883 -2324.985 -1.139 -0.967 -0.151 -0.16 0.67 -0.71 0.16
1 5.19 519 1.212 -8.715 0.690 14.435 1.312 -18.982 -1139.857 -179.883 -2324.985 -0.993 -1.061 -0.037 -0.16 0.66 -0.71 0.16
1 5.20 520 0.939 -8.844 0.551 10.010 4.486 -12.604 -1259.929 -284.964 -2264.875 -0.692 -0.929 0.125 -0.16 0.66 -0.71 0.15
1 5.21 521 0.996 -8.993 0.541 6.561 7.782 -4.486 -1199.968 -254.984 -2354.966 -0.728 -0.779 0.152 -0.16 0.66 -0.72 0.15
1 5.22 522 1.202 -9.376 0.316 3.662 10.925 5.981 -1169.988 -329.935 -2354.966 -0.913 -0.394 0.395 -0.16 0.66 -0.72 0.15
1 5.23 523 1.523 -9.433 0.330 2.350 13.977 12.177 -1259.929 -359.916 -2264.875 -1.237 -0.336 0.385 -0.16 0.66 -0.72 0.15
1 5.24 524 1.595 -9.644 0.316 1.190 16.510 16.815 -1259.929 -359.916 -2264.875 -1.320 -0.126 0.401 -0.16 0.66 -0.72 0.15
1 5.25 525 1.724 -9.802 0.330 0.458 17.670 19.470 -1229.949 -119.922 -2369.956 -1.466 0.032 0.387 -0.16 0.66 -0.72 0.15
1 5.26 526 1.475 -9.745 0.148 -0.336 19.165 19.714 -1229.949 -119.922 -2369.956 -1.236 -0.026 0.568 -0.16 0.66 -0.72 0.15
1 5.27 527 1.504 -9.601 0.086 -4.211 21.088 23.499 -1169.988 -329.935 -2384.946 -1.286 -0.171 0.626 -0.15 0.66 -0.72 0.15
1 5.28 528 1.245 -9.184 0.555 -0.092 26.550 25.269 -1109.877 -389.896 -2294.855 -1.053 -0.588 0.149 -0.15 0.66 -0.72 0.15
1 5.29 529 1.044 -9.103 -0.129 1.892 27.008 27.435 -1109.877 -389.896 -2294.855 -0.881 -0.670 0.830 -0.15 0.66 -0.72 0.15
1 5.30 530 1.144 -9.558 -0.029 -21.484 22.430 27.649 -1169.988 -374.906 -2354.966 -1.053 -0.218 0.713 -0.15 0.67 -0.72 0.15
1 5.31 531 0.963 -9.821 0.292 -20.935 23.987 26.001 -1169.988 -374.906 -2354.966 -0.905 0.043 0.354 -0.14 0.67 -0.71 0.15
1 5.32 532 0.776 -10.530 0.508 -5.676 25.086 23.499 -1094.887 -224.854 -2354.966 -0.750 0.750 0.109 -0.14 0.67 -0.71 0.15
1 5.33 533 0.378 -10.190 0.187 -1.770 17.731 20.172 -1094.887 -224.854 -2354.966 -0.382 0.409 0.425 -0.14 0.67 -0.71 0.15
1 5.34 534 0.077 -9.989 0.283 -2.563 16.571 14.282 -1079.896 -239.994 -2264.875 -0.104 0.208 0.325 -0.14 0.67 -0.71 0.15
1 5.35 535 -0.302 -10.257 0.402 0.488 14.435 11.169 -974.965 -314.945 -2339.976 0.253 0.476 0.202 -0.14 0.67 -0.71 0.15
1 5.36 536 -0.397 -10.061 0.086 -2.991 8.209 3.754 -989.955 -179.883 -2354.966 0.319 0.280 0.518 -0.13 0.67 -0.71 0.15
1 5.37 537 -0.613 -9.927 0.292 -6.073 5.798 -0.916 -1079.896 -284.964 -2339.976 0.530 0.145 0.302 -0.13 0.67 -0.71 0.15
1 5.38 538 -0.809 -10.281 0.057 4.730 9.522 0.214 -1079.896 -284.964 -2339.976 0.727 0.499 0.532 -0.13 0.67 -0.71 0.15
1 5.39 539 -0.536 -10.142 -0.441 12.146 10.529 7.172 -1019.936 -254.984 -2354.966 0.445 0.361 1.039 -0.13 0.67 -0.71 0.15
1 5.40 540 -0.235 -10.827 -0.536 3.815 8.240 1.495 -1019.936 -254.984 -2354.966 0.131 1.046 1.144 -0.13 0.67 -0.71 0.15
1 5.41 541 -0.091 -11.469 -0.742 2.563 9.674 -3.357 -854.893 -239.994 -2369.956 -0.013 1.688 1.350 -0.13 0.67 -0.71 0.15
1 5.42 542 0.407 -11.627 -0.761 12.451 6.683 -5.768 -914.854 -224.854 -2324.985 -0.503 1.846 1.376 -0.13 0.67 -0.71 0.15
1 5.43 543 0.704 -11.009 -1.044 19.775 10.223 2.686 -914.854 -224.854 -2324.985 -0.789 1.230 1.674 -0.13 0.67 -0.71 0.14
1 5.44 544 1.475 -10.611 -1.896 13.001 10.468 2.075 -989.955 -299.955 -2324.985 -1.565 0.836 2.583 -0.13 0.67 -0.72 0.14
1 5.45 545 1.824 -10.650 -1.973 5.341 9.796 0.305 -989.955 -299.955 -2324.985 -1.917 0.876 2.678 -0.13 0.67 -0.72 0.14
1 5.46 546 1.982 -10.851 -1.279 1.984 5.737 -4.211 -839.903 -224.854 -2249.884 -2.075 1.077 1.991 -0.13 0.67 -0.72 0.14
1 5.47 547 1.365 -11.569 1.164 -4.822 -13.550 -9.094 -839.903 -224.854 -2249.884 -1.447 1.796 -0.450 -0.13 0.67 -0.72 0.14
1 5.48 548 0.589 -11.708 0.718 -9.705 -4.303 -11.871 -944.984 -149.902 -2324.985 -0.654 1.934 -0.011 -0.13 0.67 -0.72 0.14
1 5.49 549 -1.551 -11.545 1.111 -19.043 -1.465 -23.956 -1004.945 -284.964 -2339.976 1.509 1.770 -0.421 -0.13 0.67 -0.72 0.14
1 5.50 550 -2.677 -11.086 1.020 -20.996 -0.671 -28.015 -1004.945 -284.964 -2339.976 2.669 1.308 -0.357 -0.13 0.67 -0.72 0.14
1 5.51 551 -2.121 -10.770 0.584 -12.604 9.460 -19.440 -1004.945 -314.945 -2369.956 2.193 0.989 0.026 -0.13 0.67 -0.72 0.14
1 5.52 552 -1.159 -10.640 1.082 -7.965 10.437 -17.059 -1004.945 -314.945 -2369.956 1.259 0.859 -0.489 -0.13 0.67 -0.72 0.14
1 5.53 553 -0.306 -10.406 1.274 3.418 17.059 -13.367 -1034.926 -89.941 -2369.956 0.427 0.624 -0.684 -0.13 0.67 -0.72 0.13
1 5.54 554 -0.211 -10.501 2.021 4.272 21.210 -5.524 -1034.926 -89.941 -2369.956 0.343 0.721 -1.420 -0.13 0.67 -0.72 0.13
1 5.55 555 -0.469 -10.549 3.069 -0.519 17.151 -1.648 -1019.936 -224.854 -2279.865 0.605 0.770 -2.454 -0.13 0.67 -0.72 0.13
1 5.56 556 -0.043 -10.750 3.199 -7.385 12.085 -11.047 -1109.877 -164.893 -2294.855 0.183 0.971 -2.585 -0.13 0.67 -0.72 0.13
1 5.57 557 0.235 -10.152 2.878 -2.167 9.460 -12.421 -1109.877 -164.893 -2294.855 -0.081 0.372 -2.274 -0.13 0.67 -0.72 0.13
1 5.58 558 0.177 -9.649 3.093 7.629 15.472 -10.559 -944.984 -149.902 -2324.985 -0.004 -0.131 -2.493 -0.13 0.67 -0.72 0.13
1 5.59 559 0.129 -9.208 3.500 10.071 23.193 -21.942 -1004.945 -239.994 -2264.875 0.082 -0.567 -2.840 -0.13 0.67 -0.72 0.13
1 5.60 560 0.637 -8.916 3.802 9.949 25.513 -30.304 -869.883 -299.955 -2459.897 -0.390 -0.856 -3.103 -0.13 0.67 -0.72 0.12
1 5.61 561 1.044 -7.983 3.577 2.411 30.914 -35.217 -869.883 -299.955 -2459.897 -0.749 -1.785 -2.840 -0.13 0.67 -0.72 0.12
1 5.62 562 1.279 -7.049 3.031 -7.874 32.623 -35.767 -824.913 -284.964 -2414.927 -0.931 -2.716 -2.280 -0.13 0.67 -0.72 0.12
1 5.63 563 1.451 -7.025 2.686 -25.574 30.518 -41.290 -1004.945 -164.893 -2474.888 -1.050 -2.739 -1.952 -0.13 0.67 -0.72 0.11
1 5.64 564 1.140 -8.907 2.054 -22.278 34.180 -26.520 -1004.945 -164.893 -2474.888 -0.680 -0.858 -1.358 -0.13 0.67 -0.72 0.11
1 5.65 565 1.053 -9.026 1.523 -17.670 37.293 -17.944 -929.994 -239.994 -2414.927 -0.551 -0.738 -0.862 -0.13 0.67 -0.72 0.1
1 5.66 566 0.790 -10.731 1.288 -34.515 28.748 -18.890 -944.984 -224.854 -2279.865 -0.226 0.967 -0.667 -0.13 0.67 -0.72 0.1
1 5.67 567 0.484 -11.775 1.164 -38.361 25.269 -16.693 -869.883 -149.902 -2324.985 0.108 2.010 -0.590 -0.13 0.67 -0.72 0.09
1 5.68 568 -0.278 -12.790 1.528 -23.010 22.247 -16.815 -869.883 -149.902 -2324.985 0.895 3.024 -1.005 -0.13 0.68 -0.72 0.09
1 5.69 569 -0.532 -12.441 1.389 -9.338 18.219 -14.191 -1064.906 -149.902 -2324.985 1.173 2.674 -0.891 -0.13 0.68 -0.72 0.09
1 5.70 570 -0.996 -12.201 1.427 -7.202 14.801 -7.874 -1079.896 -119.922 -2444.907 1.657 2.436 -0.940 -0.13 0.68 -0.72 0.09
1 5.71 571 -0.910 -10.856 1.523 -1.404 13.397 3.082 -1079.896 -119.922 -2444.907 1.580 1.090 -1.042 -0.13 0.68 -0.72 0.09
1 5.72 572 -0.613 -10.257 1.551 0.122 15.472 8.453 -1034.926 -119.922 -2294.855 1.281 0.492 -1.071 -0.13 0.68 -0.72 0.09
1 5.73 573 -0.019 -9.295 1.499 7.202 18.158 17.639 -974.965 -89.941 -2414.927 0.643 -0.473 -0.997 -0.13 0.68 -0.72 0.09
1 5.74 574 -0.101 -8.897 1.389 10.407 19.592 22.339 -1109.877 -119.922 -2294.855 0.689 -0.871 -0.863 -0.13 0.68 -0.72 0.09
1 5.75 575 -0.235 -8.452 1.173 15.411 23.895 33.539 -1109.877 -119.922 -2294.855 0.778 -1.317 -0.621 -0.12 0.68 -0.72 0.09
1 5.76 576 -0.148 -8.299 1.010 17.548 20.081 37.140 -1079.896 -164.893 -2264.875 0.639 -1.472 -0.432 -0.12 0.68 -0.72 0.09
1 5.77 577 -0.326 -8.107 1.049 19.074 21.210 37.567 -869.883 -179.883 -2384.946 0.760 -1.664 -0.439 -0.12 0.67 -0.72 0.09
1 5.78 578 -0.297 -8.313 0.857 10.223 20.844 32.959 -869.883 -179.883 -2384.946 0.676 -1.459 -0.218 -0.11 0.67 -0.72 0.09
1 5.79 579 -0.536 -8.763 0.804 9.308 16.876 38.452 -974.965 -119.922 -2294.855 0.866 -1.009 -0.145 -0.11 0.67 -0.72 0.09
1 5.80 580 -0.311 -8.385 0.752 14.496 10.162 26.642 -794.932 -74.951 -2384.946 0.532 -1.388 -0.054 -0.11 0.67 -0.73 0.1
1 5.81 581 -0.201 -8.323 0.852 13.123 8.331 20.660 -794.932 -179.883 -2429.917 0.387 -1.449 -0.132 -0.1 0.67 -0.73 0.1
1 5.82 582 -0.618 -8.437 0.536 14.038 2.869 21.851 -794.932 -179.883 -2429.917 0.774 -1.333 0.207 -0.1 0.67 -0.73 0.1
1 5.83 583 -1.073 -8.409 0.421 11.719 -0.793 17.761 -690.000 -179.883 -2354.966 1.199 -1.361 0.344 -0.1 0.67 -0.73 0.1
1 5.84 584 -1.025 -7.963 0.527 9.979 -5.219 9.949 -764.952 -29.980 -2459.897 1.129 -1.805 0.256 -0.1 0.67 -0.73 0.1
1 5.85 585 -1.106 -8.165 0.388 7.874 -7.507 4.089 -764.952 -29.980 -2459.897 1.201 -1.602 0.410 -0.1 0.67 -0.73 0.1
1 5.86 586 -0.910 -8.375 0.326 5.402 -10.803 -1.251 -704.991 -119.922 -2444.907 1.002 -1.391 0.483 -0.1 0.67 -0.73 0.1
1 5.87 587 -0.666 -8.792 0.211 5.829 -10.498 -4.303 -704.991 -89.941 -2474.888 0.760 -0.974 0.607 -0.1 0.67 -0.73 0.1
1 5.88 588 -0.575 -9.491 -0.134 5.798 -13.153 -5.585 -704.991 -89.941 -2549.989 0.686 -0.273 0.968 -0.1 0.67 -0.73 0.1
1 5.89 589 -0.551 -9.635 0.005 4.700 -16.998 -8.453 -704.991 -89.941 -2549.989 0.669 -0.129 0.832 -0.1 0.67 -0.73 0.1
1 5.90 590 -0.603 -10.214 0.014 4.883 -19.348 -7.965 -899.864 -359.916 -2369.956 0.733 0.451 0.823 -0.1 0.67 -0.73 0.1
1 5.91 591 -0.469 -10.324 -0.019 7.385 -22.064 -9.460 -899.864 -89.941 -2519.858 0.610 0.561 0.858 -0.11 0.67 -0.73 0.11
1 5.92 592 -0.522 -10.267 0.196 8.392 -23.804 -12.146 -899.864 -89.941 -2519.858 0.677 0.504 0.649 -0.11 0.67 -0.73 0.11
1 5.93 593 -0.642 -9.932 0.072 4.486 -28.381 -15.625 -899.864 -14.990 -2414.927 0.815 0.170 0.780 -0.11 0.67 -0.73 0.11
1 5.94 594 -0.733 -9.453 -0.043 0.885 -34.241 -16.052 -824.913 -119.922 -2444.907 0.928 -0.308 0.898 -0.11 0.67 -0.73 0.11
1 5.95 595 -1.197 -8.821 -0.192 -3.510 -40.070 -18.250 -734.971 -74.951 -2504.868 1.439 -0.940 1.033 -0.12 0.67 -0.73 0.11
1 5.96 596 -1.164 -8.543 0.019 -5.859 -43.030 -20.569 -734.971 -74.951 -2504.868 1.430 -1.219 0.808 -0.12 0.67 -0.73 0.11
1 5.97 597 -0.694 -8.409 -0.057 -7.263 -41.840 -23.773 -854.893 -119.922 -2414.927 1.000 -1.352 0.875 -0.12 0.67 -0.73 0.11
1 5.98 598 -0.455 -8.615 -0.067 -8.423 -41.565 -21.393 -989.955 -104.932 -2384.946 0.802 -1.146 0.872 -0.13 0.67 -0.73 0.11
1 5.99 599 -0.077 -9.012 0.278 -7.782 -39.276 -12.848 -989.955 -104.932 -2384.946 0.460 -0.748 0.513 -0.13 0.67 -0.73 0.11
1 6.00 600 -0.211 -9.467 0.886 -2.716 -29.114 5.371 -1034.926 -89.941 -2444.907 0.611 -0.294 -0.111 -0.13 0.67 -0.73 0.11
1 6.01 601 -0.364 -9.783 1.346 -0.366 -20.905 16.724 -1079.896 -119.922 -2474.888 0.762 0.021 -0.578 -0.14 0.67 -0.72 0.12
1 6.02 602 -0.287 -10.118 1.686 1.160 -13.336 24.658 -1079.896 -119.922 -2474.888 0.664 0.356 -0.917 -0.14 0.67 -0.72 0.12
1 6.03 603 -0.053 -10.295 1.269 6.378 -5.157 20.752 -1154.998 14.990 -2594.959 0.353 0.532 -0.481 -0.13 0.66 -0.72 0.12
1 6.04 604 0.776 -10.305 0.718 6.958 -3.845 14.282 -1169.988 -224.854 -2459.897 -0.505 0.542 0.085 -0.13 0.66 -0.72 0.12
1 6.05 605 1.384 -10.549 0.029 9.216 -5.035 5.096 -1004.945 14.990 -2444.907 -1.128 0.787 0.786 -0.13 0.66 -0.73 0.13
1 6.06 606 0.852 -11.234 -0.843 13.550 -6.928 4.334 -1004.945 14.990 -2444.907 -0.592 1.472 1.669 -0.13 0.66 -0.73 0.13
1 6.07 607 -0.278 -11.349 -1.192 11.017 -12.207 3.632 -1019.936 -149.902 -2504.868 0.535 1.589 2.040 -0.13 0.66 -0.73 0.13
1 6.08 608 -1.480 -11.732 -1.700 -2.075 -21.484 6.470 -1034.926 -89.941 -2474.888 1.733 1.973 2.561 -0.13 0.66 -0.73 0.13
1 6.09 609 -1.949 -11.694 -1.700 -6.561 -24.323 3.754 -1034.926 -89.941 -2474.888 2.195 1.935 2.561 -0.14 0.66 -0.73 0.13
1 6.10 610 -2.184 -11.469 -1.197 -12.604 -25.543 1.312 -1034.926 -119.922 -2624.940 2.429 1.708 2.036 -0.14 0.66 -0.72 0.13
1 6.11 611 -2.466 -13.063 1.954 -15.656 -23.499 9.979 -944.984 29.980 -2504.868 2.715 3.301 -1.135 -0.14 0.66 -0.72 0.13
1 6.12 612 -0.469 -13.662 1.331 -20.783 -6.866 27.557 -974.965 -44.971 -2549.989 0.698 3.897 -0.538 -0.14 0.66 -0.72 0.13
1 6.13 613 0.694 -14.418 1.446 -20.660 13.977 38.483 -974.965 -44.971 -2549.989 -0.509 4.650 -0.684 -0.14 0.66 -0.72 0.14
1 6.14 614 1.633 -13.829 0.067 -15.717 19.989 44.983 -944.984 -74.951 -2564.979 -1.509 4.058 0.669 -0.14 0.67 -0.72 0.14
1 6.15 615 1.762 -12.972 -0.848 -15.839 9.064 42.542 -1034.926 14.990 -2594.959 -1.708 3.198 1.561 -0.13 0.67 -0.72 0.14
1 6.16 616 1.350 -11.785 -0.675 -15.991 -1.465 22.492 -1034.926 14.990 -2594.959 -1.363 2.009 1.365 -0.13 0.67 -0.72 0.14
1 6.17 617 0.417 -11.430 0.857 -18.219 -13.702 2.472 -1079.896 -164.893 -2474.888 -0.481 1.652 -0.216 -0.13 0.67 -0.72 0.14
1 6.18 618 0.038 -11.291 1.082 -15.320 -11.688 3.754 -1004.945 14.990 -2444.907 -0.105 1.511 -0.465 -0.13 0.67 -0.71 0.14
1 6.19 619 -1.312 -9.587 0.651 -4.181 -3.143 8.270 -914.854 29.980 -2609.950 1.238 -0.194 -0.047 -0.13 0.67 -0.71 0.14
1 6.20 620 -1.666 -8.169 0.656 -4.913 -13.947 -3.601 -914.854 29.980 -2609.950 1.578 -1.612 -0.055 -0.13 0.67 -0.71 0.14
1 6.21 621 -1.178 -8.380 1.197 -13.184 -26.917 -19.745 -944.984 74.951 -2504.868 1.098 -1.402 -0.606 -0.13 0.67 -0.71 0.14
1 6.22 622 -0.340 -9.381 2.423 -12.207 -38.757 -21.271 -914.854 179.883 -2504.868 0.297 -0.402 -1.853 -0.13 0.67 -0.71 0.14
1 6.23 623 -0.402 -9.204 3.247 6.744 -36.408 -5.035 -914.854 179.883 -2504.868 0.397 -0.581 -2.691 -0.14 0.67 -0.71 0.14
1 6.24 624 -1.159 -8.236 3.357 8.881 -26.581 11.200 -914.854 0.000 -2459.897 1.168 -1.544 -2.739 -0.14 0.67 -0.71 0.15
1 6.25 625 -1.111 -7.844 3.098 -2.228 -26.886 23.071 -1094.887 74.951 -2384.946 1.090 -1.935 -2.453 -0.14 0.67 -0.71 0.15
1 6.26 626 0.038 -7.092 2.902 -21.179 -19.440 29.694 -944.984 0.000 -2429.917 -0.101 -2.688 -2.279 -0.14 0.67 -0.71 0.15
1 6.27 627 0.455 -7.360 2.528 -19.806 -8.575 32.623 -944.984 0.000 -2429.917 -0.559 -2.421 -1.935 -0.14 0.67 -0.71 0.15
1 6.28 628 0.646 -7.781 2.279 -19.959 -3.784 34.607 -1079.896 -89.941 -2444.907 -0.799 -2.001 -1.714 -0.14 0.67 -0.71 0.16
1 6.29 629 0.632 -8.610 2.131 -26.123 -0.397 29.968 -1019.936 0.000 -2504.868 -0.833 -1.174 -1.597 -0.14 0.67 -0.71 0.16
1 6.30 630 1.010 -10.683 1.973 -28.473 1.312 17.578 -1019.936 0.000 -2504.868 -1.250 0.899 -1.473 -0.14 0.68 -0.71 0.16
1 6.31 631 1.484 -12.153 1.777 -15.839 -1.373 3.967 -914.854 0.000 -2429.917 -1.745 2.368 -1.306 -0.13 0.68 -0.71 0.16
1 6.32 632 1.753 -12.651 1.853 3.906 -6.989 -1.923 -854.893 -44.971 -2339.976 -2.020 2.865 -1.416 -0.13 0.68 -0.7 0.16
1 6.33 633 1.556 -11.789 1.872 9.308 -8.331 -6.073 -899.864 44.971 -2369.956 -1.817 2.003 -1.426 -0.13 0.68 -0.71 0.16
1 6.34 634 1.097 -10.640 1.820 12.390 -6.714 -10.681 -899.864 44.971 -2369.956 -1.345 0.854 -1.355 -0.14 0.68 -0.71 0.16
1 6.35 635 0.781 -10.214 1.757 10.132 -6.500 -14.191 -914.854 29.980 -2354.966 -1.010 0.429 -1.274 -0.14 0.68 -0.71 0.16
1 6.36 636 0.694 -9.778 1.317 4.822 -11.047 -20.203 -869.883 224.854 -2429.917 -0.891 -0.007 -0.809 -0.14 0.67 -0.71 0.16
1 6.37 637 0.704 -9.496 1.288 7.751 -13.214 -24.994 -869.883 224.854 -2429.917 -0.864 -0.289 -0.764 -0.14 0.67 -0.71 0.16
1 6.38 638 0.891 -9.587 1.159 11.505 -14.557 -22.705 -944.984 -29.980 -2384.946 -1.006 -0.198 -0.618 -0.14 0.67 -0.71 0.16
1 6.39 639 0.536 -8.380 1.441 21.088 -10.956 -31.281 -944.984 149.902 -2429.917 -0.557 -1.402 -0.846 -0.14 0.67 -0.71 0.15
1 6.40 640 0.378 -8.390 1.398 17.273 -8.331 -32.379 -944.984 29.980 -2429.917 -0.349 -1.390 -0.771 -0.15 0.67 -0.71 0.15
1 6.41 641 0.192 -8.567 1.346 13.123 -2.747 -30.365 -944.984 29.980 -2429.917 -0.112 -1.211 -0.693 -0.15 0.67 -0.71 0.15
1 6.42 642 0.211 -8.576 1.025 16.510 -0.427 -31.494 -1064.906 179.883 -2354.966 -0.084 -1.200 -0.350 -0.15 0.67 -0.72 0.15
1 6.43 643 0.158 -8.955 1.307 23.956 2.655 -32.105 -1019.936 74.951 -2429.917 0.019 -0.819 -0.605 -0.15 0.66 -0.72 0.15
1 6.44 644 1.039 -8.423 0.876 26.123 -1.190 -33.569 -1019.936 74.951 -2429.917 -0.815 -1.346 -0.131 -0.15 0.66 -0.72 0.15
1 6.45 645 1.786 -8.648 0.886 23.987 3.815 -35.431 -1154.998 44.971 -2444.907 -1.513 -1.116 -0.099 -0.15 0.66 -0.72 0.15
1 6.46 646 1.417 -8.442 0.790 25.635 6.378 -32.257 -1154.998 44.971 -2444.907 -1.085 -1.317 0.036 -0.15 0.66 -0.72 0.14
1 6.47 647 1.279 -8.169 1.020 19.013 4.303 -22.827 -1064.906 0.000 -2459.897 -0.849 -1.580 -0.117 -0.16 0.66 -0.73 0.14
1 6.48 648 1.092 -8.169 0.900 16.449 7.538 -18.921 -1064.906 0.000 -2459.897 -0.630 -1.575 0.032 -0.16 0.65 -0.73 0.14
1 6.49 649 1.322 -8.279 0.953 13.672 9.674 -19.501 -1184.978 44.971 -2519.858 -0.831 -1.461 0.005 -0.16 0.65 -0.73 0.14
1 6.50 650 1.197 -8.481 0.690 9.430 12.939 -18.402 -1274.919 -29.980 -2609.950 -0.678 -1.257 0.290 -0.16 0.65 -0.73 0.14
1 6.51 651 0.872 -8.538 0.589 5.219 16.876 -10.651 -1274.919 -29.980 -2609.950 -0.328 -1.196 0.405 -0.16 0.65 -0.73 0.13
1 6.52 652 1.053 -9.304 0.374 5.157 19.836 -4.791 -1154.998 -44.971 -2549.989 -0.497 -0.428 0.630 -0.16 0.65 -0.73 0.13
1 6.53 653 1.312 -9.563 0.292 6.042 21.973 -0.275 -1154.998 -44.971 -2549.989 -0.746 -0.168 0.719 -0.16 0.65 -0.73 0.13
1 6.54 654 1.446 -9.639 0.101 -0.061 24.292 7.355 -1169.988 -74.951 -2504.868 -0.877 -0.090 0.922 -0.15 0.65 -0.73 0.13
1 6.55 655 1.245 -9.544 -0.048 -3.815 26.093 11.505 -1169.988 -74.951 -2504.868 -0.685 -0.187 1.066 -0.15 0.65 -0.73 0.13
1 6.56 656 0.910 -9.304 -0.273 -7.660 25.513 16.693 -1259.929 -89.941 -2549.989 -0.365 -0.429 1.279 -0.15 0.65 -0.73 0.13
1 6.57 657 0.776 -8.964 -0.287 -13.580 24.506 22.247 -1244.939 -104.932 -2564.979 -0.257 -0.772 1.275 -0.15 0.65 -0.73 0.13
1 6.58 658 0.484 -9.165 -0.297 -18.738 23.041 25.696 -1244.939 -104.932 -2564.979 0.000 -0.576 1.256 -0.15 0.66 -0.73 0.13
1 6.59 659 0.426 -9.280 -0.158 -20.233 19.165 21.118 -1229.949 -119.922 -2669.911 0.018 -0.466 1.082 -0.15 0.66 -0.73 0.13
1 6.60 660 0.512 -9.529 0.000 -16.174 15.045 13.702 -1229.949 -119.922 -2669.911 -0.104 -0.222 0.887 -0.14 0.66 -0.73 0.13
1 6.61 661 0.642 -9.802 0.230 -11.658 10.071 8.118 -1079.896 44.971 -2519.858 -0.271 0.045 0.603 -0.14 0.66 -0.73 0.13
1 6.62 662 0.546 -9.797 0.369 -11.627 7.294 8.545 -1079.896 44.971 -2519.858 -0.186 0.038 0.443 -0.14 0.66 -0.72 0.13
1 6.63 663 0.172 -9.888 0.158 -12.817 0.519 7.751 -1064.906 74.951 -2504.868 0.177 0.127 0.634 -0.14 0.66 -0.72 0.13
1 6.64 664 0.144 -10.219 0.148 -11.902 -1.831 5.371 -929.994 -89.941 -2624.940 0.196 0.455 0.621 -0.14 0.66 -0.72 0.13
1 6.65 665 0.115 -10.425 -0.201 -10.559 -2.258 2.411 -929.994 -89.941 -2624.940 0.217 0.659 0.950 -0.14 0.67 -0.72 0.13
1 6.66 666 0.057 -11.105 -0.503 -5.554 -0.916 -2.777 -989.955 74.951 -2609.950 0.272 1.337 1.231 -0.14 0.67 -0.72 0.13
1 6.67 667 0.220 -11.732 -0.852 -2.747 -1.587 -2.533 -989.955 74.951 -2609.950 0.114 1.964 1.571 -0.14 0.67 -0.72 0.13
1 6.68 668 0.848 -12.493 -1.432 4.059 0.305 8.484 -1094.887 0.000 -2684.901 -0.511 2.725 2.149 -0.14 0.67 -0.72 0.13
1 6.69 669 1.183 -12.709 -1.432 0.641 -2.411 4.181 -1094.887 0.000 -2684.901 -0.855 2.941 2.154 -0.14 0.67 -0.72 0.13
1 6.70 670 1.432 -12.848 -2.011 8.850 3.906 23.895 -1034.926 164.893 -2624.940 -1.122 3.080 2.736 -0.14 0.67 -0.72 0.13
1 6.71 671 2.265 -12.709 -1.882 8.362 -4.883 23.468 -1079.896 209.863 -2519.858 -1.990 2.941 2.621 -0.14 0.67 -0.72 0.13
1 6.72 672 2.830 -12.455 -1.484 1.709 -5.402 16.480 -1079.896 209.863 -2519.858 -2.586 2.687 2.235 -0.14 0.67 -0.72 0.13
1 6.73 673 2.337 -12.417 0.517 -13.611 -9.064 6.805 -974.965 89.941 -2729.872 -2.114 2.648 0.234 -0.14 0.67 -0.72 0.13
1 6.74 674 -0.038 -13.097 0.431 -34.027 -12.604 -1.801 -974.965 89.941 -2729.872 0.255 3.326 0.293 -0.14 0.67 -0.72 0.13
1 6.75 675 -1.326 -12.637 -0.335 -29.602 -10.468 -8.881 -854.893 89.941 -2624.940 1.546 2.863 1.014 -0.14 0.67 -0.72 0.13
1 6.76 676 -2.054 -10.487 0.508 -15.656 -25.269 -20.416 -1004.945 44.971 -2594.959 2.311 0.709 0.099 -0.14 0.67 -0.72 0.13
1 6.77 677 -0.900 -9.965 0.125 -21.912 -10.620 -19.959 -1064.906 224.854 -2534.999 1.184 0.186 0.455 -0.14 0.67 -0.72 0.13
1 6.78 678 0.096 -9.017 0.034 -28.473 11.993 -9.827 -1034.926 119.922 -2519.858 0.204 -0.763 0.509 -0.14 0.67 -0.71 0.13
1 6.79 679 0.737 -8.552 -0.125 -32.105 19.470 -1.343 -1034.926 119.922 -2519.858 -0.429 -1.230 0.621 -0.14 0.67 -0.71 0.13
1 6.80 680 1.389 -9.184 0.651 -19.928 20.447 6.042 -1079.896 284.964 -2549.989 -1.081 -0.600 -0.200 -0.14 0.68 -0.71 0.13
1 6.81 681 1.724 -10.367 2.140 -11.505 14.954 4.791 -1079.896 284.964 -2549.989 -1.417 0.581 -1.722 -0.14 0.68 -0.71 0.13
1 6.82 682 0.867 -10.554 2.548 -9.277 12.024 5.585 -1109.877 -14.990 -2624.940 -0.557 0.768 -2.137 -0.14 0.68 -0.71 0.12
1 6.83 683 -0.211 -10.334 2.610 -10.345 16.144 -3.693 -1079.896 164.893 -2549.989 0.516 0.547 -2.211 -0.14 0.68 -0.71 0.12
1 6.84 684 -0.201 -10.664 3.069 -3.357 19.165 -8.637 -989.955 179.883 -2504.868 0.512 0.877 -2.665 -0.14 0.68 -0.71 0.12
1 6.85 685 0.057 -10.554 3.558 6.775 23.743 -5.249 -1064.906 104.932 -2609.950 0.263 0.768 -3.145 -0.14 0.68 -0.71 0.12
1 6.86 686 0.230 -10.075 3.740 15.991 34.668 -4.059 -1064.906 104.932 -2609.950 0.097 0.290 -3.310 -0.14 0.68 -0.71 0.12
1 6.87 687 0.484 -8.854 3.510 22.736 45.685 -8.514 -1094.887 224.854 -2504.868 -0.151 -0.929 -3.038 -0.14 0.68 -0.71 0.12
1 6.88 688 0.522 -9.017 2.921 25.147 55.451 -23.926 -1094.887 224.854 -2504.868 -0.173 -0.762 -2.385 -0.13 0.67 -0.72 0.11
1 6.89 689 0.761 -8.428 2.639 21.179 47.486 -40.100 -794.932 224.854 -2639.930 -0.381 -1.346 -2.037 -0.13 0.67 -0.72 0.11
1 6.90 690 1.164 -8.423 2.624 7.568 43.488 -37.018 -989.955 179.883 -2609.950 -0.730 -1.345 -1.967 -0.13 0.67 -0.72 0.11
1 6.91 691 1.188 -9.055 2.083 -12.146 44.739 -7.935 -944.984 179.883 -2684.901 -0.656 -0.705 -1.376 -0.13 0.67 -0.73 0.1
1 6.92 692 1.039 -9.252 1.954 -9.399 41.199 0.061 -989.955 149.902 -2684.901 -0.498 -0.508 -1.247 -0.13 0.67 -0.73 0.1
1 6.93 693 0.623 -9.620 2.002 -0.336 37.659 -1.160 -989.955 149.902 -2684.901 -0.080 -0.139 -1.292 -0.12 0.67 -0.73 0.09
1 6.94 694 0.283 -9.999 1.877 0.244 37.506 -2.258 -914.854 149.902 -2639.930 0.262 0.241 -1.152 -0.12 0.67 -0.73 0.09
1 6.95 695 -0.584 -10.817 1.714 -0.885 36.102 1.251 -914.854 149.902 -2639.930 1.128 1.060 -0.977 -0.12 0.67 -0.73 0.09
1 6.96 696 -1.001 -10.951 1.595 1.801 33.234 -2.167 -1019.936 224.854 -2639.930 1.538 1.194 -0.851 -0.12 0.67 -0.73 0.09
1 6.97 697 -1.140 -11.042 1.393 5.829 32.654 9.399 -1064.906 149.902 -2684.901 1.676 1.286 -0.645 -0.12 0.67 -0.73 0.09
1 6.98 698 -0.795 -9.951 1.384 11.444 27.069 25.757 -869.883 104.932 -2639.930 1.285 0.194 -0.605 -0.11 0.67 -0.73 0.08
1 6.99 699 -0.297 -9.256 1.307 10.437 25.787 26.032 -974.965 164.893 -2624.940 0.735 -0.501 -0.504 -0.11 0.67 -0.73 0.09
1 7.00 700 -0.330 -9.199 1.365 5.646 28.809 25.635 -974.965 164.893 -2624.940 0.723 -0.559 -0.541 -0.11 0.67 -0.73 0.09
1 7.01 701 -0.278 -9.405 1.025 3.754 28.076 30.151 -914.854 299.955 -2789.982 0.623 -0.353 -0.186 -0.1 0.67 -0.73 0.09
1 7.02 702 -0.129 -9.285 0.690 7.172 23.773 30.975 -914.854 299.955 -2789.982 0.422 -0.474 0.160 -0.1 0.67 -0.73 0.09
1 7.03 703 0.172 -8.706 0.814 8.331 19.531 26.184 -794.932 104.932 -2789.982 0.070 -1.053 0.050 -0.1 0.67 -0.73 0.09
1 7.04 704 -0.014 -8.514 0.728 5.646 17.578 24.323 -914.854 74.951 -2684.901 0.215 -1.244 0.152 -0.09 0.67 -0.73 0.09
1 7.05 705 -0.086 -8.193 0.795 7.416 12.207 20.477 -690.000 104.932 -2639.930 0.213 -1.565 0.105 -0.09 0.67 -0.73 0.09
1 7.06 706 -0.268 -8.270 0.800 8.911 11.261 18.646 -509.968 224.854 -2819.963 0.365 -1.487 0.114 -0.09 0.67 -0.73 0.09
1 7.07 707 -0.785 -8.394 0.642 11.688 9.491 14.008 -509.968 224.854 -2819.963 0.860 -1.361 0.291 -0.09 0.67 -0.73 0.09
1 7.08 708 -1.044 -8.069 0.407 12.787 5.249 16.205 -779.942 89.941 -2774.992 1.097 -1.685 0.545 -0.09 0.67 -0.74 0.09
1 7.09 709 -1.044 -7.690 0.383 10.345 0.397 11.536 -779.942 89.941 -2774.992 1.074 -2.061 0.588 -0.08 0.67 -0.74 0.09
1 7.10 710 -0.910 -8.069 0.450 6.928 -2.319 6.195 -690.000 29.980 -2684.901 0.928 -1.681 0.536 -0.08 0.67 -0.74 0.09
1 7.11 711 -1.058 -8.121 0.182 5.524 -5.615 7.629 -674.860 89.941 -2774.992 1.069 -1.628 0.817 -0.08 0.66 -0.74 0.09
1 7.12 712 -0.857 -8.107 0.048 -1.129 -13.580 0.549 -524.958 119.922 -2774.992 0.855 -1.640 0.966 -0.08 0.66 -0.74 0.09
1 7.13 713 -0.575 -8.390 -0.038 -2.380 -15.930 -0.549 -614.899 104.932 -2714.881 0.576 -1.358 1.051 -0.08 0.66 -0.74 0.09
1 7.14 714 -0.517 -8.725 -0.206 -5.157 -20.783 -0.122 -614.899 104.932 -2714.881 0.523 -1.023 1.215 -0.09 0.66 -0.74 0.09
1 7.15 715 -0.680 -8.931 -0.306 -7.019 -23.651 -4.395 -659.870 29.980 -2714.881 0.692 -0.818 1.308 -0.09 0.66 -0.74 0.09
1 7.16 716 -0.603 -8.739 -0.484 -8.545 -27.588 -9.186 -659.870 29.980 -2714.881 0.626 -1.011 1.470 -0.09 0.66 -0.74 0.1
1 7.17 717 -0.809 -8.988 -0.316 -11.444 -30.487 -11.017 -690.000 104.932 -2759.852 0.850 -0.764 1.285 -0.09 0.67 -0.73 0.1
1 7.18 718 -1.034 -8.801 -0.589 -14.374 -32.745 -16.205 -704.991 119.922 -2669.911 1.091 -0.953 1.532 -0.09 0.67 -0.73 0.1
1 7.19 719 -0.910 -8.892 -0.484 -17.883 -37.933 -22.003 -704.991 119.922 -2669.911 0.987 -0.865 1.396 -0.09 0.67 -0.73 0.1
1 7.20 720 -0.862 -8.777 -0.220 -22.980 -42.969 -23.224 -674.860 209.863 -2774.992 1.001 -0.986 1.057 -0.1 0.67 -0.73 0.1
1 7.21 721 -0.747 -8.835 -0.081 -24.109 -45.532 -22.064 -674.860 209.863 -2774.992 0.927 -0.931 0.883 -0.1 0.67 -0.73 0.1
1 7.22 722 -0.565 -8.955 0.043 -23.560 -45.532 -17.792 -794.932 149.902 -2894.914 0.780 -0.813 0.719 -0.11 0.67 -0.73 0.1
1 7.23 723 -0.603 -9.457 0.488 -20.966 -43.823 -9.827 -794.932 149.902 -2894.914 0.844 -0.313 0.234 -0.11 0.67 -0.73 0.1
1 7.24 724 -0.421 -9.750 1.044 -10.284 -32.044 4.242 -749.961 209.863 -2729.872 0.672 -0.023 -0.353 -0.11 0.67 -0.72 0.1
1 7.25 725 -0.469 -10.564 1.863 -4.913 -17.273 10.132 -899.864 239.994 -2624.940 0.716 0.790 -1.188 -0.12 0.67 -0.72 0.11
1 7.26 726 -0.397 -10.793 1.887 -1.343 -5.371 13.031 -899.864 239.994 -2624.940 0.629 1.019 -1.215 -0.12 0.67 -0.72 0.11
1 7.27 727 0.886 -11.057 1.140 5.737 5.096 -2.136 -869.883 104.932 -2684.901 -0.683 1.283 -0.458 -0.12 0.67 -0.72 0.11
1 7.28 728 1.829 -11.148 0.043 3.479 5.188 -1.801 -869.883 104.932 -2684.901 -1.622 1.374 0.648 -0.11 0.67 -0.72 0.11
1 7.29 729 2.442 -11.234 -0.728 0.031 -1.343 -1.282 -899.864 239.994 -2729.872 -2.232 1.461 1.423 -0.11 0.67 -0.72 0.11
1 7.30 730 1.959 -11.732 -1.034 2.563 -7.935 1.709 -899.864 239.994 -2729.872 -1.745 1.959 1.732 -0.11 0.67 -0.72 0.11
1 7.31 731 0.862 -11.809 -1.245 2.716 -8.698 5.493 -794.932 149.902 -2714.881 -0.650 2.036 1.947 -0.12 0.67 -0.72 0.11
1 7.32 732 -1.101 -11.991 -1.791 -2.808 -14.160 7.996 -854.893 359.916 -2729.872 1.308 2.218 2.497 -0.12 0.67 -0.72 0.11
1 7.33 733 -1.896 -12.067 -2.251 -8.820 -19.409 6.958 -854.893 359.916 -2729.872 2.096 2.295 2.955 -0.12 0.67 -0.72 0.11
1 7.34 734 -2.069 -11.809 -2.433 -12.451 -23.010 2.655 -944.984 254.984 -2819.963 2.260 2.035 3.126 -0.12 0.67 -0.72 0.11
1 7.35 735 -2.380 -12.374 -2.073 -5.371 -24.109 -4.639 -764.952 179.883 -2789.982 2.578 2.598 2.738 -0.12 0.67 -0.72 0.11
1 7.36 736 -2.131 -12.450 0.804 -16.419 -24.933 1.404 -1034.926 239.994 -2699.891 2.335 2.674 -0.151 -0.12 0.67 -0.72 0.11
1 7.37 737 0.072 -14.361 0.139 -14.496 -14.679 1.068 -1034.926 239.994 -2699.891 0.139 4.584 0.491 -0.12 0.67 -0.72 0.11
1 7.38 738 1.992 -14.768 1.733 -13.214 1.740 17.944 -1079.896 389.896 -2729.872 -1.788 4.989 -1.125 -0.12 0.67 -0.72 0.12
1 7.39 739 3.012 -13.394 0.445 -5.707 23.499 31.067 -1034.926 209.863 -2669.911 -2.839 3.613 0.148 -0.12 0.67 -0.72 0.12
1 7.40 740 1.930 -11.282 -0.508 -13.275 5.707 36.896 -1034.926 209.863 -2669.911 -1.807 1.500 1.093 -0.12 0.68 -0.72 0.12
1 7.41 741 1.034 -10.291 0.886 -20.874 -6.897 23.590 -944.984 254.984 -2714.881 -0.965 0.507 -0.317 -0.12 0.68 -0.72 0.12
1 7.42 742 -0.407 -11.090 1.944 -12.939 -17.212 25.757 -794.932 449.857 -2684.901 0.420 1.304 -1.428 -0.12 0.68 -0.72 0.12
1 7.43 743 -1.264 -10.214 1.700 -3.052 -17.029 24.658 -854.893 434.867 -2699.891 1.240 0.427 -1.199 -0.11 0.68 -0.71 0.12
1 7.44 744 -1.494 -9.089 1.623 -1.099 -27.283 11.993 -854.893 434.867 -2699.891 1.436 -0.698 -1.118 -0.11 0.68 -0.71 0.12
1 7.45 745 -1.523 -9.754 2.567 -10.010 -38.696 3.082 -944.984 449.857 -2564.979 1.445 -0.032 -2.056 -0.12 0.68 -0.71 0.13
1 7.46 746 -1.604 -10.827 3.227 -13.092 -44.464 6.287 -779.942 464.847 -2624.940 1.515 1.041 -2.720 -0.12 0.68 -0.71 0.13
1 7.47 747 -1.963 -9.003 3.587 5.432 -37.384 3.998 -779.942 464.847 -2624.940 1.867 -0.785 -3.093 -0.12 0.68 -0.71 0.13
1 7.48 748 -1.992 -7.690 3.223 2.136 -35.706 -14.496 -914.854 419.876 -2684.901 1.884 -2.096 -2.711 -0.12 0.68 -0.71 0.13
1 7.49 749 -1.417 -8.236 2.792 -7.965 -39.978 7.599 -944.984 299.955 -2714.881 1.334 -1.548 -2.242 -0.12 0.68 -0.71 0.14
1 7.50 750 -1.058 -7.954 2.955 -8.881 -34.119 27.832 -869.883 419.876 -2534.999 0.951 -1.830 -2.407 -0.13 0.68 -0.71 0.14
1 7.51 751 0.364 -7.638 2.543 -5.981 -25.086 27.832 -869.883 419.876 -2534.999 -0.509 -2.146 -2.006 -0.13 0.68 -0.71 0.14
1 7.52 752 1.250 -7.959 2.184 -6.531 -22.217 20.569 -914.854 374.906 -2564.979 -1.432 -1.825 -1.655 -0.13 0.68 -0.71 0.15
1 7.53 753 1.724 -9.074 2.188 -7.111 -19.104 19.226 -944.984 299.955 -2759.852 -1.933 -0.710 -1.669 -0.13 0.68 -0.71 0.15
1 7.54 754 1.805 -10.516 1.872 -7.721 -14.465 21.240 -944.984 299.955 -2759.852 -2.027 0.732 -1.349 -0.13 0.68 -0.71 0.15
1 7.55 755 1.949 -11.081 1.738 -7.416 -12.421 17.120 -974.965 389.896 -2549.989 -2.183 1.298 -1.212 -0.13 0.68 -0.71 0.15
1 7.56 756 1.484 -11.521 1.437 -2.380 -13.367 0.610 -974.965 314.945 -2669.911 -1.756 1.738 -0.930 -0.13 0.68 -0.71 0.15
1 7.57 757 1.365 -11.258 1.355 4.639 -14.801 -6.012 -1004.945 389.896 -2594.959 -1.630 1.475 -0.845 -0.13 0.68 -0.71 0.15
1 7.58 758 1.413 -9.922 1.159 15.930 -20.905 -16.968 -1004.945 389.896 -2594.959 -1.656 0.139 -0.628 -0.13 0.68 -0.71 0.15
1 7.59 759 1.173 -9.247 1.111 8.759 -21.423 -20.722 -929.994 389.896 -2729.872 -1.375 -0.535 -0.551 -0.13 0.67 -0.71 0.15
1 7.60 760 0.934 -8.940 0.929 -1.678 -21.820 -24.506 -914.854 449.857 -2564.979 -1.089 -0.842 -0.353 -0.13 0.67 -0.71 0.15
1 7.61 761 0.991 -9.414 0.613 -11.353 -20.935 -46.417 -914.854 449.857 -2564.979 -1.094 -0.368 -0.040 -0.14 0.67 -0.71 0.15
1 7.62 762 0.613 -9.132 0.809 7.233 -23.529 -28.656 -989.955 569.929 -2639.930 -0.636 -0.652 -0.254 -0.14 0.67 -0.71 0.15
1 7.63 763 0.565 -8.026 0.939 13.947 -21.759 -15.961 -989.955 449.857 -2564.979 -0.529 -1.758 -0.377 -0.14 0.67 -0.71 0.15
1 7.64 764 0.939 -8.375 1.058 0.824 -15.259 -21.973 -1064.906 329.935 -2609.950 -0.835 -1.406 -0.461 -0.15 0.67 -0.71 0.15
1 7.65 765 0.819 -8.912 1.073 0.031 -9.155 -12.909 -1064.906 329.935 -2609.950 -0.682 -0.869 -0.476 -0.15 0.67 -0.71 0.15
1 7.66 766 1.073 -9.161 0.862 3.815 -12.116 -17.853 -1064.906 449.857 -2714.881 -0.911 -0.620 -0.261 -0.15 0.67 -0.71 0.15
1 7.67 767 1.020 -9.654 0.833 9.796 -8.453 -23.956 -1034.926 284.964 -2624.940 -0.820 -0.125 -0.221 -0.15 0.67 -0.71 0.15
1 7.68 768 1.144 -9.548 0.742 14.099 -4.791 -22.003 -1034.926 284.964 -2624.940 -0.900 -0.228 -0.110 -0.15 0.67 -0.71 0.14
1 7.69 769 1.307 -9.223 0.642 21.332 1.221 -20.813 -1094.887 329.935 -2534.999 -1.020 -0.551 0.013 -0.15 0.67 -0.72 0.14
1 7.70 770 0.991 -8.777 0.603 19.623 0.793 -12.085 -1109.877 389.896 -2669.911 -0.663 -0.993 0.083 -0.16 0.66 -0.72 0.14
1 7.71 771 1.504 -8.696 0.637 10.101 3.174 -9.003 -1184.978 314.945 -2729.872 -1.128 -1.069 0.103 -0.16 0.66 -0.72 0.14
1 7.72 772 1.489 -9.137 0.613 9.857 8.484 -5.432 -1184.978 314.945 -2729.872 -1.096 -0.626 0.143 -0.16 0.66 -0.72 0.14
1 7.73 773 1.068 -9.304 0.594 9.186 10.223 1.373 -1199.968 329.935 -2684.901 -0.660 -0.457 0.178 -0.16 0.66 -0.72 0.14
1 7.74 774 1.197 -9.113 0.627 6.805 11.810 3.601 -1229.949 389.896 -2669.911 -0.786 -0.647 0.157 -0.16 0.66 -0.72 0.14
1 7.75 775 1.504 -9.146 0.790 7.538 16.632 5.432 -1229.949 389.896 -2669.911 -1.093 -0.613 0.005 -0.15 0.66 -0.72 0.14
1 7.76 776 1.748 -9.007 0.685 13.275 24.414 13.977 -1244.939 449.857 -2534.999 -1.340 -0.751 0.125 -0.15 0.66 -0.72 0.14
1 7.77 777 1.935 -8.792 0.608 10.712 28.870 18.005 -1259.929 389.896 -2549.989 -1.538 -0.965 0.222 -0.15 0.66 -0.72 0.14
1 7.78 778 2.011 -8.844 0.493 4.395 35.065 21.362 -1259.929 389.896 -2549.989 -1.632 -0.911 0.356 -0.15 0.66 -0.72 0.14
1 7.79 779 1.801 -8.552 0.110 -5.585 35.492 26.276 -1199.968 419.876 -2714.881 -1.476 -1.204 0.752 -0.14 0.66 -0.73 0.13
1 7.80 780 1.623 -8.557 -0.081 -11.810 34.821 26.276 -1139.857 299.955 -2609.950 -1.336 -1.202 0.932 -0.14 0.66 -0.72 0.13
1 7.81 781 1.456 -8.600 -0.148 -16.083 33.295 25.940 -1064.906 374.906 -2714.881 -1.211 -1.161 0.982 -0.14 0.66 -0.72 0.13
1 7.82 782 1.020 -8.840 -0.220 -15.076 33.295 24.475 -1064.906 374.906 -2714.881 -0.816 -0.925 1.032 -0.14 0.66 -0.72 0.13
1 7.83 783 0.733 -9.156 -0.101 -6.592 35.126 24.841 -1034.926 389.896 -2624.940 -0.566 -0.611 0.890 -0.13 0.66 -0.72 0.13
1 7.84 784 0.292 -9.668 -0.244 -10.437 29.999 22.797 -1094.887 524.958 -2714.881 -0.160 -0.100 1.018 -0.13 0.67 -0.72 0.13
1 7.85 785 0.034 -9.970 -0.153 -18.524 23.499 13.977 -1094.887 524.958 -2714.881 0.064 0.200 0.910 -0.13 0.67 -0.72 0.13
1 7.86 786 -0.493 -10.200 -0.163 -9.491 16.968 12.024 -989.955 299.955 -2609.950 0.546 0.425 0.861 -0.12 0.67 -0.72 0.13
1 7.87 787 -0.771 -10.420 -0.244 -5.737 12.634 9.796 -974.965 389.896 -2519.858 0.802 0.644 0.924 -0.12 0.67 -0.72 0.13
1 7.88 788 -1.020 -10.698 -0.321 -2.899 11.139 5.157 -944.984 449.857 -2714.881 1.033 0.920 0.987 -0.12 0.67 -0.72 0.13
1 7.89 789 -0.905 -10.956 -0.560 -1.587 10.803 0.732 -944.984 449.857 -2714.881 0.905 1.178 1.217 -0.12 0.67 -0.72 0.13
1 7.90 790 -0.713 -11.421 -0.886 -1.312 13.031 1.404 -869.883 494.978 -2639.930 0.713 1.643 1.541 -0.12 0.67 -0.72 0.13
1 7.91 791 -0.455 -12.220 -1.307 -0.702 14.648 1.007 -899.864 539.948 -2519.858 0.452 2.442 1.961 -0.12 0.67 -0.72 0.13
1 7.92 792 -0.048 -12.819 -1.686 0.732 12.146 -0.397 -899.864 539.948 -2519.858 0.044 3.041 2.339 -0.12 0.67 -0.72 0.13
1 7.93 793 0.570 -13.403 -1.547 11.200 12.848 12.970 -944.984 374.906 -2564.979 -0.579 3.626 2.210 -0.12 0.67 -0.72 0.12
1 7.94 794 1.092 -12.795 -1.614 20.264 17.792 31.220 -944.984 374.906 -2639.930 -1.130 3.019 2.300 -0.11 0.67 -0.72 0.13
1 7.95 795 1.427 -13.011 -1.614 13.886 14.160 27.954 -944.984 419.876 -2504.868 -1.509 3.237 2.328 -0.11 0.67 -0.72 0.13
1 7.96 796 1.465 -12.489 -1.762 7.843 17.578 22.217 -944.984 419.876 -2504.868 -1.588 2.717 2.496 -0.11 0.67 -0.72 0.13
1 7.97 797 1.159 -11.296 -1.959 0.214 15.045 11.169 -944.984 329.935 -2564.979 -1.311 1.526 2.702 -0.11 0.67 -0.72 0.13
1 7.98 798 0.867 -9.654 -1.820 -4.364 17.059 11.444 -854.893 434.867 -2699.891 -1.037 -0.116 2.564 -0.11 0.67 -0.72 0.13
1 7.99 799 0.436 -9.146 -0.292 -15.167 13.153 0.549 -854.893 434.867 -2699.891 -0.615 -0.626 1.012 -0.1 0.67 -0.72 0.13
1 8.00 800 -0.292 -9.036 0.407 -18.982 -4.120 -2.472 -704.991 434.867 -2549.989 0.126 -0.741 0.249 -0.11 0.67 -0.72 0.12
1 8.01 801 -0.560 -8.682 0.785 -32.349 17.731 -10.620 -764.952 449.857 -2639.930 0.404 -1.097 -0.167 -0.11 0.68 -0.72 0.12
1 8.02 802 -2.591 -8.691 0.991 -34.180 -2.289 -29.053 -944.984 449.857 -2639.930 2.460 -1.092 -0.429 -0.11 0.68 -0.72 0.12
1 8.03 803 -2.164 -9.414 -0.259 -32.288 -1.526 -37.293 -944.984 449.857 -2639.930 2.065 -0.372 0.773 -0.11 0.68 -0.72 0.12
1 8.04 804 -1.872 -10.492 0.374 -14.343 7.721 -34.882 -794.932 494.978 -2609.950 1.814 0.703 0.096 -0.11 0.68 -0.71 0.12
1 8.05 805 -2.021 -11.062 1.092 -1.129 9.918 -27.618 -899.864 464.847 -2474.888 1.999 1.272 -0.639 -0.11 0.68 -0.71 0.12
1 8.06 806 -1.101 -11.775 1.374 0.031 17.792 -23.438 -899.864 464.847 -2474.888 1.123 1.986 -0.924 -0.11 0.68 -0.71 0.11
1 8.07 807 -0.666 -12.173 2.107 12.848 12.329 -13.428 -989.955 494.978 -2504.868 0.725 2.383 -1.656 -0.11 0.68 -0.71 0.11
1 8.08 808 0.402 -11.947 3.108 12.512 4.913 -7.965 -974.965 539.948 -2519.858 -0.305 2.160 -2.615 -0.11 0.68 -0.72 0.11
1 8.09 809 0.982 -11.823 3.366 8.209 4.395 -11.169 -914.854 524.958 -2384.946 -0.869 2.037 -2.856 -0.11 0.68 -0.72 0.11
1 8.10 810 1.547 -11.229 3.606 14.343 10.712 -10.620 -914.854 524.958 -2384.946 -1.416 1.444 -3.081 -0.11 0.68 -0.72 0.11
1 8.11 811 2.126 -10.056 3.860 23.224 23.560 -11.047 -929.994 464.847 -2594.959 -1.980 0.273 -3.308 -0.11 0.68 -0.72 0.11
1 8.12 812 3.050 -8.390 4.171 32.135 46.692 -26.581 -929.994 464.847 -2444.907 -2.884 -1.391 -3.579 -0.11 0.68 -0.72 0.11
1 8.13 813 2.777 -7.475 3.773 24.994 49.835 -27.283 -929.994 464.847 -2444.907 -2.557 -2.300 -3.103 -0.11 0.67 -0.72 0.1
1 8.14 814 2.801 -6.852 3.141 13.794 44.922 -29.572 -989.955 254.984 -2429.917 -2.523 -2.916 -2.401 -0.11 0.67 -0.73 0.1
1 8.15 815 1.815 -7.987 2.701 -1.526 47.424 -25.116 -989.955 524.958 -2609.950 -1.452 -1.775 -1.923 -0.11 0.67 -0.73 0.09
1 8.16 816 1.010 -8.457 2.054 1.862 46.082 -15.656 -929.994 284.964 -2549.989 -0.618 -1.304 -1.274 -0.11 0.67 -0.73 0.09
1 8.17 817 0.527 -8.414 1.676 -9.522 43.244 -20.020 -929.994 284.964 -2549.989 -0.114 -1.346 -0.891 -0.11 0.67 -0.73 0.08
1 8.18 818 -0.067 -9.472 1.566 -26.703 38.513 -23.071 -869.883 299.955 -2534.999 0.507 -0.288 -0.799 -0.1 0.67 -0.73 0.08
1 8.19 819 -0.522 -10.889 1.360 -33.295 33.753 -16.510 -989.955 419.876 -2609.950 0.990 1.128 -0.625 -0.1 0.67 -0.73 0.08
1 8.20 820 -1.398 -11.392 1.360 -22.217 26.337 -3.906 -989.955 419.876 -2609.950 1.881 1.629 -0.666 -0.1 0.67 -0.73 0.07
1 8.21 821 -1.973 -11.651 1.312 -11.261 20.325 -1.434 -944.984 374.906 -2429.917 2.462 1.885 -0.651 -0.1 0.68 -0.73 0.07
1 8.22 822 -2.064 -11.588 1.312 -8.209 17.120 1.892 -944.984 374.906 -2429.917 2.555 1.822 -0.669 -0.1 0.68 -0.73 0.07
1 8.23 823 -1.829 -11.033 1.317 1.617 14.404 18.707 -989.955 419.876 -2564.979 2.303 1.265 -0.689 -0.1 0.68 -0.73 0.07
1 8.24 824 -1.360 -10.061 1.489 5.768 15.198 26.642 -989.955 419.876 -2564.979 1.803 0.291 -0.854 -0.1 0.68 -0.73 0.07
1 8.25 825 -1.077 -9.448 1.427 6.195 15.167 29.633 -974.965 434.867 -2444.907 1.465 -0.323 -0.775 -0.1 0.68 -0.73 0.07
1 8.26 826 -0.685 -8.964 1.307 6.592 13.672 31.769 -914.854 419.876 -2534.999 1.016 -0.807 -0.637 -0.09 0.68 -0.73 0.07
1 8.27 827 -0.646 -8.481 1.178 9.033 8.637 32.593 -914.854 419.876 -2534.999 0.920 -1.291 -0.491 -0.09 0.68 -0.73 0.08
1 8.28 828 -0.541 -8.016 1.015 9.003 8.575 32.105 -824.913 284.964 -2549.989 0.766 -1.756 -0.313 -0.09 0.68 -0.73 0.08
1 8.29 829 -0.713 -8.093 1.207 5.310 6.195 29.450 -824.913 284.964 -2549.989 0.891 -1.679 -0.490 -0.09 0.68 -0.73 0.08
1 8.30 830 -0.704 -8.600 0.905 0.519 1.526 24.139 -764.952 494.978 -2354.966 0.798 -1.172 -0.174 -0.08 0.68 -0.73 0.08
1 8.31 831 -0.618 -8.840 0.924 1.160 -2.655 25.604 -764.952 494.978 -2354.966 0.676 -0.933 -0.191 -0.08 0.68 -0.73 0.08
1 8.32 832 -0.603 -8.595 0.828 1.801 -5.493 22.156 -764.952 374.906 -2564.979 0.620 -1.177 -0.090 -0.08 0.68 -0.73 0.09
1 8.33 833 -0.512 -8.505 0.828 1.587 -8.240 10.437 -764.952 329.935 -2564.979 0.499 -1.267 -0.086 -0.08 0.68 -0.73 0.09
1 8.34 834 -0.551 -9.108 0.579 4.089 -6.836 4.791 -764.952 329.935 -2564.979 0.528 -0.664 0.167 -0.08 0.67 -0.73 0.09
1 8.35 835 -0.833 -8.840 0.546 6.470 -6.928 7.202 -629.890 359.916 -2519.858 0.804 -0.931 0.206 -0.08 0.67 -0.73 0.09
1 8.36 836 -0.876 -8.667 0.517 4.852 -8.911 4.700 -629.890 359.916 -2519.858 0.835 -1.103 0.244 -0.08 0.67 -0.73 0.09
1 8.37 837 -0.713 -8.868 0.464 0.793 -9.338 1.678 -704.991 509.968 -2669.911 0.657 -0.901 0.311 -0.08 0.67 -0.73 0.09
1 8.38 838 -0.522 -9.271 0.412 -1.556 -9.552 0.580 -704.991 509.968 -2669.911 0.461 -0.498 0.363 -0.08 0.67 -0.73 0.09
1 8.39 839 -0.517 -9.333 0.201 -0.305 -11.017 1.099 -659.870 419.876 -2429.917 0.454 -0.436 0.571 -0.08 0.67 -0.73 0.09
1 8.40 840 -0.354 -9.429 0.062 1.617 -12.878 1.617 -659.870 374.906 -2504.868 0.289 -0.341 0.707 -0.08 0.67 -0.73 0.09
1 8.41 841 -0.354 -9.223 0.110 -0.397 -14.801 -2.136 -659.870 374.906 -2504.868 0.288 -0.547 0.658 -0.08 0.67 -0.73 0.09
1 8.42 842 -0.431 -9.223 -0.024 -4.944 -16.602 -10.315 -764.952 224.854 -2459.897 0.371 -0.547 0.786 -0.08 0.67 -0.73 0.1
1 8.43 843 -0.508 -9.453 -0.101 -6.470 -17.426 -15.717 -764.952 224.854 -2459.897 0.462 -0.318 0.853 -0.09 0.67 -0.73 0.1
1 8.44 844 -0.675 -9.975 -0.369 -9.766 -21.515 -14.618 -764.952 299.955 -2384.946 0.677 0.201 1.090 -0.09 0.67 -0.73 0.1
1 8.45 845 -0.713 -9.620 -0.599 -10.468 -23.895 -14.374 -764.952 299.955 -2384.946 0.735 -0.155 1.298 -0.09 0.68 -0.73 0.1
1 8.46 846 -0.570 -9.194 -0.464 -11.444 -30.243 -16.388 -839.903 329.935 -2714.881 0.615 -0.583 1.140 -0.09 0.68 -0.72 0.1
1 8.47 847 -0.594 -9.060 -0.072 -13.031 -31.342 -13.550 -869.883 329.935 -2459.897 0.663 -0.718 0.722 -0.1 0.68 -0.72 0.1
1 8.48 848 -0.627 -8.921 -0.177 -12.299 -30.060 -13.641 -869.883 329.935 -2459.897 0.716 -0.858 0.803 -0.1 0.68 -0.72 0.1
1 8.49 849 -0.948 -9.026 0.316 -9.857 -30.365 -13.947 -929.994 359.916 -2369.956 1.057 -0.754 0.288 -0.1 0.68 -0.72 0.1
1 8.50 850 -1.044 -9.400 0.532 -9.827 -29.022 -9.766 -929.994 359.916 -2369.956 1.171 -0.382 0.055 -0.1 0.68 -0.72 0.1
1 8.51 851 -1.192 -9.563 0.637 -7.446 -27.039 -4.395 -1064.906 374.906 -2459.897 1.333 -0.220 -0.066 -0.11 0.68 -0.72 0.1
1 8.52 852 -0.857 -9.726 0.838 -3.754 -24.567 -3.174 -929.994 359.916 -2369.956 0.999 -0.058 -0.285 -0.11 0.68 -0.72 0.11
1 8.53 853 -0.316 -9.965 1.188 -1.343 -20.599 1.038 -989.955 224.854 -2534.999 0.457 0.182 -0.637 -0.11 0.68 -0.72 0.11
1 8.54 854 -0.206 -9.812 1.149 2.258 -14.954 3.510 -974.965 284.964 -2444.907 0.343 0.028 -0.594 -0.11 0.68 -0.72 0.11
1 8.55 855 0.417 -9.879 1.092 9.033 -10.254 1.343 -974.965 284.964 -2444.907 -0.285 0.096 -0.526 -0.11 0.68 -0.72 0.11
1 8.56 856 1.006 -10.276 0.474 26.184 -7.538 0.702 -974.965 359.916 -2414.927 -0.870 0.495 0.117 -0.11 0.68 -0.72 0.11
1 8.57 857 0.450 -10.219 -0.187 13.672 -7.019 5.524 -974.965 359.916 -2414.927 -0.308 0.440 0.818 -0.11 0.67 -0.72 0.11
1 8.58 858 0.230 -10.477 -0.838 4.822 -19.013 1.617 -974.965 284.964 -2339.976 -0.087 0.700 1.494 -0.11 0.67 -0.72 0.11
1 8.59 859 -0.081 -10.841 -1.216 5.371 -27.344 -2.716 -974.965 284.964 -2444.907 0.230 1.064 1.869 -0.12 0.67 -0.72 0.11
1 8.60 860 -1.039 -11.133 -1.384 4.181 -28.504 1.556 -1154.998 239.994 -2339.976 1.196 1.357 2.046 -0.12 0.67 -0.72 0.12
1 8.61 861 -1.863 -10.870 -1.801 -2.594 -35.309 4.608 -1019.936 374.906 -2564.979 2.020 1.094 2.467 -0.12 0.67 -0.72 0.12
1 8.62 862 -2.322 -11.277 -1.762 -5.829 -41.626 4.547 -1019.936 374.906 -2564.979 2.479 1.501 2.424 -0.12 0.67 -0.72 0.12
1 8.63 863 -2.318 -11.608 -1.437 -2.686 -45.227 0.336 -1154.998 314.945 -2444.907 2.475 1.831 2.090 -0.12 0.67 -0.72 0.12
1 8.64 864 -2.691 -11.689 -1.676 -1.770 -43.274 -0.824 -1154.998 314.945 -2444.907 2.854 1.912 2.327 -0.13 0.67 -0.72 0.12
1 8.65 865 -2.457 -11.153 -2.035 -16.571 -42.755 2.869 -1034.926 164.893 -2474.888 2.626 1.376 2.684 -0.13 0.67 -0.72 0.13
1 8.66 866 -1.911 -10.770 -1.226 -23.743 -48.737 -1.617 -1094.887 104.932 -2429.917 2.082 0.991 1.856 -0.13 0.67 -0.72 0.13
1 8.67 867 0.072 -12.446 2.102 -3.876 -33.661 -0.122 -1034.926 314.945 -2414.927 0.119 2.664 -1.536 -0.14 0.67 -0.72 0.13
1 8.68 868 1.283 -11.895 1.604 -14.923 -9.644 34.485 -1184.978 359.916 -2339.976 -1.102 2.113 -1.043 -0.14 0.67 -0.71 0.13
1 8.69 869 2.275 -10.746 0.464 -24.262 -6.348 39.978 -1184.978 359.916 -2339.976 -2.148 0.961 0.068 -0.14 0.67 -0.71 0.14
1 8.70 870 3.247 -10.430 -0.623 -11.078 -14.313 44.586 -1154.998 239.994 -2414.927 -3.178 0.643 1.125 -0.14 0.67 -0.71 0.14
1 8.71 871 1.939 -9.965 0.096 1.404 -8.789 46.570 -1154.998 239.994 -2414.927 -1.937 0.177 0.394 -0.14 0.68 -0.71 0.14
1 8.72 872 0.642 -10.085 0.881 -7.538 -7.538 37.354 -1034.926 239.994 -2189.923 -0.688 0.297 -0.397 -0.13 0.68 -0.71 0.15
1 8.73 873 0.340 -11.105 1.829 -8.514 -15.717 34.363 -1019.936 224.854 -2324.985 -0.430 1.317 -1.352 -0.13 0.68 -0.71 0.15
1 8.74 874 0.034 -10.827 1.681 -3.540 -0.275 32.501 -944.984 299.955 -2354.966 -0.220 1.040 -1.220 -0.13 0.68 -0.71 0.15
1 8.75 875 -0.464 -9.927 0.824 2.167 -4.059 18.372 -1034.926 314.945 -2414.927 0.236 0.140 -0.365 -0.13 0.68 -0.71 0.15
1 8.76 876 -0.838 -10.075 1.346 -1.251 -20.447 6.226 -1034.926 314.945 -2414.927 0.589 0.289 -0.879 -0.13 0.68 -0.71 0.15
1 8.77 877 -1.231 -10.578 1.949 -10.010 -34.088 0.641 -1004.945 389.896 -2414.927 0.975 0.793 -1.481 -0.13 0.68 -0.71 0.16
1 8.78 878 -1.556 -10.224 2.409 -6.805 -39.429 -4.486 -1004.945 389.896 -2414.927 1.302 0.438 -1.949 -0.13 0.68 -0.71 0.16
1 8.79 879 -1.484 -8.605 2.916 9.583 -43.518 -12.787 -1154.998 359.916 -2264.875 1.239 -1.181 -2.452 -0.14 0.68 -0.71 0.16
1 8.80 880 -1.121 -8.078 3.242 9.338 -46.509 -14.496 -929.994 284.964 -2339.976 0.887 -1.706 -2.747 -0.14 0.68 -0.71 0.16
1 8.81 881 -0.843 -8.912 2.988 7.965 -38.727 10.162 -1139.857 254.984 -2279.865 0.643 -0.871 -2.431 -0.14 0.67 -0.71 0.17
1 8.82 882 -0.350 -8.519 2.672 8.148 -30.212 36.957 -1064.906 299.955 -2429.917 0.123 -1.261 -2.080 -0.14 0.67 -0.71 0.17
1 8.83 883 0.211 -8.289 2.327 -0.061 -23.621 41.626 -1064.906 299.955 -2429.917 -0.495 -1.487 -1.708 -0.14 0.67 -0.71 0.17
1 8.84 884 0.910 -8.883 2.002 -11.780 -15.961 33.905 -1139.857 299.955 -2324.985 -1.251 -0.892 -1.384 -0.14 0.67 -0.71 0.18
1 8.85 885 1.437 -10.386 1.968 -17.609 -9.155 25.024 -1139.857 299.955 -2324.985 -1.818 0.612 -1.364 -0.14 0.67 -0.71 0.18
1 8.86 886 1.781 -11.713 1.528 -14.221 -5.371 22.919 -1109.877 239.994 -2369.956 -2.183 1.939 -0.938 -0.14 0.67 -0.71 0.18
1 8.87 887 1.896 -11.742 1.235 -15.717 -5.219 16.907 -1154.998 284.964 -2414.927 -2.332 1.968 -0.667 -0.14 0.67 -0.7 0.18
1 8.88 888 2.121 -11.804 1.202 -1.251 -8.087 -7.965 -1004.945 314.945 -2414.927 -2.590 2.029 -0.671 -0.14 0.67 -0.7 0.18
1 8.89 889 2.231 -11.588 1.274 5.005 -7.843 -15.961 -1019.936 224.854 -2324.985 -2.680 1.813 -0.738 -0.14 0.67 -0.7 0.18
1 8.90 890 1.844 -10.468 0.986 9.003 -3.754 -29.266 -1019.936 224.854 -2324.985 -2.254 0.692 -0.434 -0.14 0.67 -0.7 0.18
1 8.91 891 1.690 -10.267 0.948 -0.397 -4.425 -42.359 -1094.887 149.902 -2324.985 -2.043 0.489 -0.382 -0.14 0.67 -0.71 0.18
1 8.92 892 1.379 -9.946 0.857 1.373 -5.615 -49.317 -1094.887 149.902 -2324.985 -1.646 0.166 -0.289 -0.15 0.67 -0.71 0.18
1 8.93 893 1.068 -9.486 1.116 7.721 -6.622 -47.150 -944.984 179.883 -2384.946 -1.248 -0.295 -0.540 -0.15 0.67 -0.71 0.17
1 8.94 894 0.953 -9.319 1.226 8.820 -5.371 -47.363 -1139.857 179.883 -2324.985 -1.049 -0.463 -0.635 -0.15 0.67 -0.71 0.17
1 8.95 895 0.618 -9.237 1.212 9.857 -4.272 -32.684 -1139.857 179.883 -2324.985 -0.633 -0.544 -0.601 -0.16 0.67 -0.71 0.17
1 8.96 896 0.101 -8.643 1.188 17.059 0.000 -29.022 -1139.857 179.883 -2324.985 -0.004 -1.134 -0.531 -0.16 0.66 -0.71 0.16
1 8.97 897 -0.374 -9.017 1.331 12.604 1.495 -31.555 -1139.857 179.883 -2324.985 0.516 -0.758 -0.649 -0.16 0.66 -0.71 0.16
1 8.98 898 -0.718 -8.988 1.044 16.174 6.531 -27.039 -1199.968 104.932 -2429.917 0.906 -0.785 -0.339 -0.16 0.66 -0.71 0.16
1 8.99 899 -0.464 -8.964 0.766 20.752 1.526 -28.565 -1199.968 104.932 -2429.917 0.687 -0.806 -0.031 -0.16 0.66 -0.72 0.16
1 9.00 900 -0.010 -8.658 1.097 20.355 2.411 -24.017 -1364.861 89.941 -2369.956 0.271 -1.109 -0.328 -0.16 0.66 -0.72 0.16
1 9.01 901 0.493 -8.672 0.886 17.944 4.486 -18.890 -1304.900 14.990 -2294.855 -0.196 -1.090 -0.083 -0.16 0.66 -0.72 0.16
1 9.02 902 0.838 -8.663 1.025 19.959 7.294 -15.289 -1304.900 14.990 -2294.855 -0.509 -1.096 -0.192 -0.17 0.66 -0.72 0.16
1 9.03 903 1.111 -8.619 0.948 18.921 9.827 -12.543 -1349.871 74.951 -2324.985 -0.737 -1.132 -0.053 -0.17 0.65 -0.72 0.15
1 9.04 904 1.279 -8.514 0.886 18.402 11.719 -4.730 -1349.871 74.951 -2324.985 -0.888 -1.234 0.040 -0.17 0.65 -0.72 0.15
1 9.05 905 1.475 -8.715 0.886 13.977 10.864 1.587 -1424.972 104.932 -2384.946 -1.081 -1.030 0.068 -0.17 0.65 -0.72 0.15
1 9.06 906 1.346 -8.921 0.843 10.376 14.069 4.730 -1424.972 104.932 -2384.946 -0.947 -0.822 0.132 -0.16 0.65 -0.73 0.15
1 9.07 907 1.077 -8.940 0.857 7.782 14.771 6.165 -1514.913 -44.971 -2474.888 -0.681 -0.801 0.133 -0.16 0.65 -0.73 0.15
1 9.08 908 1.077 -9.122 0.848 9.125 18.799 9.583 -1424.972 29.980 -2429.917 -0.686 -0.618 0.155 -0.16 0.65 -0.73 0.15
1 9.09 909 0.963 -9.280 0.646 9.399 20.599 13.855 -1424.972 29.980 -2429.917 -0.581 -0.459 0.371 -0.16 0.65 -0.73 0.15
1 9.10 910 0.929 -9.395 0.464 6.409 22.858 17.792 -1424.972 74.951 -2429.917 -0.563 -0.343 0.568 -0.16 0.65 -0.73 0.15
1 9.11 911 0.747 -9.161 0.388 4.364 30.457 23.804 -1349.871 74.951 -2534.999 -0.433 -0.578 0.660 -0.16 0.65 -0.73 0.15
1 9.12 912 0.417 -9.098 0.053 4.181 33.997 25.848 -1274.919 0.000 -2459.897 -0.139 -0.641 1.001 -0.15 0.65 -0.73 0.15
1 9.13 913 0.369 -9.189 0.096 -0.488 33.020 26.856 -1274.919 0.000 -2459.897 -0.133 -0.551 0.958 -0.15 0.65 -0.73 0.15
1 9.14 914 0.311 -9.089 -0.057 -7.172 30.274 27.832 -1304.900 89.941 -2414.927 -0.119 -0.653 1.103 -0.15 0.65 -0.73 0.15
1 9.15 915 0.527 -9.271 0.153 -14.435 25.726 20.905 -1409.981 89.941 -2549.989 -0.379 -0.474 0.872 -0.15 0.65 -0.73 0.15
1 9.16 916 0.618 -9.400 0.081 -7.477 21.332 8.087 -1409.981 89.941 -2549.989 -0.506 -0.348 0.918 -0.14 0.65 -0.73 0.15
1 9.17 917 0.934 -9.582 0.450 -6.073 18.555 7.202 -1304.900 -44.971 -2444.907 -0.836 -0.168 0.531 -0.14 0.66 -0.73 0.15
1 9.18 918 0.455 -9.491 0.924 -4.211 23.071 8.484 -1154.998 -44.971 -2549.989 -0.375 -0.262 0.031 -0.14 0.66 -0.73 0.15
1 9.19 919 -0.110 -9.754 0.364 -2.319 23.468 11.444 -1139.857 -29.980 -2639.930 0.178 0.001 0.587 -0.14 0.66 -0.73 0.15
1 9.20 920 -0.474 -9.850 0.527 -2.014 13.336 11.261 -1139.857 -29.980 -2639.930 0.525 0.096 0.419 -0.14 0.66 -0.73 0.15
1 9.21 921 -0.522 -9.697 0.627 -6.714 8.575 10.407 -1184.978 44.971 -2549.989 0.552 -0.058 0.312 -0.14 0.66 -0.73 0.15
1 9.22 922 -0.508 -9.884 0.460 -6.378 7.690 6.958 -1199.968 0.000 -2534.999 0.519 0.128 0.468 -0.13 0.66 -0.73 0.15
1 9.23 923 -0.417 -10.396 0.034 4.822 11.169 1.221 -1199.968 0.000 -2534.999 0.416 0.639 0.884 -0.13 0.66 -0.72 0.15
1 9.24 924 -0.292 -10.736 -0.172 5.005 8.362 -1.129 -1169.988 104.932 -2504.868 0.285 0.979 1.090 -0.13 0.66 -0.72 0.15
1 9.25 925 -0.144 -11.239 -0.412 -3.052 8.270 0.397 -1004.945 44.971 -2729.872 0.136 1.482 1.329 -0.13 0.66 -0.72 0.15
1 9.26 926 0.302 -11.402 -0.862 -1.160 10.803 3.662 -1169.988 -74.951 -2504.868 -0.311 1.644 1.776 -0.13 0.66 -0.72 0.15
1 9.27 927 0.091 -12.115 -0.268 5.127 15.656 9.796 -1169.988 -74.951 -2504.868 -0.106 2.358 1.183 -0.13 0.66 -0.72 0.15
1 9.28 928 0.924 -11.545 -1.077 14.923 13.428 16.144 -1169.988 74.951 -2564.979 -0.959 1.789 2.006 -0.13 0.66 -0.73 0.15
1 9.29 929 1.537 -11.617 -0.814 8.789 12.695 14.130 -1079.896 44.971 -2369.956 -1.596 1.863 1.764 -0.13 0.66 -0.73 0.15
1 9.30 930 1.915 -11.957 -0.536 -11.322 12.116 0.671 -1079.896 44.971 -2369.956 -1.992 2.204 1.495 -0.13 0.66 -0.73 0.15
1 9.31 931 1.202 -11.861 1.111 -14.038 3.296 2.869 -1064.906 -74.951 -2564.979 -1.280 2.107 -0.165 -0.13 0.66 -0.73 0.14
1 9.32 932 0.038 -11.445 0.517 -20.020 -1.343 0.610 -1034.926 -44.971 -2624.940 -0.122 1.687 0.385 -0.13 0.66 -0.72 0.14
1 9.33 933 -0.378 -11.358 0.187 -19.928 1.434 -2.441 -1259.929 -14.990 -2549.989 0.297 1.598 0.686 -0.13 0.66 -0.72 0.14
1 9.34 934 -1.121 -10.683 0.369 -19.959 -4.913 -15.656 -1259.929 -14.990 -2549.989 1.052 0.920 0.480 -0.13 0.66 -0.72 0.14
1 9.35 935 -1.221 -11.038 0.316 -24.353 -2.594 -25.147 -1019.936 -74.951 -2609.950 1.178 1.272 0.499 -0.13 0.66 -0.72 0.14
1 9.36 936 -1.001 -11.109 0.354 -12.116 1.282 -23.560 -1139.857 -29.980 -2684.901 0.997 1.341 0.428 -0.13 0.67 -0.72 0.14
1 9.37 937 -0.364 -10.597 0.488 -1.221 -2.075 -20.203 -1139.857 -29.980 -2684.901 0.396 0.828 0.282 -0.13 0.67 -0.72 0.14
1 9.38 938 0.345 -10.645 0.646 -6.531 -3.448 -18.951 -1244.939 -74.951 -2534.999 -0.284 0.875 0.122 -0.13 0.67 -0.72 0.14
1 9.39 939 0.613 -10.832 1.034 -9.247 -5.066 -11.902 -1109.877 14.990 -2549.989 -0.523 1.062 -0.275 -0.13 0.67 -0.72 0.14
1 9.40 940 0.546 -10.884 0.867 -8.606 -8.240 -5.524 -1199.968 29.980 -2459.897 -0.419 1.113 -0.132 -0.14 0.67 -0.72 0.14
1 9.41 941 0.594 -10.712 0.934 -9.827 -10.498 -4.181 -1199.968 29.980 -2459.897 -0.456 0.940 -0.212 -0.14 0.67 -0.72 0.14
1 9.42 942 0.670 -10.597 1.317 -11.597 -7.935 -1.282 -1184.978 -44.971 -2519.858 -0.524 0.824 -0.608 -0.14 0.67 -0.72 0.14
1 9.43 943 0.455 -10.353 1.844 -9.155 -6.042 2.716 -1229.949 44.971 -2519.858 -0.305 0.579 -1.149 -0.14 0.67 -0.72 0.14
1 9.44 944 0.627 -9.730 2.332 -0.488 -3.082 -0.854 -1229.949 44.971 -2519.858 -0.475 -0.044 -1.641 -0.14 0.67 -0.72 0.14
1 9.45 945 0.603 -9.026 2.461 3.357 1.923 -2.167 -1199.968 -29.980 -2459.897 -0.446 -0.747 -1.762 -0.14 0.67 -0.72 0.14
1 9.46 946 0.321 -8.318 2.792 5.737 9.216 -3.540 -1334.880 -14.990 -2519.858 -0.155 -1.455 -2.076 -0.14 0.67 -0.72 0.14
1 9.47 947 0.268 -7.829 2.940 10.315 14.557 -10.498 -1169.988 -74.951 -2564.979 -0.085 -1.940 -2.188 -0.14 0.66 -0.72 0.14
1 9.48 948 0.532 -7.968 3.227 15.472 17.120 -20.447 -1169.988 -74.951 -2564.979 -0.328 -1.799 -2.455 -0.14 0.66 -0.72 0.14
1 9.49 949 0.393 -8.059 3.060 14.526 20.172 -25.024 -1169.988 29.980 -2564.979 -0.157 -1.705 -2.263 -0.14 0.66 -0.72 0.13
1 9.50 950 0.077 -8.452 2.662 8.423 18.738 -25.696 -1199.968 -104.932 -2504.868 0.196 -1.310 -1.844 -0.14 0.66 -0.72 0.13
1 9.51 951 0.005 -8.912 2.576 1.678 14.099 -30.365 -1199.968 -104.932 -2504.868 0.307 -0.848 -1.738 -0.14 0.66 -0.73 0.13
1 9.52 952 -0.359 -10.046 2.485 -12.054 6.348 -27.802 -1349.871 74.951 -2504.868 0.714 0.290 -1.633 -0.14 0.66 -0.73 0.13
1 9.53 953 -0.594 -10.851 2.265 -12.482 -4.547 -22.339 -1229.949 14.990 -2444.907 0.988 1.096 -1.412 -0.14 0.66 -0.73 0.13
1 9.54 954 -0.646 -11.129 2.337 -13.641 -11.292 -22.064 -1229.949 14.990 -2444.907 1.074 1.374 -1.496 -0.14 0.66 -0.73 0.13
1 9.55 955 -0.814 -11.459 2.126 -9.003 -16.144 -12.299 -1259.929 14.990 -2669.911 1.308 1.705 -1.322 -0.15 0.66 -0.72 0.12
1 9.56 956 -0.737 -11.215 2.160 -1.953 -20.630 -2.106 -1169.988 0.000 -2609.950 1.249 1.460 -1.367 -0.15 0.66 -0.72 0.12
1 9.57 957 -0.828 -10.506 2.126 4.364 -22.156 3.021 -1334.880 -14.990 -2444.907 1.344 0.752 -1.334 -0.15 0.66 -0.72 0.13
1 9.58 958 -0.809 -10.161 1.829 2.319 -23.712 6.226 -1334.880 -14.990 -2444.907 1.318 0.408 -1.026 -0.15 0.66 -0.72 0.13
1 9.59 959 -0.623 -9.793 1.686 1.404 -28.656 15.533 -1259.929 14.990 -2519.858 1.114 0.039 -0.872 -0.15 0.66 -0.72 0.13
1 9.60 960 -0.522 -9.611 1.671 3.784 -29.816 19.898 -1394.991 -74.951 -2564.979 0.988 -0.144 -0.850 -0.15 0.66 -0.72 0.13
1 9.61 961 -0.555 -9.505 1.801 4.395 -29.999 23.834 -1394.991 -74.951 -2564.979 0.991 -0.250 -0.968 -0.15 0.66 -0.72 0.14
1 9.62 962 -0.479 -9.668 1.638 3.967 -31.799 25.391 -1409.981 -164.893 -2624.940 0.838 -0.088 -0.781 -0.15 0.66 -0.72 0.14
1 9.63 963 -0.383 -9.855 1.465 5.188 -33.112 27.161 -1484.933 -89.941 -2549.989 0.704 0.099 -0.597 -0.15 0.66 -0.72 0.15
1 9.64 964 -0.431 -9.668 1.480 6.714 -36.316 29.389 -1394.991 -104.932 -2609.950 0.711 -0.088 -0.598 -0.16 0.66 -0.72 0.15
1 9.65 965 -0.273 -9.381 1.537 7.111 -38.361 26.337 -1394.991 -104.932 -2609.950 0.510 -0.375 -0.641 -0.16 0.66 -0.72 0.15
1 9.66 966 -0.388 -9.237 1.408 7.935 -41.443 25.848 -1334.880 44.971 -2699.891 0.588 -0.518 -0.496 -0.16 0.66 -0.72 0.16
1 9.67 967 -0.378 -8.854 1.566 9.949 -45.654 20.020 -1559.884 -44.971 -2519.858 0.544 -0.900 -0.638 -0.16 0.65 -0.72 0.16
1 9.68 968 -0.733 -8.993 1.144 9.735 -48.645 20.416 -1559.884 -44.971 -2519.858 0.872 -0.760 -0.198 -0.16 0.65 -0.72 0.16
1 9.69 969 -1.168 -9.141 1.058 10.681 -55.939 18.982 -1364.861 14.990 -2624.940 1.255 -0.609 -0.075 -0.16 0.65 -0.72 0.17
1 9.70 970 -1.082 -8.988 1.097 11.536 -59.296 17.792 -1439.962 -89.941 -2444.907 1.142 -0.760 -0.096 -0.16 0.65 -0.72 0.18
1 9.71 971 -1.422 -9.122 1.010 10.529 -61.890 18.799 -1409.981 -89.941 -2474.888 1.458 -0.624 0.010 -0.17 0.65 -0.72 0.18
1 9.72 972 -1.360 -9.108 0.776 9.766 -65.766 19.806 -1409.981 -89.941 -2474.888 1.367 -0.637 0.262 -0.17 0.65 -0.72 0.19
1 9.73 973 -1.283 -9.079 0.919 10.407 -69.672 15.320 -1319.890 -74.951 -2609.950 1.264 -0.664 0.134 -0.17 0.65 -0.72 0.19
1 9.74 974 -1.101 -9.333 0.953 10.040 -73.700 10.437 -1544.894 29.980 -2564.979 1.064 -0.409 0.116 -0.17 0.64 -0.72 0.2
1 9.75 975 -0.900 -9.606 0.900 10.986 -76.325 8.637 -1544.894 29.980 -2564.979 0.852 -0.134 0.185 -0.18 0.64 -0.72 0.2
1 9.76 976 -0.661 -9.826 0.795 8.301 -80.506 5.280 -1499.923 -149.902 -2534.999 0.605 0.090 0.322 -0.18 0.64 -0.72 0.21
1 9.77 977 -0.603 -10.037 0.699 7.141 -83.100 5.157 -1574.874 0.000 -2534.999 0.550 0.302 0.429 -0.19 0.64 -0.72 0.21
1 9.78 978 -0.737 -10.190 0.536 4.272 -91.675 4.242 -1604.854 -74.951 -2564.979 0.690 0.456 0.597 -0.19 0.64 -0.71 0.22
1 9.79 979 -0.795 -10.262 0.469 3.113 -95.551 3.632 -1604.854 -74.951 -2564.979 0.754 0.528 0.668 -0.2 0.64 -0.71 0.22
1 9.80 980 -0.742 -10.061 0.469 3.418 -99.823 2.625 -1634.985 -44.971 -2519.858 0.708 0.327 0.669 -0.2 0.63 -0.71 0.23
1 9.81 981 -0.694 -9.783 0.512 2.716 -104.920 0.824 -1634.985 -89.941 -2444.907 0.670 0.050 0.627 -0.21 0.63 -0.71 0.23
1 9.82 982 -1.025 -9.788 0.599 3.235 -108.490 1.068 -1634.985 -89.941 -2444.907 1.012 0.054 0.542 -0.21 0.63 -0.71 0.24
1 9.83 983 -0.891 -9.663 0.814 3.540 -110.291 1.617 -1829.858 -104.932 -2459.897 0.890 -0.070 0.327 -0.22 0.63 -0.71 0.24
1 9.84 984 -0.872 -9.256 0.527 2.106 -114.319 0.244 -1829.858 -29.980 -2459.897 0.894 -0.476 0.619 -0.23 0.62 -0.7 0.25
1 9.85 985 -0.503 -9.309 0.287 -1.038 -120.301 0.366 -1874.979 -74.951 -2324.985 0.540 -0.424 0.857 -0.23 0.62 -0.7 0.26
1 9.86 986 -0.268 -9.457 0.441 -3.815 -122.254 3.998 -1874.979 -74.951 -2324.985 0.321 -0.276 0.696 -0.24 0.62 -0.7 0.26
1 9.87 987 -0.283 -9.553 0.757 -3.052 -118.164 10.315 -2039.871 -44.971 -2414.927 0.347 -0.182 0.368 -0.25 0.62 -0.7 0.27
1 9.88 988 -0.704 -9.137 0.306 -1.251 -115.113 12.116 -1979.910 -224.854 -2429.917 0.771 -0.599 0.811 -0.25 0.62 -0.69 0.28
1 9.89 989 -0.953 -9.376 0.120 -2.502 -118.775 10.223 -1979.910 -224.854 -2429.917 1.019 -0.360 0.992 -0.26 0.61 -0.69 0.28
1 9.90 990 -0.737 -9.702 0.259 -3.021 -121.857 5.219 -1844.998 -209.863 -2414.927 0.803 -0.036 0.844 -0.26 0.61 -0.69 0.29
1 9.91 991 -0.321 -10.324 0.642 3.448 -120.057 4.822 -2129.962 -104.932 -2279.865 0.400 0.585 0.443 -0.27 0.61 -0.68 0.3
1 9.92 992 -0.177 -10.262 0.785 6.897 -117.676 5.798 -2204.914 -74.951 -2384.946 0.266 0.523 0.301 -0.28 0.61 -0.68 0.3
