COL1	TIME	ACC_X	ACC_Y	ACC_Z	GYR_X	GYR_Y	GYR_Z	MAG_X	MAG_Y	MAG_Z	LACC_X	LACC_Y	LACC_Z	QUAT_X	QUAT_Y	QUAT_Z	QUAT_W
1 0.00 0 0.254 -7.202 6.632 -2.625 -0.793 0.946 -629.890 -2414.927 -4364.856 0.051 -0.081 -0.081 -0.04 0.41 -0.91 0.05
1 0.01 1 0.278 -7.427 6.670 -2.533 -1.404 0.793 -629.890 -2414.927 -4364.856 0.027 0.143 -0.121 -0.04 0.41 -0.91 0.05
1 0.02 2 0.220 -7.331 6.594 -2.350 -1.923 1.617 -464.997 -2519.858 -4319.886 0.085 0.046 -0.046 -0.04 0.41 -0.91 0.05
1 0.03 3 0.263 -7.446 6.690 -2.441 -2.075 1.526 -614.899 -2354.966 -4454.948 0.042 0.160 -0.143 -0.04 0.41 -0.91 0.05
1 0.04 4 0.350 -7.374 6.670 -2.197 -2.075 1.221 -614.899 -2354.966 -4454.948 -0.044 0.086 -0.126 -0.04 0.41 -0.91 0.05
1 0.05 5 0.364 -7.355 6.580 -2.686 -1.556 1.465 -674.860 -2459.897 -4439.958 -0.058 0.066 -0.036 -0.04 0.41 -0.91 0.05
1 0.06 6 0.283 -7.336 6.536 -3.296 -1.068 1.221 -674.860 -2459.897 -4439.958 0.023 0.045 0.005 -0.04 0.41 -0.91 0.05
1 0.07 7 0.225 -7.446 6.618 -3.265 -0.488 1.526 -690.000 -2354.966 -4424.967 0.081 0.153 -0.079 -0.04 0.41 -0.91 0.05
1 0.08 8 0.158 -7.441 6.714 -3.265 -0.275 1.617 -569.929 -2414.927 -4289.905 0.144 0.144 -0.179 -0.04 0.41 -0.91 0.05
1 0.09 9 0.172 -7.298 6.704 -2.197 -1.587 1.434 -509.968 -2354.966 -4274.915 0.128 -0.001 -0.172 -0.04 0.41 -0.91 0.05
1 0.10 10 0.201 -7.408 6.661 -2.594 -2.319 1.892 -674.860 -2339.976 -4229.944 0.098 0.108 -0.129 -0.04 0.41 -0.91 0.05
1 0.11 11 0.215 -7.389 6.556 -2.563 -2.472 1.862 -674.860 -2339.976 -4229.944 0.084 0.087 -0.026 -0.04 0.41 -0.91 0.05
1 0.12 12 0.187 -7.470 6.570 -3.113 -2.991 1.221 -734.971 -2519.858 -4394.987 0.113 0.167 -0.043 -0.04 0.41 -0.91 0.05
1 0.13 13 0.139 -7.446 6.489 -3.265 -2.502 1.984 -734.971 -2519.858 -4394.987 0.161 0.140 0.036 -0.04 0.41 -0.91 0.05
1 0.14 14 0.345 -7.475 6.647 -3.082 -2.808 1.801 -599.909 -2414.927 -4289.905 -0.044 0.166 -0.125 -0.04 0.41 -0.91 0.05
1 0.15 15 0.220 -7.465 6.450 -2.625 -2.014 1.801 -599.909 -2384.946 -4334.876 0.081 0.152 0.067 -0.04 0.41 -0.91 0.05
1 0.16 16 0.388 -7.528 6.460 -3.174 -1.984 2.380 -614.899 -2444.907 -4529.899 -0.087 0.212 0.055 -0.04 0.41 -0.91 0.05
1 0.17 17 0.268 -7.360 6.517 -2.716 -2.563 2.167 -614.899 -2354.966 -4424.967 0.033 0.042 -0.006 -0.04 0.41 -0.91 0.05
1 0.18 18 0.436 -7.365 6.656 -2.502 -1.831 2.380 -614.899 -2354.966 -4424.967 -0.135 0.045 -0.147 -0.04 0.41 -0.91 0.05
1 0.19 19 0.273 -7.489 6.618 -2.350 -0.824 1.648 -569.929 -2384.946 -4484.928 0.028 0.168 -0.110 -0.04 0.41 -0.91 0.05
1 0.20 20 0.407 -7.427 6.771 -2.319 -1.221 2.197 -569.929 -2384.946 -4484.928 -0.108 0.104 -0.265 -0.04 0.41 -0.91 0.05
1 0.21 21 0.393 -7.465 6.575 -1.434 -0.763 2.380 -614.899 -2354.966 -4424.967 -0.095 0.141 -0.070 -0.04 0.41 -0.91 0.05
1 0.22 22 0.177 -7.504 6.623 -1.862 -0.702 2.045 -659.870 -2399.937 -4424.967 0.120 0.179 -0.118 -0.04 0.41 -0.91 0.05
1 0.23 23 0.192 -7.365 6.608 -2.289 -1.740 2.594 -584.919 -2444.907 -4394.987 0.103 0.039 -0.106 -0.04 0.41 -0.91 0.05
1 0.24 24 0.254 -7.508 6.565 -2.380 -2.136 2.716 -524.958 -2384.946 -4289.905 0.039 0.181 -0.064 -0.04 0.41 -0.91 0.05
1 0.25 25 0.311 -7.398 6.565 -1.953 -2.594 2.167 -524.958 -2384.946 -4289.905 -0.018 0.069 -0.066 -0.04 0.41 -0.91 0.05
1 0.26 26 0.225 -7.480 6.421 -1.953 -3.418 1.953 -614.899 -2444.907 -4394.987 0.067 0.149 0.076 -0.04 0.41 -0.91 0.05
1 0.27 27 0.139 -7.437 6.417 -2.441 -2.747 1.892 -614.899 -2444.907 -4394.987 0.155 0.105 0.079 -0.04 0.41 -0.91 0.05
1 0.28 28 0.235 -7.427 6.460 -1.801 -2.472 2.106 -690.000 -2354.966 -4424.967 0.059 0.094 0.035 -0.04 0.41 -0.91 0.05
1 0.29 29 0.215 -7.422 6.503 -2.258 -3.204 1.984 -569.929 -2309.995 -4439.958 0.078 0.088 -0.010 -0.04 0.41 -0.91 0.05
1 0.30 30 0.148 -7.695 6.450 -2.411 -4.059 2.625 -509.968 -2279.865 -4454.948 0.146 0.357 0.039 -0.04 0.41 -0.91 0.05
1 0.31 31 0.196 -7.566 6.479 -2.167 -3.174 3.204 -584.919 -2444.907 -4319.886 0.099 0.226 0.008 -0.04 0.41 -0.91 0.05
1 0.32 32 0.345 -7.719 6.603 -1.862 -2.625 2.838 -584.919 -2444.907 -4319.886 -0.050 0.377 -0.119 -0.04 0.41 -0.91 0.05
1 0.33 33 0.225 -7.547 6.675 -1.556 -2.686 2.747 -629.890 -2264.875 -4484.928 0.069 0.203 -0.193 -0.04 0.41 -0.91 0.05
1 0.34 34 0.374 -7.528 6.651 -1.251 -2.380 2.594 -629.890 -2264.875 -4484.928 -0.080 0.183 -0.170 -0.04 0.41 -0.91 0.05
1 0.35 35 0.302 -7.528 6.642 0.153 -2.625 2.960 -539.948 -2249.884 -4274.915 -0.009 0.183 -0.161 -0.04 0.41 -0.91 0.05
1 0.36 36 0.302 -7.590 6.651 -0.397 -1.556 3.510 -584.919 -2354.966 -4274.915 -0.010 0.245 -0.170 -0.04 0.41 -0.91 0.05
1 0.37 37 0.287 -7.413 6.603 -1.007 -0.702 3.204 -599.909 -2384.946 -4409.977 0.002 0.069 -0.121 -0.04 0.41 -0.91 0.05
1 0.38 38 0.268 -7.470 6.498 -1.282 -0.824 3.143 -614.899 -2354.966 -4349.866 0.019 0.126 -0.016 -0.04 0.41 -0.91 0.05
1 0.39 39 0.144 -7.523 6.484 -0.702 -2.350 3.082 -614.899 -2354.966 -4349.866 0.141 0.178 -0.002 -0.04 0.41 -0.91 0.05
1 0.40 40 0.263 -7.398 6.469 0.732 -3.357 3.082 -674.860 -2384.946 -4439.958 0.020 0.054 0.012 -0.04 0.41 -0.91 0.05
1 0.41 41 0.192 -7.398 6.479 0.549 -3.906 2.472 -674.860 -2384.946 -4439.958 0.091 0.055 0.004 -0.04 0.41 -0.91 0.05
1 0.42 42 0.158 -7.303 6.493 -0.275 -4.425 3.326 -629.890 -2414.927 -4364.856 0.125 -0.040 -0.009 -0.04 0.41 -0.91 0.05
1 0.43 43 0.239 -7.355 6.589 -0.885 -5.249 3.571 -614.899 -2474.888 -4424.967 0.044 0.013 -0.104 -0.04 0.41 -0.91 0.05
1 0.44 44 0.330 -7.422 6.489 -0.946 -5.188 4.334 -659.870 -2474.888 -4319.886 -0.045 0.081 -0.003 -0.04 0.41 -0.91 0.05
1 0.45 45 0.345 -7.422 6.412 -0.977 -5.585 3.998 -690.000 -2324.985 -4424.967 -0.058 0.081 0.073 -0.04 0.41 -0.91 0.05
1 0.46 46 0.335 -7.365 6.680 -0.702 -4.700 4.150 -690.000 -2324.985 -4424.967 -0.047 0.024 -0.194 -0.04 0.41 -0.91 0.05
1 0.47 47 0.350 -7.523 6.527 -1.251 -4.578 3.784 -690.000 -2354.966 -4349.866 -0.061 0.183 -0.040 -0.04 0.41 -0.91 0.05
1 0.48 48 0.445 -7.494 6.493 -0.641 -3.052 3.235 -690.000 -2354.966 -4349.866 -0.155 0.153 -0.007 -0.04 0.41 -0.91 0.05
1 0.49 49 0.632 -7.403 6.489 -1.556 -2.380 3.845 -584.919 -2549.989 -4274.915 -0.341 0.062 -0.003 -0.04 0.41 -0.91 0.05
1 0.50 50 0.508 -7.403 6.378 -1.221 -2.167 3.937 -749.961 -2414.927 -4544.889 -0.217 0.061 0.106 -0.04 0.41 -0.91 0.05
1 0.51 51 0.378 -7.422 6.445 -1.373 -2.075 3.571 -749.961 -2414.927 -4544.889 -0.088 0.080 0.038 -0.04 0.41 -0.91 0.06
1 0.52 52 0.469 -7.518 6.479 -0.519 -2.319 3.754 -659.870 -2519.858 -4394.987 -0.182 0.174 0.003 -0.04 0.41 -0.91 0.06
1 0.53 53 0.565 -7.451 6.536 -0.153 -2.594 3.571 -659.870 -2519.858 -4394.987 -0.277 0.107 -0.054 -0.04 0.41 -0.91 0.06
1 0.54 54 0.388 -7.480 6.570 -0.793 -2.441 3.815 -734.971 -2354.966 -4529.899 -0.100 0.136 -0.087 -0.04 0.41 -0.91 0.06
1 0.55 55 0.551 -7.403 6.469 -1.556 -2.350 2.960 -734.971 -2354.966 -4529.899 -0.263 0.060 0.014 -0.04 0.41 -0.91 0.06
1 0.56 56 0.508 -7.456 6.426 -1.282 -1.984 2.716 -629.890 -2339.976 -4409.977 -0.219 0.112 0.056 -0.04 0.41 -0.91 0.06
1 0.57 57 0.402 -7.418 6.556 -1.099 -2.869 2.380 -704.991 -2414.927 -4484.928 -0.113 0.073 -0.074 -0.04 0.41 -0.91 0.06
1 0.58 58 0.455 -7.446 6.508 -1.251 -3.571 3.174 -704.991 -2414.927 -4484.928 -0.164 0.101 -0.026 -0.04 0.41 -0.91 0.06
1 0.59 59 0.436 -7.552 6.560 -1.434 -3.693 2.655 -674.860 -2414.927 -4334.876 -0.142 0.205 -0.081 -0.04 0.41 -0.91 0.06
1 0.60 60 0.450 -7.499 6.431 -0.336 -2.991 2.625 -674.860 -2414.927 -4334.876 -0.154 0.152 0.048 -0.04 0.41 -0.91 0.06
1 0.61 61 0.599 -7.542 6.603 -0.183 -2.686 2.808 -659.870 -2354.966 -4274.915 -0.301 0.195 -0.125 -0.04 0.41 -0.91 0.06
1 0.62 62 0.508 -7.389 6.603 -0.671 -2.319 2.472 -659.870 -2354.966 -4274.915 -0.208 0.042 -0.125 -0.04 0.41 -0.91 0.06
1 0.63 63 0.517 -7.427 6.455 -0.854 -2.106 2.960 -690.000 -2324.985 -4274.915 -0.217 0.081 0.024 -0.04 0.41 -0.91 0.06
1 0.64 64 0.551 -7.465 6.484 -0.977 -1.282 2.441 -734.971 -2279.865 -4454.948 -0.250 0.119 -0.004 -0.04 0.41 -0.91 0.06
1 0.65 65 0.503 -7.418 6.599 -1.373 -1.007 2.319 -734.971 -2279.865 -4454.948 -0.201 0.071 -0.119 -0.04 0.41 -0.91 0.06
1 0.66 66 0.397 -7.508 6.450 -1.617 -0.702 2.228 -509.968 -2249.884 -4499.918 -0.095 0.162 0.029 -0.04 0.41 -0.91 0.06
1 0.67 67 0.311 -7.374 6.445 -1.892 -1.556 2.075 -690.000 -2474.888 -4274.915 -0.008 0.026 0.032 -0.04 0.41 -0.91 0.06
1 0.68 68 0.211 -7.413 6.469 -1.312 -2.533 2.350 -690.000 -2249.884 -4454.948 0.092 0.064 0.007 -0.04 0.41 -0.91 0.06
1 0.69 69 0.388 -7.489 6.436 -0.244 -2.808 2.106 -690.000 -2249.884 -4454.948 -0.084 0.140 0.040 -0.04 0.41 -0.91 0.06
1 0.70 70 0.364 -7.346 6.465 -0.366 -3.448 1.862 -674.860 -2489.878 -4409.977 -0.059 -0.004 0.011 -0.04 0.41 -0.91 0.06
1 0.71 71 0.340 -7.475 6.450 -0.793 -3.845 1.923 -614.899 -2354.966 -4394.987 -0.033 0.125 0.025 -0.04 0.41 -0.91 0.06
1 0.72 72 0.512 -7.418 6.603 -1.312 -4.150 1.892 -614.899 -2354.966 -4394.987 -0.204 0.068 -0.128 -0.04 0.41 -0.91 0.06
1 0.73 73 0.551 -7.384 6.565 -1.495 -4.303 2.258 -824.913 -2459.897 -4289.905 -0.240 0.034 -0.091 -0.04 0.41 -0.91 0.06
1 0.74 74 0.536 -7.422 6.560 -1.312 -4.334 2.411 -599.909 -2384.946 -4334.876 -0.218 0.072 -0.087 -0.04 0.41 -0.91 0.06
1 0.75 75 0.575 -7.451 6.412 -1.221 -3.510 2.319 -599.909 -2459.897 -4544.889 -0.253 0.100 0.061 -0.04 0.41 -0.91 0.06
1 0.76 76 0.484 -7.422 6.570 -1.434 -2.991 1.862 -599.909 -2459.897 -4544.889 -0.160 0.070 -0.098 -0.04 0.41 -0.91 0.06
1 0.77 77 0.522 -7.475 6.603 -0.946 -1.526 2.106 -734.971 -2204.914 -4349.866 -0.195 0.123 -0.132 -0.04 0.41 -0.91 0.06
1 0.78 78 0.546 -7.580 6.613 -1.068 -0.519 1.434 -584.919 -2444.907 -4499.918 -0.218 0.228 -0.141 -0.04 0.41 -0.91 0.06
1 0.79 79 0.646 -7.494 6.455 -1.343 -0.641 0.763 -584.919 -2444.907 -4499.918 -0.317 0.142 0.016 -0.04 0.41 -0.91 0.06
1 0.80 80 0.498 -7.513 6.603 -0.610 -0.397 0.488 -674.860 -2459.897 -4259.925 -0.167 0.161 -0.133 -0.04 0.41 -0.91 0.06
1 0.81 81 0.374 -7.384 6.517 -1.648 -0.580 0.153 -629.890 -2339.976 -4289.905 -0.040 0.031 -0.047 -0.04 0.41 -0.91 0.06
1 0.82 82 0.417 -7.465 6.460 -2.625 -0.366 0.336 -690.000 -2399.937 -4244.935 -0.083 0.113 0.011 -0.04 0.41 -0.91 0.06
1 0.83 83 0.374 -7.336 6.484 -1.404 0.366 0.580 -690.000 -2399.937 -4244.935 -0.039 -0.017 -0.014 -0.04 0.41 -0.91 0.06
1 0.84 84 0.326 -7.437 6.546 -1.251 0.183 -0.305 -704.991 -2309.995 -4484.928 0.010 0.083 -0.077 -0.04 0.41 -0.91 0.06
1 0.85 85 0.402 -7.523 6.551 -0.214 -0.549 0.488 -704.991 -2339.976 -4484.928 -0.066 0.169 -0.082 -0.04 0.41 -0.91 0.06
1 0.86 86 0.378 -7.446 6.594 0.214 -0.916 0.092 -704.991 -2339.976 -4484.928 -0.042 0.093 -0.124 -0.04 0.41 -0.91 0.06
1 0.87 87 0.268 -7.518 6.584 0.397 -1.251 -0.031 -690.000 -2324.985 -4349.866 0.070 0.166 -0.114 -0.04 0.41 -0.91 0.06
1 0.88 88 0.306 -7.413 6.580 -1.556 -0.671 -0.183 -749.961 -2219.904 -4409.977 0.033 0.062 -0.107 -0.04 0.41 -0.91 0.06
1 0.89 89 0.532 -7.355 6.556 -1.526 -0.366 0.275 -749.961 -2309.995 -4334.876 -0.191 0.005 -0.083 -0.04 0.41 -0.91 0.06
1 0.90 90 0.326 -7.580 6.560 -1.068 0.000 0.641 -749.961 -2309.995 -4334.876 0.016 0.230 -0.088 -0.04 0.41 -0.91 0.06
1 0.91 91 0.445 -7.475 6.618 0.000 -0.031 0.244 -704.991 -2489.878 -4439.958 -0.104 0.124 -0.146 -0.04 0.41 -0.91 0.06
1 0.92 92 0.263 -7.489 6.680 0.458 1.099 0.275 -704.991 -2459.897 -4544.889 0.078 0.140 -0.207 -0.04 0.41 -0.91 0.06
1 0.93 93 0.364 -7.576 6.527 0.366 0.671 0.183 -704.991 -2459.897 -4544.889 -0.024 0.227 -0.052 -0.04 0.41 -0.91 0.06
1 0.94 94 0.316 -7.427 6.484 -0.397 0.977 0.214 -614.899 -2354.966 -4349.866 0.023 0.080 -0.007 -0.04 0.41 -0.91 0.06
1 0.95 95 0.292 -7.518 6.560 -0.519 -0.031 0.214 -704.991 -2414.927 -4334.876 0.047 0.172 -0.082 -0.04 0.41 -0.91 0.06
1 0.96 96 0.469 -7.418 6.503 -0.549 -0.244 0.549 -779.942 -2414.927 -4364.856 -0.131 0.071 -0.025 -0.04 0.41 -0.91 0.06
1 0.97 97 0.259 -7.418 6.594 -0.031 -0.366 0.244 -779.942 -2414.927 -4364.856 0.081 0.071 -0.116 -0.04 0.41 -0.91 0.06
1 0.98 98 0.464 -7.346 6.551 -0.122 -1.099 0.122 -824.913 -2489.878 -4409.977 -0.125 0.000 -0.073 -0.04 0.41 -0.91 0.06
1 0.99 99 0.350 -7.408 6.618 -0.275 -0.763 -0.031 -704.991 -2414.927 -4439.958 -0.009 0.063 -0.139 -0.04 0.41 -0.91 0.06
1 1.00 100 0.302 -7.504 6.651 -0.580 -0.031 -0.366 -704.991 -2414.927 -4439.958 0.040 0.159 -0.172 -0.04 0.41 -0.91 0.06
1 1.01 101 0.268 -7.437 6.584 -0.427 0.031 -0.244 -674.860 -2309.995 -4289.905 0.074 0.093 -0.104 -0.04 0.41 -0.91 0.06
1 1.02 102 0.283 -7.437 6.498 -0.488 0.275 0.458 -659.870 -2354.966 -4349.866 0.060 0.094 -0.017 -0.04 0.41 -0.91 0.06
1 1.03 103 0.182 -7.437 6.532 -0.183 0.183 0.244 -614.899 -2519.858 -4349.866 0.159 0.095 -0.049 -0.04 0.41 -0.91 0.06
1 1.04 104 0.158 -7.422 6.565 0.519 0.366 0.244 -614.899 -2519.858 -4349.866 0.182 0.081 -0.082 -0.04 0.41 -0.91 0.06
1 1.05 105 0.268 -7.370 6.575 0.214 -0.427 0.366 -794.932 -2279.865 -4349.866 0.070 0.030 -0.090 -0.04 0.41 -0.91 0.06
1 1.06 106 0.077 -7.398 6.551 0.305 -0.244 1.404 -734.971 -2444.907 -4349.866 0.261 0.060 -0.065 -0.04 0.41 -0.91 0.06
1 1.07 107 0.263 -7.384 6.522 0.183 -1.312 0.854 -734.971 -2444.907 -4349.866 0.073 0.047 -0.034 -0.04 0.41 -0.91 0.06
1 1.08 108 0.292 -7.413 6.469 0.366 -1.495 0.641 -779.942 -2339.976 -4514.909 0.044 0.077 0.020 -0.04 0.41 -0.91 0.06
1 1.09 109 0.316 -7.456 6.541 -0.641 -1.862 0.885 -584.919 -2399.937 -4454.948 0.021 0.122 -0.050 -0.04 0.41 -0.91 0.06
1 1.10 110 0.421 -7.489 6.690 -1.068 -1.282 1.038 -584.919 -2399.937 -4454.948 -0.085 0.156 -0.198 -0.04 0.41 -0.91 0.06
1 1.11 111 0.283 -7.398 6.532 -0.397 -0.641 0.702 -749.961 -2339.976 -4409.977 0.055 0.065 -0.039 -0.04 0.41 -0.91 0.06
1 1.12 112 0.326 -7.379 6.580 -0.153 -0.031 0.916 -764.952 -2474.888 -4394.987 0.012 0.046 -0.087 -0.04 0.41 -0.91 0.06
1 1.13 113 0.450 -7.461 6.527 0.427 0.793 0.763 -659.870 -2354.966 -4454.948 -0.113 0.128 -0.034 -0.04 0.41 -0.91 0.06
1 1.14 114 0.306 -7.451 6.589 0.092 0.244 0.488 -659.870 -2354.966 -4454.948 0.030 0.120 -0.094 -0.04 0.41 -0.91 0.06
1 1.15 115 0.364 -7.346 6.666 -0.732 -0.061 0.427 -539.948 -2324.985 -4499.918 -0.028 0.016 -0.170 -0.04 0.41 -0.91 0.06
1 1.16 116 0.374 -7.446 6.623 -0.549 -0.122 -0.427 -764.952 -2204.914 -4454.948 -0.037 0.116 -0.126 -0.04 0.41 -0.91 0.06
1 1.17 117 0.421 -7.465 6.623 -0.458 -0.244 0.336 -764.952 -2204.914 -4454.948 -0.085 0.136 -0.126 -0.04 0.41 -0.91 0.06
1 1.18 118 0.359 -7.437 6.551 -0.641 0.702 -0.092 -690.000 -2444.907 -4319.886 -0.022 0.108 -0.054 -0.04 0.41 -0.91 0.06
1 1.19 119 0.488 -7.441 6.584 -0.092 0.183 -0.061 -690.000 -2474.888 -4139.853 -0.152 0.113 -0.087 -0.04 0.41 -0.91 0.05
1 1.20 120 0.278 -7.456 6.627 -0.153 0.092 0.122 -690.000 -2354.966 -4274.915 0.059 0.128 -0.129 -0.04 0.41 -0.91 0.05
1 1.21 121 0.503 -7.365 6.517 -0.397 -0.427 0.122 -690.000 -2354.966 -4274.915 -0.166 0.037 -0.019 -0.04 0.41 -0.91 0.05
1 1.22 122 0.330 -7.379 6.532 -0.916 -0.153 0.397 -690.000 -2444.907 -4454.948 0.007 0.052 -0.033 -0.04 0.41 -0.91 0.05
1 1.23 123 0.263 -7.566 6.532 -0.702 -0.031 -0.458 -659.870 -2324.985 -4394.987 0.074 0.238 -0.033 -0.04 0.41 -0.91 0.05
1 1.24 124 0.316 -7.552 6.527 0.610 0.183 -0.214 -659.870 -2324.985 -4394.987 0.022 0.224 -0.029 -0.04 0.41 -0.91 0.05
1 1.25 125 0.536 -7.499 6.541 0.793 0.702 -0.244 -614.899 -2249.884 -4274.915 -0.198 0.173 -0.041 -0.04 0.41 -0.91 0.05
1 1.26 126 0.345 -7.461 6.594 0.671 0.519 -0.519 -539.948 -2444.907 -4349.866 -0.006 0.136 -0.092 -0.04 0.41 -0.91 0.05
1 1.27 127 0.397 -7.513 6.570 -0.061 0.946 -0.488 -734.971 -2324.985 -4319.886 -0.058 0.190 -0.066 -0.04 0.41 -0.91 0.05
1 1.28 128 0.359 -7.422 6.575 0.183 1.404 -0.275 -734.971 -2324.985 -4319.886 -0.020 0.100 -0.070 -0.04 0.41 -0.91 0.05
1 1.29 129 0.498 -7.508 6.570 0.275 2.411 -0.549 -659.870 -2354.966 -4244.935 -0.159 0.188 -0.064 -0.04 0.41 -0.91 0.05
1 1.30 130 0.278 -7.451 6.627 1.160 1.984 0.000 -659.870 -2174.933 -4454.948 0.060 0.131 -0.120 -0.04 0.41 -0.91 0.05
1 1.31 131 0.426 -7.374 6.704 1.678 0.793 -0.610 -659.870 -2174.933 -4454.948 -0.089 0.057 -0.194 -0.04 0.41 -0.91 0.05
1 1.32 132 0.326 -7.336 6.608 1.801 0.305 -1.282 -614.899 -2399.937 -4274.915 0.011 0.024 -0.093 -0.04 0.41 -0.91 0.05
1 1.33 133 0.235 -7.374 6.532 1.587 -0.122 -1.373 -539.948 -2354.966 -4394.987 0.103 0.065 -0.012 -0.04 0.41 -0.91 0.05
1 1.34 134 0.211 -7.303 6.556 0.549 -0.885 -0.885 -704.991 -2384.946 -4334.876 0.128 -0.005 -0.035 -0.04 0.41 -0.91 0.05
1 1.35 135 0.239 -7.355 6.450 0.214 -1.099 -0.244 -704.991 -2384.946 -4334.876 0.099 0.048 0.071 -0.04 0.41 -0.91 0.05
1 1.36 136 0.101 -7.245 6.455 -0.092 -1.190 0.275 -584.919 -2354.966 -4274.915 0.238 -0.061 0.068 -0.04 0.41 -0.91 0.05
1 1.37 137 0.249 -7.475 6.503 -0.031 -2.380 0.519 -659.870 -2354.966 -4454.948 0.090 0.169 0.020 -0.04 0.41 -0.91 0.05
1 1.38 138 0.211 -7.398 6.522 0.702 -2.014 0.824 -659.870 -2354.966 -4454.948 0.129 0.093 0.002 -0.04 0.41 -0.91 0.05
1 1.39 139 0.426 -7.283 6.608 0.214 -2.045 1.312 -599.909 -2459.897 -4439.958 -0.086 -0.020 -0.083 -0.04 0.41 -0.91 0.05
1 1.40 140 0.340 -7.552 6.632 -0.366 -1.373 1.678 -704.991 -2459.897 -4364.856 -0.000 0.249 -0.106 -0.04 0.41 -0.91 0.05
1 1.41 141 0.431 -7.513 6.656 -0.275 -1.953 2.563 -690.000 -2279.865 -4274.915 -0.092 0.210 -0.130 -0.04 0.41 -0.91 0.05
1 1.42 142 0.364 -7.528 6.623 -0.519 -1.801 1.923 -690.000 -2279.865 -4274.915 -0.025 0.225 -0.096 -0.04 0.41 -0.91 0.05
1 1.43 143 0.397 -7.494 6.670 0.854 -2.014 1.434 -734.971 -2399.937 -4349.866 -0.059 0.192 -0.144 -0.04 0.41 -0.91 0.05
1 1.44 144 0.402 -7.537 6.651 1.495 -1.831 1.129 -629.890 -2384.946 -4439.958 -0.063 0.236 -0.123 -0.04 0.41 -0.91 0.05
1 1.45 145 0.579 -7.461 6.647 1.465 -0.885 0.854 -629.890 -2384.946 -4439.958 -0.239 0.161 -0.117 -0.04 0.41 -0.91 0.05
1 1.46 146 0.326 -7.346 6.642 0.916 -0.793 0.366 -629.890 -2384.946 -4409.977 0.015 0.048 -0.110 -0.04 0.41 -0.91 0.05
1 1.47 147 0.306 -7.331 6.536 0.854 -0.305 0.336 -674.860 -2414.927 -4334.876 0.036 0.037 -0.000 -0.04 0.41 -0.91 0.05
1 1.48 148 0.321 -7.298 6.589 0.427 -0.366 0.671 -659.870 -2519.858 -4454.948 0.022 0.005 -0.051 -0.04 0.41 -0.91 0.05
1 1.49 149 0.350 -7.307 6.575 0.427 -1.129 0.702 -659.870 -2519.858 -4454.948 -0.007 0.017 -0.035 -0.04 0.41 -0.91 0.05
1 1.50 150 0.239 -7.298 6.445 0.000 -1.221 0.580 -674.860 -2309.995 -4409.977 0.104 0.008 0.096 -0.04 0.41 -0.91 0.05
1 1.51 151 0.402 -7.341 6.546 0.000 -1.160 1.587 -749.961 -2309.995 -4259.925 -0.059 0.052 -0.004 -0.04 0.41 -0.91 0.05
1 1.52 152 0.345 -7.231 6.484 -0.153 -0.916 1.251 -749.961 -2309.995 -4259.925 -0.002 -0.058 0.059 -0.04 0.41 -0.91 0.05
1 1.53 153 0.354 -7.408 6.508 -0.275 -0.671 2.045 -690.000 -2444.907 -4349.866 -0.012 0.120 0.035 -0.04 0.41 -0.91 0.05
1 1.54 154 0.345 -7.255 6.441 -0.732 0.763 1.709 -690.000 -2444.907 -4349.866 -0.003 -0.033 0.103 -0.04 0.41 -0.91 0.05
1 1.55 155 0.278 -7.422 6.694 -0.916 1.099 1.373 -690.000 -2444.907 -4454.948 0.061 0.135 -0.151 -0.04 0.41 -0.91 0.05
1 1.56 156 0.316 -7.489 6.656 0.397 -0.427 1.068 -690.000 -2444.907 -4454.948 0.020 0.202 -0.112 -0.04 0.41 -0.91 0.05
1 1.57 157 0.402 -7.528 6.709 1.068 -1.862 1.709 -734.971 -2474.888 -4424.967 -0.066 0.242 -0.163 -0.04 0.41 -0.91 0.05
1 1.58 158 0.364 -7.389 6.785 0.763 -2.777 1.190 -704.991 -2309.995 -4409.977 -0.027 0.105 -0.238 -0.04 0.41 -0.91 0.05
1 1.59 159 0.431 -7.418 6.814 -0.214 -1.831 0.854 -704.991 -2309.995 -4409.977 -0.093 0.135 -0.265 -0.04 0.41 -0.91 0.05
1 1.60 160 0.474 -7.465 6.666 -0.977 -1.740 0.183 -734.971 -2399.937 -4499.918 -0.134 0.184 -0.115 -0.04 0.4 -0.91 0.05
1 1.61 161 0.464 -7.437 6.661 -0.183 -0.671 0.000 -734.971 -2399.937 -4499.918 -0.123 0.155 -0.111 -0.04 0.4 -0.91 0.05
1 1.62 162 0.417 -7.303 6.661 0.702 0.397 0.244 -539.948 -2444.907 -4454.948 -0.074 0.022 -0.110 -0.04 0.4 -0.91 0.05
1 1.63 163 0.393 -7.312 6.627 0.946 0.336 -0.366 -539.948 -2444.907 -4454.948 -0.049 0.034 -0.074 -0.04 0.4 -0.91 0.05
1 1.64 164 0.450 -7.236 6.589 0.763 0.244 -0.061 -704.991 -2489.878 -4364.856 -0.106 -0.041 -0.033 -0.04 0.4 -0.91 0.05
1 1.65 165 0.350 -7.212 6.805 -0.366 0.122 0.275 -690.000 -2519.858 -4244.935 -0.005 -0.063 -0.246 -0.04 0.4 -0.91 0.05
1 1.66 166 0.335 -7.298 6.493 -2.838 -0.183 -0.305 -690.000 -2519.858 -4244.935 0.009 0.025 0.066 -0.04 0.4 -0.91 0.05
1 1.67 167 0.460 -7.341 6.685 -2.563 0.610 -0.092 -690.000 -2474.888 -4529.899 -0.113 0.066 -0.127 -0.04 0.4 -0.91 0.05
1 1.68 168 0.340 -7.259 6.527 -2.441 0.671 -0.458 -690.000 -2474.888 -4529.899 0.006 -0.017 0.029 -0.04 0.4 -0.91 0.05
1 1.69 169 0.302 -7.312 6.580 -1.343 1.068 0.183 -659.870 -2354.966 -4394.987 0.045 0.033 -0.027 -0.04 0.4 -0.91 0.05
1 1.70 170 0.273 -7.350 6.599 -0.916 0.763 -0.397 -659.870 -2354.966 -4394.987 0.073 0.072 -0.046 -0.04 0.4 -0.91 0.05
1 1.71 171 0.239 -7.355 6.675 -0.763 0.061 -0.427 -749.961 -2384.946 -4439.958 0.105 0.077 -0.122 -0.04 0.4 -0.91 0.05
1 1.72 172 0.364 -7.403 6.752 -0.366 -0.519 0.031 -704.991 -2384.946 -4409.977 -0.020 0.126 -0.197 -0.04 0.4 -0.91 0.05
1 1.73 173 0.230 -7.336 6.666 -0.916 -0.336 -0.305 -704.991 -2384.946 -4409.977 0.114 0.060 -0.110 -0.04 0.4 -0.91 0.05
1 1.74 174 0.201 -7.341 6.560 -2.106 -0.977 -0.153 -824.913 -2339.976 -4484.928 0.143 0.064 -0.005 -0.04 0.4 -0.91 0.05
1 1.75 175 0.306 -7.470 6.618 -2.075 -0.885 0.092 -824.913 -2339.976 -4484.928 0.038 0.194 -0.062 -0.04 0.4 -0.91 0.05
1 1.76 176 0.287 -7.389 6.527 -1.801 -1.831 0.702 -674.860 -2384.946 -4364.856 0.055 0.111 0.027 -0.04 0.4 -0.91 0.05
1 1.77 177 0.278 -7.379 6.584 -1.099 -1.923 0.763 -674.860 -2384.946 -4364.856 0.065 0.101 -0.030 -0.04 0.4 -0.91 0.05
1 1.78 178 0.374 -7.441 6.512 -0.031 -2.014 0.702 -690.000 -2324.985 -4424.967 -0.032 0.163 0.041 -0.04 0.4 -0.91 0.05
1 1.79 179 0.378 -7.422 6.589 0.153 -2.472 0.610 -690.000 -2324.985 -4394.987 -0.035 0.145 -0.035 -0.04 0.4 -0.91 0.05
1 1.80 180 0.378 -7.403 6.594 -0.671 -1.678 0.977 -690.000 -2324.985 -4394.987 -0.033 0.126 -0.039 -0.04 0.4 -0.91 0.05
1 1.81 181 0.369 -7.461 6.584 -0.885 -1.953 1.160 -569.929 -2339.976 -4409.977 -0.023 0.183 -0.030 -0.04 0.4 -0.91 0.05
1 1.82 182 0.340 -7.494 6.637 -0.946 -0.885 1.099 -569.929 -2339.976 -4409.977 0.006 0.216 -0.083 -0.04 0.4 -0.91 0.05
1 1.83 183 0.532 -7.403 6.618 -1.068 -1.007 1.465 -674.860 -2654.920 -4484.928 -0.185 0.125 -0.064 -0.04 0.4 -0.91 0.05
1 1.84 184 0.297 -7.355 6.642 -0.397 -1.465 0.549 -704.991 -2459.897 -4484.928 0.051 0.076 -0.089 -0.04 0.4 -0.91 0.05
1 1.85 185 0.287 -7.480 6.517 -1.007 -1.831 1.190 -734.971 -2444.907 -4319.886 0.060 0.201 0.035 -0.04 0.4 -0.91 0.05
1 1.86 186 0.450 -7.384 6.675 -1.160 -1.862 0.763 -779.942 -2339.976 -4334.876 -0.102 0.105 -0.123 -0.04 0.4 -0.91 0.05
1 1.87 187 0.350 -7.341 6.508 -0.916 -1.740 1.251 -779.942 -2339.976 -4334.876 -0.001 0.062 0.045 -0.04 0.4 -0.91 0.05
1 1.88 188 0.292 -7.350 6.551 -1.221 -2.350 0.641 -659.870 -2474.888 -4424.967 0.057 0.071 0.001 -0.04 0.4 -0.91 0.05
1 1.89 189 0.278 -7.374 6.565 -0.702 -2.350 1.190 -659.870 -2474.888 -4424.967 0.073 0.095 -0.014 -0.04 0.4 -0.91 0.05
1 1.90 190 0.388 -7.322 6.493 0.214 -2.136 1.648 -794.932 -2549.989 -4424.967 -0.036 0.042 0.058 -0.04 0.4 -0.91 0.05
1 1.91 191 0.364 -7.322 6.584 -0.885 -2.625 1.953 -749.961 -2414.927 -4364.856 -0.011 0.043 -0.032 -0.04 0.4 -0.91 0.05
1 1.92 192 0.326 -7.274 6.565 -1.434 -2.716 2.014 -690.000 -2444.907 -4319.886 0.028 -0.005 -0.013 -0.04 0.4 -0.91 0.05
1 1.93 193 0.359 -7.394 6.623 -1.770 -2.991 1.984 -659.870 -2399.937 -4454.948 -0.005 0.114 -0.071 -0.04 0.4 -0.91 0.05
1 1.94 194 0.488 -7.384 6.517 -0.824 -3.571 0.946 -659.870 -2399.937 -4454.948 -0.133 0.104 0.034 -0.04 0.4 -0.91 0.05
1 1.95 195 0.493 -7.489 6.637 -1.221 -3.326 1.801 -734.971 -2354.966 -4454.948 -0.134 0.209 -0.087 -0.04 0.4 -0.91 0.05
1 1.96 196 0.532 -7.384 6.479 -1.251 -2.655 1.282 -734.971 -2354.966 -4454.948 -0.171 0.103 0.071 -0.04 0.4 -0.91 0.05
1 1.97 197 0.551 -7.370 6.666 -1.251 -2.533 1.099 -614.899 -2444.907 -4349.866 -0.188 0.089 -0.116 -0.04 0.4 -0.91 0.05
1 1.98 198 0.555 -7.475 6.623 -1.617 -2.197 1.160 -690.000 -2279.865 -4424.967 -0.190 0.194 -0.074 -0.04 0.4 -0.91 0.05
1 1.99 199 0.350 -7.451 6.690 -0.824 -1.343 1.099 -734.971 -2399.937 -4454.948 0.018 0.169 -0.142 -0.04 0.4 -0.91 0.05
1 2.00 200 0.350 -7.465 6.565 -0.519 -1.343 1.984 -629.890 -2609.950 -4439.958 0.018 0.183 -0.017 -0.04 0.4 -0.91 0.05
1 2.01 201 0.460 -7.398 6.565 -1.556 -2.075 1.495 -629.890 -2609.950 -4439.958 -0.092 0.116 -0.018 -0.04 0.4 -0.91 0.05
1 2.02 202 0.397 -7.461 6.627 -0.885 -2.502 1.831 -824.913 -2339.976 -4364.856 -0.028 0.177 -0.081 -0.04 0.41 -0.91 0.05
1 2.03 203 0.469 -7.480 6.666 -0.763 -2.625 2.197 -824.913 -2339.976 -4364.856 -0.099 0.196 -0.119 -0.04 0.4 -0.91 0.05
1 2.04 204 0.436 -7.504 6.666 -0.336 -3.204 2.319 -734.971 -2399.937 -4454.948 -0.065 0.221 -0.119 -0.04 0.4 -0.91 0.05
1 2.05 205 0.383 -7.389 6.599 -0.427 -3.326 2.106 -734.971 -2354.966 -4319.886 -0.011 0.106 -0.052 -0.04 0.4 -0.91 0.05
1 2.06 206 0.603 -7.355 6.546 -0.397 -4.120 1.953 -629.890 -2309.995 -4184.974 -0.229 0.073 0.002 -0.05 0.4 -0.91 0.05
1 2.07 207 0.517 -7.303 6.570 -0.031 -3.906 2.289 -674.860 -2414.927 -4484.928 -0.139 0.021 -0.022 -0.05 0.4 -0.91 0.05
1 2.08 208 0.426 -7.451 6.508 -0.610 -3.052 2.380 -674.860 -2414.927 -4484.928 -0.046 0.170 0.041 -0.05 0.4 -0.91 0.05
1 2.09 209 0.460 -7.437 6.675 -0.122 -3.510 1.404 -629.890 -2459.897 -4334.876 -0.078 0.156 -0.127 -0.05 0.4 -0.91 0.05
1 2.10 210 0.493 -7.461 6.584 -0.305 -3.204 1.373 -629.890 -2459.897 -4334.876 -0.110 0.180 -0.035 -0.05 0.4 -0.91 0.05
1 2.11 211 0.488 -7.427 6.599 -0.275 -2.930 1.526 -704.991 -2309.995 -4289.905 -0.102 0.147 -0.049 -0.05 0.4 -0.91 0.05
1 2.12 212 0.493 -7.508 6.498 0.153 -3.693 1.862 -659.870 -2399.937 -4454.948 -0.105 0.229 0.051 -0.05 0.4 -0.91 0.05
1 2.13 213 0.536 -7.394 6.522 0.519 -4.517 1.892 -779.942 -2384.946 -4409.977 -0.143 0.115 0.028 -0.05 0.4 -0.91 0.06
1 2.14 214 0.575 -7.456 6.460 0.275 -5.005 2.808 -779.942 -2339.976 -4484.928 -0.178 0.178 0.091 -0.05 0.4 -0.91 0.06
1 2.15 215 0.445 -7.379 6.474 -0.244 -5.768 2.747 -779.942 -2339.976 -4484.928 -0.045 0.102 0.077 -0.05 0.4 -0.91 0.06
1 2.16 216 0.613 -7.341 6.493 -0.702 -5.829 2.655 -734.971 -2519.858 -4394.987 -0.209 0.063 0.057 -0.05 0.4 -0.91 0.06
1 2.17 217 0.685 -7.427 6.584 -0.244 -4.761 2.899 -734.971 -2519.858 -4394.987 -0.277 0.149 -0.034 -0.05 0.4 -0.91 0.06
1 2.18 218 0.704 -7.580 6.632 0.366 -3.754 2.197 -704.991 -2414.927 -4334.876 -0.292 0.303 -0.082 -0.05 0.4 -0.91 0.06
1 2.19 219 0.737 -7.413 6.484 1.495 -2.991 1.984 -659.870 -2519.858 -4424.967 -0.322 0.136 0.067 -0.05 0.4 -0.91 0.06
1 2.20 220 0.771 -7.614 6.694 1.587 -3.052 1.404 -764.952 -2324.985 -4349.866 -0.349 0.341 -0.139 -0.05 0.4 -0.91 0.06
1 2.21 221 0.618 -7.470 6.613 1.282 -2.563 1.251 -764.952 -2399.937 -4349.866 -0.192 0.199 -0.056 -0.05 0.4 -0.91 0.06
1 2.22 222 0.733 -7.504 6.675 0.610 -2.472 1.709 -764.952 -2399.937 -4349.866 -0.304 0.235 -0.116 -0.05 0.4 -0.91 0.06
1 2.23 223 0.761 -7.413 6.580 0.641 -3.113 0.793 -704.991 -2459.897 -4364.856 -0.330 0.145 -0.019 -0.05 0.4 -0.91 0.06
1 2.24 224 0.781 -7.355 6.484 1.099 -2.686 0.427 -704.991 -2459.897 -4364.856 -0.344 0.089 0.077 -0.05 0.4 -0.91 0.06
1 2.25 225 0.666 -7.403 6.546 1.526 -3.082 -0.488 -734.971 -2279.865 -4454.948 -0.223 0.138 0.017 -0.05 0.4 -0.91 0.06
1 2.26 226 0.666 -7.437 6.465 1.831 -3.326 -0.275 -749.961 -2309.995 -4409.977 -0.218 0.175 0.101 -0.05 0.4 -0.91 0.06
1 2.27 227 0.728 -7.461 6.565 2.258 -3.571 0.031 -749.961 -2309.995 -4409.977 -0.274 0.201 0.002 -0.05 0.4 -0.91 0.06
1 2.28 228 0.618 -7.556 6.522 3.052 -3.082 -1.068 -690.000 -2444.907 -4349.866 -0.153 0.302 0.050 -0.05 0.4 -0.91 0.06
1 2.29 229 0.613 -7.561 6.575 2.960 -2.411 -0.061 -690.000 -2444.907 -4349.866 -0.144 0.310 0.001 -0.05 0.4 -0.91 0.06
1 2.30 230 0.718 -7.418 6.666 3.693 -2.899 0.763 -824.913 -2534.999 -4439.958 -0.246 0.170 -0.086 -0.05 0.4 -0.91 0.06
1 2.31 231 0.642 -7.475 6.618 3.448 -2.777 0.702 -824.913 -2534.999 -4439.958 -0.166 0.232 -0.034 -0.05 0.4 -0.91 0.06
1 2.32 232 0.680 -7.331 6.551 2.686 -3.174 1.068 -629.890 -2534.999 -4334.876 -0.201 0.092 0.037 -0.05 0.4 -0.91 0.06
1 2.33 233 0.718 -7.418 6.613 2.716 -3.143 0.977 -794.932 -2399.937 -4319.886 -0.236 0.181 -0.022 -0.05 0.4 -0.91 0.06
1 2.34 234 0.709 -7.331 6.575 3.021 -3.021 1.160 -794.932 -2399.937 -4319.886 -0.222 0.098 0.020 -0.05 0.4 -0.91 0.06
1 2.35 235 0.752 -7.456 6.527 3.204 -2.960 0.977 -794.932 -2594.959 -4274.915 -0.257 0.230 0.075 -0.05 0.4 -0.91 0.06
1 2.36 236 0.809 -7.465 6.570 3.906 -2.136 0.488 -794.932 -2594.959 -4274.915 -0.310 0.243 0.036 -0.05 0.4 -0.91 0.06
1 2.37 237 0.943 -7.413 6.584 4.364 -2.167 0.092 -704.991 -2459.897 -4409.977 -0.440 0.195 0.026 -0.05 0.4 -0.91 0.06
1 2.38 238 0.809 -7.427 6.556 4.364 -1.465 -0.519 -704.991 -2459.897 -4409.977 -0.301 0.214 0.059 -0.05 0.4 -0.91 0.06
1 2.39 239 0.680 -7.475 6.613 4.456 -1.465 -0.275 -749.961 -2459.897 -4229.944 -0.167 0.267 0.007 -0.05 0.4 -0.91 0.06
1 2.40 240 0.862 -7.456 6.560 5.402 -1.678 -0.214 -690.000 -2354.966 -4394.987 -0.346 0.253 0.065 -0.05 0.4 -0.91 0.06
1 2.41 241 0.848 -7.355 6.670 5.035 -2.167 -0.183 -690.000 -2354.966 -4394.987 -0.327 0.158 -0.039 -0.05 0.4 -0.91 0.06
1 2.42 242 0.852 -7.432 6.594 4.822 -1.953 -0.427 -854.893 -2414.927 -4409.977 -0.327 0.240 0.043 -0.05 0.4 -0.91 0.06
1 2.43 243 0.891 -7.475 6.532 4.242 -1.221 -1.068 -764.952 -2444.907 -4424.967 -0.355 0.294 0.115 -0.05 0.4 -0.91 0.06
1 2.44 244 0.919 -7.374 6.565 4.822 -0.946 -1.190 -779.942 -2459.897 -4484.928 -0.379 0.198 0.087 -0.05 0.4 -0.91 0.06
1 2.45 245 0.843 -7.504 6.498 4.120 -0.305 -1.678 -779.942 -2459.897 -4484.928 -0.297 0.332 0.159 -0.05 0.4 -0.91 0.06
1 2.46 246 0.766 -7.499 6.584 5.585 0.488 -1.801 -824.913 -2459.897 -4409.977 -0.215 0.332 0.077 -0.05 0.4 -0.91 0.05
1 2.47 247 0.924 -7.585 6.589 7.355 1.343 -1.587 -779.942 -2384.946 -4514.909 -0.370 0.424 0.078 -0.05 0.4 -0.91 0.05
1 2.48 248 0.728 -7.499 6.632 8.301 0.793 -1.465 -779.942 -2384.946 -4514.909 -0.171 0.345 0.042 -0.05 0.4 -0.92 0.05
1 2.49 249 0.785 -7.427 6.560 8.331 0.366 -1.526 -824.913 -2534.999 -4439.958 -0.226 0.281 0.123 -0.05 0.4 -0.92 0.05
1 2.50 250 0.747 -7.202 6.613 6.195 0.031 -1.526 -794.932 -2594.959 -4529.899 -0.181 0.073 0.087 -0.05 0.39 -0.92 0.05
1 2.51 251 0.776 -7.259 6.647 4.486 0.732 -1.404 -690.000 -2519.858 -4349.866 -0.206 0.137 0.061 -0.05 0.39 -0.92 0.05
1 2.52 252 0.848 -7.154 6.469 2.930 1.892 -1.862 -690.000 -2519.858 -4349.866 -0.275 0.037 0.244 -0.05 0.39 -0.92 0.05
1 2.53 253 0.872 -7.130 6.465 2.136 2.136 -1.617 -854.893 -2534.999 -4364.856 -0.296 0.017 0.252 -0.05 0.39 -0.92 0.05
1 2.54 254 0.828 -7.164 6.369 3.357 2.869 -2.258 -854.893 -2489.878 -4364.856 -0.251 0.054 0.351 -0.05 0.39 -0.92 0.05
1 2.55 255 0.848 -7.116 6.402 5.707 0.916 -2.686 -854.893 -2489.878 -4364.856 -0.268 0.010 0.321 -0.05 0.39 -0.92 0.05
1 2.56 256 0.728 -7.078 6.460 5.707 -0.977 -3.113 -839.903 -2474.888 -4499.918 -0.146 -0.023 0.269 -0.05 0.39 -0.92 0.05
1 2.57 257 0.857 -6.891 6.589 2.686 -2.716 -3.479 -824.913 -2609.950 -4484.928 -0.262 -0.198 0.152 -0.06 0.39 -0.92 0.05
1 2.58 258 0.886 -6.948 6.608 -0.092 -1.251 -4.028 -839.903 -2519.858 -4424.967 -0.282 -0.137 0.135 -0.06 0.39 -0.92 0.05
1 2.59 259 0.843 -7.054 6.570 -1.587 0.488 -4.639 -839.903 -2519.858 -4424.967 -0.231 -0.031 0.174 -0.06 0.39 -0.92 0.05
1 2.60 260 0.867 -7.130 6.565 -0.793 0.977 -4.761 -749.961 -2564.979 -4484.928 -0.249 0.045 0.177 -0.06 0.39 -0.92 0.05
1 2.61 261 0.747 -7.121 6.594 0.641 1.923 -5.127 -779.942 -2654.920 -4409.977 -0.123 0.036 0.149 -0.06 0.39 -0.92 0.05
1 2.62 262 0.809 -7.082 6.627 2.502 1.678 -6.012 -779.942 -2654.920 -4409.977 -0.180 0.000 0.117 -0.06 0.39 -0.92 0.05
1 2.63 263 0.656 -7.063 6.656 1.678 1.526 -6.805 -764.952 -2624.940 -4244.935 -0.022 -0.016 0.091 -0.06 0.39 -0.92 0.05
1 2.64 264 0.771 -7.001 6.752 -0.366 1.770 -6.622 -824.913 -2654.920 -4514.909 -0.124 -0.073 -0.000 -0.06 0.39 -0.92 0.05
1 2.65 265 0.828 -6.896 6.752 -1.831 1.740 -7.751 -794.932 -2474.888 -4454.948 -0.175 -0.177 0.000 -0.06 0.39 -0.92 0.05
1 2.66 266 0.857 -6.929 6.738 -1.770 2.502 -8.911 -794.932 -2474.888 -4454.948 -0.195 -0.143 0.015 -0.06 0.39 -0.92 0.05
1 2.67 267 0.737 -6.829 6.800 -2.014 2.380 -9.674 -764.952 -2594.959 -4424.967 -0.067 -0.242 -0.048 -0.06 0.39 -0.92 0.05
1 2.68 268 0.656 -6.881 6.742 -3.723 2.319 -11.200 -794.932 -2594.959 -4274.915 0.024 -0.189 0.009 -0.06 0.39 -0.92 0.05
1 2.69 269 0.632 -6.900 6.829 -5.219 0.549 -13.733 -794.932 -2594.959 -4274.915 0.059 -0.171 -0.079 -0.06 0.39 -0.92 0.04
1 2.70 270 0.541 -7.116 7.020 -6.104 -0.977 -16.296 -704.991 -2414.927 -4364.856 0.164 0.043 -0.274 -0.06 0.39 -0.92 0.04
1 2.71 271 0.637 -7.394 7.054 -6.561 -1.190 -16.693 -734.971 -2519.858 -4394.987 0.085 0.318 -0.312 -0.06 0.39 -0.92 0.04
1 2.72 272 0.603 -7.552 7.063 -6.714 -1.343 -16.693 -869.883 -2444.907 -4349.866 0.154 0.470 -0.332 -0.06 0.39 -0.92 0.04
1 2.73 273 0.757 -7.681 7.221 -6.866 0.854 -15.717 -869.883 -2444.907 -4349.866 0.018 0.594 -0.496 -0.06 0.39 -0.92 0.04
1 2.74 274 0.766 -7.695 7.379 -5.402 4.974 -14.130 -764.952 -2594.959 -4274.915 0.023 0.605 -0.660 -0.06 0.39 -0.92 0.04
1 2.75 275 0.690 -7.647 7.221 -5.676 10.010 -12.695 -779.942 -2534.999 -4439.958 0.108 0.555 -0.505 -0.06 0.39 -0.92 0.04
1 2.76 276 0.460 -7.499 6.919 -6.470 15.350 -9.766 -779.942 -2534.999 -4439.958 0.339 0.403 -0.207 -0.06 0.39 -0.92 0.04
1 2.77 277 0.230 -7.743 6.718 -6.866 16.876 -8.362 -794.932 -2519.858 -4424.967 0.563 0.643 -0.010 -0.06 0.39 -0.92 0.04
1 2.78 278 0.014 -7.657 6.436 -6.714 19.623 -7.446 -749.961 -2459.897 -4439.958 0.768 0.551 0.267 -0.06 0.39 -0.92 0.03
1 2.79 279 -0.512 -7.829 6.235 -3.143 22.034 -6.805 -779.942 -2459.897 -4409.977 1.257 0.709 0.457 -0.06 0.39 -0.92 0.03
1 2.80 280 -0.819 -7.825 6.101 -0.275 20.783 -6.836 -779.942 -2459.897 -4409.977 1.540 0.700 0.589 -0.05 0.39 -0.92 0.03
1 2.81 281 -1.030 -7.829 5.823 0.885 18.372 -6.866 -704.991 -2609.950 -4364.856 1.727 0.701 0.866 -0.05 0.39 -0.92 0.03
1 2.82 282 -1.063 -7.882 5.765 1.678 14.587 -7.233 -749.961 -2339.976 -4544.889 1.739 0.751 0.923 -0.05 0.4 -0.92 0.03
1 2.83 283 -1.269 -7.959 5.761 3.601 8.728 -8.301 -749.961 -2339.976 -4544.889 1.926 0.825 0.927 -0.05 0.4 -0.92 0.03
1 2.84 284 -1.221 -7.906 6.019 6.073 -1.221 -6.866 -690.000 -2474.888 -4274.915 1.866 0.772 0.669 -0.05 0.4 -0.92 0.03
1 2.85 285 -1.010 -7.757 6.192 6.653 -8.820 -5.676 -674.860 -2534.999 -4409.977 1.649 0.624 0.498 -0.05 0.4 -0.92 0.03
1 2.86 286 -0.867 -7.700 6.321 5.493 -14.710 -3.113 -674.860 -2534.999 -4409.977 1.505 0.570 0.372 -0.05 0.4 -0.92 0.03
1 2.87 287 -0.350 -7.470 6.551 1.312 -21.149 2.167 -494.978 -2489.878 -4334.876 1.003 0.345 0.146 -0.05 0.39 -0.92 0.03
1 2.88 288 0.014 -7.365 6.311 -3.296 -21.149 5.249 -704.991 -2534.999 -4409.977 0.650 0.238 0.383 -0.05 0.39 -0.92 0.03
1 2.89 289 0.206 -7.638 6.316 -7.233 -18.005 8.728 -674.860 -2534.999 -4409.977 0.467 0.504 0.370 -0.05 0.4 -0.92 0.03
1 2.90 290 -0.014 -7.757 6.081 -9.186 -13.336 10.284 -674.860 -2534.999 -4409.977 0.691 0.613 0.592 -0.05 0.4 -0.92 0.03
1 2.91 291 0.043 -8.107 6.096 -2.869 -7.660 9.827 -764.952 -2474.888 -4394.987 0.630 0.949 0.564 -0.05 0.4 -0.92 0.04
1 2.92 292 -0.043 -7.906 6.249 3.418 -6.531 7.660 -854.893 -2384.946 -4544.889 0.709 0.739 0.402 -0.05 0.4 -0.92 0.04
1 2.93 293 -0.144 -7.925 6.345 8.820 -4.486 5.127 -854.893 -2384.946 -4544.889 0.802 0.755 0.303 -0.05 0.4 -0.92 0.04
1 2.94 294 -0.077 -8.002 6.450 11.261 -1.526 3.021 -764.952 -2549.989 -4394.987 0.720 0.842 0.211 -0.05 0.4 -0.92 0.04
1 2.95 295 -0.206 -8.102 6.608 11.536 -0.397 2.380 -779.942 -2564.979 -4439.958 0.842 0.951 0.063 -0.05 0.4 -0.92 0.04
1 2.96 296 -0.187 -8.035 6.670 10.925 -1.129 2.075 -794.932 -2519.858 -4499.918 0.814 0.894 0.011 -0.05 0.4 -0.92 0.04
1 2.97 297 -0.101 -7.973 6.785 10.742 -1.862 3.448 -794.932 -2519.858 -4499.918 0.720 0.840 -0.094 -0.05 0.39 -0.92 0.04
1 2.98 298 0.043 -7.839 6.694 9.796 -1.617 4.791 -584.919 -2474.888 -4394.987 0.568 0.714 0.007 -0.05 0.39 -0.92 0.04
1 2.99 299 -0.014 -7.643 6.378 8.270 -0.275 5.066 -824.913 -2459.897 -4409.977 0.618 0.526 0.332 -0.05 0.39 -0.92 0.04
1 3.00 300 0.062 -7.475 6.077 8.392 0.916 4.669 -824.913 -2459.897 -4409.977 0.531 0.365 0.641 -0.05 0.39 -0.92 0.04
1 3.01 301 -0.038 -7.269 5.866 9.918 2.167 1.953 -839.903 -2519.858 -4319.886 0.613 0.170 0.866 -0.05 0.39 -0.92 0.04
1 3.02 302 0.062 -7.322 5.622 13.245 0.336 0.885 -944.984 -2669.911 -4349.866 0.504 0.231 1.119 -0.05 0.39 -0.92 0.04
1 3.03 303 0.105 -7.216 5.651 15.259 -2.563 -1.312 -734.971 -2624.940 -4349.866 0.457 0.136 1.102 -0.05 0.39 -0.92 0.04
1 3.04 304 0.086 -7.010 5.622 15.869 -6.470 -3.082 -734.971 -2624.940 -4349.866 0.478 -0.057 1.143 -0.05 0.39 -0.92 0.04
1 3.05 305 0.048 -6.967 5.761 15.045 -10.590 -4.791 -749.961 -2729.872 -4334.876 0.525 -0.087 1.018 -0.05 0.39 -0.92 0.04
1 3.06 306 -0.010 -6.824 5.962 11.841 -14.130 -7.721 -764.952 -2594.959 -4349.866 0.596 -0.218 0.829 -0.05 0.39 -0.92 0.04
1 3.07 307 -0.029 -6.924 6.005 8.606 -15.411 -8.942 -764.952 -2594.959 -4349.866 0.634 -0.106 0.796 -0.05 0.39 -0.92 0.04
1 3.08 308 -0.105 -7.073 6.254 2.197 -14.801 -8.820 -734.971 -2519.858 -4424.967 0.754 0.058 0.559 -0.05 0.39 -0.92 0.04
1 3.09 309 -0.220 -6.958 6.374 0.031 -14.343 -8.331 -869.883 -2549.989 -4499.918 0.888 -0.056 0.438 -0.06 0.39 -0.92 0.04
1 3.10 310 -0.148 -7.566 6.460 -3.235 -13.184 -4.791 -839.903 -2624.940 -4319.886 0.831 0.550 0.348 -0.06 0.39 -0.92 0.04
1 3.11 311 -0.101 -7.643 6.738 -1.434 -14.008 -1.740 -839.903 -2624.940 -4319.886 0.795 0.621 0.064 -0.06 0.39 -0.92 0.04
1 3.12 312 0.091 -7.944 6.843 1.617 -14.465 1.984 -899.864 -2729.872 -4514.909 0.612 0.921 -0.045 -0.06 0.39 -0.92 0.05
1 3.13 313 0.249 -8.193 7.154 3.235 -14.343 7.233 -929.994 -2564.979 -4334.876 0.462 1.170 -0.357 -0.06 0.39 -0.92 0.05
1 3.14 314 0.316 -8.165 7.374 5.188 -9.674 9.460 -929.994 -2564.979 -4334.876 0.398 1.142 -0.576 -0.06 0.39 -0.92 0.05
1 3.15 315 0.503 -8.074 7.729 9.460 -6.439 10.834 -779.942 -2729.872 -4364.856 0.213 1.056 -0.926 -0.06 0.39 -0.92 0.05
1 3.16 316 0.575 -8.227 7.954 9.003 -4.425 15.869 -869.883 -2624.940 -4394.987 0.128 1.229 -1.129 -0.06 0.38 -0.92 0.05
1 3.17 317 0.809 -8.490 7.887 5.005 -0.214 20.294 -929.994 -2759.852 -4544.889 -0.121 1.500 -1.053 -0.06 0.38 -0.92 0.05
1 3.18 318 0.646 -8.447 7.628 4.700 5.219 22.369 -929.994 -2759.852 -4544.889 0.019 1.461 -0.788 -0.06 0.38 -0.92 0.05
1 3.19 319 0.321 -8.083 7.355 11.597 8.026 23.438 -989.955 -2669.911 -4394.987 0.313 1.102 -0.507 -0.06 0.38 -0.92 0.06
1 3.20 320 0.129 -7.279 6.685 23.621 4.578 23.010 -974.965 -2609.950 -4289.905 0.472 0.311 0.181 -0.06 0.38 -0.92 0.06
1 3.21 321 0.019 -6.431 6.220 23.316 6.958 23.468 -974.965 -2609.950 -4289.905 0.548 -0.517 0.668 -0.06 0.38 -0.92 0.06
1 3.22 322 -0.062 -5.775 5.986 15.961 15.778 23.926 -824.913 -2729.872 -4409.977 0.595 -1.150 0.928 -0.05 0.38 -0.92 0.06
1 3.23 323 -0.565 -5.526 5.804 -3.510 30.029 26.276 -989.955 -2699.891 -4499.918 1.005 -1.374 1.142 -0.05 0.38 -0.92 0.06
1 3.24 324 -0.929 -5.880 5.880 -14.313 29.572 27.344 -899.864 -2684.901 -4334.876 1.309 -1.027 1.061 -0.05 0.38 -0.92 0.06
1 3.25 325 -1.082 -6.187 5.900 -17.731 24.292 29.999 -899.864 -2684.901 -4334.876 1.401 -0.737 1.029 -0.04 0.38 -0.92 0.06
1 3.26 326 -1.159 -6.541 6.182 -17.761 17.304 31.830 -734.971 -2864.934 -4499.918 1.422 -0.402 0.729 -0.04 0.38 -0.92 0.07
1 3.27 327 -1.159 -7.063 6.101 -18.921 9.369 34.180 -734.971 -2699.891 -4349.866 1.366 0.100 0.793 -0.04 0.38 -0.92 0.07
1 3.28 328 -0.852 -7.815 6.943 -19.043 -0.122 35.309 -734.971 -2699.891 -4349.866 1.005 0.829 -0.072 -0.04 0.38 -0.92 0.07
1 3.29 329 -0.589 -8.270 7.418 -18.646 -3.632 36.133 -944.984 -2624.940 -4454.948 0.695 1.262 -0.568 -0.04 0.39 -0.92 0.07
1 3.30 330 -0.508 -8.749 8.165 -17.181 -5.615 33.417 -944.984 -2624.940 -4454.948 0.574 1.720 -1.335 -0.04 0.39 -0.92 0.08
1 3.31 331 -0.182 -8.974 8.610 -14.923 -4.608 24.567 -854.893 -2759.852 -4334.876 0.191 1.912 -1.815 -0.03 0.39 -0.92 0.08
1 3.32 332 -0.115 -8.854 8.749 -16.327 -3.693 17.944 -854.893 -2759.852 -4334.876 0.104 1.778 -1.968 -0.03 0.39 -0.92 0.08
1 3.33 333 0.105 -8.370 8.667 -16.754 -2.563 12.939 -779.942 -2534.999 -4409.977 -0.130 1.279 -1.904 -0.03 0.39 -0.92 0.08
1 3.34 334 0.139 -7.906 8.505 -16.754 -0.946 10.071 -734.971 -2774.992 -4274.915 -0.174 0.798 -1.758 -0.03 0.39 -0.92 0.08
1 3.35 335 0.287 -7.149 8.184 -18.127 1.678 9.949 -734.971 -2774.992 -4274.915 -0.333 0.025 -1.455 -0.03 0.39 -0.91 0.08
1 3.36 336 0.474 -6.656 7.815 -19.806 2.838 13.092 -690.000 -2624.940 -4244.935 -0.532 -0.485 -1.104 -0.03 0.4 -0.91 0.08
1 3.37 337 0.527 -6.307 7.207 -21.149 2.014 18.280 -690.000 -2624.940 -4244.935 -0.599 -0.851 -0.513 -0.03 0.4 -0.91 0.08
1 3.38 338 0.589 -6.235 6.263 -21.484 -3.357 25.940 -779.942 -2684.901 -4289.905 -0.697 -0.954 0.396 -0.03 0.4 -0.91 0.09
1 3.39 339 0.958 -6.398 5.622 -17.548 -11.810 31.983 -779.942 -2684.901 -4289.905 -1.086 -0.809 1.019 -0.03 0.4 -0.91 0.09
1 3.40 340 1.461 -6.249 5.047 -10.193 -22.583 35.980 -734.971 -2519.858 -4319.886 -1.610 -0.971 1.577 -0.03 0.4 -0.91 0.09
1 3.41 341 2.231 -6.048 4.688 -2.258 -32.959 39.093 -779.942 -2534.999 -4364.856 -2.396 -1.179 1.929 -0.03 0.4 -0.91 0.09
1 3.42 342 2.892 -5.923 4.659 3.204 -39.612 39.307 -779.942 -2534.999 -4364.856 -3.065 -1.302 1.959 -0.03 0.4 -0.91 0.1
1 3.43 343 3.936 -5.952 5.172 -2.197 -29.266 37.323 -764.952 -2444.907 -4169.983 -4.112 -1.268 1.452 -0.03 0.4 -0.91 0.1
1 3.44 344 4.200 -6.369 5.837 -10.498 -8.881 32.929 -764.952 -2444.907 -4169.983 -4.385 -0.850 0.788 -0.04 0.4 -0.91 0.1
1 3.45 345 3.951 -7.212 7.015 -17.273 31.830 21.210 -854.893 -2459.897 -4289.905 -4.151 -0.027 -0.412 -0.04 0.4 -0.91 0.11
1 3.46 346 3.017 -7.896 7.623 -15.137 56.793 11.353 -854.893 -2459.897 -4289.905 -3.261 0.642 -1.039 -0.03 0.4 -0.91 0.1
1 3.47 347 1.767 -8.481 7.973 -10.162 73.822 0.824 -929.994 -2564.979 -4154.993 -2.084 1.214 -1.406 -0.03 0.41 -0.91 0.1
1 3.48 348 0.436 -8.572 7.882 -2.014 78.003 -8.423 -824.913 -2489.878 -4289.905 -0.826 1.298 -1.326 -0.02 0.41 -0.91 0.1
1 3.49 349 -0.833 -8.227 7.470 4.974 67.780 -15.869 -824.913 -2489.878 -4289.905 0.378 0.953 -0.918 -0.02 0.41 -0.91 0.1
1 3.50 350 -1.604 -7.183 6.714 1.038 31.952 -19.959 -614.899 -2444.907 -4349.866 1.105 -0.086 -0.159 -0.01 0.41 -0.91 0.09
1 3.51 351 -1.642 -6.742 6.081 -13.886 2.594 -20.233 -614.899 -2444.907 -4349.866 1.123 -0.523 0.475 -0.01 0.41 -0.91 0.09
1 3.52 352 -0.886 -6.728 5.253 -36.194 -35.706 -19.196 -584.919 -2549.989 -4274.915 0.404 -0.573 1.266 -0.01 0.41 -0.91 0.09
1 3.53 353 -0.670 -6.800 5.062 -40.161 -45.563 -19.135 -584.919 -2549.989 -4274.915 0.250 -0.540 1.419 -0.02 0.41 -0.91 0.09
1 3.54 354 0.527 -7.614 4.870 -33.844 -56.030 -18.921 -539.948 -2594.959 -4244.935 -0.873 0.235 1.569 -0.02 0.41 -0.91 0.09
1 3.55 355 1.322 -8.126 4.884 -17.670 -52.246 -17.487 -734.971 -2399.937 -4274.915 -1.587 0.711 1.518 -0.03 0.42 -0.9 0.09
1 3.56 356 1.772 -8.303 5.138 1.434 -42.175 -15.686 -734.971 -2399.937 -4274.915 -1.957 0.868 1.243 -0.03 0.42 -0.9 0.09
1 3.57 357 2.275 -8.346 5.708 21.759 -20.386 -11.475 -734.971 -2399.937 -4199.964 -2.391 0.910 0.674 -0.03 0.42 -0.9 0.09
1 3.58 358 2.236 -8.026 6.196 23.499 -6.256 -6.683 -734.971 -2399.937 -4199.964 -2.298 0.603 0.201 -0.04 0.42 -0.9 0.09
1 3.59 359 2.198 -7.973 6.766 18.219 5.127 -2.411 -794.932 -2354.966 -4319.886 -2.223 0.569 -0.346 -0.04 0.41 -0.91 0.09
1 3.60 360 1.982 -7.906 7.106 3.082 12.604 4.608 -764.952 -2474.888 -4319.886 -1.984 0.531 -0.652 -0.04 0.41 -0.91 0.08
1 3.61 361 1.686 -8.006 7.149 -4.028 10.864 7.874 -929.994 -2414.927 -4259.925 -1.698 0.635 -0.692 -0.04 0.41 -0.91 0.08
1 3.62 362 1.561 -8.136 6.795 -2.045 5.981 9.033 -779.942 -2459.897 -4229.944 -1.593 0.761 -0.341 -0.04 0.41 -0.91 0.08
1 3.63 363 1.753 -8.418 6.503 4.730 2.869 8.972 -779.942 -2459.897 -4229.944 -1.793 1.043 -0.049 -0.04 0.41 -0.91 0.08
1 3.64 364 2.102 -8.289 6.000 20.142 8.545 6.561 -749.961 -2489.878 -4259.925 -2.148 0.920 0.461 -0.04 0.41 -0.91 0.08
1 3.65 365 2.121 -8.011 5.765 27.954 19.379 2.502 -749.961 -2489.878 -4259.925 -2.167 0.657 0.711 -0.04 0.41 -0.91 0.08
1 3.66 366 1.834 -7.494 5.737 30.884 31.525 -1.312 -899.864 -2459.897 -4154.993 -1.883 0.162 0.765 -0.03 0.41 -0.91 0.08
1 3.67 367 1.302 -7.106 5.440 27.100 45.105 -7.050 -824.913 -2489.878 -4109.873 -1.384 -0.172 1.123 -0.03 0.41 -0.91 0.08
1 3.68 368 0.886 -7.010 5.301 20.783 49.103 -11.353 -674.860 -2534.999 -4289.905 -0.994 -0.245 1.286 -0.03 0.4 -0.91 0.08
1 3.69 369 0.632 -7.034 5.267 14.801 48.004 -14.679 -749.961 -2489.878 -4289.905 -0.772 -0.202 1.339 -0.03 0.4 -0.91 0.07
1 3.70 370 0.388 -7.010 5.435 10.529 46.387 -17.212 -749.961 -2489.878 -4289.905 -0.556 -0.214 1.185 -0.02 0.4 -0.91 0.07
1 3.71 371 0.196 -6.996 5.579 5.951 41.168 -18.799 -779.942 -2684.901 -4289.905 -0.386 -0.222 1.048 -0.02 0.4 -0.91 0.07
1 3.72 372 0.057 -7.010 5.746 -3.937 28.687 -18.707 -779.942 -2684.901 -4289.905 -0.263 -0.205 0.882 -0.02 0.4 -0.91 0.07
1 3.73 373 -0.101 -7.432 5.775 -11.383 19.379 -18.250 -599.909 -2414.927 -4184.974 -0.114 0.211 0.847 -0.02 0.4 -0.91 0.06
1 3.74 374 -0.005 -7.705 5.823 -16.174 11.841 -17.914 -614.899 -2549.989 -4274.915 -0.209 0.472 0.787 -0.02 0.4 -0.91 0.06
1 3.75 375 0.215 -8.643 5.799 -12.665 11.292 -20.264 -539.948 -2624.940 -4274.915 -0.409 1.371 0.767 -0.02 0.41 -0.91 0.06
1 3.76 376 0.503 -9.017 5.943 -2.991 16.235 -23.071 -614.899 -2444.907 -4199.964 -0.682 1.727 0.605 -0.02 0.41 -0.91 0.06
1 3.77 377 0.618 -9.137 6.216 11.169 26.245 -24.933 -614.899 -2444.907 -4199.964 -0.787 1.844 0.329 -0.01 0.41 -0.91 0.05
1 3.78 378 0.790 -8.538 6.996 28.015 38.391 -27.161 -524.958 -2534.999 -4229.944 -0.960 1.261 -0.434 -0.01 0.41 -0.91 0.05
1 3.79 379 0.766 -6.603 8.155 37.232 60.425 -29.694 -524.958 -2534.999 -4229.944 -0.947 -0.641 -1.558 -0.01 0.4 -0.91 0.05
1 3.80 380 -0.335 -5.660 8.318 18.524 67.688 -30.975 -599.909 -2534.999 -4334.876 0.133 -1.543 -1.676 -0.01 0.4 -0.91 0.04
1 3.81 381 -1.427 -5.765 7.930 -18.402 63.721 -33.478 -584.919 -2594.959 -4244.935 1.196 -1.404 -1.253 -0 0.4 -0.92 0.04
1 3.82 382 -2.164 -7.547 7.585 -69.885 39.276 -30.243 -389.896 -2474.888 -4244.935 1.870 0.339 -0.952 0 0.4 -0.92 0.03
1 3.83 383 -2.389 -8.658 7.240 -74.219 10.651 -29.114 -494.978 -2684.901 -4184.974 2.089 1.379 -0.685 0 0.41 -0.91 0.03
1 3.84 384 -2.442 -8.993 6.584 -46.600 -20.477 -33.783 -494.978 -2684.901 -4184.974 2.174 1.645 -0.106 0 0.41 -0.91 0.03
1 3.85 385 -2.050 -8.519 5.679 -7.263 -40.741 -40.833 -524.958 -2534.999 -4109.873 1.848 1.134 0.760 -0 0.41 -0.91 0.03
1 3.86 386 -1.293 -7.671 5.243 16.113 -42.786 -43.976 -524.958 -2534.999 -4109.873 1.174 0.284 1.195 -0.01 0.41 -0.91 0.03
1 3.87 387 0.105 -7.470 5.847 1.648 -26.642 -37.262 -224.854 -2459.897 -4184.974 -0.145 0.094 0.606 -0.01 0.41 -0.91 0.02
1 3.88 388 0.685 -8.332 6.206 -10.651 -22.858 -31.281 -374.906 -2384.946 -4229.944 -0.655 0.959 0.250 -0.01 0.41 -0.91 0.02
1 3.89 389 1.355 -9.228 6.661 9.033 -37.262 -26.856 -494.978 -2384.946 -4154.993 -1.201 1.839 -0.225 -0.02 0.41 -0.91 0.02
1 3.90 390 1.963 -9.065 7.494 30.975 -47.882 -24.323 -659.870 -2444.907 -4169.983 -1.740 1.693 -1.041 -0.02 0.41 -0.91 0.02
1 3.91 391 2.586 -8.284 8.346 36.102 -52.948 -19.348 -659.870 -2444.907 -4169.983 -2.286 0.948 -1.856 -0.03 0.41 -0.91 0.02
1 3.92 392 2.955 -7.571 9.184 16.296 -53.864 -15.015 -734.971 -2519.858 -4244.935 -2.581 0.269 -2.658 -0.03 0.41 -0.91 0.02
1 3.93 393 3.151 -7.068 9.630 -21.240 -50.934 -15.289 -734.971 -2519.858 -4244.935 -2.707 -0.224 -3.097 -0.03 0.41 -0.91 0.02
1 3.94 394 3.682 -7.092 9.663 -70.099 -41.016 -22.003 -509.968 -2594.959 -4094.882 -3.170 -0.229 -3.168 -0.04 0.41 -0.91 0.02
1 3.95 395 3.630 -7.461 9.405 -75.806 -23.956 -28.626 -794.932 -2444.907 -4199.964 -3.051 0.080 -2.984 -0.04 0.41 -0.91 0.02
1 3.96 396 3.160 -7.968 8.155 -36.102 24.811 -36.316 -734.971 -2444.907 -4169.983 -2.482 0.461 -1.892 -0.05 0.42 -0.91 0.02
1 3.97 397 2.710 -7.834 7.532 -15.228 44.861 -38.025 -764.952 -2474.888 -4199.964 -2.022 0.307 -1.294 -0.05 0.42 -0.9 0.02
1 3.98 398 0.824 -6.891 6.326 38.056 99.823 -41.809 -764.952 -2474.888 -4199.964 -0.155 -0.615 -0.060 -0.04 0.42 -0.91 0.01
1 3.99 399 -0.814 -5.986 5.761 44.769 114.411 -45.197 -839.903 -2354.966 -3989.951 1.434 -1.472 0.566 -0.04 0.42 -0.91 0.01
1 4.00 400 -2.299 -5.363 5.923 25.604 99.366 -48.279 -839.903 -2354.966 -3989.951 2.860 -2.048 0.464 -0.03 0.42 -0.91 0
1 4.01 401 -3.754 -5.339 6.479 -21.576 34.393 -45.563 -690.000 -2324.985 -4094.882 4.281 -2.049 -0.062 0.03 -0.41 0.91 0.01
1 4.02 402 -3.955 -6.062 6.627 -43.396 -16.357 -41.016 -539.948 -2354.966 -4019.931 4.489 -1.335 -0.221 0.03 -0.42 0.91 0.01
1 4.03 403 -3.860 -6.929 6.632 -46.692 -55.725 -37.781 -539.948 -2354.966 -4019.931 4.413 -0.496 -0.260 0.03 -0.42 0.91 0.01
1 4.04 404 -3.381 -8.275 6.886 -18.707 -79.224 -31.525 -599.909 -2339.976 -4184.974 4.068 0.782 -0.607 0.03 -0.42 0.91 0.01
1 4.05 405 -2.916 -8.528 6.852 13.214 -73.944 -24.262 -599.909 -2339.976 -4184.974 3.713 1.030 -0.593 0.04 -0.42 0.91 0.01
1 4.06 406 -2.428 -8.217 6.910 43.488 -60.394 -13.763 -569.929 -2384.946 -4259.925 3.318 0.743 -0.634 0.05 -0.42 0.91 0.01
1 4.07 407 -1.585 -7.475 7.073 63.294 -49.378 -1.556 -569.929 -2384.946 -4259.925 2.544 0.051 -0.747 0.05 -0.42 0.91 0.01
1 4.08 408 0.144 -6.287 7.274 54.352 -45.685 14.801 -659.870 -2444.907 -4094.882 0.840 -1.072 -0.878 0.05 -0.41 0.91 0
1 4.09 409 1.164 -6.081 7.360 26.733 -47.333 25.879 -779.942 -2534.999 -4049.912 -0.163 -1.218 -0.898 -0.06 0.41 -0.91 0
1 4.10 410 1.920 -6.326 7.279 -3.326 -43.793 33.630 -779.942 -2534.999 -4049.912 -0.903 -0.936 -0.776 -0.06 0.41 -0.91 0
1 4.11 411 2.418 -7.063 6.929 -27.588 -21.698 39.002 -869.883 -2549.989 -4244.935 -1.387 -0.208 -0.440 -0.06 0.41 -0.91 0.01
1 4.12 412 2.069 -7.461 6.905 -24.963 -3.723 38.086 -869.883 -2549.989 -4244.935 -1.054 0.161 -0.445 -0.06 0.41 -0.91 0.02
1 4.13 413 1.619 -7.662 6.829 -11.200 10.101 33.508 -944.984 -2519.858 -4139.853 -0.637 0.338 -0.391 -0.06 0.41 -0.91 0.02
1 4.14 414 1.245 -7.619 6.704 6.897 19.196 27.374 -944.984 -2519.858 -4139.853 -0.307 0.285 -0.271 -0.06 0.41 -0.91 0.02
1 4.15 415 0.795 -7.279 6.824 22.583 24.323 20.416 -1004.945 -2339.976 -4109.873 0.097 -0.046 -0.374 -0.06 0.41 -0.91 0.02
1 4.16 416 0.311 -6.953 6.857 32.044 30.884 10.986 -839.903 -2444.907 -3989.951 0.535 -0.347 -0.373 -0.06 0.41 -0.91 0.02
1 4.17 417 -0.105 -6.833 6.790 29.175 34.088 5.768 -839.903 -2444.907 -3989.951 0.907 -0.433 -0.264 -0.06 0.4 -0.91 0.02
1 4.18 418 -0.670 -6.987 6.584 23.804 35.126 1.343 -794.932 -2474.888 -4019.931 1.426 -0.248 -0.017 -0.05 0.4 -0.91 0.02
1 4.19 419 -1.039 -7.140 6.723 14.496 32.471 -0.427 -929.994 -2654.920 -4229.944 1.704 -0.047 -0.093 -0.05 0.4 -0.92 0.02
1 4.20 420 -1.250 -7.370 6.714 11.627 27.222 0.702 -674.860 -2459.897 -4184.974 1.871 0.198 -0.064 -0.04 0.4 -0.92 0.02
1 4.21 421 -1.671 -7.561 6.785 13.763 17.822 2.014 -674.860 -2459.897 -4184.974 2.252 0.401 -0.119 -0.04 0.4 -0.92 0.02
1 4.22 422 -1.772 -7.662 6.694 21.515 5.493 3.571 -690.000 -2474.888 -4244.935 2.318 0.516 -0.010 -0.04 0.4 -0.92 0.02
1 4.23 423 -1.714 -7.389 6.541 40.436 -15.900 6.165 -824.913 -2414.927 -4229.944 2.237 0.267 0.170 -0.04 0.39 -0.92 0.02
1 4.24 424 -1.504 -7.049 6.388 50.934 -29.572 6.012 -824.913 -2414.927 -4229.944 2.015 -0.037 0.363 -0.04 0.39 -0.92 0.03
1 4.25 425 -1.269 -6.589 6.216 55.664 -39.520 4.913 -779.942 -2489.878 -4079.892 1.786 -0.448 0.586 -0.04 0.39 -0.92 0.03
1 4.26 426 -0.685 -6.043 5.832 46.845 -47.516 2.380 -734.971 -2549.989 -4064.902 1.251 -0.882 1.079 -0.04 0.38 -0.92 0.03
1 4.27 427 -0.541 -5.967 5.631 32.196 -50.720 3.143 -764.952 -2744.862 -4094.882 1.156 -0.911 1.323 -0.05 0.38 -0.92 0.03
1 4.28 428 -0.354 -5.957 5.191 16.296 -50.751 4.822 -764.952 -2744.862 -4094.882 1.020 -0.889 1.790 -0.05 0.38 -0.92 0.04
1 4.29 429 -0.263 -6.110 5.023 4.517 -46.997 6.439 -929.994 -2684.901 -4049.912 0.977 -0.721 1.967 -0.06 0.37 -0.92 0.04
1 4.30 430 -0.369 -6.517 4.789 0.275 -40.894 6.287 -974.965 -2684.901 -4184.974 1.125 -0.310 2.201 -0.06 0.37 -0.92 0.04
1 4.31 431 -0.326 -6.857 4.707 3.174 -30.335 5.554 -974.965 -2684.901 -4184.974 1.117 0.030 2.279 -0.06 0.37 -0.92 0.04
1 4.32 432 -0.292 -7.092 5.028 7.233 -25.879 6.134 -914.854 -2744.862 -4139.853 1.112 0.268 1.958 -0.06 0.37 -0.92 0.04
1 4.33 433 -0.024 -7.461 5.516 15.900 -24.109 8.423 -1094.887 -2744.862 -3944.980 0.882 0.652 1.480 -0.07 0.37 -0.92 0.05
1 4.34 434 0.148 -7.370 6.062 21.912 -24.048 10.803 -974.965 -2834.953 -4079.892 0.720 0.571 0.942 -0.07 0.37 -0.92 0.05
1 4.35 435 0.254 -6.958 6.469 26.306 -22.980 12.909 -974.965 -2834.953 -4079.892 0.622 0.177 0.552 -0.07 0.37 -0.92 0.05
1 4.36 436 0.579 -6.240 7.092 27.191 -22.430 15.381 -1019.936 -2669.911 -4139.853 0.301 -0.518 -0.049 -0.07 0.37 -0.93 0.05
1 4.37 437 0.967 -5.440 7.714 23.834 -22.797 21.179 -1064.906 -2744.862 -4094.882 -0.083 -1.289 -0.645 -0.07 0.37 -0.93 0.06
1 4.38 438 1.753 -4.975 8.346 -1.221 -35.706 37.659 -1064.906 -2744.862 -4094.882 -0.866 -1.726 -1.251 -0.07 0.36 -0.93 0.06
1 4.39 439 2.801 -5.665 8.581 -39.887 -50.080 53.894 -1139.857 -2894.914 -4199.964 -1.912 -1.024 -1.474 -0.07 0.36 -0.93 0.06
1 4.40 440 4.626 -8.399 8.399 -93.445 -25.940 66.834 -1184.978 -3029.976 -4079.892 -3.738 1.605 -1.393 -0.08 0.37 -0.92 0.07
1 4.41 441 4.669 -9.352 8.160 -94.269 -6.256 65.430 -1019.936 -2774.992 -4094.882 -3.833 2.450 -1.253 -0.08 0.38 -0.92 0.08
1 4.42 442 3.860 -9.984 6.991 -29.266 30.182 54.413 -1019.936 -2774.992 -4094.882 -3.110 3.002 -0.155 -0.07 0.38 -0.92 0.08
1 4.43 443 3.491 -8.648 7.274 20.081 22.217 38.635 -1139.857 -2819.963 -4169.983 -2.825 1.646 -0.450 -0.07 0.38 -0.92 0.08
1 4.44 444 3.730 -7.154 7.552 25.147 32.501 14.374 -989.955 -2669.911 -4094.882 -3.124 0.177 -0.696 -0.07 0.38 -0.92 0.08
1 4.45 445 2.816 -6.637 7.360 0.671 65.979 4.791 -989.955 -2669.911 -4094.882 -2.257 -0.310 -0.470 -0.07 0.38 -0.92 0.08
1 4.46 446 1.676 -7.226 7.480 -16.419 105.408 -2.228 -1064.906 -2774.992 -3989.951 -1.163 0.292 -0.574 -0.06 0.38 -0.92 0.08
1 4.47 447 0.230 -7.997 8.102 -21.515 133.149 -7.416 -914.854 -2699.891 -4094.882 0.198 1.054 -1.200 -0.06 0.38 -0.92 0.08
1 4.48 448 -1.801 -8.816 9.228 -9.796 139.008 -12.817 -1019.936 -2744.862 -4064.902 1.967 1.835 -2.351 -0.04 0.38 -0.92 0.07
1 4.49 449 -3.074 -8.619 9.692 -1.831 121.918 -12.726 -1019.936 -2744.862 -4064.902 3.112 1.632 -2.820 -0.03 0.39 -0.92 0.07
1 4.50 450 -4.310 -7.949 9.778 -13.336 83.130 -6.256 -854.893 -2609.950 -4079.892 4.240 0.959 -2.910 -0.02 0.39 -0.92 0.06
1 4.51 451 -5.454 -7.192 9.266 -41.657 38.483 7.629 -629.890 -2684.901 -4049.912 5.311 0.183 -2.418 -0.02 0.39 -0.92 0.06
1 4.52 452 -5.923 -6.292 7.547 -82.520 -29.724 28.015 -629.890 -2684.901 -4049.912 5.740 -0.768 -0.753 -0.02 0.39 -0.92 0.06
1 4.53 453 -4.803 -6.254 6.369 -82.855 -73.120 36.835 -464.997 -2699.891 -4094.882 4.611 -0.885 0.342 -0.02 0.4 -0.92 0.06
1 4.54 454 -2.878 -6.580 5.306 -49.805 -106.049 43.518 -509.968 -2549.989 -4019.931 2.711 -0.644 1.315 -0.02 0.4 -0.91 0.07
1 4.55 455 0.297 -7.307 3.821 43.854 -137.879 51.483 -659.870 -2519.858 -3989.951 -0.382 0.022 2.733 -0.03 0.41 -0.91 0.08
1 4.56 456 2.385 -7.370 3.754 93.384 -147.461 55.206 -659.870 -2519.858 -3989.951 -2.386 0.145 2.867 -0.04 0.4 -0.91 0.09
1 4.57 457 3.754 -6.963 4.980 85.968 -175.355 51.911 -779.942 -2489.878 -3929.990 -3.656 -0.167 1.743 -0.05 0.39 -0.91 0.1
1 4.58 458 6.728 -6.790 7.461 41.809 -136.933 60.303 -929.994 -2459.897 -4109.873 -6.498 -0.261 -0.659 -0.06 0.39 -0.91 0.1
1 4.59 459 8.121 -6.359 8.892 -16.937 -53.803 63.355 -929.994 -2459.897 -4109.873 -7.816 -0.667 -2.068 -0.06 0.38 -0.91 0.11
1 4.60 460 7.901 -6.345 10.022 -47.577 67.414 51.422 -1034.926 -2684.901 -4049.912 -7.631 -0.710 -3.226 -0.06 0.39 -0.91 0.12
1 4.61 461 6.900 -5.933 9.151 -48.767 105.866 30.396 -1169.988 -2594.959 -4019.931 -6.742 -1.170 -2.401 -0.06 0.39 -0.91 0.12
1 4.62 462 5.641 -5.900 7.719 -43.549 109.223 3.235 -1169.988 -2594.959 -4019.931 -5.624 -1.253 -1.020 -0.05 0.39 -0.91 0.12
1 4.63 463 3.721 -6.603 5.995 -2.625 85.724 -26.611 -1079.896 -2654.920 -3899.859 -3.892 -0.619 0.626 -0.04 0.4 -0.91 0.11
1 4.64 464 2.021 -6.814 5.239 29.297 79.865 -36.163 -899.864 -2489.878 -3974.960 -2.213 -0.402 1.390 -0.03 0.4 -0.91 0.1
1 4.65 465 0.311 -6.493 4.559 39.307 85.785 -44.708 -914.854 -2519.858 -3989.951 -0.524 -0.692 2.102 -0.03 0.4 -0.91 0.1
1 4.66 466 -1.092 -6.120 4.267 25.635 87.677 -50.049 -914.854 -2519.858 -3989.951 0.841 -1.028 2.433 -0.03 0.4 -0.91 0.09
1 4.67 467 -1.982 -6.474 4.947 -17.029 56.671 -39.276 -704.991 -2384.946 -4049.912 1.700 -0.655 1.772 -0.02 0.4 -0.91 0.09
1 4.68 468 -2.241 -6.972 5.512 -40.894 25.665 -25.543 -690.000 -2399.937 -4019.931 1.939 -0.168 1.194 -0.02 0.4 -0.91 0.08
1 4.69 469 -2.308 -7.609 5.823 -47.516 -3.448 -14.954 -690.000 -2399.937 -4019.931 2.004 0.432 0.843 -0.02 0.4 -0.91 0.08
1 4.70 470 -1.710 -8.188 6.460 -22.430 -24.902 -7.019 -539.948 -2444.907 -4019.931 1.420 0.918 0.105 -0.02 0.41 -0.91 0.08
1 4.71 471 -1.288 -8.265 6.709 5.371 -28.320 -4.028 -704.991 -2534.999 -4004.941 1.021 0.976 -0.163 -0.02 0.41 -0.91 0.08
1 4.72 472 -0.872 -8.016 6.919 30.274 -29.755 -0.458 -599.909 -2729.872 -3899.859 0.628 0.738 -0.361 -0.02 0.41 -0.91 0.08
1 4.73 473 -0.460 -8.045 6.766 46.448 -35.675 5.005 -599.909 -2729.872 -3899.859 0.241 0.801 -0.169 -0.02 0.4 -0.91 0.08
1 4.74 474 -0.057 -8.136 6.412 49.652 -52.094 12.329 -764.952 -2519.858 -3944.980 -0.132 0.940 0.238 -0.02 0.4 -0.91 0.08
1 4.75 475 1.403 -8.179 6.287 25.971 -76.203 23.895 -749.961 -2534.999 -4049.912 -1.550 1.029 0.413 -0.03 0.4 -0.91 0.08
1 4.76 476 2.792 -8.174 6.129 5.981 -75.775 27.863 -749.961 -2534.999 -4049.912 -2.881 1.053 0.603 -0.03 0.39 -0.91 0.09
1 4.77 477 4.128 -8.026 5.852 0.519 -43.396 25.055 -779.942 -2564.979 -3974.960 -4.096 0.906 0.883 -0.04 0.39 -0.91 0.09
1 4.78 478 4.247 -7.710 5.761 11.353 -12.817 15.472 -1004.945 -2654.920 -4049.912 -4.188 0.591 0.974 -0.04 0.39 -0.91 0.1
1 4.79 479 4.085 -7.561 5.564 23.499 16.449 4.913 -899.864 -2609.950 -4004.941 -4.002 0.453 1.181 -0.05 0.39 -0.91 0.1
1 4.80 480 3.615 -7.556 5.555 32.532 38.757 -4.547 -899.864 -2609.950 -4004.941 -3.527 0.470 1.214 -0.05 0.39 -0.91 0.09
1 4.81 481 2.840 -7.518 5.574 38.452 53.497 -10.590 -944.984 -2594.959 -4064.902 -2.761 0.463 1.227 -0.04 0.39 -0.92 0.09
1 4.82 482 1.609 -7.073 5.339 40.619 58.350 -13.245 -1019.936 -2624.940 -4019.931 -1.554 0.054 1.499 -0.04 0.39 -0.92 0.09
1 4.83 483 0.958 -6.627 5.162 32.898 51.453 -12.054 -1019.936 -2624.940 -4019.931 -0.933 -0.353 1.716 -0.04 0.38 -0.92 0.09
1 4.84 484 0.397 -6.000 4.832 9.857 34.332 -7.141 -854.893 -2654.920 -4184.974 -0.446 -0.920 2.107 -0.03 0.38 -0.92 0.08
1 4.85 485 0.354 -5.789 4.798 -0.305 28.168 -5.280 -690.000 -2669.911 -3989.951 -0.429 -1.125 2.147 -0.03 0.38 -0.92 0.08
1 4.86 486 0.498 -5.885 4.640 -29.450 15.900 -1.923 -749.961 -2684.901 -4004.941 -0.591 -1.044 2.289 -0.03 0.38 -0.92 0.08
1 4.87 487 0.828 -6.436 4.827 -42.297 14.069 -1.068 -749.961 -2684.901 -4004.941 -0.936 -0.528 2.068 -0.03 0.38 -0.92 0.08
1 4.88 488 1.235 -6.805 5.445 -42.694 20.447 -0.916 -749.961 -2609.950 -4004.941 -1.358 -0.204 1.404 -0.03 0.39 -0.92 0.08
1 4.89 489 2.131 -6.441 7.523 -18.433 42.450 -2.472 -539.948 -2624.940 -4094.882 -2.277 -0.609 -0.717 -0.02 0.39 -0.92 0.08
1 4.90 490 2.289 -5.411 8.959 1.892 65.094 -6.165 -539.948 -2624.940 -4094.882 -2.458 -1.664 -2.180 -0.02 0.39 -0.92 0.07
1 4.91 491 1.393 -4.765 9.424 4.852 84.351 -14.679 -824.913 -2609.950 -4049.912 -1.601 -2.305 -2.640 -0.02 0.39 -0.92 0.07
1 4.92 492 -1.872 -6.556 8.667 -37.109 93.720 -37.445 -690.000 -2624.940 -3915.000 1.554 -0.485 -1.858 -0.01 0.39 -0.92 0.06
1 4.93 493 -3.496 -9.180 8.710 -80.323 86.731 -50.324 -690.000 -2669.911 -3944.980 3.123 2.095 -1.950 -0 0.39 -0.92 0.06
1 4.94 494 -4.358 -11.057 9.496 -100.495 54.199 -54.932 -690.000 -2669.911 -3944.980 3.959 3.879 -2.835 -0 0.4 -0.91 0.05
1 4.95 495 -4.559 -11.928 10.281 -77.759 -2.655 -58.319 -569.929 -2489.878 -4049.912 4.180 4.649 -3.730 -0 0.41 -0.91 0.05
1 4.96 496 -3.615 -10.770 8.639 4.791 -92.346 -55.145 -494.978 -2534.999 -3974.960 3.322 3.423 -2.159 -0 0.41 -0.91 0.04
1 4.97 497 -1.705 -9.280 7.441 36.011 -118.164 -43.549 -494.978 -2534.999 -3974.960 1.554 1.923 -0.969 -0.01 0.41 -0.91 0.04
1 4.98 498 0.168 -8.327 7.039 15.411 -115.143 -27.985 -539.948 -2549.989 -3989.951 -0.151 1.002 -0.529 -0.02 0.41 -0.91 0.04
1 4.99 499 1.939 -8.059 7.106 -23.804 -104.370 -7.019 -614.899 -2399.937 -4019.931 -1.639 0.751 -0.584 -0.04 0.41 -0.91 0.05
1 5.00 500 2.504 -8.035 7.092 -17.914 -102.478 -3.387 -794.932 -2399.937 -3944.980 -2.089 0.704 -0.601 -0.05 0.41 -0.91 0.05
1 5.01 501 2.955 -7.810 7.231 -2.014 -95.398 -5.859 -794.932 -2399.937 -3944.980 -2.434 0.467 -0.762 -0.05 0.41 -0.91 0.05
1 5.02 502 3.218 -7.365 7.585 4.272 -80.231 -11.231 -929.994 -2534.999 -4004.941 -2.598 0.023 -1.123 -0.06 0.41 -0.91 0.06
1 5.03 503 3.496 -6.805 7.748 -1.648 -59.876 -14.526 -914.854 -2519.858 -3989.951 -2.786 -0.531 -1.288 -0.07 0.41 -0.91 0.06
1 5.04 504 4.109 -5.612 7.561 -22.278 -22.583 -15.717 -914.854 -2519.858 -3989.951 -3.328 -1.725 -1.111 -0.07 0.41 -0.91 0.06
1 5.05 505 4.281 -5.153 7.418 -33.112 9.735 -18.860 -929.994 -2489.878 -3929.990 -3.431 -2.190 -0.983 -0.07 0.41 -0.91 0.06
1 5.06 506 4.018 -5.119 7.135 -31.799 46.570 -22.949 -929.994 -2489.878 -3929.990 -3.123 -2.238 -0.723 -0.08 0.41 -0.91 0.05
1 5.07 507 1.887 -5.464 6.747 -2.991 99.060 -33.692 -1004.945 -2264.875 -3854.889 -0.997 -1.913 -0.357 -0.07 0.41 -0.91 0.05
1 5.08 508 -0.024 -5.962 6.527 18.463 119.416 -44.464 -1004.945 -2264.875 -3854.889 0.864 -1.397 -0.109 -0.07 0.41 -0.91 0.04
1 5.09 509 -1.973 -6.709 6.484 21.545 121.064 -54.901 -824.913 -2339.976 -4049.912 2.744 -0.620 -0.023 -0.06 0.41 -0.91 0.03
1 5.10 510 -3.721 -7.801 6.905 2.625 98.145 -60.120 -764.952 -2399.937 -3944.980 4.422 0.499 -0.406 -0.05 0.41 -0.91 0.03
1 5.11 511 -5.588 -9.161 7.949 -24.963 14.618 -55.054 -764.952 -2399.937 -3944.980 6.257 1.863 -1.442 -0.05 0.41 -0.91 0.02
1 5.12 512 -5.952 -9.280 8.279 -14.435 -58.533 -41.535 -749.961 -2534.999 -4049.912 6.653 1.967 -1.793 -0.05 0.41 -0.91 0.02
1 5.13 513 -5.607 -8.279 8.165 11.932 -104.462 -18.616 -749.961 -2534.999 -4049.912 6.400 0.954 -1.703 -0.05 0.41 -0.91 0.02
1 5.14 514 -4.228 -6.110 7.073 36.896 -116.150 19.287 -794.932 -2399.937 -3884.869 5.257 -1.176 -0.601 -0.07 0.41 -0.91 0.02
1 5.15 515 -2.926 -5.157 5.952 29.144 -105.500 35.370 -794.932 -2399.937 -3884.869 4.021 -2.094 0.548 -0.07 0.4 -0.91 0.03
1 5.16 516 -1.216 -5.311 5.143 8.331 -93.720 45.532 -839.903 -2354.966 -3915.000 2.355 -1.920 1.373 -0.08 0.4 -0.91 0.03
1 5.17 517 0.139 -5.957 4.597 -12.756 -105.042 54.718 -1004.945 -2489.878 -3749.957 1.044 -1.281 1.903 -0.08 0.4 -0.91 0.04
1 5.18 518 1.681 -6.647 4.233 -9.857 -81.146 62.317 -1004.945 -2489.878 -3749.957 -0.460 -0.614 2.235 -0.09 0.4 -0.91 0.05
1 5.19 519 2.476 -6.872 4.573 20.569 -2.808 58.808 -1079.896 -2534.999 -3899.859 -1.257 -0.405 1.877 -0.09 0.4 -0.91 0.05
1 5.20 520 1.973 -6.761 5.454 25.971 36.652 51.056 -1079.896 -2534.999 -3899.859 -0.805 -0.509 1.012 -0.09 0.4 -0.91 0.06
1 5.21 521 1.446 -6.876 6.642 2.350 43.213 37.140 -1244.939 -2474.888 -3764.947 -0.455 -0.367 -0.115 -0.08 0.4 -0.91 0.06
1 5.22 522 1.384 -7.149 6.982 -15.656 24.567 28.168 -1244.939 -2474.888 -3764.947 -0.465 -0.098 -0.450 -0.08 0.4 -0.91 0.07
1 5.23 523 1.422 -7.590 7.154 -21.454 6.866 18.677 -1199.968 -2324.985 -3839.898 -0.548 0.325 -0.636 -0.08 0.4 -0.91 0.07
1 5.24 524 1.149 -8.078 7.116 -11.566 -4.578 8.392 -1154.998 -2384.946 -3749.957 -0.293 0.794 -0.616 -0.08 0.4 -0.91 0.07
1 5.25 525 0.752 -8.174 7.178 7.294 -9.888 -0.336 -1154.998 -2384.946 -3749.957 0.106 0.884 -0.685 -0.08 0.4 -0.91 0.07
1 5.26 526 0.081 -8.232 7.082 30.518 -11.597 -10.681 -1019.936 -2444.907 -3839.898 0.790 0.955 -0.577 -0.08 0.4 -0.91 0.07
1 5.27 527 -0.321 -7.872 7.078 35.462 -7.080 -13.397 -1019.936 -2444.907 -3839.898 1.215 0.626 -0.541 -0.08 0.4 -0.91 0.07
1 5.28 528 -1.101 -7.413 6.685 28.046 0.702 -8.911 -1109.877 -2384.946 -3854.889 2.019 0.238 -0.073 -0.08 0.4 -0.91 0.07
1 5.29 529 -1.422 -7.192 6.378 24.017 0.977 -6.470 -1109.877 -2384.946 -3854.889 2.333 0.044 0.263 -0.08 0.39 -0.91 0.07
1 5.30 530 -1.848 -6.709 5.651 14.771 -3.601 1.068 -1034.926 -2414.927 -3899.859 2.743 -0.421 1.013 -0.08 0.39 -0.91 0.07
1 5.31 531 -2.021 -6.666 5.229 12.177 -10.956 5.096 -1109.877 -2459.897 -3974.960 2.899 -0.453 1.449 -0.08 0.39 -0.91 0.07
1 5.32 532 -1.839 -6.493 5.114 14.679 -18.433 6.897 -1109.877 -2459.897 -3974.960 2.724 -0.612 1.577 -0.08 0.39 -0.91 0.07
1 5.33 533 -1.221 -6.402 5.081 21.027 -31.983 8.972 -944.984 -2444.907 -3884.869 2.119 -0.686 1.626 -0.08 0.39 -0.91 0.07
1 5.34 534 -0.872 -6.570 5.143 24.139 -39.978 10.407 -944.984 -2444.907 -3884.869 1.791 -0.498 1.583 -0.08 0.39 -0.92 0.07
1 5.35 535 -0.350 -6.441 5.296 25.330 -44.556 10.620 -1079.896 -2489.878 -3974.960 1.298 -0.603 1.451 -0.08 0.39 -0.92 0.08
1 5.36 536 0.287 -6.541 5.636 21.820 -43.060 10.559 -1199.968 -2549.989 -4019.931 0.730 -0.451 1.154 -0.09 0.38 -0.92 0.08
1 5.37 537 0.675 -6.517 6.062 15.595 -37.995 10.437 -1139.857 -2474.888 -4019.931 0.375 -0.454 0.744 -0.09 0.38 -0.92 0.08
1 5.38 538 1.068 -6.556 6.364 6.653 -32.135 10.345 -1199.968 -2549.989 -4019.931 0.009 -0.403 0.452 -0.09 0.38 -0.92 0.08
1 5.39 539 1.030 -6.776 6.570 -3.357 -26.550 9.705 -1199.968 -2549.989 -4019.931 0.068 -0.180 0.246 -0.1 0.38 -0.92 0.08
1 5.40 540 0.881 -7.576 6.670 -10.895 -24.597 9.094 -1229.949 -2609.950 -3974.960 0.234 0.614 0.136 -0.1 0.38 -0.92 0.09
1 5.41 541 0.838 -8.030 6.594 -7.751 -26.032 8.392 -1229.949 -2609.950 -3974.960 0.291 1.056 0.198 -0.1 0.38 -0.92 0.09
1 5.42 542 0.891 -8.466 6.484 0.153 -27.710 7.721 -1469.942 -2594.959 -4019.931 0.253 1.479 0.292 -0.1 0.38 -0.92 0.09
1 5.43 543 0.996 -8.701 6.560 15.137 -27.008 5.920 -1154.998 -2564.979 -3899.859 0.186 1.711 0.206 -0.1 0.38 -0.91 0.09
1 5.44 544 0.867 -8.380 6.656 22.797 -23.102 3.876 -1199.968 -2474.888 -3915.000 0.337 1.408 0.125 -0.11 0.38 -0.92 0.09
1 5.45 545 0.819 -8.093 6.647 24.292 -20.813 2.991 -1424.972 -2519.858 -4064.902 0.403 1.143 0.154 -0.11 0.38 -0.92 0.09
1 5.46 546 0.776 -7.705 6.541 18.982 -21.271 1.099 -1424.972 -2519.858 -4064.902 0.462 0.775 0.277 -0.11 0.37 -0.92 0.09
1 5.47 547 0.565 -7.470 6.398 10.559 -21.607 0.763 -1274.919 -2624.940 -3884.869 0.690 0.555 0.432 -0.11 0.37 -0.92 0.1
1 5.48 548 1.183 -6.723 7.255 10.529 -9.552 -1.465 -1274.919 -2624.940 -3884.869 0.088 -0.186 -0.421 -0.11 0.37 -0.92 0.1
1 5.49 549 1.140 -6.139 7.437 15.717 -11.475 2.960 -1394.991 -2519.858 -3915.000 0.143 -0.761 -0.597 -0.11 0.37 -0.92 0.1
1 5.50 550 2.083 -6.249 8.112 3.479 -24.414 10.010 -1349.871 -2624.940 -3989.951 -0.792 -0.632 -1.254 -0.11 0.37 -0.92 0.1
1 5.51 551 4.209 -7.403 8.725 -36.591 -20.599 25.635 -1409.981 -2534.999 -4049.912 -2.891 0.520 -1.874 -0.11 0.37 -0.92 0.1
1 5.52 552 4.607 -8.251 9.074 -54.291 11.231 30.121 -1439.962 -2654.920 -3854.889 -3.303 1.320 -2.270 -0.11 0.37 -0.91 0.1
1 5.53 553 4.070 -9.620 9.314 -53.467 42.908 32.318 -1439.962 -2654.920 -3854.889 -2.820 2.627 -2.563 -0.11 0.38 -0.91 0.1
1 5.54 554 3.251 -10.770 8.969 -36.194 44.006 33.844 -1364.861 -2459.897 -3929.990 -2.084 3.719 -2.263 -0.11 0.38 -0.91 0.1
1 5.55 555 2.634 -10.104 9.204 6.866 27.680 21.851 -1364.861 -2459.897 -3929.990 -1.543 3.019 -2.521 -0.1 0.38 -0.91 0.1
1 5.56 556 2.409 -9.295 8.974 16.296 41.290 11.566 -1484.933 -2534.999 -3794.928 -1.374 2.208 -2.285 -0.1 0.39 -0.91 0.1
1 5.57 557 1.729 -8.643 8.466 9.033 67.200 4.486 -1259.929 -2414.927 -3899.859 -0.747 1.571 -1.753 -0.1 0.38 -0.91 0.1
1 5.58 558 -0.014 -7.820 7.777 -6.836 101.502 -5.005 -1244.939 -2444.907 -3884.869 0.837 0.761 -1.029 -0.09 0.38 -0.91 0.1
1 5.59 559 -1.082 -7.432 7.542 -6.622 110.718 -9.125 -1259.929 -2489.878 -3824.908 1.804 0.367 -0.789 -0.08 0.39 -0.91 0.1
1 5.60 560 -1.551 -6.714 7.312 -0.885 110.108 -8.240 -1259.929 -2489.878 -3824.908 2.162 -0.354 -0.551 -0.07 0.39 -0.91 0.09
1 5.61 561 -2.241 -5.861 7.197 -0.916 102.173 -1.343 -1169.988 -2399.937 -3764.947 2.731 -1.202 -0.422 -0.07 0.39 -0.92 0.09
1 5.62 562 -2.696 -5.143 6.982 -24.597 78.644 19.775 -1169.988 -2399.937 -3764.947 3.063 -1.917 -0.195 -0.06 0.39 -0.92 0.09
1 5.63 563 -3.156 -4.674 6.479 -49.225 52.307 36.286 -1004.945 -2384.946 -4004.941 3.398 -2.400 0.299 -0.05 0.39 -0.92 0.09
1 5.64 564 -3.232 -4.425 5.962 -64.942 13.672 49.835 -1004.945 -2564.979 -3974.960 3.367 -2.690 0.777 -0.04 0.39 -0.91 0.09
1 5.65 565 -1.676 -4.722 5.153 -54.352 -56.793 57.404 -779.942 -2459.897 -3929.990 1.695 -2.521 1.450 -0.04 0.4 -0.91 0.09
1 5.66 566 0.287 -5.583 4.846 -27.374 -99.976 56.824 -899.864 -2309.995 -3854.889 -0.263 -1.707 1.703 -0.05 0.4 -0.91 0.1
1 5.67 567 2.413 -6.967 4.975 6.165 -118.042 52.033 -899.864 -2309.995 -3854.889 -2.345 -0.341 1.553 -0.05 0.41 -0.91 0.11
1 5.68 568 3.984 -8.548 5.454 39.978 -106.568 45.105 -869.883 -2354.966 -3884.869 -3.846 1.252 1.087 -0.06 0.4 -0.91 0.11
1 5.69 569 5.330 -9.261 6.929 59.204 -67.841 35.858 -869.883 -2354.966 -3884.869 -5.128 2.009 -0.341 -0.06 0.4 -0.91 0.12
1 5.70 570 6.153 -7.465 9.343 31.342 11.078 19.379 -974.965 -2309.995 -3929.990 -5.932 0.272 -2.691 -0.07 0.4 -0.91 0.12
1 5.71 571 5.799 -6.259 9.970 8.209 53.559 6.653 -974.965 -2339.976 -3974.960 -5.600 -0.896 -3.276 -0.06 0.39 -0.91 0.12
1 5.72 572 4.228 -5.636 9.453 -28.351 85.694 -12.543 -929.994 -2339.976 -3929.990 -4.157 -1.511 -2.748 -0.06 0.39 -0.91 0.12
1 5.73 573 3.500 -5.679 9.098 -41.779 90.210 -17.944 -1034.926 -2414.927 -3974.960 -3.503 -1.503 -2.431 -0.05 0.4 -0.91 0.12
1 5.74 574 1.642 -6.805 7.030 -52.765 88.043 -33.966 -1034.926 -2414.927 -3974.960 -1.697 -0.426 -0.415 -0.05 0.4 -0.91 0.11
1 5.75 575 0.680 -7.753 5.866 -24.872 82.093 -41.016 -914.854 -2279.865 -3839.898 -0.767 0.480 0.702 -0.04 0.4 -0.91 0.1
1 5.76 576 0.177 -7.916 5.215 17.181 78.308 -43.701 -914.854 -2279.865 -3839.898 -0.292 0.626 1.334 -0.04 0.41 -0.91 0.1
1 5.77 577 -0.402 -7.111 5.325 51.300 69.855 -41.168 -824.913 -2384.946 -3929.990 0.261 -0.159 1.245 -0.03 0.4 -0.91 0.09
1 5.78 578 -1.020 -6.058 5.133 34.821 50.110 -34.271 -794.932 -2204.914 -3915.000 0.853 -1.169 1.484 -0.03 0.4 -0.91 0.09
1 5.79 579 -1.733 -5.794 5.066 -1.617 18.433 -23.102 -794.932 -2204.914 -3915.000 1.549 -1.393 1.593 -0.03 0.4 -0.91 0.08
1 5.80 580 -1.504 -6.273 5.287 -40.833 -30.518 -9.766 -704.991 -2384.946 -3929.990 1.345 -0.931 1.355 -0.03 0.4 -0.91 0.08
1 5.81 581 -0.958 -7.269 5.722 -34.699 -46.326 -8.331 -704.991 -2384.946 -3929.990 0.846 0.024 0.876 -0.03 0.4 -0.91 0.08
1 5.82 582 0.005 -7.939 6.292 -7.294 -41.138 -7.507 -690.000 -2324.985 -3944.980 -0.069 0.663 0.272 -0.03 0.41 -0.91 0.08
1 5.83 583 0.488 -8.184 6.618 25.879 -22.553 -5.371 -690.000 -2324.985 -3944.980 -0.508 0.906 -0.055 -0.03 0.4 -0.91 0.08
1 5.84 584 0.613 -7.868 7.015 57.251 0.610 2.655 -734.971 -2324.985 -3884.869 -0.607 0.621 -0.418 -0.04 0.4 -0.91 0.08
1 5.85 585 0.637 -7.374 7.073 59.754 2.319 9.155 -779.942 -2339.976 -3929.990 -0.626 0.181 -0.418 -0.04 0.4 -0.91 0.08
1 5.86 586 1.106 -6.757 7.168 45.838 -6.012 14.923 -779.942 -2339.976 -3929.990 -1.101 -0.375 -0.447 -0.04 0.39 -0.91 0.08
1 5.87 587 2.016 -6.144 7.068 10.101 -17.273 20.294 -749.961 -2339.976 -4109.873 -2.013 -0.900 -0.254 -0.04 0.39 -0.92 0.08
1 5.88 588 2.562 -6.211 6.465 -9.491 -17.487 19.348 -749.961 -2339.976 -4109.873 -2.549 -0.822 0.360 -0.04 0.39 -0.92 0.09
1 5.89 589 2.844 -6.445 5.804 -19.257 -11.963 14.587 -944.984 -2474.888 -3915.000 -2.816 -0.598 1.011 -0.04 0.39 -0.92 0.09
1 5.90 590 3.141 -6.838 5.435 -18.219 -1.160 7.660 -944.984 -2474.888 -3915.000 -3.095 -0.225 1.358 -0.04 0.39 -0.92 0.09
1 5.91 591 3.122 -7.317 4.966 -7.141 12.207 -0.183 -794.932 -2324.985 -4094.882 -3.061 0.235 1.807 -0.04 0.39 -0.92 0.09
1 5.92 592 2.758 -7.446 4.836 23.377 34.027 -10.162 -929.994 -2309.995 -3974.960 -2.688 0.355 1.927 -0.04 0.39 -0.92 0.09
1 5.93 593 2.160 -7.159 4.860 44.129 47.119 -16.022 -929.994 -2309.995 -3974.960 -2.089 0.079 1.915 -0.04 0.39 -0.92 0.08
1 5.94 594 1.370 -6.661 4.956 55.084 54.718 -20.752 -734.971 -2354.966 -4139.853 -1.308 -0.385 1.855 -0.04 0.39 -0.92 0.08
1 5.95 595 0.417 -6.105 5.263 46.509 54.871 -21.820 -824.913 -2339.976 -3854.889 -0.418 -0.828 1.663 -0.03 0.38 -0.92 0.08
1 5.96 596 0.153 -5.909 5.660 24.658 49.042 -21.149 -734.971 -2549.989 -3944.980 -0.189 -0.979 1.311 -0.03 0.38 -0.92 0.07
1 5.97 597 0.062 -6.077 6.101 -0.549 43.396 -18.707 -734.971 -2549.989 -3944.980 -0.127 -0.791 0.890 -0.02 0.38 -0.92 0.07
1 5.98 598 -0.024 -6.517 6.374 -21.484 40.802 -18.738 -779.942 -2489.878 -4184.974 -0.067 -0.356 0.611 -0.02 0.38 -0.92 0.07
1 5.99 599 -0.225 -7.384 6.589 -30.090 41.412 -18.585 -629.890 -2684.901 -4049.912 0.111 0.485 0.370 -0.02 0.38 -0.92 0.06
1 6.00 600 -0.800 -7.930 6.469 -22.583 42.511 -19.592 -629.890 -2684.901 -4049.912 0.663 0.997 0.456 -0.02 0.38 -0.92 0.06
1 6.01 601 -1.149 -8.327 6.680 -11.200 43.152 -19.013 -629.890 -2459.897 -3899.859 0.986 1.365 0.215 -0.02 0.38 -0.92 0.06
1 6.02 602 -1.652 -8.414 6.785 2.167 41.992 -12.817 -539.948 -2594.959 -3989.951 1.428 1.426 0.082 -0.01 0.39 -0.92 0.05
1 6.03 603 -1.729 -8.481 6.656 3.998 36.926 -6.805 -569.929 -2459.897 -4109.873 1.474 1.497 0.214 -0.01 0.39 -0.92 0.05
1 6.04 604 -1.403 -8.615 6.287 3.784 29.114 -0.763 -569.929 -2459.897 -4109.873 1.117 1.636 0.587 -0.01 0.39 -0.92 0.05
1 6.05 605 -1.116 -8.682 5.861 4.334 21.607 3.113 -449.857 -2534.999 -4109.873 0.792 1.700 1.009 -0 0.39 -0.92 0.05
1 6.06 606 -0.680 -8.552 6.177 10.040 19.257 2.716 -524.958 -2459.897 -3974.960 0.325 1.568 0.688 -0 0.39 -0.92 0.05
1 6.07 607 -0.340 -6.565 7.930 35.156 35.889 -0.702 -524.958 -2459.897 -3974.960 -0.043 -0.413 -1.059 0 0.39 -0.92 0.05
1 6.08 608 -1.446 -5.196 7.896 34.088 38.696 -3.784 -464.997 -2519.858 -3944.980 1.031 -1.750 -0.995 0 0.38 -0.92 0.05
1 6.09 609 -3.510 -5.320 8.457 -17.151 30.212 -16.602 -464.997 -2474.888 -4064.902 3.019 -1.552 -1.487 0.01 0.38 -0.92 0.05
1 6.10 610 -4.065 -6.972 9.189 -61.615 34.485 -16.357 -344.925 -2384.946 -4049.912 3.538 0.081 -2.241 0.01 0.38 -0.92 0.04
1 6.11 611 -4.913 -8.667 9.869 -80.872 14.954 -13.336 -344.925 -2384.946 -4049.912 4.369 1.703 -2.996 0.01 0.39 -0.92 0.04
1 6.12 612 -5.488 -10.003 10.477 -66.986 -28.107 -17.029 -389.896 -2744.862 -3989.951 4.952 2.956 -3.689 0.01 0.39 -0.92 0.04
1 6.13 613 -5.334 -11.105 10.530 -29.633 -73.578 -24.841 -374.906 -2339.976 -4259.925 4.862 3.996 -3.801 0.01 0.4 -0.92 0.04
1 6.14 614 -3.170 -11.239 9.596 5.798 -110.932 -21.362 -374.906 -2339.976 -4259.925 2.810 4.109 -2.883 0 0.4 -0.92 0.04
1 6.15 615 -0.881 -11.119 8.892 5.035 -125.641 -13.214 -329.935 -2354.966 -3989.951 0.656 3.993 -2.169 -0.01 0.4 -0.92 0.04
1 6.16 616 2.117 -10.281 8.088 21.851 -154.938 3.845 -464.997 -2324.985 -3989.951 -2.048 3.173 -1.342 -0.03 0.39 -0.92 0.05
1 6.17 617 3.117 -9.826 7.834 30.670 -161.652 8.270 -614.899 -2474.888 -4244.935 -2.890 2.746 -1.062 -0.04 0.39 -0.92 0.06
1 6.18 618 5.962 -7.997 7.633 38.727 -157.563 14.587 -614.899 -2474.888 -4244.935 -5.577 0.958 -0.825 -0.05 0.39 -0.92 0.06
1 6.19 619 6.943 -6.733 7.781 26.245 -133.393 10.925 -690.000 -2399.937 -4064.902 -6.414 -0.267 -0.943 -0.06 0.38 -0.92 0.07
1 6.20 620 7.264 -5.449 7.657 9.613 -93.994 4.547 -914.854 -2204.914 -3915.000 -6.614 -1.527 -0.805 -0.07 0.38 -0.92 0.07
1 6.21 621 5.938 -3.658 7.360 -19.959 -29.907 -7.568 -914.854 -2204.914 -3915.000 -5.203 -3.312 -0.510 -0.07 0.38 -0.92 0.07
1 6.22 622 5.090 -2.998 6.963 -44.830 2.380 -17.822 -944.984 -2399.937 -4019.931 -4.286 -3.978 -0.127 -0.08 0.38 -0.92 0.07
1 6.23 623 4.180 -2.916 6.637 -61.463 33.295 -25.299 -1019.936 -2474.888 -4064.902 -3.316 -4.080 0.171 -0.08 0.38 -0.92 0.07
1 6.24 624 2.595 -3.390 5.507 -45.258 82.855 -28.259 -1094.887 -2474.888 -4019.931 -1.746 -3.710 1.194 -0.07 0.39 -0.92 0.06
1 6.25 625 1.202 -3.505 4.904 -14.923 110.871 -29.022 -1094.887 -2474.888 -4019.931 -0.414 -3.629 1.768 -0.07 0.39 -0.91 0.06
1 6.26 626 -0.388 -3.749 4.439 11.322 124.329 -31.342 -1079.896 -2309.995 -4049.912 1.090 -3.388 2.239 -0.06 0.39 -0.92 0.05
1 6.27 627 -2.270 -4.449 4.195 24.384 118.317 -34.058 -824.913 -2264.875 -3974.960 2.880 -2.669 2.514 -0.05 0.39 -0.92 0.05
1 6.28 628 -4.262 -6.489 4.674 15.625 79.438 -41.229 -824.913 -2264.875 -3974.960 4.793 -0.600 2.073 -0.05 0.39 -0.92 0.04
1 6.29 629 -4.899 -7.887 6.058 1.099 43.488 -47.455 -839.903 -2444.907 -3989.951 5.382 0.822 0.717 -0.04 0.39 -0.92 0.04
1 6.30 630 -5.449 -8.337 7.916 -9.399 5.981 -47.486 -764.952 -2399.937 -3915.000 5.891 1.274 -1.136 -0.04 0.39 -0.92 0.03
1 6.31 631 -5.967 -7.796 9.745 3.265 -66.132 -23.132 -690.000 -2519.858 -3989.951 6.518 0.726 -2.980 -0.04 0.39 -0.92 0.03
1 6.32 632 -5.354 -6.637 10.176 13.611 -99.854 1.007 -690.000 -2519.858 -3989.951 6.003 -0.423 -3.410 -0.05 0.39 -0.92 0.03
1 6.33 633 -4.224 -6.019 9.845 1.434 -113.495 19.745 -794.932 -2354.966 -4199.964 4.974 -1.027 -3.076 -0.06 0.39 -0.92 0.03
1 6.34 634 -2.658 -6.187 8.212 -30.090 -120.575 30.426 -824.913 -2384.946 -4109.873 3.504 -0.867 -1.463 -0.06 0.39 -0.92 0.04
1 6.35 635 -0.603 -7.494 5.947 -48.004 -126.465 39.002 -824.913 -2384.946 -4109.873 1.527 0.402 0.753 -0.07 0.39 -0.92 0.05
1 6.36 636 2.720 -8.782 4.334 9.674 -116.394 50.202 -1019.936 -2279.865 -4064.902 -1.726 1.639 2.301 -0.08 0.39 -0.91 0.05
1 6.37 637 3.046 -7.178 5.497 68.970 -88.318 48.126 -1004.945 -2339.976 -4079.892 -1.982 0.012 1.102 -0.09 0.39 -0.91 0.06
1 6.38 638 3.031 -5.823 5.981 67.597 -95.063 39.032 -1004.945 -2339.976 -4079.892 -1.910 -1.305 0.650 -0.09 0.39 -0.91 0.07
1 6.39 639 3.572 -4.583 6.345 9.979 -16.174 34.577 -1004.945 -2384.946 -3929.990 -2.342 -2.441 0.378 -0.1 0.38 -0.91 0.08
1 6.40 640 3.141 -5.062 6.216 -27.527 33.478 28.717 -1304.900 -2309.995 -3854.889 -1.943 -1.967 0.507 -0.1 0.38 -0.91 0.08
1 6.41 641 2.466 -5.775 6.316 -44.586 62.317 19.318 -1184.978 -2339.976 -4049.912 -1.340 -1.292 0.379 -0.1 0.39 -0.91 0.08
1 6.42 642 1.508 -6.958 6.105 -36.011 68.238 9.766 -1184.978 -2339.976 -4049.912 -0.461 -0.153 0.556 -0.09 0.39 -0.91 0.08
1 6.43 643 0.565 -7.916 6.287 4.334 47.943 -4.974 -1184.978 -2384.946 -4049.912 0.413 0.774 0.352 -0.09 0.39 -0.91 0.08
1 6.44 644 0.283 -8.169 6.738 28.381 29.541 -11.627 -1259.929 -2339.976 -4154.993 0.645 1.023 -0.096 -0.08 0.39 -0.91 0.07
1 6.45 645 0.067 -8.006 7.125 35.523 16.022 -16.296 -1259.929 -2339.976 -4154.993 0.833 0.882 -0.457 -0.08 0.39 -0.91 0.07
1 6.46 646 -0.450 -7.489 7.590 18.097 5.005 -16.907 -1139.857 -2354.966 -3915.000 1.344 0.434 -0.847 -0.08 0.39 -0.92 0.07
1 6.47 647 -0.709 -7.528 7.523 1.953 -0.275 -12.817 -1079.896 -2264.875 -4004.941 1.606 0.491 -0.761 -0.08 0.39 -0.92 0.07
1 6.48 648 -0.953 -7.480 7.044 -10.193 -6.592 -7.202 -1004.945 -2339.976 -3929.990 1.853 0.445 -0.281 -0.08 0.39 -0.92 0.07
1 6.49 649 -1.044 -7.724 6.795 -13.184 -11.200 -3.052 -1004.945 -2339.976 -3929.990 1.945 0.679 -0.043 -0.08 0.39 -0.92 0.07
1 6.50 650 -1.259 -7.772 6.230 -4.669 -11.292 -0.702 -1199.968 -2474.888 -3989.951 2.160 0.714 0.509 -0.08 0.39 -0.92 0.07
1 6.51 651 -1.331 -7.537 5.962 22.949 -13.428 0.488 -1139.857 -2324.985 -4169.983 2.228 0.475 0.774 -0.08 0.39 -0.92 0.07
1 6.52 652 -1.245 -7.001 6.010 39.093 -20.355 0.214 -1139.857 -2324.985 -4169.983 2.138 -0.047 0.741 -0.08 0.39 -0.92 0.07
1 6.53 653 -0.508 -6.426 6.330 44.617 -33.753 -0.336 -1169.988 -2444.907 -4019.931 1.417 -0.545 0.497 -0.08 0.38 -0.92 0.07
1 6.54 654 -0.072 -6.307 6.532 34.241 -38.300 -1.465 -1064.906 -2354.966 -4139.853 1.007 -0.621 0.337 -0.08 0.38 -0.92 0.08
1 6.55 655 0.215 -6.263 6.896 20.630 -36.408 -2.502 -1154.998 -2414.927 -4184.974 0.754 -0.629 0.003 -0.09 0.38 -0.92 0.08
1 6.56 656 0.235 -6.398 7.020 8.209 -31.220 -2.289 -1154.998 -2414.927 -4184.974 0.769 -0.474 -0.105 -0.09 0.37 -0.92 0.08
1 6.57 657 0.144 -6.517 7.049 -0.305 -27.527 -1.190 -1199.968 -2279.865 -4169.983 0.889 -0.344 -0.129 -0.09 0.37 -0.92 0.08
1 6.58 658 -0.101 -6.996 6.508 -4.669 -23.102 0.946 -1184.978 -2414.927 -4049.912 1.156 0.136 0.411 -0.09 0.37 -0.92 0.08
1 6.59 659 -0.311 -7.006 6.081 -1.526 -22.217 3.662 -1184.978 -2414.927 -4049.912 1.383 0.141 0.830 -0.09 0.37 -0.92 0.08
1 6.60 660 -0.340 -7.374 5.823 8.057 -24.262 6.592 -1349.871 -2399.937 -4169.983 1.432 0.503 1.079 -0.09 0.37 -0.92 0.08
1 6.61 661 -0.010 -7.288 5.952 13.458 -26.306 8.911 -1244.939 -2474.888 -4139.853 1.110 0.420 0.951 -0.1 0.37 -0.92 0.08
1 6.62 662 0.196 -7.360 6.263 15.991 -28.229 10.071 -1184.978 -2534.999 -4049.912 0.914 0.501 0.647 -0.1 0.37 -0.92 0.09
1 6.63 663 0.374 -7.303 6.450 15.778 -29.694 11.353 -1184.978 -2534.999 -4049.912 0.749 0.455 0.470 -0.1 0.37 -0.92 0.09
1 6.64 664 0.369 -7.054 6.378 15.747 -28.473 11.902 -1304.900 -2384.946 -4079.892 0.768 0.218 0.552 -0.1 0.37 -0.92 0.09
1 6.65 665 0.244 -6.541 6.627 17.517 -26.367 11.841 -1334.880 -2489.878 -3929.990 0.904 -0.282 0.313 -0.1 0.37 -0.92 0.09
1 6.66 666 0.713 -5.813 6.943 21.393 -19.592 11.780 -1334.880 -2489.878 -3929.990 0.445 -0.996 0.009 -0.1 0.37 -0.92 0.09
1 6.67 667 1.116 -4.789 7.451 24.170 -18.890 15.076 -1304.900 -2414.927 -4154.993 0.048 -1.999 -0.479 -0.1 0.37 -0.92 0.09
1 6.68 668 2.749 -4.166 8.361 -5.371 -33.234 28.839 -1469.942 -2549.989 -4064.902 -1.574 -2.567 -1.338 -0.1 0.36 -0.92 0.1
1 6.69 669 4.348 -5.018 8.787 -52.002 -34.180 40.436 -1334.880 -2534.999 -4154.993 -3.160 -1.722 -1.773 -0.11 0.36 -0.92 0.1
1 6.70 670 4.951 -6.656 9.395 -102.143 -14.862 45.410 -1334.880 -2534.999 -4154.993 -3.765 -0.151 -2.446 -0.11 0.37 -0.92 0.1
1 6.71 671 5.239 -9.721 9.098 -126.557 13.763 41.931 -1514.913 -2609.950 -4049.912 -4.090 2.789 -2.267 -0.11 0.37 -0.91 0.11
1 6.72 672 4.204 -11.789 7.839 -80.261 17.090 44.098 -1424.972 -2594.959 -4064.902 -3.121 4.723 -1.136 -0.11 0.38 -0.91 0.11
1 6.73 673 3.759 -11.469 7.757 -23.224 9.399 26.032 -1424.972 -2594.959 -4064.902 -2.745 4.302 -1.150 -0.1 0.39 -0.91 0.11
1 6.74 674 3.745 -10.109 7.556 25.757 16.083 5.035 -1319.890 -2324.985 -4064.902 -2.776 2.901 -0.988 -0.1 0.39 -0.91 0.11
1 6.75 675 2.476 -8.016 7.154 57.709 55.145 -15.503 -1394.991 -2249.884 -3944.980 -1.556 0.873 -0.507 -0.1 0.39 -0.91 0.11
1 6.76 676 1.556 -7.010 7.422 52.094 92.224 -20.874 -1439.962 -2114.972 -4004.941 -0.684 -0.070 -0.703 -0.09 0.39 -0.91 0.11
1 6.77 677 0.426 -6.307 7.652 36.224 121.643 -21.668 -1439.962 -2114.972 -4004.941 0.372 -0.718 -0.865 -0.09 0.38 -0.91 0.1
1 6.78 678 -0.685 -5.818 7.781 18.921 135.804 -14.893 -1229.949 -2339.976 -4109.873 1.372 -1.165 -0.940 -0.08 0.38 -0.92 0.1
1 6.79 679 -1.801 -5.521 7.719 2.258 132.660 -4.181 -1199.968 -2249.884 -4199.964 2.350 -1.436 -0.840 -0.07 0.38 -0.92 0.09
1 6.80 680 -3.309 -4.961 7.499 -36.286 103.333 20.630 -1199.968 -2249.884 -4199.964 3.708 -1.990 -0.602 -0.06 0.38 -0.92 0.09
1 6.81 681 -3.884 -4.880 7.269 -75.226 69.733 41.107 -974.965 -2414.927 -4259.925 4.127 -2.092 -0.385 -0.05 0.38 -0.92 0.09
1 6.82 682 -4.209 -5.248 6.589 -106.751 28.778 56.336 -974.965 -2414.927 -4259.925 4.305 -1.782 0.238 -0.04 0.39 -0.92 0.09
1 6.83 683 -3.127 -5.967 5.488 -104.676 -44.495 66.406 -914.854 -2444.907 -4094.882 2.999 -1.268 1.122 -0.04 0.4 -0.91 0.1
1 6.84 684 -1.312 -6.967 5.167 -63.812 -80.750 64.820 -914.854 -2444.907 -4094.882 1.165 -0.362 1.337 -0.04 0.41 -0.91 0.1
1 6.85 685 0.383 -8.308 5.263 -3.693 -95.246 58.136 -839.903 -2279.865 -4169.983 -0.516 0.932 1.189 -0.04 0.41 -0.9 0.11
1 6.86 686 0.675 -8.907 6.010 45.105 -112.763 47.638 -914.854 -2279.865 -4139.853 -0.776 1.538 0.450 -0.05 0.41 -0.9 0.12
1 6.87 687 3.812 -9.180 7.465 69.092 -108.826 42.694 -914.854 -2279.865 -4139.853 -3.842 1.858 -0.952 -0.05 0.41 -0.9 0.12
1 6.88 688 5.555 -8.131 9.036 42.297 -63.446 43.305 -1019.936 -2129.962 -4094.882 -5.517 0.881 -2.443 -0.06 0.4 -0.91 0.13
1 6.89 689 6.177 -7.106 10.027 9.033 -6.378 42.755 -1019.936 -2129.962 -4094.882 -6.111 -0.092 -3.377 -0.06 0.4 -0.91 0.13
1 6.90 690 5.358 -6.125 10.118 -37.354 62.500 25.330 -1154.998 -2339.976 -4229.944 -5.391 -1.069 -3.463 -0.06 0.4 -0.91 0.14
1 6.91 691 4.362 -6.172 9.127 -59.204 81.848 1.953 -1154.998 -2339.976 -4229.944 -4.487 -1.064 -2.520 -0.05 0.4 -0.9 0.14
1 6.92 692 3.189 -6.694 7.858 -58.594 79.468 -20.172 -1094.887 -2324.985 -4199.964 -3.392 -0.603 -1.320 -0.05 0.41 -0.9 0.13
1 6.93 693 2.073 -7.470 6.584 -29.114 65.399 -36.316 -944.984 -2099.982 -4139.853 -2.325 0.120 -0.107 -0.04 0.41 -0.9 0.13
1 6.94 694 1.312 -7.619 5.617 16.937 53.406 -42.694 -944.984 -2099.982 -4139.853 -1.563 0.251 0.840 -0.04 0.41 -0.9 0.12
1 6.95 695 0.201 -6.886 4.875 59.693 38.300 -47.028 -914.854 -2099.982 -4064.902 -0.440 -0.459 1.609 -0.04 0.41 -0.9 0.12
1 6.96 696 -0.599 -6.081 4.492 45.654 20.477 -44.312 -914.854 -2099.982 -4064.902 0.375 -1.210 2.052 -0.04 0.41 -0.91 0.11
1 6.97 697 -1.207 -6.053 4.860 -14.008 -11.047 -26.795 -839.903 -2174.933 -4169.983 1.047 -1.171 1.761 -0.04 0.4 -0.91 0.11
1 6.98 698 -0.972 -6.967 5.243 -39.276 -22.644 -15.289 -839.903 -2174.933 -4169.983 0.854 -0.278 1.354 -0.04 0.4 -0.91 0.1
1 6.99 699 -0.709 -7.963 5.890 -33.966 -24.384 -8.881 -839.903 -2099.982 -4199.964 0.630 0.678 0.665 -0.04 0.4 -0.91 0.1
1 7.00 700 -0.311 -8.720 6.441 -9.155 -16.113 -5.615 -824.913 -2189.923 -4259.925 0.259 1.403 0.079 -0.04 0.41 -0.91 0.1
1 7.01 701 -0.081 -8.758 6.829 17.639 -4.334 -0.916 -824.913 -2189.923 -4259.925 0.045 1.438 -0.313 -0.04 0.41 -0.91 0.1
1 7.02 702 0.311 -8.543 7.336 39.490 5.524 11.322 -989.955 -2054.861 -4244.935 -0.346 1.247 -0.794 -0.04 0.41 -0.91 0.1
1 7.03 703 0.694 -8.270 7.422 38.818 -1.709 19.928 -989.955 -2054.861 -4244.935 -0.745 1.013 -0.837 -0.04 0.4 -0.91 0.1
1 7.04 704 1.887 -7.992 7.293 19.989 -23.682 30.457 -914.854 -2204.914 -4169.983 -1.973 0.810 -0.626 -0.04 0.4 -0.91 0.11
1 7.05 705 2.246 -7.858 7.044 11.902 -29.419 32.837 -914.854 -2204.914 -4169.983 -2.340 0.694 -0.358 -0.04 0.4 -0.91 0.11
1 7.06 706 3.285 -7.896 6.354 1.282 -28.442 32.044 -839.903 -2174.933 -4244.935 -3.374 0.737 0.337 -0.04 0.4 -0.91 0.11
1 7.07 707 3.520 -7.738 5.646 7.721 -16.388 22.888 -989.955 -2204.914 -4274.915 -3.591 0.579 1.046 -0.05 0.4 -0.91 0.11
1 7.08 708 3.654 -7.489 5.267 19.928 0.824 10.284 -989.955 -2204.914 -4274.915 -3.708 0.337 1.432 -0.05 0.39 -0.91 0.11
1 7.09 709 3.204 -7.006 4.731 34.332 24.536 -4.395 -914.854 -2129.962 -4169.983 -3.244 -0.129 1.988 -0.05 0.39 -0.91 0.11
1 7.10 710 2.739 -6.560 4.453 37.720 36.408 -11.444 -914.854 -2129.962 -4169.983 -2.772 -0.546 2.295 -0.05 0.39 -0.91 0.11
1 7.11 711 2.260 -6.359 4.161 38.513 42.542 -16.785 -944.984 -2174.933 -4169.983 -2.305 -0.711 2.625 -0.04 0.39 -0.91 0.11
1 7.12 712 1.432 -6.058 4.022 33.356 41.870 -22.247 -794.932 -2249.884 -4274.915 -1.528 -0.931 2.847 -0.04 0.38 -0.92 0.11
1 7.13 713 1.216 -6.067 4.123 23.621 38.147 -24.109 -869.883 -2279.865 -4319.886 -1.331 -0.888 2.780 -0.04 0.38 -0.92 0.1
1 7.14 714 1.087 -6.053 4.343 10.529 36.255 -25.513 -779.942 -2384.946 -4229.944 -1.215 -0.880 2.582 -0.03 0.38 -0.92 0.1
1 7.15 715 0.872 -6.359 4.860 -4.059 39.520 -25.818 -779.942 -2384.946 -4229.944 -1.012 -0.566 2.073 -0.03 0.38 -0.92 0.1
1 7.16 716 0.508 -6.824 5.392 -22.186 50.446 -24.078 -914.854 -2444.907 -4319.886 -0.665 -0.108 1.533 -0.03 0.38 -0.92 0.09
1 7.17 717 0.034 -7.346 5.866 -28.748 56.030 -22.186 -914.854 -2444.907 -4319.886 -0.217 0.393 1.039 -0.03 0.38 -0.92 0.09
1 7.18 718 -0.402 -7.805 6.321 -29.450 59.967 -18.799 -764.952 -2519.858 -4199.964 0.187 0.822 0.551 -0.02 0.39 -0.92 0.09
1 7.19 719 -0.182 -7.216 8.720 -11.108 74.555 -12.451 -839.903 -2354.966 -4349.866 -0.125 0.170 -1.916 -0.02 0.39 -0.92 0.08
1 7.20 720 -0.579 -6.330 9.841 1.709 85.236 -9.705 -569.929 -2309.995 -4154.993 0.204 -0.723 -3.047 -0.01 0.39 -0.92 0.08
1 7.21 721 -2.045 -6.163 10.042 -6.958 85.877 -12.482 -674.860 -2264.875 -4289.905 1.591 -0.889 -3.251 -0.01 0.39 -0.92 0.07
1 7.22 722 -4.176 -6.987 9.443 -43.793 72.876 -23.529 -674.860 -2264.875 -4289.905 3.650 -0.080 -2.674 -0 0.39 -0.92 0.07
1 7.23 723 -5.272 -8.854 8.557 -85.846 48.340 -35.614 -569.929 -2264.875 -4289.905 4.707 1.729 -1.853 0 0.4 -0.92 0.07
1 7.24 724 -4.358 -10.961 7.882 -85.999 -4.272 -27.222 -569.929 -2264.875 -4289.905 3.790 3.740 -1.281 0 0.4 -0.91 0.06
1 7.25 725 -4.061 -10.453 7.528 -37.354 -38.818 -29.480 -374.906 -2144.953 -4289.905 3.521 3.139 -1.028 0 0.41 -0.91 0.06
1 7.26 726 -3.146 -8.615 5.923 52.551 -76.630 -31.799 -464.997 -2174.933 -4274.915 2.766 1.258 0.540 -0 0.41 -0.91 0.06
1 7.27 727 -2.524 -7.839 5.780 64.331 -82.825 -27.466 -299.955 -2264.875 -4409.977 2.256 0.540 0.754 -0.01 0.41 -0.91 0.06
1 7.28 728 -0.488 -7.264 6.498 24.201 -85.266 -10.651 -659.870 -2099.982 -4199.964 0.313 0.016 0.095 -0.02 0.4 -0.91 0.06
1 7.29 729 0.757 -8.203 7.097 -10.498 -89.234 -0.641 -659.870 -2099.982 -4199.964 -0.841 0.969 -0.486 -0.02 0.4 -0.91 0.06
1 7.30 730 2.064 -8.950 7.896 -10.620 -98.877 4.456 -584.919 -2279.865 -4199.964 -2.056 1.704 -1.298 -0.03 0.4 -0.91 0.06
1 7.31 731 4.046 -9.156 9.290 19.470 -110.810 6.439 -584.919 -2279.865 -4199.964 -3.941 1.905 -2.698 -0.04 0.4 -0.91 0.07
1 7.32 732 5.105 -8.500 9.687 14.740 -108.796 7.446 -749.961 -2219.904 -4109.873 -4.895 1.265 -3.080 -0.04 0.4 -0.91 0.07
1 7.33 733 6.077 -7.432 9.797 -17.731 -101.746 7.233 -779.942 -2069.852 -4184.974 -5.763 0.216 -3.173 -0.05 0.4 -0.91 0.08
1 7.34 734 7.408 -5.852 9.290 -74.799 -72.235 -1.709 -974.965 -2219.904 -4289.905 -6.911 -1.420 -2.738 -0.06 0.4 -0.91 0.08
1 7.35 735 7.820 -5.411 8.600 -92.926 -32.074 -14.526 -1094.887 -2249.884 -4394.987 -7.253 -1.939 -2.143 -0.07 0.41 -0.91 0.08
1 7.36 736 7.236 -5.387 7.595 -79.743 25.635 -26.795 -1094.887 -2249.884 -4394.987 -6.630 -2.051 -1.243 -0.07 0.41 -0.9 0.08
1 7.37 737 5.358 -5.636 6.613 -34.699 93.720 -36.804 -1064.906 -2129.962 -4139.853 -4.760 -1.866 -0.336 -0.07 0.42 -0.9 0.08
1 7.38 738 2.605 -5.785 5.306 19.714 153.473 -46.265 -1064.906 -2129.962 -4139.853 -2.049 -1.729 0.962 -0.06 0.42 -0.9 0.07
1 7.39 739 -1.757 -5.890 4.224 64.392 197.114 -61.402 -1109.877 -2069.852 -4184.974 2.225 -1.586 2.096 -0.06 0.42 -0.9 0.06
1 7.40 740 -4.133 -6.153 4.813 55.237 184.479 -68.726 -869.883 -2054.861 -4319.886 4.478 -1.258 1.590 -0.04 0.41 -0.91 0.05
1 7.41 741 -7.188 -6.967 6.800 2.899 91.950 -73.853 -854.893 -1994.900 -4229.944 7.316 -0.349 -0.281 -0.02 0.41 -0.91 0.03
1 7.42 742 -7.767 -7.762 8.035 -28.473 -13.397 -70.160 -690.000 -2204.914 -4244.935 7.914 0.441 -1.522 -0.02 0.41 -0.91 0.03
1 7.43 743 -7.346 -8.404 8.916 -30.212 -84.229 -52.796 -690.000 -2204.914 -4244.935 7.601 1.056 -2.438 -0.03 0.41 -0.91 0.02
1 7.44 744 -6.910 -8.136 8.979 -14.069 -117.463 -28.168 -599.909 -2144.953 -4184.974 7.313 0.764 -2.534 -0.03 0.41 -0.91 0.02
1 7.45 745 -6.182 -7.312 8.528 4.700 -117.524 -4.700 -599.909 -2144.953 -4184.974 6.727 -0.066 -2.101 -0.04 0.41 -0.91 0.03
1 7.46 746 -4.482 -6.546 6.919 27.863 -104.279 17.181 -629.890 -2069.852 -4259.925 5.141 -0.823 -0.492 -0.05 0.41 -0.91 0.03
1 7.47 747 -2.557 -6.613 5.315 44.037 -107.361 26.306 -839.903 -2129.962 -4169.983 3.304 -0.732 1.129 -0.06 0.41 -0.91 0.04
1 7.48 748 1.508 -7.078 3.711 73.395 -111.023 44.403 -989.955 -2204.914 -4349.866 -0.657 -0.175 2.824 -0.07 0.4 -0.91 0.05
1 7.49 749 2.447 -6.714 3.788 82.672 -104.218 50.690 -944.984 -2249.884 -4319.886 -1.540 -0.466 2.821 -0.07 0.4 -0.91 0.05
1 7.50 750 3.711 -5.062 4.975 47.882 -106.781 54.993 -944.984 -2249.884 -4319.886 -2.733 -2.055 1.691 -0.08 0.39 -0.91 0.06
1 7.51 751 4.602 -4.841 5.507 0.977 -43.274 58.899 -1034.926 -2189.923 -4364.856 -3.590 -2.246 1.186 -0.09 0.39 -0.91 0.07
1 7.52 752 4.099 -5.612 6.086 -37.750 16.296 58.747 -1034.926 -2189.923 -4364.856 -3.124 -1.493 0.593 -0.09 0.39 -0.91 0.07
1 7.53 753 2.763 -6.747 6.244 -57.739 52.857 46.967 -1184.978 -2309.995 -4184.974 -1.851 -0.404 0.394 -0.08 0.39 -0.91 0.08
1 7.54 754 2.097 -7.441 6.580 -40.344 46.509 32.776 -1064.906 -2129.962 -4274.915 -1.272 0.230 0.005 -0.08 0.4 -0.91 0.08
1 7.55 755 1.532 -7.892 6.881 -7.294 34.577 19.440 -1064.906 -2129.962 -4274.915 -0.783 0.632 -0.341 -0.08 0.4 -0.91 0.08
1 7.56 756 0.857 -7.892 6.987 37.537 25.513 -1.495 -1319.890 -2249.884 -4394.987 -0.195 0.632 -0.437 -0.07 0.4 -0.91 0.08
1 7.57 757 0.412 -7.954 6.958 44.647 26.245 -13.977 -1319.890 -2249.884 -4394.987 0.232 0.735 -0.361 -0.07 0.4 -0.91 0.08
1 7.58 758 -0.105 -7.997 7.317 34.332 29.999 -22.278 -1034.926 -2114.972 -4259.925 0.739 0.824 -0.670 -0.07 0.4 -0.91 0.08
1 7.59 759 -0.804 -7.997 7.274 19.775 33.295 -23.865 -1034.926 -2114.972 -4259.925 1.430 0.858 -0.589 -0.07 0.39 -0.91 0.07
1 7.60 760 -1.863 -7.829 6.929 9.125 22.339 -17.609 -1079.896 -2069.852 -4364.856 2.476 0.711 -0.221 -0.06 0.39 -0.91 0.07
1 7.61 761 -2.174 -7.566 6.465 9.705 1.923 -10.773 -1019.936 -2279.865 -4349.866 2.773 0.460 0.257 -0.06 0.39 -0.92 0.07
1 7.62 762 -2.322 -7.293 5.991 10.803 -19.470 -4.181 -1019.936 -2279.865 -4349.866 2.909 0.196 0.742 -0.06 0.39 -0.92 0.07
1 7.63 763 -1.839 -6.852 5.521 16.510 -39.093 1.892 -989.955 -2174.933 -4454.948 2.437 -0.226 1.230 -0.06 0.39 -0.92 0.07
1 7.64 764 -1.590 -6.623 5.382 22.949 -41.046 3.052 -989.955 -2174.933 -4454.948 2.208 -0.440 1.383 -0.07 0.39 -0.92 0.07
1 7.65 765 -1.274 -6.474 5.531 31.311 -39.063 1.617 -899.864 -2264.875 -4439.958 1.922 -0.564 1.258 -0.07 0.39 -0.92 0.07
1 7.66 766 -0.991 -6.493 5.349 36.072 -37.659 0.549 -899.864 -2264.875 -4439.958 1.679 -0.509 1.472 -0.07 0.38 -0.92 0.08
1 7.67 767 -0.546 -6.383 5.545 35.126 -38.422 -0.916 -1184.978 -2414.927 -4364.856 1.273 -0.580 1.312 -0.07 0.38 -0.92 0.08
1 7.68 768 -0.029 -6.115 5.832 23.224 -40.070 -0.641 -1109.877 -2414.927 -4334.876 0.798 -0.811 1.058 -0.07 0.38 -0.92 0.08
1 7.69 769 0.287 -6.407 5.832 10.803 -38.330 -0.244 -1109.877 -2414.927 -4334.876 0.526 -0.491 1.081 -0.08 0.38 -0.92 0.08
1 7.70 770 0.330 -6.661 5.842 -5.798 -35.645 -0.275 -1184.978 -2339.976 -4334.876 0.565 -0.218 1.080 -0.08 0.37 -0.92 0.08
1 7.71 771 0.527 -6.972 6.000 -8.453 -34.485 -0.153 -1184.978 -2339.976 -4334.876 0.404 0.085 0.910 -0.09 0.37 -0.92 0.08
1 7.72 772 0.330 -7.370 6.374 -1.404 -32.593 -1.923 -1199.968 -2519.858 -4424.967 0.634 0.473 0.522 -0.09 0.37 -0.92 0.08
1 7.73 773 0.445 -7.523 6.603 8.667 -35.339 -3.174 -1199.968 -2519.858 -4424.967 0.552 0.625 0.285 -0.09 0.37 -0.92 0.08
1 7.74 774 0.603 -7.518 6.795 16.876 -39.032 -3.448 -1409.981 -2459.897 -4484.928 0.432 0.629 0.098 -0.09 0.37 -0.92 0.08
1 7.75 775 1.097 -7.461 6.996 19.165 -39.703 -1.221 -1259.929 -2339.976 -4484.928 -0.021 0.589 -0.092 -0.09 0.37 -0.92 0.09
1 7.76 776 1.379 -7.528 6.881 14.496 -37.171 0.793 -1259.929 -2339.976 -4484.928 -0.262 0.676 0.036 -0.1 0.37 -0.92 0.09
1 7.77 777 1.480 -7.547 6.714 8.057 -31.891 0.549 -1409.981 -2384.946 -4514.909 -0.323 0.711 0.213 -0.1 0.37 -0.92 0.09
1 7.78 778 1.202 -7.777 6.326 5.371 -27.069 -0.397 -1304.900 -2459.897 -4409.977 0.022 0.952 0.600 -0.1 0.37 -0.92 0.09
1 7.79 779 1.030 -7.781 6.158 8.698 -29.755 -2.869 -1334.880 -2384.946 -4439.958 0.224 0.959 0.765 -0.11 0.37 -0.92 0.09
1 7.80 780 1.058 -7.882 5.828 10.559 -36.072 -3.387 -1334.880 -2384.946 -4439.958 0.230 1.065 1.094 -0.11 0.37 -0.92 0.09
1 7.81 781 1.279 -7.614 5.823 12.054 -40.375 -3.204 -1274.919 -2474.888 -4454.948 0.051 0.802 1.096 -0.11 0.37 -0.92 0.09
1 7.82 782 2.188 -6.637 7.418 23.926 -29.114 -6.470 -1409.981 -2414.927 -4364.856 -0.815 -0.165 -0.498 -0.11 0.37 -0.92 0.09
1 7.83 783 2.404 -5.368 7.820 42.755 -37.109 -1.526 -1409.981 -2414.927 -4364.856 -0.992 -1.400 -0.874 -0.11 0.36 -0.92 0.09
1 7.84 784 4.674 -5.397 9.304 15.961 -40.527 6.409 -1409.981 -2534.999 -4409.977 -3.216 -1.319 -2.318 -0.12 0.36 -0.92 0.09
1 7.85 785 6.421 -7.628 10.056 -28.381 -1.007 16.937 -1484.933 -2414.927 -4484.928 -4.899 0.934 -3.062 -0.12 0.36 -0.92 0.1
1 7.86 786 5.785 -8.241 10.770 -27.588 35.492 31.311 -1424.972 -2594.959 -4319.886 -4.294 1.514 -3.801 -0.12 0.36 -0.92 0.1
1 7.87 787 4.827 -9.697 9.903 -29.755 48.737 38.086 -1424.972 -2594.959 -4319.886 -3.414 2.933 -2.954 -0.12 0.36 -0.92 0.1
1 7.88 788 3.855 -10.027 8.888 -22.278 35.278 40.741 -1739.917 -2534.999 -4484.928 -2.532 3.226 -1.957 -0.11 0.37 -0.92 0.1
1 7.89 789 3.773 -9.457 8.351 -9.003 37.323 35.339 -1664.965 -2564.979 -4589.860 -2.529 2.629 -1.433 -0.11 0.37 -0.92 0.1
1 7.90 790 1.748 -8.121 7.370 2.380 76.752 24.597 -1664.965 -2564.979 -4589.860 -0.584 1.282 -0.448 -0.11 0.37 -0.92 0.1
1 7.91 791 0.196 -7.705 6.929 -4.425 99.701 17.365 -1559.884 -2414.927 -4439.958 0.865 0.864 0.008 -0.1 0.37 -0.92 0.1
1 7.92 792 -1.384 -7.461 6.948 -14.587 109.101 5.737 -1544.894 -2324.985 -4244.935 2.190 0.599 0.002 -0.08 0.37 -0.92 0.1
1 7.93 793 -1.714 -7.418 6.996 -15.411 109.131 2.991 -1199.968 -2474.888 -4499.918 2.385 0.538 -0.049 -0.08 0.37 -0.92 0.1
1 7.94 794 -2.557 -7.097 7.341 -9.125 106.812 -3.510 -1199.968 -2474.888 -4499.918 3.095 0.203 -0.396 -0.07 0.38 -0.92 0.09
1 7.95 795 -3.074 -6.565 7.781 -8.850 102.600 -4.944 -1259.929 -2414.927 -4664.961 3.482 -0.337 -0.836 -0.06 0.38 -0.92 0.09
1 7.96 796 -3.500 -6.125 8.112 -16.602 89.783 -3.296 -1139.857 -2519.858 -4454.948 3.782 -0.784 -1.167 -0.05 0.38 -0.92 0.09
1 7.97 797 -3.591 -5.521 8.543 -40.253 58.716 11.536 -1139.857 -2519.858 -4454.948 3.755 -1.401 -1.608 -0.04 0.38 -0.92 0.08
1 7.98 798 -3.836 -5.176 8.485 -54.627 35.492 26.306 -974.965 -2414.927 -4484.928 3.895 -1.774 -1.577 -0.04 0.38 -0.92 0.08
1 7.99 799 -3.472 -4.841 8.006 -59.387 10.132 39.398 -989.955 -2279.865 -4529.899 3.435 -2.150 -1.140 -0.03 0.39 -0.92 0.08
1 8.00 800 -2.413 -4.631 6.580 -40.894 -36.621 51.270 -1004.945 -2264.875 -4439.958 2.229 -2.451 0.193 -0.03 0.39 -0.91 0.09
1 8.01 801 -0.618 -4.501 5.670 -8.240 -72.388 52.246 -1004.945 -2264.875 -4439.958 0.414 -2.607 1.074 -0.03 0.39 -0.91 0.1
1 8.02 802 1.413 -4.975 4.458 31.830 -101.563 52.796 -779.942 -2039.871 -4544.889 -1.590 -2.128 2.290 -0.03 0.39 -0.91 0.1
1 8.03 803 2.078 -5.200 4.358 48.493 -121.430 45.410 -824.913 -2459.897 -4544.889 -2.203 -1.859 2.438 -0.04 0.39 -0.91 0.11
1 8.04 804 5.828 -6.426 5.105 29.785 -126.557 60.761 -824.913 -2459.897 -4544.889 -5.865 -0.583 1.745 -0.05 0.39 -0.91 0.12
1 8.05 805 7.532 -6.747 7.145 -14.343 -59.723 67.780 -914.854 -2279.865 -4574.870 -7.472 -0.227 -0.260 -0.05 0.38 -0.91 0.12
1 8.06 806 8.074 -7.010 8.696 -45.014 24.231 73.700 -1109.877 -2219.904 -4544.889 -7.979 0.031 -1.817 -0.06 0.38 -0.91 0.13
1 8.07 807 7.082 -7.422 10.362 -42.145 124.390 57.190 -1274.919 -2324.985 -4499.918 -7.228 0.355 -3.575 -0.05 0.39 -0.91 0.13
1 8.08 808 5.698 -7.681 10.520 -26.795 154.145 28.442 -1274.919 -2324.985 -4499.918 -6.038 0.576 -3.780 -0.04 0.39 -0.91 0.13
1 8.09 809 3.840 -7.939 10.027 -1.434 156.525 -0.183 -1079.896 -2339.976 -4484.928 -4.364 0.815 -3.319 -0.03 0.4 -0.91 0.13
1 8.10 810 1.666 -7.944 8.816 29.053 146.607 -21.423 -1094.887 -2354.966 -4529.899 -2.343 0.826 -2.114 -0.02 0.4 -0.91 0.13
1 8.11 811 -1.274 -7.690 7.451 53.559 140.473 -33.875 -1094.887 -2354.966 -4529.899 0.476 0.608 -0.725 -0.01 0.4 -0.91 0.12
1 8.12 812 -3.783 -6.627 4.918 53.345 106.202 -32.471 -839.903 -2174.933 -4394.987 2.879 -0.401 1.852 0 0.39 -0.91 0.11
1 8.13 813 -3.558 -5.425 4.401 33.447 41.626 -23.560 -734.971 -2249.884 -4499.918 2.554 -1.551 2.408 0.01 0.39 -0.91 0.11
1 8.14 814 -2.600 -4.707 4.305 -26.398 -36.987 -16.235 -569.929 -2339.976 -4484.928 1.577 -2.229 2.542 0.01 0.39 -0.92 0.1
1 8.15 815 -2.203 -5.081 4.156 -46.356 -52.490 -13.001 -569.929 -2339.976 -4484.928 1.242 -1.895 2.660 0.01 0.39 -0.92 0.1
1 8.16 816 -1.245 -6.824 4.310 -70.343 -70.435 -9.430 -674.860 -2459.897 -4664.961 0.364 -0.222 2.445 0.01 0.39 -0.91 0.1
1 8.17 817 -0.493 -8.121 5.014 -40.253 -63.996 -11.353 -584.919 -2279.865 -4605.000 -0.306 1.008 1.680 -0 0.4 -0.91 0.1
1 8.18 818 0.168 -8.955 5.823 14.954 -48.798 -13.611 -584.919 -2279.865 -4605.000 -0.891 1.804 0.839 -0.01 0.4 -0.91 0.1
1 8.19 819 0.584 -8.844 6.675 86.090 -25.513 -14.496 -614.899 -2324.985 -4649.971 -1.242 1.714 0.015 -0.01 0.4 -0.91 0.1
1 8.20 820 0.694 -8.117 7.063 93.018 -20.203 -11.414 -690.000 -2279.865 -4499.918 -1.306 1.066 -0.285 -0.01 0.39 -0.91 0.1
1 8.21 821 1.053 -7.441 7.571 63.660 -23.621 -4.120 -690.000 -2279.865 -4499.918 -1.630 0.488 -0.689 -0.01 0.39 -0.92 0.1
1 8.22 822 2.102 -6.924 7.863 -15.381 -27.832 10.071 -749.961 -2384.946 -4619.990 -2.598 0.074 -0.872 -0.01 0.38 -0.92 0.1
1 8.23 823 2.509 -7.226 7.441 -50.903 -21.698 16.144 -690.000 -2669.911 -4754.902 -2.971 0.353 -0.471 -0.02 0.38 -0.92 0.1
1 8.24 824 2.667 -7.987 6.417 -56.000 -14.526 15.839 -989.955 -2324.985 -4649.971 -3.103 1.059 0.501 -0.02 0.38 -0.92 0.1
1 8.25 825 3.007 -8.404 5.598 -34.638 -6.744 9.583 -989.955 -2324.985 -4649.971 -3.422 1.419 1.263 -0.02 0.39 -0.92 0.11
1 8.26 826 3.271 -8.619 5.119 1.587 1.892 0.031 -674.860 -2414.927 -4799.873 -3.663 1.599 1.708 -0.02 0.39 -0.92 0.11
1 8.27 827 3.443 -8.165 5.253 53.497 25.147 -15.137 -899.864 -2414.927 -4589.860 -3.811 1.145 1.575 -0.02 0.39 -0.92 0.1
1 8.28 828 3.093 -7.255 5.435 68.054 46.112 -19.531 -899.864 -2414.927 -4589.860 -3.441 0.271 1.431 -0.02 0.39 -0.92 0.1
1 8.29 829 1.676 -6.091 5.176 52.826 67.749 -17.670 -779.942 -2339.976 -4544.889 -2.036 -0.772 1.810 -0.02 0.38 -0.92 0.09
1 8.30 830 0.733 -5.497 5.004 29.175 67.536 -15.472 -824.913 -2384.946 -4664.961 -1.148 -1.315 2.029 -0.01 0.38 -0.92 0.09
1 8.31 831 -0.038 -5.263 4.779 5.280 55.847 -12.787 -704.991 -2414.927 -4664.961 -0.432 -1.525 2.274 -0.01 0.37 -0.92 0.09
1 8.32 832 -0.182 -5.397 4.741 -16.022 39.887 -11.444 -704.991 -2414.927 -4664.961 -0.332 -1.391 2.309 -0.01 0.37 -0.92 0.09
1 8.33 833 -0.024 -5.943 4.789 -30.731 27.618 -11.688 -674.860 -2384.946 -4619.990 -0.517 -0.867 2.239 -0 0.38 -0.92 0.08
1 8.34 834 0.306 -6.809 5.014 -38.513 26.886 -13.336 -599.909 -2534.999 -4619.990 -0.864 -0.035 1.978 -0 0.38 -0.92 0.08
1 8.35 835 0.316 -7.398 5.267 -34.271 34.577 -14.099 -599.909 -2534.999 -4619.990 -0.887 0.513 1.683 -0 0.38 -0.92 0.08
1 8.36 836 -0.158 -8.011 5.425 -17.365 44.800 -16.541 -674.860 -2459.897 -4664.961 -0.453 1.051 1.446 0 0.39 -0.92 0.08
1 8.37 837 -0.345 -7.949 5.789 -11.078 46.234 -16.480 -629.890 -2489.878 -4664.961 -0.293 0.964 1.055 0 0.39 -0.92 0.07
1 8.38 838 -0.326 -7.480 6.977 8.362 52.796 -15.869 -464.997 -2399.937 -4709.932 -0.343 0.486 -0.145 0.01 0.39 -0.92 0.07
1 8.39 839 -0.369 -6.517 8.165 17.242 57.190 -15.320 -464.997 -2399.937 -4709.932 -0.338 -0.469 -1.328 0.01 0.39 -0.92 0.07
1 8.40 840 -1.403 -4.736 9.290 15.778 58.655 -20.447 -464.997 -2324.985 -4574.870 0.655 -2.227 -2.434 0.01 0.39 -0.92 0.06
1 8.41 841 -2.797 -4.334 9.333 -15.686 48.218 -29.602 -449.857 -2309.995 -4619.990 2.008 -2.599 -2.451 0.02 0.39 -0.92 0.06
1 8.42 842 -3.975 -5.938 9.199 -73.731 33.844 -38.880 -449.857 -2309.995 -4619.990 3.154 -0.984 -2.311 0.02 0.38 -0.92 0.06
1 8.43 843 -4.583 -8.131 9.520 -132.172 21.881 -42.664 -389.896 -2444.907 -4754.902 3.754 1.154 -2.688 0.02 0.39 -0.92 0.05
1 8.44 844 -5.291 -10.602 9.127 -137.665 -13.794 -46.021 -209.863 -2519.858 -4709.932 4.522 3.340 -2.592 0.02 0.41 -0.91 0.05
1 8.45 845 -4.856 -11.086 7.441 -66.040 -55.603 -48.004 -389.896 -2249.884 -4649.971 4.163 3.697 -1.041 0.02 0.42 -0.91 0.05
1 8.46 846 -3.793 -10.827 6.479 21.027 -91.706 -42.206 -389.896 -2249.884 -4649.971 3.218 3.393 -0.119 0.01 0.42 -0.91 0.04
1 8.47 847 -2.097 -10.013 6.589 61.035 -102.936 -28.076 -179.883 -2174.933 -4649.971 1.662 2.611 -0.181 0 0.42 -0.91 0.04
1 8.48 848 0.168 -9.587 7.762 34.088 -92.804 -1.038 -449.857 -2144.953 -4769.893 -0.475 2.244 -1.279 -0 0.41 -0.91 0.05
1 8.49 849 1.719 -9.486 8.811 21.942 -96.100 13.733 -449.857 -2144.953 -4769.893 -1.926 2.185 -2.277 -0.01 0.41 -0.91 0.05
1 8.50 850 3.563 -9.242 9.659 29.938 -110.260 19.867 -389.896 -2009.891 -4679.951 -3.686 1.966 -3.095 -0.02 0.41 -0.91 0.05
1 8.51 851 6.263 -7.920 10.549 22.095 -127.472 17.731 -779.942 -2144.953 -4619.990 -6.199 0.708 -3.915 -0.03 0.4 -0.91 0.06
1 8.52 852 7.604 -6.551 10.664 -17.456 -115.601 11.810 -674.860 -2264.875 -4739.912 -7.429 -0.647 -4.016 -0.04 0.4 -0.91 0.07
1 8.53 853 8.155 -5.421 10.042 -65.582 -81.177 -1.221 -674.860 -2264.875 -4739.912 -7.880 -1.807 -3.429 -0.05 0.4 -0.91 0.07
1 8.54 854 7.714 -4.846 8.696 -103.760 -33.264 -19.013 -779.942 -2309.995 -4799.873 -7.362 -2.457 -2.171 -0.05 0.41 -0.91 0.07
1 8.55 855 6.378 -4.894 7.236 -110.779 23.346 -34.119 -929.994 -2189.923 -4619.990 -5.979 -2.514 -0.832 -0.05 0.41 -0.91 0.07
1 8.56 856 3.673 -5.071 5.124 -43.121 102.722 -47.669 -929.994 -2189.923 -4619.990 -3.268 -2.435 1.164 -0.05 0.42 -0.9 0.07
1 8.57 857 1.796 -5.081 4.401 22.705 143.616 -57.099 -989.955 -2099.982 -4679.951 -1.388 -2.470 1.833 -0.05 0.42 -0.9 0.06
1 8.58 858 -1.513 -5.454 3.821 73.670 190.064 -74.341 -1079.896 -2039.871 -4484.928 1.769 -2.026 2.505 -0.03 0.42 -0.91 0.04
1 8.59 859 -3.874 -6.536 4.123 60.364 194.550 -77.790 -974.965 -2039.871 -4544.889 4.027 -0.869 2.294 -0.02 0.41 -0.91 0.03
1 8.60 860 -6.158 -7.710 5.358 18.890 156.922 -80.902 -974.965 -2039.871 -4544.889 6.215 0.357 1.121 -0.01 0.41 -0.91 0.02
1 8.61 861 -8.069 -8.342 7.537 -30.914 68.115 -86.273 -854.893 -2114.972 -4589.860 8.060 0.993 -1.054 -0 0.41 -0.91 0.01
1 8.62 862 -8.481 -9.170 9.615 -38.208 -33.417 -68.665 -524.958 -2144.953 -4664.961 8.525 1.788 -3.171 -0 0.41 -0.91 0.01
1 8.63 863 -8.174 -7.973 10.396 -19.501 -123.261 -18.402 -524.958 -2144.953 -4664.961 8.341 0.557 -3.992 -0.01 0.42 -0.91 0
1 8.64 864 -7.283 -6.670 9.309 -7.751 -137.696 12.848 -464.997 -2204.914 -4529.899 7.593 -0.766 -2.934 -0.02 0.42 -0.91 0.01
1 8.65 865 -5.746 -6.273 7.968 -1.129 -138.916 31.036 -464.997 -2204.914 -4529.899 6.182 -1.173 -1.611 -0.03 0.42 -0.91 0.01
1 8.66 866 -1.417 -7.599 4.745 27.069 -146.119 43.305 -779.942 -2039.871 -4619.990 2.033 0.157 1.600 -0.05 0.42 -0.91 0.02
1 8.67 867 2.174 -8.567 3.467 73.426 -127.198 54.779 -779.942 -2039.871 -4619.990 -1.492 1.152 2.905 -0.05 0.41 -0.91 0.03
1 8.68 868 3.716 -6.924 3.869 133.637 -72.937 68.726 -899.864 -2189.923 -4544.889 -2.982 -0.421 2.577 -0.06 0.41 -0.91 0.04
1 8.69 869 1.561 -3.951 5.325 118.012 -39.063 51.209 -1064.906 -2129.962 -4605.000 -0.837 -3.268 1.264 -0.06 0.4 -0.91 0.05
1 8.70 870 2.720 -3.505 6.211 56.275 -15.808 61.310 -1064.906 -2129.962 -4605.000 -2.017 -3.611 0.490 -0.06 0.39 -0.92 0.05
1 8.71 871 2.370 -4.913 7.106 -60.730 42.847 59.113 -1229.949 -2114.972 -4619.990 -1.731 -2.173 -0.367 -0.06 0.39 -0.92 0.06
1 8.72 872 1.384 -6.747 6.862 -88.501 51.758 51.178 -1229.949 -2114.972 -4619.990 -0.846 -0.389 -0.167 -0.06 0.39 -0.92 0.06
1 8.73 873 0.450 -8.289 6.388 -53.406 23.834 28.778 -1139.857 -2249.884 -4709.932 -0.090 0.992 0.144 -0.05 0.41 -0.91 0.07
1 8.74 874 0.306 -8.528 6.522 -7.751 2.106 12.573 -1139.857 -2249.884 -4709.932 0.010 1.187 -0.038 -0.05 0.41 -0.91 0.07
1 8.75 875 0.144 -8.437 7.140 31.036 -12.024 1.160 -839.903 -2249.884 -4679.951 0.163 1.095 -0.656 -0.05 0.41 -0.91 0.07
1 8.76 876 -0.014 -8.006 7.508 49.683 -19.531 -8.545 -1019.936 -2099.982 -4679.951 0.338 0.703 -0.982 -0.05 0.41 -0.91 0.07
1 8.77 877 0.072 -7.604 7.829 44.495 -20.447 -14.038 -1019.936 -2099.982 -4679.951 0.283 0.352 -1.247 -0.05 0.4 -0.91 0.07
1 8.78 878 -0.374 -7.647 7.590 18.677 -10.040 -13.184 -1109.877 -2114.972 -4619.990 0.764 0.439 -0.962 -0.05 0.4 -0.91 0.07
1 8.79 879 -0.996 -7.724 7.073 11.139 -6.561 -6.683 -1109.877 -2114.972 -4619.990 1.412 0.543 -0.417 -0.05 0.4 -0.91 0.07
1 8.80 880 -1.719 -7.623 5.861 24.201 -16.022 4.852 -1019.936 -2249.884 -4649.971 2.142 0.472 0.826 -0.05 0.39 -0.91 0.07
1 8.81 881 -1.839 -7.350 5.641 31.067 -21.698 8.209 -1019.936 -2249.884 -4649.971 2.258 0.223 1.072 -0.05 0.39 -0.92 0.07
1 8.82 882 -1.350 -6.503 5.464 44.739 -37.048 12.970 -1169.988 -2204.914 -4605.000 1.773 -0.589 1.287 -0.05 0.39 -0.92 0.07
1 8.83 883 -1.125 -5.919 5.560 45.075 -43.457 14.618 -989.955 -2174.933 -4679.951 1.574 -1.125 1.239 -0.06 0.39 -0.92 0.08
1 8.84 884 -0.623 -5.866 5.636 39.917 -45.868 15.717 -989.955 -2174.933 -4679.951 1.101 -1.132 1.208 -0.06 0.38 -0.92 0.08
1 8.85 885 0.115 -5.885 5.727 29.114 -44.068 15.320 -974.965 -2339.976 -4844.994 0.395 -1.073 1.155 -0.06 0.38 -0.92 0.08
1 8.86 886 0.474 -6.110 5.914 22.003 -39.429 12.604 -974.965 -2339.976 -4844.994 0.068 -0.815 0.999 -0.06 0.38 -0.92 0.08
1 8.87 887 0.479 -6.062 5.746 15.106 -34.332 9.522 -1169.988 -2279.865 -4784.883 0.092 -0.837 1.190 -0.07 0.38 -0.92 0.08
1 8.88 888 0.603 -6.374 5.904 2.197 -28.687 5.127 -1109.877 -2339.976 -4739.912 0.021 -0.498 1.055 -0.07 0.37 -0.92 0.09
1 8.89 889 0.393 -6.651 6.029 -2.625 -29.053 1.892 -1154.998 -2264.875 -4589.860 0.258 -0.219 0.930 -0.07 0.37 -0.92 0.09
1 8.90 890 0.311 -7.058 6.412 -1.923 -30.823 -0.824 -1274.919 -2444.907 -4754.902 0.368 0.184 0.539 -0.07 0.37 -0.92 0.09
1 8.91 891 0.340 -7.221 6.632 3.784 -32.593 -2.319 -1274.919 -2444.907 -4754.902 0.371 0.344 0.313 -0.08 0.37 -0.92 0.09
1 8.92 892 0.517 -7.384 6.766 13.123 -36.072 -3.815 -1199.968 -2519.858 -4754.902 0.229 0.511 0.180 -0.08 0.37 -0.92 0.09
1 8.93 893 0.374 -7.384 6.589 15.259 -36.987 -3.632 -1199.968 -2519.858 -4754.902 0.412 0.523 0.364 -0.08 0.37 -0.92 0.09
1 8.94 894 0.340 -7.599 6.316 13.062 -37.048 -2.441 -1394.991 -2399.937 -4784.883 0.486 0.753 0.647 -0.08 0.37 -0.92 0.09
1 8.95 895 0.474 -8.198 6.254 15.503 -36.072 -0.244 -1349.871 -2354.966 -4709.932 0.428 1.372 0.720 -0.09 0.37 -0.92 0.09
1 8.96 896 0.431 -8.026 6.541 23.102 -39.978 1.862 -1334.880 -2414.927 -4664.961 0.506 1.212 0.440 -0.09 0.37 -0.92 0.1
1 8.97 897 0.857 -7.623 6.536 29.480 -49.256 5.219 -1394.991 -2444.907 -4709.932 0.119 0.830 0.459 -0.09 0.37 -0.92 0.1
1 8.98 898 1.049 -7.350 6.445 29.602 -59.967 7.660 -1394.991 -2444.907 -4709.932 -0.025 0.584 0.569 -0.1 0.36 -0.92 0.1
1 8.99 899 1.480 -7.197 6.048 22.980 -64.728 10.132 -1514.913 -2459.897 -4664.961 -0.399 0.456 0.982 -0.1 0.36 -0.92 0.1
1 9.00 900 1.925 -6.987 5.483 13.825 -52.765 11.322 -1514.913 -2459.897 -4664.961 -0.783 0.262 1.554 -0.1 0.36 -0.92 0.1
1 9.01 901 2.231 -6.738 5.583 10.803 -36.377 10.407 -1499.923 -2354.966 -4679.951 -1.036 0.023 1.454 -0.11 0.36 -0.92 0.11
1 9.02 902 2.586 -5.943 6.536 17.822 -14.374 5.859 -1574.874 -2324.985 -4709.932 -1.350 -0.767 0.499 -0.11 0.36 -0.92 0.11
1 9.03 903 2.639 -4.420 7.145 32.471 -7.965 8.514 -1559.884 -2459.897 -4664.961 -1.371 -2.241 -0.068 -0.11 0.36 -0.92 0.11
1 9.04 904 4.042 -4.525 8.557 0.946 -20.081 16.480 -1604.854 -2204.914 -4605.000 -2.766 -2.103 -1.452 -0.11 0.35 -0.92 0.11
1 9.05 905 5.598 -5.593 9.137 -46.051 -12.024 27.741 -1604.854 -2204.914 -4605.000 -4.303 -1.035 -2.035 -0.11 0.35 -0.92 0.11
1 9.06 906 5.339 -7.451 9.165 -80.536 15.869 33.783 -1679.956 -2549.989 -4679.951 -4.068 0.758 -2.121 -0.11 0.36 -0.92 0.11
1 9.07 907 3.658 -10.583 8.883 -69.275 51.636 39.032 -1679.956 -2549.989 -4679.951 -2.450 3.795 -1.919 -0.11 0.36 -0.92 0.11
1 9.08 908 2.964 -11.277 8.404 -30.060 38.391 38.056 -1604.854 -2519.858 -4649.971 -1.848 4.403 -1.509 -0.11 0.37 -0.92 0.11
1 9.09 909 2.677 -10.621 8.236 11.322 21.729 28.320 -1634.985 -2414.927 -4664.961 -1.647 3.699 -1.376 -0.1 0.37 -0.91 0.11
1 9.10 910 1.939 -8.806 7.997 20.355 44.830 11.841 -1649.975 -2399.937 -4679.951 -1.018 1.906 -1.099 -0.1 0.37 -0.92 0.12
1 9.11 911 0.886 -8.433 7.820 -1.617 77.332 4.517 -1574.874 -2279.865 -4499.918 -0.031 1.548 -0.898 -0.09 0.37 -0.92 0.12
1 9.12 912 -0.670 -8.423 7.772 -16.235 102.631 -1.892 -1574.874 -2279.865 -4499.918 1.432 1.533 -0.845 -0.09 0.37 -0.92 0.11
1 9.13 913 -1.556 -8.428 7.815 -9.399 110.871 -7.385 -1409.981 -2189.923 -4799.873 2.209 1.522 -0.892 -0.08 0.37 -0.92 0.11
1 9.14 914 -2.389 -7.767 7.983 7.874 105.957 -12.604 -1409.981 -2189.923 -4799.873 2.933 0.858 -1.054 -0.07 0.38 -0.92 0.11
1 9.15 915 -2.835 -6.302 8.758 12.146 83.863 -10.529 -1349.871 -2279.865 -4679.951 3.283 -0.594 -1.809 -0.07 0.38 -0.92 0.1
1 9.16 916 -2.864 -5.406 9.098 -11.353 65.552 -0.397 -1274.919 -2324.985 -4784.883 3.230 -1.472 -2.127 -0.06 0.38 -0.92 0.1
1 9.17 917 -3.199 -4.654 8.591 -64.453 36.316 22.156 -1199.968 -2279.865 -4829.854 3.415 -2.260 -1.649 -0.05 0.38 -0.92 0.1
1 9.18 918 -3.524 -4.434 7.552 -87.647 9.491 35.126 -1229.949 -2264.875 -4739.912 3.657 -2.541 -0.669 -0.05 0.38 -0.92 0.1
1 9.19 919 -3.237 -4.717 6.867 -87.677 -23.529 45.136 -1229.949 -2264.875 -4739.912 3.300 -2.339 -0.066 -0.05 0.39 -0.91 0.1
1 9.20 920 -1.824 -4.880 5.823 -62.805 -58.747 51.605 -1139.857 -2174.933 -4829.854 1.844 -2.252 0.899 -0.05 0.39 -0.91 0.1
1 9.21 921 -0.139 -5.220 5.076 -16.205 -86.518 55.268 -1139.857 -2174.933 -4829.854 0.168 -1.965 1.589 -0.05 0.4 -0.91 0.11
1 9.22 922 2.715 -6.216 3.903 39.887 -134.522 53.101 -1154.998 -2069.852 -4619.990 -2.644 -0.976 2.754 -0.05 0.4 -0.91 0.12
1 9.23 923 4.669 -6.417 5.042 47.302 -121.704 55.939 -1094.887 -2204.914 -4784.883 -4.520 -0.744 1.647 -0.06 0.39 -0.91 0.12
1 9.24 924 7.427 -7.279 7.882 -15.595 -36.102 66.193 -1169.988 -2054.861 -4529.899 -7.144 0.184 -1.128 -0.07 0.39 -0.91 0.14
1 9.25 925 7.705 -7.293 8.715 -33.600 2.960 70.557 -1304.900 -2114.972 -4619.990 -7.479 0.171 -1.987 -0.07 0.39 -0.91 0.14
1 9.26 926 7.365 -7.729 10.702 -42.481 109.314 67.658 -1304.900 -2114.972 -4619.990 -7.279 0.560 -4.021 -0.07 0.39 -0.91 0.14
1 9.27 927 5.770 -7.322 10.875 -36.377 148.316 37.872 -1424.972 -2009.891 -4649.971 -5.877 0.112 -4.238 -0.06 0.4 -0.9 0.14
1 9.28 928 3.749 -7.418 9.644 -24.811 140.595 -0.122 -1424.972 -2009.891 -4649.971 -4.039 0.175 -3.049 -0.05 0.4 -0.9 0.14
1 9.29 929 1.097 -7.892 7.690 18.463 87.525 -42.816 -1169.988 -1934.939 -4754.902 -1.511 0.630 -1.123 -0.04 0.4 -0.9 0.14
1 9.30 930 -0.206 -7.494 6.498 54.840 62.256 -58.289 -1154.998 -1889.969 -4544.889 -0.264 0.241 0.075 -0.03 0.4 -0.9 0.13
1 9.31 931 -0.824 -6.541 5.440 77.423 45.166 -62.927 -1154.998 -1889.969 -4544.889 0.349 -0.669 1.181 -0.03 0.4 -0.91 0.12
1 9.32 932 -1.049 -4.429 4.698 45.471 14.771 -51.758 -944.984 -2204.914 -4784.883 0.626 -2.640 2.076 -0.02 0.39 -0.91 0.11
1 9.33 933 -1.025 -4.247 4.688 -12.909 -2.655 -39.887 -944.984 -2204.914 -4784.883 0.644 -2.791 2.120 -0.03 0.39 -0.91 0.11
1 9.34 934 -1.125 -5.100 4.832 -65.766 -14.099 -28.168 -899.864 -2219.904 -4844.994 0.791 -1.969 1.948 -0.03 0.39 -0.91 0.11
1 9.35 935 -0.939 -6.896 4.961 -81.879 -25.177 -22.553 -899.864 -2219.904 -4844.994 0.650 -0.248 1.741 -0.03 0.4 -0.91 0.1
1 9.36 936 -0.077 -8.916 6.048 -32.196 -35.034 -23.193 -869.883 -2204.914 -4679.951 -0.158 1.693 0.571 -0.03 0.4 -0.91 0.1
1 9.37 937 0.828 -9.477 6.948 22.553 -26.184 -23.499 -899.864 -2114.972 -4664.961 -1.006 2.202 -0.384 -0.04 0.4 -0.91 0.1
1 9.38 938 1.432 -9.199 7.695 62.256 -5.493 -20.996 -899.864 -2114.972 -4664.961 -1.553 1.930 -1.123 -0.04 0.4 -0.91 0.1
1 9.39 939 1.331 -7.997 7.777 65.369 19.440 -9.186 -1064.906 -2174.933 -4649.971 -1.408 0.859 -1.063 -0.04 0.39 -0.91 0.1
1 9.40 940 1.125 -7.532 7.896 36.377 20.477 5.066 -1064.906 -2174.933 -4649.971 -1.217 0.456 -1.117 -0.04 0.39 -0.91 0.1
1 9.41 941 1.053 -7.379 7.647 -1.312 12.482 18.799 -1064.906 -2009.891 -4574.870 -1.174 0.332 -0.838 -0.03 0.39 -0.92 0.1
1 9.42 942 1.293 -7.475 7.140 -24.201 1.892 26.642 -1064.906 -2009.891 -4574.870 -1.437 0.423 -0.336 -0.03 0.39 -0.92 0.1
1 9.43 943 1.628 -7.848 6.259 -22.247 -6.409 27.588 -1079.896 -2039.871 -4589.860 -1.791 0.772 0.519 -0.03 0.39 -0.91 0.1
1 9.44 944 2.102 -8.035 5.344 15.106 -8.423 19.806 -914.854 -2129.962 -4679.951 -2.274 0.939 1.413 -0.03 0.39 -0.91 0.1
1 9.45 945 2.457 -7.657 5.258 43.152 -0.336 10.803 -914.854 -2129.962 -4679.951 -2.627 0.563 1.502 -0.03 0.39 -0.91 0.1
1 9.46 946 2.677 -7.078 5.133 62.042 10.437 0.763 -1004.945 -1964.920 -4619.990 -2.842 0.014 1.658 -0.04 0.39 -0.91 0.1
1 9.47 947 2.888 -6.110 4.927 64.484 28.351 -9.796 -1034.926 -2114.972 -4739.912 -3.035 -0.834 1.986 -0.03 0.38 -0.92 0.1
1 9.48 948 2.571 -5.488 4.688 50.903 37.018 -14.496 -944.984 -2249.884 -4679.951 -2.741 -1.390 2.291 -0.03 0.38 -0.92 0.1
1 9.49 949 2.011 -5.167 4.420 35.980 39.642 -17.914 -944.984 -2249.884 -4679.951 -2.205 -1.659 2.609 -0.03 0.37 -0.92 0.1
1 9.50 950 1.724 -4.990 4.319 23.132 37.140 -22.247 -929.994 -2219.904 -4739.912 -1.940 -1.800 2.744 -0.03 0.37 -0.92 0.1
1 9.51 951 1.604 -5.009 4.271 6.439 35.217 -25.971 -989.955 -2279.865 -4709.932 -1.835 -1.759 2.813 -0.02 0.37 -0.92 0.09
1 9.52 952 1.518 -5.066 4.492 -4.852 43.091 -27.863 -989.955 -2279.865 -4709.932 -1.761 -1.691 2.602 -0.02 0.37 -0.92 0.09
1 9.53 953 1.484 -5.224 4.947 -16.724 60.272 -28.198 -944.984 -2204.914 -4829.854 -1.743 -1.535 2.144 -0.02 0.37 -0.92 0.09
1 9.54 954 0.924 -5.387 6.570 -24.841 94.788 -27.680 -899.864 -2384.946 -4619.990 -1.268 -1.413 0.478 -0.01 0.37 -0.92 0.08
1 9.55 955 0.316 -5.301 8.050 -20.294 114.045 -27.832 -690.000 -2444.907 -4754.902 -0.738 -1.526 -1.031 -0.01 0.38 -0.92 0.07
1 9.56 956 -0.804 -5.014 9.108 -15.228 126.618 -30.151 -690.000 -2444.907 -4754.902 0.292 -1.826 -2.108 -0 0.38 -0.92 0.07
1 9.57 957 -3.256 -5.593 9.826 -32.868 125.061 -38.910 -599.909 -2384.946 -4694.941 2.643 -1.253 -2.841 0.01 0.38 -0.92 0.06
1 9.58 958 -7.499 -9.424 9.055 -113.434 78.644 -55.786 -614.899 -2204.914 -4784.883 6.801 2.528 -2.127 0.01 0.38 -0.92 0.06
1 9.59 959 -7.734 -12.082 9.778 -152.497 22.858 -53.406 -614.899 -2204.914 -4784.883 6.998 5.077 -2.964 0.02 0.39 -0.92 0.05
1 9.60 960 -6.704 -13.331 10.147 -133.515 -21.790 -45.502 -524.958 -2264.875 -4769.893 5.990 6.171 -3.495 0.02 0.4 -0.91 0.05
1 9.61 961 -5.095 -12.642 7.360 -5.432 -60.517 -46.967 -464.997 -2129.962 -4605.000 4.541 5.250 -0.949 0.01 0.42 -0.91 0.04
1 9.62 962 -3.591 -10.899 6.273 94.025 -74.555 -33.478 -509.968 -1904.959 -4529.899 3.152 3.526 0.168 0.01 0.41 -0.91 0.04
1 9.63 963 -1.944 -9.084 6.445 123.658 -79.651 -13.550 -509.968 -1904.959 -4529.899 1.613 1.818 0.122 -0 0.41 -0.91 0.04
1 9.64 964 -0.565 -7.825 7.259 85.907 -88.990 5.890 -329.935 -2009.891 -4605.000 0.327 0.678 -0.558 -0.01 0.4 -0.92 0.04
1 9.65 965 1.049 -7.288 8.414 36.957 -102.600 18.250 -690.000 -2054.861 -4605.000 -1.208 0.216 -1.631 -0.01 0.39 -0.92 0.05
1 9.66 966 3.759 -7.317 10.013 2.869 -117.615 18.219 -690.000 -2054.861 -4605.000 -3.827 0.277 -3.195 -0.02 0.39 -0.92 0.05
1 9.67 967 5.291 -7.805 10.391 -12.329 -118.500 13.275 -674.860 -2219.904 -4694.941 -5.259 0.774 -3.565 -0.03 0.39 -0.92 0.06
1 9.68 968 7.279 -7.705 10.109 -50.354 -95.917 5.859 -824.913 -2039.871 -4484.928 -7.031 0.635 -3.327 -0.04 0.39 -0.92 0.07
1 9.69 969 7.125 -7.336 9.831 -62.988 -80.811 0.397 -899.864 -2309.995 -4769.893 -6.789 0.208 -3.114 -0.05 0.39 -0.92 0.07
1 9.70 970 7.671 -5.904 7.930 -83.618 -41.870 -22.064 -899.864 -2309.995 -4769.893 -7.251 -1.304 -1.304 -0.05 0.4 -0.91 0.07
1 9.71 971 7.255 -4.798 6.742 -70.435 11.871 -39.887 -1109.877 -2069.852 -4514.909 -6.776 -2.490 -0.209 -0.06 0.4 -0.91 0.07
1 9.72 972 6.330 -3.979 5.876 -27.863 67.322 -50.842 -1304.900 -1964.920 -4589.860 -5.829 -3.366 0.592 -0.06 0.41 -0.91 0.06
1 9.73 973 3.692 -3.390 4.808 50.446 154.206 -64.636 -1304.900 -1964.920 -4589.860 -3.164 -3.953 1.661 -0.06 0.41 -0.91 0.06
1 9.74 974 1.140 -3.797 4.046 66.437 214.173 -74.097 -1034.926 -1964.920 -4514.909 -0.681 -3.500 2.478 -0.05 0.41 -0.91 0.05
1 9.75 975 -2.035 -4.870 3.639 54.413 250.703 -73.395 -1004.945 -1919.949 -4514.909 2.373 -2.357 2.971 -0.04 0.4 -0.91 0.04
1 9.76 976 -7.078 -5.971 5.670 13.947 191.895 -74.494 -974.965 -1919.949 -4544.889 7.079 -1.151 1.062 -0.01 0.4 -0.92 0.02
1 9.77 977 -8.825 -6.987 7.173 -33.234 44.647 -88.898 -974.965 -1919.949 -4544.889 8.734 -0.139 -0.445 0 0.4 -0.92 0.01
1 9.78 978 -8.394 -7.221 8.864 -50.751 -71.167 -73.700 -629.890 -2114.972 -4514.909 8.385 0.057 -2.177 -0 0.4 -0.92 0
1 9.79 979 -7.633 -7.643 9.960 -56.091 -136.414 -52.857 -584.919 -2204.914 -4605.000 7.792 0.426 -3.332 -0.01 0.4 -0.92 0
1 9.80 980 -7.039 -6.876 8.787 -56.488 -146.271 -13.123 -584.919 -2204.914 -4605.000 7.396 -0.395 -2.226 -0.02 0.41 -0.91 0
1 9.81 981 -6.541 -6.398 7.226 -31.799 -106.598 10.773 -509.968 -2129.962 -4649.971 7.072 -0.929 -0.739 -0.03 0.41 -0.91 0.01
1 9.82 982 -5.205 -6.278 5.287 20.783 -70.343 26.398 -749.961 -1964.920 -4484.928 5.847 -1.087 1.146 -0.04 0.41 -0.91 0.01
1 9.83 983 -1.408 -6.694 3.505 87.372 -71.167 32.440 -1004.945 -1919.949 -4409.977 2.090 -0.613 2.989 -0.05 0.41 -0.91 0.02
1 9.84 984 1.322 -6.776 3.764 99.396 -80.994 43.060 -1004.945 -1919.949 -4409.977 -0.603 -0.442 2.826 -0.05 0.4 -0.91 0.03
