COL1 TIME FRAME ACC_X	ACC_Y	ACC_Z	GYR_X	GYR_Y	GYR_Z	MAG_X	MAG_Y	MAG_Z	 LACC_X LACC_Y	LACC_Z	 QUAT_X	QUAT_Y	QUAT_Z	QUAT_W
1 0.00 0 0.589 -9.568 1.360 -2.014 0.549 1.862 404.886 1019.936 4049.012 -0.487 -0.093 0.284 -0.02 -0.64 0.76 0.03
1 0.01 1 0.397 -9.797 1.403 -2.869 -0.641 1.282 494.978 974.965 4064.002 -0.295 0.136 0.235 -0.02 -0.64 0.76 0.03
1 0.02 2 0.455 -9.908 1.623 -3.113 -2.930 0.458 464.847 1079.896 3989.051 -0.351 0.245 0.010 -0.02 -0.65 0.76 0.03
1 0.03 3 0.354 -9.898 1.575 -1.740 -4.578 0.580 464.847 1079.896 3989.051 -0.249 0.235 0.051 -0.02 -0.65 0.76 0.03
1 0.04 4 0.350 -9.922 1.690 0.092 -5.981 1.801 494.978 1124.867 3884.120 -0.240 0.258 -0.069 -0.02 -0.65 0.76 0.03
1 0.05 5 0.417 -9.754 1.642 0.488 -6.378 1.434 449.857 1064.906 4004.042 -0.306 0.090 -0.021 -0.02 -0.65 0.76 0.03
1 0.06 6 0.536 -9.797 1.647 0.305 -5.432 1.617 419.876 1199.968 4019.032 -0.424 0.133 -0.025 -0.02 -0.65 0.76 0.03
1 0.07 7 0.493 -9.649 1.595 0.641 -3.845 2.350 419.876 1199.968 4019.032 -0.380 -0.015 0.028 -0.02 -0.65 0.76 0.03
1 0.08 8 0.436 -9.620 1.671 1.770 -1.770 3.387 464.847 1124.867 4169.084 -0.322 -0.044 -0.047 -0.02 -0.65 0.76 0.03
1 0.09 9 0.350 -9.697 1.714 0.732 -0.824 2.563 569.929 1199.968 4094.133 -0.237 0.033 -0.088 -0.02 -0.65 0.76 0.03
1 0.10 10 0.426 -9.520 1.614 -0.336 -1.465 2.380 569.929 1199.968 4094.133 -0.315 -0.144 0.013 -0.02 -0.65 0.76 0.03
1 0.11 11 0.311 -9.754 1.456 -1.862 -3.174 1.709 389.896 1199.968 3989.051 -0.202 0.091 0.169 -0.02 -0.65 0.76 0.03
1 0.12 12 0.239 -9.639 1.398 -1.831 -4.334 1.160 554.938 1139.857 4079.143 -0.130 -0.025 0.222 -0.02 -0.65 0.76 0.03
1 0.13 13 0.402 -9.754 1.422 -2.136 -5.585 0.732 479.987 1094.887 4079.143 -0.293 0.089 0.194 -0.02 -0.65 0.76 0.03
1 0.14 14 0.417 -9.793 1.484 -2.533 -8.301 1.099 479.987 1094.887 4079.143 -0.305 0.127 0.127 -0.02 -0.65 0.76 0.03
1 0.15 15 0.364 -9.936 1.652 -1.556 -9.460 1.007 494.978 1079.896 3989.051 -0.250 0.269 -0.046 -0.02 -0.65 0.76 0.03
1 0.16 16 0.575 -9.951 1.757 -0.061 -8.881 2.472 554.938 1169.988 4079.143 -0.459 0.283 -0.154 -0.02 -0.65 0.76 0.03
1 0.17 17 0.551 -9.783 1.767 0.610 -7.629 3.479 554.938 1169.988 4079.143 -0.433 0.116 -0.164 -0.02 -0.65 0.76 0.03
1 0.18 18 0.757 -9.807 1.729 1.617 -3.021 3.815 374.906 1094.887 4079.143 -0.639 0.140 -0.122 -0.02 -0.65 0.76 0.03
1 0.19 19 0.627 -9.587 1.710 2.380 -0.549 3.693 404.886 1139.857 4109.123 -0.511 -0.079 -0.099 -0.02 -0.65 0.76 0.03
1 0.20 20 0.623 -9.544 1.642 2.655 -1.038 4.303 569.929 1049.916 4094.133 -0.508 -0.122 -0.028 -0.02 -0.65 0.76 0.03
1 0.21 21 0.579 -9.467 1.585 2.289 -1.617 3.235 569.929 1049.916 4094.133 -0.466 -0.198 0.033 -0.02 -0.65 0.76 0.03
1 0.22 22 0.426 -9.529 1.528 1.648 -2.319 2.991 539.948 1229.949 4124.113 -0.314 -0.135 0.093 -0.02 -0.65 0.76 0.03
1 0.23 23 0.536 -9.429 1.638 -0.397 -0.824 1.587 449.857 1244.939 4079.143 -0.425 -0.235 -0.015 -0.02 -0.65 0.76 0.03
1 0.24 24 0.460 -9.572 1.537 -0.916 -1.038 1.434 449.857 1244.939 4079.143 -0.347 -0.092 0.085 -0.02 -0.65 0.76 0.03
1 0.25 25 0.249 -9.644 1.465 -0.854 0.641 0.885 509.968 1214.958 4154.094 -0.135 -0.020 0.155 -0.02 -0.65 0.76 0.03
1 0.26 26 0.168 -9.788 1.259 0.000 -0.092 0.519 464.847 1124.867 4094.133 -0.052 0.123 0.357 -0.02 -0.65 0.76 0.03
1 0.27 27 0.172 -9.769 1.207 1.129 -2.777 1.099 539.948 1199.968 4019.032 -0.055 0.103 0.407 -0.02 -0.65 0.76 0.03
1 0.28 28 0.239 -9.826 1.398 -0.061 -4.334 0.854 539.948 1199.968 4019.032 -0.122 0.161 0.215 -0.02 -0.65 0.76 0.03
1 0.29 29 0.374 -9.922 1.523 0.366 -6.683 0.610 449.857 1244.939 4184.074 -0.255 0.256 0.088 -0.02 -0.65 0.76 0.03
1 0.30 30 0.646 -9.807 1.666 0.061 -7.996 1.404 509.968 1289.910 4049.012 -0.526 0.141 -0.057 -0.02 -0.65 0.76 0.03
1 0.31 31 0.536 -9.855 1.820 -1.007 -6.378 2.258 509.968 1289.910 4049.012 -0.412 0.189 -0.211 -0.02 -0.65 0.76 0.03
1 0.32 32 0.661 -9.802 1.710 0.214 -1.587 3.357 449.857 1244.939 3929.090 -0.534 0.136 -0.101 -0.02 -0.65 0.76 0.03
1 0.33 33 0.642 -9.754 1.710 0.793 0.122 3.265 419.876 1124.867 4064.002 -0.515 0.088 -0.099 -0.02 -0.65 0.76 0.03
1 0.34 34 0.393 -9.577 1.738 1.953 1.923 3.815 539.948 1304.900 4124.113 -0.269 -0.088 -0.125 -0.02 -0.65 0.76 0.03
1 0.35 35 0.292 -9.615 1.551 2.533 0.854 3.601 539.948 1304.900 4124.113 -0.171 -0.049 0.065 -0.02 -0.65 0.76 0.03
1 0.36 36 0.436 -9.639 1.595 2.625 -0.854 2.655 509.968 1064.906 3974.061 -0.318 -0.025 0.026 -0.02 -0.65 0.76 0.03
1 0.37 37 0.302 -9.663 1.489 2.411 -1.923 2.411 449.857 1139.857 4049.012 -0.186 -0.001 0.134 -0.02 -0.65 0.76 0.03
1 0.38 38 0.369 -9.644 1.465 0.061 -3.998 1.892 449.857 1139.857 4049.012 -0.255 -0.020 0.159 -0.02 -0.65 0.76 0.03
1 0.39 39 0.211 -9.687 1.547 0.519 -5.737 0.854 539.948 1154.848 4019.032 -0.097 0.024 0.078 -0.02 -0.65 0.76 0.03
1 0.40 40 0.230 -9.817 1.662 1.740 -8.179 1.007 404.886 1094.887 4049.012 -0.114 0.153 -0.037 -0.02 -0.65 0.76 0.03
1 0.41 41 0.364 -9.845 1.920 3.479 -8.698 1.953 449.857 1094.887 4079.143 -0.246 0.182 -0.293 -0.02 -0.65 0.76 0.03
1 0.42 42 0.431 -9.817 1.714 3.784 -7.751 2.441 449.857 1094.887 4079.143 -0.313 0.154 -0.081 -0.02 -0.65 0.76 0.03
1 0.43 43 0.594 -9.687 1.738 3.479 -5.951 2.045 479.987 1139.857 4079.143 -0.475 0.026 -0.099 -0.02 -0.65 0.76 0.03
1 0.44 44 0.670 -9.687 1.638 3.998 -3.876 3.204 494.978 1154.848 3884.120 -0.551 0.027 0.007 -0.02 -0.64 0.76 0.03
1 0.45 45 0.479 -9.682 1.561 5.310 -1.587 3.571 494.978 1154.848 3884.120 -0.359 0.023 0.090 -0.02 -0.64 0.76 0.03
1 0.46 46 0.584 -9.496 1.551 5.341 -0.854 3.571 464.847 1154.848 3989.051 -0.465 -0.162 0.106 -0.02 -0.64 0.76 0.03
1 0.47 47 0.570 -9.515 1.662 2.411 -1.709 2.869 404.886 1244.939 4049.012 -0.454 -0.141 0.008 -0.02 -0.64 0.76 0.03
1 0.48 48 0.646 -9.472 1.571 0.275 -1.434 1.892 509.968 1064.906 4049.012 -0.531 -0.184 0.101 -0.02 -0.64 0.76 0.03
1 0.49 49 0.603 -9.510 1.499 -0.427 -0.366 1.343 509.968 1064.906 4049.012 -0.486 -0.146 0.173 -0.02 -0.64 0.76 0.03
1 0.50 50 0.733 -9.630 1.551 -0.793 2.350 0.519 464.847 1199.968 4094.133 -0.614 -0.026 0.119 -0.02 -0.64 0.76 0.03
1 0.51 51 0.527 -9.788 1.595 0.214 4.791 0.214 464.847 1124.867 4094.133 -0.405 0.132 0.075 -0.02 -0.64 0.76 0.03
1 0.52 52 0.369 -9.735 1.475 2.655 6.805 0.122 464.847 1124.867 4094.133 -0.246 0.079 0.195 -0.02 -0.64 0.76 0.03
1 0.53 53 0.306 -9.740 1.255 3.662 5.463 -0.183 599.909 1049.916 4019.032 -0.182 0.084 0.417 -0.02 -0.64 0.76 0.03
1 0.54 54 0.306 -9.730 1.451 4.028 2.350 -0.031 599.909 1049.916 4019.032 -0.182 0.075 0.224 -0.02 -0.64 0.76 0.03
1 0.55 55 0.192 -9.783 1.705 2.808 -3.082 -0.275 494.978 1124.867 3989.051 -0.065 0.129 -0.023 -0.02 -0.64 0.76 0.03
1 0.56 56 0.402 -9.817 1.777 1.770 -3.906 0.580 494.978 1124.867 3989.051 -0.275 0.163 -0.092 -0.02 -0.64 0.76 0.03
1 0.57 57 0.436 -9.773 1.906 1.221 -2.777 0.732 569.929 1199.968 4019.032 -0.307 0.121 -0.219 -0.02 -0.64 0.76 0.03
1 0.58 58 0.488 -9.721 1.719 0.946 -0.214 1.434 674.860 1079.896 4124.113 -0.359 0.069 -0.029 -0.02 -0.64 0.76 0.03
1 0.59 59 0.565 -9.697 1.580 3.082 4.974 1.862 674.860 1079.896 4124.113 -0.435 0.045 0.111 -0.02 -0.64 0.77 0.03
1 0.60 60 0.412 -9.654 1.317 3.357 6.683 2.380 419.876 1079.896 4094.133 -0.283 0.002 0.378 -0.02 -0.64 0.77 0.03
1 0.61 61 0.235 -9.572 1.494 2.380 5.524 2.350 419.876 1079.896 4094.133 -0.108 -0.079 0.204 -0.02 -0.64 0.77 0.03
1 0.62 62 0.263 -9.520 1.441 0.000 2.655 1.099 509.968 1214.958 4049.012 -0.142 -0.131 0.258 -0.02 -0.64 0.77 0.03
1 0.63 63 0.187 -9.706 1.604 -0.397 1.038 0.427 509.968 1214.958 4049.012 -0.065 0.055 0.093 -0.02 -0.64 0.77 0.03
1 0.64 64 0.144 -9.783 1.695 -0.793 -0.336 1.007 509.968 1094.887 3974.061 -0.022 0.132 0.001 -0.02 -0.64 0.77 0.03
1 0.65 65 0.163 -9.769 1.858 0.519 -0.336 1.862 404.886 1214.958 4109.123 -0.042 0.117 -0.163 -0.02 -0.64 0.77 0.03
1 0.66 66 0.168 -9.697 1.815 1.465 -0.427 2.350 404.886 1214.958 4109.123 -0.049 0.046 -0.118 -0.02 -0.64 0.77 0.03
1 0.67 67 0.321 -9.649 1.719 2.350 0.183 3.082 464.847 1154.848 3959.071 -0.205 -0.002 -0.019 -0.02 -0.64 0.77 0.03
1 0.68 68 0.182 -9.491 1.518 2.258 0.275 3.418 464.847 1154.848 3959.071 -0.069 -0.159 0.185 -0.02 -0.64 0.77 0.03
1 0.69 69 0.306 -9.678 1.398 1.953 -0.885 2.106 479.987 1169.988 4004.042 -0.201 0.028 0.310 -0.02 -0.64 0.77 0.03
1 0.70 70 0.268 -9.687 1.379 1.923 -2.258 1.190 479.987 1169.988 4004.042 -0.163 0.038 0.330 -0.02 -0.64 0.77 0.03
1 0.71 71 0.450 -9.668 1.657 1.740 -4.120 0.061 464.847 1199.968 3914.100 -0.344 0.019 0.053 -0.02 -0.64 0.77 0.03
1 0.72 72 0.340 -9.821 1.743 0.732 -5.676 0.061 359.916 1049.916 3989.051 -0.230 0.173 -0.032 -0.02 -0.64 0.77 0.03
1 0.73 73 0.512 -9.927 1.810 0.031 -5.249 -0.183 359.916 1049.916 3989.051 -0.399 0.278 -0.099 -0.02 -0.64 0.77 0.03
1 0.74 74 0.565 -9.989 1.762 0.519 -3.174 0.977 539.948 1079.896 4019.032 -0.447 0.340 -0.051 -0.02 -0.64 0.77 0.03
1 0.75 75 0.766 -9.884 1.944 2.167 -1.526 3.052 539.948 1079.896 4019.032 -0.645 0.235 -0.231 -0.02 -0.64 0.77 0.03
1 0.76 76 0.733 -9.687 1.954 3.143 2.533 5.341 419.876 1079.896 4019.032 -0.613 0.040 -0.232 -0.02 -0.64 0.77 0.03
1 0.77 77 0.809 -9.639 1.743 3.815 5.035 4.669 419.876 1079.896 4019.032 -0.693 -0.006 -0.015 -0.02 -0.64 0.77 0.03
1 0.78 78 0.646 -9.443 1.733 2.472 8.240 4.730 464.847 1004.945 4094.133 -0.534 -0.202 0.000 -0.02 -0.64 0.77 0.03
1 0.79 79 0.541 -9.371 1.446 -0.031 10.468 4.334 449.857 1019.936 4109.123 -0.434 -0.273 0.291 -0.02 -0.64 0.77 0.03
1 0.80 80 0.579 -9.419 1.389 -1.495 10.559 3.632 449.857 1019.936 4109.123 -0.478 -0.226 0.346 -0.02 -0.64 0.77 0.03
1 0.81 81 0.517 -9.390 1.427 -2.747 9.247 0.702 449.857 1214.958 3974.061 -0.419 -0.255 0.304 -0.02 -0.64 0.77 0.03
1 0.82 82 0.292 -9.644 1.599 -2.075 7.385 -1.282 449.857 1214.958 3974.061 -0.196 -0.002 0.125 -0.02 -0.64 0.77 0.04
1 0.83 83 0.283 -9.587 1.595 -0.732 5.798 -2.045 509.968 1019.936 4004.042 -0.185 -0.061 0.125 -0.02 -0.64 0.77 0.04
1 0.84 84 0.120 -9.577 1.848 0.854 4.517 -2.655 419.876 1049.916 4019.032 -0.016 -0.071 -0.132 -0.02 -0.64 0.77 0.04
1 0.85 85 0.125 -9.582 1.801 1.495 4.150 -3.082 569.929 1199.968 4124.113 -0.017 -0.065 -0.081 -0.02 -0.64 0.77 0.04
1 0.86 86 0.086 -9.654 1.738 1.862 3.967 -2.045 599.909 1154.848 4064.002 0.024 0.007 -0.016 -0.02 -0.64 0.77 0.04
1 0.87 87 0.019 -9.582 1.647 0.793 4.150 -0.153 599.909 1154.848 4064.002 0.092 -0.064 0.078 -0.02 -0.64 0.77 0.04
1 0.88 88 0.096 -9.692 1.566 -0.031 2.808 1.648 404.886 1064.906 4079.143 0.013 0.046 0.160 -0.02 -0.64 0.77 0.04
1 0.89 89 -0.038 -9.601 1.633 -1.099 0.671 2.563 404.886 1064.906 4079.143 0.145 -0.045 0.092 -0.02 -0.64 0.77 0.04
1 0.90 90 -0.005 -9.625 1.604 -3.052 -3.113 3.662 554.938 1019.936 4049.012 0.107 -0.022 0.119 -0.03 -0.64 0.77 0.04
1 0.91 91 0.292 -9.793 1.480 -4.181 -6.287 1.678 494.978 1229.949 3914.100 -0.198 0.144 0.231 -0.03 -0.64 0.77 0.04
1 0.92 92 0.378 -10.032 1.441 -2.777 -7.751 1.740 539.948 1004.945 4019.032 -0.284 0.382 0.262 -0.02 -0.64 0.77 0.04
1 0.93 93 0.469 -9.898 1.614 -2.045 -7.599 2.625 539.948 1154.848 4019.032 -0.374 0.246 0.083 -0.02 -0.64 0.76 0.04
1 0.94 94 0.551 -9.864 1.705 -0.519 -6.165 3.571 539.948 1154.848 4019.032 -0.456 0.212 -0.012 -0.02 -0.64 0.76 0.04
1 0.95 95 0.632 -9.764 1.781 -0.275 -4.547 2.991 599.909 1124.867 3989.051 -0.538 0.111 -0.090 -0.02 -0.64 0.76 0.04
1 0.96 96 0.637 -9.635 1.777 -0.671 -2.197 3.326 599.909 1124.867 3989.051 -0.543 -0.018 -0.085 -0.02 -0.64 0.76 0.04
1 0.97 97 0.460 -9.630 1.628 -0.336 -1.373 4.272 509.968 1169.988 4079.143 -0.366 -0.023 0.063 -0.02 -0.64 0.76 0.04
1 0.98 98 0.551 -9.587 1.575 -1.038 0.183 3.387 479.987 989.955 4049.012 -0.461 -0.066 0.114 -0.02 -0.64 0.76 0.04
1 0.99 99 0.469 -9.520 1.465 -0.977 0.122 2.472 479.987 1064.906 3929.090 -0.381 -0.134 0.221 -0.02 -0.64 0.76 0.04
1 1.00 100 0.455 -9.505 1.365 -1.801 0.580 1.892 464.847 1079.896 3989.051 -0.366 -0.149 0.319 -0.02 -0.64 0.76 0.04
1 1.01 101 0.426 -9.505 1.341 -2.075 0.580 0.458 464.847 1079.896 3989.051 -0.338 -0.149 0.339 -0.02 -0.64 0.76 0.04
1 1.02 102 0.335 -9.639 1.422 -2.136 -0.366 0.549 494.978 974.965 4094.133 -0.245 -0.016 0.253 -0.02 -0.64 0.76 0.04
1 1.03 103 0.316 -9.726 1.528 -2.258 -2.899 -0.397 494.978 974.965 4094.133 -0.224 0.069 0.143 -0.02 -0.64 0.76 0.04
1 1.04 104 0.244 -9.711 1.662 -3.143 -5.066 -0.366 419.876 1004.945 3914.100 -0.150 0.054 0.004 -0.02 -0.64 0.76 0.04
1 1.05 105 0.407 -9.821 1.829 -3.052 -6.866 -0.061 509.968 1094.887 4184.074 -0.309 0.163 -0.170 -0.02 -0.64 0.76 0.04
1 1.06 106 0.460 -10.013 1.930 -0.702 -6.958 0.366 554.938 1064.906 4079.143 -0.355 0.354 -0.277 -0.02 -0.64 0.76 0.04
1 1.07 107 0.364 -9.922 1.963 1.312 -4.639 1.740 494.978 1229.949 4094.133 -0.256 0.263 -0.310 -0.02 -0.64 0.76 0.04
1 1.08 108 0.464 -9.970 1.705 3.021 -2.625 2.655 494.978 1229.949 4094.133 -0.357 0.312 -0.047 -0.02 -0.64 0.76 0.03
1 1.09 109 0.374 -9.850 1.571 4.822 -1.190 2.991 329.935 1214.958 4004.042 -0.266 0.193 0.093 -0.02 -0.64 0.76 0.03
1 1.10 110 0.235 -9.620 1.556 4.272 -1.221 4.150 329.935 1214.958 4004.042 -0.130 -0.036 0.114 -0.02 -0.64 0.76 0.03
1 1.11 111 0.129 -9.395 1.322 1.434 -1.526 3.540 599.909 1154.848 4199.064 -0.027 -0.260 0.354 -0.02 -0.64 0.76 0.03
1 1.12 112 0.311 -9.510 1.518 -0.427 -2.899 2.502 494.978 1079.896 4124.113 -0.213 -0.145 0.159 -0.02 -0.64 0.76 0.03
1 1.13 113 0.335 -9.572 1.365 -3.693 -4.822 2.045 599.909 1004.945 4064.002 -0.241 -0.084 0.305 -0.02 -0.64 0.76 0.03
1 1.14 114 0.311 -9.606 1.504 -4.120 -5.341 2.167 539.948 1199.968 3959.071 -0.217 -0.052 0.159 -0.02 -0.64 0.76 0.03
1 1.15 115 0.287 -9.620 1.757 -3.357 -5.402 1.343 539.948 1199.968 3959.071 -0.193 -0.038 -0.102 -0.02 -0.64 0.76 0.03
1 1.16 116 0.441 -9.730 1.801 -2.258 -3.632 2.136 374.906 1094.887 4004.042 -0.346 0.071 -0.149 -0.02 -0.64 0.76 0.03
1 1.17 117 0.278 -9.654 1.767 -1.038 -3.357 2.869 374.906 1094.887 4004.042 -0.183 -0.006 -0.118 -0.02 -0.64 0.76 0.03
1 1.18 118 0.445 -9.764 1.628 0.549 -2.960 2.899 479.987 1214.958 4214.055 -0.353 0.104 0.021 -0.02 -0.64 0.76 0.03
1 1.19 119 0.479 -9.548 1.571 0.916 -2.960 2.594 464.847 1154.848 4124.113 -0.388 -0.111 0.079 -0.02 -0.64 0.76 0.03
1 1.20 120 0.584 -9.615 1.465 0.458 -1.465 2.472 404.886 1064.906 4079.143 -0.495 -0.044 0.186 -0.02 -0.64 0.76 0.03
1 1.21 121 0.460 -9.639 1.384 -0.671 -0.732 1.862 389.896 1049.916 4064.002 -0.370 -0.020 0.267 -0.02 -0.64 0.76 0.03
1 1.22 122 0.460 -9.697 1.374 -0.671 0.916 0.946 389.896 1049.916 4064.002 -0.369 0.037 0.274 -0.02 -0.64 0.76 0.03
1 1.23 123 0.431 -9.687 1.360 -1.373 1.953 0.610 629.890 1139.857 4079.143 -0.339 0.027 0.285 -0.02 -0.64 0.76 0.03
1 1.24 124 0.292 -9.697 1.427 -1.190 0.854 1.068 629.890 1139.857 4079.143 -0.199 0.036 0.214 -0.02 -0.64 0.76 0.03
1 1.25 125 0.302 -9.879 1.585 -1.953 -1.343 -0.336 479.987 1214.958 4184.074 -0.208 0.217 0.052 -0.02 -0.64 0.76 0.03
1 1.26 126 0.283 -9.912 1.461 -0.885 -2.319 -0.458 419.876 1229.949 4064.002 -0.188 0.250 0.173 -0.02 -0.65 0.76 0.03
1 1.27 127 0.488 -9.922 1.413 1.282 -4.028 0.671 509.968 1139.857 4049.012 -0.389 0.259 0.218 -0.02 -0.65 0.76 0.03
1 1.28 128 0.441 -9.797 1.480 2.014 -5.219 2.197 449.857 1094.887 4004.042 -0.339 0.135 0.151 -0.02 -0.65 0.76 0.03
1 1.29 129 0.512 -9.826 1.642 1.831 -5.035 2.655 449.857 1094.887 4004.042 -0.410 0.164 -0.010 -0.02 -0.65 0.76 0.03
1 1.30 130 0.560 -9.620 1.719 0.183 -4.486 2.747 464.847 1229.949 4064.002 -0.458 -0.042 -0.085 -0.02 -0.65 0.76 0.03
1 1.31 131 0.646 -9.663 1.633 -2.167 -3.387 3.113 464.847 1229.949 4064.002 -0.544 0.001 0.001 -0.02 -0.65 0.76 0.03
1 1.32 132 0.536 -9.529 1.638 -4.608 0.427 3.754 389.896 1154.848 3959.071 -0.434 -0.134 -0.007 -0.02 -0.65 0.76 0.03
1 1.33 133 0.632 -9.515 1.480 -4.517 2.411 3.876 419.876 1154.848 4019.032 -0.531 -0.149 0.145 -0.02 -0.65 0.76 0.03
1 1.34 134 0.421 -9.668 1.245 -3.113 4.578 3.296 419.876 1154.848 4019.032 -0.323 0.003 0.373 -0.02 -0.65 0.76 0.03
1 1.35 135 0.350 -9.635 1.346 -0.488 6.714 1.251 554.938 1289.910 4004.042 -0.255 -0.032 0.261 -0.02 -0.65 0.76 0.03
1 1.36 136 0.311 -9.659 1.255 0.641 5.157 0.641 554.938 1289.910 4004.042 -0.217 -0.009 0.350 -0.02 -0.65 0.76 0.03
1 1.37 137 0.201 -9.764 1.580 0.092 2.533 0.488 539.948 1124.867 4019.032 -0.108 0.096 0.023 -0.02 -0.65 0.76 0.03
1 1.38 138 0.215 -9.663 1.494 -0.519 -0.366 -0.610 539.948 1124.867 4019.032 -0.122 -0.004 0.108 -0.02 -0.65 0.76 0.03
1 1.39 139 0.311 -9.893 1.614 -1.770 -3.052 -0.031 389.896 1154.848 4064.002 -0.216 0.225 -0.013 -0.02 -0.65 0.76 0.03
1 1.40 140 0.393 -9.960 1.599 -1.953 -2.655 0.397 494.978 1154.848 4064.002 -0.295 0.292 -0.003 -0.02 -0.65 0.76 0.03
1 1.41 141 0.479 -9.764 1.556 -0.519 -1.099 1.526 494.978 1154.848 4064.002 -0.379 0.095 0.038 -0.02 -0.65 0.76 0.03
1 1.42 142 0.397 -9.706 1.446 1.862 2.075 1.862 494.978 1124.867 4124.113 -0.297 0.037 0.148 -0.02 -0.65 0.76 0.03
1 1.43 143 0.479 -9.668 1.417 1.709 3.265 2.045 494.978 1124.867 4124.113 -0.380 -0.001 0.178 -0.02 -0.65 0.76 0.03
1 1.44 144 0.354 -9.615 1.413 0.061 4.364 2.045 599.909 1079.896 4019.032 -0.256 -0.053 0.185 -0.02 -0.65 0.76 0.03
1 1.45 145 0.369 -9.582 1.307 -1.526 4.578 0.916 599.909 1079.896 4019.032 -0.273 -0.087 0.289 -0.02 -0.65 0.76 0.03
1 1.46 146 0.201 -9.582 1.322 -2.960 3.326 0.458 569.929 1124.867 4064.002 -0.106 -0.087 0.270 -0.02 -0.65 0.76 0.04
1 1.47 147 0.168 -9.673 1.322 -2.777 -0.458 -0.061 554.938 1064.906 4109.123 -0.073 0.002 0.263 -0.02 -0.65 0.76 0.04
1 1.48 148 0.273 -9.740 1.571 -2.350 -4.639 -0.092 554.938 1064.906 4109.123 -0.178 0.068 0.007 -0.02 -0.65 0.76 0.04
1 1.49 149 0.493 -9.831 1.566 -2.045 -7.141 -0.458 509.968 1244.939 4184.074 -0.392 0.158 0.002 -0.02 -0.65 0.76 0.04
1 1.50 150 0.484 -9.917 1.580 -1.526 -6.500 1.068 509.968 1244.939 4184.074 -0.379 0.244 -0.015 -0.02 -0.65 0.76 0.03
1 1.51 151 0.704 -9.783 1.523 -1.465 -3.784 2.075 539.948 1199.968 4094.133 -0.596 0.109 0.040 -0.02 -0.65 0.76 0.03
1 1.52 152 0.579 -9.596 1.542 -1.801 -1.129 3.113 539.948 1199.968 4094.133 -0.471 -0.078 0.018 -0.02 -0.65 0.76 0.03
1 1.53 153 0.694 -9.663 1.480 -2.014 1.556 3.967 494.978 1154.848 3989.051 -0.587 -0.012 0.078 -0.02 -0.65 0.76 0.03
1 1.54 154 0.709 -9.663 1.499 -1.312 5.615 3.326 539.948 1124.867 4094.133 -0.603 -0.012 0.055 -0.02 -0.65 0.76 0.03
1 1.55 155 0.479 -9.735 1.480 -0.732 6.287 2.838 539.948 1124.867 4094.133 -0.376 0.059 0.072 -0.02 -0.65 0.76 0.04
1 1.56 156 0.484 -9.577 1.499 -0.549 6.134 1.129 584.919 1244.939 4049.012 -0.384 -0.099 0.050 -0.02 -0.65 0.76 0.04
1 1.57 157 0.455 -9.754 1.508 0.031 5.402 0.702 584.919 1244.939 4049.012 -0.356 0.078 0.040 -0.02 -0.65 0.76 0.04
1 1.58 158 0.364 -9.841 1.470 0.702 5.829 -1.160 479.987 1094.887 4079.143 -0.262 0.164 0.078 -0.02 -0.65 0.76 0.04
1 1.59 159 0.249 -9.874 1.413 0.946 4.913 -1.251 479.987 1094.887 4079.143 -0.145 0.198 0.136 -0.02 -0.65 0.76 0.04
1 1.60 160 0.148 -9.874 1.470 2.075 3.815 -0.977 374.906 1214.958 4049.012 -0.043 0.198 0.079 -0.02 -0.65 0.76 0.04
1 1.61 161 0.014 -9.908 1.580 0.458 -0.580 0.336 509.968 1169.988 3974.061 0.092 0.232 -0.029 -0.02 -0.65 0.76 0.04
1 1.62 162 0.096 -9.740 1.614 -1.465 -2.319 1.862 509.968 1169.988 3974.061 0.010 0.064 -0.061 -0.02 -0.65 0.76 0.04
1 1.63 163 0.211 -9.797 1.695 -2.258 -3.540 2.563 419.876 1304.900 4064.002 -0.107 0.121 -0.145 -0.02 -0.65 0.76 0.04
1 1.64 164 0.259 -9.620 1.595 -2.136 -3.906 3.845 464.847 1124.867 4064.002 -0.161 -0.057 -0.050 -0.02 -0.65 0.76 0.04
1 1.65 165 0.603 -9.630 1.456 -2.014 -3.052 4.120 539.948 1199.968 4169.084 -0.510 -0.048 0.086 -0.02 -0.65 0.76 0.04
1 1.66 166 0.455 -9.587 1.360 -0.549 -1.617 4.456 539.948 1199.968 4169.084 -0.364 -0.091 0.179 -0.02 -0.65 0.76 0.04
1 1.67 167 0.450 -9.663 1.350 0.244 -0.153 3.815 599.909 1229.949 4064.002 -0.362 -0.015 0.187 -0.02 -0.65 0.76 0.04
1 1.68 168 0.407 -9.687 1.389 1.648 0.519 2.289 494.978 1154.848 3989.051 -0.322 0.009 0.149 -0.02 -0.65 0.76 0.04
1 1.69 169 0.445 -9.711 1.408 0.916 -0.336 1.923 494.978 1154.848 3989.051 -0.361 0.033 0.130 -0.02 -0.65 0.76 0.04
1 1.70 170 0.479 -9.802 1.513 1.465 -0.793 0.214 554.938 1019.936 4109.123 -0.394 0.124 0.026 -0.03 -0.65 0.76 0.04
1 1.71 171 0.618 -9.879 1.556 1.862 -1.862 -0.336 509.968 1214.958 4259.025 -0.529 0.201 -0.013 -0.02 -0.65 0.76 0.04
1 1.72 172 0.527 -9.960 1.710 2.930 -1.923 -0.458 509.968 1139.857 4184.074 -0.433 0.283 -0.164 -0.02 -0.65 0.76 0.04
1 1.73 173 0.517 -9.879 1.652 3.174 -2.075 0.305 509.968 1139.857 4184.074 -0.420 0.203 -0.101 -0.02 -0.65 0.76 0.04
1 1.74 174 0.733 -9.908 1.614 3.510 -1.740 1.038 569.929 1229.949 4064.002 -0.632 0.232 -0.058 -0.02 -0.65 0.76 0.04
1 1.75 175 0.651 -9.807 1.666 1.648 -0.580 1.495 509.968 1139.857 4109.123 -0.549 0.133 -0.105 -0.02 -0.65 0.76 0.04
1 1.76 176 0.694 -9.620 1.638 1.373 0.702 3.021 509.968 1139.857 4109.123 -0.590 -0.053 -0.073 -0.02 -0.65 0.76 0.04
1 1.77 177 0.752 -9.486 1.777 0.732 2.930 2.533 479.987 1214.958 4214.055 -0.648 -0.187 -0.209 -0.02 -0.65 0.76 0.04
1 1.78 178 0.757 -9.443 1.705 1.251 5.066 1.556 554.938 1139.857 4154.094 -0.652 -0.229 -0.132 -0.02 -0.65 0.76 0.04
1 1.79 179 0.670 -9.429 1.710 0.793 7.721 0.641 494.978 1229.949 4124.113 -0.565 -0.243 -0.134 -0.02 -0.65 0.76 0.04
1 1.80 180 0.488 -9.472 1.537 1.312 8.881 0.153 494.978 1229.949 4124.113 -0.382 -0.200 0.041 -0.03 -0.65 0.76 0.04
1 1.81 181 0.436 -9.510 1.298 2.197 9.094 -0.793 494.978 1079.896 4019.032 -0.328 -0.161 0.283 -0.03 -0.65 0.76 0.04
1 1.82 182 0.407 -9.587 1.231 3.723 8.637 -2.411 599.909 1079.896 4124.113 -0.297 -0.084 0.352 -0.03 -0.65 0.76 0.04
1 1.83 183 0.110 -9.831 1.413 5.402 4.456 -2.899 599.909 1079.896 4124.113 0.003 0.161 0.175 -0.03 -0.65 0.76 0.04
1 1.84 184 0.081 -9.702 1.599 3.784 0.946 -2.167 584.919 1139.857 4109.123 0.036 0.033 -0.006 -0.03 -0.65 0.76 0.04
1 1.85 185 0.091 -9.783 1.671 2.563 -0.458 -2.197 509.968 1139.857 4154.094 0.030 0.115 -0.072 -0.03 -0.65 0.76 0.04
1 1.86 186 0.192 -9.932 1.551 1.526 -0.458 -1.495 554.938 1139.857 4079.143 -0.064 0.265 0.055 -0.03 -0.65 0.76 0.04
1 1.87 187 0.172 -9.893 1.422 2.716 -1.373 -0.458 554.938 1139.857 4079.143 -0.041 0.227 0.185 -0.03 -0.65 0.76 0.04
1 1.88 188 0.206 -9.922 1.518 4.059 -1.740 1.373 629.890 1139.857 4154.094 -0.075 0.256 0.092 -0.03 -0.65 0.76 0.04
1 1.89 189 0.354 -9.726 1.580 4.395 -2.686 3.021 464.847 1004.945 4094.133 -0.224 0.061 0.035 -0.03 -0.65 0.76 0.04
1 1.90 190 0.555 -9.682 1.580 3.510 -4.700 3.815 464.847 1004.945 4094.133 -0.428 0.018 0.041 -0.03 -0.65 0.76 0.04
1 1.91 191 0.685 -9.663 1.513 2.136 -4.822 2.441 554.938 1244.939 4004.042 -0.560 0.000 0.114 -0.03 -0.65 0.76 0.04
1 1.92 192 0.809 -9.884 1.523 1.190 -4.639 2.441 389.896 1274.919 4169.084 -0.685 0.221 0.107 -0.03 -0.65 0.76 0.04
1 1.93 193 0.828 -9.917 1.532 1.801 -4.852 1.953 494.978 1229.949 3989.051 -0.700 0.255 0.099 -0.03 -0.65 0.76 0.04
1 1.94 194 0.771 -9.874 1.494 2.197 -4.486 1.678 494.978 1229.949 3989.051 -0.639 0.212 0.138 -0.02 -0.65 0.76 0.04
1 1.95 195 0.886 -9.702 1.652 1.251 -5.249 1.160 419.876 1004.945 4064.002 -0.750 0.040 -0.018 -0.02 -0.65 0.76 0.04
1 1.96 196 0.819 -9.726 1.757 1.129 -5.920 0.519 449.857 989.955 4004.042 -0.678 0.064 -0.121 -0.02 -0.64 0.76 0.04
1 1.97 197 0.891 -9.922 1.599 1.251 -5.524 -0.275 449.857 989.955 4004.042 -0.743 0.261 0.040 -0.02 -0.64 0.76 0.04
1 1.98 198 0.852 -9.869 1.714 4.181 -5.280 0.854 449.857 1064.906 4184.074 -0.698 0.209 -0.073 -0.02 -0.64 0.76 0.04
1 1.99 199 0.929 -9.793 1.767 5.096 -3.632 1.678 479.987 1214.958 4049.012 -0.769 0.133 -0.121 -0.02 -0.64 0.76 0.04
1 2.00 200 1.068 -9.668 1.743 5.371 -1.923 2.441 389.896 1079.896 4094.133 -0.899 0.012 -0.081 -0.02 -0.64 0.76 0.04
1 2.01 201 1.073 -9.572 1.877 4.425 -1.007 2.350 389.896 1079.896 4094.133 -0.901 -0.083 -0.207 -0.02 -0.64 0.76 0.04
1 2.02 202 1.006 -9.630 1.671 3.998 1.465 2.075 644.880 1229.949 4064.002 -0.831 -0.024 0.006 -0.02 -0.64 0.76 0.04
1 2.03 203 0.991 -9.673 1.652 3.723 2.594 1.617 509.968 1169.988 4109.123 -0.812 0.020 0.031 -0.02 -0.64 0.76 0.04
1 2.04 204 0.991 -9.457 1.633 4.761 3.326 1.740 509.968 1169.988 4109.123 -0.809 -0.194 0.056 -0.02 -0.64 0.76 0.04
1 2.05 205 0.876 -9.486 1.556 6.348 3.937 -0.610 419.876 1049.916 4064.002 -0.691 -0.164 0.140 -0.02 -0.64 0.76 0.04
1 2.06 206 0.814 -9.448 1.480 7.050 3.448 -2.319 539.948 1004.945 4019.032 -0.624 -0.201 0.226 -0.02 -0.64 0.77 0.04
1 2.07 207 0.766 -9.558 1.484 7.507 1.434 -2.716 449.857 1094.887 3929.090 -0.563 -0.087 0.239 -0.02 -0.64 0.77 0.04
1 2.08 208 0.843 -9.678 1.551 6.836 -0.366 -2.472 449.857 1094.887 3929.090 -0.631 0.034 0.181 -0.02 -0.64 0.77 0.04
1 2.09 209 0.939 -9.611 1.690 4.822 -0.885 -1.831 509.968 1094.887 4049.012 -0.719 -0.031 0.051 -0.02 -0.64 0.77 0.04
1 2.10 210 0.766 -9.395 1.853 3.967 -0.214 -1.587 554.938 1169.988 3899.110 -0.539 -0.245 -0.105 -0.02 -0.64 0.77 0.04
1 2.11 211 0.723 -9.481 1.810 3.784 1.740 -0.427 554.938 1169.988 3899.110 -0.490 -0.158 -0.056 -0.02 -0.64 0.77 0.04
1 2.12 212 0.656 -9.501 1.729 4.242 4.578 1.312 374.906 1169.988 4004.042 -0.419 -0.137 0.032 -0.02 -0.64 0.77 0.04
1 2.13 213 0.680 -9.395 1.748 3.845 4.761 2.930 419.876 1049.916 3959.071 -0.442 -0.241 0.019 -0.02 -0.64 0.77 0.04
1 2.14 214 0.742 -9.333 1.657 2.930 3.998 3.418 419.876 1049.916 3959.071 -0.506 -0.302 0.117 -0.02 -0.64 0.77 0.04
1 2.15 215 0.680 -9.242 1.494 0.427 2.716 1.923 419.876 1199.968 3959.071 -0.447 -0.392 0.286 -0.02 -0.64 0.77 0.04
1 2.16 216 0.828 -9.467 1.480 -0.671 1.617 0.641 554.938 1139.857 3974.061 -0.595 -0.167 0.300 -0.02 -0.64 0.77 0.04
1 2.17 217 0.752 -9.491 1.642 -1.282 0.336 0.946 464.847 1154.848 4064.002 -0.517 -0.144 0.134 -0.02 -0.64 0.77 0.04
1 2.18 218 0.852 -9.529 1.767 -2.228 -0.854 0.977 464.847 1154.848 4064.002 -0.614 -0.106 0.006 -0.02 -0.64 0.77 0.04
1 2.19 219 1.006 -9.596 1.671 -3.082 0.549 -0.214 464.847 1049.916 4064.002 -0.764 -0.040 0.097 -0.02 -0.64 0.77 0.04
1 2.20 220 0.958 -9.687 1.628 -2.869 1.678 -0.549 509.968 1214.958 4109.123 -0.712 0.050 0.135 -0.02 -0.64 0.77 0.04
1 2.21 221 0.915 -9.884 1.647 -1.099 4.517 -1.434 509.968 1214.958 4109.123 -0.663 0.246 0.112 -0.02 -0.64 0.77 0.04
1 2.22 222 0.848 -9.975 1.753 0.122 6.531 -0.977 494.978 1124.867 3989.051 -0.586 0.336 0.002 -0.02 -0.64 0.77 0.05
1 2.23 223 0.690 -10.037 1.705 0.763 6.561 -0.671 494.978 1154.848 4094.133 -0.424 0.399 0.049 -0.02 -0.64 0.77 0.05
1 2.24 224 0.828 -9.970 1.681 1.709 5.493 -0.488 464.847 1049.916 4019.032 -0.561 0.332 0.075 -0.02 -0.64 0.77 0.05
1 2.25 225 0.848 -10.046 1.642 2.502 4.517 -0.214 464.847 1049.916 4019.032 -0.576 0.409 0.114 -0.02 -0.64 0.77 0.05
1 2.26 226 0.867 -9.932 1.690 4.059 2.869 0.793 569.929 1079.896 3989.051 -0.593 0.295 0.069 -0.02 -0.64 0.77 0.05
1 2.27 227 1.044 -9.898 1.695 4.150 2.808 1.648 419.876 1079.896 4094.133 -0.768 0.262 0.070 -0.02 -0.64 0.77 0.05
1 2.28 228 0.910 -9.802 1.724 4.395 4.425 1.526 419.876 1079.896 4094.133 -0.631 0.167 0.046 -0.02 -0.64 0.77 0.05
1 2.29 229 1.101 -9.702 1.681 3.540 7.507 1.556 554.938 1019.936 4079.143 -0.819 0.069 0.101 -0.02 -0.64 0.77 0.05
1 2.30 230 1.020 -9.673 1.657 2.686 8.881 1.282 539.948 1049.916 3989.051 -0.737 0.041 0.129 -0.02 -0.64 0.77 0.05
1 2.31 231 0.828 -9.587 1.801 1.434 9.125 0.946 584.919 1019.936 4049.012 -0.545 -0.044 -0.011 -0.02 -0.64 0.77 0.05
1 2.32 232 0.862 -9.587 1.676 0.977 9.918 0.549 584.919 1019.936 4049.012 -0.578 -0.044 0.116 -0.02 -0.64 0.77 0.05
1 2.33 233 0.857 -9.596 1.604 1.129 10.315 0.000 494.978 1229.949 4094.133 -0.573 -0.034 0.189 -0.02 -0.64 0.77 0.05
1 2.34 234 0.699 -9.682 1.700 1.526 11.627 -0.214 584.919 1139.857 3899.110 -0.414 0.052 0.094 -0.02 -0.64 0.77 0.05
1 2.35 235 0.627 -9.692 1.652 2.411 12.665 -1.709 584.919 1139.857 3899.110 -0.342 0.062 0.144 -0.02 -0.64 0.77 0.05
1 2.36 236 0.345 -9.836 1.528 5.280 14.771 -3.540 374.906 1214.958 4079.143 -0.054 0.208 0.277 -0.03 -0.64 0.77 0.05
1 2.37 237 0.441 -9.750 1.662 5.707 15.350 -3.693 569.929 1199.968 3959.071 -0.147 0.123 0.149 -0.03 -0.64 0.77 0.05
1 2.38 238 0.388 -9.826 1.638 7.660 16.419 -1.862 539.948 1124.867 3914.100 -0.093 0.201 0.182 -0.03 -0.64 0.77 0.06
1 2.39 239 0.201 -9.687 1.647 8.026 16.357 -2.716 539.948 1124.867 3914.100 0.094 0.064 0.184 -0.03 -0.64 0.77 0.06
1 2.40 240 0.460 -9.797 1.647 8.301 15.747 -2.930 599.909 1049.916 4064.002 -0.165 0.177 0.195 -0.03 -0.64 0.77 0.06
1 2.41 241 0.421 -9.975 1.920 7.111 15.198 -1.221 419.876 974.965 4019.032 -0.126 0.356 -0.068 -0.03 -0.64 0.77 0.06
1 2.42 242 0.412 -9.936 1.963 6.592 13.794 -0.031 419.876 974.965 4019.032 -0.117 0.319 -0.101 -0.03 -0.64 0.77 0.06
1 2.43 243 0.517 -9.903 1.982 7.263 13.306 1.495 674.860 1124.867 3989.051 -0.225 0.288 -0.110 -0.03 -0.64 0.77 0.06
1 2.44 244 0.594 -9.817 1.887 8.911 13.367 3.052 689.851 1169.988 4079.143 -0.311 0.206 0.010 -0.03 -0.63 0.77 0.06
1 2.45 245 0.498 -9.745 1.915 9.857 13.397 4.425 659.870 1214.958 3929.090 -0.221 0.137 -0.005 -0.03 -0.63 0.77 0.06
1 2.46 246 0.445 -9.611 1.882 10.407 14.679 5.249 659.870 1214.958 3929.090 -0.178 0.005 0.043 -0.03 -0.63 0.77 0.06
1 2.47 247 0.225 -9.702 1.695 7.080 15.350 7.050 539.948 1124.867 3989.051 0.031 0.099 0.244 -0.03 -0.63 0.77 0.06
1 2.48 248 0.306 -9.606 1.753 2.136 12.878 8.179 494.978 1124.867 3839.149 -0.065 0.004 0.195 -0.03 -0.63 0.77 0.06
1 2.49 249 0.273 -9.635 1.537 -0.122 9.918 8.698 494.978 1124.867 3839.149 -0.046 0.033 0.413 -0.04 -0.63 0.77 0.06
1 2.50 250 0.302 -9.659 1.671 -0.946 7.477 9.155 554.938 1094.887 3764.048 -0.091 0.057 0.278 -0.04 -0.63 0.77 0.06
1 2.51 251 0.551 -9.726 1.815 0.092 9.735 10.742 554.938 1169.988 4004.042 -0.370 0.122 0.129 -0.04 -0.63 0.77 0.06
1 2.52 252 0.283 -9.807 1.925 0.977 14.160 11.719 749.961 1154.848 4199.064 -0.120 0.203 0.018 -0.04 -0.63 0.77 0.06
1 2.53 253 0.101 -9.644 1.805 1.617 18.433 12.756 749.961 1154.848 4199.064 0.041 0.040 0.139 -0.04 -0.63 0.77 0.06
1 2.54 254 -0.005 -9.687 1.848 1.892 21.790 13.367 689.851 1094.887 4109.123 0.123 0.083 0.099 -0.04 -0.63 0.77 0.06
1 2.55 255 -0.019 -9.663 1.686 2.747 22.797 12.390 719.981 1004.945 3914.100 0.111 0.060 0.264 -0.04 -0.63 0.77 0.06
1 2.56 256 -0.335 -9.520 1.590 5.310 16.754 11.597 719.981 1004.945 3914.100 0.401 -0.084 0.363 -0.05 -0.63 0.77 0.06
1 2.57 257 -0.474 -9.491 1.623 5.280 10.468 11.292 749.961 1004.945 4019.032 0.514 -0.111 0.334 -0.05 -0.63 0.77 0.06
1 2.58 258 -0.335 -9.371 1.762 4.974 3.540 10.132 869.883 1019.936 4004.042 0.330 -0.229 0.207 -0.05 -0.63 0.77 0.06
1 2.59 259 0.019 -9.386 1.595 3.662 3.357 9.979 839.903 914.854 4049.012 -0.042 -0.213 0.380 -0.05 -0.63 0.77 0.06
1 2.60 260 0.086 -9.462 1.666 1.740 7.050 10.895 839.903 914.854 4049.012 -0.126 -0.136 0.310 -0.05 -0.63 0.77 0.06
1 2.61 261 0.239 -9.596 1.772 0.366 12.207 11.169 659.870 1139.857 4049.012 -0.297 -0.002 0.205 -0.05 -0.63 0.77 0.06
1 2.62 262 0.215 -9.582 1.791 0.427 18.250 11.505 734.971 1019.936 3974.061 -0.292 -0.017 0.184 -0.05 -0.63 0.77 0.06
1 2.63 263 0.024 -9.635 1.824 -1.556 25.757 11.200 734.971 1019.936 3974.061 -0.121 0.036 0.149 -0.05 -0.63 0.77 0.06
1 2.64 264 -0.206 -9.611 1.767 -2.594 29.541 10.712 764.952 1019.936 3899.110 0.087 0.011 0.203 -0.06 -0.63 0.77 0.06
1 2.65 265 -0.522 -9.649 1.733 -3.387 30.548 9.033 764.952 1019.936 3899.110 0.380 0.049 0.231 -0.06 -0.63 0.77 0.06
1 2.66 266 -0.919 -9.802 1.619 -2.747 28.442 7.111 929.994 1004.945 3989.051 0.730 0.200 0.331 -0.06 -0.63 0.77 0.06
1 2.67 267 -1.149 -9.783 1.652 -1.770 23.010 6.928 929.994 1004.945 3989.051 0.936 0.180 0.289 -0.06 -0.63 0.77 0.06
1 2.68 268 -1.341 -9.864 1.738 -0.458 17.731 7.751 854.893 1049.916 3914.100 1.104 0.261 0.198 -0.07 -0.63 0.77 0.06
1 2.69 269 -1.475 -9.697 1.566 0.366 12.787 8.423 764.952 989.955 3929.090 1.213 0.093 0.368 -0.07 -0.63 0.77 0.06
1 2.70 270 -1.403 -9.726 1.341 2.350 7.660 8.789 764.952 989.955 3929.090 1.117 0.122 0.591 -0.07 -0.63 0.77 0.06
1 2.71 271 -1.504 -9.802 1.164 3.845 3.418 10.345 869.883 1094.887 4109.123 1.194 0.199 0.766 -0.07 -0.63 0.77 0.06
1 2.72 272 -1.518 -9.716 1.164 5.127 0.824 12.177 869.883 1094.887 4109.123 1.184 0.114 0.766 -0.07 -0.63 0.77 0.06
1 2.73 273 -1.216 -9.745 1.355 4.334 0.610 11.871 869.883 1139.857 3929.090 0.829 0.145 0.578 -0.07 -0.63 0.77 0.06
1 2.74 274 -1.326 -9.778 1.360 2.655 1.312 12.543 869.883 1139.857 3929.090 0.915 0.180 0.574 -0.07 -0.63 0.77 0.06
1 2.75 275 -1.398 -9.769 1.293 1.404 0.732 13.336 899.864 1049.916 4019.032 0.962 0.171 0.640 -0.07 -0.63 0.77 0.06
1 2.76 276 -1.480 -10.123 1.259 -1.251 -0.519 12.787 899.864 929.994 3959.071 1.017 0.526 0.668 -0.07 -0.63 0.77 0.05
1 2.77 277 -1.393 -10.209 1.350 -1.282 -4.303 12.482 899.864 929.994 3959.071 0.906 0.612 0.570 -0.08 -0.63 0.77 0.05
1 2.78 278 -1.302 -10.540 1.456 1.526 -12.939 14.679 959.975 1199.968 3989.051 0.791 0.942 0.458 -0.08 -0.63 0.77 0.05
1 2.79 279 -1.039 -10.415 1.542 6.042 -18.555 16.754 959.975 1199.968 3989.051 0.503 0.818 0.368 -0.08 -0.63 0.77 0.05
1 2.80 280 -0.613 -10.324 1.872 13.031 -23.529 20.874 989.955 1064.906 3929.090 0.029 0.733 0.055 -0.08 -0.63 0.77 0.04
1 2.81 281 -0.393 -9.975 2.050 14.710 -22.125 21.820 989.955 1064.906 3929.090 -0.216 0.389 -0.102 -0.07 -0.63 0.77 0.04
1 2.82 282 -0.101 -9.826 2.035 13.336 -17.059 21.332 839.903 1064.906 4109.123 -0.532 0.247 -0.064 -0.07 -0.63 0.77 0.04
1 2.83 283 -0.038 -9.635 2.035 11.169 -9.735 20.447 929.994 1004.945 4094.133 -0.616 0.062 -0.042 -0.07 -0.63 0.77 0.04
1 2.84 284 -0.105 -9.405 1.935 8.179 -3.571 20.325 929.994 1004.945 4094.133 -0.572 -0.163 0.074 -0.07 -0.63 0.78 0.04
1 2.85 285 -0.225 -9.156 1.413 4.852 2.472 16.785 1019.936 944.984 3974.061 -0.477 -0.408 0.607 -0.08 -0.63 0.78 0.04
1 2.86 286 -0.292 -9.400 1.183 4.303 4.395 13.336 1019.936 944.984 3974.061 -0.433 -0.161 0.842 -0.08 -0.63 0.78 0.03
1 2.87 287 -0.450 -9.515 1.183 5.371 -0.336 9.399 929.994 929.994 3959.071 -0.307 -0.043 0.845 -0.08 -0.62 0.78 0.03
1 2.88 288 -0.273 -9.410 1.274 6.500 -4.578 8.148 929.994 929.994 3959.071 -0.495 -0.147 0.756 -0.08 -0.62 0.78 0.03
1 2.89 289 -0.211 -9.419 1.427 8.118 -4.700 6.042 1034.926 1004.945 4019.032 -0.563 -0.136 0.608 -0.08 -0.62 0.78 0.03
1 2.90 290 -0.115 -9.362 1.595 10.590 -0.214 5.157 1019.936 1094.887 3869.129 -0.662 -0.191 0.449 -0.08 -0.62 0.78 0.03
1 2.91 291 -0.407 -9.443 1.384 13.397 6.317 4.791 1019.936 1094.887 3869.129 -0.374 -0.107 0.673 -0.08 -0.62 0.78 0.03
1 2.92 292 -0.713 -9.400 1.216 14.404 15.076 5.157 1019.936 944.984 3899.110 -0.073 -0.146 0.855 -0.08 -0.62 0.78 0.03
1 2.93 293 -0.905 -9.304 1.403 13.977 17.273 5.066 1019.936 944.984 3899.110 0.109 -0.238 0.683 -0.08 -0.62 0.78 0.03
1 2.94 294 -1.202 -9.304 1.192 11.108 17.761 3.296 1124.867 914.854 4049.012 0.392 -0.234 0.907 -0.08 -0.62 0.78 0.03
1 2.95 295 -1.609 -9.280 0.929 7.202 13.733 1.526 1034.926 1049.916 3884.120 0.774 -0.252 1.186 -0.08 -0.62 0.78 0.04
1 2.96 296 -1.767 -9.366 0.661 5.371 6.073 -0.214 1019.936 839.903 3974.061 0.922 -0.165 1.454 -0.08 -0.62 0.78 0.04
1 2.97 297 -1.743 -9.553 0.661 5.066 -1.923 -0.580 1124.867 914.854 4004.042 0.889 0.022 1.451 -0.08 -0.62 0.78 0.04
1 2.98 298 -1.580 -9.764 0.661 5.341 -9.247 0.000 1124.867 914.854 4004.042 0.722 0.232 1.448 -0.08 -0.62 0.78 0.04
1 2.99 299 -1.298 -9.745 0.733 6.622 -14.679 2.350 989.955 914.854 4004.042 0.436 0.213 1.375 -0.08 -0.62 0.78 0.03
1 3.00 300 -1.116 -9.706 0.895 6.958 -14.526 4.730 989.955 914.854 4004.042 0.251 0.175 1.213 -0.08 -0.62 0.78 0.03
1 3.01 301 -1.097 -9.596 0.919 6.134 -12.726 5.890 1109.877 854.893 4019.032 0.227 0.066 1.192 -0.08 -0.62 0.78 0.03
1 3.02 302 -1.125 -9.352 0.675 3.357 -9.857 6.134 1079.896 779.942 3884.120 0.243 -0.177 1.438 -0.08 -0.62 0.78 0.03
1 3.03 303 -1.044 -9.381 0.378 1.953 -7.996 5.829 1004.945 929.994 4019.032 0.154 -0.148 1.731 -0.08 -0.62 0.78 0.03
1 3.04 304 -1.298 -9.295 0.225 0.854 -6.866 5.585 1124.867 869.883 3929.090 0.401 -0.235 1.876 -0.08 -0.62 0.78 0.03
1 3.05 305 -1.384 -9.247 0.024 -0.427 -7.874 5.066 1124.867 869.883 3929.090 0.478 -0.285 2.066 -0.08 -0.62 0.78 0.03
1 3.06 306 -1.365 -9.189 0.038 -1.465 -10.162 4.700 1004.945 899.864 3884.120 0.450 -0.345 2.038 -0.08 -0.62 0.78 0.03
1 3.07 307 -1.403 -9.232 0.077 -4.913 -13.763 2.411 1004.945 899.864 3884.120 0.481 -0.304 1.983 -0.08 -0.62 0.78 0.03
1 3.08 308 -1.393 -9.338 0.177 -6.928 -15.900 -0.092 1004.945 854.893 4019.032 0.467 -0.203 1.863 -0.08 -0.62 0.78 0.03
1 3.09 309 -1.437 -9.462 0.215 -6.622 -18.646 -2.930 1034.926 779.942 3809.019 0.514 -0.087 1.784 -0.08 -0.63 0.78 0.02
1 3.10 310 -1.413 -9.635 0.579 -4.639 -17.700 -4.669 944.984 839.903 3824.009 0.496 0.081 1.400 -0.08 -0.63 0.77 0.02
1 3.11 311 -1.365 -10.319 0.546 -1.526 -10.071 -12.817 1019.936 914.854 3929.090 0.458 0.761 1.419 -0.08 -0.63 0.77 0.02
1 3.12 312 -1.542 -10.875 0.814 1.648 -3.265 -17.792 1019.936 914.854 3929.090 0.657 1.313 1.141 -0.08 -0.63 0.77 0.02
1 3.13 313 -1.748 -10.937 1.619 -0.671 -8.942 -12.512 1004.945 899.864 3914.100 0.887 1.372 0.334 -0.08 -0.63 0.77 0.02
1 3.14 314 -1.609 -11.947 1.705 -11.993 -11.566 -22.949 1004.945 899.864 3914.100 0.769 2.380 0.245 -0.07 -0.63 0.77 0.02
1 3.15 315 -1.465 -12.853 1.896 -13.031 -15.839 -28.473 1034.926 704.991 3914.100 0.656 3.280 0.040 -0.07 -0.63 0.77 0.02
1 3.16 316 -1.312 -11.780 3.180 2.991 -34.119 16.785 869.883 869.883 3899.110 0.568 2.197 -1.268 -0.07 -0.63 0.77 0.02
1 3.17 317 -1.111 -11.253 3.184 12.512 -32.288 22.400 959.975 854.893 4019.032 0.348 1.675 -1.257 -0.07 -0.63 0.77 0.02
1 3.18 318 -1.173 -10.070 2.619 36.316 -19.745 27.466 929.994 929.994 3989.051 0.382 0.503 -0.649 -0.07 -0.63 0.77 0.02
1 3.19 319 -1.451 -9.496 2.457 26.947 -16.296 30.426 929.994 929.994 3989.051 0.622 -0.057 -0.430 -0.07 -0.63 0.78 0.02
1 3.20 320 -1.729 -9.505 2.241 4.089 -19.196 27.954 929.994 974.965 3989.051 0.858 -0.035 -0.178 -0.07 -0.62 0.78 0.02
1 3.21 321 -1.848 -9.821 1.757 -21.698 -32.959 25.299 929.994 974.965 3989.051 0.938 0.285 0.308 -0.07 -0.62 0.78 0.01
1 3.22 322 -1.753 -9.601 1.844 -23.346 -46.875 24.963 914.854 794.932 3899.110 0.808 0.063 0.197 -0.07 -0.63 0.78 0.01
1 3.23 323 -1.427 -9.678 1.959 -14.832 -60.425 23.285 944.984 989.955 3794.028 0.452 0.136 0.051 -0.07 -0.63 0.78 0.01
1 3.24 324 -0.718 -9.410 2.413 1.404 -72.083 18.311 854.893 899.864 3959.071 -0.291 -0.133 -0.421 0.06 0.63 -0.78 0
1 3.25 325 -0.192 -9.094 2.548 8.423 -70.648 13.947 839.903 869.883 3824.009 -0.819 -0.445 -0.537 0.06 0.63 -0.78 0.01
1 3.26 326 0.302 -9.007 2.777 10.407 -62.439 10.376 839.903 869.883 3824.009 -1.306 -0.526 -0.739 0.06 0.63 -0.78 0.01
1 3.27 327 0.699 -8.945 2.911 8.362 -52.216 6.134 824.913 824.913 3989.051 -1.689 -0.583 -0.844 0.05 0.63 -0.78 0.01
1 3.28 328 1.034 -8.902 3.002 1.465 -42.084 0.031 824.913 824.913 3989.051 -2.004 -0.623 -0.910 0.05 0.62 -0.78 0.02
1 3.29 329 1.269 -9.050 3.098 -3.174 -40.375 -3.784 854.893 824.913 3839.149 -2.212 -0.473 -0.988 0.05 0.62 -0.78 0.02
1 3.30 330 1.465 -9.266 3.285 -8.148 -42.145 -4.089 659.870 839.903 3899.110 -2.376 -0.258 -1.164 0.05 0.62 -0.78 0.02
1 3.31 331 1.719 -9.170 3.208 -9.003 -44.769 -5.890 764.952 839.903 3899.110 -2.555 -0.360 -1.082 0.04 0.62 -0.78 0.02
1 3.32 332 1.872 -9.098 3.290 -7.477 -43.640 -6.561 539.948 749.961 3914.100 -2.666 -0.435 -1.162 0.04 0.62 -0.78 0.02
1 3.33 333 2.145 -8.844 3.352 -4.089 -40.863 -6.683 539.948 749.961 3914.100 -2.895 -0.691 -1.218 0.03 0.62 -0.78 0.02
1 3.34 334 2.313 -8.567 3.204 -1.587 -34.393 -6.561 599.909 974.965 3914.100 -3.020 -0.970 -1.060 0.03 0.62 -0.78 0.02
1 3.35 335 2.610 -8.370 3.060 -2.716 -25.238 -9.552 599.909 974.965 3914.100 -3.275 -1.167 -0.905 0.03 0.62 -0.78 0.02
1 3.36 336 2.940 -8.385 2.706 -6.104 -10.407 -16.235 689.851 839.903 4004.042 -3.559 -1.154 -0.544 0.02 0.62 -0.78 0.02
1 3.37 337 3.132 -8.677 2.361 -9.186 -1.465 -21.698 494.978 824.913 3839.149 -3.699 -0.865 -0.199 0.02 0.62 -0.78 0.02
1 3.38 338 2.753 -8.897 2.389 -11.444 7.080 -27.893 389.896 1004.945 3884.120 -3.201 -0.655 -0.246 0.02 0.62 -0.78 0.01
1 3.39 339 2.356 -9.108 2.500 -12.299 10.162 -31.525 404.886 839.903 3869.129 -2.740 -0.450 -0.371 0.02 0.63 -0.78 0.01
1 3.40 340 1.982 -9.467 2.471 -13.458 13.306 -37.201 404.886 839.903 3869.129 -2.301 -0.097 -0.358 0.02 0.63 -0.78 0.01
1 3.41 341 1.489 -9.802 2.476 -13.031 17.975 -40.192 569.929 899.864 4019.032 -1.739 0.232 -0.379 0.01 0.63 -0.78 0
1 3.42 342 0.967 -10.051 2.667 -13.031 18.433 -39.337 569.929 899.864 4019.032 -1.149 0.476 -0.587 -0.01 -0.63 0.78 0
1 3.43 343 0.517 -10.066 2.485 -13.611 10.712 -33.173 494.978 929.994 4064.002 -0.638 0.486 -0.422 -0.01 -0.63 0.78 0.01
1 3.44 344 0.517 -10.090 2.528 -11.810 4.059 -30.853 449.857 944.984 3929.090 -0.586 0.506 -0.482 -0.01 -0.63 0.78 0.01
1 3.45 345 0.608 -10.046 2.615 -8.331 -2.930 -28.839 449.857 944.984 3929.090 -0.629 0.459 -0.583 -0.01 -0.63 0.78 0.01
1 3.46 346 0.838 -9.903 2.428 -2.075 -9.338 -25.482 299.955 989.955 4079.143 -0.765 0.313 -0.412 -0.01 -0.63 0.78 0.02
1 3.47 347 0.881 -9.769 2.490 0.183 -9.583 -23.010 299.955 989.955 4079.143 -0.763 0.179 -0.474 -0.01 -0.63 0.78 0.02
1 3.48 348 0.963 -9.601 2.485 -0.549 -6.805 -18.860 404.886 839.903 4049.012 -0.804 0.013 -0.466 -0 -0.63 0.78 0.02
1 3.49 349 0.886 -9.491 2.399 -4.639 -2.075 -14.771 404.886 839.903 4049.012 -0.693 -0.097 -0.379 -0 -0.63 0.78 0.02
1 3.50 350 0.493 -9.548 2.260 -8.698 1.312 -7.996 374.906 869.883 3929.090 -0.274 -0.040 -0.245 -0 -0.63 0.78 0.02
1 3.51 351 0.139 -9.606 2.064 -7.599 -2.472 -5.432 479.987 869.883 3869.129 0.097 0.016 -0.059 -0 -0.63 0.78 0.02
1 3.52 352 -0.053 -9.347 1.949 -4.669 -9.491 -2.838 479.987 869.883 3869.129 0.299 -0.244 0.045 -0 -0.63 0.78 0.02
1 3.53 353 0.129 -9.333 1.619 -0.732 -22.644 -3.357 224.854 914.854 3974.061 0.129 -0.261 0.364 -0 -0.63 0.78 0.02
1 3.54 354 0.464 -9.472 1.729 0.641 -28.076 -4.425 224.854 914.854 3974.061 -0.194 -0.122 0.251 0 -0.63 0.77 0.02
1 3.55 355 0.824 -9.433 1.714 -0.275 -30.945 -3.845 404.886 869.883 3974.061 -0.538 -0.161 0.264 0 -0.63 0.77 0.02
1 3.56 356 1.154 -9.534 1.901 -1.007 -31.342 -2.411 404.886 869.883 3974.061 -0.850 -0.060 0.074 0 -0.63 0.77 0.02
1 3.57 357 1.475 -9.572 1.906 -2.655 -30.518 -1.862 419.876 854.893 3839.149 -1.153 -0.022 0.065 0.01 -0.63 0.77 0.02
1 3.58 358 1.959 -9.596 1.853 -4.944 -26.398 -3.235 239.994 854.893 3989.051 -1.616 0.001 0.111 0.01 -0.63 0.77 0.02
1 3.59 359 2.327 -9.611 1.925 -4.730 -23.163 -4.303 239.994 854.893 3989.051 -1.960 0.015 0.031 0.01 -0.63 0.77 0.02
1 3.60 360 2.696 -9.376 1.633 -2.136 -18.585 -6.531 314.945 854.893 4094.133 -2.274 -0.221 0.307 0.01 -0.63 0.77 0.02
1 3.61 361 2.983 -9.242 1.475 1.038 -13.580 -7.446 314.945 854.893 4094.133 -2.529 -0.354 0.461 0.02 -0.63 0.77 0.02
1 3.62 362 3.084 -9.184 1.360 4.517 -6.531 -10.376 89.941 869.883 4049.012 -2.595 -0.410 0.575 0.02 -0.63 0.77 0.02
1 3.63 363 3.204 -8.897 1.221 7.324 2.960 -10.956 89.941 869.883 4049.012 -2.679 -0.695 0.718 0.02 -0.63 0.77 0.02
1 3.64 364 3.050 -9.050 0.814 10.284 22.797 -13.184 119.922 944.984 4109.123 -2.490 -0.538 1.133 0.02 -0.63 0.77 0.02
1 3.65 365 2.658 -9.304 0.555 15.595 34.058 -13.397 194.873 1019.936 4004.042 -2.066 -0.280 1.403 0.02 -0.63 0.77 0.02
1 3.66 366 2.145 -9.424 0.680 20.477 40.070 -13.702 194.873 1019.936 4004.042 -1.525 -0.155 1.294 0.02 -0.63 0.77 0.03
1 3.67 367 1.662 -9.529 1.025 23.651 36.774 -15.595 314.945 974.965 4019.032 -0.999 -0.036 1.000 0.02 -0.63 0.78 0.03
1 3.68 368 1.451 -9.352 1.274 20.966 31.220 -15.686 314.945 974.965 4019.032 -0.768 -0.206 0.780 0.01 -0.63 0.78 0.04
1 3.69 369 1.551 -9.132 1.647 14.496 26.581 -12.634 179.883 749.961 3959.071 -0.850 -0.419 0.432 0.01 -0.63 0.78 0.04
1 3.70 370 1.662 -8.964 1.666 4.944 27.283 -11.536 179.883 749.961 3959.071 -0.944 -0.582 0.430 0.01 -0.63 0.78 0.04
1 3.71 371 1.748 -9.252 1.427 -2.319 32.257 -12.085 209.863 779.942 3989.051 -1.015 -0.292 0.675 0.01 -0.63 0.78 0.04
1 3.72 372 1.805 -9.544 0.867 -3.845 38.757 -8.545 149.902 914.854 4049.012 -1.059 -0.000 1.229 0.01 -0.63 0.78 0.05
1 3.73 373 1.772 -9.611 0.781 0.122 41.748 -4.395 149.902 914.854 4049.012 -1.015 0.065 1.306 0.01 -0.63 0.78 0.05
1 3.74 374 1.863 -9.481 0.804 2.319 40.222 -1.221 59.961 854.893 4064.002 -1.104 -0.065 1.276 0.01 -0.63 0.78 0.05
1 3.75 375 1.781 -9.175 0.814 0.488 38.147 2.045 149.902 794.932 4109.123 -1.029 -0.373 1.263 0 -0.63 0.78 0.06
1 3.76 376 1.863 -8.955 0.675 -4.120 35.156 3.448 299.955 719.981 4214.055 -1.118 -0.595 1.397 0 -0.63 0.78 0.06
1 3.77 377 1.911 -8.801 0.508 -9.491 32.227 6.012 299.955 719.981 4214.055 -1.173 -0.751 1.552 0 -0.63 0.78 0.06
1 3.78 378 2.107 -8.806 0.072 -12.848 30.731 7.782 224.854 839.903 3974.061 -1.380 -0.752 1.965 -0 -0.63 0.77 0.06
1 3.79 379 2.299 -9.108 -0.249 -6.409 31.403 9.522 314.945 749.961 3959.071 -1.583 -0.457 2.258 -0 -0.63 0.77 0.06
1 3.80 380 2.303 -9.429 0.177 2.930 35.736 12.054 314.945 749.961 3959.071 -1.600 -0.142 1.808 -0 -0.63 0.77 0.06
1 3.81 381 2.471 -9.893 1.235 13.580 45.197 5.402 479.987 869.883 3974.061 -1.783 0.319 0.738 -0.01 -0.63 0.77 0.06
1 3.82 382 2.078 -11.124 3.175 20.508 69.000 -18.219 239.994 824.913 4094.133 -1.404 1.557 -1.162 -0.01 -0.63 0.77 0.07
1 3.83 383 1.073 -11.564 4.640 11.108 78.888 -27.130 464.847 974.965 4094.133 -0.390 2.005 -2.593 -0.01 -0.63 0.77 0.07
1 3.84 384 -0.287 -11.914 5.172 -4.395 84.046 -34.638 464.847 974.965 4094.133 0.987 2.360 -3.104 -0.02 -0.63 0.77 0.08
1 3.85 385 -1.135 -12.426 4.238 -13.886 75.104 -35.401 374.906 764.952 4079.143 1.860 2.874 -2.172 -0.02 -0.63 0.77 0.08
1 3.86 386 -1.724 -12.556 2.442 -9.430 47.363 -23.590 404.886 839.903 3929.090 2.476 3.003 -0.389 -0.02 -0.63 0.77 0.09
1 3.87 387 -1.690 -11.464 1.307 17.059 -13.825 3.906 404.886 839.903 3929.090 2.458 1.911 0.741 -0.02 -0.63 0.77 0.09
1 3.88 388 -0.694 -10.252 1.729 26.886 -46.021 13.184 494.978 749.961 4064.002 1.463 0.703 0.337 -0.02 -0.63 0.77 0.09
1 3.89 389 1.116 -9.055 2.514 7.416 -61.463 9.644 494.978 854.893 3959.071 -0.360 -0.483 -0.394 -0.02 -0.63 0.78 0.08
1 3.90 390 2.126 -9.237 3.285 -20.203 -53.284 10.132 464.847 824.913 4124.113 -1.364 -0.301 -1.169 -0.02 -0.63 0.78 0.08
1 3.91 391 2.653 -9.462 3.855 -46.082 -33.020 15.595 464.847 824.913 4124.113 -1.883 -0.084 -1.776 -0.01 -0.63 0.77 0.08
1 3.92 392 2.940 -9.520 3.706 -60.303 -7.141 19.379 494.978 749.961 3989.051 -2.174 -0.040 -1.693 -0.01 -0.63 0.77 0.08
1 3.93 393 2.734 -9.841 3.457 -57.800 16.754 20.538 359.916 824.913 3914.100 -1.980 0.264 -1.520 -0.01 -0.63 0.77 0.08
1 3.94 394 1.791 -9.979 3.012 -25.024 36.865 20.233 359.916 824.913 3914.100 -1.058 0.388 -1.139 -0.01 -0.64 0.77 0.08
1 3.95 395 1.159 -9.893 3.036 5.493 41.260 19.043 389.896 854.893 4064.002 -0.453 0.293 -1.198 -0.02 -0.64 0.77 0.08
1 3.96 396 0.220 -9.146 3.232 35.706 46.051 15.015 359.916 824.913 4169.084 0.416 -0.448 -1.337 -0.02 -0.63 0.77 0.08
1 3.97 397 -0.081 -8.907 3.060 38.574 48.676 11.993 554.938 944.984 4049.012 0.682 -0.676 -1.096 -0.02 -0.63 0.77 0.08
1 3.98 398 -0.838 -8.385 2.701 24.933 49.896 3.143 554.938 944.984 4049.012 1.405 -1.186 -0.672 -0.03 -0.63 0.77 0.08
1 3.99 399 -1.307 -8.337 2.504 6.073 44.006 -2.838 539.948 704.991 4124.113 1.848 -1.227 -0.434 -0.03 -0.63 0.77 0.08
1 4.00 400 -1.987 -8.576 2.279 -11.383 31.555 -5.737 554.938 869.883 4049.012 2.520 -0.986 -0.204 -0.03 -0.63 0.77 0.08
1 4.01 401 -2.777 -8.806 2.370 -23.560 7.385 -3.021 554.938 869.883 4049.012 3.293 -0.761 -0.310 -0.03 -0.63 0.77 0.08
1 4.02 402 -2.940 -8.754 2.308 -21.729 -6.531 -0.336 644.880 929.994 4094.133 3.435 -0.821 -0.277 -0.04 -0.63 0.77 0.08
1 4.03 403 -2.806 -9.084 2.313 -12.695 -14.282 2.533 719.981 929.994 4064.002 3.279 -0.498 -0.311 -0.04 -0.63 0.77 0.08
1 4.04 404 -2.222 -9.347 2.495 -1.221 -18.524 8.698 584.919 914.854 4214.055 2.644 -0.242 -0.520 -0.04 -0.63 0.77 0.08
1 4.05 405 -1.915 -9.453 2.581 1.801 -19.013 16.663 584.919 914.854 4214.055 2.306 -0.138 -0.602 -0.04 -0.63 0.77 0.08
1 4.06 406 -1.513 -9.797 2.543 -0.885 -17.059 24.078 404.886 914.854 4154.094 1.864 0.207 -0.558 -0.04 -0.63 0.77 0.07
1 4.07 407 -0.996 -9.845 2.476 -6.104 -14.587 30.335 449.857 794.932 4184.074 1.299 0.253 -0.490 -0.04 -0.63 0.77 0.07
1 4.08 408 -0.474 -9.908 2.112 -15.076 -13.763 36.347 449.857 794.932 4184.074 0.724 0.312 -0.135 -0.04 -0.63 0.77 0.07
1 4.09 409 -0.306 -10.061 2.006 -18.219 -14.008 35.339 644.880 974.965 4064.002 0.501 0.460 -0.048 -0.04 -0.63 0.77 0.06
1 4.10 410 -0.263 -10.252 2.260 -16.815 -16.205 34.546 554.938 944.984 4109.123 0.405 0.646 -0.327 -0.04 -0.63 0.77 0.06
1 4.11 411 -0.081 -9.989 2.600 -10.834 -19.745 34.027 599.909 899.864 4244.035 0.126 0.373 -0.711 -0.04 -0.63 0.77 0.05
1 4.12 412 -0.139 -9.783 2.514 -5.157 -19.165 31.555 599.909 899.864 4244.035 0.138 0.165 -0.635 -0.04 -0.63 0.77 0.05
1 4.13 413 -0.110 -9.467 2.155 -0.122 -17.426 28.198 599.909 974.965 4244.035 0.069 -0.151 -0.277 -0.04 -0.63 0.77 0.05
1 4.14 414 -0.201 -9.041 1.724 2.625 -16.724 25.452 554.938 839.903 4214.055 0.124 -0.576 0.159 -0.04 -0.63 0.77 0.05
1 4.15 415 -0.235 -8.730 1.456 1.923 -16.571 22.369 554.938 839.903 4214.055 0.125 -0.886 0.431 -0.04 -0.63 0.77 0.04
1 4.16 416 -0.211 -8.749 1.288 -4.669 -15.350 16.449 734.971 839.903 4259.025 0.074 -0.867 0.599 -0.04 -0.63 0.77 0.04
1 4.17 417 -0.043 -8.935 1.326 -9.827 -13.611 12.482 554.938 839.903 4334.126 -0.115 -0.681 0.556 -0.04 -0.63 0.77 0.04
1 4.18 418 -0.034 -9.390 1.322 -13.245 -10.559 10.193 599.909 899.864 4124.113 -0.153 -0.232 0.525 -0.04 -0.64 0.77 0.04
1 4.19 419 0.115 -9.702 1.609 -10.010 -8.240 8.362 599.909 899.864 4124.113 -0.312 0.075 0.215 -0.04 -0.64 0.77 0.04
1 4.20 420 0.072 -9.994 1.829 -4.120 -3.906 7.019 569.929 1004.945 4199.064 -0.277 0.364 -0.020 -0.04 -0.64 0.77 0.04
1 4.21 421 0.029 -10.142 2.035 2.075 -0.214 6.256 659.870 839.903 4214.055 -0.241 0.512 -0.230 -0.04 -0.64 0.77 0.03
1 4.22 422 -0.110 -10.243 2.275 7.080 3.906 6.409 659.870 839.903 4214.055 -0.110 0.614 -0.464 -0.04 -0.64 0.77 0.03
1 4.23 423 -0.335 -10.171 2.217 9.277 9.369 6.989 569.929 899.864 4349.117 0.106 0.545 -0.393 -0.04 -0.64 0.77 0.03
1 4.24 424 -0.718 -9.979 1.887 12.451 10.223 7.416 539.948 1004.945 4274.016 0.477 0.357 -0.047 -0.04 -0.64 0.77 0.03
1 4.25 425 -0.963 -9.678 1.317 17.731 8.209 6.042 539.948 1004.945 4274.016 0.706 0.059 0.542 -0.05 -0.63 0.77 0.03
1 4.26 426 -1.288 -9.462 0.728 21.698 -1.465 3.754 674.860 899.864 4169.084 1.003 -0.146 1.179 -0.05 -0.63 0.77 0.03
1 4.27 427 -1.499 -9.141 0.589 21.393 -11.139 2.258 569.929 854.893 4019.032 1.203 -0.462 1.343 -0.05 -0.63 0.77 0.03
1 4.28 428 -1.609 -9.299 0.699 16.724 -19.318 0.824 554.938 869.883 4184.074 1.305 -0.299 1.254 -0.05 -0.63 0.77 0.03
1 4.29 429 -1.259 -9.266 0.718 10.864 -25.177 -0.244 554.938 869.883 4184.074 0.951 -0.330 1.249 -0.05 -0.63 0.77 0.03
1 4.30 430 -1.317 -9.606 0.963 2.106 -25.574 1.434 599.909 1004.945 4124.113 1.009 0.011 1.010 -0.04 -0.63 0.77 0.03
1 4.31 431 -1.240 -9.788 1.087 1.373 -24.841 3.326 749.961 824.913 4199.064 0.931 0.193 0.883 -0.04 -0.63 0.77 0.03
1 4.32 432 -1.432 -9.898 1.082 4.822 -23.621 7.294 749.961 824.913 4199.064 1.119 0.302 0.884 -0.04 -0.63 0.77 0.03
1 4.33 433 -1.561 -9.773 0.752 11.200 -25.360 13.001 569.929 779.942 4169.084 1.222 0.180 1.221 -0.04 -0.63 0.77 0.02
1 4.34 434 -1.451 -9.596 0.632 14.893 -28.381 15.625 719.981 899.864 4244.035 1.090 0.006 1.352 -0.04 -0.63 0.78 0.02
1 4.35 435 -1.408 -9.615 0.536 16.510 -33.142 16.968 509.968 839.903 4334.126 1.025 0.029 1.462 -0.04 -0.63 0.78 0.02
1 4.36 436 -1.317 -9.457 0.374 16.876 -37.659 18.066 509.968 839.903 4334.126 0.912 -0.125 1.641 -0.04 -0.63 0.78 0.02
1 4.37 437 -1.058 -9.151 0.484 14.252 -42.236 18.402 449.857 839.903 4154.094 0.632 -0.427 1.545 -0.04 -0.63 0.78 0.01
1 4.38 438 -0.761 -8.854 0.484 7.996 -46.845 16.693 539.948 779.942 4094.133 0.316 -0.721 1.557 -0.04 -0.63 0.78 0.01
1 4.39 439 -0.632 -8.945 0.431 3.326 -46.845 14.404 539.948 779.942 4094.133 0.171 -0.628 1.616 -0.03 -0.63 0.78 0.01
1 4.40 440 -0.062 -9.127 0.350 0.763 -42.420 13.611 644.880 674.860 4064.002 -0.416 -0.446 1.692 -0.03 -0.63 0.78 0
1 4.41 441 -0.101 -9.208 0.512 0.641 -39.215 14.587 599.909 899.864 4169.084 -0.383 -0.366 1.522 0.03 0.63 -0.78 0
1 4.42 442 0.000 -9.031 0.766 0.519 -35.462 14.343 404.886 839.903 4259.025 -0.491 -0.544 1.261 0.03 0.63 -0.78 0
1 4.43 443 -0.014 -8.739 0.862 -0.854 -31.525 12.878 404.886 839.903 4259.025 -0.484 -0.837 1.159 0.03 0.63 -0.78 0.01
1 4.44 444 -0.215 -8.883 0.560 -1.495 -19.775 6.683 359.916 704.991 4199.064 -0.290 -0.694 1.458 0.03 0.63 -0.78 0.01
1 4.45 445 -0.340 -9.194 0.211 1.282 -12.177 1.465 284.964 749.961 4169.084 -0.168 -0.383 1.804 0.03 0.63 -0.78 0.01
1 4.46 446 -0.761 -9.395 0.230 5.035 -5.890 -3.967 284.964 749.961 4169.084 0.255 -0.184 1.777 0.02 0.63 -0.78 0.01
1 4.47 447 -1.106 -9.965 0.532 10.529 -0.549 -13.550 509.968 869.883 4109.123 0.618 0.384 1.469 0.02 0.63 -0.78 0.01
1 4.48 448 -1.216 -10.870 0.795 11.322 1.373 -20.264 419.876 749.961 4124.113 0.746 1.289 1.211 0.02 0.63 -0.78 0.01
1 4.49 449 -1.020 -11.531 1.547 4.761 -6.073 -23.193 269.974 839.903 4214.055 0.579 1.950 0.468 0.02 0.63 -0.78 0.01
1 4.50 450 -0.469 -12.201 2.318 -8.179 -19.959 -22.217 269.974 839.903 4214.055 0.065 2.620 -0.300 0.02 0.63 -0.78 0.01
1 4.51 451 0.613 -13.279 3.074 -17.487 -32.166 -17.914 479.987 839.903 4049.012 -0.978 3.693 -1.071 0.02 0.63 -0.78 0.01
1 4.52 452 1.882 -12.915 3.400 9.247 -30.243 11.536 389.896 824.913 4094.133 -2.215 3.323 -1.420 0.02 0.63 -0.78 0.01
1 4.53 453 2.217 -11.555 3.256 45.685 -8.514 24.658 389.896 824.913 4094.133 -2.548 1.963 -1.273 0.02 0.63 -0.78 0.01
1 4.54 454 1.508 -9.821 3.041 65.003 16.571 28.870 329.935 764.952 4154.094 -1.868 0.242 -1.003 0.02 0.63 -0.78 0.01
1 4.55 455 -0.153 -8.619 3.477 26.886 42.328 20.447 389.896 704.991 3989.051 -0.288 -0.917 -1.264 0.02 0.62 -0.78 0.01
1 4.56 456 -1.312 -9.204 3.457 -23.590 48.248 10.407 404.886 794.932 4154.094 0.834 -0.325 -1.217 0.02 0.62 -0.78 0.01
1 4.57 457 -2.480 -10.109 2.849 -62.226 41.016 10.925 404.886 794.932 4154.094 1.968 0.572 -0.653 0.03 0.62 -0.78 0.01
1 4.58 458 -3.227 -10.664 2.222 -73.792 20.630 17.822 359.916 599.909 4124.113 2.679 1.107 -0.124 0.03 0.63 -0.78 0.01
1 4.59 459 -3.409 -10.837 1.700 -36.377 -17.120 20.630 389.896 749.961 4064.002 2.829 1.259 0.293 0.03 0.63 -0.78 0.01
1 4.60 460 -2.806 -10.564 1.710 1.434 -40.650 21.210 389.896 749.961 4064.002 2.198 0.974 0.218 0.03 0.63 -0.77 0.01
1 4.61 461 -2.169 -9.970 1.844 28.442 -56.214 22.614 389.896 779.942 4064.002 1.541 0.380 0.076 0.03 0.63 -0.77 0.01
1 4.62 462 -0.809 -9.007 2.461 37.598 -65.247 20.660 539.948 854.893 4274.016 0.140 -0.559 -0.442 0.03 0.63 -0.78 0.02
1 4.63 463 0.029 -8.548 2.964 26.489 -62.317 13.794 464.847 929.994 4244.035 -0.708 -1.005 -0.884 0.03 0.63 -0.78 0.02
1 4.64 464 0.948 -8.528 3.520 12.085 -55.969 6.409 464.847 929.994 4244.035 -1.622 -1.014 -1.393 0.02 0.63 -0.78 0.03
1 4.65 465 1.494 -8.792 4.065 1.801 -50.141 3.693 314.945 779.942 4124.113 -2.148 -0.745 -1.909 0.02 0.62 -0.78 0.03
1 4.66 466 2.006 -8.926 4.228 -5.676 -44.830 3.082 539.948 704.991 4124.113 -2.634 -0.609 -2.053 0.02 0.62 -0.78 0.03
1 4.67 467 2.562 -9.275 4.094 -4.486 -36.591 3.143 539.948 704.991 4124.113 -3.161 -0.259 -1.909 0.01 0.62 -0.78 0.03
1 4.68 468 2.806 -8.883 3.620 3.510 -31.677 4.822 179.883 749.961 4199.064 -3.376 -0.651 -1.426 0.01 0.62 -0.78 0.03
1 4.69 469 3.031 -8.131 3.654 16.937 -18.372 3.357 224.854 764.952 4184.074 -3.546 -1.395 -1.410 0.01 0.62 -0.78 0.03
1 4.70 470 3.055 -7.829 3.496 17.548 -2.411 -3.418 239.994 899.864 3989.051 -3.541 -1.689 -1.213 0.01 0.62 -0.78 0.03
1 4.71 471 2.729 -7.911 3.328 8.789 16.510 -10.986 239.994 899.864 3989.051 -3.183 -1.601 -1.011 0.01 0.62 -0.79 0.03
1 4.72 472 2.241 -8.059 2.897 -6.409 30.792 -18.768 194.873 614.899 4079.143 -2.658 -1.450 -0.563 0.01 0.62 -0.79 0.03
1 4.73 473 1.647 -8.490 2.615 -22.308 36.804 -25.055 284.964 674.860 4094.133 -2.025 -1.023 -0.291 0.01 0.62 -0.79 0.02
1 4.74 474 1.030 -9.161 2.351 -35.401 27.252 -32.654 284.964 674.860 4094.133 -1.366 -0.362 -0.062 0.01 0.62 -0.79 0.02
1 4.75 475 0.824 -9.625 2.260 -32.318 13.794 -37.872 359.916 599.909 4019.032 -1.113 0.089 -0.020 0.01 0.62 -0.78 0.02
1 4.76 476 0.527 -10.267 2.380 -12.238 -3.082 -45.624 179.883 674.860 4199.064 -0.692 0.709 -0.222 0 0.62 -0.78 0.01
1 4.77 477 0.560 -10.257 2.524 -3.876 -7.446 -46.936 239.994 749.961 4124.113 -0.651 0.695 -0.377 0 0.62 -0.78 0.01
1 4.78 478 0.632 -10.243 3.084 16.968 -14.740 -42.297 239.994 749.961 4124.113 -0.647 0.684 -0.923 -0 0.62 -0.78 0
1 4.79 479 0.627 -9.826 3.371 19.074 -13.672 -36.255 194.873 689.851 4289.006 -0.572 0.275 -1.179 -0 0.62 -0.78 0
1 4.80 480 0.876 -9.366 3.132 13.489 -8.209 -30.182 104.932 779.942 4199.064 -0.762 -0.177 -0.906 0.01 -0.62 0.78 0
1 4.81 481 1.063 -8.859 2.447 -0.793 4.456 -21.545 104.932 779.942 4199.064 -0.900 -0.678 -0.198 0.01 -0.62 0.78 0
1 4.82 482 1.039 -8.835 1.959 -7.050 7.751 -17.975 194.873 689.851 4214.055 -0.837 -0.700 0.298 0.01 -0.62 0.78 0
1 4.83 483 1.125 -8.821 1.772 -9.216 7.446 -16.205 194.873 689.851 4214.055 -0.892 -0.715 0.478 0.01 -0.62 0.78 0.01
1 4.84 484 1.140 -8.859 2.083 -5.707 1.984 -16.235 59.961 674.860 4124.113 -0.850 -0.681 0.140 0.01 -0.62 0.78 0.01
1 4.85 485 0.967 -8.782 2.284 -5.890 -4.242 -17.548 59.961 674.860 4124.113 -0.648 -0.759 -0.071 0.01 -0.62 0.78 0.01
1 4.86 486 1.039 -8.888 2.428 -8.728 -7.904 -18.250 59.961 704.991 4274.016 -0.686 -0.655 -0.224 0.01 -0.62 0.78 0.01
1 4.87 487 1.235 -9.055 2.399 -11.139 -8.423 -18.097 0.000 704.991 4244.035 -0.847 -0.489 -0.207 0.01 -0.62 0.78 0.01
1 4.88 488 1.513 -9.596 2.241 -9.674 -4.852 -14.954 0.000 704.991 4244.035 -1.090 0.051 -0.063 0.02 -0.62 0.78 0.01
1 4.89 489 1.638 -9.443 2.145 -4.730 -4.120 -12.024 89.941 794.932 4334.126 -1.182 -0.104 0.019 0.02 -0.62 0.78 0.02
1 4.90 490 1.781 -9.261 1.968 -1.526 -3.479 -9.644 89.941 794.932 4334.126 -1.297 -0.286 0.188 0.02 -0.62 0.78 0.02
1 4.91 491 2.284 -8.969 1.642 -2.167 -4.059 -8.392 -89.941 719.981 4184.074 -1.751 -0.578 0.506 0.02 -0.62 0.78 0.02
1 4.92 492 2.662 -8.744 1.317 -7.233 -3.235 -8.545 -89.941 719.981 4184.074 -2.103 -0.803 0.824 0.02 -0.62 0.78 0.02
1 4.93 493 2.892 -8.653 1.216 -14.130 0.671 -9.460 0.000 629.890 4274.016 -2.304 -0.896 0.906 0.02 -0.63 0.78 0.02
1 4.94 494 3.151 -8.639 1.135 -18.555 6.744 -12.116 -44.971 839.903 4214.055 -2.531 -0.915 0.960 0.02 -0.63 0.78 0.02
1 4.95 495 3.117 -8.844 1.053 -19.836 15.503 -13.977 -44.971 839.903 4214.055 -2.462 -0.714 1.008 0.02 -0.63 0.78 0.02
1 4.96 496 2.720 -8.787 1.317 -14.282 27.008 -9.735 -104.932 824.913 4244.035 -2.031 -0.776 0.712 0.02 -0.63 0.78 0.03
1 4.97 497 2.361 -8.844 1.288 -8.209 34.821 -10.071 -104.932 824.913 4244.035 -1.647 -0.722 0.716 0.02 -0.63 0.78 0.03
1 4.98 498 1.695 -9.275 0.733 5.249 51.148 -19.043 -104.932 749.961 4304.146 -0.945 -0.292 1.254 0.02 -0.63 0.77 0.03
1 4.99 499 1.446 -9.553 0.536 14.526 55.390 -22.095 -104.932 749.961 4304.146 -0.674 -0.010 1.460 0.02 -0.63 0.77 0.04
1 5.00 500 0.584 -9.366 0.666 18.433 50.476 -17.456 89.941 794.932 4259.025 0.206 -0.191 1.350 0.02 -0.63 0.78 0.04
1 5.01 501 0.273 -9.094 0.867 15.106 43.884 -15.595 44.971 764.952 4259.025 0.526 -0.459 1.171 0.02 -0.63 0.78 0.05
1 5.02 502 0.091 -9.218 0.661 6.500 35.919 -16.235 44.971 764.952 4259.025 0.716 -0.330 1.392 0.01 -0.63 0.78 0.05
1 5.03 503 0.292 -9.438 0.512 -8.179 17.853 -10.895 0.000 629.890 4094.133 0.523 -0.109 1.542 0.01 -0.63 0.78 0.05
1 5.04 504 0.690 -9.644 0.570 -13.947 2.411 -5.707 0.000 629.890 4094.133 0.132 0.094 1.469 0.01 -0.63 0.78 0.05
1 5.05 505 1.082 -9.855 0.675 -16.785 -13.306 0.000 179.883 704.991 4199.064 -0.256 0.299 1.335 0.01 -0.63 0.77 0.05
1 5.06 506 2.126 -9.888 0.757 -16.937 -22.217 11.261 44.971 794.932 4259.025 -1.292 0.318 1.180 0.01 -0.63 0.77 0.05
1 5.07 507 2.447 -9.745 1.010 -15.259 -18.463 18.524 -119.922 839.903 4259.025 -1.617 0.166 0.889 0.02 -0.63 0.77 0.05
1 5.08 508 2.974 -9.534 1.494 -16.205 -7.660 22.705 89.941 614.899 4214.055 -2.157 -0.052 0.374 0.02 -0.64 0.77 0.05
1 5.09 509 3.314 -9.429 1.599 -18.982 12.665 16.815 89.941 614.899 4214.055 -2.513 -0.164 0.239 0.02 -0.64 0.77 0.05
1 5.10 510 3.352 -10.339 1.963 -18.738 41.382 4.334 179.883 749.961 4349.117 -2.559 0.740 -0.152 0.01 -0.64 0.77 0.05
1 5.11 511 3.132 -10.990 2.413 -16.419 60.608 -10.498 179.883 749.961 4349.117 -2.338 1.387 -0.626 0.01 -0.64 0.77 0.05
1 5.12 512 2.528 -12.000 2.600 -11.169 73.883 -27.832 104.932 749.961 4274.016 -1.741 2.393 -0.832 0.01 -0.64 0.77 0.05
1 5.13 513 1.039 -12.216 3.151 -11.200 59.021 -25.665 0.000 704.991 4484.029 -0.211 2.609 -1.398 0 -0.64 0.77 0.06
1 5.14 514 0.522 -12.086 2.749 -16.022 36.255 -23.254 -14.990 794.932 4289.006 0.328 2.480 -1.007 0 -0.64 0.76 0.06
1 5.15 515 0.508 -11.857 2.394 -12.360 12.085 -19.623 299.955 989.955 4289.006 0.369 2.249 -0.672 0 -0.64 0.76 0.07
1 5.16 516 0.838 -10.990 2.514 -7.141 -4.883 -9.460 299.955 989.955 4289.006 0.062 1.382 -0.807 0 -0.64 0.76 0.07
1 5.17 517 1.245 -10.415 2.978 -3.815 -9.705 -6.561 -29.980 824.913 4379.097 -0.332 0.807 -1.281 0 -0.64 0.76 0.07
1 5.18 518 1.939 -10.530 3.347 -6.470 4.425 -10.651 -29.980 824.913 4379.097 -1.012 0.922 -1.656 0 -0.64 0.76 0.07
1 5.19 519 1.829 -10.525 3.658 -16.663 20.020 -5.066 89.941 794.932 4289.006 -0.887 0.917 -1.975 0.01 -0.64 0.76 0.07
1 5.20 520 1.307 -10.334 3.429 -31.860 39.795 9.247 104.932 854.893 4244.035 -0.371 0.716 -1.795 0 -0.65 0.76 0.07
1 5.21 521 0.857 -10.315 3.041 -34.699 44.373 14.008 134.912 749.961 4409.078 0.053 0.688 -1.450 0 -0.65 0.76 0.07
1 5.22 522 0.359 -10.511 2.854 -28.320 41.504 16.205 179.883 854.893 4409.078 0.519 0.875 -1.296 -0 -0.65 0.76 0.07
1 5.23 523 -0.048 -10.520 2.998 -14.374 35.523 18.646 179.883 854.893 4409.078 0.892 0.877 -1.472 -0.01 -0.65 0.76 0.07
1 5.24 524 -0.397 -10.128 3.400 2.319 30.518 23.377 89.941 869.883 4334.126 1.204 0.479 -1.885 -0.01 -0.65 0.76 0.07
1 5.25 525 -0.747 -9.477 3.395 18.463 33.264 26.215 89.941 869.883 4334.126 1.502 -0.172 -1.855 -0.01 -0.65 0.76 0.07
1 5.26 526 -0.996 -9.074 3.141 19.013 35.462 24.536 224.854 989.955 4469.039 1.695 -0.572 -1.559 -0.01 -0.65 0.76 0.07
1 5.27 527 -1.298 -8.730 2.404 8.514 32.593 22.583 269.974 944.984 4364.107 1.885 -0.910 -0.740 -0.02 -0.64 0.76 0.07
1 5.28 528 -1.528 -8.754 1.935 1.373 27.924 21.362 494.978 899.864 4484.029 2.061 -0.886 -0.250 -0.02 -0.64 0.76 0.07
1 5.29 529 -1.805 -8.787 1.523 -2.228 21.729 19.318 314.945 674.860 4409.078 2.287 -0.854 0.169 -0.03 -0.64 0.76 0.07
1 5.30 530 -2.351 -8.940 1.274 -3.326 14.587 19.318 314.945 674.860 4409.078 2.783 -0.703 0.416 -0.03 -0.64 0.76 0.07
1 5.31 531 -2.619 -9.036 1.408 -3.082 2.777 20.966 389.896 824.913 4484.029 2.999 -0.611 0.275 -0.03 -0.64 0.76 0.07
1 5.32 532 -2.734 -9.319 2.035 -5.432 -16.937 27.161 389.896 824.913 4484.029 3.060 -0.332 -0.359 -0.03 -0.64 0.76 0.07
1 5.33 533 -2.394 -9.682 2.275 -6.531 -26.398 31.098 449.857 764.952 4469.039 2.663 0.029 -0.605 -0.03 -0.64 0.76 0.06
1 5.34 534 -1.834 -9.955 2.222 -3.998 -32.044 35.828 449.857 764.952 4394.087 2.042 0.300 -0.560 -0.04 -0.64 0.76 0.06
1 5.35 535 -0.881 -10.032 2.174 4.517 -35.095 43.030 449.857 869.883 4544.140 0.964 0.374 -0.514 -0.04 -0.64 0.76 0.05
1 5.36 536 -0.220 -9.970 2.078 9.491 -34.729 48.157 404.886 869.883 4334.126 0.238 0.313 -0.407 -0.04 -0.64 0.76 0.04
1 5.37 537 0.177 -9.568 2.255 10.071 -30.792 49.561 404.886 869.883 4334.126 -0.226 -0.086 -0.566 -0.04 -0.64 0.76 0.04
1 5.38 538 0.388 -9.189 2.342 7.385 -23.407 48.859 314.945 824.913 4529.000 -0.501 -0.460 -0.634 -0.04 -0.64 0.77 0.04
1 5.39 539 0.354 -9.017 2.078 -2.655 -10.162 43.884 314.945 824.913 4529.000 -0.530 -0.629 -0.356 -0.04 -0.64 0.77 0.03
1 5.40 540 0.211 -8.643 1.762 -8.118 -6.195 39.215 404.886 794.932 4439.058 -0.445 -1.001 -0.036 -0.04 -0.64 0.77 0.03
1 5.41 541 -0.139 -8.830 1.451 -10.498 -4.211 35.217 419.876 974.965 4409.078 -0.150 -0.814 0.267 -0.04 -0.64 0.77 0.03
1 5.42 542 -0.412 -8.940 1.221 -6.317 -3.967 27.374 329.935 764.952 4364.107 0.029 -0.705 0.469 -0.04 -0.64 0.77 0.02
1 5.43 543 -0.555 -9.175 1.197 -1.770 -5.768 23.041 509.968 989.955 4334.126 0.135 -0.471 0.483 -0.04 -0.64 0.77 0.02
1 5.44 544 -0.508 -9.295 1.140 0.763 -8.789 20.355 509.968 989.955 4334.126 0.055 -0.350 0.536 -0.04 -0.64 0.76 0.02
1 5.45 545 -0.311 -9.376 1.154 5.524 -11.902 17.670 449.857 869.883 4334.126 -0.168 -0.268 0.522 -0.04 -0.64 0.77 0.02
1 5.46 546 -0.096 -9.252 1.235 10.681 -12.054 13.214 449.857 869.883 4334.126 -0.404 -0.390 0.448 -0.04 -0.64 0.77 0.01
1 5.47 547 0.412 -9.175 1.441 14.435 -3.906 8.575 599.909 704.991 4484.029 -0.924 -0.463 0.256 -0.04 -0.64 0.77 0.01
1 5.48 548 0.340 -9.323 1.652 15.717 5.646 5.737 539.948 899.864 4529.000 -0.859 -0.311 0.064 -0.04 -0.64 0.77 0.01
1 5.49 549 0.302 -9.271 1.480 12.207 20.386 3.418 479.987 794.932 4469.039 -0.827 -0.356 0.278 -0.05 -0.64 0.77 0.01
1 5.50 550 -0.048 -9.194 1.293 7.416 26.001 2.838 554.938 914.854 4394.087 -0.482 -0.430 0.478 -0.05 -0.64 0.77 0.01
1 5.51 551 -0.469 -9.199 1.144 3.876 27.283 1.129 554.938 914.854 4394.087 -0.068 -0.424 0.630 -0.05 -0.64 0.77 0.02
1 5.52 552 -0.776 -9.165 0.910 2.899 25.299 -2.655 479.987 914.854 4499.019 0.232 -0.457 0.864 -0.05 -0.64 0.77 0.02
1 5.53 553 -0.939 -9.022 0.666 2.960 20.599 -6.287 479.987 914.854 4499.019 0.392 -0.602 1.105 -0.05 -0.64 0.77 0.02
1 5.54 554 -1.226 -9.127 0.316 4.181 10.895 -11.139 674.860 779.942 4529.000 0.681 -0.497 1.450 -0.05 -0.64 0.77 0.02
1 5.55 555 -1.264 -9.290 0.278 5.219 5.951 -12.299 464.847 974.965 4409.078 0.726 -0.335 1.485 -0.05 -0.64 0.77 0.02
1 5.56 556 -1.398 -9.438 0.436 5.981 1.709 -13.092 629.890 914.854 4439.058 0.881 -0.189 1.320 -0.05 -0.64 0.77 0.02
1 5.57 557 -1.437 -9.501 0.326 6.073 0.854 -12.238 584.919 794.932 4499.019 0.931 -0.128 1.429 -0.05 -0.64 0.77 0.02
1 5.58 558 -1.738 -9.606 0.350 5.493 -1.526 -11.292 584.919 794.932 4499.019 1.244 -0.023 1.403 -0.05 -0.64 0.77 0.02
1 5.59 559 -2.054 -9.505 0.498 3.845 -4.547 -10.101 599.909 749.961 4409.078 1.567 -0.125 1.252 -0.05 -0.64 0.77 0.02
1 5.60 560 -2.251 -9.587 0.594 1.495 -9.644 -9.247 599.909 749.961 4409.078 1.768 -0.044 1.152 -0.05 -0.64 0.77 0.02
1 5.61 561 -2.471 -9.970 0.354 0.671 -20.538 -5.310 509.968 839.903 4289.006 1.991 0.337 1.384 -0.05 -0.64 0.77 0.02
1 5.62 562 -2.413 -10.008 0.259 5.005 -29.419 -1.465 599.909 824.913 4379.097 1.933 0.374 1.472 -0.05 -0.64 0.77 0.02
1 5.63 563 -2.164 -10.066 0.024 12.573 -38.605 2.930 599.909 824.913 4379.097 1.680 0.431 1.703 -0.05 -0.64 0.77 0.02
1 5.64 564 -1.384 -9.596 -0.091 22.553 -49.072 6.775 494.978 704.991 4454.048 0.885 -0.033 1.841 -0.05 -0.64 0.77 0.01
1 5.65 565 -1.144 -9.534 -0.029 25.177 -52.887 7.996 494.978 704.991 4454.048 0.642 -0.091 1.804 -0.04 -0.64 0.77 0.01
1 5.66 566 -0.804 -9.223 0.120 20.966 -55.817 9.216 404.886 794.932 4439.058 0.298 -0.397 1.682 -0.04 -0.64 0.77 0.01
1 5.67 567 -0.517 -9.074 0.326 10.193 -54.871 10.132 404.886 794.932 4439.058 0.009 -0.541 1.496 -0.04 -0.64 0.77 0
1 5.68 568 -0.340 -9.170 0.469 -6.317 -45.868 10.162 509.968 764.952 4394.087 -0.169 -0.445 1.356 -0.04 -0.64 0.77 0
1 5.69 569 -0.340 -9.654 0.115 -10.681 -37.476 8.362 329.935 719.981 4364.107 -0.171 0.037 1.699 0.03 0.64 -0.77 0
1 5.70 570 -0.374 -10.152 -0.321 -6.714 -28.839 7.477 329.935 719.981 4364.107 -0.138 0.531 2.113 0.03 0.64 -0.77 0
1 5.71 571 -0.627 -10.477 -0.354 7.843 -21.149 12.116 314.945 629.890 4454.048 0.107 0.850 2.109 0.03 0.64 -0.77 0.01
1 5.72 572 -0.666 -10.793 0.211 18.372 -13.916 9.674 314.945 629.890 4454.048 0.132 1.167 1.544 0.03 0.64 -0.77 0.01
1 5.73 573 -0.646 -11.392 0.632 27.405 -6.042 4.517 329.935 719.981 4334.126 0.104 1.770 1.146 0.03 0.64 -0.77 0.01
1 5.74 574 -0.680 -11.904 1.077 29.602 -3.479 -0.275 329.935 719.981 4334.126 0.134 2.291 0.744 0.03 0.64 -0.77 0.01
1 5.75 575 -0.838 -11.732 2.260 18.890 -14.954 4.486 239.994 749.961 4529.000 0.293 2.126 -0.398 0.03 0.64 -0.77 0.01
1 5.76 576 0.220 -12.886 2.998 -9.491 -24.567 -5.432 269.974 719.981 4394.087 -0.767 3.284 -1.114 0.03 0.63 -0.77 0.01
1 5.77 577 0.436 -13.298 3.232 -5.707 -25.818 1.678 269.974 719.981 4394.087 -0.972 3.694 -1.355 0.03 0.64 -0.77 0.01
1 5.78 578 0.206 -11.172 3.807 26.428 -18.768 32.806 239.994 629.890 4379.097 -0.757 1.570 -1.924 0.02 0.64 -0.77 0.02
1 5.79 579 0.163 -10.544 3.649 39.429 -4.211 27.985 239.994 629.890 4379.097 -0.756 0.955 -1.719 0.02 0.63 -0.77 0.02
1 5.80 580 -0.421 -9.515 3.304 31.860 2.716 28.168 284.964 779.942 4379.097 -0.208 -0.060 -1.312 0.03 0.63 -0.78 0.02
1 5.81 581 -1.015 -9.275 3.271 1.892 2.411 28.320 284.964 779.942 4379.097 0.346 -0.287 -1.232 0.03 0.63 -0.78 0.02
1 5.82 582 -1.403 -9.635 3.117 -31.342 1.160 23.316 419.876 854.893 4274.016 0.692 0.075 -1.080 0.03 0.63 -0.78 0.02
1 5.83 583 -1.681 -10.190 2.246 -46.051 -5.157 21.484 299.955 494.978 4394.087 0.932 0.624 -0.253 0.03 0.63 -0.78 0.02
1 5.84 584 -1.748 -10.075 2.035 -34.088 -15.076 19.836 299.955 494.978 4394.087 0.964 0.499 -0.105 0.03 0.63 -0.77 0.02
1 5.85 585 -1.695 -9.788 2.299 -13.763 -30.243 16.571 209.863 554.938 4349.117 0.877 0.204 -0.422 0.03 0.63 -0.77 0.03
1 5.86 586 -0.934 -9.242 2.892 11.963 -53.955 10.773 359.916 749.961 4379.097 0.077 -0.341 -1.030 0.03 0.64 -0.77 0.03
1 5.87 587 -0.134 -8.835 3.472 19.104 -61.615 5.890 269.974 794.932 4439.058 -0.722 -0.742 -1.575 0.03 0.63 -0.77 0.03
1 5.88 588 0.709 -8.519 3.716 21.729 -60.394 3.906 269.974 794.932 4439.058 -1.551 -1.049 -1.771 0.02 0.63 -0.77 0.04
1 5.89 589 1.465 -8.165 3.888 19.959 -50.720 1.373 269.974 644.880 4364.107 -2.285 -1.395 -1.890 0.02 0.63 -0.77 0.04
1 5.90 590 2.337 -8.131 3.515 16.144 -27.710 -4.883 389.896 554.938 4409.078 -3.127 -1.420 -1.467 0.02 0.63 -0.78 0.04
1 5.91 591 2.825 -8.557 3.299 14.740 -10.773 -9.094 389.896 554.938 4409.078 -3.580 -0.988 -1.210 0.02 0.63 -0.78 0.04
1 5.92 592 3.031 -8.873 2.859 15.259 3.662 -13.153 134.912 674.860 4484.029 -3.745 -0.667 -0.734 0.01 0.63 -0.78 0.04
1 5.93 593 3.012 -9.252 3.165 11.536 15.717 -19.165 209.863 674.860 4409.078 -3.635 -0.282 -0.981 0.01 0.62 -0.78 0.04
1 5.94 594 2.734 -9.419 3.606 0.763 18.738 -23.163 239.994 599.909 4529.000 -3.306 -0.113 -1.402 0.01 0.62 -0.78 0.03
1 5.95 595 2.366 -9.438 3.888 -9.583 18.311 -23.468 239.994 599.909 4529.000 -2.884 -0.096 -1.680 0.01 0.62 -0.78 0.03
1 5.96 596 1.997 -9.592 3.807 -15.625 19.470 -23.621 179.883 674.860 4274.016 -2.465 0.053 -1.606 0.01 0.62 -0.78 0.03
1 5.97 597 1.762 -9.845 3.601 -10.498 23.651 -25.269 269.974 569.929 4259.025 -2.182 0.302 -1.412 0.01 0.62 -0.78 0.02
1 5.98 598 1.307 -9.544 2.878 4.730 28.595 -21.668 269.974 569.929 4259.025 -1.682 -0.002 -0.691 0.01 0.62 -0.78 0.02
1 5.99 599 0.986 -9.266 2.437 8.637 27.466 -20.599 104.932 629.890 4349.117 -1.323 -0.279 -0.242 0.01 0.62 -0.78 0.02
1 6.00 600 0.838 -8.811 1.982 2.380 19.989 -25.574 224.854 794.932 4109.123 -1.108 -0.730 0.241 0.01 0.62 -0.78 0.01
1 6.01 601 0.627 -8.461 1.920 -7.202 10.986 -28.046 239.994 554.938 4484.029 -0.856 -1.081 0.302 0.01 0.62 -0.78 0.01
1 6.02 602 0.800 -8.198 1.911 -18.097 5.096 -30.335 239.994 554.938 4484.029 -0.986 -1.348 0.296 0.01 0.62 -0.78 0
1 6.03 603 0.958 -8.289 2.035 -26.550 4.303 -32.654 89.941 644.880 4439.058 -1.100 -1.265 0.142 0.01 0.62 -0.78 0
1 6.04 604 0.833 -8.548 2.069 -26.062 7.416 -33.905 89.941 794.932 4394.087 -0.928 -1.016 0.068 -0.01 -0.63 0.78 0
1 6.05 605 0.900 -8.907 2.083 -11.749 15.442 -31.799 89.941 794.932 4394.087 -0.944 -0.665 0.019 -0.01 -0.63 0.78 0
1 6.06 606 0.661 -9.065 2.102 0.916 20.996 -29.602 179.883 554.938 4274.016 -0.656 -0.512 -0.022 -0 -0.63 0.78 0.01
1 6.07 607 0.426 -9.046 2.212 14.710 20.691 -25.757 149.902 569.929 4469.039 -0.340 -0.528 -0.119 -0 -0.63 0.78 0.01
1 6.08 608 0.278 -8.892 2.299 17.242 16.174 -21.149 119.922 644.880 4394.087 -0.159 -0.675 -0.181 -0 -0.63 0.78 0.01
1 6.09 609 0.407 -8.758 2.308 13.397 8.637 -17.975 119.922 644.880 4394.087 -0.262 -0.803 -0.163 -0 -0.62 0.78 0.02
1 6.10 610 0.603 -8.653 2.231 5.524 2.258 -16.480 149.902 644.880 4469.039 -0.433 -0.904 -0.067 -0 -0.62 0.78 0.02
1 6.11 611 0.852 -8.830 1.963 -1.953 -0.336 -16.296 149.902 539.948 4439.058 -0.656 -0.724 0.208 -0 -0.62 0.78 0.02
1 6.12 612 1.288 -9.285 1.954 -6.104 -1.892 -13.153 149.902 539.948 4439.058 -1.064 -0.270 0.213 -0 -0.62 0.78 0.02
1 6.13 613 1.432 -9.510 1.935 -5.554 -1.160 -9.216 29.980 779.942 4349.117 -1.180 -0.046 0.222 -0 -0.62 0.78 0.02
1 6.14 614 1.489 -9.410 2.050 -3.113 1.556 -5.554 269.974 764.952 4544.140 -1.214 -0.148 0.097 0 -0.62 0.78 0.02
1 6.15 615 1.647 -9.405 1.973 -2.197 9.064 -0.763 149.902 644.880 4394.087 -1.340 -0.154 0.164 0 -0.63 0.78 0.02
1 6.16 616 1.523 -9.563 1.982 -2.380 15.656 1.617 149.902 644.880 4394.087 -1.209 0.003 0.151 0 -0.63 0.78 0.02
1 6.17 617 1.551 -9.553 1.729 -2.899 22.003 3.448 44.971 794.932 4364.107 -1.236 -0.008 0.400 0 -0.63 0.78 0.03
1 6.18 618 1.326 -9.515 1.326 -1.495 27.710 3.815 -44.971 644.880 4334.126 -1.015 -0.047 0.797 -0 -0.63 0.78 0.03
1 6.19 619 1.082 -9.457 1.207 2.167 28.259 3.906 -44.971 644.880 4334.126 -0.777 -0.106 0.911 -0 -0.63 0.78 0.03
1 6.20 620 0.656 -8.509 1.413 1.953 21.698 4.669 0.000 629.890 4409.078 -0.359 -1.055 0.703 -0 -0.63 0.78 0.03
1 6.21 621 0.565 -7.963 1.221 -4.517 14.404 -0.092 14.990 644.880 4334.126 -0.277 -1.601 0.894 -0 -0.63 0.78 0.03
1 6.22 622 0.867 -8.160 0.407 -19.348 6.134 -14.496 29.980 674.860 4529.000 -0.578 -1.409 1.688 -0.01 -0.63 0.78 0.03
1 6.23 623 1.255 -8.806 -0.163 -25.055 2.167 -19.592 29.980 674.860 4529.000 -0.944 -0.769 2.227 -0 -0.63 0.78 0.03
1 6.24 624 1.480 -9.213 0.000 -25.757 -4.608 -17.914 59.961 704.991 4589.110 -1.137 -0.370 2.019 -0 -0.63 0.78 0.03
1 6.25 625 1.695 -9.510 0.206 -23.926 -11.108 -15.015 89.941 689.851 4289.006 -1.318 -0.083 1.761 -0 -0.63 0.77 0.03
1 6.26 626 2.346 -9.932 0.589 -19.653 -12.726 -15.137 89.941 689.851 4289.006 -1.933 0.330 1.331 -0 -0.63 0.77 0.03
1 6.27 627 3.012 -10.305 1.015 -12.451 -6.775 -13.611 59.961 749.961 4454.048 -2.559 0.698 0.866 0 -0.64 0.77 0.03
1 6.28 628 3.247 -10.463 1.231 -7.080 3.387 -11.169 29.980 899.864 4409.078 -2.754 0.852 0.621 0 -0.64 0.77 0.04
1 6.29 629 3.381 -10.300 1.633 -2.502 19.257 -6.592 44.971 764.952 4544.140 -2.852 0.687 0.198 0 -0.64 0.77 0.04
1 6.30 630 3.026 -9.831 1.724 -1.007 27.344 -3.357 44.971 764.952 4544.140 -2.495 0.218 0.106 0 -0.64 0.77 0.04
1 6.31 631 2.811 -9.410 1.341 1.160 32.715 -2.411 89.941 764.952 4469.039 -2.263 -0.202 0.489 0 -0.64 0.77 0.04
1 6.32 632 2.452 -9.108 0.546 5.127 35.217 -2.686 89.941 614.899 4499.019 -1.892 -0.503 1.288 0 -0.64 0.77 0.04
1 6.33 633 2.519 -9.065 -0.187 9.583 37.598 -3.876 89.941 614.899 4499.019 -1.949 -0.544 2.025 0 -0.64 0.77 0.04
1 6.34 634 2.198 -9.606 0.153 15.900 33.722 -7.233 -14.990 869.883 4439.058 -1.618 -0.001 1.691 -0 -0.64 0.77 0.05
1 6.35 635 2.289 -10.717 1.130 21.576 33.814 -18.677 119.922 839.903 4469.039 -1.696 1.112 0.725 -0 -0.64 0.77 0.05
1 6.36 636 1.403 -12.077 3.831 15.442 26.550 -38.513 89.941 719.981 4469.039 -0.752 2.487 -1.918 -0 -0.63 0.77 0.05
1 6.37 637 0.766 -12.446 4.956 4.364 24.384 -43.884 89.941 719.981 4469.039 -0.062 2.863 -3.026 -0 -0.63 0.77 0.06
1 6.38 638 -0.733 -13.542 6.029 -33.997 17.090 -45.685 104.932 599.909 4349.117 1.502 3.960 -4.121 0 -0.63 0.77 0.06
1 6.39 639 -1.006 -13.374 4.846 -38.971 4.486 -20.905 194.873 869.883 4394.087 1.831 3.787 -2.990 0 -0.64 0.77 0.06
1 6.40 640 -1.034 -12.345 2.998 -16.724 -7.019 10.376 194.873 869.883 4394.087 1.878 2.749 -1.194 0 -0.64 0.77 0.07
1 6.41 641 -0.129 -10.616 1.346 29.175 -10.712 31.952 134.912 749.961 4379.097 0.952 1.017 0.446 0 -0.64 0.77 0.06
1 6.42 642 0.196 -9.687 1.346 35.858 -9.125 35.401 29.980 749.961 4454.048 0.585 0.090 0.479 0 -0.64 0.77 0.06
1 6.43 643 0.340 -9.242 1.911 18.860 -7.599 33.905 29.980 749.961 4454.048 0.387 -0.350 -0.040 0 -0.64 0.77 0.06
1 6.44 644 0.316 -9.405 2.792 -29.541 -7.294 31.921 134.912 674.860 4529.000 0.312 -0.190 -0.896 -0 -0.64 0.77 0.05
1 6.45 645 0.364 -9.568 3.055 -58.472 -12.207 31.921 209.863 674.860 4529.000 0.217 -0.039 -1.209 -0 -0.64 0.77 0.05
1 6.46 646 0.623 -9.927 3.213 -71.228 -17.426 30.212 314.945 779.942 4379.097 -0.086 0.301 -1.452 -0 -0.64 0.77 0.05
1 6.47 647 0.771 -10.109 3.050 -62.805 -19.104 26.611 314.945 779.942 4379.097 -0.273 0.464 -1.384 -0 -0.64 0.76 0.04
1 6.48 648 1.106 -10.171 3.194 -20.081 -11.047 23.682 269.974 764.952 4544.140 -0.640 0.512 -1.603 -0 -0.65 0.76 0.04
1 6.49 649 1.068 -10.042 3.749 14.893 -0.061 22.461 194.873 764.952 4574.120 -0.632 0.375 -2.196 -0.01 -0.65 0.76 0.04
1 6.50 650 0.584 -9.501 3.979 40.802 14.130 21.759 194.873 764.952 4574.120 -0.177 -0.164 -2.405 -0.01 -0.65 0.76 0.04
1 6.51 651 -0.230 -8.686 3.951 52.551 33.783 15.686 89.941 794.932 4574.120 0.572 -0.952 -2.215 -0.01 -0.64 0.77 0.04
1 6.52 652 -1.130 -8.490 3.156 43.762 40.863 10.895 119.922 869.883 4544.140 1.438 -1.133 -1.326 -0.01 -0.64 0.77 0.04
1 6.53 653 -1.872 -8.691 2.380 25.482 39.337 6.958 179.883 704.991 4484.029 2.145 -0.918 -0.477 -0.01 -0.63 0.77 0.04
1 6.54 654 -2.782 -8.744 1.714 4.059 23.956 8.850 179.883 704.991 4484.029 3.019 -0.859 0.226 -0.02 -0.63 0.77 0.04
1 6.55 655 -3.261 -8.883 1.791 -11.078 0.885 15.991 119.922 764.952 4574.120 3.456 -0.721 0.150 -0.02 -0.63 0.77 0.04
1 6.56 656 -3.702 -8.437 1.939 -13.336 -28.900 25.635 269.974 839.903 4469.039 3.846 -1.171 -0.018 -0.02 -0.63 0.77 0.04
1 6.57 657 -3.160 -8.490 2.045 -4.944 -39.093 31.525 269.974 839.903 4469.039 3.249 -1.123 -0.144 -0.02 -0.63 0.77 0.03
1 6.58 658 -1.920 -8.418 1.882 3.387 -39.734 36.743 449.857 989.955 4619.091 1.888 -1.197 0.013 -0.02 -0.63 0.77 0.02
1 6.59 659 -1.331 -8.461 2.030 2.136 -33.600 40.772 269.974 794.932 4544.140 1.239 -1.152 -0.129 -0.02 -0.63 0.77 0.02
1 6.60 660 -0.163 -8.710 1.968 -3.632 -22.522 43.152 284.964 854.893 4379.097 0.018 -0.902 -0.065 -0.02 -0.63 0.77 0.02
1 6.61 661 0.230 -8.935 1.666 -11.749 -9.064 43.030 284.964 854.893 4379.097 -0.433 -0.677 0.230 -0.02 -0.63 0.77 0.01
1 6.62 662 0.493 -9.347 1.762 -17.487 3.326 40.833 269.974 839.903 4469.039 -0.755 -0.268 0.115 -0.03 -0.64 0.77 0.01
1 6.63 663 0.718 -9.860 1.896 -16.663 13.001 34.851 299.955 839.903 4439.058 -1.036 0.241 -0.047 -0.03 -0.64 0.77 0.01
1 6.64 664 0.603 -10.104 1.911 -11.078 10.101 28.290 299.955 839.903 4439.058 -0.970 0.482 -0.088 -0.03 -0.64 0.77 0.01
1 6.65 665 0.532 -10.042 2.222 -3.693 3.540 20.935 404.886 794.932 4544.140 -0.937 0.417 -0.419 -0.03 -0.64 0.77 0.01
1 6.66 666 0.613 -9.611 2.160 10.315 -2.350 10.040 329.935 794.932 4574.120 -1.060 -0.012 -0.357 -0.03 -0.64 0.77 0
1 6.67 667 0.431 -9.036 2.241 19.470 1.251 5.066 449.857 869.883 4469.039 -0.882 -0.582 -0.417 -0.03 -0.64 0.77 0
1 6.68 668 0.220 -8.797 1.997 24.628 13.306 2.319 449.857 869.883 4469.039 -0.672 -0.815 -0.138 -0.03 -0.64 0.77 0
1 6.69 669 -0.053 -8.519 1.666 22.369 28.381 -1.129 359.916 1004.945 4454.048 -0.400 -1.085 0.229 -0.03 -0.63 0.77 0.01
1 6.70 670 -0.809 -8.562 1.326 9.064 42.786 -5.859 509.968 794.932 4439.058 0.350 -1.036 0.599 -0.04 -0.63 0.77 0.01
1 6.71 671 -1.279 -8.873 1.221 -3.937 43.152 -7.202 509.968 794.932 4439.058 0.814 -0.722 0.719 -0.04 -0.63 0.77 0.01
1 6.72 672 -1.767 -9.304 1.097 -14.923 38.635 -8.057 299.955 614.899 4574.120 1.298 -0.291 0.838 -0.04 -0.63 0.77 0.01
1 6.73 673 -2.447 -10.085 0.828 -17.944 25.360 -5.280 374.906 839.903 4394.087 1.961 0.478 1.046 -0.04 -0.63 0.77 0.02
1 6.74 674 -2.988 -10.329 0.814 -10.193 14.008 -1.343 389.896 779.942 4559.130 2.487 0.716 1.027 -0.05 -0.64 0.77 0.02
1 6.75 675 -3.280 -10.449 0.599 -0.397 1.160 2.563 389.896 779.942 4559.130 2.759 0.833 1.220 -0.05 -0.64 0.77 0.02
1 6.76 676 -3.103 -10.157 0.627 9.155 -12.695 9.857 404.886 794.932 4499.019 2.577 0.542 1.195 -0.05 -0.64 0.77 0.02
1 6.77 677 -2.921 -9.424 0.651 13.947 -26.978 14.221 449.857 764.952 4544.140 2.364 -0.188 1.179 -0.05 -0.64 0.77 0.01
1 6.78 678 -1.978 -8.888 0.182 15.717 -41.657 13.977 449.857 764.952 4544.140 1.389 -0.719 1.662 -0.05 -0.64 0.77 0.01
1 6.79 679 -1.341 -8.710 -0.215 14.008 -47.638 12.512 389.896 824.913 4454.048 0.727 -0.892 2.075 -0.05 -0.63 0.77 0.01
1 6.80 680 -0.412 -8.519 0.053 6.104 -48.187 16.022 509.968 839.903 4544.140 -0.224 -1.076 1.840 -0.04 -0.63 0.77 0
1 6.81 681 -0.005 -8.490 0.359 0.336 -38.208 15.961 389.896 704.991 4484.029 -0.641 -1.101 1.545 0.04 0.63 -0.77 0
1 6.82 682 0.235 -8.466 0.364 -3.387 -24.475 15.320 389.896 704.991 4484.029 -0.894 -1.124 1.543 0.04 0.63 -0.77 0.01
1 6.83 683 0.249 -8.696 0.546 -3.418 -10.040 12.421 479.987 869.883 4574.120 -0.923 -0.894 1.358 0.04 0.63 -0.77 0.01
1 6.84 684 -0.014 -9.304 0.876 -0.061 0.977 10.498 389.896 749.961 4484.029 -0.676 -0.285 1.025 0.04 0.63 -0.77 0.01
1 6.85 685 -0.627 -9.534 0.986 5.646 9.705 7.782 389.896 749.961 4484.029 -0.073 -0.055 0.909 0.04 0.63 -0.77 0.01
1 6.86 686 -1.092 -9.903 1.121 5.157 11.963 5.463 329.935 794.932 4619.091 0.380 0.314 0.774 0.04 0.63 -0.77 0.01
1 6.87 687 -1.767 -10.161 0.666 0.916 13.092 1.801 239.994 824.913 4529.000 1.032 0.574 1.225 0.04 0.63 -0.77 0.01
1 6.88 688 -2.318 -10.453 0.436 -1.068 9.125 0.183 374.906 794.932 4469.039 1.570 0.865 1.445 0.04 0.63 -0.77 0.01
1 6.89 689 -2.615 -10.760 0.096 1.099 1.953 -2.228 374.906 794.932 4469.039 1.855 1.170 1.772 0.04 0.63 -0.77 0.01
1 6.90 690 -2.777 -10.875 0.053 5.188 -8.423 -4.791 464.847 674.860 4484.029 2.022 1.285 1.818 0.04 0.63 -0.77 0.01
1 6.91 691 -2.777 -11.100 0.637 12.695 -18.982 -12.329 509.968 719.981 4469.039 2.035 1.511 1.245 0.04 0.63 -0.77 0.01
1 6.92 692 -2.342 -11.986 1.642 22.369 -32.318 -21.698 509.968 719.981 4469.039 1.626 2.400 0.264 0.04 0.63 -0.77 0.01
1 6.93 693 -1.408 -12.766 2.255 21.820 -37.323 -21.698 449.857 869.883 4439.058 0.731 3.184 -0.314 0.04 0.63 -0.77 0.01
1 6.94 694 -0.101 -13.499 2.806 16.663 -36.011 -23.132 449.857 869.883 4439.058 -0.533 3.922 -0.828 0.04 0.63 -0.78 0.01
1 6.95 695 1.274 -12.924 3.098 27.191 -38.880 6.012 329.935 839.903 4439.058 -1.832 3.355 -1.058 0.03 0.63 -0.78 0.01
1 6.96 696 1.585 -11.272 2.773 45.593 -30.060 24.139 329.935 839.903 4439.058 -2.149 1.714 -0.684 0.03 0.63 -0.78 0.01
1 6.97 697 1.341 -9.716 2.313 56.580 -11.627 22.492 224.854 764.952 4364.107 -1.932 0.176 -0.149 0.03 0.62 -0.78 0.01
1 6.98 698 0.699 -9.252 2.423 39.856 6.561 16.815 359.916 704.991 4199.064 -1.303 -0.269 -0.179 0.03 0.62 -0.78 0.01
1 6.99 699 -0.278 -9.572 2.615 -27.924 27.527 8.392 359.916 704.991 4199.064 -0.341 0.063 -0.326 0.03 0.62 -0.79 0.01
1 7.00 700 -1.408 -11.100 2.715 -63.477 26.581 9.949 179.883 674.860 4304.146 0.770 1.587 -0.450 0.03 0.62 -0.78 0.01
1 7.01 701 -1.973 -11.675 3.132 -71.686 12.634 19.531 179.883 674.860 4304.146 1.312 2.143 -0.950 0.03 0.62 -0.78 0.01
1 7.02 702 -2.174 -11.584 3.544 -29.450 -18.005 25.421 269.974 719.981 4469.039 1.448 2.016 -1.550 0.04 0.63 -0.78 0.01
1 7.03 703 -1.863 -10.880 3.591 9.888 -41.107 26.795 269.974 719.981 4469.039 1.107 1.309 -1.623 0.04 0.63 -0.77 0.02
1 7.04 704 -1.619 -9.773 3.472 35.217 -58.838 28.046 494.978 824.913 4529.000 0.837 0.212 -1.472 0.03 0.63 -0.78 0.02
1 7.05 705 -0.800 -8.897 3.347 42.725 -70.770 27.893 239.994 749.961 4484.029 -0.006 -0.648 -1.279 0.03 0.63 -0.78 0.03
1 7.06 706 0.086 -8.050 3.213 36.560 -73.548 26.245 239.994 749.961 4484.029 -0.911 -1.476 -1.065 0.03 0.62 -0.78 0.03
1 7.07 707 1.341 -7.336 3.084 14.618 -61.066 19.775 284.964 749.961 4409.078 -2.177 -2.175 -0.873 0.03 0.62 -0.78 0.03
1 7.08 708 2.140 -7.264 2.935 3.296 -46.417 14.984 284.964 749.961 4409.078 -2.985 -2.237 -0.689 0.02 0.62 -0.78 0.04
1 7.09 709 2.888 -7.619 2.830 -5.280 -20.874 4.425 374.906 764.952 4394.087 -3.741 -1.879 -0.569 0.02 0.62 -0.78 0.04
1 7.10 710 3.065 -7.930 2.749 -3.815 -6.042 -4.883 374.906 764.952 4394.087 -3.916 -1.569 -0.493 0.02 0.62 -0.78 0.04
1 7.11 711 2.931 -8.260 3.022 -1.495 2.350 -11.780 269.974 614.899 4334.126 -3.756 -1.241 -0.767 0.02 0.62 -0.78 0.04
1 7.12 712 2.648 -8.437 3.309 0.031 5.341 -17.212 194.873 719.981 4334.126 -3.428 -1.066 -1.049 0.02 0.62 -0.78 0.04
1 7.13 713 2.260 -8.461 3.635 -0.793 7.416 -23.438 194.873 719.981 4334.126 -2.989 -1.045 -1.366 0.02 0.62 -0.78 0.04
1 7.14 714 1.676 -8.730 3.544 -3.723 10.407 -32.257 209.863 779.942 4379.097 -2.348 -0.779 -1.268 0.02 0.62 -0.78 0.04
1 7.15 715 1.216 -8.744 3.271 -4.028 11.108 -35.278 209.863 779.942 4379.097 -1.827 -0.767 -0.989 0.01 0.62 -0.78 0.03
1 7.16 716 1.010 -8.720 2.370 0.305 7.660 -38.544 299.955 794.932 4334.126 -1.494 -0.797 -0.082 0.01 0.62 -0.78 0.03
1 7.17 717 0.876 -8.605 2.188 2.686 4.913 -39.307 299.955 794.932 4334.126 -1.294 -0.914 0.104 0.01 0.62 -0.79 0.02
1 7.18 718 0.785 -8.485 1.671 4.852 -4.425 -35.614 269.974 794.932 4394.087 -1.138 -1.034 0.629 0.01 0.62 -0.79 0.02
1 7.19 719 1.025 -8.375 1.762 -0.488 -9.460 -34.149 224.854 839.903 4499.019 -1.320 -1.145 0.543 0.01 0.62 -0.79 0.02
1 7.20 720 1.571 -8.715 1.887 -13.886 -6.714 -40.955 224.854 839.903 4499.019 -1.811 -0.807 0.416 0 0.62 -0.79 0.01
1 7.21 721 1.370 -9.184 2.217 -19.928 -0.854 -41.138 179.883 749.961 4409.078 -1.549 -0.343 0.069 0 0.62 -0.79 0.01
1 7.22 722 1.207 -9.687 2.710 -23.834 5.249 -35.980 179.883 749.961 4409.078 -1.312 0.152 -0.452 -0 0.62 -0.78 0.01
1 7.23 723 0.948 -9.989 2.964 -22.339 8.698 -33.203 59.961 779.942 4304.146 -0.989 0.445 -0.739 -0 0.62 -0.78 0.01
1 7.24 724 0.536 -10.248 2.830 -8.972 8.911 -24.689 119.922 764.952 4394.087 -0.476 0.692 -0.654 -0 0.62 -0.78 0
1 7.25 725 0.551 -10.085 2.409 4.883 5.554 -18.158 104.932 854.893 4454.048 -0.455 0.529 -0.237 0.01 -0.62 0.78 0
1 7.26 726 0.690 -9.855 2.251 16.724 0.549 -11.902 104.932 824.913 4409.078 -0.568 0.302 -0.066 0.01 -0.62 0.78 0
1 7.27 727 0.804 -9.180 2.030 20.355 -5.066 -6.714 104.932 824.913 4409.078 -0.663 -0.367 0.180 0.01 -0.62 0.78 0
1 7.28 728 1.350 -8.418 1.911 10.559 -7.568 -4.211 89.941 794.932 4289.006 -1.194 -1.121 0.328 0.01 -0.62 0.78 0
1 7.29 729 1.590 -8.141 1.868 -6.073 -6.165 -5.463 89.941 794.932 4289.006 -1.417 -1.395 0.389 0.01 -0.62 0.78 0
1 7.30 730 1.767 -8.212 1.724 -24.139 -2.533 -5.524 104.932 749.961 4409.078 -1.584 -1.323 0.530 0.01 -0.62 0.78 0
1 7.31 731 1.638 -8.686 1.384 -43.091 4.028 -7.507 104.932 749.961 4379.097 -1.437 -0.867 0.789 0.01 -0.62 0.78 0.01
1 7.32 732 1.590 -9.228 1.053 -42.511 5.615 -9.155 89.941 794.932 4394.087 -1.368 -0.341 1.052 0.01 -0.63 0.78 0.01
1 7.33 733 1.489 -9.917 1.097 -30.823 3.113 -9.125 104.932 749.961 4454.048 -1.245 0.335 0.944 0.01 -0.63 0.78 0.01
1 7.34 734 1.408 -9.817 1.322 -13.916 -0.214 -7.629 104.932 749.961 4454.048 -1.142 0.225 0.672 0.01 -0.63 0.78 0.01
1 7.35 735 1.441 -9.821 1.571 1.282 0.275 -5.432 149.902 719.981 4469.039 -1.156 0.226 0.403 0.01 -0.63 0.77 0.01
1 7.36 736 1.360 -9.601 1.710 11.902 7.019 -4.517 149.902 719.981 4469.039 -1.059 0.007 0.267 0.01 -0.63 0.78 0.01
1 7.37 737 1.437 -9.400 1.456 11.108 12.177 -3.387 59.961 854.893 4409.078 -1.123 -0.191 0.534 0.01 -0.63 0.78 0.01
1 7.38 738 1.178 -9.146 1.293 5.768 14.526 -0.214 44.971 914.854 4439.058 -0.848 -0.439 0.722 0.01 -0.63 0.78 0.01
1 7.39 739 1.058 -9.036 1.370 2.014 11.322 2.106 59.961 854.893 4454.048 -0.726 -0.548 0.649 0.01 -0.63 0.78 0.02
1 7.40 740 1.006 -8.677 1.499 -2.563 7.813 3.357 -44.971 764.952 4469.039 -0.674 -0.908 0.518 0.01 -0.63 0.78 0.02
1 7.41 741 1.092 -8.375 1.413 -7.782 1.465 2.045 -44.971 764.952 4469.039 -0.761 -1.211 0.597 0.01 -0.63 0.78 0.02
1 7.42 742 1.221 -8.581 1.240 -13.641 -3.632 0.092 -89.941 944.984 4619.091 -0.893 -1.008 0.756 0.01 -0.63 0.78 0.02
1 7.43 743 1.346 -9.323 0.781 -14.526 -7.477 -5.096 -89.941 944.984 4619.091 -1.015 -0.270 1.194 0.01 -0.63 0.77 0.02
1 7.44 744 1.532 -9.912 0.867 -10.101 -6.622 -5.249 59.961 824.913 4484.029 -1.186 0.314 1.080 0.01 -0.63 0.77 0.02
1 7.45 745 1.599 -10.003 1.216 -5.371 -5.737 -1.312 104.932 824.913 4379.097 -1.235 0.400 0.705 0.01 -0.63 0.77 0.02
1 7.46 746 2.045 -9.999 1.513 -2.808 0.458 2.869 29.980 899.864 4529.000 -1.657 0.391 0.381 0.01 -0.64 0.77 0.02
1 7.47 747 2.246 -10.022 1.446 -4.608 8.911 1.801 59.961 854.893 4409.078 -1.851 0.414 0.439 0.01 -0.64 0.77 0.02
1 7.48 748 2.452 -10.291 1.202 -6.012 14.404 1.068 59.961 854.893 4409.078 -2.048 0.680 0.673 0.01 -0.64 0.77 0.02
1 7.49 749 2.624 -10.243 1.125 -4.669 16.998 3.693 44.971 794.932 4544.140 -2.213 0.630 0.736 0.01 -0.64 0.77 0.02
1 7.50 750 2.701 -9.769 0.881 -0.183 20.020 6.683 44.971 794.932 4544.140 -2.285 0.154 0.970 0.01 -0.64 0.77 0.02
1 7.51 751 2.696 -9.735 0.670 1.526 24.841 6.348 -14.990 869.883 4544.140 -2.278 0.119 1.173 0.01 -0.64 0.77 0.02
1 7.52 752 2.706 -9.592 0.441 2.899 27.893 6.683 -14.990 794.932 4499.019 -2.287 -0.025 1.398 0.01 -0.64 0.77 0.02
1 7.53 753 2.457 -9.697 0.479 4.395 31.708 4.547 89.941 989.955 4469.039 -2.039 0.078 1.351 0.01 -0.64 0.77 0.03
1 7.54 754 2.538 -10.137 0.555 9.857 37.384 -6.226 104.932 824.913 4409.078 -2.118 0.519 1.275 0.01 -0.64 0.77 0.03
1 7.55 755 2.231 -10.655 1.231 14.282 41.565 -13.245 104.932 824.913 4409.078 -1.794 1.039 0.609 0 -0.64 0.77 0.03
1 7.56 756 1.528 -11.100 2.246 10.223 47.089 -20.294 134.912 974.965 4484.029 -1.073 1.488 -0.388 0 -0.64 0.77 0.03
1 7.57 757 1.168 -11.833 2.811 1.831 53.955 -32.959 134.912 974.965 4484.029 -0.693 2.225 -0.937 0 -0.64 0.77 0.04
1 7.58 758 0.460 -12.747 2.978 -14.740 47.608 -39.276 104.932 899.864 4379.097 0.052 3.142 -1.102 -0 -0.64 0.77 0.04
1 7.59 759 -0.014 -12.819 3.065 -16.876 31.311 -35.248 194.873 989.955 4499.019 0.569 3.214 -1.203 -0 -0.64 0.77 0.05
1 7.60 760 -0.393 -12.857 2.844 1.556 0.122 -23.377 104.932 929.994 4454.048 1.031 3.250 -1.017 -0 -0.64 0.77 0.05
1 7.61 761 -0.019 -12.220 2.806 14.710 -13.611 -13.550 119.922 1019.936 4439.058 0.690 2.617 -0.971 0 -0.64 0.77 0.05
1 7.62 762 0.273 -11.588 2.955 19.470 -16.602 -4.578 119.922 1019.936 4439.058 0.419 1.991 -1.096 0 -0.64 0.77 0.05
1 7.63 763 0.656 -10.918 3.194 11.932 -13.367 5.371 134.912 899.864 4454.048 0.044 1.326 -1.310 0 -0.64 0.77 0.05
1 7.64 764 0.718 -10.329 3.295 -3.754 -7.446 14.465 134.912 899.864 4454.048 -0.027 0.739 -1.400 0 -0.64 0.77 0.05
1 7.65 765 0.924 -10.113 3.462 -25.543 2.441 23.285 -14.990 944.984 4469.039 -0.255 0.519 -1.579 0 -0.64 0.77 0.05
1 7.66 766 0.857 -10.037 3.472 -28.412 6.104 27.741 29.980 824.913 4409.078 -0.221 0.434 -1.622 0 -0.64 0.77 0.05
1 7.67 767 0.474 -9.515 3.639 -17.487 8.362 30.762 14.990 989.955 4439.058 0.079 -0.103 -1.844 -0 -0.64 0.77 0.05
1 7.68 768 0.383 -9.242 3.730 -4.913 11.169 31.189 29.980 824.913 4454.048 0.122 -0.380 -1.942 -0 -0.64 0.77 0.04
1 7.69 769 0.278 -8.749 3.658 8.667 16.510 32.318 29.980 824.913 4454.048 0.176 -0.874 -1.857 -0 -0.64 0.77 0.04
1 7.70 770 -0.014 -8.303 3.237 20.081 25.665 31.769 209.863 974.965 4589.110 0.415 -1.315 -1.402 -0.01 -0.64 0.77 0.04
1 7.71 771 -0.287 -7.920 2.974 27.283 34.271 27.924 209.863 974.965 4589.110 0.633 -1.691 -1.092 -0.01 -0.64 0.77 0.04
1 7.72 772 -1.111 -7.925 2.380 31.677 41.138 17.822 224.854 1064.906 4499.019 1.407 -1.679 -0.454 -0.01 -0.63 0.77 0.04
1 7.73 773 -1.614 -8.002 2.059 30.640 39.398 12.512 149.902 989.955 4499.019 1.869 -1.594 -0.086 -0.02 -0.63 0.77 0.04
1 7.74 774 -2.193 -8.131 2.083 26.886 30.670 9.491 149.902 989.955 4499.019 2.415 -1.456 -0.063 -0.02 -0.63 0.78 0.04
1 7.75 775 -2.974 -8.394 2.284 13.458 13.489 7.843 224.854 839.903 4499.019 3.151 -1.177 -0.189 -0.02 -0.63 0.78 0.04
1 7.76 776 -3.122 -8.758 2.375 3.204 0.458 9.125 224.854 839.903 4499.019 3.262 -0.810 -0.262 -0.02 -0.63 0.78 0.04
1 7.77 777 -3.060 -9.017 2.581 -5.951 -12.726 14.008 239.994 899.864 4454.048 3.162 -0.551 -0.464 -0.03 -0.63 0.78 0.04
1 7.78 778 -2.610 -9.443 2.495 -7.050 -23.285 20.935 239.994 899.864 4454.048 2.670 -0.127 -0.385 -0.03 -0.63 0.78 0.04
1 7.79 779 -2.035 -9.673 2.595 6.653 -30.274 32.257 299.955 989.955 4289.006 2.049 0.102 -0.491 -0.03 -0.63 0.78 0.03
1 7.80 780 -1.082 -9.376 2.275 16.083 -29.358 37.598 464.847 929.994 4349.117 1.045 -0.193 -0.161 -0.03 -0.63 0.78 0.03
1 7.81 781 -0.498 -9.266 2.002 17.761 -27.222 37.567 464.847 929.994 4349.117 0.405 -0.298 0.135 -0.03 -0.62 0.78 0.03
1 7.82 782 0.201 -9.098 1.781 3.906 -24.353 34.302 329.935 869.883 4394.087 -0.392 -0.454 0.401 -0.03 -0.62 0.78 0.02
1 7.83 783 0.417 -9.213 2.088 -9.125 -21.179 32.776 329.935 869.883 4394.087 -0.647 -0.338 0.094 -0.03 -0.62 0.78 0.02
1 7.84 784 0.517 -9.266 2.121 -17.365 -15.839 32.196 269.974 869.883 4334.126 -0.784 -0.288 0.044 -0.03 -0.62 0.78 0.01
1 7.85 785 0.508 -9.376 2.121 -17.853 -12.207 28.076 269.974 869.883 4334.126 -0.809 -0.183 0.018 -0.03 -0.62 0.78 0.01
1 7.86 786 0.431 -9.400 2.107 -10.284 -8.453 22.247 494.978 899.864 4274.016 -0.762 -0.163 0.009 -0.03 -0.63 0.78 0.01
1 7.87 787 0.053 -9.103 1.930 8.728 -1.801 15.228 509.968 944.984 4289.006 -0.406 -0.461 0.176 -0.03 -0.63 0.78 0.01
1 7.88 788 -0.086 -9.094 1.580 18.127 3.174 11.536 509.968 944.984 4289.006 -0.285 -0.468 0.535 -0.03 -0.63 0.78 0.01
1 7.89 789 -0.321 -8.859 1.015 21.576 6.165 6.531 374.906 989.955 4469.039 -0.081 -0.691 1.148 -0.03 -0.62 0.78 0.01
1 7.90 790 -0.311 -8.888 1.144 16.296 4.578 4.211 374.906 989.955 4469.039 -0.101 -0.656 1.045 -0.03 -0.62 0.78 0.01
1 7.91 791 -0.249 -8.835 1.432 8.820 3.418 0.641 389.896 1049.916 4454.048 -0.169 -0.705 0.772 -0.03 -0.62 0.78 0.01
1 7.92 792 -0.278 -9.098 1.781 0.854 6.195 -1.465 389.896 1049.916 4454.048 -0.141 -0.440 0.427 -0.03 -0.62 0.78 0.01
1 7.93 793 -0.508 -9.376 2.097 -4.059 10.590 -2.533 374.906 794.932 4394.087 0.090 -0.164 0.107 -0.03 -0.62 0.78 0.01
1 7.94 794 -0.838 -9.673 2.102 -2.045 16.266 -1.251 404.886 839.903 4364.107 0.420 0.131 0.094 -0.03 -0.62 0.78 0.01
1 7.95 795 -1.159 -9.630 1.872 1.862 16.815 0.092 404.886 839.903 4364.107 0.736 0.087 0.318 -0.03 -0.62 0.78 0.01
1 7.96 796 -1.786 -9.548 1.398 9.186 12.421 2.594 359.916 854.893 4304.146 1.341 0.007 0.795 -0.04 -0.62 0.78 0.01
1 7.97 797 -1.877 -9.271 1.212 10.834 9.522 4.456 359.916 854.893 4304.146 1.413 -0.268 0.990 -0.04 -0.62 0.78 0.01
1 7.98 798 -2.203 -8.816 0.599 10.559 -0.244 6.378 419.876 974.965 4379.097 1.717 -0.719 1.612 -0.04 -0.62 0.78 0.01
1 7.99 799 -2.050 -8.634 0.364 6.928 -6.836 6.195 419.876 974.965 4379.097 1.542 -0.899 1.852 -0.04 -0.62 0.78 0.01
1 8.00 800 -2.002 -8.643 0.196 -1.831 -16.449 5.829 464.847 1004.945 4379.097 1.475 -0.889 2.016 -0.04 -0.62 0.78 0.01
1 8.01 801 -1.686 -8.749 0.249 -5.798 -21.210 6.561 539.948 929.994 4274.016 1.144 -0.786 1.952 -0.04 -0.62 0.78 0.01
1 8.02 802 -1.499 -8.964 0.359 -5.768 -24.628 5.524 539.948 929.994 4274.016 0.944 -0.574 1.822 -0.04 -0.62 0.78 0
1 8.03 803 -1.092 -9.309 0.642 -2.380 -26.032 3.693 299.955 764.952 4214.055 0.528 -0.233 1.520 -0.04 -0.62 0.78 0
1 8.04 804 -0.905 -9.587 0.943 5.981 -27.161 1.770 389.896 854.893 4124.113 0.339 0.041 1.199 0.04 0.62 -0.78 0
1 8.05 805 -0.771 -9.481 1.370 10.132 -30.426 1.251 404.886 839.903 4214.055 0.208 -0.064 0.776 0.04 0.62 -0.78 0
1 8.06 806 -0.579 -9.151 1.676 9.491 -31.983 2.838 404.886 839.903 4214.055 0.022 -0.392 0.482 0.03 0.62 -0.78 0
1 8.07 807 -0.311 -9.084 1.475 6.165 -28.961 -0.580 494.978 824.913 4349.117 -0.240 -0.457 0.694 0.03 0.62 -0.78 0.01
1 8.08 808 -0.043 -9.223 0.785 4.181 -16.174 -5.463 329.935 989.955 4154.094 -0.495 -0.317 1.391 0.03 0.62 -0.78 0.01
1 8.09 809 -0.268 -9.544 0.311 4.913 -7.629 -4.272 329.935 989.955 4154.094 -0.253 0.003 1.867 0.03 0.62 -0.78 0.01
1 8.10 810 -0.378 -9.711 -0.072 5.554 0.610 -4.883 404.886 914.854 4289.006 -0.130 0.169 2.247 0.03 0.62 -0.78 0.01
1 8.11 811 -0.752 -10.396 -0.412 7.996 7.080 -10.773 314.945 929.994 4274.016 0.263 0.850 2.572 0.03 0.62 -0.78 0.01
1 8.12 812 -1.336 -10.382 -0.014 7.568 1.099 -10.437 464.847 854.893 4244.035 0.860 0.833 2.167 0.03 0.62 -0.78 0
1 8.13 813 -1.992 -10.070 1.489 2.686 -13.916 -9.918 464.847 854.893 4244.035 1.525 0.519 0.654 0.03 0.62 -0.78 0
1 8.14 814 -1.906 -11.124 2.476 -4.059 -24.628 -18.036 374.906 914.854 4334.126 1.450 1.571 -0.339 0.03 0.62 -0.78 0
1 8.15 815 -1.528 -13.432 2.753 -9.247 -19.623 -35.858 224.854 989.955 4364.107 1.108 3.876 -0.623 0.02 0.63 -0.78 0
1 8.16 816 -0.527 -14.495 4.607 -18.127 -31.098 -12.787 224.854 989.955 4364.107 0.164 4.933 -2.490 0.02 0.63 -0.78 0
1 8.17 817 0.690 -14.648 4.252 -2.106 -31.311 3.357 314.945 974.965 4274.016 -1.018 5.080 -2.158 0.02 0.63 -0.78 0
1 8.18 818 1.140 -11.287 2.366 73.944 -28.168 42.694 209.863 899.864 4304.146 -1.482 1.729 -0.228 0.02 0.63 -0.78 0.01
1 8.19 819 0.795 -9.060 1.346 87.952 -18.524 39.551 284.964 899.864 4199.064 -1.192 -0.468 0.912 0.02 0.62 -0.78 0.01
1 8.20 820 0.187 -8.323 1.125 56.854 -9.430 28.198 284.964 899.864 4199.064 -0.622 -1.176 1.248 0.02 0.62 -0.79 0.01
1 8.21 821 -0.642 -8.327 1.791 -6.866 -1.617 24.475 224.854 914.854 4214.055 0.171 -1.154 0.644 0.02 0.61 -0.79 0.01
1 8.22 822 -1.355 -9.247 2.639 -68.665 0.793 21.607 269.974 914.854 4154.094 0.849 -0.241 -0.237 0.02 0.61 -0.79 0.02
1 8.23 823 -1.700 -11.852 3.108 -101.746 -1.190 17.365 269.974 914.854 4154.094 1.160 2.338 -0.820 0.02 0.62 -0.79 0.02
1 8.24 824 -1.729 -12.618 3.328 -70.801 -4.395 28.809 209.863 974.965 4064.002 1.160 3.072 -1.187 0.02 0.62 -0.78 0.02
1 8.25 825 -1.762 -12.374 3.486 -14.160 -12.054 33.081 284.964 929.994 4304.146 1.157 2.804 -1.463 0.02 0.63 -0.78 0.02
1 8.26 826 -2.030 -10.655 3.520 52.185 -40.009 34.790 314.945 854.893 4274.016 1.337 1.091 -1.496 0.03 0.63 -0.78 0.03
1 8.27 827 -1.700 -9.232 3.706 55.359 -60.028 32.593 314.945 854.893 4274.016 0.970 -0.310 -1.598 0.02 0.63 -0.78 0.03
1 8.28 828 -1.188 -8.141 3.639 37.232 -75.104 27.222 359.916 929.994 4379.097 0.429 -1.380 -1.442 0.02 0.62 -0.78 0.03
1 8.29 829 -0.378 -7.757 3.534 12.695 -83.069 18.616 239.994 824.913 4199.064 -0.395 -1.746 -1.271 0.02 0.62 -0.78 0.04
1 8.30 830 0.953 -7.858 3.299 -12.360 -77.973 12.726 239.994 824.913 4199.064 -1.723 -1.641 -1.015 0.02 0.62 -0.78 0.04
1 8.31 831 1.743 -7.983 3.146 -16.144 -66.406 12.238 374.906 944.984 4214.055 -2.504 -1.518 -0.867 0.01 0.62 -0.78 0.05
1 8.32 832 2.236 -8.074 3.290 -13.977 -55.023 12.116 239.994 824.913 4244.035 -2.991 -1.431 -1.025 0.01 0.62 -0.78 0.05
1 8.33 833 2.653 -8.136 3.453 -6.836 -42.603 9.033 104.932 899.864 4124.113 -3.374 -1.374 -1.197 0 0.62 -0.78 0.06
1 8.34 834 2.911 -8.299 3.663 -4.822 -36.713 4.181 104.932 899.864 4124.113 -3.605 -1.211 -1.401 0 0.62 -0.78 0.06
1 8.35 835 3.208 -8.423 4.152 -4.761 -31.311 -3.479 59.961 929.994 4274.016 -3.866 -1.087 -1.880 -0 0.62 -0.78 0.06
1 8.36 836 3.237 -8.437 4.372 -5.646 -22.675 -10.071 119.922 914.854 4214.055 -3.849 -1.073 -2.089 -0 0.62 -0.78 0.06
1 8.37 837 3.199 -8.505 4.712 -5.737 -9.522 -16.510 119.922 914.854 4214.055 -3.758 -1.007 -2.419 -0.01 0.62 -0.78 0.06
1 8.38 838 2.485 -8.663 4.018 -4.791 13.580 -23.041 104.932 974.965 4199.064 -2.989 -0.849 -1.713 -0.01 0.62 -0.78 0.05
1 8.39 839 1.853 -8.715 3.218 -4.028 22.156 -23.773 119.922 869.883 4184.074 -2.302 -0.797 -0.905 -0.01 0.62 -0.78 0.05
1 8.40 840 1.226 -8.313 2.150 -5.585 16.266 -23.468 44.971 1019.936 4184.074 -1.585 -1.203 0.166 -0.01 0.62 -0.79 0.04
1 8.41 841 0.919 -8.064 1.700 -7.629 1.312 -25.452 44.971 1019.936 4184.074 -1.241 -1.455 0.608 -0.01 0.62 -0.78 0.04
1 8.42 842 1.044 -7.901 1.872 -11.993 -13.428 -29.022 194.873 1019.936 4214.055 -1.326 -1.622 0.424 -0.01 0.62 -0.78 0.04
1 8.43 843 1.403 -8.160 2.030 -18.921 -22.400 -35.095 44.971 989.955 4109.123 -1.636 -1.369 0.246 -0.01 0.62 -0.78 0.04
1 8.44 844 1.676 -8.481 2.399 -25.086 -23.163 -40.222 44.971 989.955 4109.123 -1.847 -1.057 -0.152 -0.02 0.62 -0.78 0.03
1 8.45 845 2.059 -9.127 2.983 -27.222 -12.146 -42.664 119.922 1139.857 4259.025 -2.156 -0.420 -0.773 -0.02 0.62 -0.78 0.03
1 8.46 846 2.030 -9.649 3.074 -21.179 1.404 -44.403 -59.961 1004.945 4274.016 -2.045 0.093 -0.899 -0.02 0.62 -0.78 0.03
1 8.47 847 1.762 -10.104 3.122 -4.272 22.919 -39.612 -104.932 1124.867 4094.133 -1.623 0.540 -0.986 -0.03 0.62 -0.78 0.02
1 8.48 848 1.173 -10.018 2.888 5.310 32.654 -33.722 -104.932 1124.867 4094.133 -0.974 0.456 -0.747 -0.03 0.62 -0.78 0.02
1 8.49 849 0.589 -10.099 2.682 9.094 34.332 -27.191 14.990 944.984 4259.025 -0.346 0.542 -0.525 -0.03 0.62 -0.78 0.01
1 8.50 850 0.115 -9.908 2.150 6.683 28.656 -21.973 -59.961 1079.896 4379.097 0.158 0.356 0.024 -0.03 0.62 -0.78 0.01
1 8.51 851 0.110 -10.085 1.762 2.014 14.526 -16.876 -59.961 1079.896 4379.097 0.184 0.536 0.421 -0.03 0.62 -0.78 0.01
1 8.52 852 0.244 -10.037 1.705 3.510 -9.491 -10.864 14.990 1064.906 4364.107 0.068 0.488 0.478 -0.03 0.62 -0.78 0.01
1 8.53 853 0.757 -9.951 2.059 7.690 -22.461 -7.568 -119.922 989.955 4214.055 -0.426 0.402 0.123 -0.03 0.62 -0.78 0.01
1 8.54 854 1.082 -9.984 2.586 6.592 -28.748 -4.120 -119.922 989.955 4214.055 -0.733 0.438 -0.399 -0.03 0.62 -0.78 0.01
1 8.55 855 1.729 -10.228 2.978 0.092 -25.116 0.458 -149.902 914.854 4184.074 -1.342 0.687 -0.777 -0.03 0.62 -0.78 0.01
1 8.56 856 1.810 -10.315 3.127 -1.434 -15.900 7.141 0.000 1004.945 4304.146 -1.415 0.773 -0.926 -0.03 0.62 -0.78 0.01
1 8.57 857 2.021 -9.946 2.988 1.984 -6.256 13.275 -44.971 1094.887 4259.025 -1.629 0.405 -0.786 -0.03 0.62 -0.78 0.01
1 8.58 858 2.236 -9.438 2.576 7.507 4.364 14.160 -44.971 1094.887 4259.025 -1.852 -0.101 -0.365 -0.03 0.62 -0.78 0.01
1 8.59 859 2.337 -8.792 1.657 12.146 14.465 8.759 -89.941 1019.936 4214.055 -1.961 -0.744 0.571 -0.03 0.62 -0.78 0.01
1 8.60 860 2.413 -8.457 1.302 10.956 19.226 6.042 -194.873 1139.857 4334.126 -2.041 -1.075 0.944 -0.03 0.62 -0.78 0.01
1 8.61 861 2.375 -8.246 0.910 4.761 24.262 3.082 -194.873 1139.857 4334.126 -2.003 -1.283 1.350 -0.03 0.62 -0.78 0.01
1 8.62 862 2.054 -8.404 0.958 -4.364 30.396 -2.411 -134.912 1079.896 4169.084 -1.698 -1.123 1.311 -0.03 0.62 -0.78 0
1 8.63 863 1.882 -8.758 0.982 -4.303 29.358 -7.629 -44.971 944.984 4214.055 -1.531 -0.770 1.282 -0.02 0.62 -0.78 0
1 8.64 864 1.422 -8.912 1.365 1.007 25.787 -10.407 14.990 989.955 4289.006 -1.056 -0.619 0.888 0.02 -0.62 0.78 0
1 8.65 865 1.130 -8.921 1.777 8.453 17.944 -9.064 14.990 989.955 4289.006 -0.749 -0.609 0.475 0.02 -0.62 0.78 0
1 8.66 866 0.900 -8.533 2.155 12.543 12.299 -7.385 -44.971 1139.857 4109.123 -0.505 -0.994 0.108 0.02 -0.62 0.78 0
1 8.67 867 1.221 -8.222 1.858 10.376 13.763 -11.841 -89.941 1064.906 4154.094 -0.814 -1.300 0.424 0.02 -0.62 0.79 0.01
1 8.68 868 1.461 -8.097 1.336 7.355 19.959 -13.886 -89.941 1064.906 4154.094 -1.042 -1.420 0.963 0.02 -0.62 0.79 0.01
1 8.69 869 1.475 -8.165 0.800 -1.221 29.083 -10.956 119.922 1139.857 4289.006 -1.033 -1.347 1.519 0.02 -0.62 0.79 0.01
1 8.70 870 1.279 -8.160 0.718 -8.209 31.403 -8.575 14.990 1094.887 4184.074 -0.833 -1.352 1.598 0.02 -0.62 0.79 0.01
1 8.71 871 1.245 -8.495 0.474 -14.221 31.555 -8.881 0.000 1199.968 4274.016 -0.797 -1.020 1.830 0.02 -0.62 0.79 0.02
1 8.72 872 1.030 -8.825 0.498 -17.639 26.886 -8.972 0.000 1199.968 4274.016 -0.580 -0.694 1.786 0.01 -0.62 0.78 0.02
1 8.73 873 1.097 -9.184 0.637 -18.127 18.951 -7.294 -14.990 1019.936 4154.094 -0.640 -0.342 1.617 0.01 -0.62 0.78 0.02
1 8.74 874 1.288 -9.730 0.967 -15.289 6.012 -1.495 -59.961 899.864 4244.035 -0.823 0.196 1.251 0.01 -0.62 0.78 0.02
1 8.75 875 1.456 -9.706 1.250 -14.679 3.540 2.075 -59.961 899.864 4244.035 -0.983 0.165 0.935 0.01 -0.62 0.78 0.02
1 8.76 876 2.002 -10.324 1.456 -8.484 16.937 -2.686 -14.990 914.854 4259.025 -1.523 0.771 0.675 0.01 -0.63 0.78 0.02
1 8.77 877 2.016 -10.822 1.556 -4.730 25.116 -6.897 -44.971 1169.988 4109.123 -1.526 1.266 0.560 0.01 -0.63 0.78 0.02
1 8.78 878 1.844 -11.799 2.543 9.216 46.875 -18.646 -89.941 989.955 4184.074 -1.346 2.245 -0.419 0.01 -0.63 0.78 0.03
1 8.79 879 0.915 -12.163 3.965 6.928 54.321 -24.780 -89.941 989.955 4184.074 -0.403 2.614 -1.823 0.01 -0.63 0.78 0.03
1 8.80 880 0.057 -12.273 4.568 -5.432 53.406 -29.663 44.971 1214.958 4154.094 0.474 2.727 -2.416 0.01 -0.62 0.78 0.03
1 8.81 881 -0.656 -11.900 4.128 -24.078 23.865 -16.022 0.000 1124.867 4169.084 1.214 2.353 -1.985 0.01 -0.63 0.78 0.04
1 8.82 882 -0.646 -11.354 2.806 -23.285 -1.923 -7.507 0.000 1124.867 4169.084 1.223 1.802 -0.693 0 -0.63 0.78 0.04
1 8.83 883 -0.254 -10.722 1.623 -12.482 -22.247 -5.035 59.961 1004.945 4199.064 0.842 1.163 0.455 0.01 -0.63 0.78 0.04
1 8.84 884 0.575 -10.070 1.853 -0.214 -43.213 -1.984 -29.980 1154.848 4199.064 0.041 0.505 0.187 0.01 -0.63 0.78 0.04
1 8.85 885 1.183 -9.836 2.514 -2.228 -46.723 -1.587 89.941 1019.936 4214.055 -0.552 0.270 -0.481 0.01 -0.63 0.78 0.04
1 8.86 886 1.642 -9.750 3.141 -15.289 -39.673 -3.174 89.941 1019.936 4214.055 -0.991 0.183 -1.119 0.01 -0.63 0.78 0.04
1 8.87 887 2.078 -9.644 3.534 -32.837 -26.825 -1.587 -89.941 1169.988 4184.074 -1.404 0.074 -1.537 0.02 -0.63 0.78 0.03
1 8.88 888 2.236 -9.936 3.386 -50.781 -3.723 2.319 -29.980 1124.867 4274.016 -1.544 0.358 -1.434 0.02 -0.63 0.77 0.03
1 8.89 889 1.887 -10.286 2.959 -48.065 7.538 6.500 -29.980 1124.867 4274.016 -1.184 0.696 -1.069 0.02 -0.63 0.77 0.03
1 8.90 890 1.566 -10.860 2.864 -28.595 16.510 10.559 29.980 1274.919 4244.035 -0.867 1.257 -1.041 0.02 -0.64 0.77 0.03
1 8.91 891 0.694 -11.033 3.223 20.264 27.405 18.799 -104.932 1199.968 4199.064 -0.040 1.416 -1.455 0.02 -0.64 0.77 0.03
1 8.92 892 0.249 -10.846 3.577 48.371 33.722 23.712 -14.990 1244.939 4364.107 0.368 1.235 -1.765 0.01 -0.64 0.77 0.03
1 8.93 893 -0.326 -10.152 3.749 59.235 39.063 26.672 -14.990 1244.939 4364.107 0.897 0.553 -1.857 0.01 -0.64 0.77 0.03
1 8.94 894 -0.503 -9.462 3.884 50.141 39.093 29.053 44.971 1244.939 4259.025 1.022 -0.121 -1.902 0.01 -0.63 0.77 0.03
1 8.95 895 -0.876 -8.844 3.783 29.297 34.515 29.541 -44.971 1214.958 4259.025 1.333 -0.725 -1.718 0 -0.63 0.78 0.03
1 8.96 896 -1.058 -8.370 2.758 -1.404 28.900 26.764 -44.971 1214.958 4259.025 1.452 -1.191 -0.644 -0 -0.63 0.78 0.03
1 8.97 897 -1.130 -8.562 1.853 -8.667 26.856 23.987 119.922 1169.988 4109.123 1.464 -0.998 0.276 -0 -0.63 0.78 0.03
1 8.98 898 -1.681 -8.663 1.513 -2.991 19.714 21.149 119.922 1064.906 4184.074 1.908 -0.905 0.598 -0.01 -0.63 0.78 0.03
1 8.99 899 -1.829 -8.730 1.599 5.798 10.956 21.820 194.873 1214.958 4214.055 2.005 -0.839 0.509 -0.01 -0.63 0.78 0.03
1 9.00 900 -2.294 -8.859 1.891 12.024 0.580 21.881 194.873 1214.958 4214.055 2.419 -0.709 0.226 -0.01 -0.63 0.78 0.03
1 9.01 901 -2.059 -9.271 2.131 13.306 -7.751 21.332 194.873 1019.936 4184.074 2.135 -0.294 0.004 -0.02 -0.63 0.78 0.03
1 9.02 902 -1.647 -9.472 2.208 8.881 -12.146 23.438 149.902 1244.939 4214.055 1.678 -0.089 -0.054 -0.02 -0.62 0.78 0.02
1 9.03 903 -0.790 -9.788 2.648 0.793 -15.808 30.243 149.902 1244.939 4214.055 0.776 0.230 -0.483 -0.02 -0.62 0.78 0.02
1 9.04 904 -0.321 -9.659 2.619 -0.854 -11.871 33.600 269.974 1139.857 4109.123 0.261 0.102 -0.450 -0.02 -0.62 0.78 0.02
1 9.05 905 -0.081 -9.773 2.624 3.601 -4.089 35.675 269.974 1139.857 4109.123 -0.027 0.218 -0.452 -0.02 -0.62 0.78 0.02
1 9.06 906 -0.211 -9.524 2.437 12.238 7.202 39.490 209.863 1229.949 4169.084 -0.002 -0.024 -0.243 -0.02 -0.62 0.78 0.01
1 9.07 907 -0.316 -9.060 1.882 13.550 11.902 38.391 209.863 1229.949 4169.084 0.043 -0.483 0.332 -0.03 -0.62 0.78 0.01
1 9.08 908 -0.637 -8.854 1.599 11.078 10.895 35.614 419.876 1199.968 4199.064 0.304 -0.683 0.633 -0.03 -0.62 0.78 0.01
1 9.09 909 -0.919 -8.605 1.188 4.669 6.592 31.250 314.945 1154.848 4244.035 0.531 -0.927 1.055 -0.03 -0.62 0.78 0.01
1 9.10 910 -1.020 -8.768 1.101 -4.974 -3.662 22.919 314.945 1154.848 4244.035 0.586 -0.761 1.145 -0.03 -0.62 0.78 0
1 9.11 911 -1.006 -9.280 1.666 -9.064 -10.010 19.745 449.857 1214.958 4004.042 0.535 -0.249 0.572 -0.03 -0.62 0.78 0
1 9.12 912 -0.872 -9.453 2.011 -9.583 -14.313 18.158 449.857 1214.958 4004.042 0.369 -0.079 0.210 -0.03 -0.62 0.78 0
1 9.13 913 -0.584 -9.529 2.260 -5.005 -16.449 15.656 359.916 1154.848 4124.113 0.055 -0.005 -0.056 0.03 0.62 -0.78 0
1 9.14 914 -0.091 -9.735 2.255 8.667 -11.047 9.857 464.847 1199.968 4169.084 -0.471 0.202 -0.056 0.03 0.62 -0.78 0
1 9.15 915 0.024 -9.539 2.169 16.571 -1.770 9.705 404.886 1214.958 4184.074 -0.595 0.010 0.047 0.03 0.62 -0.78 0
1 9.16 916 -0.024 -9.371 1.853 18.372 7.904 8.820 404.886 1019.936 4184.074 -0.557 -0.151 0.388 0.03 0.62 -0.78 0
1 9.17 917 -0.019 -9.261 1.542 16.754 15.839 7.019 404.886 1019.936 4184.074 -0.572 -0.255 0.723 0.03 0.62 -0.78 0
1 9.18 918 -0.326 -9.333 1.049 9.033 20.416 3.815 419.876 1154.848 4169.084 -0.276 -0.179 1.232 0.04 0.62 -0.79 0
1 9.19 919 -0.666 -9.204 1.097 4.242 17.792 3.632 419.876 1154.848 4169.084 0.054 -0.306 1.191 0.04 0.62 -0.79 0
1 9.20 920 -0.795 -9.357 0.824 1.099 10.712 2.136 329.935 1019.936 4184.074 0.163 -0.154 1.455 0.04 0.62 -0.79 0
1 9.21 921 -0.833 -9.625 0.603 2.167 5.066 1.617 329.935 1019.936 4184.074 0.194 0.113 1.666 0.04 0.62 -0.78 0
1 9.22 922 -0.666 -9.496 0.441 5.371 1.038 1.465 329.935 1094.887 4049.012 0.021 -0.018 1.821 0.04 0.62 -0.78 0
1 9.23 923 -0.527 -9.414 0.426 9.094 -1.678 1.770 479.987 1094.887 4004.042 -0.121 -0.100 1.832 0.04 0.62 -0.78 0
1 9.24 924 -0.350 -9.036 0.283 12.512 -1.007 2.045 479.987 1094.887 4004.042 -0.301 -0.478 1.977 0.04 0.62 -0.78 0
1 9.25 925 0.153 -8.921 0.273 10.773 5.554 1.160 419.876 974.965 4019.032 -0.805 -0.591 1.992 0.04 0.62 -0.78 0
1 9.26 926 0.139 -8.797 0.306 5.920 12.451 -0.488 419.876 974.965 4019.032 -0.790 -0.715 1.962 0.04 0.62 -0.78 0
1 9.27 927 -0.096 -8.878 0.153 -3.296 24.872 -3.174 464.847 1154.848 4064.002 -0.560 -0.633 2.118 0.04 0.62 -0.78 0
1 9.28 928 -0.455 -8.993 0.316 -6.470 32.379 -2.991 464.847 1154.848 4064.002 -0.204 -0.521 1.939 -0.04 -0.62 0.78 0
1 9.29 929 -1.226 -9.161 0.441 -8.179 36.286 -3.143 509.968 1019.936 4079.143 0.562 -0.360 1.788 -0.05 -0.62 0.78 0
1 9.30 930 -1.810 -9.184 0.613 -8.820 35.950 -3.296 464.847 1049.916 4064.002 1.136 -0.342 1.587 -0.05 -0.62 0.78 0
1 9.31 931 -2.380 -9.113 0.512 -9.888 29.205 -3.937 464.847 1049.916 4064.002 1.692 -0.419 1.660 -0.05 -0.62 0.78 0.01
1 9.32 932 -2.897 -9.395 0.211 -11.017 11.047 -6.226 464.847 1124.867 4019.032 2.194 -0.142 1.932 -0.05 -0.62 0.78 0.01
1 9.33 933 -2.931 -9.553 0.139 -9.857 -3.174 -5.463 464.847 1124.867 4019.032 2.216 0.010 1.974 -0.05 -0.62 0.78 0.01
1 9.34 934 -2.701 -9.678 0.000 -5.493 -16.327 -5.188 494.978 1049.916 3989.051 1.978 0.129 2.084 -0.05 -0.63 0.78 0.01
1 9.35 935 -2.045 -9.864 0.072 3.448 -29.633 -4.791 554.938 1139.857 4154.094 1.319 0.308 1.976 -0.05 -0.63 0.78 0.01
1 9.36 936 -1.346 -10.094 0.096 7.904 -33.112 -5.554 479.987 944.984 4154.094 0.626 0.537 1.948 -0.05 -0.63 0.78 0
1 9.37 937 -0.881 -10.195 0.239 11.444 -32.379 -5.859 419.876 1199.968 3959.071 0.174 0.637 1.806 -0.05 -0.63 0.78 0
1 9.38 938 -0.862 -10.372 0.508 12.390 -28.961 -5.249 419.876 1199.968 3959.071 0.171 0.814 1.544 -0.05 -0.63 0.78 0
1 9.39 939 -0.718 -10.329 1.662 6.683 -22.156 -3.967 479.987 1139.857 4154.094 0.041 0.772 0.397 0.04 0.63 -0.78 0
1 9.40 940 -0.450 -11.995 2.600 3.693 -9.583 -10.437 479.987 1139.857 4154.094 -0.214 2.439 -0.533 0.04 0.63 -0.78 0
1 9.41 941 -0.096 -13.461 2.978 -1.312 5.890 -15.900 584.919 1019.936 4004.042 -0.552 3.905 -0.904 0.04 0.63 -0.78 0
1 9.42 942 0.603 -13.585 4.200 -15.778 15.411 -2.686 509.968 989.955 4079.143 -1.218 4.024 -2.141 -0.04 -0.63 0.78 0
1 9.43 943 0.766 -13.710 3.687 -3.601 23.956 -0.427 464.847 1079.896 4019.032 -1.384 4.144 -1.651 -0.04 -0.63 0.78 0
1 9.44 944 0.235 -12.876 2.409 28.931 27.222 9.674 584.919 1244.939 4049.012 -0.862 3.311 -0.370 -0.04 -0.63 0.78 0
1 9.45 945 -0.661 -10.588 2.140 56.122 21.881 31.433 584.919 1244.939 4049.012 0.003 1.036 -0.050 -0.05 -0.63 0.78 0
1 9.46 946 -1.417 -8.586 1.700 56.275 18.341 34.271 509.968 1064.906 3974.061 0.703 -0.943 0.473 -0.05 -0.62 0.78 0
1 9.47 947 -2.356 -8.303 1.997 5.371 7.233 22.064 509.968 1064.906 3974.061 1.585 -1.205 0.246 -0.05 -0.62 0.78 0
1 9.48 948 -2.370 -9.290 2.011 -44.129 -3.632 16.937 404.886 1094.887 4004.042 1.562 -0.210 0.255 -0.05 -0.62 0.78 0
1 9.49 949 -1.944 -10.860 2.069 -72.632 -14.496 14.282 494.978 1049.916 3989.051 1.069 1.333 0.052 0.05 0.62 -0.78 0
1 9.50 950 -1.753 -11.258 2.212 -50.537 -14.710 16.174 629.890 1094.887 3899.110 0.860 1.710 -0.190 0.05 0.63 -0.78 0
1 9.51 951 -1.484 -11.698 3.170 -10.284 -13.855 15.076 479.987 1019.936 4004.042 0.573 2.141 -1.206 0.05 0.63 -0.77 0.01
1 9.52 952 -1.480 -11.200 3.606 25.208 -16.998 14.526 479.987 1019.936 4004.042 0.551 1.644 -1.641 0.05 0.63 -0.77 0.01
1 9.53 953 -1.398 -10.458 3.860 40.344 -26.642 13.153 479.987 1019.936 4109.123 0.454 0.914 -1.847 0.05 0.63 -0.78 0.01
1 9.54 954 -0.809 -9.065 4.013 29.266 -49.927 9.888 479.987 1019.936 4109.123 -0.144 -0.465 -1.937 0.05 0.63 -0.78 0.01
1 9.55 955 -0.374 -8.653 3.773 16.022 -62.805 9.522 569.929 1124.867 4274.016 -0.583 -0.862 -1.631 0.05 0.62 -0.78 0.01
1 9.56 956 0.804 -8.370 3.534 6.561 -66.986 6.195 554.938 1139.857 4079.143 -1.738 -1.127 -1.304 0.04 0.62 -0.78 0.02
1 9.57 957 1.077 -8.251 3.486 6.439 -64.545 5.859 449.857 1064.906 3929.090 -1.986 -1.242 -1.225 0.04 0.62 -0.78 0.02
1 9.58 958 1.968 -8.169 3.318 7.019 -49.286 6.073 599.909 1004.945 4019.032 -2.849 -1.319 -1.029 0.04 0.62 -0.78 0.03
1 9.59 959 2.217 -8.030 3.323 6.073 -37.415 6.805 599.909 1004.945 4019.032 -3.071 -1.454 -1.007 0.03 0.62 -0.79 0.03
1 9.60 960 2.423 -7.863 3.472 1.801 -25.604 3.876 419.876 1049.916 3989.051 -3.252 -1.618 -1.133 0.03 0.62 -0.79 0.03
1 9.61 961 2.686 -8.222 3.491 -9.247 -9.338 -9.522 419.876 1049.916 3989.051 -3.499 -1.258 -1.144 0.03 0.62 -0.79 0.03
1 9.62 962 2.753 -8.284 3.342 -12.726 0.458 -20.264 329.935 989.955 4049.012 -3.527 -1.199 -0.993 0.03 0.62 -0.79 0.03
1 9.63 963 2.318 -8.773 3.400 -13.336 7.843 -30.274 284.964 1154.848 3989.051 -3.039 -0.716 -1.057 0.03 0.62 -0.79 0.03
1 9.64 964 1.695 -9.682 2.892 -3.754 17.090 -45.471 329.935 1139.857 3929.090 -2.281 0.180 -0.568 0.02 0.62 -0.79 0.02
1 9.65 965 1.020 -9.898 2.739 6.348 16.113 -47.058 224.854 1139.857 4079.143 -1.526 0.392 -0.413 0.02 0.62 -0.79 0.02
1 9.66 966 0.354 -9.903 2.701 12.360 7.996 -46.448 224.854 1139.857 4079.143 -0.784 0.396 -0.362 0.02 0.62 -0.79 0.01
1 9.67 967 0.182 -9.764 2.543 15.564 -3.632 -45.075 314.945 1079.896 3989.051 -0.539 0.259 -0.182 0.02 0.62 -0.79 0.01
1 9.68 968 0.407 -9.443 2.801 12.421 -21.576 -39.246 314.945 1079.896 3989.051 -0.692 -0.058 -0.417 0.01 0.61 -0.79 0.01
1 9.69 969 0.800 -9.199 2.744 5.646 -25.024 -33.936 194.873 1094.887 4004.042 -1.016 -0.298 -0.336 0.01 0.61 -0.79 0
1 9.70 970 0.977 -8.888 2.672 -0.183 -22.583 -29.266 209.863 974.965 3959.071 -1.128 -0.607 -0.250 0.01 0.61 -0.79 0
1 9.71 971 1.365 -8.658 2.370 -7.416 -7.568 -25.482 224.854 1094.887 4049.012 -1.402 -0.838 0.053 -0 -0.61 0.79 0
1 9.72 972 1.111 -8.720 2.121 -8.362 1.129 -24.628 59.961 974.965 3989.051 -1.100 -0.778 0.292 -0 -0.61 0.79 0
1 9.73 973 0.872 -8.969 1.939 -8.057 3.937 -23.132 59.961 974.965 3989.051 -0.817 -0.532 0.462 0 -0.61 0.79 0
1 9.74 974 0.623 -9.046 1.935 -4.608 1.526 -21.820 119.922 1094.887 3974.061 -0.529 -0.458 0.454 0 -0.61 0.79 0.01
1 9.75 975 0.479 -9.137 1.896 0.610 -6.256 -20.660 119.922 1094.887 3974.061 -0.349 -0.369 0.485 0 -0.62 0.79 0.01
1 9.76 976 0.685 -8.912 2.342 7.813 -20.874 -17.090 59.961 1079.896 3839.149 -0.520 -0.593 0.040 0 -0.62 0.79 0.01
1 9.77 977 1.034 -8.993 2.452 8.575 -26.367 -14.862 134.912 1199.968 3884.120 -0.833 -0.509 -0.061 0.01 -0.61 0.79 0.01
1 9.78 978 1.403 -8.864 2.562 2.594 -25.787 -11.444 194.873 1094.887 3824.009 -1.131 -0.631 -0.149 0.01 -0.61 0.79 0.01
1 9.79 979 1.820 -8.758 2.389 -3.357 -22.827 -7.843 194.873 1094.887 3824.009 -1.513 -0.734 0.026 0.01 -0.61 0.79 0.01
1 9.80 980 1.973 -8.672 2.394 -8.545 -19.104 -4.913 194.873 1094.887 3824.009 -1.636 -0.821 0.015 0.01 -0.61 0.79 0.01
1 9.81 981 2.016 -8.442 2.097 -12.207 -14.893 -3.510 134.912 1079.896 3884.120 -1.654 -1.053 0.299 0.02 -0.61 0.79 0.01
1 9.82 982 2.389 -8.246 1.743 -14.252 -10.986 -3.510 134.912 1079.896 3884.120 -2.004 -1.254 0.634 0.02 -0.62 0.79 0.01
1 9.83 983 2.509 -8.117 1.633 -17.059 -5.035 -2.808 0.000 1124.867 3914.100 -2.108 -1.388 0.720 0.02 -0.62 0.79 0.01
1 9.84 984 2.619 -8.165 1.302 -17.273 0.305 -3.113 44.971 1094.887 3899.110 -2.204 -1.346 1.025 0.02 -0.62 0.79 0.01
1 9.85 985 2.476 -8.222 1.231 -15.900 5.920 -4.791 44.971 1094.887 3899.110 -2.056 -1.295 1.071 0.02 -0.62 0.79 0.01
1 9.86 986 2.227 -8.447 1.183 -9.796 14.496 -5.493 -44.971 1169.988 4079.143 -1.789 -1.079 1.075 0.02 -0.62 0.78 0.01
1 9.87 987 1.801 -8.792 1.360 -4.334 20.508 -6.805 -44.971 1169.988 4079.143 -1.360 -0.737 0.886 0.02 -0.62 0.78 0.01
1 9.88 988 1.532 -8.959 1.408 1.007 25.513 -7.141 -44.971 1214.958 4004.042 -1.078 -0.571 0.829 0.02 -0.62 0.78 0.02
1 9.89 989 1.092 -9.055 1.710 3.601 26.733 -4.883 -44.971 1214.958 4004.042 -0.627 -0.475 0.527 0.02 -0.62 0.78 0.02
1 9.90 990 0.857 -8.840 1.542 3.387 20.020 -2.716 149.902 1394.991 4049.012 -0.389 -0.689 0.698 0.02 -0.62 0.78 0.02
1 9.91 991 0.776 -8.797 1.422 1.221 16.388 -0.214 -44.971 1289.910 4004.042 -0.307 -0.732 0.821 0.01 -0.62 0.78 0.02
1 9.92 992 0.991 -8.639 1.125 -2.594 15.320 2.716 -44.971 1289.910 4004.042 -0.524 -0.890 1.118 0.01 -0.62 0.78 0.02
1 9.93 993 1.101 -9.022 0.498 -11.200 9.399 5.890 44.971 1139.857 4049.012 -0.650 -0.511 1.729 0.01 -0.62 0.78 0.02
1 9.94 994 1.355 -9.405 0.225 -13.611 1.953 6.744 44.971 1139.857 4049.012 -0.912 -0.134 1.979 0.01 -0.62 0.78 0.02
1 9.95 995 1.518 -10.094 0.306 -12.177 -5.707 8.759 -14.990 1244.939 3929.090 -1.079 0.548 1.864 0.01 -0.62 0.78 0.02
1 9.96 996 1.839 -10.655 0.551 -8.698 -12.512 15.747 -14.990 1244.939 3929.090 -1.404 1.101 1.589 0.01 -0.63 0.78 0.02
1 9.97 997 2.461 -10.659 1.733 -9.216 -15.900 26.306 -14.990 1214.958 3899.110 -2.044 1.100 0.386 0.01 -0.63 0.78 0.02
1 9.98 998 2.801 -10.913 2.356 -13.886 -4.974 19.348 -134.912 1124.867 3914.100 -2.417 1.350 -0.250 0.01 -0.63 0.78 0.02
1 9.99 999 3.247 -11.435 2.710 -13.306 8.667 12.939 -134.912 1124.867 3914.100 -2.891 1.866 -0.624 0.01 -0.63 0.78 0.02
1 10.00 1000 3.347 -12.120 3.802 -15.717 31.983 1.465 14.990 1289.910 3899.110 -3.036 2.541 -1.755 0.01 -0.63 0.78 0.02
1 10.01 1001 3.256 -12.742 3.984 -11.566 53.528 -14.496 14.990 1289.910 3899.110 -2.952 3.159 -1.958 0.01 -0.63 0.78 0.02
1 10.02 1002 2.404 -12.876 3.984 -9.827 60.578 -12.817 -44.971 1139.857 4079.143 -2.096 3.291 -1.970 0 -0.63 0.78 0.02
1 10.03 1003 1.470 -12.220 3.477 -15.350 48.950 -8.881 -44.971 1139.857 4079.143 -1.164 2.631 -1.477 0 -0.63 0.78 0.02
1 10.04 1004 0.915 -11.809 2.763 -11.414 29.724 -9.735 269.974 1139.857 4004.042 -0.609 2.215 -0.784 -0 -0.63 0.77 0.03
1 10.05 1005 1.116 -10.702 1.868 5.066 4.059 -8.057 149.902 1319.890 4004.042 -0.803 1.107 0.100 -0 -0.63 0.77 0.03
1 10.06 1006 1.207 -9.898 1.796 17.609 -1.495 -9.064 149.902 1319.890 4004.042 -0.884 0.304 0.175 -0 -0.63 0.77 0.03
1 10.07 1007 1.231 -9.721 2.203 22.125 1.068 -11.047 239.994 1199.968 4094.133 -0.893 0.131 -0.212 -0 -0.63 0.78 0.03
1 10.08 1008 1.221 -9.285 2.878 6.226 10.193 -8.331 149.902 1244.939 3929.090 -0.841 -0.291 -0.830 -0 -0.63 0.78 0.03
1 10.09 1009 1.144 -9.127 3.232 -12.970 19.775 -4.852 104.932 1049.916 4019.032 -0.751 -0.447 -1.176 -0 -0.63 0.78 0.03
1 10.10 1010 0.876 -9.309 3.247 -31.342 26.886 -1.709 104.932 1049.916 4019.032 -0.477 -0.268 -1.207 -0 -0.63 0.78 0.03
1 10.11 1011 0.603 -9.884 3.328 -39.368 28.687 2.228 104.932 1199.968 4094.133 -0.208 0.298 -1.326 -0 -0.63 0.78 0.04
1 10.12 1012 0.402 -10.487 3.726 -20.752 31.372 9.674 59.961 1274.919 4019.032 -0.018 0.892 -1.769 -0.01 -0.63 0.77 0.04
1 10.13 1013 -0.034 -10.468 4.233 4.791 38.544 15.320 59.961 1274.919 4019.032 0.397 0.866 -2.306 -0.01 -0.63 0.77 0.04
1 10.14 1014 -0.273 -10.075 4.319 27.374 51.148 18.799 29.980 1424.972 4019.032 0.605 0.472 -2.394 -0.01 -0.63 0.77 0.04
1 10.15 1015 -1.034 -9.299 3.869 41.809 65.003 18.402 134.912 1424.972 4124.113 1.276 -0.286 -1.843 -0.02 -0.63 0.78 0.04
1 10.16 1016 -1.633 -8.730 3.237 36.224 63.782 17.487 224.854 1364.861 4154.094 1.819 -0.840 -1.135 -0.02 -0.63 0.78 0.04
1 10.17 1017 -2.112 -8.198 2.729 22.705 51.972 18.189 224.854 1364.861 4154.094 2.239 -1.360 -0.567 -0.03 -0.62 0.78 0.04
1 10.18 1018 -2.605 -7.968 2.251 8.057 36.347 17.334 239.994 1349.871 3839.149 2.674 -1.582 -0.053 -0.03 -0.62 0.78 0.04
1 10.19 1019 -2.993 -7.772 1.944 -1.129 18.372 15.686 509.968 1289.910 4004.042 3.027 -1.777 0.261 -0.03 -0.62 0.78 0.04
1 10.20 1020 -3.127 -7.925 1.915 -4.211 -4.883 16.419 509.968 1289.910 4004.042 3.133 -1.624 0.287 -0.03 -0.62 0.78 0.04
1 10.21 1021 -2.902 -8.054 2.069 -2.930 -13.458 17.090 494.978 1424.972 3884.120 2.885 -1.496 0.127 -0.04 -0.62 0.78 0.04
