COL1	TIME	ACC_X	ACC_Y	ACC_Z	GYR_X	GYR_Y	GYR_Z	MAG_X	MAG_Y	MAG_Z	LACC_X	LACC_Y	LACC_Z	QUAT_X	QUAT_Y	QUAT_Z	QUAT_W
1 0.00 0 0.211 -9.592 2.744 -1.007 -2.289 1.740 -449.857 -734.971 -3209.859 -0.004 0.190 0.015 -0.04 0.6 -0.8 0.04
1 0.01 1 0.182 -9.462 3.022 -0.427 -2.136 1.617 -494.978 -659.870 -3164.888 0.024 0.061 -0.263 -0.04 0.6 -0.8 0.04
1 0.02 2 0.335 -9.510 2.873 -0.916 -1.831 1.404 -464.997 -839.903 -3194.869 -0.129 0.109 -0.113 -0.04 0.6 -0.8 0.04
1 0.03 3 0.196 -9.371 2.864 -0.641 -2.289 1.495 -464.997 -839.903 -3194.869 0.010 -0.030 -0.103 -0.04 0.6 -0.8 0.04
1 0.04 4 0.177 -9.390 3.022 -0.641 -1.892 1.587 -449.857 -704.991 -3419.872 0.029 -0.010 -0.260 -0.04 0.6 -0.8 0.04
1 0.05 5 0.077 -9.386 2.849 -1.068 -2.350 1.343 -449.857 -704.991 -3419.872 0.129 -0.015 -0.086 -0.04 0.6 -0.8 0.04
1 0.06 6 0.220 -9.429 2.868 -1.648 -2.167 1.343 -359.916 -599.909 -3404.882 -0.015 0.029 -0.105 -0.04 0.6 -0.8 0.04
1 0.07 7 0.244 -9.457 2.811 -1.526 -2.716 1.404 -449.857 -779.942 -3419.872 -0.040 0.057 -0.049 -0.04 0.6 -0.8 0.04
1 0.08 8 0.163 -9.477 2.811 -1.160 -2.319 1.556 -284.964 -719.981 -3404.882 0.041 0.075 -0.051 -0.04 0.6 -0.8 0.04
1 0.09 9 0.220 -9.572 2.907 -0.427 -2.258 1.099 -359.916 -644.880 -3329.931 -0.017 0.171 -0.147 -0.04 0.6 -0.8 0.04
1 0.10 10 0.072 -9.491 2.864 -1.129 -2.258 1.038 -359.916 -644.880 -3329.931 0.133 0.090 -0.103 -0.04 0.6 -0.8 0.04
1 0.11 11 0.163 -9.501 2.830 -1.007 -2.136 1.221 -449.857 -704.991 -3419.872 0.041 0.100 -0.069 -0.04 0.6 -0.8 0.04
1 0.12 12 0.086 -9.501 2.888 -1.190 -1.526 0.977 -449.857 -704.991 -3419.872 0.117 0.100 -0.127 -0.04 0.6 -0.8 0.04
1 0.13 13 0.086 -9.457 2.868 -0.793 -1.831 1.160 -374.906 -734.971 -3314.940 0.116 0.057 -0.107 -0.04 0.6 -0.8 0.04
1 0.14 14 0.101 -9.405 2.840 -0.763 -3.021 0.793 -464.997 -794.932 -3329.931 0.102 0.004 -0.077 -0.04 0.6 -0.8 0.04
1 0.15 15 0.187 -9.395 2.873 -0.671 -1.892 1.190 -464.997 -794.932 -3329.931 0.016 -0.005 -0.110 -0.04 0.6 -0.8 0.04
1 0.16 16 0.230 -9.405 2.859 -1.251 -2.716 0.732 -449.857 -779.942 -3314.940 -0.026 0.005 -0.094 -0.04 0.6 -0.8 0.04
1 0.17 17 0.278 -9.481 2.749 -1.495 -1.740 0.946 -449.857 -779.942 -3314.940 -0.073 0.082 0.016 -0.04 0.6 -0.8 0.04
1 0.18 18 0.163 -9.515 2.873 -0.824 -1.801 1.160 -344.925 -779.942 -3359.911 0.042 0.115 -0.108 -0.04 0.6 -0.8 0.04
1 0.19 19 0.196 -9.414 2.835 -0.610 -1.343 0.916 -344.925 -779.942 -3359.911 0.009 0.015 -0.070 -0.04 0.6 -0.8 0.04
1 0.20 20 0.244 -9.462 2.892 -0.488 -1.740 0.793 -524.958 -734.971 -3314.940 -0.040 0.062 -0.128 -0.04 0.6 -0.8 0.04
1 0.21 21 0.273 -9.462 2.911 -0.610 -2.167 1.526 -299.955 -659.870 -3389.892 -0.069 0.063 -0.146 -0.04 0.6 -0.8 0.04
1 0.22 22 0.249 -9.529 2.835 -0.488 -2.655 1.221 -299.955 -659.870 -3389.892 -0.044 0.130 -0.069 -0.04 0.6 -0.8 0.04
1 0.23 23 0.249 -9.481 2.993 -0.519 -1.892 1.190 -344.925 -659.870 -3389.892 -0.044 0.083 -0.225 -0.04 0.6 -0.8 0.04
1 0.24 24 0.235 -9.419 2.868 -0.427 -1.923 1.068 -344.925 -659.870 -3389.892 -0.029 0.021 -0.100 -0.04 0.6 -0.8 0.04
1 0.25 25 0.168 -9.548 2.892 -0.580 -2.258 1.740 -449.857 -659.870 -3359.911 0.038 0.150 -0.124 -0.04 0.6 -0.8 0.04
1 0.26 26 0.225 -9.534 2.950 -1.160 -1.251 1.404 -449.857 -659.870 -3359.911 -0.019 0.136 -0.181 -0.04 0.6 -0.8 0.04
1 0.27 27 0.215 -9.548 2.878 -0.824 -1.556 1.190 -509.968 -674.860 -3329.931 -0.010 0.150 -0.108 -0.04 0.6 -0.8 0.04
1 0.28 28 0.101 -9.572 2.849 -0.885 -1.221 1.343 -524.958 -704.991 -3389.892 0.105 0.174 -0.079 -0.04 0.6 -0.8 0.04
1 0.29 29 0.201 -9.419 2.792 -0.885 -1.434 1.251 -524.958 -704.991 -3389.892 0.005 0.021 -0.021 -0.04 0.6 -0.8 0.04
1 0.30 30 0.259 -9.467 2.835 -1.831 -1.343 1.160 -374.906 -704.991 -3284.960 -0.053 0.069 -0.064 -0.04 0.6 -0.8 0.04
1 0.31 31 0.129 -9.410 2.950 -1.831 -1.160 1.953 -524.958 -629.890 -3314.940 0.077 0.012 -0.177 -0.04 0.6 -0.8 0.04
1 0.32 32 0.144 -9.472 2.868 -1.648 -1.068 1.465 -389.896 -749.961 -3404.882 0.062 0.074 -0.096 -0.04 0.6 -0.8 0.04
1 0.33 33 0.220 -9.529 3.007 -1.343 -0.671 1.740 -389.896 -749.961 -3404.882 -0.015 0.132 -0.234 -0.04 0.6 -0.8 0.04
1 0.34 34 0.201 -9.453 2.830 -0.824 -0.854 1.312 -419.876 -779.942 -3419.872 0.004 0.056 -0.056 -0.04 0.6 -0.8 0.04
1 0.35 35 0.177 -9.405 2.926 -0.275 -0.549 1.892 -434.867 -599.909 -3449.853 0.028 0.008 -0.151 -0.04 0.6 -0.8 0.04
1 0.36 36 0.225 -9.539 2.892 -1.343 -0.580 1.984 -434.867 -599.909 -3449.853 -0.020 0.142 -0.117 -0.04 0.6 -0.8 0.04
1 0.37 37 0.283 -9.462 2.749 -0.977 -0.092 1.587 -344.925 -584.919 -3359.911 -0.078 0.066 0.028 -0.04 0.6 -0.8 0.04
1 0.38 38 0.206 -9.534 2.902 -1.740 -0.397 1.556 -389.896 -719.981 -3254.979 -0.001 0.138 -0.125 -0.04 0.6 -0.8 0.04
1 0.39 39 0.196 -9.611 2.911 -1.831 -0.244 1.587 -359.916 -719.981 -3254.979 0.008 0.215 -0.135 -0.04 0.6 -0.8 0.04
1 0.40 40 0.120 -9.577 2.801 -1.221 -0.458 1.129 -359.916 -719.981 -3254.979 0.084 0.181 -0.025 -0.04 0.6 -0.8 0.04
1 0.41 41 0.148 -9.635 2.816 -0.885 -1.007 0.641 -464.997 -644.880 -3374.901 0.054 0.238 -0.039 -0.04 0.6 -0.8 0.04
1 0.42 42 0.239 -9.486 2.868 -0.580 -1.160 1.129 -494.978 -659.870 -3389.892 -0.037 0.090 -0.092 -0.04 0.6 -0.8 0.04
1 0.43 43 0.354 -9.544 2.955 -0.244 -1.556 1.251 -494.978 -659.870 -3389.892 -0.152 0.147 -0.178 -0.04 0.6 -0.8 0.04
1 0.44 44 0.354 -9.433 2.816 0.397 -1.160 0.153 -329.935 -524.958 -3299.950 -0.152 0.037 -0.039 -0.04 0.6 -0.8 0.04
1 0.45 45 0.273 -9.457 2.945 -0.397 -1.221 0.549 -374.906 -584.919 -3314.940 -0.068 0.062 -0.166 -0.04 0.6 -0.8 0.04
1 0.46 46 0.239 -9.390 2.844 -0.732 -0.977 0.885 -569.929 -779.942 -3314.940 -0.034 -0.005 -0.065 -0.04 0.6 -0.8 0.04
1 0.47 47 0.110 -9.419 2.911 -1.038 -1.251 0.702 -569.929 -779.942 -3314.940 0.095 0.024 -0.131 -0.04 0.6 -0.8 0.04
1 0.48 48 0.187 -9.448 2.849 -0.916 -0.885 1.465 -269.974 -809.922 -3389.892 0.017 0.053 -0.068 -0.04 0.6 -0.8 0.04
1 0.49 49 0.215 -9.496 2.911 -0.580 -0.641 0.854 -344.925 -659.870 -3389.892 -0.012 0.101 -0.130 -0.04 0.6 -0.8 0.04
1 0.50 50 0.158 -9.381 2.873 -0.580 -0.031 1.190 -344.925 -659.870 -3389.892 0.045 -0.014 -0.091 -0.04 0.6 -0.8 0.04
1 0.51 51 0.134 -9.501 2.835 -0.275 -1.038 0.793 -449.857 -809.922 -3389.892 0.069 0.106 -0.052 -0.04 0.6 -0.8 0.04
1 0.52 52 0.230 -9.453 3.007 -1.007 0.092 1.343 -419.876 -809.922 -3389.892 -0.027 0.059 -0.223 -0.04 0.6 -0.8 0.04
1 0.53 53 0.283 -9.410 2.931 -1.099 -0.549 0.275 -359.916 -674.860 -3404.882 -0.079 0.016 -0.146 -0.04 0.6 -0.8 0.04
1 0.54 54 0.192 -9.515 2.787 -0.916 0.549 0.763 -359.916 -674.860 -3404.882 0.013 0.121 -0.001 -0.04 0.6 -0.8 0.04
1 0.55 55 0.101 -9.429 2.916 -0.641 -0.031 0.916 -374.906 -659.870 -3284.960 0.103 0.035 -0.130 -0.04 0.6 -0.8 0.04
1 0.56 56 0.105 -9.558 2.931 -1.099 -0.031 1.251 -539.948 -719.981 -3374.901 0.098 0.165 -0.144 -0.04 0.6 -0.8 0.04
1 0.57 57 0.196 -9.524 2.892 -1.129 0.153 1.190 -539.948 -719.981 -3374.901 0.006 0.131 -0.105 -0.04 0.6 -0.8 0.04
1 0.58 58 0.177 -9.376 2.959 -1.160 -0.397 1.343 -494.978 -704.991 -3314.940 0.025 -0.017 -0.172 -0.04 0.6 -0.8 0.04
1 0.59 59 0.101 -9.491 2.902 -1.129 -0.305 1.862 -344.925 -704.991 -3389.892 0.101 0.098 -0.114 -0.04 0.6 -0.8 0.04
1 0.60 60 0.158 -9.467 2.806 -0.824 -0.458 1.038 -359.916 -719.981 -3329.931 0.042 0.074 -0.017 -0.04 0.6 -0.8 0.04
1 0.61 61 0.144 -9.453 2.820 -1.007 -1.221 1.556 -359.916 -719.981 -3329.931 0.057 0.060 -0.031 -0.04 0.6 -0.8 0.04
1 0.62 62 0.110 -9.491 2.921 -0.824 -0.641 1.312 -509.968 -674.860 -3404.882 0.090 0.099 -0.131 -0.04 0.6 -0.8 0.04
1 0.63 63 0.144 -9.524 2.729 -0.916 -1.160 1.282 -434.867 -599.909 -3254.979 0.056 0.132 0.061 -0.04 0.6 -0.8 0.04
1 0.64 64 0.225 -9.481 2.998 -1.007 -0.488 1.282 -434.867 -599.909 -3254.979 -0.026 0.089 -0.207 -0.04 0.6 -0.8 0.04
1 0.65 65 0.192 -9.438 2.830 -0.885 -0.183 1.617 -254.984 -719.981 -3374.901 0.008 0.046 -0.039 -0.04 0.6 -0.8 0.04
1 0.66 66 0.196 -9.477 2.849 -1.068 -0.336 1.465 -434.867 -674.860 -3194.869 0.003 0.085 -0.058 -0.04 0.6 -0.8 0.04
1 0.67 67 0.182 -9.386 2.907 -0.916 -0.977 1.160 -449.857 -659.870 -3494.973 0.018 -0.006 -0.114 -0.04 0.6 -0.8 0.04
1 0.68 68 0.110 -9.486 2.921 -0.854 -1.282 1.526 -449.857 -659.870 -3494.973 0.089 0.095 -0.128 -0.04 0.6 -0.8 0.04
1 0.69 69 0.297 -9.548 2.940 -0.702 -0.763 1.190 -344.925 -659.870 -3389.892 -0.097 0.157 -0.147 -0.04 0.6 -0.8 0.04
1 0.70 70 0.230 -9.563 2.969 -1.068 -0.946 0.854 -494.978 -734.971 -3464.993 -0.030 0.172 -0.175 -0.04 0.6 -0.8 0.04
1 0.71 71 0.215 -9.338 2.916 -0.977 -1.160 0.519 -494.978 -734.971 -3464.993 -0.016 -0.053 -0.121 -0.04 0.6 -0.8 0.04
1 0.72 72 0.283 -9.491 3.074 -0.488 -0.763 0.702 -494.978 -809.922 -3314.940 -0.083 0.100 -0.279 -0.04 0.6 -0.8 0.04
1 0.73 73 0.129 -9.438 2.931 -0.519 -0.641 0.549 -299.955 -734.971 -3314.940 0.070 0.048 -0.134 -0.04 0.6 -0.8 0.04
1 0.74 74 0.187 -9.338 2.945 -0.641 -0.732 0.671 -299.955 -734.971 -3314.940 0.013 -0.052 -0.147 -0.04 0.6 -0.8 0.04
1 0.75 75 0.148 -9.410 2.945 -2.014 -1.129 1.099 -374.906 -629.890 -3419.872 0.051 0.020 -0.145 -0.04 0.6 -0.8 0.04
1 0.76 76 0.172 -9.395 2.916 -1.617 -0.702 0.763 -299.955 -629.890 -3164.888 0.027 0.006 -0.116 -0.04 0.6 -0.8 0.04
1 0.77 77 0.249 -9.429 2.950 -1.495 -1.007 0.671 -419.876 -659.870 -3314.940 -0.050 0.040 -0.149 -0.04 0.6 -0.8 0.04
1 0.78 78 0.091 -9.520 2.983 -1.740 -0.824 1.190 -419.876 -659.870 -3314.940 0.108 0.131 -0.182 -0.04 0.6 -0.8 0.04
1 0.79 79 0.148 -9.615 2.840 -1.556 -1.648 1.678 -374.906 -704.991 -3389.892 0.050 0.227 -0.038 -0.04 0.6 -0.8 0.04
1 0.80 80 0.062 -9.496 2.926 -0.793 -1.556 1.099 -374.906 -704.991 -3314.940 0.136 0.107 -0.124 -0.04 0.6 -0.8 0.04
1 0.81 81 0.158 -9.433 2.916 -0.549 -1.038 1.556 -374.906 -704.991 -3314.940 0.040 0.045 -0.113 -0.04 0.6 -0.8 0.04
1 0.82 82 0.177 -9.496 2.835 -0.092 -1.007 1.617 -389.896 -569.929 -3404.882 0.019 0.108 -0.030 -0.04 0.6 -0.8 0.04
1 0.83 83 0.153 -9.371 2.916 -0.610 -1.648 1.373 -224.854 -704.991 -3239.989 0.043 -0.017 -0.111 -0.04 0.6 -0.8 0.04
1 0.84 84 0.273 -9.467 2.935 -0.793 -1.678 1.190 -329.935 -599.909 -3254.979 -0.077 0.079 -0.130 -0.04 0.6 -0.8 0.04
1 0.85 85 0.182 -9.400 2.816 -1.129 -1.404 1.129 -329.935 -599.909 -3254.979 0.014 0.012 -0.009 -0.04 0.6 -0.8 0.04
1 0.86 86 0.206 -9.472 2.868 -1.587 -1.099 1.556 -449.857 -704.991 -3284.960 -0.010 0.084 -0.062 -0.04 0.6 -0.8 0.04
1 0.87 87 0.249 -9.544 2.921 -1.556 -0.854 0.977 -344.925 -779.942 -3284.960 -0.053 0.156 -0.114 -0.04 0.6 -0.8 0.04
1 0.88 88 0.215 -9.433 2.964 -1.221 -1.160 1.251 -344.925 -779.942 -3284.960 -0.020 0.046 -0.157 -0.04 0.6 -0.8 0.04
1 0.89 89 0.182 -9.558 2.897 -0.610 -1.740 1.251 -389.896 -749.961 -3299.950 0.014 0.171 -0.088 -0.04 0.6 -0.8 0.04
1 0.90 90 0.139 -9.544 2.840 -0.061 -1.556 1.312 -344.925 -704.991 -3314.940 0.057 0.157 -0.030 -0.04 0.6 -0.8 0.04
1 0.91 91 0.168 -9.544 2.873 0.092 -1.343 0.702 -344.925 -734.971 -3284.960 0.028 0.157 -0.064 -0.04 0.6 -0.8 0.04
1 0.92 92 0.129 -9.453 2.825 -0.702 -1.801 0.977 -344.925 -734.971 -3284.960 0.066 0.066 -0.016 -0.04 0.6 -0.8 0.04
1 0.93 93 0.163 -9.515 2.998 -1.099 -2.563 0.977 -389.896 -749.961 -3404.882 0.032 0.128 -0.188 -0.04 0.6 -0.8 0.04
1 0.94 94 0.086 -9.534 2.830 -0.885 -2.319 0.977 -434.867 -719.981 -3404.882 0.108 0.147 -0.020 -0.04 0.6 -0.8 0.04
1 0.95 95 0.192 -9.582 2.825 -0.458 -1.556 0.916 -434.867 -719.981 -3404.882 0.002 0.195 -0.016 -0.04 0.6 -0.8 0.04
1 0.96 96 0.091 -9.462 2.907 -0.610 -1.984 0.793 -374.906 -734.971 -3389.892 0.102 0.076 -0.097 -0.04 0.6 -0.8 0.04
1 0.97 97 0.024 -9.572 2.902 -0.366 -1.862 1.129 -179.883 -674.860 -3449.853 0.168 0.186 -0.091 -0.04 0.6 -0.8 0.04
1 0.98 98 0.053 -9.472 2.820 -0.458 -2.441 1.465 -584.919 -719.981 -3374.901 0.138 0.086 -0.009 -0.04 0.6 -0.8 0.04
1 0.99 99 0.163 -9.539 2.854 -0.427 -2.625 1.038 -584.919 -719.981 -3374.901 0.027 0.153 -0.043 -0.04 0.6 -0.8 0.04
1 1.00 100 0.105 -9.481 2.873 0.214 -2.960 1.068 -194.873 -629.890 -3389.892 0.085 0.096 -0.061 -0.04 0.6 -0.8 0.04
1 1.01 101 0.072 -9.462 2.873 -0.122 -3.265 1.984 -464.997 -674.860 -3449.853 0.119 0.077 -0.059 -0.04 0.6 -0.8 0.04
1 1.02 102 0.096 -9.429 2.892 -0.153 -3.113 1.282 -464.997 -674.860 -3449.853 0.094 0.044 -0.077 -0.04 0.6 -0.8 0.04
1 1.03 103 0.105 -9.529 2.892 -0.732 -3.174 2.075 -494.978 -779.942 -3419.872 0.084 0.145 -0.075 -0.04 0.6 -0.8 0.04
1 1.04 104 0.077 -9.443 2.998 0.244 -3.601 1.465 -359.916 -749.961 -3329.931 0.111 0.059 -0.179 -0.04 0.6 -0.8 0.04
1 1.05 105 0.192 -9.529 2.983 -0.275 -3.754 2.197 -374.906 -734.971 -3539.944 -0.004 0.146 -0.163 -0.04 0.6 -0.8 0.04
1 1.06 106 0.129 -9.520 2.978 0.671 -3.906 2.441 -374.906 -734.971 -3539.944 0.057 0.137 -0.157 -0.04 0.6 -0.8 0.04
1 1.07 107 0.110 -9.309 3.074 -0.122 -4.517 2.319 -299.955 -659.870 -3284.960 0.075 -0.073 -0.250 -0.04 0.6 -0.8 0.04
1 1.08 108 0.053 -9.544 2.959 0.031 -5.157 2.838 -494.978 -734.971 -3314.940 0.131 0.162 -0.133 -0.04 0.59 -0.8 0.04
1 1.09 109 0.105 -9.505 2.988 0.092 -4.791 2.686 -494.978 -734.971 -3314.940 0.077 0.124 -0.160 -0.04 0.59 -0.8 0.04
1 1.10 110 0.148 -9.515 2.935 -0.214 -5.310 2.197 -464.997 -569.929 -3299.950 0.032 0.134 -0.106 -0.04 0.59 -0.8 0.04
1 1.11 111 0.134 -9.410 2.988 0.519 -5.066 3.448 -389.896 -794.932 -3374.901 0.045 0.030 -0.156 -0.04 0.59 -0.8 0.04
1 1.12 112 0.244 -9.395 3.050 -0.305 -5.219 3.021 -344.925 -704.991 -3284.960 -0.067 0.016 -0.215 -0.04 0.59 -0.8 0.04
1 1.13 113 -0.024 -9.414 2.945 0.519 -4.272 2.625 -344.925 -704.991 -3284.960 0.201 0.036 -0.108 -0.04 0.59 -0.8 0.04
1 1.14 114 0.134 -9.477 2.897 0.305 -5.096 2.441 -539.948 -674.860 -3299.950 0.041 0.098 -0.059 -0.04 0.59 -0.8 0.04
1 1.15 115 0.125 -9.376 3.007 0.671 -5.432 2.899 -389.896 -644.880 -3254.979 0.049 -0.002 -0.167 -0.04 0.59 -0.8 0.04
1 1.16 116 0.057 -9.448 2.983 0.397 -4.883 3.265 -389.896 -644.880 -3254.979 0.115 0.071 -0.140 -0.04 0.59 -0.8 0.04
1 1.17 117 0.153 -9.328 2.950 0.183 -5.280 3.357 -389.896 -674.860 -3329.931 0.018 -0.048 -0.104 -0.04 0.59 -0.8 0.05
1 1.18 118 0.297 -9.328 2.926 0.061 -5.005 2.563 -389.896 -674.860 -3329.931 -0.127 -0.048 -0.078 -0.04 0.59 -0.8 0.05
1 1.19 119 0.374 -9.596 3.046 -0.397 -5.157 2.075 -524.958 -704.991 -3389.892 -0.204 0.221 -0.196 -0.04 0.59 -0.8 0.05
1 1.20 120 0.239 -9.486 2.854 -0.793 -4.974 1.434 -524.958 -704.991 -3389.892 -0.069 0.111 -0.003 -0.05 0.59 -0.8 0.05
1 1.21 121 0.177 -9.352 2.978 -0.427 -4.517 1.373 -389.896 -749.961 -3299.950 -0.005 -0.023 -0.128 -0.05 0.59 -0.8 0.05
1 1.22 122 0.196 -9.472 2.888 -0.244 -4.150 1.434 -419.876 -704.991 -3464.993 -0.022 0.097 -0.036 -0.05 0.59 -0.8 0.05
1 1.23 123 0.048 -9.453 2.950 -0.397 -5.066 1.221 -419.876 -704.991 -3464.993 0.127 0.078 -0.098 -0.05 0.59 -0.8 0.05
1 1.24 124 0.110 -9.280 3.026 -0.885 -4.761 1.526 -329.935 -839.903 -3329.931 0.065 -0.094 -0.174 -0.05 0.59 -0.8 0.05
1 1.25 125 0.192 -9.448 3.065 -1.373 -5.096 0.885 -329.935 -839.903 -3329.931 -0.015 0.074 -0.211 -0.05 0.59 -0.8 0.05
1 1.26 126 0.192 -9.381 2.931 -1.373 -4.822 1.465 -464.997 -644.880 -3374.901 -0.013 0.007 -0.077 -0.05 0.59 -0.8 0.05
1 1.27 127 0.139 -9.309 2.907 -1.434 -5.035 0.732 -464.997 -644.880 -3374.901 0.042 -0.065 -0.054 -0.05 0.59 -0.8 0.05
1 1.28 128 0.110 -9.376 2.964 -1.526 -5.524 0.336 -524.958 -629.890 -3389.892 0.073 0.002 -0.112 -0.05 0.59 -0.8 0.05
1 1.29 129 0.201 -9.544 3.007 -1.678 -5.951 0.916 -434.867 -749.961 -3299.950 -0.016 0.169 -0.156 -0.05 0.59 -0.8 0.05
1 1.30 130 0.062 -9.510 2.921 -1.678 -5.463 0.977 -434.867 -749.961 -3299.950 0.125 0.135 -0.071 -0.05 0.59 -0.8 0.05
1 1.31 131 0.115 -9.467 2.911 -1.007 -5.768 2.167 -509.968 -839.903 -3374.901 0.074 0.092 -0.063 -0.05 0.59 -0.8 0.05
1 1.32 132 0.206 -9.472 2.935 -1.495 -5.920 2.197 -509.968 -839.903 -3374.901 -0.016 0.097 -0.088 -0.05 0.59 -0.8 0.05
1 1.33 133 0.115 -9.611 2.878 -1.404 -5.798 2.777 -359.916 -719.981 -3299.950 0.075 0.235 -0.032 -0.05 0.59 -0.8 0.05
1 1.34 134 0.201 -9.453 3.055 -0.305 -6.226 3.052 -359.916 -719.981 -3299.950 -0.012 0.077 -0.210 -0.05 0.59 -0.8 0.05
1 1.35 135 0.172 -9.477 2.983 -0.793 -6.561 3.052 -434.867 -869.883 -3329.931 0.016 0.101 -0.136 -0.05 0.59 -0.8 0.05
1 1.36 136 0.144 -9.553 2.950 0.031 -6.104 2.869 -584.919 -674.860 -3404.882 0.045 0.178 -0.102 -0.05 0.59 -0.8 0.05
1 1.37 137 0.187 -9.443 2.921 -0.031 -6.256 2.472 -584.919 -674.860 -3404.882 0.001 0.068 -0.072 -0.05 0.59 -0.8 0.05
1 1.38 138 0.144 -9.352 2.935 -0.610 -5.951 2.655 -509.968 -644.880 -3299.950 0.044 -0.022 -0.085 -0.05 0.59 -0.8 0.05
1 1.39 139 0.144 -9.376 2.950 -0.793 -6.073 2.930 -509.968 -644.880 -3299.950 0.043 0.002 -0.099 -0.05 0.59 -0.8 0.05
1 1.40 140 0.211 -9.462 2.911 -1.984 -6.287 2.777 -494.978 -584.919 -3419.872 -0.025 0.088 -0.060 -0.05 0.59 -0.8 0.05
1 1.41 141 0.268 -9.395 2.921 -1.801 -6.744 2.441 -494.978 -584.919 -3419.872 -0.082 0.021 -0.071 -0.05 0.59 -0.8 0.05
1 1.42 142 0.244 -9.534 2.907 -1.221 -6.317 2.319 -599.909 -584.919 -3464.993 -0.058 0.159 -0.057 -0.05 0.59 -0.8 0.05
1 1.43 143 0.134 -9.429 2.926 -0.977 -6.317 2.350 -524.958 -659.870 -3389.892 0.053 0.054 -0.077 -0.05 0.59 -0.8 0.05
1 1.44 144 0.187 -9.429 2.959 -1.099 -6.744 2.502 -524.958 -659.870 -3389.892 -0.000 0.054 -0.111 -0.05 0.59 -0.8 0.05
1 1.45 145 0.053 -9.491 2.926 -0.580 -6.287 2.380 -389.896 -794.932 -3299.950 0.134 0.116 -0.078 -0.05 0.59 -0.8 0.05
1 1.46 146 0.220 -9.448 2.859 -1.221 -6.165 2.808 -389.896 -794.932 -3299.950 -0.033 0.073 -0.011 -0.05 0.59 -0.8 0.05
1 1.47 147 0.096 -9.438 2.950 -1.282 -6.317 3.540 -464.997 -749.961 -3329.931 0.091 0.063 -0.102 -0.05 0.59 -0.8 0.05
1 1.48 148 0.235 -9.491 2.897 -1.068 -5.219 3.113 -359.916 -599.909 -3449.853 -0.049 0.115 -0.051 -0.05 0.59 -0.8 0.05
1 1.49 149 0.225 -9.414 2.835 -0.732 -5.676 3.113 -584.919 -794.932 -3374.901 -0.041 0.039 0.011 -0.05 0.59 -0.8 0.05
1 1.50 150 0.101 -9.501 2.883 -1.129 -5.188 3.723 -449.857 -809.922 -3419.872 0.082 0.125 -0.037 -0.05 0.59 -0.8 0.06
1 1.51 151 0.263 -9.414 2.921 -0.885 -5.615 3.571 -449.857 -809.922 -3419.872 -0.083 0.038 -0.076 -0.05 0.59 -0.8 0.06
1 1.52 152 0.263 -9.558 2.888 -1.801 -5.249 3.174 -374.906 -809.922 -3419.872 -0.084 0.182 -0.043 -0.05 0.59 -0.8 0.06
1 1.53 153 0.249 -9.453 3.036 -1.556 -4.669 3.387 -374.906 -809.922 -3419.872 -0.070 0.076 -0.193 -0.05 0.59 -0.8 0.06
1 1.54 154 0.115 -9.534 2.964 -2.136 -4.211 3.143 -509.968 -749.961 -3404.882 0.062 0.157 -0.122 -0.05 0.59 -0.8 0.06
1 1.55 155 0.168 -9.568 2.931 -1.404 -4.089 3.540 -524.958 -629.890 -3314.940 0.007 0.190 -0.090 -0.05 0.59 -0.8 0.06
1 1.56 156 0.235 -9.491 2.902 -0.458 -4.334 3.723 -419.876 -809.922 -3419.872 -0.062 0.113 -0.062 -0.05 0.59 -0.8 0.06
1 1.57 157 0.158 -9.477 2.935 -1.648 -3.754 3.906 -494.978 -779.942 -3419.872 0.012 0.099 -0.096 -0.05 0.59 -0.8 0.06
1 1.58 158 0.187 -9.615 2.907 -1.556 -4.700 3.174 -494.978 -779.942 -3419.872 -0.019 0.237 -0.068 -0.05 0.59 -0.8 0.06
1 1.59 159 0.163 -9.515 2.849 -0.641 -4.974 3.571 -494.978 -854.893 -3419.872 0.004 0.136 -0.012 -0.05 0.59 -0.8 0.06
1 1.60 160 0.196 -9.563 2.907 0.336 -4.791 3.571 -494.978 -854.893 -3419.872 -0.032 0.184 -0.070 -0.05 0.59 -0.8 0.06
1 1.61 161 0.125 -9.453 2.816 0.336 -4.913 2.991 -464.997 -719.981 -3509.963 0.038 0.074 0.022 -0.05 0.59 -0.8 0.06
1 1.62 162 0.196 -9.491 2.911 0.488 -4.852 3.204 -539.948 -869.883 -3404.882 -0.035 0.113 -0.072 -0.05 0.59 -0.8 0.06
1 1.63 163 0.038 -9.352 2.964 0.641 -4.974 3.204 -509.968 -599.909 -3509.963 0.120 -0.025 -0.122 -0.05 0.59 -0.8 0.06
1 1.64 164 0.206 -9.424 2.983 0.946 -5.615 3.357 -569.929 -734.971 -3359.911 -0.050 0.047 -0.138 -0.05 0.59 -0.8 0.06
1 1.65 165 0.077 -9.395 2.998 1.007 -5.371 3.998 -569.929 -734.971 -3359.911 0.079 0.019 -0.149 -0.05 0.59 -0.8 0.06
1 1.66 166 0.172 -9.323 2.921 1.160 -5.890 4.150 -569.929 -809.922 -3569.924 -0.020 -0.051 -0.069 -0.05 0.59 -0.8 0.06
1 1.67 167 0.115 -9.419 3.002 0.275 -5.920 3.052 -569.929 -809.922 -3569.924 0.036 0.045 -0.148 -0.05 0.59 -0.8 0.06
1 1.68 168 0.211 -9.319 2.950 -0.519 -5.676 3.540 -434.867 -644.880 -3374.901 -0.061 -0.055 -0.093 -0.05 0.59 -0.8 0.06
1 1.69 169 0.326 -9.352 2.955 -1.099 -5.341 3.387 -524.958 -809.922 -3359.911 -0.177 -0.021 -0.096 -0.05 0.59 -0.8 0.06
1 1.70 170 0.206 -9.419 2.911 -1.282 -4.700 3.113 -539.948 -749.961 -3374.901 -0.057 0.047 -0.053 -0.05 0.59 -0.8 0.06
1 1.71 171 0.230 -9.496 2.945 -1.312 -5.157 2.716 -464.997 -749.961 -3374.901 -0.081 0.123 -0.086 -0.05 0.59 -0.8 0.06
1 1.72 172 0.182 -9.443 2.993 -0.824 -4.547 3.174 -464.997 -749.961 -3374.901 -0.032 0.070 -0.135 -0.05 0.59 -0.8 0.06
1 1.73 173 0.239 -9.577 2.931 -0.397 -5.310 2.716 -419.876 -854.893 -3314.940 -0.091 0.204 -0.072 -0.05 0.59 -0.8 0.06
1 1.74 174 0.139 -9.563 2.998 -0.336 -5.005 3.174 -419.876 -854.893 -3314.940 0.009 0.190 -0.139 -0.05 0.59 -0.8 0.06
1 1.75 175 0.158 -9.510 2.916 0.153 -4.852 2.869 -434.867 -719.981 -3509.963 -0.011 0.138 -0.056 -0.05 0.59 -0.8 0.06
1 1.76 176 0.192 -9.524 2.854 0.305 -4.456 3.479 -659.870 -749.961 -3374.901 -0.045 0.153 0.007 -0.05 0.59 -0.8 0.06
1 1.77 177 0.196 -9.721 2.921 1.068 -5.157 3.357 -584.919 -644.880 -3329.931 -0.053 0.350 -0.056 -0.06 0.59 -0.8 0.06
1 1.78 178 0.326 -9.515 2.911 2.014 -4.791 2.960 -524.958 -959.975 -3389.892 -0.183 0.145 -0.044 -0.06 0.59 -0.8 0.06
1 1.79 179 0.163 -9.582 2.959 2.686 -5.157 3.265 -524.958 -959.975 -3389.892 -0.020 0.213 -0.088 -0.06 0.59 -0.8 0.06
1 1.80 180 0.287 -9.592 2.955 3.387 -4.303 2.838 -449.857 -884.874 -3389.892 -0.145 0.224 -0.078 -0.06 0.59 -0.8 0.06
1 1.81 181 0.139 -9.424 2.892 3.845 -4.578 2.838 -449.857 -884.874 -3389.892 0.003 0.058 -0.010 -0.06 0.59 -0.8 0.06
1 1.82 182 0.230 -9.304 2.959 3.448 -4.181 2.411 -449.857 -704.991 -3359.911 -0.089 -0.059 -0.070 -0.06 0.59 -0.8 0.06
1 1.83 183 0.330 -9.457 2.907 2.045 -3.418 2.533 -539.948 -839.903 -3329.931 -0.189 0.096 -0.011 -0.06 0.59 -0.8 0.06
1 1.84 184 0.172 -9.467 3.036 1.587 -3.784 1.617 -434.867 -749.961 -3479.983 -0.031 0.108 -0.133 -0.06 0.59 -0.8 0.06
1 1.85 185 0.158 -9.338 2.911 1.953 -3.754 2.411 -749.961 -779.942 -3494.973 -0.016 -0.020 -0.004 -0.06 0.59 -0.8 0.06
1 1.86 186 0.283 -9.453 2.921 2.533 -3.510 1.862 -749.961 -779.942 -3494.973 -0.141 0.096 -0.010 -0.06 0.59 -0.8 0.06
1 1.87 187 0.172 -9.357 2.983 2.136 -3.357 1.648 -539.948 -719.981 -3509.963 -0.030 0.002 -0.068 -0.06 0.59 -0.8 0.06
1 1.88 188 0.268 -9.390 3.050 1.923 -3.143 1.251 -539.948 -719.981 -3509.963 -0.125 0.037 -0.131 -0.06 0.59 -0.8 0.06
1 1.89 189 0.263 -9.371 3.031 2.197 -2.686 1.312 -419.876 -779.942 -3539.944 -0.119 0.019 -0.107 -0.06 0.59 -0.8 0.06
1 1.90 190 0.120 -9.309 3.074 2.167 -2.075 1.465 -509.968 -839.903 -3404.882 0.026 -0.042 -0.145 -0.06 0.59 -0.8 0.06
1 1.91 191 0.062 -9.271 3.098 1.648 -2.106 1.556 -509.968 -839.903 -3404.882 0.084 -0.079 -0.164 -0.06 0.59 -0.8 0.06
1 1.92 192 0.182 -9.295 3.117 -0.519 -1.556 2.045 -464.997 -794.932 -3404.882 -0.037 -0.053 -0.177 -0.06 0.59 -0.8 0.06
1 1.93 193 0.230 -9.271 3.002 -0.458 -1.129 2.319 -464.997 -794.932 -3404.882 -0.084 -0.076 -0.061 -0.06 0.59 -0.8 0.06
1 1.94 194 0.105 -9.299 3.046 -0.702 -1.648 2.533 -539.948 -599.909 -3479.983 0.040 -0.047 -0.103 -0.06 0.59 -0.8 0.06
1 1.95 195 0.120 -9.400 3.046 -0.641 -1.678 1.923 -539.948 -599.909 -3479.983 0.025 0.054 -0.102 -0.06 0.59 -0.8 0.06
1 1.96 196 0.187 -9.357 2.935 -0.244 -0.793 1.648 -539.948 -719.981 -3479.983 -0.042 0.011 0.008 -0.06 0.59 -0.8 0.06
1 1.97 197 0.402 -9.395 3.036 -0.061 -0.397 1.770 -569.929 -809.922 -3389.892 -0.257 0.049 -0.091 -0.06 0.59 -0.8 0.06
1 1.98 198 0.259 -9.304 3.050 -1.038 0.153 2.228 -569.929 -809.922 -3389.892 -0.113 -0.042 -0.105 -0.06 0.59 -0.8 0.06
1 1.99 199 0.144 -9.381 2.969 -1.770 -0.061 2.075 -614.899 -914.854 -3404.882 0.001 0.035 -0.024 -0.06 0.59 -0.8 0.06
1 2.00 200 0.144 -9.362 3.103 -1.984 -0.061 1.678 -614.899 -914.854 -3404.882 -0.001 0.015 -0.159 -0.06 0.59 -0.8 0.06
1 2.01 201 0.153 -9.414 3.084 -1.984 -0.854 1.953 -734.971 -944.984 -3479.983 -0.012 0.068 -0.141 -0.06 0.59 -0.8 0.06
1 2.02 202 0.192 -9.505 3.031 -2.136 -0.916 1.740 -734.971 -944.984 -3479.983 -0.052 0.158 -0.089 -0.06 0.59 -0.8 0.06
1 2.03 203 0.081 -9.386 2.945 -2.472 -0.366 1.648 -599.909 -734.971 -3494.973 0.056 0.038 -0.004 -0.06 0.59 -0.8 0.06
1 2.04 204 0.172 -9.539 2.974 -2.625 -0.793 1.251 -584.919 -749.961 -3479.983 -0.036 0.191 -0.036 -0.06 0.59 -0.8 0.06
1 2.05 205 0.177 -9.587 3.093 -2.075 -0.061 0.946 -584.919 -749.961 -3479.983 -0.042 0.238 -0.158 -0.06 0.59 -0.8 0.06
1 2.06 206 0.201 -9.515 2.969 -0.427 -0.122 1.282 -524.958 -779.942 -3389.892 -0.065 0.166 -0.034 -0.06 0.59 -0.8 0.06
1 2.07 207 0.024 -9.386 2.935 -0.610 0.092 1.678 -629.890 -704.991 -3359.911 0.113 0.036 -0.001 -0.06 0.59 -0.8 0.06
1 2.08 208 0.057 -9.366 3.079 -0.824 -0.061 1.282 -524.958 -809.922 -3284.960 0.079 0.017 -0.144 -0.06 0.59 -0.8 0.06
1 2.09 209 0.105 -9.328 3.069 -1.099 0.153 1.556 -524.958 -809.922 -3284.960 0.031 -0.021 -0.134 -0.06 0.59 -0.8 0.06
1 2.10 210 0.105 -9.309 3.065 -1.709 -0.122 1.495 -524.958 -884.874 -3389.892 0.030 -0.040 -0.129 -0.06 0.59 -0.8 0.06
1 2.11 211 -0.034 -9.395 2.998 -2.960 1.160 1.740 -569.929 -659.870 -3464.993 0.167 0.046 -0.063 -0.05 0.59 -0.8 0.06
1 2.12 212 -0.014 -9.529 2.998 -2.777 1.068 1.709 -569.929 -659.870 -3464.993 0.147 0.179 -0.066 -0.05 0.59 -0.8 0.06
1 2.13 213 0.024 -9.501 2.955 -2.136 1.251 1.404 -539.948 -749.961 -3299.950 0.106 0.149 -0.025 -0.05 0.59 -0.8 0.06
1 2.14 214 0.105 -9.424 3.065 -1.740 1.160 1.007 -569.929 -734.971 -3359.911 0.021 0.072 -0.139 -0.05 0.59 -0.8 0.06
1 2.15 215 0.134 -9.524 2.998 -1.221 1.221 0.977 -599.909 -629.890 -3494.973 -0.008 0.172 -0.073 -0.05 0.59 -0.8 0.06
1 2.16 216 0.120 -9.424 2.940 -2.472 1.434 0.793 -599.909 -629.890 -3494.973 0.005 0.071 -0.017 -0.05 0.59 -0.8 0.06
1 2.17 217 0.153 -9.491 2.955 -1.526 1.312 0.549 -494.978 -929.994 -3539.944 -0.030 0.137 -0.034 -0.05 0.59 -0.8 0.06
1 2.18 218 0.081 -9.419 2.931 -1.312 0.885 -0.336 -389.896 -794.932 -3449.853 0.042 0.065 -0.011 -0.05 0.59 -0.8 0.06
1 2.19 219 0.048 -9.323 3.002 -2.167 0.854 0.244 -389.896 -794.932 -3449.853 0.076 -0.031 -0.084 -0.05 0.59 -0.8 0.06
1 2.20 220 0.014 -9.366 3.074 -2.136 1.221 -0.153 -599.909 -734.971 -3419.872 0.109 0.011 -0.157 -0.05 0.59 -0.8 0.06
1 2.21 221 0.062 -9.472 3.089 -2.075 0.671 -0.458 -524.958 -704.991 -3419.872 0.062 0.116 -0.175 -0.05 0.59 -0.8 0.06
1 2.22 222 0.110 -9.275 3.089 -2.075 0.763 -0.366 -494.978 -779.942 -3419.872 0.016 -0.081 -0.176 -0.05 0.59 -0.8 0.06
1 2.23 223 0.048 -9.232 2.878 -1.892 0.305 -0.244 -494.978 -779.942 -3419.872 0.079 -0.124 0.034 -0.05 0.59 -0.8 0.06
1 2.24 224 -0.101 -9.400 3.060 -2.380 0.153 -0.031 -524.958 -929.994 -3494.973 0.228 0.043 -0.150 -0.05 0.59 -0.8 0.06
1 2.25 225 0.048 -9.424 2.988 -3.265 -0.214 0.153 -449.857 -704.991 -3419.872 0.080 0.066 -0.080 -0.05 0.59 -0.8 0.06
1 2.26 226 0.019 -9.405 3.026 -3.448 -0.336 0.397 -449.857 -704.991 -3419.872 0.108 0.046 -0.121 -0.05 0.59 -0.8 0.06
1 2.27 227 -0.043 -9.438 2.974 -2.747 -0.397 0.824 -374.906 -809.922 -3359.911 0.170 0.079 -0.070 -0.05 0.59 -0.8 0.06
1 2.28 228 0.115 -9.587 3.031 -2.380 -0.427 0.793 -524.958 -659.870 -3389.892 0.012 0.226 -0.132 -0.05 0.59 -0.8 0.06
1 2.29 229 -0.067 -9.433 2.993 -2.258 -0.610 0.916 -464.997 -719.981 -3404.882 0.193 0.072 -0.096 -0.05 0.59 -0.8 0.06
1 2.30 230 0.072 -9.357 2.988 -2.319 -0.427 0.702 -464.997 -719.981 -3404.882 0.054 -0.005 -0.093 -0.05 0.59 -0.8 0.06
1 2.31 231 0.072 -9.395 2.935 -1.953 -0.671 1.007 -449.857 -779.942 -3494.973 0.054 0.033 -0.043 -0.05 0.59 -0.8 0.06
1 2.32 232 0.043 -9.429 2.974 -2.594 -0.427 0.671 -509.968 -674.860 -3554.934 0.082 0.066 -0.081 -0.05 0.59 -0.8 0.06
1 2.33 233 0.172 -9.472 2.959 -3.296 -0.671 0.580 -509.968 -674.860 -3554.934 -0.047 0.109 -0.069 -0.05 0.59 -0.8 0.06
1 2.34 234 0.153 -9.544 2.969 -2.930 -0.854 1.038 -419.876 -779.942 -3359.911 -0.027 0.179 -0.082 -0.05 0.59 -0.8 0.06
1 2.35 235 0.048 -9.558 2.921 -3.021 -0.885 -0.305 -434.867 -794.932 -3404.882 0.079 0.193 -0.037 -0.05 0.59 -0.8 0.06
1 2.36 236 0.196 -9.438 2.883 -2.502 -0.763 -0.427 -449.857 -809.922 -3494.973 -0.067 0.071 -0.005 -0.05 0.59 -0.8 0.06
1 2.37 237 0.129 -9.544 2.864 -2.289 -0.946 -0.366 -449.857 -809.922 -3494.973 0.001 0.176 0.011 -0.05 0.59 -0.8 0.06
1 2.38 238 0.110 -9.443 2.959 -1.770 -0.824 0.366 -494.978 -884.874 -3389.892 0.021 0.075 -0.086 -0.05 0.59 -0.8 0.06
1 2.39 239 0.029 -9.524 2.892 -1.617 -0.549 1.160 -599.909 -584.919 -3389.892 0.103 0.156 -0.019 -0.05 0.59 -0.8 0.06
1 2.40 240 0.158 -9.424 2.911 -2.350 -0.885 0.061 -599.909 -584.919 -3389.892 -0.026 0.055 -0.039 -0.05 0.59 -0.8 0.06
1 2.41 241 0.014 -9.553 2.950 -1.953 -0.885 0.763 -539.948 -749.961 -3374.901 0.118 0.184 -0.078 -0.05 0.59 -0.8 0.06
1 2.42 242 0.062 -9.553 2.911 -1.617 -1.923 1.282 -434.867 -674.860 -3299.950 0.070 0.184 -0.041 -0.05 0.59 -0.8 0.06
1 2.43 243 0.029 -9.453 2.993 -2.075 -1.587 0.763 -449.857 -809.922 -3419.872 0.102 0.083 -0.123 -0.05 0.59 -0.8 0.06
1 2.44 244 -0.053 -9.376 2.959 -1.343 -2.289 0.580 -449.857 -809.922 -3419.872 0.184 0.006 -0.091 -0.05 0.59 -0.8 0.06
1 2.45 245 0.057 -9.429 2.950 -2.289 -2.472 0.488 -509.968 -749.961 -3329.931 0.074 0.059 -0.082 -0.05 0.59 -0.8 0.06
1 2.46 246 0.115 -9.333 2.859 -2.136 -2.167 0.885 -449.857 -884.874 -3419.872 0.017 -0.038 0.007 -0.05 0.59 -0.8 0.06
1 2.47 247 0.110 -9.242 2.911 -2.747 -2.075 0.702 -449.857 -884.874 -3419.872 0.022 -0.129 -0.047 -0.05 0.59 -0.8 0.06
1 2.48 248 0.014 -9.438 2.854 -3.784 -1.770 0.427 -539.948 -674.860 -3404.882 0.119 0.066 0.008 -0.05 0.59 -0.8 0.06
1 2.49 249 0.048 -9.429 2.931 -4.761 -1.526 0.702 -584.919 -794.932 -3404.882 0.086 0.056 -0.073 -0.05 0.59 -0.8 0.06
1 2.50 250 0.125 -9.496 2.816 -5.127 -1.282 0.153 -584.919 -794.932 -3404.882 0.010 0.121 0.036 -0.05 0.59 -0.8 0.06
1 2.51 251 0.182 -9.438 2.888 -5.524 -1.160 0.610 -584.919 -749.961 -3404.882 -0.045 0.060 -0.049 -0.05 0.59 -0.8 0.06
1 2.52 252 0.129 -9.477 2.873 -5.249 -0.549 0.488 -464.997 -719.981 -3329.931 0.008 0.096 -0.041 -0.05 0.59 -0.8 0.06
1 2.53 253 0.235 -9.572 2.797 -4.211 -0.549 0.397 -434.867 -719.981 -3254.979 -0.097 0.190 0.029 -0.05 0.59 -0.8 0.06
1 2.54 254 0.144 -9.457 2.892 -4.211 -0.610 0.885 -434.867 -719.981 -3254.979 -0.004 0.073 -0.072 -0.05 0.59 -0.8 0.06
1 2.55 255 0.139 -9.539 2.773 -3.967 -0.732 0.702 -569.929 -779.942 -3359.911 0.001 0.153 0.043 -0.05 0.59 -0.8 0.06
1 2.56 256 0.148 -9.563 2.892 -3.693 -0.549 0.488 -584.919 -644.880 -3404.882 -0.008 0.175 -0.082 -0.05 0.59 -0.8 0.06
1 2.57 257 0.134 -9.548 2.897 -3.296 0.061 0.336 -584.919 -644.880 -3404.882 0.008 0.160 -0.091 -0.05 0.6 -0.8 0.06
1 2.58 258 0.153 -9.630 2.844 -2.716 0.305 0.977 -449.857 -734.971 -3314.940 -0.011 0.239 -0.046 -0.05 0.6 -0.8 0.06
1 2.59 259 0.072 -9.625 2.988 -2.869 0.122 1.404 -434.867 -749.961 -3374.901 0.070 0.233 -0.193 -0.05 0.6 -0.8 0.06
1 2.60 260 -0.067 -9.563 2.844 -2.441 -0.458 0.763 -419.876 -854.893 -3464.993 0.208 0.170 -0.052 -0.05 0.6 -0.8 0.06
1 2.61 261 -0.019 -9.625 2.734 -1.434 -0.580 1.251 -419.876 -854.893 -3464.993 0.159 0.232 0.057 -0.05 0.6 -0.8 0.06
1 2.62 262 0.110 -9.663 2.844 -1.434 -0.458 1.343 -434.867 -599.909 -3404.882 0.029 0.270 -0.054 -0.05 0.6 -0.8 0.06
1 2.63 263 0.196 -9.625 2.820 0.000 -0.427 1.587 -434.867 -944.984 -3374.901 -0.058 0.232 -0.029 -0.05 0.6 -0.8 0.06
1 2.64 264 0.292 -9.596 2.897 0.214 -0.366 1.587 -434.867 -944.984 -3374.901 -0.153 0.203 -0.106 -0.05 0.6 -0.8 0.06
1 2.65 265 0.273 -9.501 2.835 -0.610 0.214 1.282 -434.867 -839.903 -3404.882 -0.133 0.108 -0.043 -0.05 0.6 -0.8 0.06
1 2.66 266 0.091 -9.577 2.950 -0.244 0.000 1.007 -449.857 -734.971 -3419.872 0.050 0.184 -0.158 -0.05 0.6 -0.8 0.06
1 2.67 267 0.235 -9.520 2.902 0.305 0.610 1.343 -569.929 -659.870 -3209.859 -0.094 0.127 -0.109 -0.05 0.6 -0.8 0.06
1 2.68 268 0.292 -9.477 2.830 0.122 0.214 0.977 -569.929 -659.870 -3209.859 -0.152 0.085 -0.035 -0.05 0.6 -0.8 0.06
1 2.69 269 0.259 -9.323 2.892 0.763 0.580 1.312 -539.948 -674.860 -3449.853 -0.118 -0.068 -0.097 -0.05 0.6 -0.8 0.06
1 2.70 270 0.225 -9.496 2.916 0.519 0.153 1.129 -524.958 -659.870 -3419.872 -0.085 0.105 -0.118 -0.05 0.6 -0.8 0.06
1 2.71 271 0.263 -9.486 2.988 -0.183 0.885 0.946 -524.958 -659.870 -3419.872 -0.123 0.096 -0.188 -0.05 0.6 -0.8 0.06
1 2.72 272 0.244 -9.529 2.777 -0.793 1.221 0.702 -449.857 -629.890 -3239.989 -0.103 0.140 0.027 -0.05 0.6 -0.8 0.05
1 2.73 273 0.158 -9.410 2.844 -0.793 0.916 0.793 -434.867 -839.903 -3329.931 -0.017 0.020 -0.040 -0.05 0.6 -0.8 0.05
1 2.74 274 0.259 -9.438 2.830 -0.244 1.160 0.214 -524.958 -659.870 -3464.993 -0.117 0.049 -0.025 -0.05 0.6 -0.8 0.05
1 2.75 275 0.062 -9.520 2.830 0.458 0.946 0.397 -524.958 -659.870 -3464.993 0.080 0.131 -0.024 -0.05 0.6 -0.8 0.05
1 2.76 276 0.182 -9.596 2.950 0.214 1.007 0.122 -494.978 -734.971 -3359.911 -0.040 0.208 -0.142 -0.05 0.6 -0.8 0.05
1 2.77 277 0.187 -9.433 2.931 0.000 0.488 0.092 -614.899 -674.860 -3374.901 -0.044 0.046 -0.121 -0.05 0.6 -0.8 0.05
1 2.78 278 0.129 -9.419 2.907 0.183 0.275 -0.061 -614.899 -674.860 -3374.901 0.015 0.032 -0.096 -0.05 0.6 -0.8 0.05
1 2.79 279 0.263 -9.548 2.888 -0.671 0.061 0.092 -509.968 -749.961 -3374.901 -0.118 0.162 -0.075 -0.05 0.6 -0.8 0.05
1 2.80 280 0.057 -9.462 2.964 -0.427 0.153 -0.061 -509.968 -749.961 -3449.853 0.091 0.076 -0.150 -0.05 0.59 -0.8 0.05
1 2.81 281 0.225 -9.443 2.916 -0.549 -0.061 -0.183 -509.968 -674.860 -3374.901 -0.077 0.057 -0.101 -0.05 0.59 -0.8 0.05
1 2.82 282 0.273 -9.275 2.969 -1.129 0.427 0.153 -509.968 -674.860 -3374.901 -0.123 -0.110 -0.153 -0.05 0.59 -0.8 0.05
1 2.83 283 0.158 -9.338 3.002 -0.885 0.641 0.183 -389.896 -719.981 -3329.931 -0.008 -0.048 -0.186 -0.05 0.59 -0.8 0.05
1 2.84 284 0.187 -9.429 2.916 -1.373 1.373 0.427 -449.857 -584.919 -3464.993 -0.036 0.044 -0.099 -0.05 0.59 -0.8 0.05
1 2.85 285 0.201 -9.247 2.950 -2.350 1.984 1.007 -449.857 -584.919 -3464.993 -0.050 -0.138 -0.132 -0.05 0.59 -0.8 0.05
1 2.86 286 0.316 -9.381 2.878 -2.441 2.014 0.946 -524.958 -734.971 -3314.940 -0.166 -0.005 -0.062 -0.05 0.59 -0.8 0.05
1 2.87 287 0.345 -9.347 2.916 -2.960 3.082 1.007 -524.958 -809.922 -3359.911 -0.195 -0.040 -0.105 -0.05 0.6 -0.8 0.05
1 2.88 288 0.287 -9.414 2.883 -3.448 3.143 0.641 -629.890 -809.922 -3359.911 -0.138 0.027 -0.073 -0.05 0.6 -0.8 0.05
1 2.89 289 0.273 -9.520 2.955 -3.815 3.204 0.458 -629.890 -809.922 -3359.911 -0.124 0.131 -0.148 -0.05 0.6 -0.8 0.05
1 2.90 290 0.144 -9.587 2.926 -3.448 3.174 0.214 -584.919 -869.883 -3509.963 0.005 0.197 -0.123 -0.05 0.6 -0.8 0.05
1 2.91 291 0.172 -9.572 2.854 -4.242 3.448 0.366 -539.948 -644.880 -3329.931 -0.025 0.182 -0.055 -0.05 0.6 -0.8 0.05
1 2.92 292 0.129 -9.620 2.878 -3.571 3.845 0.275 -539.948 -644.880 -3329.931 0.018 0.228 -0.084 -0.05 0.6 -0.8 0.05
1 2.93 293 0.254 -9.596 2.873 -1.831 4.211 0.763 -569.929 -629.890 -3419.872 -0.107 0.203 -0.084 -0.05 0.6 -0.8 0.05
1 2.94 294 0.096 -9.529 2.806 -0.610 3.937 1.007 -569.929 -629.890 -3419.872 0.049 0.135 -0.018 -0.05 0.6 -0.8 0.05
1 2.95 295 0.239 -9.433 2.873 -0.549 3.571 0.763 -509.968 -599.909 -3479.983 -0.097 0.040 -0.084 -0.05 0.6 -0.8 0.05
1 2.96 296 0.134 -9.472 2.816 -0.885 3.510 -0.427 -509.968 -599.909 -3479.983 0.007 0.078 -0.026 -0.05 0.6 -0.8 0.05
1 2.97 297 0.024 -9.443 2.883 -1.007 2.930 -0.031 -419.876 -659.870 -3464.993 0.118 0.050 -0.093 -0.05 0.6 -0.8 0.05
1 2.98 298 -0.029 -9.515 2.878 -0.610 2.838 -0.275 -284.964 -719.981 -3329.931 0.169 0.121 -0.089 -0.05 0.6 -0.8 0.05
1 2.99 299 0.172 -9.505 2.859 -0.580 2.655 0.397 -284.964 -719.981 -3329.931 -0.032 0.112 -0.069 -0.05 0.6 -0.8 0.05
1 3.00 300 0.086 -9.486 2.825 -0.366 2.594 -0.244 -509.968 -794.932 -3329.931 0.053 0.093 -0.034 -0.05 0.6 -0.8 0.05
1 3.01 301 0.201 -9.448 2.916 -0.458 2.167 0.549 -509.968 -794.932 -3329.931 -0.061 0.055 -0.124 -0.05 0.6 -0.8 0.05
1 3.02 302 0.091 -9.548 2.892 0.641 2.228 0.397 -464.997 -644.880 -3449.853 0.049 0.157 -0.097 -0.05 0.6 -0.8 0.05
1 3.03 303 0.110 -9.520 2.883 1.068 1.892 -0.305 -464.997 -644.880 -3449.853 0.029 0.128 -0.085 -0.05 0.6 -0.8 0.05
1 3.04 304 0.158 -9.419 2.921 0.580 1.740 -0.092 -449.857 -704.991 -3464.993 -0.019 0.029 -0.121 -0.04 0.6 -0.8 0.05
1 3.05 305 0.110 -9.524 2.921 0.183 1.556 0.244 -449.857 -809.922 -3464.993 0.030 0.135 -0.119 -0.04 0.6 -0.8 0.05
1 3.06 306 0.225 -9.390 2.993 -0.244 1.465 0.305 -449.857 -809.922 -3464.993 -0.085 0.001 -0.189 -0.04 0.6 -0.8 0.05
1 3.07 307 0.163 -9.520 3.017 -0.214 0.671 0.061 -464.997 -674.860 -3254.979 -0.022 0.131 -0.211 -0.04 0.6 -0.8 0.05
1 3.08 308 0.201 -9.410 2.921 -0.610 1.068 0.397 -464.997 -674.860 -3254.979 -0.060 0.021 -0.114 -0.04 0.6 -0.8 0.05
1 3.09 309 0.206 -9.462 2.969 -0.580 0.641 0.732 -569.929 -779.942 -3419.872 -0.063 0.074 -0.160 -0.04 0.6 -0.8 0.05
1 3.10 310 0.225 -9.405 2.902 -1.587 0.671 0.031 -569.929 -779.942 -3419.872 -0.081 0.017 -0.093 -0.04 0.6 -0.8 0.05
1 3.11 311 0.110 -9.376 2.916 -1.251 0.610 0.610 -434.867 -749.961 -3404.882 0.035 -0.012 -0.107 -0.04 0.6 -0.8 0.05
1 3.12 312 0.206 -9.472 2.926 -1.221 0.519 0.549 -419.876 -584.919 -3389.892 -0.061 0.084 -0.117 -0.04 0.6 -0.8 0.05
1 3.13 313 0.134 -9.501 2.854 -1.160 1.312 0.732 -419.876 -584.919 -3389.892 0.011 0.113 -0.046 -0.04 0.6 -0.8 0.05
1 3.14 314 0.182 -9.429 3.012 -0.763 0.732 0.885 -434.867 -794.932 -3374.901 -0.037 0.041 -0.204 -0.04 0.6 -0.8 0.05
1 3.15 315 0.196 -9.558 2.902 -1.282 0.610 0.854 -434.867 -794.932 -3374.901 -0.051 0.170 -0.093 -0.04 0.6 -0.8 0.05
1 3.16 316 0.134 -9.520 2.854 -1.129 0.549 0.488 -464.997 -719.981 -3509.963 0.012 0.132 -0.045 -0.04 0.6 -0.8 0.05
1 3.17 317 0.153 -9.534 2.897 -1.465 -0.275 0.183 -464.997 -719.981 -3509.963 -0.007 0.146 -0.089 -0.04 0.6 -0.8 0.05
1 3.18 318 0.115 -9.486 2.897 -0.977 -0.549 0.580 -464.997 -644.880 -3329.931 0.031 0.098 -0.089 -0.04 0.6 -0.8 0.05
1 3.19 319 0.072 -9.477 2.888 0.244 -0.519 0.397 -569.929 -704.991 -3389.892 0.074 0.089 -0.079 -0.04 0.6 -0.8 0.05
1 3.20 320 0.163 -9.601 2.830 0.702 -0.763 0.610 -569.929 -704.991 -3389.892 -0.017 0.214 -0.021 -0.04 0.6 -0.8 0.05
1 3.21 321 0.134 -9.606 3.007 0.885 -1.007 0.977 -389.896 -719.981 -3374.901 0.012 0.219 -0.195 -0.04 0.6 -0.8 0.05
1 3.22 322 0.134 -9.343 2.916 0.458 -1.099 0.458 -389.896 -719.981 -3374.901 0.012 -0.044 -0.102 -0.04 0.6 -0.8 0.05
1 3.23 323 0.187 -9.338 2.868 0.122 -1.221 -0.092 -539.948 -674.860 -3374.901 -0.041 -0.048 -0.052 -0.04 0.6 -0.8 0.05
1 3.24 324 0.144 -9.443 2.873 -0.366 -1.007 0.763 -599.909 -779.942 -3239.989 0.003 0.058 -0.055 -0.04 0.6 -0.8 0.05
1 3.25 325 0.268 -9.520 2.897 -0.214 -1.251 0.519 -509.968 -674.860 -3299.950 -0.122 0.135 -0.079 -0.04 0.6 -0.8 0.05
1 3.26 326 0.134 -9.548 2.787 0.031 -1.068 0.702 -599.909 -809.922 -3284.960 0.013 0.164 0.032 -0.04 0.6 -0.8 0.05
1 3.27 327 0.148 -9.486 2.974 -0.092 -2.289 0.305 -599.909 -809.922 -3284.960 -0.001 0.102 -0.155 -0.04 0.6 -0.8 0.05
1 3.28 328 0.134 -9.491 2.935 0.000 -1.740 0.610 -494.978 -779.942 -3389.892 0.015 0.107 -0.114 -0.04 0.6 -0.8 0.05
1 3.29 329 0.110 -9.390 2.873 -0.061 -1.770 0.397 -494.978 -779.942 -3389.892 0.039 0.007 -0.051 -0.04 0.59 -0.8 0.05
1 3.30 330 0.163 -9.429 2.955 0.397 -2.411 0.763 -464.997 -749.961 -3329.931 -0.014 0.045 -0.131 -0.04 0.59 -0.8 0.05
1 3.31 331 0.182 -9.366 2.907 0.854 -3.052 0.702 -449.857 -809.922 -3359.911 -0.030 -0.015 -0.079 -0.05 0.59 -0.8 0.05
1 3.32 332 0.158 -9.410 2.897 -0.031 -3.265 0.549 -389.896 -674.860 -3329.931 -0.004 0.028 -0.067 -0.05 0.59 -0.8 0.05
1 3.33 333 0.172 -9.280 2.868 -0.305 -2.899 -0.031 -509.968 -644.880 -3329.931 -0.017 -0.100 -0.037 -0.05 0.59 -0.8 0.05
1 3.34 334 0.321 -9.524 2.840 -0.458 -2.838 0.427 -509.968 -644.880 -3329.931 -0.163 0.144 -0.007 -0.05 0.59 -0.8 0.05
1 3.35 335 0.182 -9.486 2.916 -0.732 -3.204 0.458 -359.916 -749.961 -3329.931 -0.022 0.106 -0.083 -0.05 0.59 -0.8 0.05
1 3.36 336 0.096 -9.501 2.897 -0.977 -3.357 0.336 -359.916 -749.961 -3329.931 0.066 0.121 -0.063 -0.05 0.59 -0.8 0.05
1 3.37 337 0.038 -9.371 2.835 -0.793 -2.838 1.221 -599.909 -734.971 -3539.944 0.126 -0.009 -0.001 -0.05 0.59 -0.8 0.05
1 3.38 338 0.273 -9.467 2.955 -0.977 -3.326 1.007 -389.896 -719.981 -3479.983 -0.108 0.087 -0.120 -0.05 0.59 -0.8 0.05
1 3.39 339 0.192 -9.376 2.935 -1.648 -3.082 1.282 -299.955 -779.942 -3359.911 -0.025 -0.004 -0.102 -0.05 0.59 -0.8 0.05
1 3.40 340 0.163 -9.572 2.782 -1.373 -2.869 2.045 -569.929 -779.942 -3419.872 0.004 0.192 0.051 -0.05 0.59 -0.8 0.05
1 3.41 341 0.196 -9.548 2.940 -1.068 -1.617 2.014 -569.929 -779.942 -3419.872 -0.030 0.168 -0.107 -0.05 0.59 -0.8 0.05
1 3.42 342 0.134 -9.457 2.931 -0.824 -1.434 2.289 -599.909 -539.948 -3419.872 0.033 0.077 -0.097 -0.05 0.59 -0.8 0.05
1 3.43 343 0.182 -9.328 2.902 -0.031 0.061 2.045 -599.909 -539.948 -3419.872 -0.016 -0.052 -0.068 -0.05 0.59 -0.8 0.05
1 3.44 344 0.168 -9.266 2.969 0.336 0.824 2.716 -509.968 -719.981 -3374.901 -0.004 -0.113 -0.133 -0.05 0.59 -0.8 0.05
1 3.45 345 0.283 -9.366 2.864 0.153 1.495 2.991 -599.909 -854.893 -3419.872 -0.121 -0.012 -0.026 -0.05 0.59 -0.8 0.05
1 3.46 346 0.086 -9.510 2.926 -1.434 2.930 3.143 -464.997 -674.860 -3374.901 0.068 0.132 -0.086 -0.05 0.59 -0.8 0.05
1 3.47 347 0.125 -9.520 3.069 -1.770 3.815 3.387 -524.958 -659.870 -3494.973 0.025 0.141 -0.230 -0.05 0.59 -0.8 0.05
1 3.48 348 0.115 -9.520 3.151 -1.404 4.059 3.693 -524.958 -659.870 -3494.973 0.029 0.141 -0.312 -0.05 0.59 -0.8 0.05
1 3.49 349 0.053 -9.716 3.026 -1.129 4.334 3.296 -419.876 -884.874 -3239.989 0.085 0.338 -0.186 -0.04 0.59 -0.8 0.05
1 3.50 350 -0.005 -9.659 2.892 -0.214 4.303 3.540 -419.876 -884.874 -3239.989 0.137 0.280 -0.052 -0.04 0.59 -0.8 0.05
1 3.51 351 0.081 -9.501 2.993 0.732 4.517 2.716 -464.997 -839.903 -3404.882 0.044 0.123 -0.151 -0.04 0.59 -0.8 0.05
1 3.52 352 0.024 -9.553 3.089 0.885 5.310 3.143 -494.978 -704.991 -3464.993 0.096 0.176 -0.244 -0.04 0.59 -0.8 0.05
1 3.53 353 -0.053 -9.510 2.931 0.916 4.639 2.747 -524.958 -779.942 -3314.940 0.161 0.135 -0.079 -0.04 0.59 -0.8 0.05
1 3.54 354 -0.125 -9.625 2.983 0.458 5.157 2.106 -254.984 -794.932 -3509.963 0.227 0.251 -0.128 -0.04 0.59 -0.8 0.05
1 3.55 355 -0.067 -9.635 3.065 1.434 4.852 1.678 -254.984 -794.932 -3509.963 0.164 0.261 -0.207 -0.04 0.59 -0.8 0.05
1 3.56 356 -0.215 -9.654 2.897 1.740 4.822 1.617 -374.906 -704.991 -3494.973 0.309 0.281 -0.036 -0.04 0.59 -0.8 0.05
1 3.57 357 -0.239 -9.764 2.873 2.960 4.517 1.190 -374.906 -704.991 -3494.973 0.328 0.393 -0.008 -0.04 0.59 -0.8 0.05
1 3.58 358 -0.220 -9.692 2.974 5.463 3.876 0.824 -389.896 -719.981 -3404.882 0.304 0.323 -0.102 -0.04 0.59 -0.8 0.05
1 3.59 359 -0.139 -9.544 3.002 6.561 3.601 0.305 -359.916 -794.932 -3449.853 0.219 0.177 -0.123 -0.04 0.59 -0.8 0.05
1 3.60 360 -0.182 -9.462 2.959 7.141 3.479 -0.366 -539.948 -674.860 -3404.882 0.256 0.102 -0.058 -0.04 0.59 -0.8 0.05
1 3.61 361 -0.120 -9.481 2.959 7.202 3.113 -0.427 -494.978 -704.991 -3464.993 0.192 0.124 -0.047 -0.04 0.59 -0.8 0.05
1 3.62 362 -0.278 -9.448 2.945 7.385 3.235 -0.366 -494.978 -704.991 -3464.993 0.349 0.094 -0.021 -0.04 0.59 -0.8 0.05
1 3.63 363 -0.201 -9.386 2.907 6.866 2.350 -0.427 -344.925 -779.942 -3464.993 0.271 0.036 0.028 -0.04 0.59 -0.8 0.05
1 3.64 364 -0.239 -9.285 2.988 5.707 2.411 -0.214 -344.925 -779.942 -3464.993 0.307 -0.062 -0.043 -0.04 0.59 -0.81 0.05
1 3.65 365 -0.168 -9.390 2.955 5.005 1.892 0.183 -254.984 -869.883 -3449.853 0.233 0.046 -0.000 -0.04 0.59 -0.81 0.05
1 3.66 366 0.029 -9.386 2.873 5.707 2.594 -0.275 -569.929 -809.922 -3389.892 0.036 0.044 0.090 -0.04 0.59 -0.81 0.05
1 3.67 367 -0.014 -9.362 2.978 5.463 2.289 0.244 -569.929 -809.922 -3389.892 0.078 0.023 -0.007 -0.04 0.59 -0.81 0.05
1 3.68 368 0.000 -9.429 3.103 4.639 1.740 -0.366 -299.955 -779.942 -3494.973 0.062 0.095 -0.115 -0.04 0.59 -0.81 0.04
1 3.69 369 -0.101 -9.280 3.069 3.510 1.801 -0.092 -299.955 -779.942 -3494.973 0.163 -0.050 -0.074 -0.04 0.59 -0.81 0.04
1 3.70 370 0.010 -9.333 3.026 3.082 2.136 -0.641 -599.909 -929.994 -3419.872 0.052 0.004 -0.024 -0.04 0.59 -0.81 0.04
1 3.71 371 0.101 -9.280 3.046 2.716 2.625 -0.458 -599.909 -929.994 -3419.872 -0.038 -0.047 -0.038 -0.04 0.59 -0.81 0.04
1 3.72 372 0.005 -9.343 3.170 2.350 1.648 -1.465 -434.867 -749.961 -3479.983 0.058 0.017 -0.157 -0.04 0.59 -0.81 0.04
1 3.73 373 0.010 -9.271 3.074 2.960 1.923 -1.068 -464.997 -914.854 -3374.901 0.055 -0.053 -0.057 -0.04 0.59 -0.81 0.04
1 3.74 374 -0.024 -9.247 3.060 2.838 1.556 -1.007 -464.997 -914.854 -3374.901 0.090 -0.075 -0.037 -0.04 0.59 -0.81 0.04
1 3.75 375 0.129 -9.161 3.012 2.563 2.411 -1.190 -434.867 -749.961 -3554.934 -0.060 -0.158 0.021 -0.04 0.59 -0.81 0.04
1 3.76 376 -0.101 -9.266 3.060 1.404 2.472 -0.702 -434.867 -749.961 -3554.934 0.171 -0.052 -0.023 -0.04 0.59 -0.81 0.04
1 3.77 377 0.034 -9.304 3.227 0.702 2.228 -0.336 -374.906 -734.971 -3359.911 0.038 -0.012 -0.188 -0.04 0.59 -0.81 0.04
1 3.78 378 -0.048 -9.247 3.122 0.275 1.465 -1.068 -374.906 -734.971 -3359.911 0.119 -0.069 -0.080 -0.04 0.59 -0.81 0.04
1 3.79 379 -0.014 -9.194 3.184 0.244 0.275 -0.732 -434.867 -839.903 -3404.882 0.087 -0.121 -0.140 -0.04 0.59 -0.81 0.04
1 3.80 380 0.019 -9.453 3.065 -0.549 -0.519 -0.885 -509.968 -749.961 -3509.963 0.055 0.138 -0.019 -0.04 0.59 -0.81 0.04
1 3.81 381 0.010 -9.491 3.007 -0.732 0.244 -0.854 -509.968 -749.961 -3509.963 0.065 0.177 0.039 -0.04 0.59 -0.81 0.04
1 3.82 382 0.182 -9.352 3.165 -0.793 -0.397 -0.244 -464.997 -839.903 -3329.931 -0.106 0.038 -0.118 -0.04 0.59 -0.81 0.04
1 3.83 383 0.120 -9.472 3.036 -0.519 -1.190 -0.061 -449.857 -854.893 -3539.944 -0.042 0.158 0.011 -0.04 0.59 -0.81 0.04
1 3.84 384 0.043 -9.438 3.065 -0.183 -1.801 1.007 -389.896 -1019.936 -3449.853 0.035 0.124 -0.017 -0.04 0.59 -0.81 0.04
1 3.85 385 -0.014 -9.381 3.175 -0.427 -1.953 0.366 -389.896 -1019.936 -3449.853 0.092 0.067 -0.127 -0.04 0.59 -0.81 0.04
1 3.86 386 0.057 -9.347 2.993 0.061 -2.594 0.427 -449.857 -929.994 -3314.940 0.021 0.034 0.056 -0.04 0.59 -0.81 0.04
1 3.87 387 0.115 -9.343 3.180 0.275 -3.082 0.519 -449.857 -734.971 -3494.973 -0.035 0.029 -0.130 -0.04 0.59 -0.81 0.04
1 3.88 388 0.091 -9.486 3.113 0.092 -2.533 0.732 -449.857 -734.971 -3494.973 -0.009 0.174 -0.062 -0.04 0.59 -0.81 0.04
1 3.89 389 0.057 -9.386 3.060 -0.031 -3.052 1.038 -464.997 -869.883 -3479.983 0.026 0.074 -0.007 -0.04 0.59 -0.81 0.04
1 3.90 390 0.163 -9.395 3.074 0.458 -2.747 1.312 -464.997 -914.854 -3479.983 -0.077 0.084 -0.019 -0.04 0.59 -0.81 0.04
1 3.91 391 0.177 -9.343 3.031 0.122 -2.838 1.099 -344.925 -854.893 -3389.892 -0.090 0.032 0.026 -0.04 0.59 -0.81 0.04
1 3.92 392 0.163 -9.347 3.069 -0.305 -2.899 0.702 -344.925 -854.893 -3389.892 -0.075 0.037 -0.012 -0.04 0.59 -0.81 0.04
1 3.93 393 0.316 -9.448 2.993 0.031 -2.655 0.153 -449.857 -854.893 -3539.944 -0.225 0.138 0.066 -0.04 0.59 -0.81 0.04
1 3.94 394 0.239 -9.295 3.165 -0.061 -2.411 1.068 -359.916 -839.903 -3254.979 -0.146 -0.015 -0.106 -0.04 0.59 -0.81 0.04
1 3.95 395 0.211 -9.323 3.089 -0.702 -2.167 0.977 -359.916 -839.903 -3254.979 -0.115 0.014 -0.028 -0.04 0.59 -0.81 0.04
1 3.96 396 0.182 -9.395 2.892 -2.289 -2.136 0.153 -344.925 -809.922 -3464.993 -0.085 0.086 0.169 -0.04 0.59 -0.81 0.04
1 3.97 397 0.263 -9.357 3.084 -2.136 -2.899 0.580 -449.857 -884.874 -3569.924 -0.160 0.047 -0.026 -0.04 0.59 -0.81 0.04
1 3.98 398 0.120 -9.414 3.122 -1.709 -2.625 0.336 -344.925 -854.893 -3539.944 -0.015 0.104 -0.066 -0.04 0.59 -0.81 0.04
1 3.99 399 0.259 -9.438 3.275 -0.885 -2.899 0.824 -344.925 -854.893 -3539.944 -0.152 0.127 -0.221 -0.04 0.59 -0.81 0.04
1 4.00 400 0.292 -9.524 3.002 -0.488 -2.991 0.702 -509.968 -719.981 -3629.885 -0.183 0.213 0.052 -0.04 0.59 -0.81 0.04
1 4.01 401 0.182 -9.357 3.151 -0.397 -2.716 0.763 -614.899 -794.932 -3554.934 -0.070 0.046 -0.097 -0.04 0.59 -0.81 0.04
1 4.02 402 0.235 -9.438 3.074 -0.092 -3.204 0.214 -614.899 -794.932 -3554.934 -0.121 0.127 -0.020 -0.04 0.59 -0.81 0.04
1 4.03 403 0.268 -9.366 3.060 0.092 -2.777 0.793 -464.997 -839.903 -3509.963 -0.151 0.056 -0.005 -0.04 0.59 -0.81 0.04
1 4.04 404 0.120 -9.352 3.237 -0.854 -3.021 0.580 -419.876 -854.893 -3389.892 0.001 0.042 -0.180 -0.04 0.59 -0.81 0.04
1 4.05 405 0.278 -9.357 3.242 -0.763 -3.052 1.404 -419.876 -854.893 -3539.944 -0.155 0.047 -0.184 -0.04 0.59 -0.81 0.04
1 4.06 406 0.273 -9.323 3.165 -0.916 -3.357 0.183 -419.876 -854.893 -3539.944 -0.149 0.013 -0.108 -0.04 0.59 -0.81 0.04
1 4.07 407 0.259 -9.314 3.156 -1.190 -3.082 0.427 -464.997 -839.903 -3584.915 -0.132 0.004 -0.098 -0.04 0.59 -0.81 0.04
1 4.08 408 0.283 -9.381 3.160 -1.740 -2.502 0.458 -389.896 -839.903 -3404.882 -0.153 0.071 -0.103 -0.04 0.59 -0.81 0.04
1 4.09 409 0.235 -9.319 3.098 -1.678 -1.282 0.885 -389.896 -839.903 -3404.882 -0.103 0.008 -0.042 -0.04 0.59 -0.81 0.04
1 4.10 410 0.268 -9.371 3.218 -2.045 -1.160 1.434 -464.997 -749.961 -3449.853 -0.136 0.061 -0.161 -0.04 0.59 -0.81 0.04
1 4.11 411 0.268 -9.371 3.175 -1.801 -1.587 1.648 -419.876 -884.874 -3539.944 -0.135 0.061 -0.118 -0.04 0.59 -0.81 0.04
1 4.12 412 0.297 -9.319 3.189 -2.808 -0.305 1.190 -434.867 -869.883 -3449.853 -0.162 0.008 -0.135 -0.04 0.59 -0.81 0.04
1 4.13 413 0.393 -9.462 3.280 -3.143 -0.031 0.732 -434.867 -869.883 -3449.853 -0.257 0.151 -0.228 -0.04 0.59 -0.81 0.04
1 4.14 414 0.374 -9.338 3.132 -3.143 -0.244 1.160 -419.876 -884.874 -3419.872 -0.237 0.025 -0.082 -0.04 0.59 -0.81 0.04
1 4.15 415 0.220 -9.539 3.208 -2.838 -0.153 1.312 -434.867 -989.955 -3479.983 -0.082 0.226 -0.161 -0.04 0.59 -0.81 0.04
1 4.16 416 0.249 -9.410 3.213 -1.831 0.610 0.610 -434.867 -989.955 -3479.983 -0.111 0.096 -0.167 -0.04 0.59 -0.81 0.04
1 4.17 417 0.220 -9.338 3.137 -1.404 0.977 0.488 -374.906 -779.942 -3359.911 -0.081 0.024 -0.092 -0.04 0.59 -0.81 0.04
1 4.18 418 0.215 -9.448 3.175 -2.533 1.160 1.099 -464.997 -944.984 -3584.915 -0.076 0.134 -0.131 -0.04 0.59 -0.81 0.04
1 4.19 419 0.340 -9.433 3.132 -1.831 1.617 0.610 -374.906 -884.874 -3464.993 -0.200 0.118 -0.091 -0.04 0.59 -0.81 0.04
1 4.20 420 0.144 -9.410 3.189 -1.556 1.831 1.038 -374.906 -884.874 -3464.993 -0.004 0.094 -0.149 -0.04 0.59 -0.81 0.04
1 4.21 421 0.206 -9.448 3.242 -0.610 1.709 0.702 -434.867 -914.854 -3554.934 -0.066 0.132 -0.202 -0.04 0.59 -0.81 0.04
1 4.22 422 0.321 -9.496 3.184 -0.519 2.075 0.702 -344.925 -704.991 -3284.960 -0.181 0.180 -0.144 -0.04 0.59 -0.81 0.04
1 4.23 423 0.259 -9.371 3.285 -1.373 2.136 0.610 -344.925 -704.991 -3284.960 -0.119 0.056 -0.244 -0.04 0.59 -0.81 0.04
1 4.24 424 0.211 -9.371 3.151 0.000 2.167 0.183 -329.935 -839.903 -3299.950 -0.070 0.056 -0.109 -0.04 0.59 -0.81 0.04
1 4.25 425 0.115 -9.405 3.132 -0.031 2.472 0.244 -344.925 -734.971 -3419.872 0.026 0.091 -0.088 -0.04 0.59 -0.81 0.04
1 4.26 426 0.249 -9.309 3.069 -1.068 2.014 -0.122 -344.925 -734.971 -3419.872 -0.108 -0.005 -0.023 -0.04 0.59 -0.81 0.04
1 4.27 427 0.268 -9.319 3.247 -0.671 1.953 0.427 -524.958 -854.893 -3419.872 -0.126 0.005 -0.200 -0.04 0.59 -0.81 0.04
1 4.28 428 0.278 -9.194 3.160 -1.190 1.709 -0.061 -389.896 -719.981 -3374.901 -0.136 -0.119 -0.113 -0.04 0.59 -0.81 0.04
1 4.29 429 0.053 -9.256 3.213 -1.434 2.686 0.549 -419.876 -704.991 -3464.993 0.090 -0.057 -0.166 -0.04 0.59 -0.81 0.04
1 4.30 430 0.345 -9.438 3.180 -2.167 2.594 0.458 -419.876 -704.991 -3464.993 -0.203 0.125 -0.132 -0.04 0.59 -0.81 0.04
1 4.31 431 0.263 -9.299 3.093 -2.533 2.777 0.153 -464.997 -794.932 -3329.931 -0.122 -0.014 -0.048 -0.04 0.59 -0.81 0.04
1 4.32 432 0.144 -9.352 3.175 -3.235 3.174 0.092 -374.906 -959.975 -3419.872 -0.002 0.038 -0.131 -0.04 0.59 -0.81 0.04
1 4.33 433 0.230 -9.386 3.194 -3.296 2.533 0.305 -374.906 -959.975 -3419.872 -0.088 0.071 -0.152 -0.04 0.59 -0.81 0.04
1 4.34 434 0.196 -9.443 3.084 -2.380 1.984 0.092 -434.867 -839.903 -3374.901 -0.053 0.127 -0.047 -0.04 0.59 -0.81 0.04
1 4.35 435 0.192 -9.381 3.074 -1.923 1.923 -0.336 -329.935 -869.883 -3449.853 -0.047 0.064 -0.039 -0.04 0.59 -0.81 0.04
1 4.36 436 0.129 -9.405 3.137 -1.648 1.373 -0.031 -449.857 -659.870 -3464.993 0.016 0.087 -0.103 -0.04 0.59 -0.81 0.04
1 4.37 437 0.187 -9.362 3.113 -1.373 1.831 0.763 -449.857 -659.870 -3464.993 -0.041 0.044 -0.079 -0.04 0.59 -0.81 0.04
1 4.38 438 0.125 -9.252 3.170 -1.648 0.977 0.549 -449.857 -809.922 -3314.940 0.021 -0.066 -0.137 -0.04 0.59 -0.81 0.04
1 4.39 439 0.196 -9.323 3.089 -2.625 0.793 0.122 -464.997 -794.932 -3479.983 -0.051 0.005 -0.057 -0.04 0.59 -0.81 0.04
1 4.40 440 0.292 -9.314 3.055 -2.594 0.458 0.427 -464.997 -794.932 -3479.983 -0.145 -0.005 -0.025 -0.04 0.59 -0.81 0.04
1 4.41 441 0.177 -9.261 3.137 -2.869 -0.122 0.336 -434.867 -749.961 -3554.934 -0.029 -0.059 -0.112 -0.04 0.59 -0.81 0.04
1 4.42 442 0.330 -9.242 3.060 -3.052 -0.061 0.580 -599.909 -854.893 -3539.944 -0.181 -0.079 -0.038 -0.04 0.59 -0.81 0.04
1 4.43 443 0.182 -9.323 3.127 -3.510 -0.885 -0.275 -389.896 -839.903 -3584.915 -0.031 0.001 -0.108 -0.04 0.59 -0.81 0.04
1 4.44 444 0.278 -9.304 2.964 -4.456 -0.549 0.275 -389.896 -839.903 -3584.915 -0.125 -0.019 0.051 -0.04 0.59 -0.81 0.04
1 4.45 445 0.182 -9.290 3.089 -5.005 -0.458 0.458 -494.978 -779.942 -3569.924 -0.028 -0.035 -0.079 -0.04 0.59 -0.81 0.04
1 4.46 446 0.048 -9.433 3.151 -5.798 -0.946 0.671 -389.896 -794.932 -3299.950 0.107 0.107 -0.147 -0.04 0.59 -0.81 0.04
1 4.47 447 0.120 -9.290 3.103 -6.226 -0.732 1.007 -389.896 -794.932 -3299.950 0.036 -0.039 -0.105 -0.04 0.59 -0.81 0.04
1 4.48 448 0.048 -9.381 3.342 -6.042 -1.434 1.068 -494.978 -884.874 -3539.944 0.107 0.047 -0.358 -0.04 0.59 -0.81 0.04
1 4.49 449 0.158 -9.405 3.318 -6.104 -1.251 1.038 -359.916 -944.984 -3404.882 -0.004 0.069 -0.341 -0.04 0.59 -0.81 0.04
1 4.50 450 0.172 -9.295 3.237 -5.676 -1.251 1.373 -494.978 -779.942 -3464.993 -0.019 -0.043 -0.266 -0.04 0.59 -0.81 0.04
1 4.51 451 0.306 -9.266 3.237 -6.073 -1.221 1.038 -494.978 -779.942 -3464.993 -0.153 -0.073 -0.272 -0.04 0.59 -0.81 0.04
1 4.52 452 0.335 -9.343 3.256 -6.042 -1.160 1.221 -269.974 -809.922 -3314.940 -0.181 0.002 -0.296 -0.04 0.59 -0.81 0.04
1 4.53 453 0.402 -9.357 3.204 -5.829 -0.336 1.068 -389.896 -869.883 -3509.963 -0.248 0.014 -0.250 -0.04 0.59 -0.81 0.04
1 4.54 454 0.484 -9.405 3.113 -6.104 0.427 1.129 -389.896 -869.883 -3509.963 -0.329 0.060 -0.164 -0.04 0.59 -0.81 0.04
1 4.55 455 0.436 -9.467 3.199 -5.920 1.465 0.732 -374.906 -809.922 -3359.911 -0.279 0.121 -0.256 -0.04 0.59 -0.81 0.04
1 4.56 456 0.278 -9.381 3.170 -6.561 1.526 0.763 -359.916 -599.909 -3449.853 -0.119 0.030 -0.241 -0.04 0.59 -0.8 0.04
1 4.57 457 0.105 -9.491 3.280 -5.310 2.472 0.214 -344.925 -809.922 -3359.911 0.054 0.139 -0.357 -0.04 0.59 -0.8 0.04
1 4.58 458 0.192 -9.558 3.271 -3.967 2.716 0.732 -344.925 -809.922 -3359.911 -0.033 0.204 -0.351 -0.04 0.59 -0.8 0.04
1 4.59 459 0.067 -9.453 3.256 -4.486 3.632 0.793 -284.964 -839.903 -3449.853 0.091 0.098 -0.339 -0.04 0.59 -0.8 0.04
1 4.60 460 0.187 -9.596 3.381 -4.517 4.211 0.977 -344.925 -779.942 -3284.960 -0.030 0.241 -0.467 -0.04 0.59 -0.8 0.04
1 4.61 461 0.067 -9.611 3.318 -4.547 5.157 1.556 -344.925 -779.942 -3284.960 0.087 0.254 -0.408 -0.04 0.59 -0.8 0.04
1 4.62 462 -0.024 -9.635 3.266 -4.028 5.341 1.617 -494.978 -809.922 -3464.993 0.174 0.277 -0.358 -0.04 0.59 -0.8 0.04
1 4.63 463 -0.043 -9.706 3.213 -2.777 5.310 2.808 -344.925 -884.874 -3389.892 0.183 0.347 -0.312 -0.04 0.59 -0.8 0.04
1 4.64 464 -0.029 -9.711 3.232 -1.373 5.219 3.021 -344.925 -809.922 -3464.993 0.163 0.351 -0.332 -0.04 0.59 -0.8 0.04
1 4.65 465 0.029 -9.702 3.232 1.129 4.944 2.838 -344.925 -809.922 -3464.993 0.098 0.342 -0.331 -0.03 0.59 -0.8 0.04
1 4.66 466 0.067 -9.539 3.165 2.777 4.852 2.289 -299.955 -734.971 -3314.940 0.054 0.180 -0.259 -0.03 0.59 -0.8 0.04
1 4.67 467 0.105 -9.577 3.213 4.547 4.639 2.106 -389.896 -719.981 -3254.979 0.011 0.221 -0.300 -0.03 0.59 -0.8 0.04
1 4.68 468 -0.005 -9.347 3.017 5.188 3.784 1.068 -389.896 -719.981 -3254.979 0.117 -0.006 -0.094 -0.03 0.59 -0.8 0.04
1 4.69 469 -0.086 -9.481 3.213 4.303 3.143 0.519 -344.925 -539.948 -3359.911 0.195 0.131 -0.282 -0.03 0.59 -0.81 0.04
1 4.70 470 -0.158 -9.448 3.137 5.096 2.136 0.732 -344.925 -539.948 -3359.911 0.265 0.100 -0.196 -0.03 0.59 -0.81 0.04
1 4.71 471 -0.125 -9.481 3.170 5.005 1.495 0.183 -359.916 -719.981 -3299.950 0.227 0.139 -0.211 -0.03 0.59 -0.81 0.04
1 4.72 472 -0.062 -9.496 3.093 4.181 1.099 -1.099 -359.916 -719.981 -3299.950 0.164 0.157 -0.125 -0.03 0.59 -0.81 0.04
1 4.73 473 -0.177 -9.510 3.137 5.066 0.458 -1.404 -359.916 -644.880 -3449.853 0.279 0.174 -0.160 -0.03 0.59 -0.81 0.04
1 4.74 474 -0.182 -9.280 3.146 4.913 0.244 -1.404 -269.974 -779.942 -3494.973 0.286 -0.053 -0.161 -0.03 0.59 -0.81 0.03
1 4.75 475 -0.278 -9.333 3.069 3.418 -0.336 -1.648 -269.974 -779.942 -3494.973 0.383 0.002 -0.075 -0.03 0.59 -0.81 0.03
1 4.76 476 -0.263 -9.333 3.026 2.960 -0.977 -1.770 -224.854 -704.991 -3359.911 0.369 0.005 -0.025 -0.03 0.59 -0.81 0.03
1 4.77 477 -0.168 -9.204 3.074 2.930 -0.336 -2.045 -224.854 -704.991 -3359.911 0.274 -0.123 -0.066 -0.03 0.59 -0.81 0.03
1 4.78 478 -0.077 -9.161 3.151 1.709 -0.702 -1.709 -464.997 -674.860 -3479.983 0.187 -0.162 -0.132 -0.03 0.59 -0.81 0.03
1 4.79 479 -0.053 -9.247 3.089 0.916 -0.458 -2.106 -464.997 -674.860 -3479.983 0.166 -0.075 -0.066 -0.03 0.59 -0.81 0.03
1 4.80 480 -0.129 -9.405 3.146 0.244 -0.580 -1.984 -284.964 -839.903 -3449.853 0.246 0.084 -0.120 -0.03 0.59 -0.81 0.03
1 4.81 481 -0.043 -9.371 3.146 0.580 -0.458 -1.892 -344.925 -704.991 -3389.892 0.162 0.051 -0.119 -0.03 0.59 -0.81 0.03
1 4.82 482 -0.105 -9.453 3.012 0.366 -0.824 -1.770 -344.925 -704.991 -3389.892 0.228 0.133 0.017 -0.03 0.59 -0.81 0.03
1 4.83 483 -0.206 -9.347 3.036 0.549 -0.885 -2.655 -329.935 -749.961 -3584.915 0.331 0.029 -0.005 -0.03 0.59 -0.81 0.03
1 4.84 484 -0.019 -9.319 2.993 -0.183 -0.641 -1.831 -329.935 -749.961 -3584.915 0.148 0.000 0.039 -0.03 0.59 -0.81 0.03
1 4.85 485 -0.034 -9.347 3.065 -0.977 -0.366 -1.556 -389.896 -719.981 -3329.931 0.169 0.029 -0.032 -0.03 0.59 -0.81 0.03
1 4.86 486 -0.053 -9.280 2.921 -2.380 -0.519 -1.495 -389.896 -719.981 -3329.931 0.190 -0.038 0.111 -0.03 0.59 -0.81 0.03
1 4.87 487 0.005 -9.314 2.945 -2.960 -0.549 -1.801 -434.867 -869.883 -3404.882 0.135 -0.005 0.084 -0.03 0.59 -0.81 0.03
1 4.88 488 -0.019 -9.548 2.955 -3.021 -0.549 -2.411 -209.863 -839.903 -3449.853 0.162 0.228 0.071 -0.03 0.59 -0.81 0.03
1 4.89 489 0.062 -9.405 3.050 -3.387 -0.610 -2.472 -209.863 -839.903 -3449.853 0.084 0.083 -0.029 -0.03 0.59 -0.81 0.03
1 4.90 490 -0.053 -9.453 3.007 -3.296 -1.923 -2.441 -434.867 -914.854 -3449.853 0.204 0.130 0.010 -0.03 0.59 -0.81 0.03
1 4.91 491 -0.129 -9.577 3.022 -3.265 -2.838 -2.594 -434.867 -914.854 -3449.853 0.284 0.253 -0.009 -0.03 0.59 -0.81 0.03
1 4.92 492 -0.014 -9.486 2.940 -2.289 -3.937 -2.289 -359.916 -749.961 -3404.882 0.177 0.160 0.065 -0.03 0.59 -0.81 0.03
1 4.93 493 -0.091 -9.457 3.036 -2.197 -4.486 -2.502 -359.916 -749.961 -3404.882 0.259 0.130 -0.033 -0.03 0.59 -0.81 0.03
1 4.94 494 -0.014 -9.510 2.969 -2.075 -5.463 -1.801 -359.916 -749.961 -3404.882 0.187 0.182 0.031 -0.03 0.59 -0.81 0.03
1 4.95 495 -0.014 -9.429 2.911 -1.770 -6.348 -1.221 -299.955 -809.922 -3464.993 0.191 0.100 0.086 -0.03 0.59 -0.81 0.03
1 4.96 496 0.029 -9.333 3.022 -2.197 -6.958 -1.343 -299.955 -809.922 -3464.993 0.152 0.004 -0.026 -0.04 0.59 -0.81 0.03
1 4.97 497 -0.024 -9.275 3.089 -1.831 -8.240 -1.801 -434.867 -839.903 -3554.934 0.210 -0.054 -0.096 -0.04 0.59 -0.81 0.03
1 4.98 498 -0.057 -9.256 3.031 -2.350 -8.789 -0.977 -434.867 -839.903 -3554.934 0.249 -0.074 -0.040 -0.04 0.59 -0.81 0.03
1 4.99 499 0.091 -9.323 2.945 -3.296 -8.087 -0.671 -449.857 -704.991 -3359.911 0.106 -0.008 0.044 -0.04 0.59 -0.81 0.03
1 5.00 500 0.158 -9.242 3.065 -4.334 -7.233 0.580 -374.906 -809.922 -3539.944 0.048 -0.091 -0.083 -0.04 0.59 -0.81 0.03
1 5.01 501 0.168 -9.352 2.945 -5.157 -7.446 1.129 -299.955 -734.971 -3464.993 0.041 0.017 0.031 -0.04 0.59 -0.81 0.03
1 5.02 502 0.350 -9.366 2.926 -5.524 -5.341 2.716 -449.857 -629.890 -3419.872 -0.139 0.030 0.044 -0.04 0.59 -0.81 0.03
1 5.03 503 0.335 -9.424 2.978 -5.157 -4.089 3.815 -449.857 -629.890 -3419.872 -0.125 0.085 -0.016 -0.04 0.59 -0.81 0.03
1 5.04 504 0.311 -9.568 3.012 -6.531 -2.350 4.425 -539.948 -869.883 -3374.901 -0.103 0.226 -0.057 -0.04 0.59 -0.81 0.04
1 5.05 505 0.345 -9.328 2.859 -6.653 -1.404 4.913 -539.948 -869.883 -3374.901 -0.140 -0.016 0.088 -0.04 0.59 -0.81 0.04
1 5.06 506 0.417 -9.366 2.840 -6.775 1.373 4.089 -389.896 -794.932 -3509.963 -0.216 0.020 0.099 -0.04 0.59 -0.81 0.04
1 5.07 507 0.426 -9.462 3.026 -9.003 4.822 3.387 -539.948 -839.903 -3509.963 -0.233 0.109 -0.107 -0.04 0.59 -0.8 0.04
1 5.08 508 0.388 -9.438 2.935 -10.712 7.477 2.869 -419.876 -734.971 -3419.872 -0.200 0.081 -0.028 -0.04 0.59 -0.8 0.04
1 5.09 509 0.441 -9.654 2.840 -10.712 9.491 3.510 -569.929 -659.870 -3419.872 -0.257 0.292 0.054 -0.04 0.59 -0.8 0.04
1 5.10 510 0.364 -9.678 2.787 -10.345 9.857 2.899 -569.929 -659.870 -3419.872 -0.186 0.312 0.091 -0.04 0.59 -0.8 0.04
1 5.11 511 0.374 -9.716 2.840 -9.918 11.536 3.052 -419.876 -734.971 -3359.911 -0.202 0.345 0.024 -0.04 0.59 -0.8 0.04
1 5.12 512 0.651 -9.845 2.864 -7.751 12.421 1.129 -419.876 -734.971 -3359.911 -0.485 0.470 -0.014 -0.04 0.59 -0.8 0.03
1 5.13 513 0.575 -9.960 2.897 -5.890 12.817 -0.214 -374.906 -629.890 -3314.940 -0.413 0.582 -0.058 -0.04 0.59 -0.8 0.03
1 5.14 514 0.493 -9.596 2.974 -3.784 13.794 0.153 -389.896 -644.880 -3449.853 -0.332 0.215 -0.143 -0.04 0.6 -0.8 0.03
1 5.15 515 0.340 -9.429 2.835 -2.411 15.442 0.824 -374.906 -659.870 -3389.892 -0.184 0.046 -0.011 -0.03 0.6 -0.8 0.03
1 5.16 516 0.469 -9.362 2.859 -2.350 17.304 0.763 -434.867 -749.961 -3404.882 -0.318 -0.022 -0.037 -0.03 0.6 -0.8 0.03
1 5.17 517 0.350 -9.467 2.931 -3.235 18.707 1.556 -434.867 -749.961 -3404.882 -0.204 0.083 -0.111 -0.03 0.6 -0.8 0.03
1 5.18 518 0.330 -9.467 2.926 -3.967 21.179 1.984 -284.964 -644.880 -3509.963 -0.192 0.082 -0.109 -0.03 0.6 -0.8 0.03
1 5.19 519 0.311 -9.692 2.931 -4.883 22.278 3.662 -284.964 -644.880 -3509.963 -0.182 0.305 -0.118 -0.03 0.6 -0.8 0.03
1 5.20 520 0.292 -9.706 2.892 -4.028 22.888 3.723 -284.964 -569.929 -3404.882 -0.175 0.318 -0.085 -0.03 0.6 -0.8 0.03
1 5.21 521 0.350 -9.654 2.897 -3.265 23.285 4.028 -419.876 -779.942 -3419.872 -0.245 0.264 -0.094 -0.03 0.6 -0.8 0.03
1 5.22 522 0.225 -9.706 2.701 -3.510 25.055 4.913 -344.925 -779.942 -3359.911 -0.148 0.314 0.096 -0.02 0.6 -0.8 0.02
1 5.23 523 0.057 -9.663 2.710 -3.174 24.719 4.944 -179.883 -794.932 -3299.950 0.005 0.270 0.081 -0.02 0.6 -0.8 0.02
1 5.24 524 0.038 -9.702 2.773 -2.716 24.780 4.181 -179.883 -794.932 -3299.950 0.008 0.307 0.015 -0.02 0.6 -0.8 0.02
1 5.25 525 -0.005 -9.596 2.811 -3.662 25.452 3.876 -89.941 -659.870 -3569.924 0.035 0.200 -0.027 -0.02 0.6 -0.8 0.02
1 5.26 526 -0.043 -9.467 2.720 -4.272 25.604 4.425 -89.941 -659.870 -3569.924 0.058 0.070 0.060 -0.02 0.6 -0.8 0.02
1 5.27 527 0.010 -9.534 2.840 -5.432 25.971 5.127 -179.883 -749.961 -3509.963 -0.011 0.135 -0.065 -0.01 0.6 -0.8 0.02
1 5.28 528 -0.105 -9.611 2.830 -5.005 27.313 5.005 -329.935 -719.981 -3374.901 0.086 0.210 -0.062 -0.01 0.6 -0.8 0.02
1 5.29 529 -0.038 -9.649 2.998 -5.432 29.968 6.409 -209.863 -674.860 -3374.901 -0.018 0.245 -0.242 -0.01 0.6 -0.8 0.02
1 5.30 530 0.034 -9.673 2.888 -6.042 30.579 5.951 -134.912 -719.981 -3254.979 -0.110 0.267 -0.139 -0.01 0.6 -0.8 0.02
1 5.31 531 -0.077 -9.745 2.801 -7.233 30.670 5.188 -134.912 -719.981 -3254.979 -0.020 0.336 -0.061 -0 0.6 -0.8 0.01
1 5.32 532 -0.350 -9.898 2.629 -7.904 29.022 5.157 -209.863 -644.880 -3404.882 0.235 0.487 0.102 -0 0.6 -0.8 0.01
1 5.33 533 -0.273 -9.898 2.682 -7.172 27.100 4.578 -209.863 -644.880 -3404.882 0.139 0.484 0.037 -0 0.6 -0.8 0.01
1 5.34 534 -0.493 -9.908 2.524 -2.930 25.269 3.937 0.000 -794.932 -3329.931 0.342 0.491 0.186 0 0.6 -0.8 0.01
1 5.35 535 -0.431 -9.807 2.461 -2.167 23.346 3.693 -104.932 -644.880 -3299.950 0.263 0.389 0.242 0 0.6 -0.8 0.01
1 5.36 536 -0.603 -9.855 2.495 -1.862 20.264 3.418 -209.863 -869.883 -3449.853 0.404 0.434 0.198 0.01 0.6 -0.8 0.01
1 5.37 537 -0.646 -9.759 2.447 -0.946 20.264 3.662 -44.971 -539.948 -3419.872 0.431 0.338 0.242 0.01 0.6 -0.8 0.01
1 5.38 538 -0.785 -9.802 2.504 4.181 19.684 3.967 -44.971 -539.948 -3419.872 0.554 0.381 0.184 0.01 0.6 -0.8 0.01
1 5.39 539 -0.852 -9.429 2.485 5.096 18.341 3.906 134.912 -599.909 -3224.999 0.605 0.009 0.208 0.01 0.6 -0.8 0.01
1 5.40 540 -0.843 -9.400 2.476 5.524 16.815 4.211 134.912 -599.909 -3224.999 0.579 -0.017 0.223 0.01 0.6 -0.8 0.01
1 5.41 541 -0.642 -9.098 2.442 4.730 14.893 3.357 -29.980 -644.880 -3299.950 0.362 -0.317 0.263 0.01 0.6 -0.8 0.01
1 5.42 542 -0.555 -9.089 2.495 4.181 13.641 2.502 0.000 -644.880 -3254.979 0.262 -0.324 0.217 0.01 0.6 -0.8 0.01
1 5.43 543 -0.661 -9.103 2.567 3.662 13.001 2.045 0.000 -644.880 -3254.979 0.356 -0.308 0.151 0.02 0.6 -0.8 0
1 5.44 544 -0.541 -9.194 2.624 2.716 10.681 1.343 119.922 -734.971 -3164.888 0.219 -0.213 0.104 0.02 0.6 -0.8 0
1 5.45 545 -0.565 -8.945 2.490 2.899 9.125 0.610 119.922 -734.971 -3164.888 0.236 -0.461 0.242 0.02 0.6 -0.8 0
1 5.46 546 -0.508 -8.926 2.653 2.258 8.118 -0.275 179.883 -794.932 -3329.931 0.173 -0.478 0.083 0.02 0.6 -0.8 0
1 5.47 547 -0.445 -8.883 2.576 0.977 6.622 -1.038 179.883 -794.932 -3329.931 0.108 -0.520 0.164 0.02 0.6 -0.8 0
1 5.48 548 -0.603 -8.763 2.595 -1.312 5.402 -2.869 59.961 -719.981 -3224.999 0.266 -0.640 0.146 0.02 0.6 -0.8 0
1 5.49 549 -0.517 -8.926 2.548 -3.052 4.364 -2.716 -29.980 -719.981 -3224.999 0.180 -0.477 0.193 0.02 0.6 -0.8 0
1 5.50 550 -0.460 -8.830 2.581 -4.974 4.700 -3.448 -29.980 -719.981 -3224.999 0.124 -0.574 0.156 0.02 0.6 -0.8 0
1 5.51 551 -0.407 -8.763 2.552 -8.087 5.402 -3.204 29.980 -644.880 -3404.882 0.074 -0.645 0.171 0.02 0.6 -0.8 0
1 5.52 552 -0.627 -8.859 2.600 -10.010 5.341 -2.716 29.980 -644.880 -3404.882 0.296 -0.553 0.111 -0.02 -0.6 0.8 0
1 5.53 553 -0.484 -9.003 2.385 -11.078 5.310 -2.716 -14.990 -464.997 -3359.911 0.154 -0.413 0.313 -0.02 -0.6 0.8 0
1 5.54 554 -0.560 -8.974 2.428 -11.688 5.219 -2.075 -14.990 -464.997 -3359.911 0.232 -0.447 0.253 -0.02 -0.6 0.8 0
1 5.55 555 -0.488 -8.816 2.241 -13.092 4.913 -2.563 119.922 -629.890 -3314.940 0.160 -0.609 0.423 -0.02 -0.6 0.8 0
1 5.56 556 -0.555 -8.734 2.308 -16.144 4.456 -2.136 44.971 -734.971 -3209.859 0.228 -0.697 0.335 -0.02 -0.6 0.8 0
1 5.57 557 -0.761 -8.888 2.140 -17.944 4.120 -1.892 44.971 -734.971 -3209.859 0.434 -0.550 0.480 -0.02 -0.6 0.8 0
1 5.58 558 -0.771 -9.165 2.150 -21.027 4.211 -2.533 194.873 -629.890 -3104.927 0.443 -0.287 0.415 -0.02 -0.61 0.79 0
1 5.59 559 -0.599 -9.247 2.193 -21.912 3.876 -2.594 194.873 -629.890 -3104.927 0.270 -0.215 0.339 -0.02 -0.61 0.79 0
1 5.60 560 -0.570 -9.639 2.093 -24.597 4.761 -3.479 119.922 -704.991 -3059.957 0.242 0.169 0.404 -0.02 -0.61 0.79 0
1 5.61 561 -0.637 -9.864 2.102 -24.139 3.937 -4.364 119.922 -704.991 -3059.957 0.313 0.384 0.358 -0.02 -0.61 0.79 0
1 5.62 562 -0.776 -10.310 2.083 -23.926 2.502 -5.341 44.971 -704.991 -3284.960 0.456 0.820 0.340 -0.02 -0.61 0.79 0
1 5.63 563 -0.752 -10.741 2.097 -21.973 0.092 -6.226 104.932 -524.958 -3299.950 0.437 1.241 0.289 -0.02 -0.61 0.79 0
1 5.64 564 -0.804 -10.817 1.959 -18.341 -1.007 -6.683 104.932 -524.958 -3299.950 0.497 1.309 0.393 -0.02 -0.62 0.79 0
1 5.65 565 -0.680 -10.894 2.121 -14.679 -2.563 -6.653 104.932 -719.981 -3149.898 0.383 1.378 0.203 -0.02 -0.62 0.79 0.01
1 5.66 566 -0.713 -10.746 2.121 -10.468 -5.951 -5.676 59.961 -599.909 -3074.947 0.441 1.220 0.164 -0.02 -0.62 0.79 0.01
1 5.67 567 -0.833 -10.549 2.193 -8.514 -7.599 -3.998 164.893 -629.890 -3239.989 0.572 1.020 0.080 -0.02 -0.62 0.78 0.01
1 5.68 568 -0.718 -10.559 2.126 -7.202 -9.796 -2.960 164.893 -629.890 -3239.989 0.466 1.027 0.136 -0.02 -0.62 0.78 0.01
1 5.69 569 -0.757 -10.468 2.040 -5.249 -11.597 -1.648 44.971 -509.968 -3164.888 0.513 0.934 0.214 -0.02 -0.62 0.78 0.01
1 5.70 570 -0.728 -10.430 2.193 -3.784 -12.604 -0.092 164.893 -539.948 -3134.908 0.488 0.893 0.052 -0.02 -0.62 0.78 0.01
1 5.71 571 -0.651 -10.209 2.217 -0.275 -12.604 1.709 164.893 -539.948 -3134.908 0.412 0.672 0.023 -0.02 -0.62 0.78 0
1 5.72 572 -0.670 -10.022 2.246 1.587 -13.489 3.418 134.912 -494.978 -3254.979 0.431 0.485 -0.007 -0.02 -0.62 0.78 0
1 5.73 573 -0.637 -9.750 2.270 1.953 -15.137 3.387 89.941 -464.997 -3134.908 0.393 0.213 -0.026 -0.02 -0.62 0.78 0
1 5.74 574 -0.536 -9.501 2.346 2.136 -16.327 3.540 0.000 -494.978 -3074.947 0.290 -0.035 -0.099 -0.02 -0.62 0.78 0
1 5.75 575 -0.436 -9.448 2.442 2.319 -15.808 3.235 0.000 -494.978 -3074.947 0.189 -0.086 -0.189 -0.02 -0.62 0.78 0
1 5.76 576 -0.536 -9.213 2.480 1.709 -15.686 3.448 -29.980 -524.958 -3119.917 0.290 -0.320 -0.221 0.02 0.62 -0.78 0
1 5.77 577 -0.488 -9.189 2.538 1.068 -15.869 3.479 -59.961 -449.857 -3194.869 0.242 -0.342 -0.272 0.01 0.62 -0.78 0
1 5.78 578 -0.335 -9.041 2.418 1.007 -15.778 2.411 -59.961 -449.857 -3194.869 0.089 -0.489 -0.147 0.01 0.62 -0.78 0
1 5.79 579 -0.374 -9.036 2.366 0.610 -14.740 0.793 44.971 -584.919 -3314.940 0.130 -0.493 -0.089 0.01 0.62 -0.78 0
1 5.80 580 -0.421 -9.060 2.452 -0.885 -13.062 -0.580 -59.961 -569.929 -3254.979 0.187 -0.468 -0.169 0.01 0.62 -0.79 0.01
1 5.81 581 -0.397 -9.204 2.399 -1.526 -12.878 -0.549 -44.971 -584.919 -3239.989 0.169 -0.324 -0.115 0.01 0.62 -0.79 0.01
1 5.82 582 -0.330 -9.232 2.528 -3.540 -12.085 -2.502 -44.971 -584.919 -3239.989 0.109 -0.295 -0.245 0.01 0.62 -0.79 0.01
1 5.83 583 -0.402 -9.304 2.619 -2.716 -12.085 -3.784 -104.932 -449.857 -3224.999 0.190 -0.224 -0.338 0.01 0.62 -0.79 0.01
1 5.84 584 -0.354 -9.319 2.571 -2.777 -11.261 -4.334 14.990 -704.991 -3164.888 0.151 -0.210 -0.290 0.01 0.62 -0.79 0.01
1 5.85 585 -0.551 -9.414 2.433 -2.960 -8.881 -5.493 14.990 -704.991 -3164.888 0.358 -0.114 -0.151 0.01 0.62 -0.79 0.01
1 5.86 586 -0.503 -9.505 2.538 -3.448 -8.453 -5.371 44.971 -704.991 -3059.957 0.319 -0.024 -0.258 0.01 0.62 -0.79 0.01
1 5.87 587 -0.589 -9.438 2.576 -3.571 -8.270 -5.737 -104.932 -419.876 -3149.898 0.414 -0.092 -0.299 0.01 0.62 -0.78 0.01
1 5.88 588 -0.445 -9.706 2.519 -4.120 -8.026 -5.737 -224.854 -464.997 -3209.859 0.290 0.175 -0.246 0 0.62 -0.78 0.01
1 5.89 589 -0.613 -9.864 2.595 -4.517 -7.996 -5.890 -224.854 -464.997 -3209.859 0.467 0.332 -0.327 0 0.62 -0.78 0.01
1 5.90 590 -0.508 -9.951 2.624 -5.341 -8.667 -5.859 -14.990 -584.919 -3209.859 0.372 0.417 -0.359 0 0.62 -0.78 0.01
1 5.91 591 -0.575 -10.066 2.634 -6.531 -11.200 -3.998 -194.873 -464.997 -2984.855 0.448 0.530 -0.374 0 0.62 -0.78 0.01
1 5.92 592 -0.536 -10.161 2.437 -4.700 -13.550 -2.930 -194.873 -464.997 -2984.855 0.417 0.625 -0.184 0 0.62 -0.78 0.01
1 5.93 593 -0.651 -10.142 2.500 -4.059 -15.045 -2.289 -179.883 -524.958 -3119.917 0.539 0.604 -0.252 -0 0.62 -0.78 0.01
1 5.94 594 -0.618 -10.329 2.639 -3.754 -16.083 -0.793 -224.854 -509.968 -3029.976 0.513 0.790 -0.396 -0 0.62 -0.78 0.01
1 5.95 595 -0.608 -10.477 2.686 -4.395 -17.273 2.228 -179.883 -524.958 -3149.898 0.511 0.937 -0.450 -0 0.62 -0.78 0.01
1 5.96 596 -0.441 -10.693 2.600 -2.869 -17.273 4.334 -179.883 -524.958 -3149.898 0.345 1.151 -0.367 -0 0.62 -0.78 0.01
1 5.97 597 -0.407 -10.779 2.710 -2.197 -15.778 7.019 -104.932 -644.880 -3119.917 0.311 1.237 -0.480 -0 0.62 -0.78 0.01
1 5.98 598 -0.460 -10.765 2.763 -0.641 -15.961 8.820 -134.912 -719.981 -3194.869 0.359 1.222 -0.534 -0.01 0.62 -0.78 0.02
1 5.99 599 -0.479 -10.611 2.691 3.662 -15.717 9.522 -134.912 -719.981 -3194.869 0.372 1.069 -0.460 -0.01 0.62 -0.78 0.02
1 6.00 600 -0.599 -10.300 2.624 10.193 -17.242 9.186 -194.873 -389.896 -3059.957 0.484 0.760 -0.385 -0.01 0.62 -0.78 0.02
1 6.01 601 -0.718 -10.018 2.591 14.282 -18.829 7.294 -164.893 -629.890 -3164.888 0.597 0.481 -0.337 -0.01 0.62 -0.78 0.02
1 6.02 602 -0.646 -9.817 2.504 14.679 -20.081 6.287 -179.883 -374.906 -3074.947 0.513 0.291 -0.206 -0.01 0.62 -0.79 0.02
1 6.03 603 -0.637 -9.788 2.380 14.221 -19.928 5.219 -179.883 -374.906 -3074.947 0.499 0.268 -0.057 -0.01 0.62 -0.79 0.02
1 6.04 604 -0.709 -9.649 2.322 14.252 -22.186 4.944 -89.941 -584.919 -3239.989 0.568 0.135 0.022 -0.01 0.62 -0.79 0.02
1 6.05 605 -0.814 -9.577 2.275 12.695 -23.468 5.280 -89.941 -509.968 -3164.888 0.671 0.068 0.092 -0.01 0.62 -0.79 0.03
1 6.06 606 -0.828 -9.568 2.035 13.123 -25.116 5.676 -89.941 -509.968 -3164.888 0.682 0.064 0.351 -0.01 0.61 -0.79 0.03
1 6.07 607 -0.828 -9.750 2.050 14.313 -26.520 8.270 -224.854 -584.919 -3239.989 0.679 0.250 0.355 -0.01 0.61 -0.79 0.03
1 6.08 608 -0.718 -9.716 2.121 15.350 -27.069 10.529 -179.883 -719.981 -3194.869 0.564 0.222 0.303 -0.01 0.61 -0.79 0.03
1 6.09 609 -0.589 -9.515 2.011 16.052 -26.154 11.749 -179.883 -719.981 -3194.869 0.427 0.026 0.434 -0.01 0.61 -0.79 0.03
1 6.10 610 -0.508 -9.520 2.346 15.991 -23.041 14.435 -269.974 -584.919 -3239.989 0.324 0.043 0.144 -0.02 0.61 -0.79 0.04
1 6.11 611 -0.417 -9.429 2.404 15.350 -21.210 15.625 -284.964 -644.880 -3194.869 0.219 -0.042 0.109 -0.02 0.61 -0.79 0.04
1 6.12 612 -0.268 -9.280 2.332 13.397 -19.074 16.968 -194.873 -629.890 -3209.859 0.055 -0.184 0.203 -0.02 0.61 -0.79 0.04
1 6.13 613 -0.129 -9.228 2.284 11.078 -16.052 17.426 -194.873 -629.890 -3209.859 -0.101 -0.231 0.270 -0.02 0.61 -0.79 0.04
1 6.14 614 -0.053 -9.390 2.385 8.972 -13.611 17.365 -344.925 -779.942 -3359.911 -0.195 -0.063 0.185 -0.02 0.61 -0.79 0.04
1 6.15 615 0.311 -9.266 2.452 4.425 -9.216 18.311 -194.873 -509.968 -3239.989 -0.577 -0.184 0.130 -0.02 0.61 -0.79 0.05
1 6.16 616 0.464 -9.271 2.389 2.106 -6.012 18.433 -194.873 -509.968 -3239.989 -0.749 -0.177 0.199 -0.02 0.61 -0.79 0.05
1 6.17 617 0.675 -9.563 2.485 0.671 -2.777 18.463 -299.955 -809.922 -3209.859 -0.995 0.118 0.109 -0.02 0.61 -0.79 0.05
1 6.18 618 0.383 -9.668 2.375 1.007 -1.068 19.043 -329.935 -839.903 -3194.869 -0.721 0.224 0.220 -0.02 0.61 -0.79 0.05
1 6.19 619 0.206 -9.740 2.370 2.869 0.275 18.372 -254.984 -749.961 -3404.882 -0.563 0.297 0.226 -0.02 0.61 -0.79 0.05
1 6.20 620 -0.062 -9.568 2.409 5.035 1.160 16.815 -254.984 -749.961 -3404.882 -0.316 0.127 0.192 -0.01 0.61 -0.79 0.05
1 6.21 621 -0.374 -9.529 2.581 6.500 0.610 14.008 -134.912 -749.961 -3254.979 -0.024 0.091 0.027 -0.01 0.61 -0.79 0.05
1 6.22 622 -0.699 -9.501 2.495 5.798 -3.204 11.444 -179.883 -524.958 -3254.979 0.285 0.066 0.123 -0.01 0.61 -0.79 0.05
1 6.23 623 -0.881 -9.544 2.729 5.646 -5.463 9.796 -179.883 -524.958 -3254.979 0.451 0.112 -0.103 -0.01 0.6 -0.79 0.05
1 6.24 624 -0.972 -9.457 2.571 4.364 -7.782 11.353 -194.873 -854.893 -3239.989 0.514 0.032 0.072 -0.01 0.6 -0.79 0.05
1 6.25 625 -1.140 -9.558 2.490 4.120 -9.399 11.047 -254.984 -674.860 -3329.931 0.666 0.135 0.160 -0.01 0.6 -0.8 0.06
1 6.26 626 -0.900 -9.601 2.495 2.716 -13.733 11.902 -209.863 -644.880 -3404.882 0.411 0.180 0.161 -0.01 0.6 -0.8 0.06
1 6.27 627 -0.934 -9.505 2.586 2.045 -14.618 13.641 -209.863 -644.880 -3404.882 0.431 0.087 0.074 -0.01 0.6 -0.8 0.06
1 6.28 628 -0.963 -9.692 2.571 1.556 -15.930 16.632 -134.912 -794.932 -3224.999 0.443 0.276 0.093 -0.01 0.6 -0.8 0.06
1 6.29 629 -0.967 -9.730 2.868 -1.740 -18.494 21.118 -179.883 -749.961 -3224.999 0.427 0.316 -0.202 -0.01 0.6 -0.8 0.06
1 6.30 630 -0.872 -9.927 2.931 -1.892 -19.379 23.590 -179.883 -749.961 -3224.999 0.307 0.514 -0.264 -0.01 0.6 -0.8 0.06
1 6.31 631 -0.642 -10.013 3.098 -1.984 -20.783 23.285 -224.854 -854.893 -3239.989 0.051 0.601 -0.431 -0.01 0.6 -0.79 0.06
1 6.32 632 -0.421 -10.444 3.256 -1.678 -20.752 20.447 -269.974 -854.893 -3284.960 -0.218 1.036 -0.587 -0.01 0.6 -0.79 0.07
1 6.33 633 -0.436 -10.544 3.342 2.838 -18.677 17.731 -284.964 -749.961 -3329.931 -0.223 1.139 -0.671 -0.01 0.6 -0.79 0.07
1 6.34 634 -0.527 -10.410 3.548 9.796 -18.341 14.038 -284.964 -749.961 -3329.931 -0.147 1.008 -0.868 -0.01 0.6 -0.79 0.07
1 6.35 635 -0.464 -10.185 3.544 16.541 -17.548 9.705 -269.974 -734.971 -3314.940 -0.220 0.789 -0.844 -0.01 0.6 -0.8 0.07
1 6.36 636 -0.421 -9.592 3.419 21.454 -19.775 2.472 -194.873 -734.971 -3284.960 -0.266 0.204 -0.691 -0.01 0.6 -0.8 0.07
1 6.37 637 -0.374 -9.400 3.467 22.553 -23.041 -2.594 -194.873 -734.971 -3284.960 -0.308 0.023 -0.701 -0.01 0.6 -0.8 0.07
1 6.38 638 -0.215 -9.137 3.438 21.698 -27.557 -8.209 -224.854 -704.991 -3359.911 -0.451 -0.230 -0.633 -0.01 0.6 -0.8 0.08
1 6.39 639 0.091 -9.074 3.299 22.888 -32.044 -15.106 -224.854 -854.893 -3359.911 -0.695 -0.272 -0.416 -0.02 0.59 -0.8 0.08
1 6.40 640 0.115 -8.892 3.481 24.109 -33.844 -16.235 -344.925 -959.975 -3209.859 -0.677 -0.444 -0.557 -0.02 0.59 -0.8 0.08
1 6.41 641 0.359 -8.825 3.711 23.102 -33.722 -16.296 -344.925 -959.975 -3209.859 -0.877 -0.501 -0.745 -0.02 0.59 -0.8 0.08
1 6.42 642 0.436 -8.916 3.611 19.257 -33.753 -14.923 -359.916 -749.961 -3224.999 -0.908 -0.399 -0.603 -0.03 0.59 -0.8 0.08
1 6.43 643 0.402 -9.031 3.486 16.632 -33.630 -13.001 -284.964 -839.903 -3254.979 -0.831 -0.275 -0.444 -0.03 0.59 -0.81 0.08
1 6.44 644 0.445 -9.041 3.409 18.524 -32.288 -9.979 -284.964 -839.903 -3254.979 -0.833 -0.257 -0.336 -0.03 0.59 -0.81 0.08
1 6.45 645 0.455 -8.878 3.309 18.524 -31.586 -8.637 -359.916 -1019.936 -3479.983 -0.806 -0.410 -0.203 -0.03 0.58 -0.81 0.08
1 6.46 646 0.881 -8.868 3.127 17.029 -30.579 -6.836 -359.916 -869.883 -3509.963 -1.164 -0.401 0.041 -0.04 0.58 -0.81 0.08
1 6.47 647 0.963 -8.897 3.069 14.923 -29.816 -6.592 -539.948 -839.903 -3449.853 -1.213 -0.364 0.124 -0.04 0.58 -0.81 0.08
1 6.48 648 1.504 -8.993 3.022 10.559 -26.367 -5.829 -539.948 -839.903 -3449.853 -1.721 -0.263 0.192 -0.04 0.58 -0.81 0.08
1 6.49 649 1.647 -9.007 2.998 8.850 -23.895 -5.463 -419.876 -1004.945 -3359.911 -1.831 -0.243 0.232 -0.04 0.58 -0.81 0.08
1 6.50 650 1.901 -9.156 2.998 8.392 -21.881 -6.165 -434.867 -839.903 -3584.915 -2.050 -0.091 0.246 -0.05 0.58 -0.81 0.08
1 6.51 651 2.030 -9.213 3.079 5.402 -17.548 -9.308 -434.867 -839.903 -3584.915 -2.143 -0.030 0.177 -0.05 0.58 -0.81 0.08
1 6.52 652 1.729 -9.419 3.271 2.655 -16.266 -12.482 -659.870 -1064.906 -3449.853 -1.803 0.179 -0.006 -0.05 0.58 -0.81 0.08
1 6.53 653 1.499 -9.366 3.156 1.678 -15.564 -14.710 -659.870 -1064.906 -3449.853 -1.531 0.128 0.113 -0.05 0.57 -0.81 0.08
1 6.54 654 1.575 -9.515 3.170 3.754 -16.052 -19.257 -464.997 -989.955 -3404.882 -1.522 0.279 0.105 -0.06 0.57 -0.81 0.08
1 6.55 655 1.484 -9.611 3.113 5.493 -16.083 -20.599 -464.997 -989.955 -3404.882 -1.382 0.377 0.168 -0.06 0.57 -0.81 0.07
1 6.56 656 1.417 -9.443 3.199 6.958 -16.388 -20.294 -659.870 -989.955 -3509.963 -1.267 0.212 0.089 -0.06 0.57 -0.81 0.07
1 6.57 657 1.350 -9.228 3.084 8.209 -15.656 -20.538 -584.919 -1064.906 -3374.901 -1.152 0.001 0.214 -0.06 0.57 -0.81 0.07
1 6.58 658 1.374 -9.208 3.074 8.057 -15.625 -19.775 -584.919 -1064.906 -3374.901 -1.130 -0.013 0.234 -0.07 0.57 -0.81 0.07
1 6.59 659 1.513 -9.132 2.935 6.897 -16.174 -19.348 -659.870 -839.903 -3509.963 -1.223 -0.085 0.382 -0.07 0.57 -0.82 0.07
1 6.60 660 1.465 -9.050 2.974 7.416 -14.069 -18.616 -659.870 -839.903 -3509.963 -1.129 -0.162 0.352 -0.07 0.57 -0.82 0.07
1 6.61 661 1.360 -9.141 2.916 8.331 -10.529 -15.961 -629.890 -1079.896 -3539.944 -0.940 -0.061 0.426 -0.07 0.57 -0.82 0.07
1 6.62 662 1.250 -9.151 2.768 7.294 -9.796 -14.404 -629.890 -1079.896 -3539.944 -0.794 -0.047 0.584 -0.07 0.57 -0.82 0.07
1 6.63 663 1.465 -9.199 2.768 7.263 -8.911 -13.184 -629.890 -1199.968 -3539.944 -0.977 0.005 0.590 -0.08 0.57 -0.82 0.07
1 6.64 664 1.451 -9.170 2.691 9.064 -7.050 -11.414 -794.932 -1139.857 -3479.983 -0.932 -0.019 0.674 -0.08 0.57 -0.82 0.06
1 6.65 665 1.604 -9.204 2.524 10.712 -3.479 -8.850 -794.932 -1139.857 -3479.983 -1.059 0.019 0.850 -0.08 0.57 -0.82 0.06
1 6.66 666 1.920 -9.012 2.509 9.766 1.495 -5.035 -794.932 -1019.936 -3584.915 -1.354 -0.167 0.875 -0.08 0.57 -0.82 0.06
1 6.67 667 1.868 -9.070 2.672 10.620 4.181 -1.801 -794.932 -1019.936 -3584.915 -1.283 -0.105 0.722 -0.08 0.57 -0.82 0.06
1 6.68 668 1.839 -9.055 2.509 11.963 10.071 5.615 -839.903 -1019.936 -3404.882 -1.237 -0.110 0.907 -0.08 0.57 -0.82 0.06
1 6.69 669 1.896 -8.878 2.380 12.939 13.428 8.179 -839.903 -1019.936 -3404.882 -1.299 -0.283 1.050 -0.08 0.56 -0.82 0.06
1 6.70 670 1.700 -8.682 2.629 12.421 20.172 15.778 -929.994 -1049.916 -3494.973 -1.117 -0.474 0.816 -0.08 0.56 -0.82 0.06
1 6.71 671 1.815 -8.437 2.471 10.223 23.529 19.531 -734.971 -1169.988 -3584.915 -1.257 -0.714 0.989 -0.08 0.56 -0.82 0.06
1 6.72 672 2.112 -8.308 2.313 9.247 28.473 22.980 -734.971 -1169.988 -3584.915 -1.584 -0.841 1.159 -0.07 0.56 -0.82 0.06
1 6.73 673 2.112 -8.093 2.303 6.683 37.415 27.893 -794.932 -1064.906 -3404.882 -1.621 -1.055 1.179 -0.07 0.56 -0.82 0.06
1 6.74 674 2.150 -7.882 2.169 2.960 45.258 30.640 -794.932 -1064.906 -3404.882 -1.715 -1.263 1.326 -0.07 0.56 -0.82 0.06
1 6.75 675 1.949 -7.935 1.935 -2.472 50.598 32.532 -734.971 -1169.988 -3584.915 -1.579 -1.210 1.570 -0.06 0.56 -0.82 0.06
1 6.76 676 1.590 -7.983 2.026 -7.660 54.840 35.278 -509.968 -1214.958 -3404.882 -1.366 -1.168 1.476 -0.06 0.56 -0.82 0.06
1 6.77 677 1.480 -8.112 2.346 -11.047 54.871 35.980 -524.958 -1124.867 -3389.892 -1.334 -1.043 1.146 -0.05 0.57 -0.82 0.06
1 6.78 678 1.288 -8.385 3.137 -17.273 54.321 34.790 -599.909 -929.994 -3464.993 -1.221 -0.777 0.341 -0.05 0.57 -0.82 0.06
1 6.79 679 0.948 -8.897 4.109 -27.191 52.612 30.914 -599.909 -929.994 -3464.993 -0.952 -0.275 -0.658 -0.04 0.57 -0.82 0.06
1 6.80 680 -0.527 -10.286 4.166 -38.635 48.767 18.219 -434.867 -1169.988 -3584.915 0.464 1.100 -0.752 -0.04 0.57 -0.82 0.06
1 6.81 681 -1.599 -11.234 4.281 -40.924 43.427 7.507 -434.867 -1169.988 -3584.915 1.486 2.031 -0.915 -0.03 0.57 -0.82 0.06
1 6.82 682 -2.528 -11.957 3.836 -38.727 37.781 -1.648 -389.896 -1094.887 -3479.983 2.379 2.734 -0.526 -0.03 0.57 -0.82 0.06
1 6.83 683 -2.088 -11.502 2.643 -7.050 29.724 2.380 -299.955 -959.975 -3419.872 1.907 2.247 0.574 -0.03 0.58 -0.81 0.05
1 6.84 684 -0.891 -10.607 2.404 12.451 29.022 12.329 -359.916 -944.984 -3404.882 0.690 1.351 0.811 -0.02 0.58 -0.81 0.05
1 6.85 685 0.460 -9.620 2.835 13.580 32.349 17.975 -359.916 -944.984 -3404.882 -0.694 0.372 0.400 -0.02 0.58 -0.81 0.05
1 6.86 686 1.322 -9.357 3.457 3.357 36.408 16.205 -359.916 -944.984 -3404.882 -1.594 0.114 -0.212 -0.02 0.58 -0.81 0.05
1 6.87 687 1.963 -9.534 3.644 -4.730 36.408 6.256 -194.873 -854.893 -3599.905 -2.262 0.292 -0.398 -0.02 0.58 -0.81 0.05
1 6.88 688 1.599 -9.496 3.960 -0.122 32.898 -15.259 -194.873 -854.893 -3599.905 -1.903 0.252 -0.719 -0.01 0.58 -0.81 0.05
1 6.89 689 0.814 -9.386 3.898 5.280 31.372 -26.795 -269.974 -1004.945 -3389.892 -1.101 0.142 -0.656 -0.01 0.58 -0.81 0.04
1 6.90 690 -0.579 -9.390 3.812 1.526 26.856 -29.450 -194.873 -1154.998 -3239.989 0.362 0.152 -0.549 -0.01 0.58 -0.82 0.04
1 6.91 691 -1.082 -9.386 3.836 -2.075 25.391 -27.802 -89.941 -1004.945 -3359.911 0.891 0.148 -0.570 -0.01 0.58 -0.82 0.03
1 6.92 692 -1.494 -9.620 3.773 -7.080 22.278 -22.980 -59.961 -1019.936 -3479.983 1.322 0.380 -0.512 -0.01 0.58 -0.82 0.03
1 6.93 693 -1.480 -9.759 3.749 -2.655 22.125 -20.111 -59.961 -1019.936 -3479.983 1.320 0.517 -0.495 -0.01 0.58 -0.82 0.03
1 6.94 694 -1.355 -9.630 3.850 4.364 21.454 -17.914 -59.961 -944.984 -3479.983 1.203 0.388 -0.593 -0.01 0.58 -0.82 0.03
1 6.95 695 -0.886 -9.314 3.836 12.787 23.193 -14.893 -59.961 -944.984 -3479.983 0.739 0.076 -0.568 -0.01 0.58 -0.82 0.02
1 6.96 696 -0.761 -8.844 3.874 12.817 23.773 -12.482 -269.974 -1049.916 -3419.872 0.617 -0.386 -0.586 -0.01 0.58 -0.82 0.02
1 6.97 697 -0.517 -8.825 3.975 10.681 22.797 -11.688 -89.941 -1049.916 -3464.993 0.374 -0.398 -0.664 -0.01 0.58 -0.82 0.02
1 6.98 698 -0.297 -8.629 3.840 5.524 22.461 -11.871 -119.922 -1049.916 -3494.973 0.158 -0.580 -0.492 -0 0.57 -0.82 0.02
1 6.99 699 -0.402 -8.686 3.898 -0.153 22.095 -11.871 -119.922 -959.975 -3314.940 0.269 -0.519 -0.539 -0 0.57 -0.82 0.01
1 7.00 700 -0.306 -8.744 3.931 -5.432 22.369 -11.078 -119.922 -959.975 -3314.940 0.178 -0.460 -0.569 -0 0.57 -0.82 0.01
1 7.01 701 -0.345 -8.830 4.156 -11.841 23.346 -9.766 -134.912 -944.984 -3329.931 0.219 -0.376 -0.798 -0 0.57 -0.82 0.01
1 7.02 702 -0.651 -9.252 4.109 -16.480 24.963 -8.972 -134.912 -944.984 -3329.931 0.527 0.041 -0.762 0 0.57 -0.82 0.01
1 7.03 703 -0.737 -9.735 4.085 -15.472 26.672 -7.721 -254.984 -1169.988 -3449.853 0.611 0.518 -0.757 0 0.57 -0.82 0.01
1 7.04 704 -0.704 -9.778 4.113 -11.322 27.008 -7.599 -119.922 -1049.916 -3539.944 0.572 0.555 -0.803 0 0.58 -0.82 0.01
1 7.05 705 -0.934 -9.769 3.984 -9.247 29.205 -5.890 -29.980 -944.984 -3374.901 0.788 0.538 -0.697 0.01 0.58 -0.82 0
1 7.06 706 -0.833 -9.682 4.042 -8.087 30.121 -5.768 -89.941 -884.874 -3314.940 0.676 0.448 -0.763 0.01 0.58 -0.82 0
1 7.07 707 -0.929 -9.524 3.888 -5.341 32.135 -5.035 -89.941 -884.874 -3314.940 0.760 0.288 -0.616 0.01 0.58 -0.82 0
1 7.08 708 -0.843 -9.304 3.577 -4.608 32.898 -5.463 44.971 -809.922 -3359.911 0.661 0.067 -0.309 -0.01 -0.58 0.82 0
1 7.09 709 -0.814 -9.117 3.510 -5.676 32.684 -6.195 44.971 -809.922 -3359.911 0.620 -0.121 -0.247 -0.01 -0.58 0.82 0
1 7.10 710 -0.986 -9.127 3.352 -11.353 30.487 -7.172 89.941 -959.975 -3419.872 0.781 -0.114 -0.096 -0.02 -0.58 0.82 0
1 7.11 711 -1.188 -9.237 3.074 -15.289 28.717 -8.911 -104.932 -1019.936 -3299.950 0.972 -0.008 0.169 -0.02 -0.58 0.82 0.01
1 7.12 712 -1.417 -9.544 2.955 -16.113 27.557 -11.047 -89.941 -884.874 -3359.911 1.187 0.283 0.244 -0.02 -0.58 0.81 0.01
1 7.13 713 -1.465 -9.592 2.902 -15.533 27.069 -10.956 -59.961 -989.955 -3374.901 1.230 0.323 0.273 -0.02 -0.58 0.81 0.01
1 7.14 714 -1.484 -9.654 2.859 -13.001 26.581 -10.742 -59.961 -989.955 -3374.901 1.244 0.377 0.292 -0.02 -0.58 0.81 0.01
1 7.15 715 -1.513 -9.678 2.820 -10.803 25.910 -10.132 44.971 -884.874 -3359.911 1.266 0.395 0.310 -0.03 -0.58 0.81 0.01
1 7.16 716 -1.465 -9.577 2.911 -8.881 25.147 -9.033 44.971 -884.874 -3359.911 1.212 0.288 0.202 -0.03 -0.58 0.81 0.01
1 7.17 717 -1.499 -9.323 2.902 -7.996 23.712 -6.805 -104.932 -914.854 -3194.869 1.237 0.030 0.197 -0.03 -0.58 0.81 0.02
1 7.18 718 -1.417 -9.228 3.046 -6.958 21.973 -5.585 -44.971 -1004.945 -3209.859 1.146 -0.070 0.040 -0.03 -0.58 0.81 0.02
1 7.19 719 -1.484 -9.070 3.089 -5.737 20.599 -4.608 -44.971 -1004.945 -3209.859 1.201 -0.232 -0.015 -0.03 -0.59 0.81 0.02
1 7.20 720 -1.441 -8.912 3.098 -4.944 17.944 -2.594 119.922 -884.874 -3359.911 1.136 -0.394 -0.040 -0.03 -0.59 0.81 0.02
1 7.21 721 -1.494 -8.859 3.026 -5.096 16.083 -1.770 119.922 -884.874 -3359.911 1.176 -0.448 0.026 -0.03 -0.59 0.81 0.02
1 7.22 722 -1.556 -8.653 2.940 -4.822 14.648 -0.641 89.941 -809.922 -3104.927 1.225 -0.655 0.107 -0.04 -0.59 0.81 0.02
1 7.23 723 -1.609 -8.557 2.892 -5.249 12.299 -0.305 89.941 -809.922 -3104.927 1.264 -0.753 0.149 -0.04 -0.59 0.81 0.02
1 7.24 724 -1.513 -8.457 2.974 -6.805 9.857 0.671 44.971 -809.922 -3209.859 1.155 -0.855 0.060 -0.04 -0.59 0.81 0.02
1 7.25 725 -1.628 -8.390 2.926 -8.881 7.263 1.404 179.883 -749.961 -3374.901 1.256 -0.924 0.100 -0.04 -0.59 0.81 0.02
1 7.26 726 -1.590 -8.686 2.935 -10.620 3.693 1.648 179.883 -749.961 -3374.901 1.204 -0.630 0.080 -0.04 -0.59 0.81 0.02
1 7.27 727 -1.767 -8.907 3.074 -13.336 -0.702 0.549 44.971 -854.893 -3284.960 1.358 -0.418 -0.087 -0.04 -0.59 0.81 0.02
1 7.28 728 -1.671 -8.945 3.160 -12.543 -3.845 0.580 44.971 -854.893 -3284.960 1.253 -0.384 -0.189 -0.04 -0.59 0.81 0.02
1 7.29 729 -1.657 -9.084 3.280 -10.254 -6.134 0.000 -14.990 -1049.916 -3284.960 1.232 -0.250 -0.323 -0.04 -0.59 0.81 0.02
1 7.30 730 -1.652 -9.036 3.122 -6.744 -8.759 0.519 -14.990 -1049.916 -3284.960 1.222 -0.300 -0.175 -0.04 -0.59 0.81 0.02
1 7.31 731 -1.551 -8.883 3.146 -4.486 -11.139 1.251 89.941 -809.922 -3209.859 1.116 -0.455 -0.204 -0.04 -0.59 0.81 0.02
1 7.32 732 -1.168 -8.385 3.046 -8.179 -12.024 1.678 59.961 -989.955 -3299.950 0.727 -0.954 -0.106 -0.04 -0.59 0.81 0.02
1 7.33 733 -0.828 -8.303 2.859 -15.808 -11.383 2.014 59.961 -989.955 -3299.950 0.385 -1.037 0.074 -0.04 -0.59 0.81 0.01
1 7.34 734 -0.900 -8.921 2.768 -27.100 -11.078 1.587 89.941 -959.975 -3314.940 0.456 -0.433 0.120 -0.04 -0.59 0.8 0.01
1 7.35 735 -0.857 -9.132 2.878 -28.534 -12.238 0.977 89.941 -959.975 -3314.940 0.414 -0.234 -0.027 -0.04 -0.59 0.8 0.01
1 7.36 736 -1.073 -9.706 2.653 -28.748 -17.456 0.763 224.854 -809.922 -3134.908 0.632 0.328 0.157 -0.04 -0.6 0.8 0.01
1 7.37 737 -0.963 -9.778 2.787 -24.292 -20.508 0.549 224.854 -809.922 -3134.908 0.525 0.388 -0.016 -0.04 -0.6 0.8 0.01
1 7.38 738 -0.804 -9.410 2.629 -21.301 -22.064 -0.244 134.912 -719.981 -3074.947 0.372 0.010 0.110 -0.03 -0.6 0.8 0.01
1 7.39 739 -0.804 -9.386 2.548 -19.592 -22.766 -1.862 89.941 -779.942 -3164.888 0.380 -0.022 0.163 -0.03 -0.6 0.8 0.01
1 7.40 740 -0.828 -9.170 2.495 -19.348 -23.834 -2.258 89.941 -779.942 -3164.888 0.413 -0.246 0.189 -0.03 -0.6 0.8 0.01
1 7.41 741 -0.910 -9.189 2.619 -18.921 -23.712 -3.204 134.912 -719.981 -3194.869 0.506 -0.235 0.039 -0.03 -0.6 0.8 0.01
1 7.42 742 -0.915 -9.204 2.571 -18.890 -25.665 -4.181 179.883 -794.932 -3119.917 0.535 -0.235 0.037 -0.03 -0.61 0.8 0
1 7.43 743 -0.958 -9.204 2.706 -20.294 -28.046 -3.784 44.971 -659.870 -3164.888 0.592 -0.242 -0.122 -0.03 -0.61 0.79 0
1 7.44 744 -0.747 -9.323 2.480 -22.034 -27.954 -3.723 44.971 -659.870 -3164.888 0.395 -0.131 0.077 -0.02 -0.61 0.79 0
1 7.45 745 -0.733 -9.433 2.480 -23.499 -28.595 -3.357 104.932 -719.981 -3119.917 0.394 -0.029 0.046 -0.02 -0.61 0.79 0
1 7.46 746 -0.632 -9.702 2.361 -24.048 -27.588 -3.113 -14.990 -779.942 -3164.888 0.307 0.230 0.134 0.02 0.61 -0.79 0
1 7.47 747 -0.412 -10.113 2.164 -22.308 -26.978 -2.258 -14.990 -779.942 -3164.888 0.101 0.633 0.297 0.02 0.61 -0.79 0
1 7.48 748 -0.412 -10.046 2.093 -20.172 -26.093 -2.625 -104.932 -644.880 -3119.917 0.115 0.557 0.336 0.02 0.61 -0.79 0
1 7.49 749 -0.441 -10.209 2.002 -15.167 -25.147 -2.411 0.000 -749.961 -3074.947 0.171 0.704 0.369 0.01 0.62 -0.79 0
1 7.50 750 -0.632 -10.233 2.064 -12.634 -23.254 -1.007 -89.941 -509.968 -3104.927 0.374 0.722 0.284 0.01 0.62 -0.79 0.01
1 7.51 751 -0.704 -10.152 1.997 -9.644 -22.858 -0.244 -89.941 -509.968 -3104.927 0.453 0.636 0.332 0.01 0.62 -0.79 0.01
1 7.52 752 -0.680 -9.989 1.930 -7.141 -22.492 0.549 -59.961 -719.981 -2969.865 0.436 0.469 0.384 0.01 0.62 -0.79 0.01
1 7.53 753 -0.584 -9.951 1.887 -4.364 -21.668 -0.397 -164.893 -779.942 -2984.855 0.345 0.428 0.416 0.01 0.62 -0.79 0.01
1 7.54 754 -0.436 -9.994 1.968 -3.265 -20.447 -3.479 -164.893 -779.942 -2984.855 0.204 0.469 0.327 0.01 0.62 -0.79 0.01
1 7.55 755 -0.455 -10.066 1.978 -2.991 -20.813 -4.334 -89.941 -734.971 -3104.927 0.235 0.539 0.311 0.01 0.62 -0.79 0.01
1 7.56 756 -0.637 -10.166 2.045 -1.343 -23.132 -5.249 -119.922 -734.971 -2984.855 0.442 0.637 0.234 0 0.62 -0.78 0.01
1 7.57 757 -0.613 -10.185 1.997 -0.702 -23.438 -6.073 -254.984 -599.909 -3119.917 0.432 0.655 0.279 0 0.62 -0.78 0.01
1 7.58 758 -0.579 -10.276 2.011 3.662 -24.414 -7.019 -254.984 -599.909 -3119.917 0.415 0.746 0.266 -0 0.62 -0.78 0.01
1 7.59 759 -0.488 -10.209 2.097 6.104 -23.529 -6.531 -209.863 -794.932 -3074.947 0.341 0.680 0.185 -0 0.62 -0.78 0.02
1 7.60 760 -0.536 -10.142 2.404 7.477 -21.668 -5.005 -179.883 -569.929 -3074.947 0.404 0.615 -0.113 -0 0.62 -0.79 0.02
1 7.61 761 -0.527 -10.267 2.605 4.486 -20.966 -1.587 -179.883 -569.929 -3074.947 0.407 0.742 -0.303 -0.01 0.62 -0.79 0.02
1 7.62 762 -0.479 -10.329 2.514 3.967 -21.973 0.092 -224.854 -659.870 -3029.976 0.369 0.806 -0.204 -0.01 0.62 -0.79 0.02
1 7.63 763 -0.311 -10.238 2.490 4.547 -21.271 1.160 -194.873 -629.890 -3059.957 0.207 0.717 -0.172 -0.01 0.62 -0.79 0.02
1 7.64 764 -0.508 -10.147 2.524 6.714 -20.020 3.204 -209.863 -599.909 -3149.898 0.413 0.630 -0.187 -0.01 0.62 -0.79 0.02
1 7.65 765 -0.737 -10.094 2.595 7.233 -21.179 5.493 -209.863 -599.909 -3149.898 0.643 0.580 -0.248 -0.01 0.62 -0.79 0.02
1 7.66 766 -1.044 -10.085 2.595 6.958 -22.461 6.958 -254.984 -794.932 -3044.966 0.945 0.573 -0.236 -0.01 0.62 -0.79 0.02
1 7.67 767 -1.030 -10.166 2.720 6.958 -25.177 8.484 -299.955 -854.893 -3164.888 0.923 0.658 -0.348 -0.01 0.62 -0.79 0.03
1 7.68 768 -0.766 -10.104 2.820 11.078 -25.604 9.705 -299.955 -854.893 -3164.888 0.650 0.599 -0.435 -0.01 0.61 -0.79 0.03
1 7.69 769 -0.924 -10.018 3.089 13.550 -24.902 10.803 -389.896 -674.860 -3074.947 0.798 0.518 -0.684 -0.02 0.61 -0.79 0.03
1 7.70 770 -0.895 -9.773 3.237 13.611 -23.865 11.993 -284.964 -644.880 -3074.947 0.759 0.280 -0.809 -0.02 0.61 -0.79 0.03
1 7.71 771 -0.699 -9.433 3.170 10.376 -20.386 11.871 -359.916 -749.961 -3194.869 0.536 -0.047 -0.692 -0.02 0.61 -0.79 0.04
1 7.72 772 -0.575 -9.414 3.357 8.606 -16.663 12.177 -359.916 -749.961 -3194.869 0.398 -0.060 -0.858 -0.02 0.61 -0.79 0.04
1 7.73 773 -0.613 -9.347 3.285 5.981 -11.383 13.458 -344.925 -809.922 -3134.908 0.423 -0.122 -0.766 -0.02 0.61 -0.79 0.04
1 7.74 774 -0.613 -9.486 3.160 0.732 -7.935 15.778 -344.925 -704.991 -3134.908 0.404 0.021 -0.628 -0.02 0.61 -0.79 0.04
1 7.75 775 -0.666 -9.711 2.902 -3.479 -7.568 16.266 -344.925 -704.991 -3134.908 0.435 0.248 -0.364 -0.02 0.61 -0.79 0.04
1 7.76 776 -0.680 -10.008 2.500 -5.615 -10.651 20.111 -374.906 -734.971 -3164.888 0.427 0.545 0.036 -0.02 0.61 -0.79 0.04
1 7.77 777 -0.747 -10.022 2.533 -7.080 -14.252 22.553 -434.867 -719.981 -3194.869 0.468 0.559 -0.003 -0.02 0.61 -0.79 0.05
1 7.78 778 -0.790 -9.922 2.370 -9.705 -15.228 25.543 -419.876 -809.922 -3134.908 0.451 0.455 0.139 -0.02 0.61 -0.79 0.05
1 7.79 779 -0.867 -9.989 2.289 -9.766 -16.235 26.398 -419.876 -809.922 -3134.908 0.493 0.519 0.206 -0.02 0.61 -0.79 0.05
1 7.80 780 -0.766 -10.109 2.404 -6.439 -15.595 25.299 -284.964 -794.932 -3194.869 0.359 0.637 0.077 -0.02 0.61 -0.79 0.05
1 7.81 781 -0.579 -10.262 2.562 -2.106 -12.543 23.407 -194.873 -734.971 -3134.908 0.141 0.789 -0.089 -0.02 0.61 -0.79 0.06
1 7.82 782 -0.603 -10.339 2.567 3.479 -9.644 21.027 -194.873 -734.971 -3134.908 0.136 0.867 -0.094 -0.02 0.61 -0.79 0.06
1 7.83 783 -0.670 -10.032 2.615 11.536 -10.315 17.059 -344.925 -659.870 -3164.888 0.178 0.564 -0.135 -0.01 0.61 -0.79 0.06
1 7.84 784 -0.378 -9.783 2.576 13.275 -11.719 15.045 -374.906 -704.991 -3209.859 -0.136 0.320 -0.081 -0.01 0.61 -0.79 0.06
1 7.85 785 -0.230 -9.501 2.543 12.482 -10.895 14.160 -374.906 -704.991 -3209.859 -0.301 0.044 -0.027 -0.01 0.61 -0.79 0.06
1 7.86 786 -0.187 -9.635 2.514 9.399 -10.193 13.550 -374.906 -779.942 -3029.976 -0.371 0.190 0.040 -0.01 0.61 -0.79 0.07
1 7.87 787 0.000 -9.735 2.557 8.392 -11.475 12.604 -464.997 -644.880 -3119.917 -0.569 0.295 0.011 -0.01 0.61 -0.79 0.07
1 7.88 788 0.043 -9.836 2.706 8.606 -12.817 12.085 -359.916 -794.932 -2969.865 -0.621 0.400 -0.123 -0.01 0.61 -0.79 0.07
1 7.89 789 -0.067 -10.042 2.868 8.698 -13.428 12.207 -359.916 -794.932 -2969.865 -0.517 0.610 -0.272 -0.01 0.61 -0.79 0.07
1 7.90 790 0.206 -10.123 3.046 5.768 -13.947 11.566 -194.873 -809.922 -3029.976 -0.797 0.696 -0.434 -0.02 0.61 -0.79 0.07
1 7.91 791 0.426 -10.310 3.204 3.876 -14.374 10.742 -329.935 -839.903 -3299.950 -1.021 0.886 -0.580 -0.02 0.6 -0.79 0.07
1 7.92 792 0.498 -10.506 3.314 5.981 -13.031 7.996 -329.935 -839.903 -3299.950 -1.095 1.086 -0.680 -0.02 0.6 -0.79 0.07
1 7.93 793 0.412 -10.362 3.208 15.717 -10.437 4.181 -464.997 -869.883 -3224.999 -1.018 0.950 -0.547 -0.02 0.6 -0.79 0.07
1 7.94 794 0.503 -9.984 3.371 19.745 -8.179 -0.732 -329.935 -749.961 -3119.917 -1.108 0.579 -0.684 -0.02 0.6 -0.79 0.07
1 7.95 795 0.254 -9.845 3.381 18.646 -6.958 -6.592 -389.896 -944.984 -3194.869 -0.848 0.449 -0.662 -0.02 0.6 -0.8 0.07
1 7.96 796 0.101 -9.735 3.184 18.372 -5.859 -11.047 -389.896 -944.984 -3194.869 -0.672 0.346 -0.434 -0.02 0.6 -0.8 0.07
1 7.97 797 -0.096 -9.663 3.002 20.172 -7.202 -14.771 -344.925 -929.994 -3104.927 -0.449 0.282 -0.222 -0.02 0.6 -0.8 0.07
1 7.98 798 -0.081 -9.438 3.170 22.644 -9.186 -20.508 -419.876 -809.922 -3284.960 -0.434 0.065 -0.357 -0.02 0.6 -0.8 0.07
1 7.99 799 -0.206 -9.213 3.074 23.224 -11.627 -22.644 -419.876 -809.922 -3284.960 -0.273 -0.151 -0.226 -0.02 0.6 -0.8 0.07
1 8.00 800 -0.072 -8.916 3.285 22.034 -16.113 -24.262 -449.857 -959.975 -3359.911 -0.324 -0.429 -0.362 -0.03 0.59 -0.8 0.07
1 8.01 801 -0.072 -9.003 3.232 20.111 -18.768 -25.116 -344.925 -929.994 -3209.859 -0.278 -0.333 -0.273 -0.03 0.59 -0.8 0.07
1 8.02 802 0.005 -8.873 3.462 17.792 -20.599 -24.109 -464.997 -989.955 -3119.917 -0.308 -0.454 -0.470 -0.03 0.59 -0.81 0.07
1 8.03 803 0.057 -8.868 3.371 15.869 -20.752 -22.492 -464.997 -989.955 -3119.917 -0.314 -0.450 -0.348 -0.03 0.59 -0.81 0.07
1 8.04 804 0.249 -8.730 3.362 13.245 -21.790 -19.684 -464.997 -944.984 -3224.999 -0.462 -0.581 -0.312 -0.03 0.59 -0.81 0.07
1 8.05 805 0.259 -8.830 3.299 9.705 -24.109 -15.625 -614.899 -944.984 -3374.901 -0.430 -0.474 -0.227 -0.04 0.58 -0.81 0.06
1 8.06 806 0.441 -8.940 3.074 8.514 -25.513 -13.397 -614.899 -944.984 -3374.901 -0.574 -0.359 0.017 -0.04 0.58 -0.81 0.06
1 8.07 807 0.646 -8.864 3.022 8.514 -24.933 -11.475 -509.968 -989.955 -3299.950 -0.744 -0.430 0.085 -0.04 0.58 -0.81 0.06
1 8.08 808 0.991 -8.926 3.084 6.805 -23.102 -9.796 -449.857 -1049.916 -3359.911 -1.020 -0.360 0.049 -0.04 0.58 -0.81 0.07
1 8.09 809 1.202 -8.988 3.026 7.263 -22.156 -8.881 -539.948 -989.955 -3194.869 -1.198 -0.294 0.118 -0.05 0.58 -0.81 0.07
1 8.10 810 1.336 -8.916 3.127 7.080 -21.149 -8.942 -539.948 -989.955 -3194.869 -1.299 -0.362 0.028 -0.05 0.58 -0.81 0.07
1 8.11 811 1.446 -9.031 3.170 6.744 -19.379 -9.247 -539.948 -869.883 -3329.931 -1.375 -0.243 -0.004 -0.05 0.58 -0.81 0.07
1 8.12 812 1.528 -9.046 3.137 6.653 -17.700 -9.827 -674.860 -1004.945 -3284.960 -1.424 -0.225 0.040 -0.05 0.58 -0.81 0.07
1 8.13 813 1.877 -8.921 3.295 8.087 -15.167 -9.979 -674.860 -1004.945 -3284.960 -1.739 -0.345 -0.108 -0.05 0.58 -0.81 0.06
1 8.14 814 1.796 -8.811 3.481 8.514 -13.306 -11.658 -584.919 -1094.887 -3299.950 -1.624 -0.451 -0.282 -0.06 0.58 -0.81 0.06
1 8.15 815 1.748 -8.658 3.515 4.883 -11.597 -14.282 -599.909 -959.975 -3209.859 -1.504 -0.593 -0.288 -0.06 0.58 -0.81 0.06
1 8.16 816 1.700 -8.959 3.280 2.380 -11.139 -17.548 -690.000 -1094.887 -3374.901 -1.416 -0.287 -0.044 -0.06 0.58 -0.81 0.06
1 8.17 817 1.705 -8.998 3.218 2.258 -11.993 -20.264 -690.000 -1094.887 -3374.901 -1.377 -0.245 0.023 -0.06 0.57 -0.81 0.06
1 8.18 818 1.523 -9.050 3.314 2.716 -11.841 -20.447 -674.860 -929.994 -3284.960 -1.150 -0.189 -0.069 -0.07 0.57 -0.81 0.06
1 8.19 819 1.374 -9.151 3.390 3.754 -12.665 -20.599 -704.991 -1079.896 -3314.940 -0.957 -0.085 -0.140 -0.07 0.57 -0.81 0.06
1 8.20 820 1.456 -9.050 3.160 7.446 -13.977 -20.050 -704.991 -1079.896 -3314.940 -0.993 -0.181 0.097 -0.07 0.57 -0.81 0.06
1 8.21 821 1.374 -8.916 3.261 8.087 -13.825 -18.158 -704.991 -1004.945 -3359.911 -0.869 -0.309 0.006 -0.07 0.57 -0.81 0.06
1 8.22 822 1.652 -8.979 3.160 4.456 -12.390 -15.961 -779.942 -1154.998 -3389.892 -1.067 -0.235 0.128 -0.08 0.57 -0.82 0.06
1 8.23 823 1.571 -8.969 2.998 2.319 -11.475 -13.947 -899.864 -1124.867 -3314.940 -0.949 -0.240 0.296 -0.08 0.57 -0.82 0.06
1 8.24 824 1.762 -9.012 3.055 2.258 -9.247 -12.634 -899.864 -1124.867 -3314.940 -1.107 -0.194 0.240 -0.08 0.57 -0.82 0.06
1 8.25 825 1.949 -9.050 3.127 2.411 -7.660 -10.651 -824.913 -1079.896 -3359.911 -1.263 -0.153 0.170 -0.08 0.57 -0.82 0.06
1 8.26 826 1.839 -9.074 3.184 2.350 -7.141 -10.376 -824.913 -1004.945 -3239.989 -1.123 -0.126 0.115 -0.08 0.57 -0.82 0.05
1 8.27 827 2.030 -8.912 3.050 1.923 -5.188 -11.322 -824.913 -1004.945 -3239.989 -1.287 -0.285 0.252 -0.08 0.57 -0.82 0.05
1 8.28 828 2.035 -8.940 2.926 0.793 -5.402 -12.543 -839.903 -1019.936 -3329.931 -1.263 -0.253 0.379 -0.09 0.57 -0.82 0.05
1 8.29 829 2.030 -9.127 2.758 -0.397 -4.395 -14.496 -839.903 -1019.936 -3329.931 -1.228 -0.064 0.546 -0.09 0.57 -0.82 0.05
1 8.30 830 1.959 -9.366 2.682 2.899 0.885 -10.407 -869.883 -989.955 -3254.979 -1.093 0.179 0.618 -0.09 0.57 -0.82 0.05
1 8.31 831 2.045 -9.405 2.639 5.310 4.517 -4.883 -869.883 -989.955 -3254.979 -1.158 0.220 0.662 -0.09 0.57 -0.82 0.05
1 8.32 832 1.987 -9.218 2.672 7.202 8.484 -0.580 -929.994 -1004.945 -3359.911 -1.089 0.036 0.634 -0.09 0.57 -0.82 0.05
1 8.33 833 1.920 -9.103 2.653 9.918 12.787 4.456 -929.994 -1004.945 -3389.892 -1.018 -0.075 0.662 -0.09 0.57 -0.82 0.05
1 8.34 834 2.021 -8.873 2.586 9.583 18.890 11.047 -929.994 -1004.945 -3389.892 -1.125 -0.301 0.741 -0.09 0.57 -0.82 0.05
1 8.35 835 2.160 -8.639 2.442 8.026 22.247 14.404 -824.913 -1049.916 -3314.940 -1.278 -0.532 0.899 -0.09 0.57 -0.82 0.05
1 8.36 836 1.877 -8.639 2.418 6.836 25.574 18.066 -824.913 -1049.916 -3314.940 -1.015 -0.530 0.934 -0.09 0.57 -0.82 0.05
1 8.37 837 1.906 -8.351 2.337 3.235 31.098 20.905 -794.932 -944.984 -3374.901 -1.101 -0.816 1.032 -0.08 0.57 -0.82 0.05
1 8.38 838 1.767 -8.581 2.461 0.427 31.799 22.705 -794.932 -944.984 -3374.901 -0.998 -0.588 0.911 -0.08 0.57 -0.82 0.05
1 8.39 839 1.681 -8.677 2.543 -2.441 32.318 23.285 -764.952 -1139.857 -3479.983 -0.951 -0.496 0.829 -0.08 0.57 -0.82 0.05
1 8.40 840 1.484 -8.959 2.466 -4.089 34.119 22.492 -704.991 -1154.998 -3389.892 -0.795 -0.218 0.901 -0.08 0.57 -0.82 0.05
1 8.41 841 1.499 -8.935 2.322 -4.547 35.614 22.797 -704.991 -1154.998 -3389.892 -0.852 -0.248 1.037 -0.07 0.57 -0.82 0.05
1 8.42 842 1.221 -8.993 2.279 -4.944 38.147 24.750 -704.991 -1229.949 -3284.960 -0.617 -0.196 1.072 -0.07 0.57 -0.82 0.05
1 8.43 843 1.006 -9.117 2.227 -5.920 38.941 26.947 -704.991 -1229.949 -3284.960 -0.449 -0.078 1.116 -0.07 0.57 -0.82 0.05
1 8.44 844 0.919 -9.141 2.006 -9.125 41.626 28.961 -690.000 -1139.857 -3374.901 -0.468 -0.069 1.311 -0.06 0.57 -0.82 0.05
1 8.45 845 1.010 -9.347 2.040 -10.254 44.403 29.663 -690.000 -1139.857 -3374.901 -0.617 0.128 1.260 -0.06 0.57 -0.82 0.05
1 8.46 846 1.082 -9.481 2.361 -11.108 47.882 30.487 -584.919 -1064.906 -3329.931 -0.748 0.253 0.920 -0.05 0.57 -0.82 0.05
1 8.47 847 0.828 -9.505 2.820 -14.343 50.842 29.144 -464.997 -1064.906 -3449.853 -0.554 0.268 0.440 -0.05 0.58 -0.81 0.05
1 8.48 848 0.551 -9.960 3.002 -20.630 50.659 26.520 -464.997 -1064.906 -3449.853 -0.336 0.712 0.234 -0.05 0.58 -0.81 0.05
1 8.49 849 0.005 -10.865 3.304 -21.698 47.119 16.205 -419.876 -1124.867 -3314.940 0.154 1.605 -0.099 -0.04 0.58 -0.81 0.04
1 8.50 850 -0.101 -10.985 3.596 -19.043 42.481 7.751 -419.876 -1124.867 -3314.940 0.212 1.714 -0.423 -0.04 0.58 -0.81 0.04
1 8.51 851 -0.283 -11.023 3.333 -15.442 36.469 -0.641 -464.997 -1139.857 -3299.950 0.359 1.743 -0.186 -0.03 0.58 -0.81 0.04
1 8.52 852 -0.517 -10.525 2.964 -1.831 31.036 -8.331 -389.896 -989.955 -3374.901 0.566 1.233 0.149 -0.03 0.58 -0.81 0.04
1 8.53 853 -0.441 -9.979 2.677 3.693 29.663 -8.240 -374.906 -1154.998 -3209.859 0.488 0.687 0.437 -0.03 0.58 -0.81 0.04
1 8.54 854 -0.129 -9.711 2.998 6.409 32.440 -6.042 -359.916 -1169.988 -3299.950 0.171 0.420 0.120 -0.03 0.58 -0.81 0.03
1 8.55 855 0.077 -9.386 3.362 4.852 34.058 -5.066 -359.916 -1169.988 -3299.950 -0.043 0.097 -0.237 -0.03 0.58 -0.81 0.03
1 8.56 856 0.129 -9.405 3.548 2.655 31.921 -9.735 -509.968 -914.854 -3299.950 -0.103 0.119 -0.415 -0.02 0.58 -0.81 0.03
1 8.57 857 0.096 -9.515 3.735 5.310 28.473 -16.205 -509.968 -914.854 -3299.950 -0.072 0.232 -0.594 -0.02 0.58 -0.81 0.03
1 8.58 858 -0.192 -9.132 3.721 8.820 25.787 -20.935 -179.883 -944.984 -3374.901 0.224 -0.148 -0.569 -0.02 0.58 -0.81 0.03
1 8.59 859 -0.627 -8.686 3.826 7.935 20.477 -23.621 -374.906 -1004.945 -3239.989 0.696 -0.580 -0.639 -0.02 0.58 -0.81 0.02
1 8.60 860 -0.646 -8.461 3.951 2.075 16.998 -22.949 -254.984 -989.955 -3254.979 0.736 -0.800 -0.747 -0.02 0.58 -0.81 0.02
1 8.61 861 -0.603 -8.485 3.965 -3.601 14.710 -21.423 -374.906 -1004.945 -3209.859 0.713 -0.773 -0.753 -0.02 0.58 -0.81 0.02
1 8.62 862 -0.522 -8.969 3.965 -6.378 13.825 -19.898 -374.906 -1004.945 -3209.859 0.649 -0.288 -0.751 -0.02 0.58 -0.81 0.02
1 8.63 863 -0.378 -9.170 4.085 -5.798 13.367 -16.632 -224.854 -884.874 -3239.989 0.522 -0.087 -0.872 -0.02 0.58 -0.81 0.01
1 8.64 864 -0.110 -9.357 4.099 -2.380 11.566 -10.254 -224.854 -884.874 -3239.989 0.266 0.100 -0.886 -0.02 0.58 -0.81 0.01
1 8.65 865 -0.153 -9.228 4.238 -1.465 12.756 -6.866 -224.854 -1079.896 -3359.911 0.318 -0.028 -1.022 -0.02 0.58 -0.81 0.01
1 8.66 866 -0.287 -9.089 3.979 -2.869 14.069 -2.777 -179.883 -914.854 -3224.999 0.455 -0.163 -0.752 -0.02 0.58 -0.82 0.01
1 8.67 867 -0.268 -9.070 4.022 -5.402 16.327 -0.610 -254.984 -989.955 -3224.999 0.429 -0.181 -0.793 -0.02 0.58 -0.82 0.01
1 8.68 868 -0.527 -9.161 3.975 -8.820 18.433 1.678 -374.906 -959.975 -3284.960 0.677 -0.091 -0.746 -0.02 0.58 -0.82 0.01
1 8.69 869 -0.891 -9.271 3.927 -11.841 19.287 2.930 -374.906 -959.975 -3284.960 1.026 0.016 -0.705 -0.01 0.58 -0.82 0.01
1 8.70 870 -1.049 -9.371 3.778 -11.536 20.447 4.303 -419.876 -1199.968 -3314.940 1.163 0.113 -0.567 -0.01 0.58 -0.81 0.01
1 8.71 871 -1.010 -9.539 3.793 -8.820 19.775 5.249 -419.876 -1199.968 -3314.940 1.101 0.277 -0.592 -0.01 0.58 -0.81 0.01
1 8.72 872 -0.876 -9.462 3.687 -7.660 19.653 5.737 -284.964 -1064.906 -3254.979 0.943 0.197 -0.495 -0.01 0.58 -0.81 0.01
1 8.73 873 -0.646 -9.323 3.668 -7.233 20.508 5.768 -254.984 -944.984 -3254.979 0.689 0.055 -0.483 -0.01 0.58 -0.81 0.01
1 8.74 874 -0.589 -9.453 3.601 -6.348 22.705 4.608 -194.873 -884.874 -3284.960 0.586 0.181 -0.427 -0.01 0.58 -0.81 0.01
1 8.75 875 -0.503 -9.362 3.587 -5.341 23.834 2.472 -164.893 -884.874 -3164.888 0.479 0.088 -0.418 -0 0.58 -0.81 0.01
1 8.76 876 -0.781 -9.424 3.548 -6.042 23.316 0.031 -164.893 -884.874 -3164.888 0.741 0.149 -0.384 -0 0.58 -0.81 0.01
1 8.77 877 -0.876 -9.347 3.816 -7.111 22.675 -1.709 -194.873 -1079.896 -3314.940 0.821 0.070 -0.658 -0 0.58 -0.81 0.01
1 8.78 878 -0.833 -9.563 3.620 -10.345 21.698 -1.648 -194.873 -1079.896 -3314.940 0.765 0.284 -0.468 0 0.58 -0.81 0
1 8.79 879 -0.939 -9.730 3.745 -11.169 20.966 -0.031 -194.873 -929.994 -3059.957 0.858 0.448 -0.603 0 0.58 -0.81 0
1 8.80 880 -0.919 -9.888 3.745 -10.284 20.081 2.686 -284.964 -944.984 -3119.917 0.823 0.602 -0.615 0 0.58 -0.81 0
1 8.81 881 -0.977 -9.726 3.706 -6.714 20.722 6.409 -194.873 -959.975 -3164.888 0.841 0.433 -0.597 0.01 0.58 -0.81 0
1 8.82 882 -0.915 -9.601 3.611 -4.334 21.362 6.928 -89.941 -929.994 -3104.927 0.755 0.307 -0.506 0.01 0.58 -0.81 0
1 8.83 883 -0.982 -9.352 3.400 -3.357 22.156 7.751 -89.941 -929.994 -3104.927 0.797 0.058 -0.298 0.01 0.58 -0.81 0
1 8.84 884 -1.082 -9.309 3.515 -2.533 23.346 8.057 -224.854 -854.893 -3239.989 0.871 0.015 -0.414 0.01 0.58 -0.81 0
1 8.85 885 -1.216 -9.280 3.328 -3.479 23.590 9.827 -224.854 -854.893 -3239.989 0.976 -0.014 -0.229 0.01 0.58 -0.81 0
1 8.86 886 -1.207 -9.266 3.352 -3.448 21.912 9.827 -179.883 -914.854 -3194.869 0.936 -0.028 -0.257 0.02 0.58 -0.81 0
1 8.87 887 -1.178 -9.108 3.309 -2.991 19.867 9.552 -59.961 -1019.936 -3044.966 0.876 -0.186 -0.216 0.02 0.58 -0.81 0
1 8.88 888 -1.130 -9.050 3.314 -3.662 19.165 7.599 29.980 -914.854 -3149.898 0.773 -0.244 -0.227 0.02 0.58 -0.81 0
1 8.89 889 -1.202 -9.089 3.376 -2.594 19.257 6.958 -119.922 -1004.945 -3284.960 0.821 -0.205 -0.291 0.02 0.58 -0.81 0
1 8.90 890 -1.350 -8.897 3.175 -2.533 17.151 5.951 -119.922 -1004.945 -3284.960 0.945 -0.396 -0.092 0.02 0.58 -0.81 0
1 8.91 891 -1.322 -8.955 3.065 -2.472 15.198 4.578 -134.912 -1019.936 -3119.917 0.895 -0.339 0.016 0.03 0.58 -0.81 0
1 8.92 892 -1.475 -8.849 3.146 -1.465 13.672 3.265 -134.912 -1019.936 -3119.917 1.030 -0.444 -0.067 0.03 0.58 -0.81 0
1 8.93 893 -1.422 -8.854 3.036 -0.580 12.268 3.296 89.941 -959.975 -3284.960 0.960 -0.438 0.043 0.03 0.58 -0.81 0
1 8.94 894 -1.350 -8.840 3.165 -1.953 11.047 3.326 -14.990 -959.975 -3104.927 0.872 -0.452 -0.086 0.03 0.58 -0.81 0
1 8.95 895 -1.456 -8.821 3.093 -3.082 9.979 3.998 -14.990 -959.975 -3104.927 0.961 -0.470 -0.015 0.03 0.58 -0.81 0
1 8.96 896 -1.575 -8.763 3.050 -3.662 9.216 4.425 104.932 -989.955 -3074.947 1.048 -0.528 0.022 0.03 0.58 -0.81 0
1 8.97 897 -1.326 -8.864 3.132 -5.280 7.568 4.364 104.932 -989.955 -3074.947 0.782 -0.428 -0.064 0.03 0.59 -0.81 0
1 8.98 898 -1.331 -8.849 3.208 -6.409 7.416 4.272 104.932 -869.883 -3044.966 0.772 -0.444 -0.147 0.03 0.59 -0.81 0
1 8.99 899 -1.250 -8.777 3.151 -5.127 6.256 3.113 104.932 -869.883 -3044.966 0.677 -0.517 -0.097 0.04 0.59 -0.81 0
1 9.00 900 -1.547 -8.720 3.117 -6.683 4.150 2.319 89.941 -1154.998 -3029.976 0.962 -0.575 -0.069 0.04 0.59 -0.81 0
1 9.01 901 -1.566 -8.811 3.146 -8.301 1.038 1.282 14.990 -1124.867 -3284.960 0.970 -0.486 -0.104 0.04 0.59 -0.81 0
1 9.02 902 -1.551 -8.931 3.108 -8.759 -1.068 0.580 14.990 -1124.867 -3284.960 0.947 -0.368 -0.075 0.04 0.59 -0.81 0
1 9.03 903 -1.480 -8.931 2.849 -10.101 -4.669 -0.427 89.941 -1004.945 -3164.888 0.861 -0.374 0.164 0.04 0.59 -0.81 0
1 9.04 904 -1.307 -8.916 2.916 -11.566 -7.904 -1.160 89.941 -1004.945 -3164.888 0.687 -0.393 0.084 0.04 0.59 -0.81 0
1 9.05 905 -1.379 -9.050 2.662 -12.726 -10.559 -2.472 164.893 -884.874 -3239.989 0.759 -0.263 0.323 0.04 0.59 -0.81 0
1 9.06 906 -1.403 -9.151 2.706 -13.977 -12.604 -3.662 164.893 -884.874 -3239.989 0.788 -0.168 0.263 0.04 0.59 -0.81 0
1 9.07 907 -1.451 -9.026 2.773 -13.611 -14.587 -5.310 -44.971 -1049.916 -3059.957 0.842 -0.299 0.177 0.04 0.59 -0.81 0
1 9.08 908 -1.379 -8.988 2.615 -13.947 -17.120 -5.463 164.893 -1049.916 -2954.875 0.779 -0.344 0.316 0.03 0.59 -0.81 0
1 9.09 909 -1.240 -9.022 2.538 -15.747 -17.212 -6.073 164.893 -1049.916 -2954.875 0.650 -0.317 0.375 0.03 0.59 -0.81 0
1 9.10 910 -1.121 -9.156 2.758 -18.524 -17.090 -5.676 -14.990 -1049.916 -3029.976 0.554 -0.198 0.109 0.03 0.59 -0.8 0.01
1 9.11 911 -1.001 -9.424 2.830 -17.975 -15.656 -4.913 -14.990 -1049.916 -3029.976 0.446 0.061 0.012 0.03 0.6 -0.8 0.01
1 9.12 912 -0.958 -9.472 2.820 -17.365 -14.282 -4.669 -29.980 -869.883 -2939.885 0.414 0.101 -0.002 0.03 0.6 -0.8 0.01
1 9.13 913 -0.881 -9.630 2.825 -15.625 -13.916 -4.364 -29.980 -869.883 -2939.885 0.348 0.252 -0.030 0.03 0.6 -0.8 0.01
1 9.14 914 -0.713 -9.797 2.935 -12.238 -13.733 -6.317 -119.922 -884.874 -3104.927 0.192 0.413 -0.159 0.03 0.6 -0.8 0.01
1 9.15 915 -0.283 -9.620 2.820 -7.507 -13.367 -8.026 -44.971 -959.975 -3029.976 -0.224 0.231 -0.058 0.03 0.6 -0.8 0.01
1 9.16 916 -0.378 -9.438 2.849 -9.430 -12.634 -8.667 -44.971 -959.975 -3029.976 -0.110 0.046 -0.097 0.02 0.6 -0.8 0.01
1 9.17 917 -0.441 -9.553 2.729 -12.726 -14.587 -8.820 -14.990 -854.893 -3059.957 -0.028 0.156 0.012 0.02 0.6 -0.8 0.01
1 9.18 918 -0.522 -9.879 2.658 -12.451 -17.334 -8.270 -14.990 -854.893 -3059.957 0.094 0.470 0.049 0.02 0.6 -0.8 0.01
1 9.19 919 -0.608 -9.960 2.591 -8.514 -17.273 -8.667 -29.980 -914.854 -3194.869 0.200 0.546 0.100 0.02 0.6 -0.8 0.01
1 9.20 920 -0.843 -9.893 2.615 -8.209 -16.998 -8.667 -29.980 -914.854 -3194.869 0.454 0.474 0.064 0.02 0.6 -0.8 0.01
1 9.21 921 -1.116 -9.994 2.706 -7.294 -18.585 -7.813 -59.961 -914.854 -2969.865 0.744 0.571 -0.037 0.02 0.6 -0.8 0.01
1 9.22 922 -1.092 -9.965 2.595 -3.693 -20.905 -7.507 -29.980 -749.961 -3044.966 0.736 0.540 0.064 0.02 0.6 -0.8 0.01
1 9.23 923 -0.919 -9.922 2.586 -0.122 -22.186 -8.240 -29.980 -749.961 -3044.966 0.580 0.494 0.068 0.01 0.6 -0.8 0.01
1 9.24 924 -0.948 -9.783 2.500 1.923 -22.034 -7.874 -134.912 -839.903 -3014.986 0.625 0.355 0.153 0.01 0.6 -0.8 0.01
1 9.25 925 -0.991 -9.649 2.758 -1.099 -22.430 -6.104 -119.922 -809.922 -2984.855 0.701 0.221 -0.100 0.01 0.6 -0.8 0.01
1 9.26 926 -0.819 -9.802 2.787 -4.547 -24.902 -3.815 -119.922 -854.893 -3029.976 0.543 0.373 -0.130 0.01 0.6 -0.8 0.01
1 9.27 927 -0.618 -10.066 2.935 -7.782 -26.459 -1.160 -119.922 -854.893 -3029.976 0.353 0.635 -0.284 0.01 0.6 -0.8 0.01
1 9.28 928 -0.522 -10.228 2.907 -8.331 -26.886 2.533 -119.922 -809.922 -2909.904 0.266 0.795 -0.265 0 0.6 -0.8 0.02
1 9.29 929 -0.163 -10.353 2.998 -6.287 -25.421 5.585 -134.912 -794.932 -2894.914 -0.087 0.917 -0.365 0 0.6 -0.8 0.02
1 9.30 930 -0.158 -10.166 2.935 -2.350 -23.804 8.362 -134.912 -794.932 -2894.914 -0.090 0.728 -0.308 0 0.6 -0.8 0.02
1 9.31 931 -0.230 -9.999 2.801 -0.244 -22.247 8.514 -269.974 -779.942 -3059.957 -0.017 0.560 -0.176 0 0.61 -0.8 0.02
1 9.32 932 -0.378 -9.764 2.964 1.373 -20.264 8.606 -254.984 -944.984 -3014.986 0.127 0.327 -0.335 -0 0.6 -0.8 0.02
1 9.33 933 -0.469 -9.587 2.916 1.282 -18.768 8.637 -224.854 -779.942 -3059.957 0.214 0.151 -0.281 -0 0.6 -0.8 0.03
1 9.34 934 -0.599 -9.644 2.998 0.763 -18.646 8.331 -224.854 -779.942 -3059.957 0.338 0.210 -0.358 -0 0.6 -0.8 0.03
1 9.35 935 -0.757 -9.663 3.031 -1.038 -18.189 8.026 -359.916 -914.854 -3044.966 0.491 0.231 -0.387 -0 0.6 -0.8 0.03
1 9.36 936 -0.737 -9.668 3.007 -0.732 -17.242 8.972 -224.854 -779.942 -3029.976 0.465 0.236 -0.360 -0.01 0.6 -0.8 0.03
1 9.37 937 -0.733 -9.711 2.916 2.716 -17.273 9.064 -224.854 -779.942 -3029.976 0.452 0.281 -0.266 -0.01 0.6 -0.8 0.03
1 9.38 938 -0.790 -9.630 2.888 3.662 -17.456 10.193 -224.854 -884.874 -3029.976 0.500 0.201 -0.231 -0.01 0.6 -0.8 0.03
1 9.39 939 -0.733 -9.654 2.806 3.662 -18.005 10.376 -299.955 -809.922 -3059.957 0.434 0.228 -0.142 -0.01 0.6 -0.8 0.03
1 9.40 940 -0.833 -9.783 2.682 2.563 -17.181 10.773 -434.867 -794.932 -2939.885 0.515 0.361 -0.004 -0.01 0.6 -0.8 0.04
1 9.41 941 -0.737 -9.817 2.806 2.625 -15.808 11.505 -434.867 -794.932 -2939.885 0.408 0.397 -0.124 -0.01 0.6 -0.8 0.04
1 9.42 942 -0.771 -10.027 2.658 3.479 -14.771 12.054 -284.964 -794.932 -3014.986 0.431 0.609 0.030 -0.01 0.6 -0.8 0.04
1 9.43 943 -0.603 -9.821 2.629 4.730 -14.099 13.489 -194.873 -854.893 -3104.927 0.249 0.406 0.065 -0.01 0.6 -0.8 0.04
1 9.44 944 -0.488 -9.659 2.504 5.646 -13.184 15.625 -194.873 -854.893 -3104.927 0.119 0.246 0.197 -0.01 0.6 -0.8 0.04
1 9.45 945 -0.383 -9.769 2.318 6.073 -12.146 17.151 -284.964 -944.984 -3014.986 -0.003 0.359 0.392 -0.01 0.6 -0.8 0.04
1 9.46 946 -0.311 -9.773 2.447 5.127 -11.108 17.517 -284.964 -839.903 -3149.898 -0.094 0.367 0.271 -0.01 0.6 -0.8 0.05
1 9.47 947 -0.215 -9.711 2.428 4.822 -10.498 18.311 -269.974 -1049.916 -3029.976 -0.227 0.310 0.302 -0.01 0.6 -0.8 0.05
1 9.48 948 -0.115 -9.941 2.313 5.829 -9.033 19.592 -269.974 -1049.916 -3029.976 -0.348 0.542 0.424 -0.01 0.6 -0.8 0.05
1 9.49 949 -0.287 -9.917 2.409 7.294 -9.552 20.935 -374.906 -959.975 -3029.976 -0.196 0.521 0.334 -0.01 0.6 -0.8 0.05
1 9.50 950 -0.297 -9.888 2.399 8.972 -9.888 22.308 -344.925 -884.874 -3029.976 -0.210 0.496 0.353 -0.01 0.6 -0.8 0.05
1 9.51 951 -0.225 -9.778 2.346 10.407 -9.796 23.010 -344.925 -884.874 -3029.976 -0.307 0.391 0.418 -0.01 0.6 -0.8 0.06
1 9.52 952 -0.464 -9.663 2.342 12.085 -8.453 23.529 -329.935 -869.883 -3044.966 -0.094 0.282 0.436 -0.01 0.6 -0.8 0.06
1 9.53 953 -0.388 -9.529 2.208 10.681 -9.308 23.499 -374.906 -929.994 -3134.908 -0.197 0.154 0.585 -0.01 0.6 -0.8 0.06
1 9.54 954 -0.508 -9.524 2.303 11.475 -8.453 24.139 -329.935 -944.984 -3119.917 -0.133 0.161 0.516 -0.01 0.6 -0.8 0.06
1 9.55 955 -0.527 -9.472 2.308 12.024 -6.836 23.651 -329.935 -944.984 -3119.917 -0.143 0.114 0.525 -0.01 0.6 -0.8 0.06
1 9.56 956 -0.565 -9.438 2.217 11.688 -8.667 22.705 -269.974 -854.893 -3104.927 -0.132 0.087 0.630 -0 0.6 -0.8 0.07
1 9.57 957 -0.546 -9.395 2.231 10.803 -9.064 22.553 -224.854 -1004.945 -3059.957 -0.177 0.050 0.630 -0 0.59 -0.8 0.07
1 9.58 958 -0.589 -9.424 2.322 9.369 -9.369 21.820 -224.854 -1004.945 -3059.957 -0.160 0.085 0.551 -0 0.59 -0.8 0.07
1 9.59 959 -0.508 -9.491 2.528 7.233 -8.759 18.829 -269.974 -1079.896 -3209.859 -0.266 0.157 0.356 -0 0.59 -0.8 0.07
1 9.60 960 -0.340 -9.505 2.476 6.775 -10.712 16.357 -179.883 -914.854 -3194.869 -0.455 0.176 0.417 -0 0.59 -0.8 0.07
1 9.61 961 -0.263 -9.314 2.643 6.256 -12.390 12.970 -179.883 -914.854 -3194.869 -0.548 -0.011 0.259 -0 0.59 -0.8 0.07
1 9.62 962 -0.244 -9.213 3.022 5.066 -14.404 6.378 -284.964 -1064.906 -3194.869 -0.580 -0.105 -0.100 -0 0.59 -0.8 0.07
1 9.63 963 -0.532 -9.343 3.295 3.448 -15.198 2.228 -269.974 -1049.916 -3134.908 -0.289 0.027 -0.363 -0 0.59 -0.8 0.07
1 9.64 964 -0.541 -9.706 3.529 1.099 -16.602 -1.099 -344.925 -1004.945 -3209.859 -0.269 0.393 -0.589 -0 0.59 -0.8 0.08
1 9.65 965 -0.694 -9.917 3.558 0.641 -17.517 -3.052 -344.925 -1004.945 -3209.859 -0.103 0.605 -0.611 -0 0.59 -0.8 0.08
1 9.66 966 -0.891 -9.826 3.802 4.028 -18.005 -7.507 -299.955 -1004.945 -3164.888 0.109 0.515 -0.847 -0.01 0.59 -0.8 0.08
1 9.67 967 -1.025 -9.874 3.749 5.432 -18.738 -8.789 -344.925 -1079.896 -3239.989 0.261 0.565 -0.783 -0.01 0.59 -0.8 0.08
1 9.68 968 -1.025 -9.797 3.563 5.127 -20.111 -11.078 -344.925 -1079.896 -3239.989 0.281 0.492 -0.581 -0.01 0.59 -0.8 0.08
1 9.69 969 -0.761 -9.879 3.443 2.777 -22.522 -12.634 -284.964 -1019.936 -3074.947 0.066 0.578 -0.435 -0.01 0.59 -0.8 0.08
1 9.70 970 -0.488 -9.807 3.400 2.045 -25.940 -13.580 -329.935 -989.955 -3329.931 -0.178 0.507 -0.383 -0.01 0.59 -0.81 0.08
1 9.71 971 -0.259 -9.807 3.443 2.869 -27.496 -15.350 -269.974 -959.975 -3104.927 -0.373 0.507 -0.418 -0.02 0.59 -0.81 0.08
1 9.72 972 0.010 -9.884 3.563 4.852 -28.076 -16.052 -269.974 -959.975 -3104.927 -0.602 0.584 -0.528 -0.02 0.59 -0.81 0.08
1 9.73 973 0.125 -9.721 3.515 6.714 -27.496 -16.327 -494.978 -1004.945 -3239.989 -0.676 0.423 -0.467 -0.02 0.59 -0.81 0.08
1 9.74 974 0.335 -9.467 3.376 7.172 -28.229 -17.090 -419.876 -1049.916 -3134.908 -0.844 0.172 -0.313 -0.02 0.59 -0.81 0.08
1 9.75 975 0.450 -9.424 3.381 8.179 -27.252 -17.578 -419.876 -1049.916 -3134.908 -0.915 0.132 -0.303 -0.03 0.59 -0.81 0.08
1 9.76 976 0.623 -9.228 3.180 10.681 -26.337 -16.815 -584.919 -944.984 -3194.869 -0.997 -0.058 -0.069 -0.03 0.58 -0.81 0.08
1 9.77 977 0.613 -9.122 2.969 10.712 -26.489 -16.632 -434.867 -1019.936 -3149.898 -0.944 -0.159 0.160 -0.03 0.58 -0.81 0.08
1 9.78 978 0.804 -8.983 3.074 9.033 -25.086 -16.296 -464.997 -1019.936 -3224.999 -1.091 -0.293 0.072 -0.04 0.58 -0.81 0.08
1 9.79 979 1.092 -8.868 2.902 7.904 -22.400 -16.693 -464.997 -1019.936 -3224.999 -1.334 -0.405 0.258 -0.04 0.58 -0.81 0.07
1 9.80 980 1.245 -8.916 2.777 6.348 -18.982 -16.815 -494.978 -1079.896 -3134.908 -1.443 -0.354 0.394 -0.04 0.58 -0.81 0.07
1 9.81 981 1.188 -9.007 2.892 2.533 -14.832 -17.548 -539.948 -1169.988 -3299.950 -1.341 -0.261 0.287 -0.04 0.58 -0.81 0.07
1 9.82 982 1.264 -9.189 3.026 0.000 -12.695 -19.409 -539.948 -1169.988 -3299.950 -1.373 -0.078 0.158 -0.05 0.58 -0.81 0.07
1 9.83 983 1.298 -9.352 2.931 -0.854 -11.841 -22.125 -569.929 -1124.867 -3209.859 -1.362 0.084 0.254 -0.05 0.58 -0.81 0.07
1 9.84 984 1.245 -9.395 3.012 1.587 -12.543 -26.550 -449.857 -959.975 -3209.859 -1.211 0.127 0.171 -0.05 0.58 -0.81 0.07
1 9.85 985 1.202 -9.405 3.127 2.228 -13.458 -27.283 -749.961 -1124.867 -3239.989 -1.114 0.137 0.058 -0.05 0.58 -0.81 0.07
1 9.86 986 1.274 -9.256 3.041 3.601 -13.367 -27.283 -749.961 -1124.867 -3239.989 -1.131 -0.009 0.148 -0.06 0.58 -0.81 0.07
1 9.87 987 1.097 -9.113 3.141 4.181 -13.336 -27.893 -584.919 -1064.906 -3194.869 -0.899 -0.150 0.053 -0.06 0.58 -0.81 0.06
1 9.88 988 1.207 -9.252 3.194 2.655 -13.641 -28.717 -734.971 -914.854 -3194.869 -0.955 -0.008 0.007 -0.06 0.58 -0.81 0.06
1 9.89 989 1.207 -9.137 3.165 3.906 -14.130 -26.886 -734.971 -914.854 -3194.869 -0.900 -0.119 0.040 -0.06 0.58 -0.81 0.06
1 9.90 990 1.216 -9.012 3.127 5.951 -12.604 -26.093 -599.909 -1124.867 -3209.859 -0.856 -0.240 0.083 -0.07 0.58 -0.81 0.06
1 9.91 991 1.259 -9.036 3.060 5.127 -12.177 -22.217 -569.929 -1124.867 -3209.859 -0.801 -0.206 0.166 -0.07 0.57 -0.81 0.06
1 9.92 992 1.164 -9.050 3.060 2.869 -12.390 -21.210 -614.899 -1214.958 -3254.979 -0.662 -0.188 0.172 -0.07 0.57 -0.81 0.06
1 9.93 993 1.350 -9.132 3.132 3.113 -10.773 -18.341 -614.899 -1214.958 -3254.979 -0.808 -0.103 0.103 -0.07 0.57 -0.81 0.06
1 9.94 994 1.465 -9.161 2.978 4.181 -8.118 -15.961 -734.971 -1019.936 -3074.947 -0.886 -0.071 0.260 -0.08 0.57 -0.81 0.06
1 9.95 995 1.499 -9.256 3.002 6.683 -6.073 -14.801 -764.952 -1214.958 -3074.947 -0.886 0.029 0.242 -0.08 0.57 -0.81 0.05
1 9.96 996 1.997 -9.151 2.916 8.759 -2.991 -13.641 -764.952 -1214.958 -3074.947 -1.354 -0.071 0.336 -0.08 0.57 -0.81 0.05
1 9.97 997 1.954 -9.007 2.801 10.315 0.885 -12.848 -749.961 -1154.998 -3164.888 -1.280 -0.209 0.463 -0.08 0.57 -0.81 0.05
1 9.98 998 1.978 -9.127 2.854 11.169 6.348 -10.834 -749.961 -1199.968 -3239.989 -1.249 -0.075 0.436 -0.08 0.57 -0.82 0.05
1 9.99 999 1.911 -9.146 2.658 13.214 10.681 -7.721 -794.932 -1169.988 -3254.979 -1.160 -0.049 0.648 -0.08 0.57 -0.82 0.05
1 10.00 1000 1.791 -9.103 2.634 13.855 13.275 -3.082 -794.932 -1169.988 -3254.979 -1.028 -0.085 0.689 -0.08 0.57 -0.82 0.05
1 10.01 1001 1.939 -9.036 2.686 14.984 15.930 2.411 -764.952 -1019.936 -3224.999 -1.172 -0.145 0.656 -0.08 0.57 -0.82 0.05
1 10.02 1002 1.978 -8.653 2.672 16.235 17.822 6.592 -854.893 -1154.998 -3164.888 -1.214 -0.520 0.690 -0.08 0.57 -0.82 0.05
1 10.03 1003 2.050 -8.275 2.528 13.184 22.888 11.536 -854.893 -1154.998 -3164.888 -1.295 -0.891 0.856 -0.08 0.57 -0.82 0.05
1 10.04 1004 1.963 -8.083 2.457 8.423 25.940 13.245 -854.893 -1199.968 -3494.973 -1.224 -1.076 0.949 -0.08 0.57 -0.82 0.05
1 10.05 1005 1.791 -8.131 2.275 5.188 28.870 15.747 -854.893 -1199.968 -3494.973 -1.076 -1.024 1.147 -0.08 0.57 -0.82 0.05
1 10.06 1006 1.657 -8.232 2.131 -1.282 32.776 20.569 -764.952 -1064.906 -3299.950 -1.018 -0.922 1.310 -0.07 0.57 -0.82 0.05
1 10.07 1007 1.619 -8.356 2.121 -4.913 36.133 23.529 -764.952 -1064.906 -3299.950 -1.027 -0.800 1.321 -0.07 0.57 -0.82 0.05
