COL1	TIME	ACC_X	ACC_Y	ACC_Z	GYR_X	GYR_Y	GYR_Z	MAG_X	MAG_Y	MAG_Z	LACC_X	LACC_Y	LACC_Z	QUAT_X	QUAT_Y	QUAT_Z	QUAT_W
1 0.00 0 0.752 -9.745 1.638 -1.068 0.977 0.854 -19.337 2911.853 -2924.595 -0.031 0.104 -0.033 -0.01 -0.65 0.76 0.07
1 0.01 1 0.800 -9.793 1.690 -0.580 1.343 0.977 25.483 2956.824 -2894.614 -0.079 0.152 -0.086 -0.01 -0.65 0.76 0.07
1 0.02 2 0.733 -9.802 1.604 0.061 0.885 1.312 25.483 2956.824 -2894.614 -0.013 0.162 0.002 -0.01 -0.65 0.76 0.07
1 0.03 3 0.766 -9.730 1.585 0.092 0.854 1.129 -94.289 2791.931 -2864.634 -0.047 0.090 0.021 -0.01 -0.65 0.76 0.07
1 0.04 4 0.713 -9.635 1.767 -0.671 0.580 1.099 40.474 2971.814 -3059.657 0.005 -0.006 -0.160 -0.01 -0.65 0.76 0.07
1 0.05 5 0.867 -9.793 1.647 -0.641 0.610 1.068 -19.337 2881.873 -2819.663 -0.148 0.152 -0.039 -0.01 -0.65 0.76 0.07
1 0.06 6 0.675 -9.807 1.580 -0.061 0.977 1.617 -19.337 2881.873 -2819.663 0.042 0.167 0.029 -0.01 -0.65 0.76 0.07
1 0.07 7 0.680 -9.773 1.609 -0.458 0.641 1.343 -34.328 3046.915 -2984.556 0.036 0.133 0.002 -0.01 -0.65 0.76 0.07
1 0.08 8 0.718 -9.654 1.599 0.153 0.916 1.129 130.565 2881.873 -2969.565 -0.005 0.014 0.014 -0.01 -0.65 0.76 0.07
1 0.09 9 0.709 -9.869 1.652 0.275 1.007 1.923 130.565 2881.873 -2969.565 0.003 0.229 -0.037 -0.01 -0.65 0.76 0.07
1 0.10 10 0.627 -9.697 1.777 -0.031 1.404 1.862 25.483 2956.824 -2894.614 0.082 0.057 -0.160 -0.01 -0.65 0.76 0.07
1 0.11 11 0.613 -9.745 1.628 -0.610 1.434 1.801 25.483 2956.824 -2894.614 0.094 0.105 -0.009 -0.01 -0.65 0.76 0.07
1 0.12 12 0.776 -9.706 1.628 -1.160 2.075 1.587 -49.318 2761.951 -2969.565 -0.072 0.067 -0.008 -0.01 -0.65 0.76 0.07
1 0.13 13 0.613 -9.769 1.619 -1.129 1.801 0.916 -49.318 2761.951 -2969.565 0.089 0.129 0.001 -0.01 -0.65 0.76 0.07
1 0.14 14 0.594 -9.797 1.556 -0.763 1.282 0.702 115.575 3001.944 -2954.575 0.108 0.158 0.063 -0.01 -0.65 0.76 0.07
1 0.15 15 0.656 -9.807 1.494 -1.129 0.580 0.427 280.617 2986.954 -2864.634 0.045 0.167 0.125 -0.01 -0.65 0.76 0.07
1 0.16 16 0.627 -9.797 1.489 0.336 0.275 0.793 280.617 2986.954 -2864.634 0.073 0.157 0.129 -0.01 -0.65 0.76 0.07
1 0.17 17 0.718 -9.826 1.547 0.793 0.214 0.732 -49.318 2881.873 -2819.663 -0.019 0.186 0.073 -0.01 -0.65 0.76 0.07
1 0.18 18 0.675 -9.826 1.532 1.068 -0.122 0.549 -49.318 2881.873 -2819.663 0.024 0.187 0.090 -0.01 -0.65 0.76 0.07
1 0.19 19 0.627 -9.692 1.657 0.916 -0.580 0.916 55.614 2881.873 -2864.634 0.072 0.053 -0.032 -0.01 -0.65 0.76 0.07
1 0.20 20 0.690 -9.769 1.566 0.122 -1.770 0.916 55.614 2881.873 -2864.634 0.010 0.130 0.061 -0.01 -0.65 0.76 0.07
1 0.21 21 0.651 -9.773 1.652 0.397 -2.380 0.824 -19.337 2881.873 -2924.595 0.048 0.135 -0.024 -0.01 -0.65 0.76 0.07
1 0.22 22 0.623 -9.706 1.580 -0.244 -3.174 0.763 10.493 3001.944 -2834.653 0.076 0.068 0.050 -0.01 -0.65 0.76 0.07
1 0.23 23 0.752 -9.773 1.566 -0.763 -3.571 0.641 10.493 3001.944 -2834.653 -0.054 0.136 0.066 -0.01 -0.65 0.76 0.07
1 0.24 24 0.623 -9.831 1.633 0.000 -4.547 0.519 175.536 2836.902 -2819.663 0.076 0.193 -0.001 -0.01 -0.65 0.76 0.07
1 0.25 25 0.646 -9.783 1.542 -0.031 -5.005 1.129 175.536 2836.902 -2819.663 0.053 0.145 0.090 -0.01 -0.65 0.76 0.07
1 0.26 26 0.651 -9.682 1.542 0.305 -4.822 0.946 40.474 2821.912 -2879.624 0.048 0.045 0.091 -0.01 -0.65 0.76 0.07
1 0.27 27 0.757 -9.711 1.638 0.549 -5.157 1.007 -19.337 2881.873 -2924.595 -0.056 0.074 -0.003 -0.01 -0.65 0.76 0.07
1 0.28 28 0.642 -9.678 1.628 0.763 -5.646 1.099 -19.337 2956.824 -2819.663 0.059 0.041 0.008 -0.01 -0.65 0.76 0.07
1 0.29 29 0.843 -9.740 1.599 0.702 -5.371 1.007 100.584 2791.931 -2864.634 -0.142 0.103 0.039 -0.01 -0.65 0.76 0.07
1 0.30 30 0.694 -9.702 1.666 0.397 -5.066 1.221 100.584 2791.931 -2864.634 0.008 0.066 -0.024 -0.01 -0.65 0.76 0.07
1 0.31 31 0.704 -9.678 1.676 0.610 -4.852 1.556 40.474 2776.941 -2984.556 -0.001 0.042 -0.031 -0.01 -0.64 0.76 0.07
1 0.32 32 0.752 -9.697 1.695 0.732 -5.371 1.221 40.474 2776.941 -2984.556 -0.048 0.062 -0.048 -0.01 -0.64 0.76 0.07
1 0.33 33 0.828 -9.750 1.628 1.099 -4.181 1.587 40.474 2926.843 -2879.624 -0.124 0.115 0.021 -0.01 -0.64 0.76 0.06
1 0.34 34 0.824 -9.592 1.590 0.031 -4.456 2.014 70.604 2971.814 -2954.575 -0.119 -0.043 0.061 -0.01 -0.64 0.76 0.06
1 0.35 35 0.814 -9.850 1.690 -0.275 -4.303 1.862 10.493 2851.892 -2909.604 -0.109 0.216 -0.038 -0.01 -0.64 0.76 0.06
1 0.36 36 0.646 -9.750 1.590 0.183 -4.822 1.343 115.575 3001.944 -2879.624 0.058 0.116 0.064 -0.01 -0.64 0.76 0.06
1 0.37 37 0.804 -9.587 1.604 -0.366 -4.334 1.190 115.575 3001.944 -2879.624 -0.099 -0.047 0.050 -0.01 -0.64 0.76 0.06
1 0.38 38 0.742 -9.673 1.609 -0.336 -3.876 1.862 -19.337 2836.902 -2819.663 -0.037 0.039 0.045 -0.01 -0.64 0.76 0.06
1 0.39 39 0.690 -9.812 1.733 0.793 -4.120 1.190 -19.337 2836.902 -2819.663 0.016 0.178 -0.079 -0.01 -0.64 0.76 0.06
1 0.40 40 0.685 -9.735 1.489 0.671 -3.815 1.160 40.474 3001.944 -2879.624 0.021 0.102 0.168 -0.01 -0.64 0.76 0.06
1 0.41 41 0.742 -9.673 1.700 0.977 -3.754 1.678 100.584 2911.853 -2969.565 -0.037 0.040 -0.042 -0.01 -0.64 0.76 0.06
1 0.42 42 0.828 -9.702 1.676 1.587 -3.448 1.007 -64.308 2821.912 -2954.575 -0.123 0.069 -0.015 -0.01 -0.64 0.76 0.06
1 0.43 43 0.833 -9.687 1.633 1.373 -3.021 1.526 -19.337 2791.931 -2864.634 -0.126 0.056 0.031 -0.01 -0.64 0.76 0.06
1 0.44 44 0.728 -9.750 1.604 0.793 -2.930 1.373 -19.337 2791.931 -2864.634 -0.020 0.119 0.064 -0.01 -0.64 0.76 0.06
1 0.45 45 0.651 -9.764 1.690 -0.153 -2.869 1.007 175.536 2761.951 -2894.614 0.058 0.134 -0.017 -0.01 -0.64 0.76 0.06
1 0.46 46 0.742 -9.740 1.676 0.153 -3.265 1.129 175.536 2761.951 -2894.614 -0.033 0.110 -0.002 -0.01 -0.64 0.76 0.06
1 0.47 47 0.723 -9.817 1.757 -0.397 -2.777 1.160 -34.328 2971.814 -2804.673 -0.013 0.187 -0.083 -0.01 -0.64 0.76 0.06
1 0.48 48 0.776 -9.635 1.791 -0.519 -2.991 1.221 100.584 2791.931 -2924.595 -0.065 0.005 -0.115 -0.01 -0.64 0.76 0.06
1 0.49 49 0.814 -9.812 1.695 -0.153 -3.876 1.221 25.483 2956.824 -2924.595 -0.103 0.183 -0.018 -0.01 -0.64 0.76 0.06
1 0.50 50 0.685 -9.745 1.652 0.122 -3.937 1.038 70.604 2896.863 -2879.624 0.027 0.116 0.026 -0.01 -0.64 0.76 0.06
1 0.51 51 0.713 -9.721 1.820 0.732 -3.387 0.916 70.604 2896.863 -2879.624 -0.002 0.092 -0.141 -0 -0.64 0.76 0.06
1 0.52 52 0.771 -9.750 1.748 0.488 -3.418 1.404 -64.308 2971.814 -2804.673 -0.058 0.122 -0.063 -0 -0.64 0.76 0.06
1 0.53 53 0.723 -9.601 1.757 0.427 -3.357 1.282 -64.308 2971.814 -2804.673 -0.011 -0.026 -0.070 -0 -0.64 0.76 0.06
1 0.54 54 0.680 -9.678 1.714 0.000 -2.808 0.671 -49.318 2881.873 -2744.562 0.032 0.051 -0.025 -0 -0.64 0.76 0.06
1 0.55 55 0.848 -9.750 1.642 -0.427 -3.113 1.648 70.604 2926.843 -2909.604 -0.135 0.123 0.048 -0 -0.64 0.76 0.06
1 0.56 56 0.747 -9.759 1.681 -1.099 -3.204 1.251 10.493 2971.814 -2909.604 -0.035 0.132 0.010 -0 -0.64 0.76 0.06
1 0.57 57 0.675 -9.788 1.628 -0.854 -3.265 1.221 40.474 2821.912 -2834.653 0.037 0.161 0.062 -0 -0.64 0.76 0.06
1 0.58 58 0.718 -9.783 1.705 -0.885 -2.686 0.854 40.474 2821.912 -2834.653 -0.006 0.156 -0.014 -0 -0.64 0.76 0.06
1 0.59 59 0.723 -9.673 1.666 -1.129 -3.082 1.038 70.604 2821.912 -2879.624 -0.010 0.046 0.024 -0 -0.64 0.76 0.06
1 0.60 60 0.632 -9.817 1.714 -1.038 -3.204 0.793 70.604 2821.912 -2879.624 0.080 0.190 -0.024 -0 -0.64 0.76 0.06
1 0.61 61 0.651 -9.745 1.714 -1.556 -2.991 0.885 25.483 2911.853 -2999.546 0.061 0.118 -0.024 -0 -0.64 0.76 0.06
1 0.62 62 0.666 -9.730 1.671 -1.526 -2.991 1.129 100.584 2881.873 -2969.565 0.047 0.103 0.018 -0 -0.64 0.76 0.06
1 0.63 63 0.819 -9.730 1.633 -1.892 -2.747 0.854 25.483 2881.873 -2819.663 -0.107 0.103 0.055 -0 -0.64 0.76 0.06
1 0.64 64 0.699 -9.793 1.772 -1.556 -2.838 0.671 -64.308 2926.843 -3029.676 0.014 0.165 -0.085 -0 -0.64 0.76 0.06
1 0.65 65 0.666 -9.908 1.781 -0.793 -2.289 1.221 -64.308 2926.843 -3029.676 0.047 0.280 -0.095 -0 -0.64 0.76 0.06
1 0.66 66 0.895 -9.817 1.757 -0.641 -2.350 1.068 55.614 2791.931 -2924.595 -0.183 0.189 -0.071 -0 -0.64 0.76 0.06
1 0.67 67 0.785 -9.726 1.796 -0.641 -2.563 0.885 55.614 2791.931 -2924.595 -0.071 0.099 -0.107 -0 -0.64 0.76 0.06
1 0.68 68 0.857 -9.659 1.791 -0.305 -1.862 1.434 70.604 2896.863 -2774.542 -0.143 0.032 -0.102 -0 -0.64 0.76 0.06
1 0.69 69 0.781 -9.740 1.757 -0.610 -1.160 0.549 10.493 2821.912 -2954.575 -0.065 0.113 -0.067 -0 -0.64 0.76 0.06
1 0.70 70 0.819 -9.663 1.791 -0.488 -1.007 0.885 10.493 2821.912 -2954.575 -0.103 0.037 -0.100 -0 -0.64 0.76 0.06
1 0.71 71 0.795 -9.740 1.772 -0.458 -0.275 0.793 40.474 2821.912 -2879.624 -0.079 0.114 -0.081 -0 -0.64 0.76 0.06
1 0.72 72 0.757 -9.635 1.743 -1.190 -0.305 0.549 40.474 2821.912 -2879.624 -0.041 0.008 -0.052 -0 -0.64 0.76 0.06
1 0.73 73 0.819 -9.654 1.690 -1.312 -0.336 0.702 -19.337 2791.931 -2924.595 -0.103 0.027 0.001 -0 -0.64 0.76 0.06
1 0.74 74 0.766 -9.654 1.662 -1.404 -0.031 0.275 -19.337 2791.931 -2924.595 -0.050 0.028 0.030 -0 -0.64 0.76 0.06
1 0.75 75 0.790 -9.783 1.772 -1.770 0.031 0.641 -94.289 2911.853 -2819.663 -0.073 0.157 -0.080 -0 -0.64 0.76 0.06
1 0.76 76 0.747 -9.706 1.657 -1.556 0.122 0.580 -19.337 2911.853 -2969.565 -0.029 0.080 0.035 -0 -0.64 0.76 0.06
1 0.77 77 0.670 -9.807 1.695 -1.343 0.122 1.038 -19.337 2911.853 -2969.565 0.047 0.181 -0.003 -0 -0.64 0.76 0.06
1 0.78 78 0.694 -9.750 1.853 -1.343 -0.061 1.007 -34.328 2851.892 -2879.624 0.023 0.123 -0.161 -0 -0.64 0.76 0.06
1 0.79 79 0.737 -9.668 1.676 -1.221 0.336 0.916 -34.328 2851.892 -2879.624 -0.020 0.042 0.017 -0 -0.64 0.76 0.06
1 0.80 80 0.747 -9.687 1.690 -0.824 0.397 0.458 55.614 2881.873 -2924.595 -0.030 0.061 0.002 -0 -0.64 0.76 0.06
1 0.81 81 0.742 -9.721 1.642 -0.580 0.610 1.129 55.614 2881.873 -2924.595 -0.024 0.095 0.050 -0 -0.64 0.76 0.06
1 0.82 82 0.862 -9.788 1.710 -0.092 1.129 0.763 -139.259 2926.843 -2879.624 -0.144 0.162 -0.015 -0 -0.64 0.76 0.06
1 0.83 83 0.872 -9.697 1.652 -1.282 0.702 0.946 25.483 3061.905 -2999.546 -0.153 0.071 0.042 -0 -0.64 0.76 0.06
1 0.84 84 0.800 -9.601 1.753 -0.977 1.129 0.092 25.483 3061.905 -2999.546 -0.081 -0.025 -0.058 -0 -0.64 0.76 0.06
1 0.85 85 0.771 -9.615 1.652 -1.587 1.343 0.824 -19.337 2911.853 -2789.533 -0.051 -0.010 0.042 -0 -0.64 0.76 0.06
1 0.86 86 0.828 -9.750 1.619 -1.617 0.916 0.854 -19.337 2911.853 -2789.533 -0.108 0.124 0.075 -0 -0.64 0.76 0.06
1 0.87 87 0.862 -9.754 1.719 -1.556 1.251 0.519 40.474 2776.941 -3029.676 -0.142 0.129 -0.026 -0 -0.64 0.76 0.06
1 0.88 88 0.718 -9.601 1.729 -1.709 1.526 0.977 40.474 2776.941 -3029.676 0.002 -0.025 -0.037 -0 -0.64 0.76 0.06
1 0.89 89 0.795 -9.807 1.671 -1.923 1.160 0.641 -49.318 2761.951 -2744.562 -0.075 0.181 0.019 -0 -0.64 0.76 0.06
1 0.90 90 0.646 -9.730 1.719 -1.709 0.549 0.824 -139.259 2896.863 -2834.653 0.074 0.104 -0.031 -0 -0.64 0.76 0.06
1 0.91 91 0.776 -9.745 1.652 -1.495 0.793 0.671 -139.259 2896.863 -2834.653 -0.056 0.118 0.035 -0 -0.64 0.76 0.06
1 0.92 92 0.737 -9.721 1.642 -1.587 0.763 0.916 -49.318 2836.902 -2969.565 -0.018 0.094 0.043 -0 -0.64 0.76 0.06
1 0.93 93 0.781 -9.778 1.609 -1.068 0.793 0.641 -49.318 2836.902 -2969.565 -0.062 0.151 0.076 -0 -0.64 0.76 0.06
1 0.94 94 0.761 -9.783 1.638 -1.495 1.221 0.916 -19.337 2911.853 -2789.533 -0.043 0.156 0.046 -0 -0.64 0.76 0.06
1 0.95 95 0.737 -9.778 1.695 -1.770 0.610 1.251 -19.337 2911.853 -2789.533 -0.019 0.151 -0.012 -0 -0.64 0.76 0.06
1 0.96 96 0.690 -9.730 1.662 -1.404 0.671 1.343 -49.318 2881.873 -2924.595 0.029 0.102 0.019 -0 -0.64 0.76 0.06
1 0.97 97 0.666 -9.788 1.686 -1.587 0.488 1.068 25.483 2956.824 -2789.533 0.052 0.160 -0.006 -0 -0.64 0.76 0.06
1 0.98 98 0.704 -9.783 1.753 -1.343 0.641 0.732 25.483 2956.824 -2789.533 0.013 0.155 -0.073 -0 -0.64 0.76 0.06
1 0.99 99 0.713 -9.750 1.710 -1.526 0.824 0.793 55.614 2986.954 -2894.614 0.003 0.121 -0.031 -0 -0.64 0.76 0.06
1 1.00 100 0.785 -9.788 1.681 -2.045 0.275 0.885 -19.337 2716.830 -2894.614 -0.069 0.159 -0.003 -0 -0.64 0.76 0.06
1 1.01 101 0.804 -9.735 1.532 -1.831 0.244 0.427 -49.318 2836.902 -2924.595 -0.089 0.106 0.145 -0 -0.64 0.76 0.06
1 1.02 102 0.733 -9.788 1.609 -1.404 -0.275 1.007 -49.318 2836.902 -2924.595 -0.017 0.159 0.067 -0 -0.64 0.76 0.06
1 1.03 103 0.709 -9.697 1.580 -0.732 -0.549 1.068 -19.337 2881.873 -2924.595 0.007 0.068 0.095 -0 -0.64 0.76 0.06
1 1.04 104 0.766 -9.850 1.724 0.519 0.183 0.763 70.604 2896.863 -3059.657 -0.050 0.221 -0.049 -0 -0.64 0.76 0.06
1 1.05 105 0.694 -9.793 1.676 -0.549 0.275 1.038 70.604 2896.863 -3059.657 0.021 0.164 0.001 -0 -0.64 0.76 0.06
1 1.06 106 0.776 -9.706 1.642 -0.763 -0.061 0.946 25.483 2836.902 -2864.634 -0.061 0.078 0.035 -0 -0.64 0.76 0.06
1 1.07 107 0.843 -9.730 1.638 -0.671 0.305 1.221 25.483 2836.902 -3044.667 -0.127 0.102 0.040 -0.01 -0.64 0.76 0.06
1 1.08 108 0.699 -9.730 1.676 -1.709 0.580 1.190 -34.328 2971.814 -2879.624 0.017 0.102 0.001 -0 -0.64 0.76 0.06
1 1.09 109 0.680 -9.702 1.614 -1.892 0.427 1.160 -34.328 2971.814 -2879.624 0.036 0.073 0.063 -0.01 -0.64 0.76 0.06
1 1.10 110 0.651 -9.606 1.561 -2.228 0.336 0.610 -94.289 2881.873 -2969.565 0.065 -0.023 0.114 -0.01 -0.64 0.76 0.06
1 1.11 111 0.713 -9.836 1.657 -2.319 0.153 0.519 115.575 2896.863 -2984.556 0.002 0.206 0.015 -0.01 -0.64 0.76 0.06
1 1.12 112 0.737 -9.726 1.647 -1.556 -0.244 1.007 115.575 2896.863 -2984.556 -0.022 0.096 0.023 -0.01 -0.64 0.76 0.06
1 1.13 113 0.809 -9.750 1.705 -1.373 0.153 0.824 70.604 2926.843 -2834.653 -0.093 0.119 -0.035 -0.01 -0.64 0.76 0.06
1 1.14 114 0.690 -9.793 1.686 -1.129 0.061 0.763 -19.337 3061.905 -2864.634 0.027 0.163 -0.015 -0.01 -0.64 0.76 0.06
1 1.15 115 0.867 -9.682 1.566 -1.434 -0.153 0.641 -19.337 2791.931 -2894.614 -0.151 0.053 0.104 -0.01 -0.64 0.76 0.06
1 1.16 116 0.690 -9.769 1.666 -1.587 -0.488 0.885 -19.337 2791.931 -2894.614 0.026 0.139 0.003 -0.01 -0.64 0.76 0.06
1 1.17 117 0.713 -9.764 1.662 -1.221 -0.427 1.312 -64.308 2971.814 -2804.673 0.003 0.134 0.008 -0.01 -0.64 0.76 0.06
1 1.18 118 0.737 -9.750 1.599 -1.648 -0.854 1.007 -64.308 2701.840 -3059.657 -0.020 0.119 0.069 -0.01 -0.64 0.76 0.06
1 1.19 119 0.742 -9.635 1.518 -1.984 -0.824 1.160 -64.308 2701.840 -3059.657 -0.025 0.004 0.151 -0.01 -0.64 0.76 0.06
1 1.20 120 0.804 -9.620 1.681 -1.709 -0.824 0.641 -34.328 2896.863 -2804.673 -0.087 -0.010 -0.013 -0.01 -0.64 0.76 0.06
1 1.21 121 0.618 -9.745 1.714 -2.106 -1.526 1.190 55.614 2791.931 -2744.562 0.100 0.115 -0.046 -0.01 -0.64 0.76 0.06
1 1.22 122 0.718 -9.730 1.628 -1.587 -1.038 1.038 -124.269 2986.954 -2894.614 -0.001 0.100 0.041 -0.01 -0.64 0.76 0.06
1 1.23 123 0.809 -9.821 1.623 -1.495 -1.678 1.312 -124.269 2986.954 -2894.614 -0.092 0.191 0.045 -0.01 -0.64 0.76 0.06
1 1.24 124 0.737 -9.855 1.705 -1.831 -1.190 1.099 40.474 2851.892 -2879.624 -0.020 0.225 -0.037 -0 -0.64 0.76 0.06
1 1.25 125 0.742 -9.721 1.590 -1.221 -1.404 1.373 -64.308 2776.941 -2909.604 -0.024 0.090 0.077 -0.01 -0.64 0.76 0.06
1 1.26 126 0.766 -9.721 1.647 -1.160 -1.404 0.793 -64.308 2776.941 -2909.604 -0.048 0.090 0.019 -0 -0.64 0.76 0.06
1 1.27 127 0.737 -9.783 1.686 -1.160 -1.617 0.977 100.584 2956.824 -2969.565 -0.019 0.153 -0.019 -0.01 -0.64 0.76 0.06
1 1.28 128 0.733 -9.702 1.609 -1.648 -0.854 1.221 130.565 3031.925 -2999.546 -0.014 0.071 0.058 -0.01 -0.64 0.76 0.06
1 1.29 129 0.704 -9.821 1.676 -2.167 -1.007 0.641 -124.269 2956.824 -2969.565 0.015 0.191 -0.010 -0.01 -0.64 0.76 0.06
1 1.30 130 0.670 -9.826 1.532 -1.740 -1.831 0.793 -124.269 2956.824 -2969.565 0.049 0.195 0.133 -0.01 -0.64 0.76 0.06
1 1.31 131 0.742 -9.659 1.619 -1.556 -1.740 0.580 -154.250 2956.824 -2969.565 -0.023 0.028 0.046 -0.01 -0.64 0.76 0.06
1 1.32 132 0.814 -9.817 1.686 -2.289 -1.862 1.068 -94.289 2791.931 -2744.562 -0.095 0.186 -0.022 -0 -0.64 0.76 0.06
1 1.33 133 0.785 -9.793 1.738 -1.648 -1.373 1.038 -94.289 2791.931 -2744.562 -0.066 0.161 -0.079 -0 -0.64 0.76 0.06
1 1.34 134 0.761 -9.841 1.724 -2.533 -1.068 1.160 -64.308 2896.863 -2834.653 -0.042 0.209 -0.066 -0 -0.64 0.76 0.06
1 1.35 135 0.804 -9.726 1.676 -2.838 -1.221 0.977 -19.337 2986.954 -2894.614 -0.085 0.093 -0.021 -0 -0.64 0.76 0.06
1 1.36 136 0.819 -9.740 1.724 -3.082 -1.495 0.641 115.575 2851.892 -2804.673 -0.099 0.107 -0.071 -0 -0.64 0.76 0.06
1 1.37 137 0.814 -9.730 1.700 -4.883 -0.427 0.519 115.575 2851.892 -2804.673 -0.093 0.097 -0.051 -0 -0.64 0.76 0.06
1 1.38 138 0.752 -9.668 1.772 -6.592 -1.343 0.244 25.483 2836.902 -2894.614 -0.030 0.034 -0.128 -0 -0.65 0.76 0.06
1 1.39 139 0.694 -9.740 1.801 -8.514 -1.068 0.610 -64.308 2896.863 -2909.604 0.029 0.105 -0.164 -0 -0.65 0.76 0.06
1 1.40 140 0.747 -9.826 1.863 -11.078 -0.519 -0.336 -64.308 2896.863 -2909.604 -0.021 0.187 -0.248 -0 -0.65 0.76 0.06
1 1.41 141 0.804 -9.721 1.748 -14.221 -0.153 0.519 40.474 2896.863 -2834.653 -0.077 0.080 -0.148 -0 -0.65 0.76 0.06
1 1.42 142 1.020 -9.831 1.590 -15.533 1.038 0.427 25.483 2881.873 -2894.614 -0.291 0.187 -0.009 -0 -0.65 0.76 0.06
1 1.43 143 0.929 -9.764 1.551 -14.160 0.793 0.610 25.483 2881.873 -2894.614 -0.198 0.117 0.008 -0 -0.65 0.76 0.06
1 1.44 144 0.733 -9.817 1.422 -10.101 -1.648 0.488 -34.328 2926.843 -2879.624 -0.000 0.166 0.119 -0 -0.65 0.76 0.06
1 1.45 145 0.862 -10.061 1.293 -6.348 -1.190 4.669 70.604 3001.944 -2834.653 -0.128 0.408 0.233 -0 -0.65 0.76 0.06
1 1.46 146 0.613 -9.716 1.480 -2.197 -0.916 7.721 -154.250 2761.951 -2894.614 0.118 0.061 0.035 -0 -0.65 0.76 0.06
1 1.47 147 0.737 -9.501 1.480 -2.899 -0.671 3.632 -154.250 2761.951 -2894.614 -0.016 -0.155 0.031 -0.01 -0.65 0.76 0.06
1 1.48 148 0.771 -9.773 1.140 -2.533 0.366 0.671 40.474 2926.843 -2834.653 -0.055 0.116 0.364 -0.01 -0.65 0.76 0.06
1 1.49 149 0.895 -9.831 1.202 -0.092 0.946 0.763 100.584 3106.876 -2744.562 -0.180 0.173 0.298 -0.01 -0.65 0.76 0.06
1 1.50 150 0.814 -9.860 1.245 2.106 0.549 1.770 100.584 3106.876 -2744.562 -0.099 0.202 0.256 -0.01 -0.65 0.76 0.06
1 1.51 151 0.713 -9.692 1.274 1.373 0.275 -0.061 130.565 2956.824 -2819.663 0.000 0.034 0.229 -0.01 -0.65 0.76 0.06
1 1.52 152 0.795 -9.572 1.317 0.885 1.465 0.397 -49.318 2836.902 -2819.663 -0.080 -0.085 0.189 -0.01 -0.65 0.76 0.06
1 1.53 153 0.771 -9.802 1.283 -1.099 2.075 0.580 -34.328 2926.843 -2909.604 -0.056 0.145 0.224 -0.01 -0.65 0.76 0.06
1 1.54 154 0.824 -9.673 1.221 -1.007 1.892 0.916 -34.328 2926.843 -2909.604 -0.108 0.016 0.285 -0.01 -0.65 0.76 0.06
1 1.55 155 0.690 -9.750 1.264 -1.373 2.075 0.397 -64.308 2776.941 -2954.575 0.026 0.092 0.240 -0.01 -0.65 0.76 0.06
1 1.56 156 0.666 -9.850 1.350 -1.587 1.190 1.038 -34.328 3001.944 -2879.624 0.049 0.192 0.152 -0.01 -0.65 0.76 0.06
1 1.57 157 0.709 -9.888 1.355 -1.953 1.434 0.519 -34.328 3001.944 -2879.624 0.005 0.230 0.145 -0.01 -0.65 0.76 0.06
1 1.58 158 0.661 -9.927 1.465 -0.824 0.549 0.854 100.584 2836.902 -2819.663 0.052 0.268 0.033 -0.01 -0.65 0.76 0.06
1 1.59 159 0.694 -9.807 1.465 -0.366 0.336 1.160 100.584 2986.954 -2819.663 0.018 0.148 0.032 -0.01 -0.65 0.76 0.06
1 1.60 160 0.867 -9.831 1.446 0.397 -0.488 1.221 -49.318 3031.925 -2924.595 -0.155 0.172 0.050 -0.01 -0.65 0.76 0.06
1 1.61 161 0.934 -9.831 1.427 1.129 -0.336 1.434 -49.318 3031.925 -2924.595 -0.223 0.172 0.070 -0.01 -0.65 0.76 0.06
1 1.62 162 0.685 -9.817 1.427 3.082 -0.793 1.587 40.474 2971.814 -2879.624 0.027 0.159 0.077 -0.01 -0.65 0.76 0.06
1 1.63 163 0.709 -9.812 1.666 3.662 -1.282 1.129 -19.337 2881.873 -2819.663 0.001 0.155 -0.157 -0.01 -0.65 0.76 0.06
1 1.64 164 0.742 -9.802 1.475 3.479 -1.282 1.373 -19.337 2881.873 -2819.663 -0.033 0.146 0.041 -0.01 -0.65 0.76 0.06
1 1.65 165 0.771 -9.615 1.623 2.808 -1.190 1.434 25.483 2911.853 -2744.562 -0.061 -0.040 -0.102 -0.01 -0.65 0.76 0.06
1 1.66 166 0.795 -9.812 1.743 0.824 -0.610 1.770 25.483 3031.925 -2819.663 -0.086 0.157 -0.217 -0.01 -0.65 0.76 0.06
1 1.67 167 0.809 -9.730 1.609 -0.549 -0.488 1.678 25.483 2881.873 -2894.614 -0.102 0.076 -0.079 -0.01 -0.65 0.76 0.06
1 1.68 168 0.843 -9.793 1.580 -1.617 -0.641 1.953 25.483 2881.873 -2894.614 -0.136 0.139 -0.049 -0.01 -0.65 0.76 0.06
1 1.69 169 0.915 -9.826 1.657 -2.777 -0.641 1.831 10.493 2971.814 -2879.624 -0.207 0.173 -0.125 -0.01 -0.65 0.76 0.06
1 1.70 170 1.001 -10.214 1.504 -3.815 0.183 4.730 -49.318 2881.873 -2789.533 -0.294 0.560 0.023 -0.01 -0.65 0.76 0.06
1 1.71 171 0.924 -10.032 1.499 -2.502 1.587 8.728 -49.318 2881.873 -2789.533 -0.224 0.377 0.025 -0.01 -0.65 0.76 0.06
1 1.72 172 0.584 -10.281 1.288 0.641 -0.366 4.852 -94.289 2911.853 -2864.634 0.105 0.624 0.233 -0.01 -0.65 0.76 0.06
1 1.73 173 0.776 -10.343 1.365 9.277 -1.190 -0.702 55.614 2836.902 -2789.533 -0.089 0.687 0.161 -0.01 -0.65 0.76 0.06
1 1.74 174 0.852 -9.687 1.633 4.944 0.031 0.214 55.614 2956.824 -2819.663 -0.164 0.033 -0.094 -0.01 -0.65 0.76 0.06
1 1.75 175 0.742 -9.611 1.547 2.930 0.275 -0.092 55.614 2956.824 -2819.663 -0.052 -0.041 0.003 -0.01 -0.65 0.76 0.06
1 1.76 176 0.833 -9.457 1.508 3.937 0.488 -3.021 25.483 2986.954 -2894.614 -0.142 -0.193 0.049 -0.01 -0.65 0.76 0.06
1 1.77 177 0.958 -9.582 1.346 3.357 0.793 -1.648 115.575 2971.814 -2804.673 -0.256 -0.066 0.225 -0.01 -0.65 0.76 0.06
1 1.78 178 0.809 -9.515 1.226 4.120 0.458 -0.671 115.575 2971.814 -2804.673 -0.103 -0.132 0.350 -0.01 -0.65 0.76 0.06
1 1.79 179 1.020 -9.481 1.437 3.662 1.434 0.336 130.565 2836.902 -2864.634 -0.311 -0.164 0.145 -0.01 -0.65 0.76 0.06
1 1.80 180 0.761 -9.572 1.279 1.587 2.319 -0.244 40.474 2851.892 -2729.572 -0.050 -0.072 0.309 -0.01 -0.65 0.76 0.06
1 1.81 181 0.838 -9.692 1.235 2.380 1.892 -2.045 115.575 2896.863 -2909.604 -0.124 0.048 0.354 -0.01 -0.65 0.76 0.07
1 1.82 182 0.785 -9.587 1.403 3.296 3.510 -0.427 115.575 2896.863 -2909.604 -0.068 -0.056 0.190 -0.01 -0.65 0.76 0.07
1 1.83 183 0.867 -9.630 1.355 1.801 2.899 -1.740 -19.337 2956.824 -2969.565 -0.147 -0.012 0.243 -0.01 -0.65 0.76 0.07
1 1.84 184 0.809 -9.845 1.398 3.906 2.869 -0.916 55.614 2911.853 -2819.663 -0.084 0.205 0.208 -0.01 -0.65 0.76 0.07
1 1.85 185 0.742 -9.778 1.441 3.693 2.930 -0.671 55.614 2911.853 -2819.663 -0.015 0.139 0.170 -0.01 -0.65 0.76 0.07
1 1.86 186 0.771 -9.778 1.633 0.793 2.991 -1.465 55.614 2836.902 -2894.614 -0.042 0.140 -0.017 -0.01 -0.65 0.76 0.07
1 1.87 187 0.603 -9.927 1.585 1.862 1.984 -0.305 55.614 2836.902 -2894.614 0.127 0.289 0.034 -0.01 -0.65 0.76 0.07
1 1.88 188 0.522 -10.161 1.662 3.326 -1.129 -0.092 55.614 2836.902 -2864.634 0.209 0.524 -0.039 -0.01 -0.65 0.76 0.07
1 1.89 189 0.632 -10.224 1.724 4.181 -2.808 1.587 55.614 2836.902 -2864.634 0.099 0.588 -0.096 -0.01 -0.65 0.76 0.07
1 1.90 190 0.579 -10.315 1.848 4.272 -4.303 3.265 -49.318 2956.824 -2819.663 0.150 0.680 -0.213 -0.01 -0.65 0.76 0.07
1 1.91 191 0.608 -10.645 1.772 9.033 -6.897 5.280 175.536 2986.954 -2924.595 0.118 1.011 -0.129 -0.01 -0.65 0.76 0.07
1 1.92 192 0.862 -10.085 2.097 11.505 -6.836 8.026 175.536 2986.954 -2924.595 -0.149 0.456 -0.421 -0.01 -0.64 0.76 0.07
1 1.93 193 0.929 -10.094 2.217 10.132 -8.179 8.301 55.614 2881.873 -2924.595 -0.224 0.468 -0.522 -0.01 -0.64 0.76 0.07
1 1.94 194 0.661 -10.013 1.935 11.658 -6.897 5.310 55.614 2881.873 -2924.595 0.036 0.389 -0.221 -0.01 -0.64 0.76 0.07
1 1.95 195 0.666 -10.147 2.016 13.886 -6.409 4.120 100.584 2911.853 -2894.614 0.027 0.527 -0.282 -0.01 -0.64 0.76 0.06
1 1.96 196 0.685 -10.032 2.251 12.909 -7.172 2.075 100.584 2911.853 -2894.614 0.005 0.416 -0.493 -0.01 -0.64 0.77 0.06
1 1.97 197 0.670 -10.094 1.935 16.998 -9.460 0.519 -49.318 2911.853 -2864.634 0.020 0.482 -0.154 -0.01 -0.64 0.77 0.06
1 1.98 198 0.690 -9.773 1.992 17.944 -9.552 3.448 10.493 2821.912 -2909.604 0.001 0.166 -0.186 -0.01 -0.64 0.77 0.06
1 1.99 199 0.972 -9.568 2.088 14.801 -10.590 5.798 10.493 2821.912 -2909.604 -0.288 -0.030 -0.228 -0.01 -0.64 0.77 0.06
1 2.00 200 1.010 -9.826 1.887 14.771 -10.376 4.028 100.584 2791.931 -2969.565 -0.328 0.233 -0.003 -0.01 -0.64 0.77 0.06
1 2.01 201 1.154 -9.180 1.868 17.548 -10.498 4.211 100.584 2791.931 -2969.565 -0.471 -0.409 0.040 -0.01 -0.63 0.77 0.06
1 2.02 202 1.221 -9.252 1.863 17.914 -10.254 5.402 10.493 2746.811 -3089.637 -0.538 -0.331 0.071 -0 -0.63 0.77 0.06
1 2.03 203 1.274 -8.835 1.796 13.855 -7.263 12.482 -109.279 2851.892 -3029.676 -0.593 -0.743 0.163 -0 -0.63 0.77 0.06
1 2.04 204 1.149 -8.907 1.633 13.092 -7.263 8.698 55.614 2911.853 -2894.614 -0.477 -0.668 0.347 -0 -0.63 0.77 0.06
1 2.05 205 1.125 -8.835 1.657 12.848 -6.775 9.125 25.483 2761.951 -3074.647 -0.463 -0.736 0.344 -0 -0.63 0.77 0.06
1 2.06 206 0.843 -8.912 1.647 10.498 -5.707 12.878 25.483 2761.951 -3074.647 -0.199 -0.653 0.386 -0 -0.63 0.77 0.06
1 2.07 207 0.699 -9.290 1.518 12.390 -2.167 10.956 -139.259 2701.840 -3089.637 -0.071 -0.273 0.529 -0 -0.63 0.78 0.06
1 2.08 208 0.512 -9.022 1.628 14.954 -2.380 9.186 -139.259 2701.840 -3089.637 0.103 -0.538 0.439 -0 -0.63 0.78 0.06
1 2.09 209 0.575 -8.801 1.753 10.864 -0.641 8.423 10.493 2851.892 -3029.676 0.029 -0.755 0.334 -0 -0.63 0.78 0.05
1 2.10 210 0.455 -8.921 1.748 3.174 -3.052 9.247 -19.337 2791.931 -2999.546 0.136 -0.633 0.352 -0 -0.63 0.78 0.05
1 2.11 211 0.742 -8.988 1.465 3.021 -2.594 6.042 -94.289 2716.830 -3074.647 -0.165 -0.565 0.641 -0.01 -0.63 0.78 0.05
1 2.12 212 0.560 -9.026 1.652 -0.610 -4.242 6.561 -34.328 2821.912 -2954.575 0.008 -0.527 0.457 -0.01 -0.63 0.78 0.05
1 2.13 213 0.977 -9.141 1.719 -2.747 -1.190 4.089 -34.328 2821.912 -2954.575 -0.414 -0.413 0.389 -0.01 -0.63 0.78 0.05
1 2.14 214 0.910 -9.520 1.738 0.641 3.601 -2.869 -124.269 2686.850 -3119.618 -0.351 -0.035 0.367 -0.01 -0.63 0.78 0.05
1 2.15 215 1.015 -9.984 1.920 -0.061 6.622 -5.096 -124.269 2686.850 -3119.618 -0.449 0.430 0.184 -0 -0.63 0.78 0.05
1 2.16 216 1.073 -10.267 1.733 4.517 9.064 -3.174 40.474 2776.941 -3089.637 -0.497 0.713 0.373 -0.01 -0.63 0.78 0.05
1 2.17 217 0.848 -10.506 1.824 11.627 9.277 -1.526 -94.289 2686.850 -2924.595 -0.265 0.955 0.290 -0.01 -0.63 0.78 0.05
1 2.18 218 0.828 -10.956 1.810 19.470 11.566 3.906 70.604 2776.941 -3029.676 -0.245 1.408 0.320 -0.01 -0.63 0.78 0.05
1 2.19 219 0.450 -10.611 1.619 24.567 15.625 8.972 10.493 2776.941 -3059.657 0.126 1.069 0.536 -0.01 -0.62 0.78 0.05
1 2.20 220 0.426 -10.367 1.623 30.792 18.127 4.272 10.493 2776.941 -3059.657 0.134 0.832 0.568 -0.01 -0.62 0.78 0.06
1 2.21 221 0.388 -10.267 1.504 31.860 19.501 -3.357 145.555 2671.859 -3134.608 0.150 0.749 0.771 -0.01 -0.62 0.78 0.06
1 2.22 222 0.029 -10.037 1.302 28.198 21.362 2.258 144.656 2672.759 -3133.708 0.505 0.529 1.013 -0.01 -0.62 0.78 0.06
1 2.23 223 -0.182 -10.410 0.948 25.452 21.301 2.869 99.685 2687.749 -3043.617 0.702 0.911 1.403 -0.01 -0.62 0.79 0.06
1 2.24 224 0.038 -10.224 1.130 24.170 20.081 8.148 129.666 2567.827 -3118.718 0.466 0.731 1.252 -0.01 -0.62 0.79 0.06
1 2.25 225 -0.096 -10.070 1.049 19.470 20.081 8.179 114.675 2777.690 -3088.738 0.578 0.583 1.359 -0.02 -0.61 0.79 0.06
1 2.26 226 -0.642 -10.257 0.503 19.684 17.548 4.334 189.626 2582.817 -3163.689 1.101 0.773 1.923 -0.02 -0.61 0.79 0.06
1 2.27 227 -0.148 -10.444 0.862 13.062 15.717 1.556 189.626 2582.817 -3163.689 0.590 0.964 1.583 -0.02 -0.61 0.79 0.06
1 2.28 228 0.129 -11.282 1.542 12.909 17.670 11.841 99.685 2612.798 -3298.601 0.274 1.806 0.924 -0.02 -0.61 0.79 0.06
1 2.29 229 -0.105 -11.344 1.058 19.806 18.280 10.895 99.685 2612.798 -3298.601 0.488 1.873 1.430 -0.02 -0.61 0.79 0.06
1 2.30 230 0.134 -10.348 1.269 32.257 19.440 16.846 69.555 2747.710 -3088.738 0.224 0.886 1.256 -0.02 -0.61 0.79 0.06
1 2.31 231 -0.057 -9.697 1.551 35.614 20.203 23.346 99.685 2462.746 -3223.650 0.381 0.246 1.019 -0.03 -0.61 0.79 0.06
1 2.32 232 -0.460 -9.558 1.408 34.699 18.951 22.492 144.656 2582.817 -3133.708 0.739 0.118 1.210 -0.03 -0.6 0.79 0.06
1 2.33 233 -0.761 -9.443 1.298 34.699 18.127 21.545 264.578 2552.837 -3163.689 0.996 0.014 1.364 -0.03 -0.6 0.8 0.06
1 2.34 234 -0.733 -9.299 1.484 32.379 14.465 22.492 264.578 2552.837 -3163.689 0.922 -0.118 1.220 -0.03 -0.6 0.8 0.06
1 2.35 235 -0.402 -8.998 1.408 33.661 14.069 19.562 279.568 2492.726 -3118.718 0.547 -0.409 1.336 -0.04 -0.6 0.8 0.06
1 2.36 236 -0.800 -9.194 1.312 32.959 16.480 14.160 279.568 2492.726 -3118.718 0.871 -0.189 1.514 -0.04 -0.6 0.8 0.06
1 2.37 237 -0.828 -8.773 1.403 32.562 11.841 12.604 309.548 2297.703 -3403.683 0.868 -0.599 1.462 -0.04 -0.59 0.8 0.06
1 2.38 238 -0.814 -8.720 1.441 30.182 9.583 11.780 354.669 2372.804 -3298.601 0.825 -0.640 1.462 -0.04 -0.59 0.8 0.06
1 2.39 239 -0.737 -8.868 1.274 26.642 5.951 8.667 264.578 2402.785 -3208.660 0.722 -0.481 1.664 -0.04 -0.59 0.8 0.06
1 2.40 240 -0.498 -8.969 1.350 29.907 0.946 7.355 339.679 2357.814 -3238.640 0.461 -0.371 1.618 -0.04 -0.59 0.81 0.06
1 2.41 241 -0.781 -8.830 1.116 29.572 -4.486 6.928 339.679 2357.814 -3238.640 0.728 -0.499 1.885 -0.04 -0.59 0.81 0.06
1 2.42 242 -0.038 -8.658 1.475 30.212 -3.784 1.801 294.558 2252.732 -3343.722 -0.026 -0.661 1.559 -0.04 -0.59 0.81 0.06
1 2.43 243 -0.144 -8.452 1.350 31.647 0.275 -1.526 294.858 2252.583 -3343.722 0.076 -0.839 1.766 -0.04 -0.58 0.81 0.06
1 2.44 244 -0.105 -8.725 1.355 31.677 1.434 -3.723 339.829 2282.563 -3463.793 0.040 -0.550 1.808 -0.04 -0.58 0.81 0.06
1 2.45 245 -0.163 -8.916 1.465 28.656 2.258 -5.402 294.858 2357.664 -3313.741 0.103 -0.345 1.738 -0.04 -0.58 0.81 0.06
1 2.46 246 -0.182 -9.266 1.599 24.017 1.221 -7.294 294.858 2357.664 -3313.741 0.130 0.017 1.639 -0.04 -0.58 0.81 0.06
1 2.47 247 -0.177 -9.477 1.609 19.257 0.793 -8.362 294.858 2282.563 -3463.793 0.135 0.235 1.652 -0.04 -0.58 0.81 0.06
1 2.48 248 -0.024 -9.783 1.642 17.822 -1.831 -8.301 294.858 2282.563 -3463.793 -0.007 0.548 1.638 -0.04 -0.58 0.81 0.06
1 2.49 249 0.000 -9.788 1.777 16.571 -4.761 -8.698 189.776 2252.583 -3388.842 -0.019 0.558 1.518 -0.04 -0.57 0.82 0.06
1 2.50 250 0.000 -9.955 1.939 19.959 -4.700 -7.202 189.776 2252.583 -3388.842 0.010 0.736 1.383 -0.04 -0.57 0.82 0.06
1 2.51 251 -0.019 -9.860 1.906 25.391 -1.160 -2.106 249.887 2147.651 -3298.751 0.040 0.647 1.437 -0.04 -0.57 0.82 0.06
1 2.52 252 -0.196 -9.596 2.064 26.733 -3.540 -0.763 369.809 2252.583 -3463.793 0.221 0.394 1.305 -0.04 -0.57 0.82 0.06
1 2.53 253 -0.335 -9.467 2.073 26.062 -2.930 -0.305 369.809 2252.583 -3463.793 0.362 0.275 1.324 -0.04 -0.57 0.82 0.06
1 2.54 254 0.283 -8.059 2.753 18.066 0.183 0.244 414.780 2282.563 -3343.722 -0.256 -1.123 0.671 -0.04 -0.57 0.82 0.06
1 2.55 255 -0.062 -8.773 2.394 -51.392 15.686 -5.402 414.780 2282.563 -3343.722 0.091 -0.408 1.034 -0.04 -0.57 0.82 0.06
1 2.56 256 -0.378 -9.668 2.342 -60.517 13.611 -9.979 294.858 2132.661 -3568.725 0.409 0.465 1.026 -0.04 -0.57 0.82 0.06
1 2.57 257 -1.068 -10.717 2.490 -58.350 14.038 -2.258 294.858 2132.661 -3568.725 1.105 1.482 0.790 -0.04 -0.58 0.81 0.06
1 2.58 258 -1.657 -11.402 2.121 -30.975 8.118 6.470 309.848 2192.622 -3328.731 1.678 2.113 1.004 -0.04 -0.58 0.81 0.06
1 2.59 259 -2.131 -11.181 1.762 -14.557 4.364 9.460 474.741 2252.583 -3388.842 2.139 1.881 1.327 -0.04 -0.58 0.81 0.06
1 2.60 260 -2.179 -10.482 1.839 -5.432 -4.242 9.552 474.741 2252.583 -3388.842 2.172 1.177 1.236 -0.05 -0.58 0.81 0.06
1 2.61 261 -1.580 -10.592 2.145 -6.134 1.617 11.536 519.861 2162.641 -3343.722 1.562 1.285 0.922 -0.05 -0.58 0.81 0.06
1 2.62 262 -1.188 -10.329 2.006 -0.153 6.592 12.116 519.861 2162.641 -3343.722 1.152 1.020 1.056 -0.05 -0.58 0.81 0.06
1 2.63 263 -1.437 -10.530 1.619 2.411 11.261 12.848 309.848 2267.573 -3433.813 1.382 1.221 1.444 -0.05 -0.58 0.81 0.06
1 2.64 264 -1.710 -10.492 1.887 9.583 5.676 11.597 309.848 2267.573 -3433.813 1.628 1.183 1.176 -0.05 -0.58 0.81 0.06
1 2.65 265 -1.341 -11.962 5.066 -0.153 -1.526 15.595 354.819 2417.625 -3433.813 1.216 2.661 -1.982 -0.05 -0.58 0.81 0.06
1 2.66 266 0.019 -14.088 5.282 -46.448 0.824 30.884 354.819 2267.573 -3403.833 -0.168 4.783 -2.210 -0.05 -0.58 0.81 0.06
1 2.67 267 0.843 -13.671 2.969 -66.162 30.670 37.842 354.819 2267.573 -3403.833 -1.044 4.341 0.021 -0.05 -0.59 0.81 0.06
1 2.68 268 0.436 -12.785 2.073 -1.129 40.436 25.421 519.861 2282.563 -3313.741 -0.703 3.433 0.842 -0.06 -0.59 0.8 0.05
1 2.69 269 -1.087 -10.918 1.863 38.361 57.892 19.074 519.861 2282.563 -3313.741 0.767 1.572 1.070 -0.06 -0.59 0.8 0.06
1 2.70 270 -2.629 -11.306 1.834 32.318 41.809 24.231 369.809 2282.563 -3343.722 2.253 1.979 1.151 -0.07 -0.59 0.81 0.06
1 2.71 271 -1.753 -11.689 2.375 23.071 22.980 27.283 369.809 2282.563 -3343.722 1.323 2.380 0.657 -0.07 -0.58 0.81 0.06
1 2.72 272 -0.522 -10.315 1.796 13.031 14.038 23.193 609.803 2147.651 -3328.731 -0.002 1.030 1.296 -0.07 -0.58 0.81 0.06
1 2.73 273 -0.838 -9.735 1.082 19.623 23.468 20.233 444.760 2282.563 -3313.741 0.274 0.458 2.024 -0.08 -0.58 0.81 0.06
1 2.74 274 -1.192 -9.687 1.207 23.468 22.339 9.399 444.760 2282.563 -3313.741 0.591 0.417 1.913 -0.08 -0.58 0.81 0.06
1 2.75 275 -0.996 -9.884 2.102 34.393 19.989 6.958 519.861 2132.661 -3388.842 0.367 0.623 1.041 -0.08 -0.58 0.81 0.06
1 2.76 276 -1.389 -9.405 2.758 5.829 28.015 7.843 624.793 2282.563 -3343.722 0.735 0.157 0.417 -0.08 -0.58 0.81 0.06
1 2.77 277 -1.571 -9.256 3.304 -22.553 27.863 6.470 534.852 2297.553 -3298.751 0.890 0.014 -0.118 -0.08 -0.57 0.81 0.06
1 2.78 278 -1.470 -9.319 3.658 -40.497 24.353 1.740 534.852 2297.553 -3298.751 0.761 0.069 -0.498 -0.09 -0.58 0.81 0.06
1 2.79 279 -1.513 -9.113 3.931 -46.662 20.477 -2.167 684.754 2162.641 -3313.741 0.782 -0.153 -0.823 -0.09 -0.58 0.81 0.06
1 2.80 280 -1.935 -8.265 3.965 -45.380 1.709 -13.062 669.764 2222.602 -3433.813 1.189 -1.039 -0.979 -0.09 -0.58 0.81 0.06
1 2.81 281 -1.642 -8.088 4.166 -40.802 -11.475 -17.395 669.764 2222.602 -3433.813 0.911 -1.234 -1.233 -0.09 -0.59 0.8 0.06
1 2.82 282 -0.924 -7.815 4.707 -27.832 -17.517 -12.573 654.773 2282.563 -3268.771 0.216 -1.521 -1.814 -0.09 -0.59 0.8 0.06
1 2.83 283 -0.081 -7.245 5.153 -14.465 -17.944 -5.493 684.754 2282.563 -3163.839 -0.608 -2.098 -2.277 -0.09 -0.59 0.8 0.06
1 2.84 284 0.685 -7.528 4.971 -0.854 -13.794 3.540 654.773 2357.664 -3268.771 -1.358 -1.815 -2.089 -0.09 -0.59 0.8 0.06
1 2.85 285 0.670 -7.327 5.057 -2.014 -14.160 5.402 654.773 2357.664 -3268.771 -1.339 -2.017 -2.176 -0.08 -0.59 0.8 0.06
1 2.86 286 0.737 -7.159 4.650 -4.150 -15.350 6.470 624.793 2207.612 -3313.741 -1.401 -2.182 -1.760 -0.08 -0.59 0.8 0.06
1 2.87 287 0.441 -7.714 4.640 -4.639 -28.137 13.550 519.861 2207.612 -3058.757 -1.098 -1.624 -1.740 -0.08 -0.59 0.8 0.05
1 2.88 288 0.814 -8.045 4.487 -4.272 -29.083 18.677 519.861 2207.612 -3058.757 -1.474 -1.290 -1.576 -0.08 -0.59 0.8 0.05
1 2.89 289 0.508 -8.591 4.496 7.568 -29.175 29.602 369.809 2282.563 -3163.839 -1.176 -0.738 -1.569 -0.08 -0.59 0.8 0.05
1 2.90 290 0.575 -8.409 4.520 16.876 -23.010 21.423 579.822 2267.573 -3073.748 -1.262 -0.909 -1.562 -0.08 -0.59 0.81 0.05
1 2.91 291 0.699 -9.745 4.501 1.587 -10.407 -4.974 459.750 2297.553 -3253.780 -1.392 0.440 -1.505 -0.08 -0.58 0.81 0.05
1 2.92 292 -0.125 -10.722 4.166 -9.979 -11.353 -9.033 459.750 2297.553 -3253.780 -0.548 1.423 -1.147 -0.08 -0.58 0.81 0.05
1 2.93 293 -0.982 -11.636 3.836 -9.094 -11.780 -7.660 579.822 2072.550 -3148.699 0.331 2.335 -0.820 -0.07 -0.58 0.81 0.05
1 2.94 294 -1.317 -10.884 3.654 6.042 -21.484 -1.587 549.842 2402.635 -3163.839 0.694 1.578 -0.647 -0.07 -0.58 0.81 0.05
1 2.95 295 -0.766 -10.463 3.371 10.223 -22.064 -5.920 549.842 2402.635 -3163.839 0.158 1.160 -0.350 -0.07 -0.58 0.81 0.04
1 2.96 296 0.019 -11.038 3.524 10.437 -24.567 -7.935 504.871 2297.553 -3253.780 -0.606 1.739 -0.486 -0.07 -0.58 0.81 0.04
1 2.97 297 0.359 -10.113 3.730 9.583 -26.795 -9.338 534.852 2192.622 -3298.751 -0.924 0.820 -0.673 -0.07 -0.58 0.81 0.04
1 2.98 298 1.006 -10.310 3.314 9.369 -26.276 -13.062 309.848 2222.602 -3373.702 -1.537 1.020 -0.238 -0.06 -0.58 0.81 0.04
1 2.99 299 1.068 -9.754 3.362 13.947 -19.196 -20.844 309.848 2222.602 -3373.702 -1.565 0.469 -0.268 -0.06 -0.58 0.81 0.04
1 3.00 300 1.006 -9.208 3.204 12.299 -16.968 -21.057 339.829 2207.612 -3343.722 -1.458 -0.072 -0.089 -0.06 -0.58 0.81 0.04
1 3.01 301 0.268 -9.184 2.682 13.611 -17.029 -18.890 354.819 2267.573 -3223.800 -0.672 -0.092 0.454 -0.06 -0.58 0.81 0.04
1 3.02 302 0.192 -8.423 2.868 3.265 -26.978 -21.484 354.819 2267.573 -3223.800 -0.509 -0.845 0.300 -0.05 -0.58 0.81 0.04
1 3.03 303 0.330 -8.481 2.452 -0.885 -32.288 -19.318 444.760 2162.641 -3268.771 -0.602 -0.787 0.722 -0.05 -0.58 0.81 0.05
1 3.04 304 0.699 -7.614 2.653 -4.334 -38.300 -15.625 369.809 2132.661 -3268.771 -0.926 -1.656 0.520 -0.05 -0.58 0.81 0.04
1 3.05 305 0.771 -7.523 2.480 -9.583 -40.253 -14.252 174.786 2267.573 -3178.829 -0.958 -1.750 0.686 -0.04 -0.58 0.81 0.04
1 3.06 306 1.925 -7.480 2.399 -3.754 -22.736 -36.224 174.786 2267.573 -3178.829 -2.069 -1.797 0.757 -0.04 -0.58 0.81 0.04
1 3.07 307 1.235 -7.422 2.011 -0.946 -19.592 -33.142 414.780 2207.612 -3163.839 -1.321 -1.857 1.138 -0.04 -0.58 0.81 0.04
1 3.08 308 0.584 -7.504 1.824 -8.514 -23.468 -29.083 369.809 2087.690 -3268.771 -0.611 -1.776 1.325 -0.03 -0.58 0.81 0.05
1 3.09 309 0.469 -7.231 1.614 -12.451 -27.466 -19.196 369.809 2087.690 -3268.771 -0.396 -2.057 1.512 -0.03 -0.58 0.81 0.05
1 3.10 310 0.239 -7.121 1.657 -18.158 -37.842 -10.651 174.786 2147.651 -3178.829 -0.127 -2.173 1.451 -0.03 -0.58 0.81 0.05
1 3.11 311 0.881 -6.963 1.963 -23.132 -39.337 -9.949 129.815 2297.553 -3148.699 -0.735 -2.339 1.117 -0.02 -0.59 0.81 0.05
1 3.12 312 1.657 -7.068 1.891 -18.951 -25.330 -18.768 144.806 2087.690 -3208.810 -1.476 -2.244 1.158 -0.02 -0.59 0.81 0.04
1 3.13 313 1.523 -7.188 1.590 -14.801 -18.616 -20.325 144.806 2087.690 -3208.810 -1.303 -2.131 1.434 -0.02 -0.59 0.81 0.04
1 3.14 314 1.207 -6.872 1.638 -16.083 -13.550 -15.381 144.806 2162.641 -3028.777 -0.949 -2.453 1.368 -0.02 -0.59 0.81 0.05
1 3.15 315 0.675 -7.647 1.279 -18.127 -7.629 -15.656 -35.077 2282.563 -3238.790 -0.386 -1.682 1.707 -0.02 -0.59 0.81 0.05
1 3.16 316 0.737 -7.911 1.590 -13.763 -4.944 -9.705 -35.077 2282.563 -3238.790 -0.396 -1.432 1.349 -0.01 -0.59 0.8 0.05
1 3.17 317 0.603 -8.437 1.250 -1.587 2.502 -6.012 54.864 2192.622 -3178.829 -0.247 -0.909 1.675 -0.01 -0.59 0.8 0.05
1 3.18 318 0.383 -8.466 1.269 11.932 6.989 -0.549 -35.077 2132.661 -3163.839 -0.021 -0.879 1.660 -0.01 -0.59 0.8 0.05
1 3.19 319 -0.038 -8.093 1.365 18.097 5.859 5.981 -35.077 2132.661 -3163.839 0.396 -1.246 1.586 -0.01 -0.59 0.81 0.05
1 3.20 320 0.053 -8.567 1.484 23.468 13.245 6.958 39.874 2327.684 -3238.790 0.294 -0.763 1.494 -0.01 -0.59 0.81 0.05
1 3.21 321 0.091 -8.902 1.623 26.001 14.801 3.601 -50.067 2192.622 -3118.718 0.240 -0.418 1.388 -0.01 -0.59 0.81 0.05
1 3.22 322 0.273 -9.405 2.251 11.871 14.435 1.251 -95.038 2222.602 -3118.718 0.046 0.097 0.800 -0.01 -0.59 0.81 0.05
1 3.23 323 -0.393 -9.654 1.920 -8.606 8.118 2.380 -95.038 2222.602 -3118.718 0.701 0.352 1.148 -0.02 -0.59 0.81 0.05
1 3.24 324 -0.101 -9.912 2.169 -75.714 -21.576 -8.881 -20.087 1997.599 -3148.699 0.405 0.584 0.818 -0.02 -0.59 0.81 0.05
1 3.25 325 0.761 -10.884 2.696 -92.163 -26.337 -15.900 -35.077 2162.641 -3028.777 -0.436 1.518 0.167 -0.01 -0.59 0.8 0.05
1 3.26 326 1.135 -12.431 1.858 -65.308 -15.259 -31.494 -35.077 2162.641 -3028.777 -0.769 3.029 0.880 -0.01 -0.6 0.8 0.05
1 3.27 327 2.088 -13.643 1.623 -28.687 -2.960 -30.457 9.744 2132.661 -3088.738 -1.666 4.219 1.034 -0.01 -0.6 0.8 0.05
1 3.28 328 0.939 -11.943 1.030 -10.864 4.852 -15.717 39.874 2357.664 -2953.826 -0.479 2.512 1.597 -0.01 -0.6 0.79 0.05
1 3.29 329 0.048 -11.430 0.508 -22.400 -1.648 -17.120 -110.028 2582.667 -2983.806 0.432 1.998 2.107 -0.01 -0.61 0.79 0.05
1 3.30 330 0.206 -12.134 -0.168 -33.997 -5.432 -26.215 -108.979 2581.468 -2985.005 0.300 2.697 2.759 -0.01 -0.61 0.79 0.05
1 3.31 331 1.374 -12.580 0.014 -36.194 -12.909 -18.036 -153.950 2461.546 -2970.015 -0.792 3.120 2.481 -0 -0.61 0.79 0.05
1 3.32 332 1.508 -13.872 5.291 -39.856 -4.150 -12.726 -153.950 2341.475 -3044.966 -0.896 4.401 -2.849 -0 -0.61 0.79 0.05
1 3.33 333 -0.924 -17.723 6.805 -96.711 2.228 -43.762 -153.950 2341.475 -3044.966 1.563 8.237 -4.428 -0 -0.62 0.79 0.06
1 3.34 334 0.599 -16.928 0.781 -175.110 -73.517 -78.308 -108.979 2356.615 -2985.005 0.126 7.404 1.412 0 -0.62 0.78 0.06
1 3.35 335 1.049 -15.735 0.790 -25.787 -50.354 -47.058 -259.031 2356.615 -2834.953 -0.186 6.171 1.163 0.01 -0.63 0.77 0.06
1 3.36 336 1.240 -11.531 -0.345 18.433 -43.244 -42.755 -64.008 2551.488 -2774.992 -0.280 1.959 2.214 0.01 -0.64 0.77 0.06
1 3.37 337 -0.627 -10.291 0.158 17.426 -62.836 -30.792 -64.008 2551.488 -2774.992 1.664 0.729 1.723 0.02 -0.64 0.77 0.06
1 3.38 338 1.642 -9.261 2.270 41.535 -77.240 -16.022 -274.021 2566.478 -2789.982 -0.482 -0.281 -0.360 0.03 -0.63 0.77 0.06
1 3.39 339 3.275 -8.888 3.160 38.361 -45.838 14.435 -393.943 2506.517 -2730.021 -2.081 -0.639 -1.196 0.04 -0.63 0.77 0.05
1 3.40 340 3.194 -8.227 4.410 5.890 -18.189 22.919 -393.943 2506.517 -2730.021 -2.000 -1.290 -2.397 0.04 -0.63 0.77 0.05
1 3.41 341 1.882 -8.361 4.587 -32.868 -18.951 1.587 -529.005 2461.546 -2715.031 -0.695 -1.155 -2.567 0.04 -0.63 0.78 0.05
1 3.42 342 2.337 -8.514 5.325 -56.702 -14.954 -19.684 -377.304 2413.578 -2793.430 -1.127 -1.007 -3.343 0.04 -0.63 0.77 0.05
1 3.43 343 3.098 -9.232 5.469 -47.486 -2.106 -34.058 -332.333 2503.669 -2733.469 -1.844 -0.295 -3.547 0.04 -0.63 0.77 0.05
1 3.44 344 3.816 -9.218 5.306 -50.049 4.272 -38.300 -332.333 2503.669 -2733.469 -2.509 -0.314 -3.443 0.04 -0.63 0.77 0.05
1 3.45 345 4.415 -10.707 4.161 -43.640 13.184 -37.811 -512.366 2353.617 -2658.518 -3.052 1.170 -2.366 0.05 -0.64 0.77 0.05
1 3.46 346 3.199 -10.937 3.074 26.520 12.909 -40.619 -437.265 2623.591 -2523.456 -1.725 1.401 -1.363 0.05 -0.64 0.76 0.06
1 3.47 347 1.781 -8.955 3.199 65.003 13.062 -27.466 -437.265 2623.591 -2523.456 -0.254 -0.563 -1.429 0.05 -0.64 0.77 0.06
1 3.48 348 1.197 -8.212 4.525 75.714 25.971 -17.334 -542.347 2503.669 -2583.417 0.361 -1.278 -2.644 0.05 -0.63 0.77 0.07
1 3.49 349 0.407 -8.165 4.425 69.519 28.839 -14.435 -677.259 2488.679 -2688.499 1.166 -1.296 -2.409 0.05 -0.63 0.77 0.07
1 3.50 350 0.153 -10.530 3.611 57.556 10.162 -31.647 -662.269 2353.617 -2628.388 1.430 1.096 -1.481 0.05 -0.62 0.78 0.07
1 3.51 351 1.753 -10.741 3.510 52.002 15.686 -21.790 -662.269 2353.617 -2628.388 -0.150 1.334 -1.278 0.05 -0.62 0.78 0.07
1 3.52 352 0.886 -9.568 3.802 37.903 -0.854 -6.500 -452.255 2458.548 -2493.476 0.752 0.187 -1.486 0.05 -0.62 0.78 0.07
1 3.53 353 1.528 -9.745 3.797 23.407 12.573 18.402 -602.308 2488.679 -2823.411 0.115 0.394 -1.366 0.05 -0.61 0.79 0.07
1 3.54 354 0.761 -9.065 3.232 17.731 21.271 26.093 -602.308 2488.679 -2823.411 0.844 -0.281 -0.758 0.05 -0.61 0.79 0.07
1 3.55 355 0.010 -9.074 2.811 13.733 15.350 29.755 -587.317 2353.617 -2778.440 1.546 -0.270 -0.299 0.05 -0.61 0.79 0.07
1 3.56 356 0.043 -9.122 2.394 13.641 12.634 29.907 -542.347 2203.564 -2658.518 1.455 -0.224 0.145 0.04 -0.61 0.79 0.07
1 3.57 357 0.196 -9.156 2.346 16.785 11.688 34.363 -527.356 2218.555 -2823.411 1.243 -0.193 0.218 0.04 -0.61 0.79 0.07
1 3.58 358 0.680 -8.754 2.346 21.607 10.040 40.405 -527.356 2218.555 -2823.411 0.694 -0.597 0.248 0.04 -0.61 0.79 0.06
1 3.59 359 0.206 -8.844 1.877 21.851 12.543 46.478 -527.356 2293.656 -2793.430 1.098 -0.507 0.749 0.04 -0.6 0.79 0.06
1 3.60 360 0.024 -8.256 2.011 14.954 16.785 52.277 -527.356 2218.555 -2688.499 1.131 -1.098 0.676 0.03 -0.6 0.8 0.06
1 3.61 361 0.000 -7.997 1.839 13.916 13.550 53.009 -527.356 2218.555 -2688.499 1.073 -1.359 0.873 0.03 -0.6 0.8 0.05
1 3.62 362 0.259 -7.599 1.820 15.961 16.907 46.875 -362.314 2353.617 -2808.420 0.735 -1.758 0.917 0.03 -0.6 0.8 0.05
1 3.63 363 -0.125 -8.179 1.561 22.247 14.893 46.356 -362.314 2353.617 -2808.420 1.044 -1.178 1.205 0.02 -0.6 0.8 0.05
1 3.64 364 -0.512 -7.303 1.896 20.966 8.942 54.871 -377.304 2218.555 -2823.411 1.358 -2.050 0.905 0.02 -0.6 0.8 0.05
1 3.65 365 -1.235 -7.432 1.499 24.170 -2.197 62.836 -377.304 2218.555 -2823.411 2.002 -1.918 1.335 0.02 -0.6 0.8 0.04
1 3.66 366 -0.603 -7.298 1.911 28.748 -6.592 55.573 -287.363 2083.643 -2808.420 1.280 -2.048 0.959 0.01 -0.59 0.8 0.04
1 3.67 367 0.220 -7.111 2.409 30.426 -2.014 44.220 -302.353 2188.574 -2973.463 0.377 -2.228 0.502 0.01 -0.59 0.8 0.04
1 3.68 368 0.034 -7.020 2.011 34.027 2.075 34.943 -302.353 2188.574 -2973.463 0.444 -2.296 0.993 0.01 -0.59 0.81 0.03
1 3.69 369 -0.029 -6.910 1.882 34.729 -1.801 28.778 -212.262 2128.613 -2913.502 0.458 -2.392 1.173 0.01 -0.59 0.81 0.03
1 3.70 370 -0.402 -7.264 1.575 32.654 -10.223 27.283 -212.262 2128.613 -2913.502 0.792 -2.023 1.529 0.01 -0.58 0.81 0.02
1 3.71 371 -0.661 -7.307 1.355 33.417 -19.348 28.381 -197.271 2188.574 -2898.512 1.018 -1.965 1.796 0.01 -0.58 0.81 0.02
1 3.72 372 0.029 -6.421 1.322 35.034 -25.086 12.878 -197.271 2188.574 -2898.512 0.302 -2.835 1.879 0.01 -0.58 0.81 0.02
1 3.73 373 0.144 -6.939 1.216 28.442 -18.951 14.160 17.089 2123.067 -3067.452 0.176 -2.300 2.038 0.01 -0.58 0.82 0.02
1 3.74 374 0.623 -6.465 1.135 28.595 -20.294 3.845 -117.823 1988.155 -3052.461 -0.313 -2.759 2.162 0.01 -0.58 0.82 0.02
1 3.75 375 0.455 -7.781 1.341 14.221 -15.015 -6.653 -117.823 1988.155 -3052.461 -0.134 -1.415 2.030 0.01 -0.57 0.82 0.01
1 3.76 376 0.618 -7.916 1.801 -9.186 -3.479 -12.848 -297.706 2138.057 -3007.341 -0.279 -1.275 1.585 0.01 -0.57 0.82 0.01
1 3.77 377 0.215 -9.271 1.920 -31.830 0.549 -16.174 -297.706 2138.057 -3007.341 0.146 0.073 1.444 0.01 -0.57 0.82 0.01
1 3.78 378 0.546 -9.443 2.433 -24.353 -5.096 -23.895 -252.735 2123.067 -2917.399 -0.159 0.231 0.887 0.01 -0.57 0.82 0.02
1 3.79 379 0.819 -8.447 2.662 -38.666 0.702 -14.099 -297.706 2033.125 -2932.390 -0.400 -0.779 0.614 0.01 -0.58 0.82 0.02
1 3.80 380 1.001 -9.424 2.634 -58.930 -5.035 -4.730 -252.735 2123.067 -3037.471 -0.555 0.181 0.592 0.02 -0.58 0.82 0.02
1 3.81 381 0.723 -10.286 2.643 -58.716 -8.575 5.798 -297.706 2033.125 -3052.461 -0.259 1.017 0.504 0.02 -0.58 0.81 0.02
1 3.82 382 -0.101 -10.640 2.921 -52.674 -15.442 8.759 -297.706 2033.125 -3052.461 0.564 1.314 0.052 0.02 -0.59 0.81 0.02
1 3.83 383 0.795 -10.434 3.237 -50.018 -9.094 4.639 -342.827 2138.057 -3007.341 -0.336 1.085 -0.336 0.02 -0.59 0.8 0.01
1 3.84 384 0.891 -11.684 2.710 -49.194 -2.655 9.155 -342.827 2138.057 -3007.341 -0.437 2.312 0.117 0.02 -0.6 0.8 0.01
1 3.85 385 0.934 -11.325 2.040 -39.398 4.303 13.123 -207.765 2198.168 -2917.399 -0.493 1.933 0.722 0.02 -0.6 0.8 0.01
1 3.86 386 0.570 -11.636 1.537 -40.283 4.944 6.104 -384.949 2313.593 -2786.535 -0.147 2.227 1.169 0.02 -0.6 0.8 0.01
1 3.87 387 0.421 -11.933 0.862 -31.067 11.719 9.735 -369.809 2253.632 -2756.554 -0.007 2.508 1.789 0.02 -0.6 0.8 0.01
1 3.88 388 -0.019 -11.603 -0.005 -34.088 15.411 10.101 -384.949 2193.671 -2816.515 0.418 2.164 2.611 0.02 -0.61 0.8 0.01
1 3.89 389 -0.498 -11.588 -0.383 -51.148 16.388 10.864 -384.949 2193.671 -2816.515 0.879 2.137 2.945 0.02 -0.61 0.79 0.01
1 3.90 390 -1.068 -13.825 -0.881 -60.944 17.487 25.177 -204.917 2148.700 -2741.564 1.396 4.331 3.291 0.01 -0.61 0.79 0.01
1 3.91 391 -1.283 -15.534 7.810 -29.144 -28.504 51.697 -204.917 2148.700 -2741.564 1.556 6.020 -5.476 0.01 -0.62 0.79 0.01
1 3.92 392 2.729 -17.258 3.965 -159.180 -11.627 60.028 -264.877 2403.684 -2756.554 -2.523 7.726 -1.700 0.01 -0.62 0.78 0.01
1 3.93 393 4.338 -18.225 2.820 -236.298 20.355 65.186 -264.877 2403.684 -2651.623 -4.221 8.628 -0.843 0.01 -0.63 0.78 0
1 3.94 394 0.081 -12.944 -1.293 -14.374 49.866 78.339 -204.917 2388.694 -2666.613 -0.069 3.288 2.971 -0 0.64 -0.77 0
1 3.95 395 -2.926 -9.271 1.935 70.557 46.845 65.094 -129.815 2658.668 -2456.600 2.813 -0.397 -0.332 0 0.65 -0.76 0
1 3.96 396 -0.819 -10.085 5.248 40.253 48.035 68.238 -129.815 2658.668 -2456.600 0.585 0.433 -3.567 0.01 0.64 -0.77 0.01
1 3.97 397 -2.452 -8.576 3.951 -17.151 44.281 54.657 79.898 2538.596 -2381.499 1.973 -1.049 -2.172 0.02 0.64 -0.77 0.01
1 3.98 398 -3.151 -7.518 5.512 -19.257 25.940 20.722 85.894 2533.050 -2386.445 2.579 -2.105 -3.748 0.03 0.64 -0.77 0.01
1 3.99 399 -1.839 -7.499 6.125 -25.208 0.092 4.425 -48.868 2533.050 -2536.348 1.223 -2.122 -4.363 0.03 0.64 -0.77 0.01
1 4.00 400 -1.020 -8.811 6.527 -44.129 -19.989 11.810 -3.897 2593.011 -2506.367 0.386 -0.810 -4.775 0.03 0.64 -0.77 0.01
1 4.01 401 -1.753 -10.645 5.694 -47.638 -31.159 28.839 70.904 2548.040 -2551.338 1.099 1.016 -3.990 0.03 0.64 -0.77 0.02
1 4.02 402 -2.615 -12.316 4.109 -32.318 -36.286 46.173 40.923 2593.011 -2296.354 1.924 2.679 -2.467 0.03 0.64 -0.76 0.02
1 4.03 403 -3.108 -10.971 3.204 2.441 -36.224 37.964 40.923 2593.011 -2296.354 2.361 1.330 -1.610 0.03 0.65 -0.76 0.02
1 4.04 404 -2.073 -9.184 2.978 49.439 -45.960 14.282 -3.897 2593.011 -2371.455 1.247 -0.442 -1.337 0.03 0.64 -0.76 0.03
1 4.05 405 -0.737 -8.327 3.587 53.864 -49.103 6.226 -3.897 2593.011 -2371.455 -0.099 -1.282 -1.856 0.03 0.64 -0.77 0.03
1 4.06 406 0.187 -8.428 3.630 56.153 -50.415 13.916 -93.989 2758.053 -2386.445 -1.021 -1.163 -1.799 0.02 0.64 -0.77 0.04
1 4.07 407 1.815 -9.419 3.946 60.120 -40.558 13.855 130.865 2727.923 -2566.328 -2.649 -0.151 -2.008 0.02 0.63 -0.77 0.04
1 4.08 408 1.528 -10.688 2.888 65.918 -23.499 22.247 -78.849 2593.011 -2506.367 -2.352 1.139 -0.845 0.02 0.63 -0.78 0.04
1 4.09 409 2.112 -9.285 3.702 54.718 -14.984 11.444 -123.969 2563.030 -2566.328 -2.961 -0.241 -1.562 0.02 0.62 -0.78 0.05
1 4.10 410 1.968 -8.284 3.314 31.586 -0.519 3.418 -123.969 2563.030 -2566.328 -2.821 -1.219 -1.079 0.02 0.62 -0.78 0.05
1 4.11 411 1.030 -8.265 2.682 8.698 -13.306 -3.387 -33.878 2667.962 -2551.338 -1.866 -1.224 -0.378 0.02 0.62 -0.78 0.05
1 4.12 412 1.968 -8.332 2.950 -8.820 -11.841 -16.602 -33.878 2667.962 -2551.338 -2.761 -1.153 -0.618 0.01 0.62 -0.79 0.05
1 4.13 413 1.796 -9.261 2.409 -2.838 -5.890 -20.722 55.914 2487.929 -2491.377 -2.547 -0.229 -0.082 0.01 0.62 -0.79 0.05
1 4.14 414 1.642 -8.557 2.595 0.916 -2.289 -23.743 70.904 2548.040 -2761.351 -2.343 -0.937 -0.268 0.01 0.62 -0.79 0.04
1 4.15 415 1.456 -8.054 2.476 0.824 -5.737 -24.689 55.914 2487.929 -2491.377 -2.102 -1.441 -0.141 0.01 0.62 -0.79 0.04
1 4.16 416 1.595 -7.939 2.715 -16.632 -2.869 -33.417 -48.868 2457.949 -2641.429 -2.192 -1.559 -0.379 0.01 0.62 -0.79 0.04
1 4.17 417 1.901 -7.489 2.605 -23.529 -3.540 -35.492 -48.868 2457.949 -2641.429 -2.450 -2.017 -0.286 0 0.62 -0.79 0.04
1 4.18 418 1.614 -8.289 2.145 -22.156 -3.387 -34.454 -108.979 2518.060 -2626.439 -2.110 -1.227 0.143 0 0.62 -0.78 0.04
1 4.19 419 1.451 -8.256 1.853 -7.690 1.129 -31.036 -108.979 2518.060 -2626.439 -1.845 -1.278 0.380 -0 0.62 -0.78 0.03
1 4.20 420 0.867 -7.839 1.595 -2.777 3.632 -38.635 -33.878 2472.939 -2371.455 -1.206 -1.699 0.632 -0 0.62 -0.78 0.03
1 4.21 421 0.685 -8.222 1.551 -1.648 -0.336 -38.574 -93.989 2487.929 -2596.458 -0.967 -1.318 0.672 -0 0.62 -0.78 0.03
1 4.22 422 0.532 -7.963 1.279 3.235 -2.747 -31.891 -93.989 2487.929 -2596.458 -0.757 -1.578 0.945 -0.01 0.62 -0.78 0.03
1 4.23 423 0.623 -7.978 1.221 4.242 0.610 -37.415 -168.940 2563.030 -2671.410 -0.799 -1.563 1.010 -0.01 0.62 -0.78 0.03
1 4.24 424 0.431 -8.035 1.006 4.944 7.141 -36.804 -168.940 2563.030 -2671.410 -0.556 -1.505 1.234 -0.01 0.62 -0.78 0.02
1 4.25 425 -0.067 -7.336 0.991 5.585 7.050 -38.391 -123.969 2563.030 -2461.396 -0.004 -2.203 1.255 -0.01 0.62 -0.78 0.02
1 4.26 426 -1.001 -6.919 1.159 10.040 -4.028 -27.191 -123.969 2563.030 -2461.396 1.032 -2.614 1.111 -0.02 0.62 -0.78 0.02
1 4.27 427 -1.374 -6.508 0.986 13.702 -8.789 -19.989 -273.872 2457.949 -2356.465 1.446 -3.022 1.300 -0.02 0.62 -0.79 0.02
1 4.28 428 -0.752 -6.369 1.087 14.618 -9.155 -20.111 -333.982 2548.040 -2551.338 0.857 -3.155 1.221 -0.02 0.62 -0.79 0.01
1 4.29 429 -0.115 -6.551 0.996 11.261 -5.615 -22.949 -331.584 2544.892 -2555.085 0.255 -2.967 1.334 -0.02 0.62 -0.79 0.01
1 4.30 430 1.034 -7.121 0.953 7.233 7.935 -30.609 -181.532 2544.892 -2510.115 -0.854 -2.393 1.393 -0.02 0.62 -0.79 0.01
1 4.31 431 1.144 -8.006 0.503 15.198 16.663 -23.926 -181.532 2544.892 -2510.115 -0.923 -1.503 1.856 -0.02 0.62 -0.79 0.01
1 4.32 432 0.555 -7.935 0.306 24.445 15.595 -14.740 -271.623 2454.951 -2495.125 -0.301 -1.569 2.072 -0.02 0.61 -0.79 0.01
1 4.33 433 0.824 -7.997 0.555 17.792 11.810 -11.444 -271.623 2454.951 -2495.125 -0.549 -1.497 1.859 -0.02 0.61 -0.79 0.01
1 4.34 434 1.269 -8.562 0.431 -4.272 11.658 -5.890 -271.623 2560.032 -2600.056 -0.971 -0.920 2.029 -0.02 0.61 -0.79 0
1 4.35 435 1.499 -9.103 0.441 -20.569 11.414 -3.265 -256.633 2590.013 -2630.187 -1.197 -0.381 2.009 -0.02 0.61 -0.79 0
1 4.36 436 1.887 -10.564 0.924 -41.870 12.054 -0.549 -256.633 2590.013 -2630.187 -1.574 1.068 1.478 -0.02 0.61 -0.79 0
1 4.37 437 1.987 -12.757 0.848 -46.814 17.792 1.282 -286.613 2514.912 -2555.085 -1.668 3.242 1.479 -0.02 0.62 -0.79 0
1 4.38 438 1.666 -13.451 0.742 -29.297 20.172 -2.777 -286.613 2514.912 -2555.085 -1.353 3.921 1.518 -0.02 0.62 -0.78 0
1 4.39 439 1.302 -13.082 1.111 -6.134 26.337 -5.798 -181.532 2590.013 -2555.085 -0.993 3.540 1.102 0.02 -0.62 0.78 0
1 4.40 440 0.498 -12.034 1.226 6.256 27.466 -2.258 -181.532 2590.013 -2555.085 -0.192 2.488 0.971 0.02 -0.62 0.78 0
1 4.41 441 0.661 -12.991 1.379 16.022 31.769 -2.991 -106.581 2439.960 -2585.066 -0.359 3.452 0.845 0.02 -0.62 0.78 0.01
1 4.42 442 -1.097 -11.368 0.790 21.423 36.438 -2.014 -286.613 2514.912 -2480.134 1.390 1.835 1.463 0.01 -0.62 0.78 0.01
1 4.43 443 -1.370 -11.277 0.733 21.851 29.144 -7.568 -286.613 2514.912 -2480.134 1.657 1.752 1.555 0.01 -0.62 0.79 0.01
1 4.44 444 -4.123 -8.988 -0.493 24.078 6.439 1.648 -286.613 2619.993 -2510.115 4.412 -0.528 2.818 0.01 -0.62 0.79 0.01
1 4.45 445 -2.543 -10.554 -0.101 3.784 -21.149 3.601 -286.613 2619.993 -2510.115 2.815 1.043 2.447 0.01 -0.62 0.79 0.01
1 4.46 446 -0.177 -11.464 0.417 -27.344 -29.602 14.923 -241.643 2560.032 -2540.095 0.454 1.953 1.928 0.01 -0.62 0.79 0.01
1 4.47 447 0.852 -11.919 -0.642 -36.621 -16.510 12.817 -241.643 2560.032 -2540.095 -0.591 2.396 2.942 0.01 -0.62 0.79 0.01
1 4.48 448 1.159 -12.120 -1.714 -41.565 -1.434 -1.068 -331.584 2469.941 -2660.167 -0.918 2.570 3.901 0.01 -0.62 0.78 0
1 4.49 449 1.906 -14.701 7.954 -19.684 18.005 -12.024 -316.594 2484.931 -2645.177 -1.654 5.139 -5.822 0.01 -0.63 0.78 0
1 4.50 450 -1.930 -17.177 8.777 -84.900 34.607 -60.669 -316.594 2484.931 -2645.177 2.203 7.610 -6.670 0.01 -0.63 0.78 0.01
1 4.51 451 -0.206 -16.118 0.517 -281.770 -9.155 -106.598 -196.522 2724.925 -2495.125 0.585 6.510 1.374 0.02 -0.64 0.77 0.01
1 4.52 452 2.227 -13.403 -0.460 -46.509 -42.175 -85.846 -196.522 2605.003 -2645.177 -1.681 3.734 1.959 0.02 -0.65 0.76 0.02
1 4.53 453 2.792 -9.323 2.337 61.890 -26.367 -56.885 -346.574 2724.925 -2390.043 -2.099 -0.359 -0.988 0.03 -0.66 0.75 0.02
1 4.54 454 0.441 -10.382 4.286 42.114 -40.589 -28.656 -346.574 2724.925 -2390.043 0.355 0.717 -2.870 0.03 -0.65 0.76 0.02
1 4.55 455 2.260 -9.826 4.765 27.435 -41.992 -17.426 -496.626 2830.006 -2390.043 -1.392 0.180 -3.268 0.04 -0.65 0.76 0.02
1 4.56 456 4.080 -9.237 6.393 -6.775 -2.411 -1.465 -511.617 2694.944 -2255.131 -3.155 -0.395 -4.841 0.04 -0.65 0.76 0.02
1 4.57 457 2.519 -9.615 5.694 -20.722 15.869 -12.390 -511.617 2694.944 -2255.131 -1.589 -0.018 -4.155 0.04 -0.65 0.76 0.02
1 4.58 458 1.465 -10.650 5.028 -19.745 26.733 -33.386 -361.564 2694.944 -2450.154 -0.513 1.014 -3.518 0.04 -0.65 0.76 0.02
1 4.59 459 1.523 -11.038 3.692 1.160 32.654 -53.833 -526.607 2679.954 -2465.144 -0.517 1.405 -2.198 0.04 -0.65 0.76 0.03
1 4.60 460 2.720 -10.884 3.026 18.738 36.286 -56.427 -376.555 2649.974 -2360.062 -1.638 1.262 -1.517 0.05 -0.65 0.76 0.03
1 4.61 461 3.117 -9.941 3.400 38.635 37.109 -41.412 -376.555 2649.974 -2360.062 -1.956 0.333 -1.859 0.05 -0.65 0.76 0.04
1 4.62 462 2.145 -8.509 3.295 48.493 40.680 -37.201 -481.636 2769.896 -2255.131 -0.927 -1.082 -1.695 0.05 -0.65 0.76 0.04
1 4.63 463 1.307 -8.006 3.625 42.542 45.715 -36.011 -421.525 2649.974 -2315.092 0.013 -1.541 -1.854 0.05 -0.64 0.77 0.05
1 4.64 464 1.317 -9.424 3.845 44.739 40.039 -41.962 -421.525 2649.974 -2315.092 0.049 -0.101 -1.987 0.05 -0.63 0.77 0.05
1 4.65 465 1.082 -9.927 3.180 51.300 38.544 -32.074 -526.607 2560.032 -2540.095 0.329 0.427 -1.227 0.05 -0.63 0.77 0.06
1 4.66 466 0.613 -9.520 3.515 35.492 26.154 -22.461 -481.636 2739.915 -2660.167 0.830 0.043 -1.479 0.05 -0.63 0.77 0.06
1 4.67 467 -0.273 -8.318 3.553 20.538 7.599 -11.047 -481.636 2664.964 -2480.134 1.733 -1.143 -1.453 0.05 -0.63 0.78 0.06
1 4.68 468 0.383 -8.840 3.539 11.353 20.264 8.423 -481.636 2664.964 -2480.134 1.083 -0.609 -1.390 0.04 -0.62 0.78 0.06
1 4.69 469 -0.287 -8.792 2.907 8.850 17.090 14.465 -496.626 2649.974 -2600.056 1.737 -0.651 -0.722 0.04 -0.62 0.78 0.06
1 4.70 470 -0.412 -8.030 2.988 11.475 9.644 15.778 -406.535 2469.941 -2705.138 1.789 -1.410 -0.748 0.04 -0.62 0.78 0.06
1 4.71 471 -1.235 -8.485 2.021 14.465 12.146 17.273 -406.535 2469.941 -2705.138 2.579 -0.955 0.242 0.04 -0.62 0.78 0.06
1 4.72 472 -1.097 -8.801 2.035 18.158 6.134 22.461 -481.636 2590.013 -2555.085 2.403 -0.637 0.256 0.04 -0.62 0.78 0.06
1 4.73 473 -0.326 -7.781 2.878 16.052 2.808 27.985 -586.568 2514.912 -2585.066 1.586 -1.656 -0.558 0.04 -0.62 0.78 0.06
1 4.74 474 -0.728 -8.505 2.284 17.456 1.007 33.020 -406.535 2664.964 -2630.187 1.950 -0.932 0.062 0.03 -0.62 0.79 0.06
1 4.75 475 -0.488 -7.839 2.591 16.663 -9.918 41.748 -406.535 2664.964 -2630.187 1.648 -1.598 -0.214 0.03 -0.61 0.79 0.06
1 4.76 476 0.053 -8.069 2.275 9.430 -7.690 42.297 -511.617 2590.013 -2585.066 1.053 -1.367 0.129 0.03 -0.61 0.79 0.05
1 4.77 477 0.306 -7.657 2.203 5.585 -7.233 38.880 -436.516 2590.013 -2585.066 0.743 -1.781 0.217 0.03 -0.61 0.79 0.05
1 4.78 478 0.417 -7.288 1.863 7.721 -6.012 38.513 -436.516 2590.013 -2585.066 0.522 -2.157 0.577 0.03 -0.61 0.79 0.04
1 4.79 479 -0.014 -7.168 1.925 10.345 -3.662 36.224 -361.564 2619.993 -2480.134 0.902 -2.278 0.528 0.03 -0.61 0.79 0.04
1 4.80 480 -0.804 -7.432 1.432 10.773 -6.805 41.260 -406.535 2664.964 -2630.187 1.642 -2.015 1.038 0.02 -0.61 0.79 0.04
1 4.81 481 -1.020 -6.919 1.695 11.536 -20.630 60.211 -346.574 2605.003 -2600.056 1.794 -2.528 0.791 0.02 -0.61 0.79 0.03
1 4.82 482 0.469 -7.130 2.035 8.118 -12.268 45.929 -346.574 2605.003 -2600.056 0.227 -2.320 0.465 0.02 -0.61 0.79 0.03
1 4.83 483 0.838 -7.365 1.470 8.331 -3.143 38.300 -286.613 2739.915 -2630.187 -0.205 -2.087 1.042 0.02 -0.61 0.79 0.03
1 4.84 484 1.073 -7.508 1.623 12.909 -3.845 33.539 -436.516 2664.964 -2630.187 -0.496 -1.943 0.901 0.02 -0.61 0.79 0.02
1 4.85 485 -0.369 -8.500 0.833 21.332 -8.575 34.577 -436.516 2664.964 -2630.187 0.854 -0.945 1.736 0.02 -0.61 0.79 0.02
1 4.86 486 0.038 -7.906 1.408 27.588 -22.156 44.434 -316.594 2605.003 -2645.177 0.398 -1.532 1.195 0.02 -0.61 0.8 0.02
1 4.87 487 0.867 -8.002 1.609 20.599 -17.151 38.056 -331.584 2739.915 -2810.069 -0.482 -1.428 1.031 0.02 -0.6 0.8 0.01
1 4.88 488 0.455 -8.184 0.781 18.219 -13.611 31.159 -256.633 2590.013 -2735.118 -0.116 -1.240 1.888 0.02 -0.6 0.8 0.01
1 4.89 489 0.704 -8.308 0.929 18.890 -14.038 23.956 -256.633 2590.013 -2735.118 -0.401 -1.109 1.768 0.01 -0.6 0.8 0.01
1 4.90 490 0.354 -8.519 1.063 21.973 -27.985 18.555 -331.584 2514.912 -2765.099 -0.079 -0.891 1.662 0.01 -0.6 0.8 0
1 4.91 491 0.599 -9.194 0.733 28.687 -14.099 12.451 -91.590 2529.902 -2795.079 -0.348 -0.212 2.006 0.02 -0.6 0.8 0
1 4.92 492 0.292 -9.773 0.881 48.493 -17.975 5.768 -91.590 2529.902 -2795.079 -0.051 0.389 1.933 -0.02 0.6 -0.8 0
1 4.93 493 0.192 -9.884 0.986 60.028 -20.538 1.984 -271.623 2649.974 -2795.079 0.052 0.518 1.888 -0.02 0.59 -0.8 0
1 4.94 494 1.125 -9.180 2.054 65.582 -15.961 -2.899 -271.623 2560.032 -2795.079 -0.874 -0.162 0.896 -0.02 0.59 -0.81 0
1 4.95 495 1.877 -8.586 2.591 8.575 13.214 -7.690 -271.623 2560.032 -2795.079 -1.608 -0.733 0.430 -0.02 0.59 -0.81 0
1 4.96 496 0.766 -10.046 2.361 -77.362 4.669 -6.744 -211.512 2619.993 -2885.170 -0.481 0.724 0.646 -0.02 0.59 -0.81 0
1 4.97 497 0.455 -11.789 2.308 -89.661 -3.876 2.411 -376.555 2529.902 -2855.040 -0.164 2.435 0.599 -0.02 0.59 -0.81 0
1 4.98 498 0.761 -12.489 1.920 -65.216 -6.531 6.134 -196.522 2649.974 -2795.079 -0.467 3.096 0.859 -0.02 0.6 -0.8 0
1 4.99 499 0.661 -12.517 1.619 -34.760 -9.583 8.423 -196.522 2649.974 -2795.079 -0.370 3.095 1.058 -0.02 0.6 -0.8 0
1 5.00 500 0.278 -12.139 0.848 24.170 -14.465 7.690 -256.633 2514.912 -2810.069 -0.004 2.698 1.766 -0.02 0.61 -0.8 0
1 5.01 501 1.240 -11.861 1.619 36.621 -8.545 12.756 -121.571 2800.026 -2795.079 -0.971 2.432 1.037 -0.02 0.6 -0.8 0.01
1 5.02 502 1.030 -9.893 0.838 0.305 12.421 16.419 -121.571 2800.026 -2795.079 -0.782 0.476 1.863 -0.02 0.6 -0.8 0.01
1 5.03 503 0.479 -10.793 0.330 -31.006 9.064 9.186 -331.584 2619.993 -2765.099 -0.249 1.369 2.348 -0.02 0.6 -0.8 0.01
1 5.04 504 -0.134 -12.067 -0.723 -28.107 7.568 13.550 -121.571 2454.951 -2750.108 0.350 2.627 3.347 -0.02 0.6 -0.8 0.01
1 5.05 505 -0.599 -11.756 -1.092 -17.853 4.730 22.217 -196.522 2605.003 -2825.060 0.796 2.304 3.672 -0.02 0.61 -0.79 0.01
1 5.06 506 -0.982 -11.679 1.767 -13.275 -0.824 22.583 -196.522 2605.003 -2825.060 1.147 2.219 0.786 -0.02 0.61 -0.79 0.01
1 5.07 507 4.276 -16.540 9.089 -108.460 -9.125 72.357 -121.571 2560.032 -2645.177 -4.208 7.067 -6.577 -0.01 0.61 -0.79 0.01
1 5.08 508 2.926 -16.760 2.907 -279.969 41.412 79.102 -136.561 2739.915 -2660.167 -2.970 7.226 -0.641 -0.01 0.62 -0.78 0.02
1 5.09 509 2.998 -16.966 -1.820 -118.042 51.788 67.505 -136.561 2739.915 -2660.167 -3.163 7.352 3.715 -0 0.64 -0.77 0.02
1 5.10 510 -0.747 -11.871 -1.331 71.442 55.237 72.266 -136.561 2859.987 -2885.170 0.463 2.242 3.130 0 0.64 -0.77 0.02
1 5.11 511 -3.529 -10.961 5.287 66.132 21.545 73.090 -121.571 2904.958 -2540.095 3.128 1.362 -3.353 0.01 0.63 -0.77 0.02
1 5.12 512 -2.399 -10.937 5.971 -23.468 27.161 77.606 -46.620 3025.029 -2600.056 1.879 1.369 -3.917 0.01 0.63 -0.78 0.03
1 5.13 513 -2.284 -9.491 4.477 -62.317 31.159 69.428 -46.320 3024.879 -2600.506 1.641 -0.071 -2.427 0.02 0.63 -0.78 0.03
1 5.14 514 -1.173 -8.505 4.362 -2.380 18.066 18.860 163.543 2829.856 -2645.477 0.333 -1.071 -2.452 0.03 0.63 -0.77 0.03
1 5.15 515 -1.398 -9.376 5.449 41.992 3.693 13.641 133.563 3099.831 -2495.424 0.530 -0.189 -3.503 0.03 0.63 -0.77 0.04
1 5.16 516 -1.590 -10.348 6.728 22.766 -8.759 17.334 133.563 3099.831 -2495.424 0.700 0.800 -4.709 0.03 0.63 -0.78 0.04
1 5.17 517 -1.906 -12.024 5.469 -10.651 -18.524 32.501 223.504 3039.870 -2555.385 0.991 2.483 -3.426 0.03 0.63 -0.78 0.04
1 5.18 518 -2.658 -12.469 3.644 -1.282 -21.790 35.980 328.586 2964.918 -2585.516 1.699 2.930 -1.615 0.03 0.63 -0.78 0.04
1 5.19 519 -1.930 -10.817 3.314 63.416 -30.975 13.214 388.547 2754.905 -2675.457 0.933 1.286 -1.265 0.03 0.63 -0.78 0.04
1 5.20 520 -1.030 -8.251 3.500 80.017 -40.283 0.458 390.795 2753.256 -2677.106 0.021 -1.261 -1.367 0.03 0.62 -0.78 0.05
1 5.21 521 0.651 -7.523 4.209 71.717 -46.784 3.601 45.870 2933.289 -2587.165 -1.655 -1.961 -1.952 0.03 0.62 -0.78 0.05
1 5.22 522 1.959 -7.781 4.224 52.551 -22.400 12.848 270.874 2933.289 -2767.197 -2.949 -1.647 -1.740 0.02 0.61 -0.79 0.05
1 5.23 523 1.006 -11.248 3.141 74.463 -0.336 15.015 270.874 2933.289 -2767.197 -1.993 1.844 -0.567 0.02 0.61 -0.79 0.05
1 5.24 524 -0.508 -9.031 3.462 104.431 -3.784 5.524 225.753 2738.266 -2587.165 -0.490 -0.335 -0.757 0.02 0.6 -0.8 0.05
1 5.25 525 -0.369 -6.900 4.544 63.568 15.442 -10.040 120.821 2693.295 -2662.116 -0.624 -2.424 -1.696 0.02 0.6 -0.8 0.05
1 5.26 526 -1.901 -6.680 3.012 18.372 -13.123 -26.001 285.864 2723.276 -2827.158 0.922 -2.622 -0.089 0.02 0.59 -0.8 0.05
1 5.27 527 -0.790 -6.843 3.084 -5.951 -22.919 -24.811 285.864 2723.276 -2827.158 -0.150 -2.452 -0.124 0.02 0.59 -0.81 0.05
1 5.28 528 0.311 -7.140 2.864 -21.484 -23.224 -26.764 300.854 2588.214 -2917.100 -1.205 -2.158 0.102 0.02 0.59 -0.81 0.05
1 5.29 529 2.528 -7.504 2.193 -15.442 -10.162 -43.488 300.854 2588.214 -2917.100 -3.316 -1.819 0.723 0.02 0.59 -0.8 0.05
1 5.30 530 2.366 -7.106 2.212 -10.315 -6.165 -48.218 300.854 2588.214 -2917.100 -3.084 -2.228 0.686 0.01 0.59 -0.8 0.04
1 5.31 531 1.341 -6.541 2.299 -20.142 -14.313 -37.476 225.753 2693.295 -2887.119 -1.990 -2.802 0.585 0.01 0.59 -0.8 0.04
1 5.32 532 1.235 -6.383 2.399 -36.621 -22.125 -33.661 -73.602 2587.914 -3022.631 -1.823 -2.974 0.452 0.01 0.6 -0.8 0.04
1 5.33 533 1.599 -7.145 2.437 -39.520 -17.212 -30.548 31.180 2827.908 -2977.660 -2.129 -2.232 0.362 0 0.6 -0.8 0.04
1 5.34 534 1.470 -6.354 2.112 -32.166 -5.859 -34.393 31.180 2827.908 -2977.660 -1.949 -3.040 0.635 0 0.6 -0.8 0.04
1 5.35 535 0.632 -7.868 1.815 -32.257 0.061 -36.316 -88.592 2677.855 -2902.709 -1.061 -1.543 0.886 -0 0.6 -0.8 0.04
1 5.36 536 -0.814 -8.854 1.140 -25.574 -5.463 -29.877 -13.641 2602.904 -2857.588 0.492 -0.585 1.475 -0 0.61 -0.8 0.03
1 5.37 537 -0.565 -8.801 1.350 -19.928 -10.773 -22.003 -13.641 2602.904 -2857.588 0.285 -0.650 1.226 -0.01 0.61 -0.79 0.03
1 5.38 538 -0.192 -7.887 1.350 -11.231 -11.719 -22.919 -118.573 2752.807 -2752.657 -0.057 -1.574 1.195 -0.01 0.61 -0.79 0.03
1 5.39 539 0.441 -7.437 1.317 -8.545 -3.021 -35.858 -118.573 2752.807 -2752.657 -0.648 -2.028 1.218 -0.01 0.61 -0.79 0.03
1 5.40 540 0.014 -7.279 1.020 -19.684 -0.519 -28.351 -133.563 2737.816 -2632.585 -0.167 -2.190 1.501 -0.01 0.61 -0.79 0.03
1 5.41 541 -0.402 -7.130 0.881 -18.036 -0.366 -19.775 -133.563 2737.816 -2632.585 0.296 -2.346 1.614 -0.01 0.61 -0.79 0.03
1 5.42 542 -0.536 -7.264 0.814 -12.817 0.488 -20.355 -13.641 2752.807 -2722.676 0.461 -2.219 1.655 -0.01 0.61 -0.79 0.02
1 5.43 543 -0.527 -7.671 0.613 -7.538 -1.831 -14.801 -178.534 2962.820 -2737.667 0.481 -1.817 1.837 -0.01 0.61 -0.79 0.02
1 5.44 544 -0.618 -8.054 0.627 -7.507 1.434 -7.751 -178.534 2962.820 -2737.667 0.619 -1.439 1.803 -0.02 0.61 -0.79 0.02
1 5.45 545 -0.062 -8.069 0.560 -8.789 -4.547 6.592 -118.573 2872.878 -2797.627 0.068 -1.428 1.860 -0.02 0.61 -0.79 0.02
1 5.46 546 -0.397 -9.486 0.225 -1.709 0.793 8.392 -118.573 2872.878 -2797.627 0.398 -0.013 2.186 -0.02 0.61 -0.79 0.02
1 5.47 547 -0.177 -8.576 0.575 -2.838 -7.935 17.975 -133.563 2692.846 -2767.647 0.159 -0.924 1.829 -0.02 0.61 -0.79 0.02
1 5.48 548 -0.220 -9.596 0.551 -8.331 -12.909 12.024 -133.563 2692.846 -2767.647 0.178 0.093 1.840 -0.02 0.61 -0.79 0.02
1 5.49 549 0.249 -10.520 0.977 -6.195 -12.238 1.007 -238.645 2902.859 -2797.627 -0.309 1.011 1.390 -0.02 0.62 -0.79 0.02
1 5.50 550 -0.072 -10.564 1.034 -10.559 -8.209 0.763 -163.543 2797.927 -2827.608 0.009 1.048 1.308 -0.02 0.62 -0.79 0.03
1 5.51 551 0.259 -10.832 1.480 -34.821 -5.524 -17.609 -163.543 2797.927 -2827.608 -0.312 1.299 0.793 -0.02 0.62 -0.78 0.03
1 5.52 552 1.312 -11.866 1.791 -16.083 -9.460 -42.297 -133.563 2857.888 -2842.598 -1.325 2.322 0.435 -0.02 0.62 -0.78 0.02
1 5.53 553 2.227 -12.230 2.160 -1.007 -3.784 -33.539 -133.563 2857.888 -2842.598 -2.174 2.682 0.049 -0.02 0.62 -0.78 0.02
1 5.54 554 1.930 -11.924 1.839 4.944 5.127 -17.273 -194.124 3068.051 -2826.109 -1.831 2.377 0.373 -0.02 0.62 -0.78 0.02
1 5.55 555 1.365 -11.598 1.676 0.641 12.604 -9.583 -179.133 2888.019 -2766.148 -1.245 2.054 0.545 -0.02 0.62 -0.78 0.02
1 5.56 556 0.790 -10.789 1.705 -2.045 11.200 -7.111 -134.163 3008.090 -2811.119 -0.660 1.245 0.519 -0.02 0.62 -0.78 0.02
1 5.57 557 0.019 -11.349 1.178 -9.277 12.634 -10.559 -74.202 2932.989 -2886.070 0.119 1.806 1.048 -0.02 0.62 -0.78 0.02
1 5.58 558 -0.196 -11.517 1.154 -12.451 19.684 12.024 -74.202 2932.989 -2886.070 0.358 1.967 1.041 -0.02 0.62 -0.78 0.01
1 5.59 559 -1.140 -10.458 0.101 6.317 24.262 9.155 -194.124 2903.009 -2901.060 1.274 0.906 2.083 -0.02 0.62 -0.78 0.01
1 5.60 560 -1.619 -10.473 -0.627 7.599 6.226 -12.848 -194.124 2903.009 -2901.060 1.737 0.921 2.817 -0.02 0.62 -0.78 0.01
1 5.61 561 -1.628 -10.171 -0.828 -27.649 -23.804 -15.106 -164.143 2978.110 -2856.089 1.764 0.617 3.008 -0.02 0.62 -0.78 0.01
1 5.62 562 -0.656 -11.071 0.163 -60.486 -35.370 -14.771 -254.234 2858.038 -2886.070 0.810 1.501 1.942 -0.02 0.63 -0.78 0.01
1 5.63 563 -2.916 -17.023 9.132 -109.375 -18.127 -43.274 -269.225 2948.129 -2826.109 3.103 7.431 -7.133 -0.02 0.63 -0.78 0.01
1 5.64 564 -1.030 -18.450 -0.608 -242.036 -32.837 -100.098 -134.163 2888.019 -2916.050 1.274 8.832 2.472 -0.03 0.64 -0.77 0.01
1 5.65 565 1.513 -17.708 0.086 -123.780 -79.590 -100.159 -134.163 2888.019 -2916.050 -1.132 8.038 1.460 -0.03 0.65 -0.76 0.01
1 5.66 566 3.117 -10.535 -0.259 76.935 -36.499 -64.881 -344.176 2978.110 -2676.057 -2.428 0.847 1.566 -0.05 0.66 -0.75 0
1 5.67 567 0.685 -9.970 0.493 51.941 -40.344 -46.509 -344.176 2978.110 -2676.057 0.099 0.304 0.921 -0.05 0.65 -0.76 0
1 5.68 568 2.145 -10.482 3.141 48.737 -72.113 -24.292 -524.208 2978.110 -2541.145 -1.282 0.833 -1.663 -0.06 0.65 -0.76 0
1 5.69 569 3.735 -9.903 3.898 34.699 -39.124 0.763 -613.400 3217.054 -2763.600 -2.831 0.267 -2.358 -0.06 0.65 -0.76 0
1 5.70 570 2.696 -8.294 6.058 -32.288 -6.348 -13.306 -493.479 3022.031 -2673.658 -1.786 -1.335 -4.480 -0.07 0.64 -0.76 0.01
1 5.71 571 2.126 -8.955 5.828 -62.195 0.275 -35.156 -673.511 3141.953 -2673.658 -1.201 -0.678 -4.278 -0.07 0.65 -0.76 0.01
1 5.72 572 2.672 -10.607 5.258 -42.877 6.744 -55.268 -673.511 3141.953 -2673.658 -1.695 0.969 -3.774 -0.07 0.65 -0.76 0
1 5.73 573 3.620 -11.023 4.051 -4.456 16.663 -61.371 -703.492 3096.982 -2793.580 -2.479 1.391 -2.656 0.07 -0.65 0.76 0
1 5.74 574 4.109 -11.004 3.165 -12.756 28.015 -52.307 -703.492 3096.982 -2793.580 -2.883 1.381 -1.775 0.08 -0.65 0.76 0.01
1 5.75 575 3.544 -10.401 2.720 0.824 25.360 -38.300 -853.394 3096.982 -2493.625 -2.249 0.785 -1.339 0.08 -0.65 0.76 0.01
1 5.76 576 1.963 -8.279 3.160 37.354 33.783 -29.907 -838.404 3081.992 -2583.717 -0.623 -1.327 -1.760 0.08 -0.65 0.76 0.02
1 5.77 577 1.073 -7.264 3.553 77.027 40.772 -37.720 -883.524 3156.943 -2553.586 0.308 -2.323 -2.066 0.08 -0.65 0.76 0.02
1 5.78 578 0.915 -7.796 4.104 71.564 42.877 -38.544 -733.472 3111.973 -2658.668 0.513 -1.764 -2.487 0.08 -0.64 0.76 0.02
1 5.79 579 1.786 -12.249 3.098 72.266 37.567 -44.220 -733.472 3111.973 -2658.668 -0.313 2.718 -1.356 0.08 -0.64 0.77 0.03
1 5.80 580 0.474 -9.247 4.022 42.084 23.407 -25.421 -568.430 3067.002 -2718.629 1.094 -0.224 -2.050 0.08 -0.63 0.77 0.03
1 5.81 581 0.153 -8.538 3.907 11.749 14.069 -17.761 -568.430 3067.002 -2718.629 1.440 -0.915 -1.873 0.08 -0.62 0.78 0.04
1 5.82 582 -0.254 -7.978 3.912 -2.075 6.042 -8.850 -778.443 3067.002 -2928.642 1.857 -1.467 -1.845 0.08 -0.62 0.78 0.04
1 5.83 583 0.852 -8.830 3.591 -3.021 26.795 10.864 -763.453 2886.969 -2943.632 0.741 -0.613 -1.509 0.07 -0.62 0.78 0.04
1 5.84 584 0.306 -9.252 2.868 3.601 24.506 14.038 -733.472 2886.969 -2808.720 1.255 -0.192 -0.767 0.07 -0.62 0.78 0.04
1 5.85 585 0.225 -9.232 2.682 5.920 20.325 16.449 -838.404 2856.989 -2808.720 1.302 -0.213 -0.563 0.07 -0.62 0.78 0.04
1 5.86 586 -0.536 -9.544 2.078 14.099 11.932 21.271 -838.404 2856.989 -2808.720 2.025 0.096 0.059 0.07 -0.62 0.78 0.04
1 5.87 587 0.431 -8.801 2.658 18.494 10.986 29.175 -673.511 3022.031 -2928.642 1.017 -0.646 -0.493 0.07 -0.62 0.78 0.04
1 5.88 588 0.211 -8.351 2.150 27.069 9.888 34.790 -673.511 3022.031 -2928.642 1.126 -1.096 0.085 0.06 -0.62 0.78 0.03
1 5.89 589 0.235 -8.318 2.198 32.593 14.099 38.300 -748.462 3067.002 -2853.691 1.042 -1.127 0.083 0.06 -0.62 0.78 0.03
1 5.90 590 -0.019 -8.021 2.117 32.806 10.376 47.455 -658.521 2812.018 -2913.652 1.229 -1.420 0.216 0.06 -0.61 0.79 0.03
1 5.91 591 0.038 -8.011 2.231 27.344 7.050 49.439 -748.462 2977.061 -3077.795 1.100 -1.426 0.152 0.05 -0.61 0.79 0.03
1 5.92 592 0.225 -7.427 2.035 20.538 22.614 40.405 -493.329 2872.129 -2927.743 0.839 -2.008 0.390 0.05 -0.61 0.79 0.02
1 5.93 593 -0.225 -7.264 1.700 20.020 21.973 34.912 -493.329 2872.129 -2927.743 1.223 -2.169 0.761 0.05 -0.61 0.79 0.02
1 5.94 594 -1.408 -8.069 1.389 22.919 17.273 30.090 -613.400 2857.139 -2987.854 2.345 -1.362 1.107 0.04 -0.61 0.79 0.02
1 5.95 595 -1.360 -7.441 1.671 27.466 -4.181 51.209 -613.400 2857.139 -2987.854 2.174 -1.980 0.901 0.04 -0.61 0.79 0.02
1 5.96 596 -0.206 -7.389 1.556 30.884 2.350 33.569 -568.430 2947.080 -3152.746 0.953 -2.027 1.057 0.04 -0.6 0.8 0.01
1 5.97 597 0.158 -7.240 1.542 36.896 6.195 24.963 -418.377 2902.109 -3107.775 0.543 -2.165 1.120 0.04 -0.6 0.8 0.01
1 5.98 598 0.388 -7.063 1.235 41.046 3.296 23.743 -418.377 2902.109 -3107.775 0.275 -2.329 1.483 0.04 -0.6 0.8 0.01
1 5.99 599 0.326 -7.097 1.226 44.464 -3.754 27.130 -358.417 2932.090 -3137.756 0.302 -2.279 1.555 0.03 -0.6 0.8 0.01
1 6.00 600 0.062 -6.943 1.173 43.915 -10.925 26.398 -358.417 2932.090 -3137.756 0.531 -2.415 1.673 0.03 -0.59 0.8 0.01
1 6.01 601 -0.388 -7.619 0.838 41.718 -18.768 26.489 -433.368 2932.090 -3137.756 0.947 -1.722 2.074 0.03 -0.59 0.81 0
1 6.02 602 -0.010 -7.489 1.010 43.244 -24.201 25.757 -433.368 2932.090 -3137.756 0.540 -1.834 1.961 0.03 -0.59 0.81 0
1 6.03 603 0.335 -7.226 1.097 50.171 -10.010 9.399 -374.906 2903.608 -3357.363 0.152 -2.057 2.005 -0.03 0.58 -0.81 0
1 6.04 604 0.029 -7.595 1.293 53.223 -13.123 -0.824 -435.017 2768.696 -3192.320 0.455 -1.664 1.882 -0.03 0.58 -0.81 0
1 6.05 605 -0.330 -7.992 1.465 52.216 -14.496 -9.338 -435.017 2768.696 -3192.320 0.826 -1.239 1.786 -0.03 0.58 -0.82 0.01
1 6.06 606 -0.464 -8.198 2.418 36.072 -19.623 -7.782 -420.026 2723.576 -3402.333 0.983 -1.007 0.903 -0.04 0.57 -0.82 0.01
1 6.07 607 -0.287 -8.299 3.022 -20.660 -3.174 9.888 -420.026 2723.576 -3402.333 0.830 -0.885 0.355 -0.04 0.57 -0.82 0.01
1 6.08 608 -0.230 -8.701 3.031 -90.088 -7.507 13.001 -420.026 2528.703 -3282.262 0.767 -0.486 0.338 -0.04 0.57 -0.82 0.01
1 6.09 609 -0.053 -10.142 2.734 -140.076 -17.822 12.299 -420.026 2528.703 -3282.262 0.572 0.917 0.531 -0.04 0.58 -0.82 0.01
1 6.10 610 0.316 -12.283 2.222 -142.731 -28.168 19.684 -374.906 2558.683 -3357.363 0.179 2.923 0.639 -0.04 0.59 -0.8 0.01
1 6.11 611 0.445 -13.044 1.705 -102.570 -29.389 23.895 -329.935 2618.644 -3192.320 0.033 3.626 0.961 -0.04 0.6 -0.8 0.01
1 6.12 612 0.958 -13.097 1.322 -58.411 -23.804 23.987 -329.935 2618.644 -3192.320 -0.499 3.642 1.214 -0.04 0.61 -0.79 0.02
1 6.13 613 2.073 -12.675 1.245 -36.133 -15.747 23.590 -344.925 3173.583 -3177.330 -1.641 3.199 1.215 -0.04 0.61 -0.79 0.02
1 6.14 614 3.414 -11.387 0.402 -20.660 3.845 23.102 -344.925 3173.583 -3177.330 -3.011 1.898 2.011 -0.04 0.61 -0.79 0.02
1 6.15 615 3.563 -10.362 0.283 -10.162 17.120 15.259 -405.036 3113.622 -3087.239 -3.193 0.864 2.099 -0.04 0.61 -0.79 0.02
1 6.16 616 2.591 -10.291 -0.527 2.686 25.910 11.963 -405.036 3113.622 -3087.239 -2.250 0.786 2.892 -0.04 0.61 -0.79 0.02
1 6.17 617 0.685 -10.837 -0.675 9.033 25.574 17.670 -420.026 3068.651 -3177.330 -0.377 1.330 3.036 -0.04 0.62 -0.79 0.02
1 6.18 618 -0.297 -12.738 -1.288 28.198 19.440 52.796 -344.925 3143.602 -3072.249 0.560 3.232 3.658 -0.03 0.61 -0.79 0.02
1 6.19 619 -0.589 -10.942 -1.135 30.823 17.151 37.445 -344.925 3143.602 -3072.249 0.776 1.446 3.552 -0.03 0.61 -0.79 0.02
1 6.20 620 -0.713 -11.861 1.288 14.557 10.345 37.079 -239.994 3098.631 -3102.229 0.840 2.372 1.156 -0.03 0.61 -0.79 0.02
1 6.21 621 0.182 -15.836 8.682 -24.078 -9.369 48.767 -239.994 3098.631 -3102.229 -0.114 6.349 -6.224 -0.02 0.61 -0.79 0.03
1 6.22 622 0.555 -15.132 1.164 -266.877 5.768 68.543 -254.984 2963.569 -3312.242 -0.564 5.623 1.206 -0.02 0.62 -0.79 0.03
1 6.23 623 0.929 -14.696 -0.101 -162.812 39.154 69.550 -254.984 2963.569 -3312.242 -1.038 5.108 2.123 -0.02 0.63 -0.78 0.03
1 6.24 624 -1.484 -11.742 3.232 37.689 21.301 66.315 -134.912 3188.573 -3012.288 1.154 2.091 -1.563 -0.01 0.64 -0.76 0.04
1 6.25 625 -1.413 -11.631 4.281 9.399 15.625 65.247 -164.893 3233.693 -2847.245 0.981 1.994 -2.554 -0.01 0.64 -0.77 0.04
1 6.26 626 -1.963 -9.917 4.276 -44.739 24.628 73.975 -165.942 3233.394 -2844.397 1.428 0.283 -2.561 -0 0.64 -0.77 0.04
1 6.27 627 -0.982 -7.125 4.726 -32.959 35.767 57.099 -180.932 3443.407 -2874.527 0.335 -2.514 -3.080 0 0.64 -0.76 0.05
1 6.28 628 -1.154 -7.997 5.162 18.250 12.451 34.577 149.003 3263.374 -2829.407 0.420 -1.639 -3.537 0.01 0.65 -0.76 0.05
1 6.29 629 -1.489 -8.471 5.603 9.552 -5.157 26.459 -30.880 3338.325 -2874.527 0.695 -1.155 -3.943 0.01 0.64 -0.76 0.05
1 6.30 630 -1.398 -9.539 5.809 -11.749 -12.726 25.696 -30.880 3338.325 -2874.527 0.562 -0.074 -4.098 0.01 0.64 -0.76 0.05
1 6.31 631 -1.623 -10.425 4.913 -9.094 -9.796 26.001 119.022 3413.426 -2829.407 0.751 0.816 -3.195 0.01 0.64 -0.76 0.05
1 6.32 632 -2.203 -10.674 3.864 13.825 -12.787 19.775 163.993 3308.345 -2964.469 1.263 1.069 -2.159 0.01 0.64 -0.76 0.06
1 6.33 633 -2.490 -10.070 3.802 31.525 -19.989 10.895 163.993 3308.345 -2964.469 1.527 0.474 -2.066 0.01 0.64 -0.76 0.06
1 6.34 634 -1.628 -8.830 3.979 46.997 -29.816 -3.754 43.921 3443.407 -3009.439 0.659 -0.756 -2.186 0.01 0.64 -0.77 0.06
1 6.35 635 -0.412 -8.567 3.912 72.876 -39.032 -3.845 294.708 3443.107 -2928.942 -0.548 -1.001 -2.020 0.01 0.64 -0.77 0.06
1 6.36 636 1.475 -9.319 4.482 74.585 -41.382 -2.625 84.695 3503.068 -2883.971 -2.413 -0.224 -2.457 0.01 0.63 -0.77 0.06
1 6.37 637 2.227 -9.596 4.755 53.345 -17.395 -2.655 84.695 3503.068 -2883.971 -3.135 0.081 -2.595 0.01 0.62 -0.78 0.07
1 6.38 638 0.493 -9.898 3.342 43.457 -4.852 1.709 39.724 3188.123 -3078.994 -1.372 0.405 -1.072 0 0.62 -0.78 0.07
1 6.39 639 -0.206 -8.686 3.491 16.266 -1.099 -7.477 -110.178 3368.006 -2973.913 -0.653 -0.779 -1.100 0 0.61 -0.79 0.07
1 6.40 640 -0.335 -8.811 3.170 7.813 -15.167 -14.710 -111.677 3366.957 -2968.966 -0.499 -0.648 -0.746 0 0.61 -0.79 0.07
1 6.41 641 0.402 -8.653 3.223 4.761 -18.646 -16.022 68.206 3186.924 -3074.047 -1.206 -0.803 -0.777 0 0.61 -0.79 0.07
1 6.42 642 1.398 -8.931 3.002 4.822 -8.484 -26.550 38.075 3261.875 -3119.018 -2.162 -0.525 -0.542 -0 0.61 -0.79 0.07
1 6.43 643 1.456 -8.581 2.844 10.010 -2.411 -31.372 83.196 3141.953 -3029.077 -2.162 -0.875 -0.369 -0 0.61 -0.79 0.06
1 6.44 644 1.283 -8.265 2.739 10.254 1.038 -36.469 83.196 3141.953 -3029.077 -1.928 -1.190 -0.245 -0.01 0.61 -0.79 0.06
1 6.45 645 0.508 -8.476 2.461 0.183 -5.280 -32.196 -6.746 3261.875 -2998.946 -1.086 -0.978 0.053 -0.01 0.61 -0.79 0.06
1 6.46 646 0.532 -8.217 2.212 -11.658 -14.771 -27.008 -126.667 3201.914 -3059.057 -1.004 -1.243 0.300 -0.01 0.61 -0.79 0.06
1 6.47 647 1.030 -8.806 1.959 -16.541 -17.212 -27.924 -126.667 3201.914 -3059.057 -1.447 -0.663 0.531 -0.02 0.61 -0.79 0.05
1 6.48 648 1.379 -8.720 1.935 -11.139 -14.435 -25.086 -81.697 3261.875 -3074.047 -1.744 -0.757 0.534 -0.02 0.61 -0.79 0.05
1 6.49 649 1.614 -8.327 1.537 -2.869 -4.272 -30.579 -141.658 3261.875 -2894.015 -1.924 -1.155 0.918 -0.02 0.61 -0.79 0.05
1 6.50 650 1.010 -8.854 1.173 1.099 -1.221 -30.151 -96.687 3201.914 -3059.057 -1.265 -0.631 1.279 -0.02 0.61 -0.79 0.05
1 6.51 651 0.814 -8.514 1.389 4.913 -8.026 -20.569 -96.687 3201.914 -3059.057 -1.015 -0.972 1.062 -0.02 0.61 -0.79 0.05
1 6.52 652 1.317 -7.676 1.393 2.655 -0.214 -27.954 -111.677 3156.943 -3074.047 -1.482 -1.809 1.065 -0.03 0.61 -0.79 0.05
1 6.53 653 1.302 -7.690 1.302 -1.312 13.336 -39.887 -171.638 3231.895 -2953.976 -1.430 -1.794 1.163 -0.03 0.61 -0.79 0.05
1 6.54 654 -0.072 -7.853 1.082 2.289 10.162 -23.743 -171.638 3231.895 -2953.976 0.037 -1.631 1.384 -0.03 0.61 -0.79 0.04
1 6.55 655 -0.814 -7.523 0.584 8.057 5.829 -17.853 -126.667 3231.895 -2983.956 0.811 -1.960 1.889 -0.03 0.61 -0.79 0.04
1 6.56 656 -0.584 -7.374 0.967 13.886 3.235 -18.494 -246.739 3171.934 -3029.077 0.605 -2.104 1.521 -0.03 0.61 -0.79 0.04
1 6.57 657 -0.010 -6.508 1.231 21.301 -0.885 -9.247 -291.710 3216.904 -2864.034 0.056 -2.964 1.283 -0.03 0.61 -0.79 0.04
1 6.58 658 0.828 -6.421 1.307 21.912 4.761 1.801 -291.710 3216.904 -2864.034 -0.771 -3.041 1.241 -0.03 0.61 -0.79 0.03
1 6.59 659 1.063 -7.394 1.044 14.404 10.315 7.172 -336.681 3186.924 -2923.995 -1.005 -2.060 1.539 -0.03 0.61 -0.79 0.03
1 6.60 660 1.197 -7.748 1.121 18.066 13.153 -11.261 -411.632 3081.992 -2968.966 -1.147 -1.698 1.489 -0.03 0.6 -0.79 0.03
1 6.61 661 1.911 -7.949 1.585 13.489 26.947 -8.637 -411.632 3081.992 -2968.966 -1.840 -1.483 1.075 -0.03 0.6 -0.8 0.03
1 6.62 662 1.523 -8.830 1.470 8.820 35.217 -1.740 -216.759 3156.943 -3119.018 -1.451 -0.596 1.209 -0.03 0.6 -0.8 0.03
1 6.63 663 1.058 -8.514 1.614 -14.740 36.286 6.195 -171.638 3067.002 -3089.038 -0.997 -0.911 1.070 -0.03 0.6 -0.8 0.03
1 6.64 664 0.963 -9.726 1.595 -29.053 36.835 6.622 -291.710 3111.973 -2998.946 -0.925 0.293 1.063 -0.02 0.6 -0.8 0.03
1 6.65 665 0.852 -10.109 1.858 -32.288 42.816 3.601 -291.710 3111.973 -2998.946 -0.832 0.661 0.748 -0.02 0.61 -0.8 0.03
1 6.66 666 1.374 -12.153 1.422 8.148 65.644 24.231 -261.729 3216.904 -2998.946 -1.370 2.691 1.129 -0.02 0.61 -0.79 0.02
1 6.67 667 0.354 -9.912 2.174 27.069 56.488 -2.411 -141.658 3292.005 -2923.995 -0.404 0.448 0.369 -0.01 0.61 -0.79 0.02
1 6.68 668 -0.766 -10.142 2.093 -18.494 45.593 -10.834 -141.658 3292.005 -2923.995 0.675 0.690 0.492 -0.01 0.61 -0.79 0.02
1 6.69 669 -0.977 -10.611 1.796 -43.060 35.431 -15.961 -186.628 3216.904 -2998.946 0.884 1.148 0.747 -0.01 0.61 -0.79 0.01
1 6.70 670 -1.331 -11.358 1.245 -38.513 29.389 -17.914 -126.667 3171.934 -3089.038 1.248 1.878 1.234 -0 0.61 -0.79 0.01
1 6.71 671 -1.676 -12.297 0.675 -22.492 24.414 -19.836 -126.667 3171.934 -3089.038 1.610 2.803 1.754 -0 0.61 -0.79 0.01
1 6.72 672 -1.858 -12.340 -0.038 14.526 20.508 -19.226 -21.736 3276.865 -2909.005 1.812 2.840 2.444 -0 0.61 -0.79 0.01
1 6.73 673 -1.733 -11.746 -0.268 33.997 12.299 -18.768 -6.746 3186.924 -2894.015 1.709 2.250 2.688 -0 0.61 -0.79 0
1 6.74 674 -2.069 -12.536 -0.761 44.464 0.885 -10.132 -141.658 3186.924 -2998.946 2.067 3.052 3.226 -0 0.61 -0.79 0
1 6.75 675 -2.533 -11.042 -0.570 23.468 -23.560 1.038 -141.658 3186.924 -2998.946 2.551 1.574 3.098 -0 0.61 -0.79 0
1 6.76 676 -1.240 -13.078 11.066 -79.560 -32.806 -1.099 -111.677 3186.924 -2968.966 1.269 3.612 -8.528 -0.01 0.61 -0.79 0
1 6.77 677 -3.117 -17.445 3.352 -227.448 -13.062 -49.927 -21.736 3231.895 -3089.038 3.167 7.939 -0.968 -0.01 0.62 -0.79 0.01
1 6.78 678 -0.163 -16.219 -1.030 -273.286 -76.844 -98.114 -21.736 3231.895 -3089.038 0.321 6.627 3.032 -0.01 0.63 -0.78 0
1 6.79 679 0.656 -16.061 -0.354 -67.353 -49.347 -91.523 -111.677 3336.976 -2894.015 -0.331 6.409 2.021 0.02 -0.64 0.76 0
1 6.80 680 2.337 -10.166 -0.192 67.688 -40.192 -63.477 -261.729 3441.908 -2713.982 -1.868 0.513 1.815 0.03 -0.65 0.76 0
1 6.81 681 -0.512 -10.540 1.427 54.993 -53.742 -43.488 -441.762 3561.979 -2684.001 1.095 0.908 0.285 0.03 -0.64 0.77 0.01
1 6.82 682 1.336 -11.014 2.586 41.199 -69.855 -34.851 -441.762 3561.979 -2684.001 -0.652 1.402 -0.800 0.04 -0.64 0.77 0.01
1 6.83 683 3.893 -10.099 3.352 -8.209 -49.103 1.373 -426.772 3426.917 -2624.041 -3.092 0.510 -1.493 0.05 -0.63 0.77 0
1 6.84 684 3.917 -9.247 4.386 -24.689 -19.287 8.209 -501.723 3231.895 -2654.021 -3.110 -0.345 -2.549 0.05 -0.64 0.77 0
1 6.85 685 3.328 -8.931 4.501 -40.314 2.136 -2.014 -501.723 3231.895 -2654.021 -2.526 -0.670 -2.706 0.05 -0.64 0.77 0
1 6.86 686 2.878 -9.721 4.286 -37.048 11.017 -21.607 -606.655 3276.865 -2549.089 -2.045 0.116 -2.528 0.05 -0.64 0.77 0
1 6.87 687 4.013 -8.888 4.904 -31.189 21.759 -35.004 -576.225 3471.139 -2622.691 -3.140 -0.721 -3.183 0.06 -0.64 0.77 0
1 6.88 688 4.707 -9.007 4.908 -36.499 30.090 -41.138 -591.215 3411.028 -2532.750 -3.784 -0.602 -3.221 0.06 -0.64 0.77 0.01
1 6.89 689 4.334 -8.883 4.022 -25.665 34.302 -46.875 -591.215 3411.028 -2532.750 -3.358 -0.730 -2.382 0.06 -0.64 0.76 0.01
1 6.90 690 2.911 -8.375 3.472 20.081 40.222 -39.398 -696.146 3291.106 -2532.750 -1.781 -1.221 -1.835 0.06 -0.64 0.76 0.02
1 6.91 691 2.026 -8.193 3.697 25.177 43.915 -27.741 -621.195 3366.057 -2607.701 -0.836 -1.386 -2.005 0.06 -0.64 0.77 0.03
1 6.92 692 1.001 -7.327 3.864 16.907 45.593 -20.630 -621.195 3366.057 -2607.701 0.223 -2.237 -2.110 0.06 -0.64 0.77 0.03
1 6.93 693 1.293 -9.060 3.663 28.229 63.111 -23.804 -651.176 3471.139 -2622.691 -0.049 -0.494 -1.873 0.06 -0.64 0.77 0.03
1 6.94 694 0.321 -10.018 3.582 43.213 60.700 -26.581 -591.215 3261.125 -2562.730 0.944 0.481 -1.711 0.05 -0.63 0.77 0.04
1 6.95 695 -1.279 -10.722 2.816 39.948 47.516 -28.626 -606.205 3276.116 -2577.721 2.560 1.205 -0.857 0.05 -0.63 0.77 0.04
1 6.96 696 -1.446 -9.927 3.256 12.451 38.513 -18.646 -606.205 3276.116 -2577.721 2.755 0.430 -1.222 0.05 -0.63 0.78 0.05
1 6.97 697 -1.326 -9.357 3.156 0.153 31.708 -9.125 -576.225 3231.145 -2697.643 2.654 -0.129 -1.084 0.05 -0.63 0.78 0.05
1 6.98 698 -0.077 -9.515 2.935 3.754 30.396 2.594 -501.124 3201.165 -2727.773 1.365 0.032 -0.827 0.04 -0.62 0.78 0.05
1 6.99 699 -0.158 -9.711 2.600 4.639 26.856 3.448 -501.124 3201.165 -2727.773 1.422 0.229 -0.471 0.04 -0.62 0.78 0.05
1 7.00 700 -0.182 -9.745 2.667 3.540 23.224 8.209 -546.094 3186.174 -2787.734 1.424 0.264 -0.519 0.04 -0.62 0.78 0.05
1 7.01 701 -0.105 -9.472 2.519 3.021 22.980 14.374 -516.114 3261.125 -2637.682 1.315 -0.010 -0.357 0.04 -0.62 0.78 0.05
1 7.02 702 0.038 -9.754 1.887 4.669 18.951 14.801 -531.104 3141.054 -2652.672 1.134 0.271 0.288 0.03 -0.62 0.78 0.05
1 7.03 703 0.374 -9.716 2.193 7.202 13.458 24.384 -531.104 3141.054 -2652.672 0.765 0.231 -0.005 0.03 -0.62 0.78 0.05
1 7.04 704 0.996 -9.314 2.097 15.045 24.231 20.050 -606.205 3231.145 -2772.744 0.099 -0.173 0.101 0.03 -0.62 0.78 0.05
1 7.05 705 0.397 -9.400 1.963 28.351 25.543 21.484 -381.202 3066.103 -2727.773 0.615 -0.083 0.294 0.03 -0.62 0.78 0.05
1 7.06 706 -0.086 -9.137 1.772 30.609 25.787 17.090 -381.202 3066.103 -2727.773 1.059 -0.339 0.531 0.02 -0.62 0.78 0.05
1 7.07 707 -0.354 -8.811 1.824 25.147 22.034 18.524 -486.133 3156.044 -2682.652 1.287 -0.658 0.524 0.02 -0.62 0.79 0.05
1 7.08 708 -0.206 -8.141 2.131 17.883 17.578 17.792 -456.153 3066.103 -2802.724 1.095 -1.323 0.254 0.02 -0.61 0.79 0.05
1 7.09 709 -0.560 -8.495 1.561 20.264 16.480 21.637 -486.133 3216.155 -2742.763 1.414 -0.965 0.852 0.02 -0.61 0.79 0.05
1 7.10 710 -0.996 -8.509 1.662 18.707 5.066 37.140 -486.133 3216.155 -2742.763 1.803 -0.947 0.781 0.02 -0.61 0.79 0.05
1 7.11 711 -0.608 -8.318 1.609 23.926 2.014 31.342 -366.211 3081.093 -2817.714 1.356 -1.137 0.860 0.01 -0.61 0.79 0.05
1 7.12 712 0.670 -7.470 1.494 42.481 11.932 16.693 -291.110 2961.171 -2787.734 -0.010 -1.968 1.058 0.01 -0.61 0.79 0.04
1 7.13 713 0.618 -7.250 1.465 47.180 18.646 8.850 -291.110 2961.171 -2787.734 0.019 -2.172 1.154 0.01 -0.61 0.79 0.04
1 7.14 714 0.283 -7.413 1.408 43.274 20.966 4.211 -336.231 2931.041 -2862.685 0.335 -1.991 1.282 0.01 -0.6 0.8 0.04
1 7.15 715 -0.024 -7.274 1.188 35.004 20.935 0.366 -336.231 2931.041 -2862.685 0.630 -2.112 1.566 0.01 -0.6 0.8 0.04
1 7.16 716 -1.513 -8.658 0.728 32.074 9.857 8.087 -216.159 2961.171 -2817.714 2.107 -0.713 2.077 0.01 -0.6 0.8 0.04
1 7.17 717 -0.857 -7.772 1.173 36.041 -0.305 3.754 -216.159 2961.171 -2817.714 1.437 -1.586 1.680 0.01 -0.6 0.8 0.04
1 7.18 718 -0.321 -7.341 1.882 38.513 -5.737 2.075 -291.110 2931.041 -2922.646 0.892 -2.001 1.024 0.01 -0.59 0.8 0.04
1 7.19 719 -0.263 -7.164 1.666 31.220 5.432 -2.747 -366.211 3081.093 -2862.685 0.833 -2.160 1.296 0.01 -0.59 0.81 0.04
1 7.20 720 -0.508 -6.977 1.666 9.705 4.883 -4.578 -366.211 3081.093 -2862.685 1.088 -2.320 1.377 0.01 -0.59 0.81 0.04
1 7.21 721 -0.431 -7.537 1.968 -18.097 4.120 -0.427 -186.179 3081.093 -2967.767 1.015 -1.758 1.081 0.01 -0.59 0.81 0.04
1 7.22 722 -0.584 -8.629 2.476 -55.512 -4.150 10.315 -187.228 3081.542 -2965.068 1.164 -0.679 0.537 0.01 -0.59 0.81 0.04
1 7.23 723 -0.565 -9.223 2.691 -76.477 -14.404 17.487 -442.212 2766.598 -2919.948 1.125 -0.114 0.232 0.01 -0.59 0.8 0.04
1 7.24 724 0.105 -10.913 2.859 -73.059 -24.841 16.571 -442.212 2766.598 -2919.948 0.431 1.540 -0.048 0.01 -0.6 0.8 0.04
1 7.25 725 -0.019 -11.766 2.150 -34.210 -29.968 13.825 -337.280 3006.591 -2965.068 0.542 2.360 0.551 0.01 -0.6 0.8 0.04
1 7.26 726 -0.517 -10.425 1.777 7.019 -43.823 11.993 -412.231 3081.542 -2815.016 1.030 0.999 0.856 0.01 -0.6 0.8 0.03
1 7.27 727 0.804 -9.319 2.543 -17.120 -45.471 6.470 -412.231 3081.542 -2815.016 -0.289 -0.110 0.080 0.01 -0.61 0.8 0.03
1 7.28 728 2.404 -9.951 2.907 -26.856 -36.530 10.101 -247.189 2976.611 -2725.075 -1.878 0.515 -0.314 0.01 -0.61 0.79 0.03
1 7.29 729 2.878 -10.018 1.590 -35.797 1.526 31.006 -247.189 2976.611 -2725.075 -2.356 0.569 0.958 0.02 -0.61 0.79 0.02
1 7.30 730 2.011 -10.755 0.321 -17.426 -2.289 23.224 -337.280 3006.591 -2919.948 -1.516 1.291 2.175 0.01 -0.61 0.79 0.02
1 7.31 731 2.102 -10.659 0.316 1.770 0.397 6.561 -172.238 3021.582 -2800.026 -1.626 1.188 2.157 0.01 -0.61 0.79 0.02
1 7.32 732 1.360 -10.875 0.019 -6.958 5.493 3.784 -367.261 2931.490 -2710.084 -0.887 1.403 2.449 0.01 -0.61 0.79 0.02
1 7.33 733 0.642 -11.177 -0.498 -18.158 8.148 1.648 -367.261 3081.542 -2679.954 -0.176 1.703 2.961 0.01 -0.61 0.79 0.02
1 7.34 734 0.091 -11.339 -0.757 -25.971 5.615 0.641 -367.261 3081.542 -2679.954 0.367 1.852 3.167 0.01 -0.61 0.79 0.02
1 7.35 735 -1.192 -13.513 1.853 -19.928 -5.157 23.987 -292.310 3006.591 -2740.065 1.637 4.014 0.516 0.01 -0.62 0.79 0.02
1 7.36 736 -0.306 -16.492 6.532 -26.550 -31.891 30.640 -292.310 3006.591 -2740.065 0.718 6.986 -4.186 0.01 -0.62 0.79 0.02
1 7.37 737 1.992 -15.960 3.462 -164.185 17.181 54.016 -247.189 3021.582 -2619.993 -1.621 6.432 -1.200 0.01 -0.62 0.78 0.02
1 7.38 738 0.982 -15.812 0.326 -146.485 39.337 66.406 -502.173 3021.582 -2545.342 -0.705 6.223 1.681 0.01 -0.63 0.78 0.01
1 7.39 739 -0.397 -12.541 -1.470 23.590 14.252 84.137 -172.238 3096.533 -2725.375 0.563 2.918 3.317 0 -0.64 0.77 0.01
1 7.40 740 -2.433 -10.942 1.154 41.718 10.407 72.479 -322.140 3096.533 -2470.391 2.473 1.319 0.702 -0 -0.64 0.77 0.01
1 7.41 741 -2.715 -11.354 3.232 14.679 1.373 61.890 -322.140 3096.533 -2470.391 2.638 1.744 -1.313 -0.01 -0.63 0.77 0
1 7.42 742 -1.657 -9.922 3.529 -36.194 13.763 48.889 -97.137 3201.614 -2470.391 1.402 0.320 -1.587 0.01 0.63 -0.77 0.01
1 7.43 743 -0.374 -8.663 3.318 -56.214 5.707 43.152 -97.287 3201.614 -2470.241 0.041 -0.949 -1.434 0.01 0.64 -0.77 0.01
1 7.44 744 0.077 -9.539 2.658 -15.900 16.876 23.865 -52.166 3171.634 -2440.260 -0.468 -0.082 -0.835 0.02 0.64 -0.77 0.01
1 7.45 745 -1.231 -9.151 3.405 26.520 7.996 23.621 37.625 3111.523 -2485.231 0.804 -0.468 -1.578 0.02 0.64 -0.77 0.01
1 7.46 746 -1.944 -9.089 4.607 18.860 -10.468 17.273 -142.257 3156.644 -2455.250 1.481 -0.518 -2.725 0.02 0.64 -0.77 0.01
1 7.47 747 -1.317 -9.156 5.263 -2.075 -19.775 18.341 37.625 3081.542 -2605.303 0.821 -0.438 -3.326 0.02 0.63 -0.77 0.01
1 7.48 748 -0.867 -9.735 5.124 -2.075 -20.874 21.179 37.625 3081.542 -2605.303 0.343 0.148 -3.160 0.02 0.63 -0.77 0.02
1 7.49 749 -0.943 -8.801 4.611 32.868 -25.879 31.677 -22.186 3141.653 -2620.293 0.360 -0.774 -2.607 0.02 0.63 -0.78 0.02
1 7.50 750 -0.316 -6.872 4.726 27.039 -30.243 20.813 -22.186 3141.653 -2620.293 -0.304 -2.686 -2.649 0.02 0.63 -0.78 0.03
1 7.51 751 -0.225 -7.173 4.190 20.569 -35.309 14.008 -37.176 3186.624 -2605.303 -0.411 -2.372 -2.062 0.02 0.63 -0.78 0.03
1 7.52 752 0.206 -7.772 4.171 29.327 -38.666 15.900 52.616 3066.552 -2620.293 -0.850 -1.764 -2.004 0.02 0.62 -0.78 0.03
1 7.53 753 0.718 -8.610 4.051 40.161 -44.006 20.264 -97.287 3141.653 -2770.195 -1.374 -0.913 -1.830 0.02 0.62 -0.78 0.03
1 7.54 754 0.694 -9.438 3.409 49.835 -44.159 23.193 22.635 3021.582 -2515.211 -1.355 -0.065 -1.109 0.01 0.62 -0.78 0.04
1 7.55 755 0.972 -9.797 3.649 43.335 -28.351 21.240 22.635 3021.582 -2515.211 -1.639 0.315 -1.264 0.01 0.61 -0.79 0.04
1 7.56 756 1.365 -9.955 3.448 12.451 -13.428 2.106 52.616 2976.611 -2575.322 -2.033 0.508 -0.931 0.01 0.61 -0.79 0.04
1 7.57 757 0.139 -9.659 2.734 11.261 -8.423 0.519 52.616 2976.611 -2575.322 -0.791 0.216 -0.193 0.01 0.61 -0.79 0.04
1 7.58 758 0.139 -9.381 2.959 23.895 -21.240 1.434 37.625 3006.591 -2860.287 -0.776 -0.056 -0.394 0.01 0.61 -0.79 0.05
1 7.59 759 0.460 -9.678 3.012 34.241 -21.545 -3.082 -262.179 2931.640 -2740.215 -1.085 0.253 -0.401 0 0.61 -0.79 0.05
1 7.60 760 1.470 -9.218 3.041 20.966 -18.433 -13.458 -127.267 2901.660 -2725.225 -2.073 -0.194 -0.377 0 0.6 -0.8 0.05
1 7.61 761 1.556 -9.271 2.691 15.442 -17.120 -13.886 -52.166 2901.660 -2830.306 -2.121 -0.132 0.013 0 0.6 -0.8 0.05
1 7.62 762 1.279 -9.328 2.552 15.320 -15.717 -14.984 -52.166 2901.660 -2830.306 -1.801 -0.069 0.180 -0 0.6 -0.8 0.05
1 7.63 763 1.044 -9.151 2.706 12.695 -20.508 -9.369 -22.186 2901.660 -2800.326 -1.522 -0.241 0.051 -0 0.6 -0.8 0.05
1 7.64 764 0.690 -9.424 2.255 9.338 -19.684 -11.719 -22.186 2901.660 -2800.326 -1.096 0.040 0.540 -0.01 0.6 -0.8 0.05
1 7.65 765 0.536 -9.319 2.265 7.568 -19.989 -12.085 -52.166 2946.630 -2830.306 -0.909 -0.063 0.542 -0.01 0.6 -0.8 0.05
1 7.66 766 0.709 -8.950 2.279 10.590 -17.670 -14.801 -37.176 2856.539 -2860.287 -1.048 -0.430 0.540 -0.01 0.6 -0.8 0.05
1 7.67 767 1.006 -8.572 2.337 12.939 -15.503 -23.560 -187.228 2886.520 -2815.316 -1.306 -0.804 0.499 -0.01 0.6 -0.8 0.05
1 7.68 768 0.560 -9.285 1.786 2.655 -12.360 -21.881 -262.179 2691.646 -2860.287 -0.807 -0.088 1.066 -0.02 0.6 -0.8 0.04
1 7.69 769 0.565 -8.643 1.647 3.571 -11.444 -14.160 -261.580 2691.047 -2861.186 -0.762 -0.729 1.208 -0.02 0.59 -0.8 0.04
1 7.70 770 0.263 -8.457 1.599 8.057 -13.123 -5.463 -201.619 2825.959 -2876.176 -0.428 -0.917 1.255 -0.02 0.59 -0.8 0.04
1 7.71 771 0.125 -8.313 1.652 10.437 -11.017 -5.310 -201.619 2825.959 -2876.176 -0.259 -1.053 1.227 -0.02 0.59 -0.8 0.04
1 7.72 772 0.508 -7.753 1.690 9.430 -3.662 -9.338 -336.681 2765.998 -2921.147 -0.628 -1.609 1.205 -0.02 0.59 -0.8 0.04
1 7.73 773 0.359 -7.844 1.494 9.857 3.540 -12.909 -246.589 2676.057 -2906.157 -0.462 -1.513 1.417 -0.02 0.59 -0.8 0.04
1 7.74 774 -0.445 -7.925 1.212 8.972 2.472 -4.974 -246.589 2676.057 -2906.157 0.359 -1.428 1.714 -0.03 0.59 -0.8 0.04
1 7.75 775 -0.469 -7.753 1.130 7.416 0.244 -1.190 -336.681 2736.018 -2891.167 0.389 -1.596 1.809 -0.03 0.59 -0.81 0.04
1 7.76 776 -0.335 -7.729 1.226 10.712 0.946 -1.892 -336.681 2736.018 -2891.167 0.259 -1.616 1.725 -0.03 0.59 -0.81 0.04
1 7.77 777 -0.809 -7.805 0.986 15.289 -1.129 3.174 -381.651 2946.031 -2726.124 0.737 -1.535 1.979 -0.03 0.59 -0.81 0.04
1 7.78 778 -0.263 -7.935 1.302 6.287 -11.749 12.695 -381.651 2946.031 -2726.124 0.184 -1.392 1.704 -0.03 0.59 -0.81 0.04
1 7.79 779 0.163 -7.939 1.437 6.866 -13.336 15.564 -291.710 2661.066 -2966.118 -0.255 -1.384 1.580 -0.03 0.59 -0.81 0.04
1 7.80 780 0.412 -8.476 1.456 12.451 -11.475 18.127 -366.661 2661.066 -2861.186 -0.520 -0.843 1.574 -0.03 0.59 -0.81 0.05
1 7.81 781 1.015 -8.485 2.399 10.162 -14.069 21.454 -366.661 2661.066 -2861.186 -1.143 -0.828 0.649 -0.03 0.59 -0.81 0.05
1 7.82 782 0.670 -9.055 2.227 14.679 -12.360 19.318 -351.671 2751.008 -2831.206 -0.818 -0.253 0.836 -0.03 0.59 -0.81 0.05
1 7.83 783 1.207 -9.927 2.816 38.635 -11.383 19.409 -351.671 2751.008 -2831.206 -1.364 0.626 0.269 -0.03 0.58 -0.81 0.05
1 7.84 784 0.417 -9.347 2.423 33.264 -5.737 28.076 -321.690 2646.076 -2951.127 -0.581 0.062 0.707 -0.03 0.58 -0.81 0.05
1 7.85 785 0.306 -9.477 2.959 23.254 -8.484 27.130 -321.690 2646.076 -2951.127 -0.496 0.208 0.219 -0.03 0.58 -0.81 0.05
1 7.86 786 -0.450 -9.510 2.342 15.289 -10.407 17.914 -411.632 2661.066 -3041.219 0.201 0.264 0.896 -0.03 0.58 -0.81 0.06
1 7.87 787 -0.699 -9.572 2.442 7.263 -19.531 0.122 -291.710 2585.965 -2861.186 0.437 0.332 0.811 -0.03 0.58 -0.81 0.06
1 7.88 788 -0.244 -10.501 2.639 4.578 -17.395 -4.181 -291.710 2585.965 -2861.186 -0.007 1.262 0.618 -0.03 0.58 -0.81 0.06
1 7.89 789 -1.010 -10.430 2.064 15.015 -12.695 -4.242 -246.589 2646.076 -3086.189 0.770 1.193 1.203 -0.03 0.58 -0.81 0.06
1 7.90 790 -1.298 -10.396 2.270 13.397 -14.679 7.294 -246.589 2646.076 -3086.189 1.065 1.167 1.018 -0.03 0.58 -0.81 0.06
1 7.91 791 -2.744 -7.767 1.935 -39.154 -26.764 13.947 -276.720 2555.985 -3131.160 2.510 -1.455 1.373 -0.03 0.57 -0.82 0.06
1 7.92 792 -2.174 -8.897 1.781 -79.468 -38.422 8.667 -276.720 2555.985 -3131.160 1.922 -0.338 1.487 -0.03 0.58 -0.81 0.07
1 7.93 793 -1.063 -11.301 2.524 -93.293 -32.654 19.257 -486.583 2585.965 -3071.199 0.810 1.986 0.510 -0.04 0.59 -0.81 0.07
1 7.94 794 -0.062 -15.592 2.059 -82.306 -23.010 39.795 -381.651 2646.076 -3131.160 -0.217 6.235 0.843 -0.04 0.59 -0.8 0.07
1 7.95 795 -0.575 -13.365 1.264 -12.665 -4.517 51.331 -381.651 2646.076 -3131.160 0.232 3.983 1.547 -0.04 0.6 -0.8 0.08
1 7.96 796 -2.011 -11.287 2.198 12.482 -37.201 4.334 -411.632 2736.018 -2921.147 1.616 1.907 0.613 -0.03 0.6 -0.8 0.08
1 7.97 797 -0.283 -10.990 3.682 -29.968 -20.966 1.038 -411.632 2736.018 -2921.147 -0.099 1.611 -0.865 -0.04 0.6 -0.8 0.08
1 7.98 798 -1.743 -11.631 5.986 -76.477 -26.611 -15.900 -456.603 2676.057 -2876.176 1.373 2.237 -3.219 -0.04 0.6 -0.8 0.08
1 7.99 799 -4.051 -15.477 7.523 -156.128 -65.766 -41.260 -456.603 2676.057 -2876.176 3.712 6.055 -4.848 -0.04 0.6 -0.79 0.08
1 8.00 800 -0.905 -18.345 -0.551 -183.259 -107.727 -71.106 -501.723 2721.027 -2876.176 0.763 8.792 2.732 -0.06 0.62 -0.78 0.08
1 8.01 801 2.112 -16.798 -0.608 9.094 -112.763 -60.669 -381.651 2825.959 -2981.258 -2.117 7.200 2.588 -0.07 0.63 -0.77 0.08
1 8.02 802 0.364 -10.597 0.412 96.466 -108.521 -16.846 -381.651 2825.959 -2981.258 -0.253 1.013 1.632 -0.08 0.62 -0.77 0.08
1 8.03 803 2.562 -7.935 2.533 111.328 -98.908 27.252 -591.665 2855.939 -2681.153 -2.413 -1.617 -0.344 -0.08 0.62 -0.78 0.09
1 8.04 804 3.850 -7.547 4.152 66.437 -46.936 35.828 -621.645 2855.939 -2561.231 -3.710 -1.968 -1.808 -0.09 0.61 -0.78 0.1
1 8.05 805 3.180 -8.433 4.899 23.651 -36.835 27.344 -621.645 2765.998 -2681.153 -3.045 -1.052 -2.438 -0.09 0.61 -0.78 0.1
1 8.06 806 2.471 -8.959 4.635 -20.355 -40.466 13.794 -621.645 2765.998 -2681.153 -2.339 -0.508 -2.107 -0.09 0.6 -0.79 0.11
1 8.07 807 2.447 -9.568 4.544 -31.250 -51.209 -3.357 -771.547 2856.089 -2815.616 -2.304 0.101 -2.013 -0.09 0.6 -0.79 0.11
1 8.08 808 4.817 -7.983 5.133 -42.999 -16.968 -18.005 -846.499 2856.089 -2635.583 -4.580 -1.499 -2.667 -0.1 0.6 -0.78 0.11
1 8.09 809 2.801 -7.935 4.468 -39.703 -22.858 -25.024 -846.499 2856.089 -2635.583 -2.513 -1.559 -2.053 -0.1 0.61 -0.78 0.11
1 8.10 810 1.336 -7.437 4.501 -22.492 -27.588 -38.696 -861.489 2901.060 -2695.694 -0.975 -2.062 -2.119 -0.11 0.61 -0.78 0.11
1 8.11 811 1.082 -8.241 5.358 -22.308 -33.112 -53.009 -906.459 2721.027 -2695.694 -0.638 -1.261 -3.001 -0.11 0.61 -0.78 0.11
1 8.12 812 -0.958 -10.362 3.951 22.705 -36.102 -27.588 -1071.502 2765.998 -2740.665 1.487 0.862 -1.603 -0.12 0.61 -0.78 0.1
1 8.13 813 -3.055 -10.870 3.366 38.696 -47.638 -23.163 -1071.502 2765.998 -2740.665 3.642 1.380 -0.992 -0.12 0.6 -0.78 0.1
1 8.14 814 -3.477 -11.124 3.606 32.593 -53.711 -21.790 -981.561 2676.057 -2650.723 4.113 1.650 -1.181 -0.12 0.6 -0.78 0.11
1 8.15 815 -2.476 -8.897 3.462 70.191 -73.944 -13.245 -1086.492 2796.128 -2515.661 3.213 -0.540 -0.924 -0.13 0.59 -0.79 0.11
1 8.16 816 -1.173 -8.864 4.008 60.608 -70.832 -13.550 -1086.492 2796.128 -2515.661 1.933 -0.544 -1.372 -0.13 0.59 -0.79 0.11
1 8.17 817 -2.246 -9.673 2.978 53.436 -101.136 2.869 -1026.531 2811.119 -2560.632 3.035 0.292 -0.254 -0.14 0.58 -0.79 0.12
1 8.18 818 -1.484 -8.016 4.075 33.264 -114.716 20.447 -1266.525 2721.027 -2770.645 2.297 -1.345 -1.291 -0.14 0.58 -0.79 0.12
1 8.19 819 -1.250 -7.595 3.544 26.489 -110.810 49.194 -1251.085 2615.946 -2785.186 2.053 -1.755 -0.718 -0.15 0.58 -0.79 0.13
1 8.20 820 -1.700 -7.877 3.443 8.362 -114.106 52.277 -1251.085 2615.946 -2785.186 2.472 -1.463 -0.580 -0.15 0.58 -0.79 0.14
1 8.21 821 -1.705 -8.916 2.988 -11.292 -120.240 57.678 -1385.997 2721.027 -2695.094 2.453 -0.424 -0.116 -0.16 0.57 -0.79 0.15
1 8.22 822 -2.035 -8.825 2.476 -29.419 -129.975 62.897 -1176.134 2661.066 -2710.234 2.748 -0.523 0.377 -0.16 0.57 -0.79 0.16
1 8.23 823 -1.652 -11.157 1.331 -7.538 -148.835 63.355 -1176.134 2661.066 -2710.234 2.265 1.769 1.412 -0.17 0.58 -0.78 0.18
1 8.24 824 -1.298 -10.808 1.116 39.307 -149.140 67.322 -1356.017 2661.066 -2485.231 1.880 1.416 1.623 -0.18 0.57 -0.78 0.19
1 8.25 825 -1.001 -10.032 2.006 49.225 -151.368 67.932 -1431.118 2736.018 -2605.153 1.549 0.654 0.786 -0.18 0.57 -0.78 0.2
1 8.26 826 -0.939 -9.999 1.963 42.938 -151.917 74.707 -1491.079 2526.004 -2620.143 1.441 0.633 0.877 -0.19 0.57 -0.77 0.21
1 8.27 827 -1.269 -10.109 1.911 37.415 -155.854 80.475 -1491.079 2526.004 -2620.143 1.719 0.753 0.972 -0.19 0.56 -0.77 0.22
1 8.28 828 -1.121 -9.927 1.690 35.370 -157.990 81.269 -1416.127 2721.027 -2545.192 1.514 0.580 1.228 -0.2 0.56 -0.77 0.24
1 8.29 829 -0.967 -10.046 1.824 25.818 -160.004 78.614 -1566.030 2751.008 -2515.211 1.304 0.708 1.130 -0.2 0.56 -0.77 0.25
1 8.30 830 -1.149 -9.984 1.504 21.362 -169.617 83.069 -1566.030 2751.008 -2515.211 1.433 0.652 1.475 -0.21 0.55 -0.76 0.26
1 8.31 831 -0.589 -9.706 1.279 22.888 -174.988 79.285 -1729.873 2810.519 -2454.501 0.778 0.382 1.732 -0.22 0.55 -0.76 0.29
1 8.32 832 -0.464 -9.960 1.202 30.212 -182.770 81.909 -1654.772 2690.447 -2424.521 0.616 0.642 1.829 -0.23 0.54 -0.75 0.3
1 8.33 833 -0.369 -9.989 1.264 26.306 -183.716 79.956 -1654.772 2690.447 -2424.521 0.485 0.679 1.793 -0.23 0.54 -0.75 0.31
1 8.34 834 -0.340 -9.692 1.111 21.088 -187.531 80.353 -1594.811 2795.529 -2334.579 0.425 0.389 1.968 -0.24 0.53 -0.74 0.32
1 8.35 835 -0.517 -10.013 1.077 15.137 -192.017 82.398 -1789.834 2720.578 -2139.556 0.573 0.715 2.019 -0.25 0.53 -0.74 0.34
1 8.36 836 -0.364 -9.759 1.240 12.024 -203.492 79.743 -1879.775 2885.470 -2169.537 0.393 0.464 1.865 -0.25 0.53 -0.73 0.35
1 8.37 837 0.302 -9.759 1.355 9.949 -199.677 78.339 -1879.775 2885.470 -2169.537 -0.297 0.465 1.754 -0.26 0.52 -0.73 0.36
1 8.38 838 0.426 -9.472 1.461 4.028 -200.623 78.888 -1880.825 2856.089 -2019.784 -0.450 0.179 1.652 -0.28 0.51 -0.71 0.39
1 8.39 839 0.192 -9.587 1.408 -2.960 -202.698 80.384 -1835.704 2691.047 -1944.833 -0.228 0.292 1.699 -0.29 0.51 -0.71 0.4
1 8.40 840 0.101 -9.596 1.408 -11.688 -204.041 80.597 -1970.766 2826.109 -2079.745 -0.152 0.296 1.682 -0.29 0.51 -0.7 0.41
1 8.41 841 -0.393 -9.711 1.537 -19.806 -208.558 81.299 -1970.766 2826.109 -2079.745 0.325 0.402 1.525 -0.3 0.5 -0.69 0.42
1 8.42 842 -0.857 -9.951 1.484 -18.799 -212.739 77.790 -1970.766 2901.060 -1779.791 0.771 0.630 1.540 -0.31 0.5 -0.68 0.43
1 8.43 843 -0.694 -10.013 1.786 -9.827 -218.964 69.733 -2045.717 2976.011 -1629.888 0.591 0.680 1.202 -0.32 0.49 -0.67 0.45
1 8.44 844 -0.273 -9.927 1.561 8.392 -214.905 72.510 -2045.717 2976.011 -1629.888 0.162 0.587 1.404 -0.33 0.49 -0.66 0.46
1 8.45 845 0.273 -9.127 1.863 15.198 -211.976 82.062 -2048.116 3022.631 -1420.025 -0.403 -0.207 1.120 -0.35 0.48 -0.65 0.48
1 8.46 846 -0.211 -8.998 1.810 9.796 -210.816 88.288 -1988.155 3112.572 -1479.986 0.060 -0.330 1.191 -0.35 0.47 -0.64 0.49
1 8.47 847 -0.555 -9.266 1.432 7.294 -211.793 83.924 -1988.155 3112.572 -1479.986 0.377 -0.058 1.582 -0.36 0.47 -0.63 0.51
1 8.48 848 -0.608 -10.013 1.595 6.683 -213.105 75.012 -2093.236 3007.641 -1329.934 0.411 0.692 1.426 -0.37 0.46 -0.62 0.52
1 8.49 849 -0.603 -10.056 1.614 9.033 -211.060 78.736 -2288.109 3187.523 -1225.002 0.396 0.737 1.413 -0.37 0.45 -0.61 0.53
1 8.50 850 -0.512 -9.754 1.575 15.167 -210.602 77.057 -2153.197 3277.615 -1014.989 0.291 0.439 1.459 -0.38 0.45 -0.6 0.54
1 8.51 851 -0.642 -10.267 1.762 21.729 -209.778 79.834 -2152.748 3277.165 -1014.989 0.405 0.957 1.290 -0.39 0.44 -0.59 0.55
1 8.52 852 -0.828 -8.969 2.021 26.001 -206.696 78.034 -2077.646 3307.295 -909.907 0.560 -0.319 1.094 -0.4 0.42 -0.57 0.57
1 8.53 853 -0.958 -9.022 2.437 13.062 -204.224 68.665 -2197.718 3232.194 -760.005 0.678 -0.254 0.713 -0.41 0.42 -0.56 0.58
1 8.54 854 -0.963 -8.811 2.006 11.505 -196.961 67.841 -2197.718 3232.194 -760.005 0.677 -0.457 1.167 -0.41 0.41 -0.56 0.59
1 8.55 855 -1.168 -9.156 1.982 11.749 -194.214 57.556 -2212.708 3442.208 -789.985 0.883 -0.105 1.211 -0.42 0.4 -0.55 0.6
1 8.56 856 -0.838 -8.758 2.140 22.400 -190.522 55.878 -2093.386 3367.706 -564.832 0.560 -0.496 1.072 -0.42 0.4 -0.54 0.61
1 8.57 857 -0.455 -9.060 2.231 17.822 -188.599 49.408 -2093.386 3517.758 -594.812 0.185 -0.184 1.011 -0.43 0.39 -0.53 0.62
1 8.58 858 -0.359 -9.184 1.954 18.677 -186.341 55.115 -2093.386 3517.758 -594.812 0.110 -0.050 1.319 -0.44 0.38 -0.52 0.63
1 8.59 859 -0.038 -8.830 2.294 17.639 -183.442 45.593 -2048.266 3427.817 -369.809 -0.172 -0.386 1.032 -0.45 0.36 -0.5 0.65
1 8.60 860 0.211 -8.485 2.236 12.848 -179.200 46.204 -2078.246 3472.788 -294.858 -0.392 -0.723 1.113 -0.45 0.35 -0.49 0.65
1 8.61 861 0.292 -8.768 2.437 3.754 -172.944 34.119 -2078.246 3472.788 -294.858 -0.440 -0.434 0.930 -0.46 0.35 -0.49 0.66
1 8.62 862 -0.038 -9.673 2.777 2.014 -167.878 33.600 -2033.275 3367.706 -279.868 -0.065 0.472 0.595 -0.46 0.34 -0.48 0.67
1 8.63 863 0.498 -8.950 3.041 15.198 -168.397 37.720 -2166.239 3486.129 -100.285 -0.561 -0.249 0.336 -0.47 0.33 -0.47 0.67
1 8.64 864 0.795 -9.606 3.381 12.787 -165.314 32.135 -2121.268 3501.119 -115.275 -0.823 0.412 0.013 -0.47 0.32 -0.46 0.68
1 8.65 865 1.192 -9.295 3.505 6.622 -160.828 27.893 -2121.268 3501.119 -115.275 -1.174 0.108 -0.092 -0.48 0.32 -0.45 0.68
1 8.66 866 1.192 -10.075 3.386 5.646 -157.105 26.489 -1986.206 3606.051 19.637 -1.124 0.893 0.039 -0.48 0.31 -0.45 0.69
1 8.67 867 1.690 -9.697 3.572 20.264 -154.084 20.050 -1956.226 3441.158 124.569 -1.510 0.525 -0.126 -0.49 0.29 -0.43 0.7
1 8.68 868 2.140 -9.366 3.754 30.151 -151.978 27.741 -1956.226 3441.158 124.569 -1.899 0.206 -0.282 -0.49 0.28 -0.43 0.7
1 8.69 869 2.433 -9.611 3.874 34.943 -144.562 19.196 -1836.304 3606.051 154.549 -2.138 0.467 -0.361 -0.5 0.27 -0.42 0.71
1 8.70 870 2.701 -10.042 4.166 37.933 -133.973 17.029 -1911.555 3516.409 334.732 -2.340 0.917 -0.608 -0.5 0.26 -0.41 0.71
1 8.71 871 2.686 -10.688 4.152 44.251 -131.165 31.830 -1911.555 3606.500 334.732 -2.281 1.585 -0.545 -0.5 0.26 -0.41 0.72
1 8.72 872 2.720 -10.597 4.099 41.992 -132.019 38.391 -1911.555 3606.500 334.732 -2.281 1.517 -0.438 -0.5 0.25 -0.4 0.72
1 8.73 873 2.433 -11.038 4.056 33.386 -129.120 39.215 -1911.555 3516.409 394.693 -1.971 1.980 -0.343 -0.5 0.24 -0.4 0.73
1 8.74 874 1.422 -11.612 3.855 30.029 -124.909 38.696 -1761.502 3561.380 304.751 -0.914 2.587 -0.070 -0.51 0.23 -0.38 0.74
1 8.75 875 1.001 -10.204 4.008 33.081 -131.684 38.757 -1761.502 3561.380 304.751 -0.475 1.195 -0.188 -0.51 0.22 -0.37 0.74
1 8.76 876 0.781 -10.520 3.960 33.569 -134.522 42.938 -1806.623 3606.500 469.794 -0.230 1.528 -0.104 -0.51 0.21 -0.37 0.75
1 8.77 877 1.101 -9.596 3.855 32.532 -135.773 44.464 -1806.623 3606.500 469.794 -0.532 0.620 0.037 -0.51 0.2 -0.36 0.75
1 8.78 878 1.681 -8.543 3.663 33.875 -132.721 39.520 -1731.522 3681.452 394.693 -1.087 -0.418 0.261 -0.51 0.2 -0.35 0.76
1 8.79 879 1.063 -9.663 3.759 30.975 -132.843 37.903 -1731.522 3681.452 394.693 -0.437 0.720 0.199 -0.51 0.19 -0.35 0.76
1 8.80 880 1.551 -8.543 3.577 31.738 -130.402 33.966 -1671.561 3696.442 454.804 -0.889 -0.385 0.410 -0.51 0.18 -0.34 0.77
1 8.81 881 0.187 -8.849 2.524 44.281 -134.461 40.955 -1596.610 3696.442 634.687 0.550 -0.042 1.530 -0.52 0.17 -0.32 0.78
1 8.82 882 0.464 -8.543 2.557 35.797 -146.302 45.593 -1596.610 3696.442 634.687 0.300 -0.332 1.530 -0.52 0.16 -0.32 0.78
1 8.83 883 0.872 -8.964 2.351 33.661 -148.346 54.474 -1566.629 3651.471 484.784 -0.082 0.102 1.758 -0.52 0.15 -0.31 0.78
1 8.84 884 0.833 -8.993 2.217 35.492 -150.635 61.951 -1566.629 3651.471 484.784 -0.025 0.142 1.911 -0.52 0.14 -0.3 0.79
1 8.85 885 1.025 -9.012 2.102 34.577 -155.152 69.123 -1410.281 3689.546 557.637 -0.205 0.171 2.045 -0.52 0.14 -0.29 0.79
1 8.86 886 0.953 -9.175 2.040 35.248 -155.854 74.585 -1410.281 3689.546 557.637 -0.124 0.342 2.124 -0.52 0.13 -0.28 0.8
1 8.87 887 0.852 -9.165 2.251 31.311 -159.089 77.881 -1485.382 3644.576 707.689 -0.021 0.340 1.928 -0.52 0.12 -0.27 0.8
1 8.88 888 1.159 -9.371 2.495 21.210 -163.941 76.599 -1485.382 3884.569 602.607 -0.326 0.554 1.700 -0.52 0.11 -0.25 0.81
1 8.89 889 1.298 -9.548 2.509 14.069 -167.878 76.844 -1485.382 3884.569 602.607 -0.459 0.728 1.679 -0.53 0.1 -0.23 0.81
1 8.90 890 1.432 -9.821 2.457 8.057 -171.174 80.048 -1245.389 4019.631 572.627 -0.586 0.994 1.716 -0.53 0.09 -0.22 0.81
1 8.91 891 1.820 -8.567 2.433 -6.073 -174.012 63.751 -1241.191 4014.235 570.978 -0.966 -0.272 1.713 -0.53 0.08 -0.21 0.82
1 8.92 892 2.073 -9.864 2.615 -34.699 -173.523 57.862 -941.237 3849.192 766.001 -1.183 1.006 1.481 -0.53 0.07 -0.2 0.82
1 8.93 893 2.413 -10.990 2.107 -16.571 -162.415 68.482 -941.237 3849.192 766.001 -1.484 2.100 1.911 -0.54 0.07 -0.19 0.82
1 8.94 894 2.490 -10.554 1.992 9.766 -158.539 66.529 -911.256 3894.313 795.981 -1.545 1.639 1.966 -0.54 0.06 -0.18 0.82
1 8.95 895 2.782 -10.204 2.179 27.344 -154.389 63.416 -881.276 3894.313 1050.965 -1.830 1.282 1.761 -0.54 0.05 -0.17 0.82
1 8.96 896 3.390 -10.061 2.452 43.488 -141.999 67.505 -879.777 3892.064 1050.066 -2.427 1.156 1.526 -0.54 0.04 -0.14 0.83
1 8.97 897 3.462 -9.443 2.428 51.605 -131.012 63.751 -804.826 3892.064 1050.066 -2.496 0.556 1.587 -0.54 0.03 -0.13 0.83
1 8.98 898 3.108 -8.940 2.495 49.805 -125.397 59.937 -804.826 3892.064 1050.066 -2.127 0.073 1.560 -0.54 0.02 -0.13 0.83
1 8.99 899 1.829 -7.743 2.394 31.067 -130.463 58.838 -609.803 4042.117 1050.066 -0.834 -1.106 1.697 -0.54 0.01 -0.12 0.83
1 9.00 900 1.987 -8.533 2.662 -19.898 -143.830 52.551 -534.852 4087.087 944.984 -0.979 -0.312 1.435 -0.54 0.01 -0.11 0.84
1 9.01 901 1.982 -9.256 2.073 -20.844 -137.696 46.295 -367.860 4127.261 958.026 -0.957 0.395 1.985 -0.54 0 -0.1 0.84
1 9.02 902 2.212 -9.893 2.428 -2.106 -131.989 43.091 -277.769 4082.291 1047.967 -1.157 1.009 1.571 -0.54 -0.01 -0.09 0.83
1 9.03 903 2.500 -9.826 2.729 22.644 -120.270 39.398 -277.769 4082.291 1047.967 -1.390 0.924 1.215 -0.55 -0.02 -0.07 0.83
1 9.04 904 2.184 -9.084 2.677 25.879 -111.115 43.762 -232.798 4127.261 988.006 -1.048 0.187 1.272 -0.55 -0.03 -0.06 0.84
1 9.05 905 1.915 -9.007 2.892 20.081 -110.627 43.945 -232.798 4127.261 988.006 -0.763 0.115 1.063 -0.55 -0.03 -0.06 0.84
1 9.06 906 1.231 -8.682 2.615 15.686 -115.845 47.547 -352.720 4112.271 1017.987 -0.064 -0.208 1.341 -0.54 -0.04 -0.05 0.84
1 9.07 907 1.949 -9.041 2.892 15.350 -115.692 41.565 -82.746 4097.281 958.026 -0.770 0.149 1.055 -0.54 -0.05 -0.04 0.84
1 9.08 908 2.389 -9.419 2.868 26.795 -106.324 42.786 -187.828 4172.232 1062.958 -1.193 0.526 1.071 -0.54 -0.05 -0.03 0.84
1 9.09 909 1.422 -9.194 2.658 24.689 -108.948 47.211 -22.785 4157.242 898.065 -0.210 0.306 1.287 -0.54 -0.06 -0.03 0.84
1 9.10 910 1.690 -9.453 2.672 19.409 -110.108 48.004 -22.785 4157.242 898.065 -0.469 0.569 1.281 -0.54 -0.06 -0.02 0.84
1 9.11 911 2.112 -9.663 2.567 31.586 -105.500 45.105 127.117 4037.320 973.016 -0.879 0.783 1.390 -0.54 -0.07 -0 0.84
1 9.12 912 2.447 -9.682 2.792 40.253 -100.464 41.809 127.417 4035.221 971.967 -1.205 0.810 1.181 -0.54 -0.08 0.01 0.84
1 9.13 913 2.677 -9.864 2.648 44.159 -96.588 38.452 52.316 4110.172 1046.918 -1.421 1.007 1.353 -0.54 -0.08 0.01 0.84
1 9.14 914 3.022 -9.041 2.926 38.880 -94.574 27.954 97.287 4050.211 806.924 -1.747 0.200 1.106 -0.54 -0.09 0.02 0.84
1 9.15 915 3.084 -9.687 3.256 32.318 -90.576 32.135 232.349 4230.094 897.016 -1.773 0.862 0.798 -0.53 -0.1 0.02 0.84
1 9.16 916 2.806 -9.347 2.950 42.053 -83.191 32.013 292.310 4215.104 882.025 -1.465 0.533 1.119 -0.53 -0.1 0.03 0.84
1 9.17 917 3.046 -9.204 3.199 40.650 -77.393 26.428 292.310 4215.104 882.025 -1.682 0.407 0.899 -0.53 -0.11 0.04 0.84
1 9.18 918 3.184 -8.974 3.189 38.208 -65.003 20.630 277.319 4185.124 687.002 -1.770 0.214 0.971 -0.52 -0.11 0.05 0.84
1 9.19 919 3.199 -8.907 3.366 35.950 -57.617 15.045 277.319 4185.124 687.002 -1.756 0.167 0.825 -0.52 -0.12 0.05 0.84
1 9.20 920 3.017 -8.892 3.400 27.680 -52.490 11.322 412.381 4035.221 687.002 -1.543 0.171 0.820 -0.52 -0.12 0.05 0.84
1 9.21 921 2.050 -8.054 3.165 2.563 -69.580 10.895 367.411 4095.182 627.042 -0.542 -0.655 1.067 -0.52 -0.13 0.06 0.84
1 9.22 922 3.170 -8.873 3.266 -13.641 -65.766 5.798 397.391 4050.211 627.042 -1.620 0.158 0.940 -0.52 -0.13 0.06 0.84
1 9.23 923 3.457 -9.232 2.955 5.585 -56.336 1.709 442.362 4020.081 627.042 -1.860 0.507 1.211 -0.52 -0.14 0.06 0.84
1 9.24 924 3.323 -8.758 3.036 20.203 -46.173 5.157 442.362 4020.081 627.042 -1.682 0.031 1.109 -0.52 -0.14 0.07 0.84
1 9.25 925 2.849 -8.289 2.998 20.935 -36.682 10.651 502.323 4125.163 447.009 -1.142 -0.417 1.165 -0.52 -0.15 0.07 0.84
1 9.26 926 2.437 -8.241 3.060 18.280 -36.163 3.937 501.873 4122.914 446.109 -0.709 -0.455 1.115 -0.51 -0.15 0.07 0.84
1 9.27 927 1.891 -7.930 3.151 6.592 -37.354 7.813 501.873 4122.914 626.142 -0.137 -0.757 1.033 -0.51 -0.15 0.08 0.84
1 9.28 928 2.327 -7.858 3.649 -19.928 -43.518 6.165 666.916 4107.924 566.181 -0.555 -0.830 0.523 -0.51 -0.16 0.08 0.84
1 9.29 929 2.959 -8.945 3.989 -34.241 -42.420 -0.092 546.844 4167.885 521.210 -1.162 0.240 0.139 -0.51 -0.16 0.08 0.84
1 9.30 930 3.127 -9.515 4.214 -41.779 -36.743 -1.190 441.912 4017.982 446.109 -1.296 0.790 -0.143 -0.52 -0.16 0.08 0.84
1 9.31 931 2.969 -9.783 3.788 -47.699 -32.776 -2.045 441.912 4017.982 446.109 -1.109 1.036 0.220 -0.52 -0.17 0.08 0.84
1 9.32 932 3.175 -10.075 3.275 -36.926 -30.182 -2.808 546.844 3973.012 521.210 -1.266 1.274 0.590 -0.52 -0.17 0.09 0.83
1 9.33 933 2.959 -9.984 3.012 -25.086 -27.954 -1.740 546.844 3973.012 521.210 -1.030 1.167 0.804 -0.52 -0.17 0.09 0.83
1 9.34 934 2.816 -9.199 2.859 -1.007 -26.642 1.465 456.902 4152.895 686.103 -0.865 0.376 0.934 -0.52 -0.18 0.09 0.83
1 9.35 935 2.729 -8.754 3.093 1.556 -27.222 3.723 621.945 4122.914 596.162 -0.759 -0.071 0.685 -0.52 -0.18 0.09 0.83
1 9.36 936 2.677 -8.859 3.146 15.411 -24.567 6.775 456.902 4183.025 506.070 -0.690 0.035 0.625 -0.52 -0.18 0.09 0.83
1 9.37 937 2.605 -9.127 3.304 23.071 -17.090 10.468 441.912 3973.012 551.191 -0.605 0.308 0.473 -0.52 -0.18 0.09 0.83
1 9.38 938 2.528 -8.931 3.477 20.722 -6.195 17.426 441.912 3973.012 551.191 -0.524 0.122 0.322 -0.52 -0.18 0.09 0.83
1 9.39 939 2.524 -8.653 3.840 17.548 -8.118 15.717 306.850 4152.895 461.100 -0.531 -0.148 -0.018 -0.52 -0.18 0.1 0.83
1 9.40 940 3.079 -8.428 3.845 3.601 -4.852 13.153 306.850 4152.895 461.100 -1.109 -0.363 0.013 -0.52 -0.18 0.1 0.83
1 9.41 941 3.386 -8.313 4.185 -8.789 -4.883 11.749 561.984 4032.973 566.181 -1.421 -0.478 -0.326 -0.52 -0.18 0.1 0.83
1 9.42 942 3.242 -8.370 4.434 -19.043 -5.554 10.925 561.984 4107.924 506.070 -1.279 -0.427 -0.589 -0.52 -0.18 0.1 0.83
1 9.43 943 3.012 -8.227 4.707 -28.504 -5.371 11.292 561.984 4107.924 506.070 -1.051 -0.582 -0.887 -0.52 -0.19 0.1 0.83
1 9.44 944 2.639 -8.686 4.755 -48.981 -12.665 12.451 606.955 4077.943 506.070 -0.678 -0.138 -0.970 -0.52 -0.19 0.1 0.83
1 9.45 945 2.514 -9.060 4.947 -72.113 -15.930 20.996 606.955 4077.943 506.070 -0.554 0.211 -1.219 -0.52 -0.19 0.1 0.82
1 9.46 946 2.500 -9.548 5.095 -83.100 -14.313 32.776 531.854 4032.973 566.181 -0.552 0.661 -1.453 -0.53 -0.19 0.11 0.82
1 9.47 947 2.686 -10.353 4.530 -64.484 26.917 42.664 531.854 4032.973 566.181 -0.826 1.362 -1.105 -0.54 -0.19 0.11 0.81
1 9.48 948 1.355 -10.406 3.975 -27.527 26.611 37.628 576.974 4122.914 596.162 0.433 1.375 -0.616 -0.54 -0.19 0.11 0.81
1 9.49 949 0.757 -9.625 4.027 -0.061 27.130 32.379 711.886 4017.982 626.142 0.969 0.575 -0.687 -0.54 -0.18 0.11 0.81
1 9.50 950 0.302 -8.849 4.343 12.116 25.940 28.626 711.886 4017.982 626.142 1.362 -0.205 -0.984 -0.54 -0.18 0.11 0.81
1 9.51 951 0.072 -7.350 4.434 -0.092 31.311 16.510 636.935 4002.992 761.204 1.530 -1.703 -1.043 -0.54 -0.18 0.11 0.81
1 9.52 952 -0.393 -7.973 4.286 -18.982 29.114 12.695 636.935 4002.992 761.204 1.946 -1.083 -0.877 -0.54 -0.17 0.11 0.81
1 9.53 953 -0.709 -8.897 4.372 -36.347 25.238 15.595 651.925 3973.012 731.074 2.228 -0.169 -0.975 -0.54 -0.17 0.11 0.81
1 9.54 954 -0.752 -9.855 4.698 -48.767 20.050 23.987 651.925 3973.012 731.074 2.223 0.771 -1.328 -0.55 -0.17 0.11 0.81
1 9.55 955 0.378 -11.172 4.099 -45.807 22.705 30.426 561.984 4077.943 791.185 0.988 2.030 -0.844 -0.55 -0.17 0.12 0.81
1 9.56 956 0.498 -11.493 3.405 -29.175 27.832 33.569 666.916 3882.920 821.165 0.814 2.324 -0.203 -0.56 -0.16 0.12 0.81
1 9.57 957 0.608 -11.248 3.553 1.770 32.410 36.011 666.916 3882.920 821.165 0.640 2.062 -0.376 -0.56 -0.16 0.12 0.81
1 9.58 958 0.484 -10.137 3.591 23.865 36.133 38.513 876.929 3912.901 821.165 0.696 0.949 -0.394 -0.56 -0.16 0.12 0.81
1 9.59 959 -0.168 -9.620 3.357 18.768 35.523 43.305 876.929 3912.901 821.165 1.273 0.438 -0.116 -0.56 -0.15 0.12 0.81
1 9.60 960 0.168 -8.950 3.160 11.353 26.428 51.331 786.987 3973.012 956.077 0.856 -0.228 0.118 -0.56 -0.15 0.12 0.81
1 9.61 961 0.915 -8.481 3.438 7.019 28.076 47.730 785.938 3971.513 955.178 0.016 -0.700 -0.137 -0.56 -0.14 0.12 0.81
1 9.62 962 0.915 -8.227 3.146 0.366 34.760 40.955 876.029 3911.552 940.188 -0.140 -0.957 0.185 -0.56 -0.14 0.13 0.81
1 9.63 963 0.393 -8.423 3.041 -4.059 36.774 41.596 891.020 4016.483 730.174 0.308 -0.765 0.294 -0.56 -0.13 0.13 0.81
1 9.64 964 0.397 -7.973 2.763 -6.348 39.185 33.264 891.020 4016.483 730.174 0.229 -1.221 0.570 -0.56 -0.13 0.13 0.81
1 9.65 965 -0.101 -8.643 2.524 -11.353 35.645 30.945 770.948 3761.500 865.236 0.663 -0.557 0.803 -0.56 -0.13 0.13 0.81
1 9.66 966 -0.388 -8.514 2.351 -15.717 33.295 30.884 831.059 3971.513 850.096 0.887 -0.696 0.961 -0.56 -0.12 0.13 0.81
1 9.67 967 -0.297 -8.294 2.567 -12.268 29.724 26.032 891.020 4046.464 805.125 0.737 -0.926 0.727 -0.56 -0.12 0.13 0.81
1 9.68 968 0.057 -7.992 2.624 -12.207 33.295 20.386 891.020 4046.464 805.125 0.326 -1.236 0.652 -0.56 -0.12 0.13 0.81
1 9.69 969 -0.359 -8.016 2.294 -13.367 33.966 18.951 891.020 4016.483 880.227 0.653 -1.224 0.957 -0.57 -0.11 0.13 0.81
1 9.70 970 -0.584 -8.160 2.131 -13.428 29.541 15.503 935.990 4046.464 910.207 0.837 -1.088 1.103 -0.57 -0.11 0.13 0.8
1 9.71 971 -0.594 -8.414 2.040 -12.207 25.910 11.780 935.990 4046.464 910.207 0.813 -0.840 1.178 -0.57 -0.11 0.13 0.8
1 9.72 972 -0.752 -8.490 2.059 -11.383 22.461 10.407 995.951 3956.522 970.168 0.943 -0.770 1.144 -0.57 -0.11 0.13 0.8
1 9.73 973 -0.800 -8.442 2.069 -13.733 16.541 10.010 995.951 3956.522 970.168 0.967 -0.823 1.119 -0.57 -0.1 0.13 0.8
1 9.74 974 -0.627 -8.619 2.050 -15.991 11.810 6.866 1040.922 4091.435 955.178 0.774 -0.653 1.120 -0.57 -0.1 0.13 0.8
1 9.75 975 -0.555 -8.663 2.121 -14.160 9.705 4.974 1040.922 4091.435 955.178 0.684 -0.618 1.025 -0.57 -0.1 0.13 0.8
1 9.76 976 -0.278 -8.749 1.915 -8.026 6.866 0.916 876.029 3806.470 865.236 0.376 -0.548 1.184 -0.58 -0.1 0.13 0.8
1 9.77 977 -0.364 -8.888 1.853 -4.181 5.981 -0.397 950.980 3836.451 940.188 0.456 -0.413 1.233 -0.58 -0.1 0.13 0.8
1 9.78 978 -0.388 -8.706 2.016 4.395 4.761 -4.883 950.980 3836.451 940.188 0.480 -0.597 1.065 -0.58 -0.1 0.13 0.8
1 9.79 979 -0.675 -8.787 2.026 8.850 4.730 -7.721 950.980 3956.522 1015.139 0.770 -0.515 1.058 -0.58 -0.1 0.13 0.8
1 9.80 980 -0.886 -8.974 1.963 15.472 6.378 -8.392 950.980 3761.500 820.116 0.985 -0.325 1.129 -0.58 -0.1 0.13 0.8
1 9.81 981 -1.159 -9.204 1.877 29.907 -1.465 -5.188 1010.941 3791.480 910.207 1.264 -0.089 1.232 -0.58 -0.1 0.13 0.8
1 9.82 982 -0.996 -8.916 2.495 44.159 -5.890 -1.587 1010.941 3791.480 910.207 1.102 -0.366 0.645 -0.57 -0.1 0.13 0.8
1 9.83 983 -0.819 -8.346 2.945 37.109 -1.587 -3.815 995.951 3881.421 970.168 0.921 -0.919 0.247 -0.57 -0.1 0.13 0.8
1 9.84 984 -0.220 -8.868 2.648 10.925 2.930 -2.411 995.951 3956.522 940.188 0.321 -0.365 0.634 -0.57 -0.1 0.13 0.81
1 9.85 985 -0.249 -8.940 2.825 -4.730 2.289 1.740 995.951 3956.522 940.188 0.349 -0.290 0.466 -0.57 -0.1 0.13 0.81
1 9.86 986 -0.517 -9.304 2.897 -21.942 0.092 6.897 861.039 3791.480 730.174 0.611 0.069 0.379 -0.57 -0.1 0.13 0.81
1 9.87 987 -0.690 -10.099 2.945 -34.271 -1.434 10.284 891.020 3866.431 955.178 0.770 0.851 0.295 -0.57 -0.1 0.13 0.8
1 9.88 988 -0.278 -10.463 3.093 -79.254 30.212 5.829 1010.941 3866.431 805.125 0.338 1.194 0.088 -0.57 -0.1 0.13 0.8
1 9.89 989 -0.441 -11.287 2.729 -102.753 35.309 -1.343 1010.941 3866.431 805.125 0.479 1.985 0.356 -0.58 -0.1 0.13 0.8
1 9.90 990 -1.398 -13.729 1.614 -93.170 26.459 -0.488 1040.922 3746.509 670.213 1.421 4.383 1.334 -0.58 -0.1 0.13 0.8
1 9.91 991 -0.704 -13.805 1.413 -28.504 21.240 5.341 891.020 3626.438 1030.129 0.707 4.391 1.309 -0.59 -0.1 0.13 0.79
1 9.92 992 -0.713 -12.829 1.130 1.190 25.574 7.416 891.020 3626.438 1030.129 0.698 3.406 1.564 -0.59 -0.1 0.13 0.79
1 9.93 993 -0.656 -11.890 1.178 11.200 27.527 5.554 891.020 3896.562 955.178 0.622 2.470 1.525 -0.59 -0.09 0.13 0.79
1 9.94 994 -0.891 -11.694 1.302 7.904 31.647 2.655 861.039 3746.509 1105.230 0.841 2.279 1.418 -0.59 -0.09 0.13 0.79
1 9.95 995 -1.537 -15.860 5.354 -7.416 6.256 13.794 935.990 3866.431 1060.109 1.469 6.448 -2.623 -0.59 -0.09 0.13 0.79
1 9.96 996 -0.010 -15.352 5.200 -50.812 29.114 41.992 935.990 3866.431 1060.109 -0.079 5.940 -2.472 -0.59 -0.09 0.13 0.79
1 9.97 997 0.498 -13.374 3.141 -31.616 59.204 51.544 891.020 3941.532 955.178 -0.643 3.946 -0.472 -0.6 -0.09 0.13 0.79
1 9.98 998 0.943 -13.628 2.998 -0.275 53.681 50.629 785.938 3941.532 910.207 -1.184 4.186 -0.387 -0.6 -0.08 0.13 0.79
1 9.99 999 -1.001 -11.416 0.891 15.961 58.777 44.617 785.938 3941.532 910.207 0.572 1.980 1.721 -0.6 -0.07 0.13 0.79
1 10.00 1000 -1.853 -10.798 1.796 27.649 48.126 38.727 831.059 3866.431 955.178 1.341 1.373 0.841 -0.6 -0.06 0.13 0.79
1 10.01 1001 -2.442 -10.051 2.083 42.969 49.286 30.274 995.951 3806.470 1015.139 1.856 0.643 0.597 -0.6 -0.06 0.13 0.79
1 10.02 1002 -1.317 -8.236 3.577 32.288 56.427 7.507 861.039 3821.460 1030.129 0.659 -1.150 -0.837 -0.6 -0.05 0.13 0.79
1 10.03 1003 -1.700 -8.030 4.276 -5.371 41.779 2.411 861.039 3821.460 1030.129 0.996 -1.335 -1.476 -0.6 -0.05 0.13 0.79
1 10.04 1004 -1.551 -7.987 4.851 -47.058 27.618 2.472 876.029 3761.500 970.168 0.821 -1.374 -2.044 -0.6 -0.05 0.13 0.79
