COL1	TIME	ACC_X	ACC_Y	ACC_Z	GYR_X	GYR_Y	GYR_Z	MAG_X	MAG_Y	MAG_Z	LACC_X	LACC_Y	LACC_Z	QUAT_X	QUAT_Y	QUAT_Z	QUAT_W
1 0.00 0 0.680 -9.228 3.357 -1.587 -0.366 0.671 1044.669 3178.679 -3239.989 -0.053 0.004 -0.105 -0.13 -0.56 0.78 0.24
1 0.01 1 0.699 -9.477 3.309 -1.434 -1.190 1.038 924.598 3283.761 -3180.028 -0.072 0.253 -0.057 -0.13 -0.56 0.78 0.24
1 0.02 2 0.666 -9.343 3.299 -0.854 -0.031 0.854 924.598 3283.761 -3180.028 -0.039 0.119 -0.048 -0.13 -0.56 0.78 0.24
1 0.03 3 0.603 -9.381 3.218 -1.282 0.031 1.434 1044.669 3148.699 -3344.921 0.024 0.157 0.034 -0.13 -0.56 0.78 0.24
1 0.04 4 0.737 -9.328 3.247 -1.312 -0.336 1.099 1044.669 3148.699 -3344.921 -0.111 0.104 0.004 -0.13 -0.56 0.78 0.24
1 0.05 5 0.637 -9.433 3.304 -0.793 0.214 1.404 939.588 3073.748 -3239.989 -0.010 0.210 -0.053 -0.13 -0.56 0.78 0.24
1 0.06 6 0.546 -9.362 3.275 -1.556 -0.458 0.763 1029.679 3238.640 -3299.950 0.081 0.138 -0.025 -0.13 -0.56 0.78 0.24
1 0.07 7 0.718 -9.333 3.290 -1.831 -0.885 1.038 1029.679 3238.640 -3299.950 -0.091 0.109 -0.040 -0.13 -0.56 0.78 0.24
1 0.08 8 0.565 -9.347 3.079 -1.953 -1.221 0.610 1089.640 3298.751 -3420.022 0.062 0.123 0.170 -0.13 -0.56 0.78 0.24
1 0.09 9 0.579 -9.343 3.227 -2.441 -1.160 0.397 1089.640 3298.751 -3420.022 0.047 0.118 0.021 -0.13 -0.56 0.78 0.24
1 0.10 10 0.575 -9.352 3.256 -1.709 -1.007 1.099 924.598 3163.689 -3254.979 0.053 0.127 -0.010 -0.13 -0.56 0.78 0.24
1 0.11 11 0.594 -9.323 3.261 -1.465 -0.916 1.221 924.598 3163.689 -3254.979 0.033 0.098 -0.015 -0.13 -0.56 0.78 0.24
1 0.12 12 0.733 -9.381 3.204 -1.190 -1.221 0.702 984.559 3118.718 -3299.950 -0.106 0.155 0.043 -0.13 -0.56 0.78 0.24
1 0.13 13 0.651 -9.433 3.194 -1.678 -1.373 1.007 1044.669 3178.679 -3314.940 -0.025 0.208 0.052 -0.13 -0.56 0.78 0.24
1 0.14 14 0.517 -9.438 3.242 -1.526 -1.556 1.190 1044.669 3178.679 -3314.940 0.110 0.213 0.003 -0.13 -0.56 0.78 0.24
1 0.15 15 0.642 -9.395 3.295 -1.892 -1.373 1.160 984.559 3088.738 -3435.012 -0.014 0.168 -0.052 -0.13 -0.56 0.78 0.24
1 0.16 16 0.527 -9.290 3.352 -2.197 -1.923 0.549 984.559 3088.738 -3435.012 0.101 0.063 -0.111 -0.13 -0.56 0.78 0.24
1 0.17 17 0.589 -9.314 3.271 -1.862 -1.892 0.763 924.598 3163.689 -3329.931 0.039 0.087 -0.030 -0.13 -0.56 0.78 0.24
1 0.18 18 0.627 -9.371 3.333 -2.350 -1.221 1.007 924.598 3163.689 -3329.931 0.001 0.144 -0.093 -0.13 -0.56 0.78 0.24
1 0.19 19 0.709 -9.443 3.208 -2.045 -1.434 0.854 1059.660 3238.640 -3329.931 -0.080 0.215 0.030 -0.13 -0.56 0.78 0.24
1 0.20 20 0.570 -9.285 3.314 -1.770 -1.556 0.793 1089.640 3103.728 -3314.940 0.059 0.057 -0.076 -0.13 -0.56 0.78 0.24
1 0.21 21 0.666 -9.319 3.318 -1.465 -1.953 1.129 1089.640 3103.728 -3314.940 -0.037 0.090 -0.081 -0.13 -0.56 0.78 0.24
1 0.22 22 0.680 -9.414 3.232 -1.373 -1.099 1.221 984.559 3163.689 -3329.931 -0.051 0.186 0.006 -0.13 -0.56 0.78 0.24
1 0.23 23 0.455 -9.433 3.309 -1.038 -1.465 1.160 849.646 3088.738 -3329.931 0.175 0.205 -0.071 -0.13 -0.56 0.78 0.24
1 0.24 24 0.522 -9.247 3.309 -1.251 -1.556 0.824 1014.689 3148.699 -3269.970 0.107 0.018 -0.072 -0.13 -0.56 0.78 0.24
1 0.25 25 0.632 -9.390 3.247 -0.946 -1.801 0.977 1014.689 3148.699 -3269.970 -0.002 0.162 -0.009 -0.13 -0.56 0.78 0.24
1 0.26 26 0.690 -9.290 3.275 -0.916 -1.953 0.671 954.578 3163.689 -3254.979 -0.060 0.061 -0.038 -0.13 -0.56 0.78 0.24
1 0.27 27 0.670 -9.395 3.299 -0.427 -2.411 1.099 774.545 3088.738 -3224.999 -0.040 0.167 -0.062 -0.13 -0.56 0.78 0.24
1 0.28 28 0.623 -9.405 3.251 -1.221 -2.533 0.397 774.545 3088.738 -3224.999 0.009 0.177 -0.014 -0.13 -0.56 0.78 0.24
1 0.29 29 0.570 -9.309 3.366 -0.732 -2.716 0.610 939.588 3223.650 -3344.921 0.062 0.081 -0.129 -0.13 -0.56 0.78 0.24
1 0.30 30 0.493 -9.405 3.390 -0.946 -2.533 0.732 954.578 3118.718 -3254.979 0.141 0.176 -0.154 -0.13 -0.56 0.78 0.24
1 0.31 31 0.646 -9.328 3.295 -0.763 -3.113 1.617 864.637 3073.748 -3314.940 -0.012 0.100 -0.059 -0.13 -0.56 0.78 0.24
1 0.32 32 0.445 -9.295 3.318 -0.641 -3.357 1.709 864.637 3073.748 -3314.940 0.190 0.066 -0.083 -0.13 -0.56 0.78 0.23
1 0.33 33 0.450 -9.237 3.376 0.031 -4.028 2.258 984.559 3043.767 -3299.950 0.185 0.009 -0.140 -0.13 -0.56 0.78 0.23
1 0.34 34 0.613 -9.314 3.280 -0.610 -4.334 1.465 1029.679 3238.640 -3405.032 0.022 0.085 -0.044 -0.13 -0.56 0.78 0.23
1 0.35 35 0.579 -9.386 3.290 0.305 -4.547 2.197 1029.679 3238.640 -3405.032 0.056 0.157 -0.053 -0.13 -0.56 0.78 0.23
1 0.36 36 0.517 -9.314 3.199 -0.153 -4.425 2.014 1090.090 3374.002 -3315.540 0.118 0.086 0.039 -0.13 -0.56 0.78 0.23
1 0.37 37 0.704 -9.410 3.160 0.885 -3.906 2.075 985.158 3013.937 -3405.481 -0.070 0.182 0.078 -0.13 -0.56 0.78 0.23
1 0.38 38 0.675 -9.443 3.194 1.465 -3.265 2.106 925.197 3238.940 -3255.579 -0.041 0.216 0.045 -0.13 -0.56 0.78 0.23
1 0.39 39 0.737 -9.424 3.347 1.038 -3.510 1.617 925.197 3238.940 -3255.579 -0.103 0.197 -0.105 -0.13 -0.56 0.78 0.23
1 0.40 40 0.761 -9.410 3.242 0.641 -3.906 1.923 970.168 3148.999 -3345.521 -0.127 0.184 0.002 -0.13 -0.56 0.78 0.23
1 0.41 41 0.704 -9.252 3.184 -0.122 -3.479 1.648 790.135 3178.979 -3345.521 -0.068 0.026 0.060 -0.13 -0.56 0.78 0.23
1 0.42 42 0.560 -9.223 3.405 -0.885 -3.418 1.678 790.135 3178.979 -3345.521 0.076 -0.002 -0.160 -0.13 -0.56 0.78 0.23
1 0.43 43 0.613 -9.156 3.338 -0.824 -3.571 1.617 955.178 3193.969 -3330.530 0.023 -0.069 -0.092 -0.13 -0.56 0.78 0.23
1 0.44 44 0.651 -9.084 3.433 -0.488 -2.808 1.984 880.227 3163.989 -3225.599 -0.016 -0.140 -0.186 -0.13 -0.56 0.78 0.23
1 0.45 45 0.656 -9.175 3.362 -0.702 -2.808 1.984 745.165 3148.999 -3240.589 -0.021 -0.049 -0.112 -0.13 -0.56 0.78 0.23
1 0.46 46 0.690 -9.141 3.366 -0.092 -2.533 2.014 745.165 3148.999 -3240.589 -0.055 -0.082 -0.115 -0.13 -0.56 0.78 0.23
1 0.47 47 0.804 -9.290 3.342 0.122 -2.197 1.556 985.158 3089.038 -3375.501 -0.170 0.067 -0.090 -0.13 -0.56 0.78 0.23
1 0.48 48 0.709 -9.371 3.362 0.366 -1.587 1.404 895.217 3074.047 -3315.540 -0.073 0.149 -0.107 -0.13 -0.56 0.78 0.23
1 0.49 49 0.809 -9.252 3.362 -0.519 -1.343 1.709 895.217 3074.047 -3315.540 -0.173 0.030 -0.105 -0.13 -0.56 0.78 0.23
1 0.50 50 0.766 -9.252 3.299 -0.732 -0.549 0.946 940.188 3178.979 -3345.521 -0.130 0.030 -0.043 -0.13 -0.56 0.78 0.23
1 0.51 51 0.623 -9.290 3.347 -1.251 -0.732 1.312 1090.090 3074.047 -3135.507 0.014 0.069 -0.090 -0.13 -0.56 0.78 0.23
1 0.52 52 0.642 -9.338 3.491 -1.465 0.214 0.458 985.158 3163.989 -3405.481 -0.004 0.117 -0.233 -0.13 -0.56 0.78 0.23
1 0.53 53 0.718 -9.333 3.362 -1.404 0.488 0.671 985.158 3163.989 -3405.481 -0.081 0.113 -0.102 -0.13 -0.56 0.78 0.23
1 0.54 54 0.656 -9.275 3.362 -1.312 1.099 1.038 940.188 3253.930 -3345.521 -0.018 0.055 -0.102 -0.13 -0.56 0.78 0.23
1 0.55 55 0.512 -9.376 3.409 -1.251 0.946 0.488 985.158 3193.969 -3375.501 0.125 0.156 -0.150 -0.13 -0.56 0.78 0.23
1 0.56 56 0.728 -9.496 3.237 -1.251 1.190 0.549 985.158 3193.969 -3375.501 -0.091 0.276 0.023 -0.13 -0.56 0.78 0.23
1 0.57 57 0.728 -9.261 3.357 -0.732 1.007 0.641 940.188 3223.950 -3345.521 -0.091 0.041 -0.097 -0.13 -0.56 0.78 0.23
1 0.58 58 0.651 -9.347 3.362 -0.061 0.702 0.702 940.188 3104.028 -3465.592 -0.014 0.127 -0.102 -0.13 -0.56 0.78 0.23
1 0.59 59 0.522 -9.448 3.275 -0.092 0.427 0.916 1015.139 3104.028 -3315.540 0.115 0.229 -0.014 -0.13 -0.56 0.78 0.23
1 0.60 60 0.608 -9.477 3.127 -0.427 0.061 0.366 1015.139 3104.028 -3315.540 0.029 0.258 0.136 -0.13 -0.56 0.78 0.23
1 0.61 61 0.613 -9.467 3.328 -0.366 0.122 0.519 940.188 3104.028 -3465.592 0.023 0.248 -0.066 -0.13 -0.56 0.78 0.23
1 0.62 62 0.589 -9.390 3.371 -0.275 -0.214 0.122 880.227 2968.966 -3405.481 0.047 0.171 -0.109 -0.13 -0.56 0.78 0.23
1 0.63 63 0.608 -9.457 3.429 -0.977 0.092 0.610 882.025 2969.266 -3407.580 0.028 0.238 -0.166 -0.13 -0.56 0.78 0.23
1 0.64 64 0.623 -9.381 3.366 -0.732 -0.732 0.244 957.126 3194.269 -3227.697 0.013 0.162 -0.104 -0.13 -0.56 0.78 0.23
1 0.65 65 0.565 -9.218 3.395 -0.458 -1.160 0.763 867.035 3179.279 -3242.688 0.070 -0.001 -0.132 -0.13 -0.56 0.78 0.23
1 0.66 66 0.603 -9.180 3.400 -0.793 -1.190 0.854 867.035 3179.279 -3242.688 0.031 -0.039 -0.137 -0.13 -0.56 0.78 0.23
1 0.67 67 0.603 -9.213 3.433 -0.732 -1.709 1.373 882.025 3164.289 -3257.678 0.030 -0.005 -0.169 -0.13 -0.56 0.78 0.23
1 0.68 68 0.555 -9.275 3.386 -0.916 -1.617 1.129 1062.058 3044.217 -3332.629 0.077 0.057 -0.120 -0.13 -0.56 0.78 0.23
1 0.69 69 0.594 -9.247 3.433 -0.916 -2.777 1.770 926.996 3089.188 -3257.678 0.038 0.029 -0.167 -0.13 -0.56 0.78 0.23
1 0.70 70 0.613 -9.290 3.424 -0.916 -2.411 1.862 926.996 3089.188 -3257.678 0.018 0.072 -0.157 -0.13 -0.56 0.78 0.23
1 0.71 71 0.527 -9.228 3.390 -1.434 -2.716 1.953 882.025 3164.289 -3332.629 0.104 0.010 -0.123 -0.13 -0.56 0.78 0.23
1 0.72 72 0.565 -9.323 3.357 -1.190 -2.289 2.045 897.016 3224.250 -3317.639 0.065 0.105 -0.090 -0.13 -0.56 0.78 0.23
1 0.73 73 0.637 -9.256 3.275 -1.068 -3.326 2.014 897.016 3224.250 -3317.639 -0.008 0.038 -0.009 -0.13 -0.56 0.78 0.23
1 0.74 74 0.713 -9.390 3.371 -1.282 -2.289 1.862 867.035 3224.250 -3242.688 -0.086 0.172 -0.105 -0.13 -0.56 0.78 0.23
1 0.75 75 0.632 -9.429 3.381 -0.549 -2.777 2.350 941.986 3149.298 -3347.619 -0.005 0.210 -0.115 -0.13 -0.56 0.78 0.23
1 0.76 76 0.709 -9.323 3.261 -0.885 -2.228 1.556 1017.087 3149.298 -3242.688 -0.082 0.105 0.005 -0.12 -0.56 0.78 0.23
1 0.77 77 0.747 -9.424 3.357 -0.916 -1.862 1.770 1017.087 3149.298 -3242.688 -0.120 0.205 -0.091 -0.13 -0.56 0.78 0.23
1 0.78 78 0.699 -9.400 3.371 -0.763 -1.923 2.197 926.996 3164.289 -3227.697 -0.072 0.182 -0.105 -0.13 -0.56 0.78 0.23
1 0.79 79 0.761 -9.376 3.275 -0.397 -1.221 1.221 957.126 3194.269 -3302.648 -0.134 0.158 -0.009 -0.12 -0.56 0.78 0.23
1 0.80 80 0.766 -9.333 3.271 -0.458 -1.251 1.160 957.126 3194.269 -3302.648 -0.138 0.115 -0.004 -0.12 -0.56 0.78 0.23
1 0.81 81 0.713 -9.328 3.189 -0.702 -0.092 1.038 882.025 3119.318 -3302.648 -0.083 0.110 0.078 -0.12 -0.56 0.78 0.23
1 0.82 82 0.771 -9.242 3.338 -0.519 0.153 0.793 926.996 3164.289 -3407.580 -0.139 0.024 -0.071 -0.12 -0.56 0.78 0.23
1 0.83 83 0.670 -9.323 3.180 -0.305 0.610 0.366 1107.029 3194.269 -3332.629 -0.037 0.106 0.087 -0.12 -0.56 0.78 0.23
1 0.84 84 0.675 -9.223 3.371 -1.160 0.366 0.153 1107.029 3194.269 -3332.629 -0.041 0.005 -0.105 -0.12 -0.56 0.78 0.23
1 0.85 85 0.752 -9.328 3.227 -0.214 1.404 0.000 972.117 3149.298 -3467.691 -0.116 0.111 0.040 -0.12 -0.56 0.78 0.23
1 0.86 86 0.646 -9.338 3.414 -0.610 1.678 0.000 957.126 3164.289 -3407.580 -0.010 0.121 -0.146 -0.12 -0.56 0.78 0.23
1 0.87 87 0.733 -9.237 3.347 -0.763 2.197 0.275 957.126 3164.289 -3407.580 -0.095 0.020 -0.078 -0.12 -0.56 0.78 0.23
1 0.88 88 0.527 -9.237 3.496 -0.916 2.380 -0.305 1047.068 3224.250 -3317.639 0.111 0.021 -0.225 -0.13 -0.56 0.78 0.23
1 0.89 89 0.661 -9.280 3.457 -1.862 2.075 -0.732 957.126 3119.318 -3437.561 -0.023 0.064 -0.186 -0.13 -0.56 0.78 0.23
1 0.90 90 0.613 -9.285 3.386 -1.617 1.831 -0.854 1032.078 3164.289 -3302.648 0.026 0.070 -0.113 -0.13 -0.56 0.78 0.23
1 0.91 91 0.613 -9.343 3.271 -0.732 2.563 -0.336 1032.078 3164.289 -3302.648 0.026 0.127 0.002 -0.13 -0.56 0.78 0.23
1 0.92 92 0.579 -9.295 3.409 -0.702 2.411 -0.275 1032.078 3089.188 -3227.697 0.060 0.079 -0.137 -0.13 -0.56 0.78 0.23
1 0.93 93 0.685 -9.347 3.443 -0.305 1.984 -0.519 897.016 3029.227 -3497.671 -0.045 0.132 -0.169 -0.13 -0.56 0.78 0.23
1 0.94 94 0.584 -9.295 3.405 -0.549 2.106 -0.397 897.016 3029.227 -3497.671 0.056 0.080 -0.129 -0.13 -0.56 0.78 0.23
1 0.95 95 0.484 -9.285 3.381 -0.763 1.160 0.153 972.117 3074.197 -3317.639 0.157 0.071 -0.104 -0.13 -0.56 0.78 0.23
1 0.96 96 0.632 -9.237 3.295 -1.099 1.038 0.488 926.996 3089.188 -3257.678 0.008 0.024 -0.017 -0.13 -0.56 0.78 0.23
1 0.97 97 0.584 -9.405 3.333 -1.862 0.763 1.068 1047.068 3149.298 -3317.639 0.055 0.191 -0.056 -0.13 -0.56 0.78 0.23
1 0.98 98 0.623 -9.366 3.266 -2.411 0.519 0.885 1047.068 3149.298 -3317.639 0.016 0.152 0.010 -0.13 -0.56 0.78 0.23
1 0.99 99 0.608 -9.299 3.400 -2.228 0.458 0.458 882.025 3194.269 -3227.697 0.030 0.085 -0.126 -0.13 -0.56 0.78 0.23
1 1.00 100 0.512 -9.299 3.414 -2.777 -0.671 1.038 867.035 3029.227 -3167.586 0.126 0.084 -0.142 -0.13 -0.56 0.78 0.23
1 1.01 101 0.532 -9.237 3.299 -2.686 -0.885 0.580 867.035 3029.227 -3167.586 0.106 0.021 -0.029 -0.13 -0.56 0.78 0.23
1 1.02 102 0.627 -9.347 3.395 -2.350 -1.099 0.641 957.126 3164.289 -3182.577 0.010 0.130 -0.127 -0.13 -0.56 0.78 0.23
1 1.03 103 0.555 -9.343 3.271 -1.923 -1.068 0.732 957.126 3089.188 -3332.629 0.082 0.125 -0.005 -0.13 -0.56 0.78 0.23
1 1.04 104 0.560 -9.462 3.371 -1.923 -1.343 1.495 926.996 3194.269 -3377.600 0.077 0.244 -0.105 -0.13 -0.56 0.78 0.23
1 1.05 105 0.670 -9.266 3.419 -1.953 -1.556 1.099 926.996 3194.269 -3377.600 -0.034 0.048 -0.153 -0.13 -0.56 0.78 0.23
1 1.06 106 0.685 -9.362 3.419 -2.075 -1.221 1.495 852.045 3014.236 -3227.697 -0.048 0.144 -0.153 -0.13 -0.56 0.78 0.23
1 1.07 107 0.546 -9.371 3.271 -2.594 -1.770 1.221 987.107 3014.236 -3377.600 0.090 0.153 -0.006 -0.13 -0.56 0.78 0.23
1 1.08 108 0.666 -9.405 3.323 -1.831 -1.160 1.099 987.107 3014.236 -3377.600 -0.030 0.185 -0.062 -0.13 -0.56 0.78 0.23
1 1.09 109 0.704 -9.280 3.304 -2.014 -1.495 1.495 882.025 3164.289 -3257.678 -0.068 0.061 -0.044 -0.13 -0.56 0.78 0.23
1 1.10 110 0.656 -9.319 3.285 -1.709 -1.343 1.099 882.025 3164.289 -3257.678 -0.020 0.098 -0.026 -0.13 -0.56 0.78 0.23
1 1.11 111 0.690 -9.438 3.347 -1.617 -1.129 1.343 1032.078 3119.318 -3302.648 -0.053 0.218 -0.089 -0.13 -0.56 0.78 0.23
1 1.12 112 0.776 -9.333 3.266 -1.251 -0.793 1.129 1032.078 3119.318 -3302.648 -0.138 0.112 -0.008 -0.13 -0.56 0.78 0.23
1 1.13 113 0.776 -9.443 3.299 -2.197 -0.885 0.458 987.107 3089.188 -3122.616 -0.138 0.223 -0.041 -0.13 -0.56 0.78 0.23
1 1.14 114 0.670 -9.271 3.299 -1.434 -1.160 1.160 987.107 3194.269 -3152.596 -0.031 0.050 -0.042 -0.13 -0.56 0.78 0.23
1 1.15 115 0.713 -9.275 3.275 -1.373 -0.977 1.007 987.107 3194.269 -3152.596 -0.074 0.055 -0.017 -0.13 -0.56 0.78 0.23
1 1.16 116 0.637 -9.280 3.275 -1.343 -0.305 0.793 957.126 3239.240 -3302.648 0.003 0.060 -0.017 -0.13 -0.56 0.78 0.23
1 1.17 117 0.685 -9.299 3.338 -1.221 0.366 0.061 957.126 3239.240 -3302.648 -0.045 0.079 -0.079 -0.13 -0.56 0.78 0.23
1 1.18 118 0.632 -9.290 3.357 -0.336 -0.427 0.244 957.126 3284.210 -3302.648 0.009 0.070 -0.098 -0.13 -0.56 0.78 0.23
1 1.19 119 0.594 -9.405 3.433 -1.099 -0.183 0.946 957.126 3284.210 -3302.648 0.047 0.185 -0.174 -0.13 -0.56 0.78 0.23
1 1.20 120 0.651 -9.405 3.347 -0.671 -0.458 0.549 957.126 3119.318 -3182.577 -0.011 0.185 -0.088 -0.13 -0.56 0.78 0.23
1 1.21 121 0.575 -9.362 3.251 -0.183 0.366 0.671 867.035 3029.227 -3242.688 0.066 0.142 0.009 -0.13 -0.56 0.78 0.23
1 1.22 122 0.623 -9.390 3.309 -0.336 0.488 0.244 867.035 3029.227 -3242.688 0.018 0.171 -0.049 -0.13 -0.56 0.78 0.23
1 1.23 123 0.603 -9.338 3.338 -0.885 -0.092 0.732 987.107 3119.318 -3377.600 0.037 0.118 -0.077 -0.13 -0.56 0.78 0.23
1 1.24 124 0.713 -9.285 3.328 -0.854 0.092 0.946 987.107 3119.318 -3377.600 -0.072 0.066 -0.068 -0.13 -0.56 0.78 0.23
1 1.25 125 0.713 -9.343 3.256 -1.587 -0.153 0.275 941.986 2984.256 -3137.606 -0.072 0.123 0.005 -0.13 -0.56 0.78 0.23
1 1.26 126 0.613 -9.309 3.280 -0.946 -0.671 0.610 941.986 2984.256 -3137.606 0.029 0.090 -0.019 -0.13 -0.56 0.78 0.23
1 1.27 127 0.599 -9.295 3.237 -0.580 -0.427 0.641 941.986 3104.178 -3317.639 0.043 0.075 0.023 -0.13 -0.56 0.78 0.23
1 1.28 128 0.594 -9.266 3.328 -1.007 -0.977 0.885 897.016 3074.197 -3212.557 0.048 0.047 -0.067 -0.13 -0.56 0.78 0.23
1 1.29 129 0.575 -9.362 3.218 -0.214 -0.763 0.885 897.016 3074.197 -3212.557 0.067 0.142 0.043 -0.13 -0.56 0.78 0.23
1 1.30 130 0.512 -9.333 3.347 0.458 -0.824 0.824 957.126 3284.210 -3257.678 0.128 0.113 -0.087 -0.13 -0.56 0.78 0.23
1 1.31 131 0.670 -9.362 3.338 0.092 -1.160 1.099 957.126 3284.210 -3257.678 -0.030 0.142 -0.077 -0.13 -0.56 0.78 0.23
1 1.32 132 0.599 -9.357 3.357 -1.160 -1.312 1.282 882.025 3014.236 -3332.629 0.041 0.137 -0.096 -0.13 -0.56 0.78 0.23
1 1.33 133 0.594 -9.386 3.352 -0.671 -0.702 0.793 882.025 3014.236 -3332.629 0.046 0.166 -0.092 -0.13 -0.56 0.78 0.23
1 1.34 134 0.642 -9.443 3.251 -0.427 -0.885 1.160 972.117 3224.250 -3212.557 -0.003 0.224 0.009 -0.13 -0.56 0.78 0.23
1 1.35 135 0.589 -9.261 3.390 -1.190 -1.770 0.763 1032.078 3164.289 -3227.697 0.050 0.041 -0.130 -0.13 -0.56 0.78 0.23
1 1.36 136 0.407 -9.218 3.237 -0.641 -1.862 1.312 1032.078 3164.289 -3227.697 0.231 -0.002 0.024 -0.13 -0.56 0.78 0.23
1 1.37 137 0.541 -9.333 3.285 -0.732 -2.075 0.946 926.996 3194.269 -3377.600 0.096 0.113 -0.024 -0.13 -0.56 0.78 0.23
1 1.38 138 0.618 -9.343 3.285 -0.793 -2.380 1.007 926.996 3194.269 -3377.600 0.018 0.123 -0.025 -0.13 -0.56 0.78 0.23
1 1.39 139 0.541 -9.338 3.237 -0.885 -2.411 1.831 987.107 3164.289 -3227.697 0.095 0.118 0.023 -0.13 -0.56 0.78 0.23
1 1.40 140 0.555 -9.462 3.290 -0.458 -2.960 0.580 1047.068 3029.227 -3317.639 0.080 0.242 -0.030 -0.13 -0.56 0.78 0.23
1 1.41 141 0.651 -9.405 3.218 -0.977 -2.655 1.953 987.107 3239.240 -3332.629 -0.015 0.185 0.041 -0.13 -0.56 0.78 0.23
1 1.42 142 0.704 -9.448 3.251 -0.946 -2.472 1.770 1017.087 3179.279 -3272.668 -0.068 0.227 0.007 -0.13 -0.56 0.78 0.23
1 1.43 143 0.646 -9.323 3.256 -0.824 -2.594 2.350 1017.087 3179.279 -3272.668 -0.011 0.102 0.001 -0.13 -0.56 0.78 0.23
1 1.44 144 0.728 -9.309 3.266 -0.732 -2.258 1.343 957.126 3164.289 -3257.678 -0.093 0.088 -0.010 -0.13 -0.56 0.78 0.23
1 1.45 145 0.694 -9.333 3.347 -0.488 -2.625 1.862 957.126 3164.289 -3257.678 -0.059 0.112 -0.091 -0.13 -0.56 0.78 0.23
1 1.46 146 0.666 -9.352 3.299 -0.702 -2.350 1.556 1032.078 3044.217 -3227.697 -0.030 0.131 -0.043 -0.13 -0.56 0.78 0.23
1 1.47 147 0.603 -9.343 3.414 -0.641 -2.289 1.526 957.126 3194.269 -3257.678 0.034 0.122 -0.157 -0.13 -0.56 0.78 0.23
1 1.48 148 0.603 -9.237 3.275 -1.373 -2.106 1.190 941.986 3254.230 -3347.619 0.034 0.016 -0.018 -0.13 -0.56 0.78 0.23
1 1.49 149 0.747 -9.261 3.333 -1.251 -2.350 1.007 897.016 3149.298 -3242.688 -0.109 0.040 -0.076 -0.13 -0.56 0.78 0.23
1 1.50 150 0.713 -9.280 3.390 -1.587 -1.709 1.038 897.016 3149.298 -3242.688 -0.075 0.059 -0.134 -0.13 -0.56 0.78 0.23
1 1.51 151 0.723 -9.314 3.362 -1.770 -1.343 0.702 822.064 3299.201 -3272.668 -0.083 0.093 -0.105 -0.13 -0.56 0.78 0.23
1 1.52 152 0.685 -9.271 3.299 -1.434 -1.312 0.916 822.064 3299.201 -3272.668 -0.044 0.050 -0.043 -0.13 -0.56 0.78 0.23
1 1.53 153 0.651 -9.343 3.318 -1.373 -1.495 0.488 867.035 3149.298 -3317.639 -0.010 0.122 -0.062 -0.13 -0.56 0.78 0.23
1 1.54 154 0.632 -9.338 3.433 -1.312 -1.312 0.702 882.025 3119.318 -3332.629 0.009 0.117 -0.177 -0.13 -0.56 0.78 0.23
1 1.55 155 0.651 -9.328 3.251 -0.641 -1.099 0.793 882.025 3284.210 -3437.561 -0.010 0.107 0.005 -0.13 -0.56 0.78 0.23
1 1.56 156 0.670 -9.299 3.299 -0.336 -1.190 1.434 972.117 3074.197 -3272.668 -0.029 0.079 -0.043 -0.13 -0.56 0.78 0.23
1 1.57 157 0.685 -9.319 3.122 -1.160 -1.587 1.862 972.117 3074.197 -3272.668 -0.043 0.098 0.135 -0.13 -0.56 0.78 0.23
1 1.58 158 0.661 -9.314 3.405 -0.580 -2.289 0.916 1092.039 3029.227 -3272.668 -0.018 0.093 -0.149 -0.13 -0.56 0.78 0.23
1 1.59 159 0.618 -9.347 3.323 0.916 -0.366 1.526 1092.039 3029.227 -3272.668 0.025 0.127 -0.067 -0.13 -0.56 0.78 0.23
1 1.60 160 0.632 -9.362 3.242 0.793 -0.244 0.916 777.094 3089.188 -3257.678 0.011 0.142 0.016 -0.13 -0.56 0.78 0.23
1 1.61 161 0.646 -9.438 3.366 0.488 0.000 0.702 941.986 3149.298 -3272.668 -0.003 0.218 -0.107 -0.13 -0.56 0.78 0.23
1 1.62 162 0.828 -9.390 3.271 0.214 0.580 0.458 882.025 3044.217 -3227.697 -0.186 0.172 -0.009 -0.13 -0.56 0.78 0.23
1 1.63 163 0.599 -9.247 3.247 -0.214 0.275 0.793 941.986 3074.197 -3242.688 0.045 0.028 0.016 -0.13 -0.56 0.78 0.23
1 1.64 164 0.771 -9.319 3.275 0.153 0.610 1.373 941.986 3074.197 -3242.688 -0.128 0.100 -0.012 -0.13 -0.56 0.78 0.23
1 1.65 165 0.742 -9.357 3.376 0.580 0.397 1.007 1017.087 3149.298 -3212.557 -0.100 0.139 -0.111 -0.13 -0.56 0.78 0.23
1 1.66 166 0.666 -9.376 3.318 0.946 1.373 0.854 1017.087 3149.298 -3212.557 -0.023 0.159 -0.051 -0.13 -0.56 0.78 0.23
1 1.67 167 0.718 -9.189 3.285 0.671 1.526 0.336 897.016 3179.279 -3347.619 -0.076 -0.027 -0.015 -0.13 -0.56 0.78 0.23
1 1.68 168 0.819 -9.228 3.256 0.732 1.770 1.099 882.025 3194.269 -3302.648 -0.176 0.013 0.016 -0.13 -0.56 0.78 0.23
1 1.69 169 0.809 -9.319 3.309 1.068 1.343 0.763 987.107 3164.289 -3227.697 -0.166 0.105 -0.031 -0.13 -0.56 0.78 0.23
1 1.70 170 0.781 -9.261 3.208 1.404 1.953 1.282 987.107 3119.318 -3377.600 -0.137 0.049 0.073 -0.13 -0.56 0.78 0.23
1 1.71 171 0.776 -9.261 3.395 1.007 2.594 0.519 987.107 3119.318 -3377.600 -0.133 0.050 -0.111 -0.13 -0.56 0.78 0.23
1 1.72 172 0.728 -9.319 3.376 0.610 2.502 0.610 957.126 3164.289 -3302.648 -0.086 0.109 -0.089 -0.13 -0.56 0.78 0.23
1 1.73 173 0.685 -9.252 3.390 0.275 2.686 1.251 957.126 3164.289 -3302.648 -0.043 0.043 -0.101 -0.13 -0.56 0.78 0.23
1 1.74 174 0.723 -9.175 3.386 -0.061 3.143 0.092 897.016 3179.279 -3272.668 -0.082 -0.033 -0.094 -0.13 -0.56 0.78 0.23
1 1.75 175 0.862 -9.199 3.376 -0.031 3.815 0.122 882.025 3119.318 -3332.629 -0.222 -0.009 -0.082 -0.13 -0.56 0.78 0.23
1 1.76 176 0.690 -9.285 3.304 -0.183 3.662 0.549 987.107 3119.318 -3407.580 -0.049 0.078 -0.008 -0.13 -0.56 0.78 0.24
1 1.77 177 0.656 -9.323 3.381 -0.488 4.181 0.153 1047.068 3254.230 -3272.668 -0.017 0.117 -0.083 -0.13 -0.56 0.78 0.24
1 1.78 178 0.785 -9.223 3.438 -1.007 4.334 0.458 1047.068 3254.230 -3272.668 -0.146 0.017 -0.139 -0.13 -0.56 0.78 0.24
1 1.79 179 0.723 -9.204 3.438 -1.007 4.852 0.336 897.016 3179.279 -3242.688 -0.085 -0.002 -0.138 -0.13 -0.56 0.78 0.24
1 1.80 180 0.814 -9.376 3.347 -0.610 5.737 -0.153 897.016 3179.279 -3242.688 -0.177 0.171 -0.046 -0.13 -0.56 0.78 0.24
1 1.81 181 0.828 -9.228 3.323 -0.977 5.859 -0.153 1017.087 3149.298 -3467.691 -0.192 0.022 -0.022 -0.13 -0.56 0.78 0.24
1 1.82 182 0.814 -9.362 3.309 -1.160 5.951 0.214 957.126 3239.240 -3257.678 -0.177 0.156 -0.008 -0.13 -0.56 0.78 0.24
1 1.83 183 0.953 -9.261 3.261 -1.434 6.317 -0.336 957.126 3239.240 -3257.678 -0.317 0.056 0.040 -0.13 -0.56 0.78 0.24
1 1.84 184 0.790 -9.252 3.429 -1.740 6.500 -0.763 926.996 3044.217 -3152.596 -0.154 0.046 -0.128 -0.13 -0.56 0.78 0.24
1 1.85 185 0.814 -9.333 3.376 -1.892 6.836 -0.793 926.996 3044.217 -3152.596 -0.178 0.127 -0.076 -0.13 -0.56 0.78 0.24
1 1.86 186 0.737 -9.242 3.443 -1.801 6.470 -1.129 972.117 3074.197 -3167.586 -0.101 0.036 -0.143 -0.13 -0.56 0.78 0.24
1 1.87 187 0.833 -9.290 3.280 -1.587 6.775 -0.458 972.117 3074.197 -3167.586 -0.197 0.084 0.020 -0.13 -0.56 0.78 0.24
1 1.88 188 0.704 -9.275 3.338 -1.007 7.416 -0.580 987.107 3164.289 -3152.596 -0.068 0.070 -0.038 -0.13 -0.56 0.78 0.24
1 1.89 189 0.670 -9.290 3.366 -1.495 7.019 -0.580 1017.087 3074.197 -3347.619 -0.036 0.084 -0.066 -0.13 -0.56 0.78 0.24
1 1.90 190 0.752 -9.433 3.333 -2.167 7.233 -0.244 1017.087 3074.197 -3347.619 -0.119 0.228 -0.032 -0.13 -0.56 0.78 0.24
1 1.91 191 0.742 -9.381 3.314 -1.801 6.805 -0.244 987.107 3089.188 -3332.629 -0.113 0.174 -0.015 -0.13 -0.56 0.78 0.24
1 1.92 192 0.728 -9.362 3.371 -1.740 6.531 -0.549 987.107 3089.188 -3332.629 -0.100 0.154 -0.074 -0.13 -0.56 0.78 0.24
1 1.93 193 0.555 -9.314 3.309 -2.380 6.866 0.000 987.107 3089.188 -3182.577 0.071 0.106 -0.012 -0.13 -0.56 0.78 0.24
1 1.94 194 0.685 -9.362 3.357 -2.014 6.897 -0.122 987.107 3089.188 -3182.577 -0.061 0.153 -0.062 -0.13 -0.56 0.78 0.24
1 1.95 195 0.670 -9.491 3.414 -1.801 6.989 -0.214 1107.029 3119.318 -3407.580 -0.048 0.282 -0.120 -0.13 -0.56 0.78 0.24
1 1.96 196 0.737 -9.256 3.318 -2.411 6.866 -0.427 972.117 3104.178 -3167.586 -0.117 0.047 -0.026 -0.13 -0.56 0.78 0.24
1 1.97 197 0.555 -9.381 3.347 -2.045 5.981 0.183 972.117 3104.178 -3167.586 0.064 0.171 -0.056 -0.14 -0.56 0.78 0.24
1 1.98 198 0.690 -9.218 3.381 -2.563 5.798 0.031 941.986 3254.230 -3272.668 -0.071 0.008 -0.090 -0.14 -0.56 0.78 0.24
1 1.99 199 0.623 -9.223 3.295 -2.441 5.310 -0.549 1047.068 2954.275 -3137.606 -0.007 0.011 -0.007 -0.14 -0.56 0.78 0.25
1 2.00 200 0.757 -9.213 3.338 -2.319 5.737 0.122 1047.068 3149.298 -3272.668 -0.142 0.001 -0.051 -0.14 -0.56 0.78 0.25
1 2.01 201 0.709 -9.328 3.314 -2.502 5.798 -0.031 1047.068 3149.298 -3272.668 -0.096 0.115 -0.029 -0.14 -0.56 0.78 0.25
1 2.02 202 0.776 -9.410 3.357 -2.380 5.737 0.153 1062.058 3194.269 -3302.648 -0.165 0.196 -0.074 -0.14 -0.56 0.78 0.25
1 2.03 203 0.761 -9.275 3.314 -2.838 5.463 -0.488 1062.058 3164.289 -3152.596 -0.152 0.061 -0.032 -0.14 -0.56 0.78 0.25
1 2.04 204 0.742 -9.290 3.280 -3.021 5.463 0.092 1062.058 3164.289 -3152.596 -0.134 0.075 -0.000 -0.14 -0.56 0.78 0.25
1 2.05 205 0.723 -9.208 3.247 -2.625 5.066 0.275 1032.078 3194.269 -3227.697 -0.115 -0.007 0.032 -0.14 -0.56 0.78 0.25
1 2.06 206 0.709 -9.275 3.328 -2.655 4.700 0.275 1137.009 3119.318 -3302.648 -0.103 0.058 -0.055 -0.14 -0.56 0.78 0.25
1 2.07 207 0.666 -9.338 3.309 -2.563 4.578 0.244 1122.019 3029.227 -3167.586 -0.060 0.120 -0.037 -0.14 -0.56 0.78 0.25
1 2.08 208 0.704 -9.247 3.275 -2.686 4.791 0.275 1122.019 3029.227 -3167.586 -0.100 0.028 -0.006 -0.14 -0.56 0.78 0.25
1 2.09 209 0.776 -9.304 3.304 -2.777 5.188 0.244 1062.058 3119.318 -3182.577 -0.173 0.085 -0.037 -0.14 -0.56 0.78 0.25
1 2.10 210 0.646 -9.189 3.414 -2.991 4.334 0.366 1212.110 3164.289 -3182.577 -0.044 -0.031 -0.149 -0.14 -0.56 0.78 0.25
1 2.11 211 0.584 -9.371 3.299 -3.052 3.815 0.977 1212.110 3164.289 -3182.577 0.017 0.150 -0.036 -0.14 -0.56 0.78 0.25
1 2.12 212 0.637 -9.199 3.328 -2.411 3.906 0.977 1062.058 3194.269 -3302.648 -0.037 -0.023 -0.067 -0.14 -0.56 0.78 0.25
1 2.13 213 0.685 -9.218 3.409 -2.930 3.815 0.458 1017.087 3149.298 -3242.688 -0.088 -0.006 -0.153 -0.14 -0.56 0.78 0.25
1 2.14 214 0.819 -9.362 3.314 -3.204 3.845 0.824 1107.029 3119.318 -3332.629 -0.223 0.137 -0.060 -0.14 -0.56 0.78 0.25
1 2.15 215 0.713 -9.252 3.290 -3.357 3.723 0.763 1107.029 3119.318 -3332.629 -0.119 0.026 -0.039 -0.14 -0.56 0.78 0.25
1 2.16 216 0.766 -9.429 3.271 -3.357 3.693 0.793 987.107 3044.217 -3077.645 -0.172 0.202 -0.022 -0.14 -0.56 0.78 0.25
1 2.17 217 0.852 -9.242 3.271 -3.357 3.540 0.610 1032.078 3089.188 -3227.697 -0.259 0.014 -0.026 -0.14 -0.56 0.78 0.25
1 2.18 218 0.637 -9.333 3.275 -3.571 3.784 0.763 1032.078 3089.188 -3227.697 -0.044 0.104 -0.033 -0.14 -0.56 0.78 0.25
1 2.19 219 0.699 -9.323 3.290 -3.784 3.235 0.977 1062.058 3239.240 -3152.596 -0.107 0.093 -0.051 -0.14 -0.56 0.78 0.25
1 2.20 220 0.891 -9.228 3.266 -3.754 2.838 0.580 1032.078 3194.269 -3302.648 -0.300 -0.006 -0.035 -0.14 -0.56 0.78 0.25
1 2.21 221 0.804 -9.280 3.184 -3.448 2.777 -0.092 1122.019 3179.279 -3137.606 -0.213 0.046 0.043 -0.14 -0.56 0.78 0.25
1 2.22 222 0.713 -9.204 3.357 -2.930 3.174 0.366 1122.019 3179.279 -3137.606 -0.122 -0.032 -0.133 -0.14 -0.56 0.77 0.25
1 2.23 223 0.733 -9.405 3.160 -3.662 3.052 0.244 1092.039 3104.178 -3272.668 -0.142 0.168 0.060 -0.14 -0.56 0.77 0.25
1 2.24 224 0.776 -9.204 3.309 -3.265 2.991 0.885 941.986 3104.178 -3212.557 -0.185 -0.034 -0.092 -0.14 -0.56 0.77 0.25
1 2.25 225 0.589 -9.285 3.314 -3.387 3.296 0.793 941.986 3104.178 -3212.557 0.002 0.046 -0.099 -0.14 -0.56 0.77 0.25
1 2.26 226 0.651 -9.357 3.170 -2.930 3.265 0.977 1047.068 3149.298 -3242.688 -0.061 0.117 0.042 -0.14 -0.56 0.77 0.25
1 2.27 227 0.666 -9.333 3.261 -2.716 3.052 0.000 1257.081 3044.217 -3332.629 -0.077 0.092 -0.051 -0.14 -0.56 0.77 0.25
1 2.28 228 0.728 -9.410 3.271 -3.418 2.991 0.397 957.126 3119.318 -3332.629 -0.139 0.167 -0.067 -0.15 -0.56 0.77 0.25
1 2.29 229 0.646 -9.338 3.347 -3.845 2.899 0.916 957.126 3119.318 -3332.629 -0.059 0.094 -0.146 -0.15 -0.56 0.77 0.25
1 2.30 230 0.560 -9.429 3.285 -4.364 2.716 0.854 1137.009 3089.188 -3122.616 0.027 0.183 -0.088 -0.15 -0.56 0.77 0.25
1 2.31 231 0.627 -9.366 3.232 -5.035 2.411 0.702 1017.087 3029.227 -3167.586 -0.041 0.119 -0.040 -0.15 -0.56 0.77 0.25
1 2.32 232 0.646 -9.414 3.132 -5.249 1.678 1.068 1017.087 3029.227 -3167.586 -0.061 0.165 0.054 -0.15 -0.56 0.77 0.25
1 2.33 233 0.565 -9.424 3.285 -4.150 2.167 1.312 1152.000 3224.250 -3242.688 0.019 0.173 -0.104 -0.15 -0.56 0.77 0.25
1 2.34 234 0.532 -9.256 3.223 -3.723 1.801 1.801 1137.009 3119.318 -3152.596 0.051 0.003 -0.047 -0.15 -0.56 0.77 0.25
1 2.35 235 0.599 -9.319 3.199 -3.021 1.221 2.014 1107.029 3164.289 -3257.678 -0.020 0.063 -0.030 -0.15 -0.56 0.77 0.25
1 2.36 236 0.517 -9.184 3.223 -3.265 1.495 2.045 1107.029 3164.289 -3257.678 0.058 -0.072 -0.057 -0.15 -0.56 0.77 0.25
1 2.37 237 0.570 -9.405 3.156 -2.991 1.953 1.801 1092.039 3149.298 -3272.668 0.003 0.147 0.007 -0.15 -0.56 0.77 0.25
1 2.38 238 0.661 -9.371 3.227 -3.235 1.617 2.319 1047.068 3224.250 -3167.586 -0.091 0.112 -0.067 -0.15 -0.56 0.77 0.25
1 2.39 239 0.426 -9.481 3.184 -2.838 0.824 2.930 1047.068 3224.250 -3167.586 0.141 0.221 -0.027 -0.15 -0.56 0.77 0.25
1 2.40 240 0.464 -9.381 3.160 -1.862 0.153 2.655 1137.009 3194.269 -3152.596 0.099 0.119 -0.006 -0.15 -0.56 0.77 0.25
1 2.41 241 0.350 -9.429 3.213 -1.953 -0.366 2.502 972.117 3374.302 -3242.688 0.209 0.167 -0.060 -0.15 -0.56 0.77 0.25
1 2.42 242 0.388 -9.414 3.213 -0.977 -0.671 2.625 972.866 3374.751 -3243.587 0.168 0.152 -0.062 -0.15 -0.56 0.77 0.25
1 2.43 243 0.488 -9.390 3.237 -1.587 -1.678 2.686 1152.899 3299.800 -3138.655 0.061 0.127 -0.086 -0.15 -0.56 0.77 0.25
1 2.44 244 0.388 -9.323 3.318 -2.136 -1.099 2.319 1182.879 3194.719 -3333.678 0.158 0.059 -0.169 -0.15 -0.56 0.77 0.25
1 2.45 245 0.570 -9.352 3.242 -0.916 -1.160 2.411 1137.909 3239.689 -3258.727 -0.025 0.088 -0.093 -0.15 -0.56 0.77 0.25
1 2.46 246 0.589 -9.175 3.232 -1.617 -0.671 2.411 1137.909 3239.689 -3258.727 -0.046 -0.089 -0.083 -0.15 -0.56 0.77 0.25
1 2.47 247 0.627 -9.280 3.247 -1.678 0.153 2.258 1197.870 3149.748 -3168.636 -0.087 0.016 -0.098 -0.15 -0.56 0.77 0.25
1 2.48 248 0.589 -9.232 3.318 -2.136 0.366 2.441 1107.928 3194.719 -3258.727 -0.050 -0.032 -0.169 -0.15 -0.56 0.77 0.25
1 2.49 249 0.757 -9.328 3.213 -1.923 1.282 2.960 1107.928 3194.719 -3258.727 -0.220 0.063 -0.065 -0.15 -0.56 0.77 0.25
1 2.50 250 0.618 -9.156 3.338 -1.495 2.472 2.747 1137.909 3239.689 -3258.727 -0.086 -0.110 -0.190 -0.15 -0.56 0.77 0.25
1 2.51 251 0.704 -9.314 3.208 -1.434 2.533 1.862 1197.870 3149.748 -3318.688 -0.176 0.048 -0.061 -0.15 -0.56 0.77 0.25
1 2.52 252 0.599 -9.376 3.256 -1.648 2.930 1.648 1107.928 3164.738 -3153.646 -0.072 0.110 -0.109 -0.15 -0.56 0.77 0.25
1 2.53 253 0.685 -9.433 3.251 -1.892 3.265 1.678 1107.928 3164.738 -3153.646 -0.160 0.167 -0.105 -0.15 -0.56 0.77 0.25
1 2.54 254 0.613 -9.347 3.213 -1.465 3.784 1.495 1152.899 3254.680 -3243.587 -0.090 0.081 -0.067 -0.15 -0.56 0.77 0.25
1 2.55 255 0.584 -9.352 3.338 -1.556 4.852 0.427 1137.909 3164.738 -3258.727 -0.064 0.085 -0.192 -0.15 -0.56 0.77 0.25
1 2.56 256 0.555 -9.338 3.199 -1.434 5.096 -0.824 1137.909 3164.738 -3258.727 -0.037 0.071 -0.053 -0.15 -0.56 0.77 0.25
1 2.57 257 0.469 -9.252 3.242 -1.007 5.310 0.000 1032.827 3194.719 -3123.665 0.047 -0.015 -0.095 -0.15 -0.56 0.77 0.25
1 2.58 258 0.479 -9.366 3.261 -0.427 5.798 0.519 1227.850 3254.680 -3243.587 0.036 0.100 -0.113 -0.15 -0.56 0.77 0.25
1 2.59 259 0.460 -9.453 3.175 0.885 6.592 0.793 1062.958 3044.667 -3123.665 0.052 0.187 -0.025 -0.15 -0.56 0.77 0.26
1 2.60 260 0.393 -9.491 3.189 0.061 6.073 0.183 1062.958 3044.667 -3123.665 0.115 0.226 -0.036 -0.15 -0.56 0.77 0.26
1 2.61 261 0.532 -9.419 3.156 -0.427 6.805 0.061 1047.817 3179.729 -3273.717 -0.027 0.155 -0.001 -0.15 -0.56 0.77 0.26
1 2.62 262 0.235 -9.333 3.280 -1.404 7.355 -0.336 1182.879 3194.719 -3183.626 0.267 0.069 -0.124 -0.15 -0.56 0.77 0.26
1 2.63 263 0.364 -9.438 3.184 -1.312 7.782 0.397 1182.879 3194.719 -3183.626 0.135 0.174 -0.028 -0.15 -0.56 0.77 0.26
1 2.64 264 0.263 -9.395 3.165 -1.221 8.148 0.824 1122.918 3149.748 -3213.606 0.226 0.130 -0.010 -0.15 -0.56 0.77 0.26
1 2.65 265 0.431 -9.343 3.146 -0.916 8.850 1.099 1182.879 3119.768 -3153.646 0.053 0.077 0.009 -0.16 -0.56 0.77 0.26
1 2.66 266 0.479 -9.438 3.127 1.038 9.003 1.068 1227.850 3254.680 -3213.606 -0.001 0.173 0.030 -0.16 -0.56 0.77 0.26
1 2.67 267 0.369 -9.462 3.160 2.899 10.651 1.648 1227.850 3254.680 -3213.606 0.103 0.198 -0.001 -0.16 -0.56 0.77 0.26
1 2.68 268 0.503 -9.625 3.113 4.028 11.810 2.411 1197.870 3104.777 -3348.668 -0.038 0.362 0.053 -0.16 -0.56 0.77 0.26
1 2.69 269 0.436 -9.836 3.022 1.190 12.482 3.204 1212.860 3314.791 -3183.626 0.021 0.575 0.152 -0.16 -0.56 0.77 0.26
1 2.70 270 0.503 -9.692 3.318 -0.214 12.024 4.059 1212.860 3314.791 -3183.626 -0.055 0.433 -0.139 -0.16 -0.56 0.77 0.26
1 2.71 271 0.685 -9.850 3.357 7.172 16.419 1.831 1107.928 3119.768 -3333.678 -0.247 0.590 -0.179 -0.16 -0.56 0.77 0.26
1 2.72 272 0.565 -9.673 3.261 4.791 16.693 3.693 1257.831 3164.738 -3303.698 -0.147 0.420 -0.061 -0.16 -0.56 0.77 0.26
1 2.73 273 0.340 -9.395 3.199 1.160 15.015 4.059 1377.902 3194.719 -3333.678 0.067 0.144 0.009 -0.16 -0.56 0.77 0.26
1 2.74 274 0.091 -9.362 3.146 0.519 14.679 4.791 1378.802 3194.869 -3334.428 0.303 0.111 0.064 -0.16 -0.56 0.77 0.26
1 2.75 275 -0.019 -9.218 2.983 -0.183 14.404 3.448 1198.769 3074.797 -3244.336 0.399 -0.033 0.228 -0.16 -0.56 0.77 0.26
1 2.76 276 -0.110 -9.271 3.050 -0.916 13.123 2.991 1228.750 3254.830 -3244.336 0.476 0.019 0.161 -0.16 -0.56 0.77 0.26
1 2.77 277 -0.302 -9.333 2.945 -0.946 11.993 3.479 1228.750 3254.830 -3244.336 0.654 0.081 0.267 -0.17 -0.56 0.77 0.26
1 2.78 278 -0.268 -9.266 2.926 -1.404 10.407 3.204 1333.831 3074.797 -3274.317 0.607 0.013 0.285 -0.17 -0.56 0.77 0.26
1 2.79 279 -0.225 -9.352 2.773 1.343 8.728 4.089 1333.831 3224.849 -3169.385 0.538 0.098 0.436 -0.17 -0.55 0.77 0.26
1 2.80 280 -0.067 -9.338 2.763 0.488 7.782 3.326 1348.821 3164.888 -3154.395 0.368 0.083 0.446 -0.17 -0.55 0.77 0.26
1 2.81 281 -0.125 -9.563 2.739 1.038 8.118 4.303 1348.821 3164.888 -3154.395 0.415 0.307 0.469 -0.17 -0.55 0.77 0.26
1 2.82 282 -0.101 -9.448 2.591 3.723 6.592 4.761 1423.772 3239.839 -3229.346 0.378 0.192 0.618 -0.17 -0.55 0.77 0.26
1 2.83 283 0.029 -9.721 2.557 2.045 5.463 2.655 1288.860 3119.768 -3229.346 0.238 0.465 0.652 -0.17 -0.55 0.77 0.26
1 2.84 284 0.029 -9.855 2.533 2.808 3.113 4.242 1288.860 3119.768 -3229.346 0.230 0.599 0.675 -0.17 -0.55 0.77 0.26
1 2.85 285 0.038 -10.008 2.461 4.944 1.892 5.554 1318.841 3119.768 -3229.346 0.212 0.751 0.746 -0.17 -0.55 0.77 0.26
1 2.86 286 -0.067 -10.022 2.548 5.554 0.458 6.775 1318.841 3119.768 -3229.346 0.309 0.766 0.661 -0.17 -0.55 0.77 0.26
1 2.87 287 0.086 -9.960 2.538 7.233 -0.275 7.660 1318.841 3239.839 -3124.415 0.133 0.705 0.677 -0.17 -0.55 0.77 0.26
1 2.88 288 0.192 -9.951 2.792 8.331 -0.824 7.446 1318.841 3239.839 -3124.415 0.017 0.698 0.430 -0.17 -0.55 0.77 0.26
1 2.89 289 0.287 -9.903 2.787 9.735 -1.465 8.850 1273.870 3179.878 -3244.336 -0.089 0.652 0.442 -0.17 -0.55 0.77 0.26
1 2.90 290 0.326 -9.941 2.758 10.071 -1.251 9.735 1408.782 3149.898 -3244.336 -0.138 0.694 0.482 -0.17 -0.55 0.77 0.26
1 2.91 291 0.374 -9.817 2.921 8.911 -2.228 10.132 1408.782 3149.898 -3244.336 -0.197 0.573 0.329 -0.17 -0.55 0.77 0.26
1 2.92 292 0.374 -9.587 2.911 8.179 -1.068 9.796 1318.841 3119.768 -3334.428 -0.208 0.347 0.349 -0.17 -0.55 0.77 0.26
1 2.93 293 0.086 -9.510 2.940 7.629 -0.946 9.155 1318.841 3119.768 -3334.428 0.069 0.273 0.330 -0.17 -0.55 0.77 0.26
1 2.94 294 0.019 -9.338 3.031 7.233 -0.214 7.935 1333.831 3074.797 -3244.336 0.114 0.107 0.256 -0.17 -0.55 0.78 0.26
1 2.95 295 -0.038 -9.280 2.959 7.172 -0.488 7.629 1333.831 3074.797 -3244.336 0.160 0.052 0.337 -0.17 -0.55 0.78 0.26
1 2.96 296 -0.062 -9.046 2.878 7.202 -0.031 5.585 1408.782 3029.826 -3274.317 0.175 -0.180 0.427 -0.18 -0.55 0.78 0.26
1 2.97 297 -0.081 -9.065 3.031 7.629 -0.702 5.524 1408.782 3149.898 -3244.336 0.186 -0.157 0.283 -0.18 -0.55 0.78 0.26
1 2.98 298 -0.192 -8.964 3.046 7.721 -0.977 4.181 1408.782 3149.898 -3244.336 0.289 -0.254 0.279 -0.18 -0.55 0.78 0.26
1 2.99 299 -0.196 -9.041 3.093 6.195 -1.709 2.747 1318.841 3044.816 -3229.346 0.287 -0.174 0.241 -0.18 -0.55 0.78 0.26
1 3.00 300 -0.182 -8.940 3.156 6.775 -1.190 1.984 1318.841 3044.816 -3229.346 0.268 -0.271 0.187 -0.18 -0.55 0.78 0.26
1 3.01 301 -0.148 -8.988 3.113 5.768 -1.404 1.251 1303.851 3074.797 -3274.317 0.229 -0.217 0.249 -0.17 -0.55 0.78 0.26
1 3.02 302 -0.062 -9.055 3.012 4.547 -1.007 0.366 1303.851 3074.797 -3274.317 0.140 -0.147 0.357 -0.17 -0.55 0.78 0.26
1 3.03 303 -0.077 -9.098 3.089 4.395 -1.617 -0.336 1273.870 3224.849 -3394.389 0.154 -0.102 0.286 -0.17 -0.55 0.78 0.26
1 3.04 304 -0.115 -9.180 2.969 4.669 -0.946 -0.824 1483.883 3029.826 -3274.317 0.194 -0.019 0.411 -0.17 -0.55 0.78 0.26
1 3.05 305 -0.125 -9.146 2.950 3.326 -1.953 -2.167 1483.883 3029.826 -3274.317 0.205 -0.050 0.435 -0.17 -0.54 0.78 0.26
1 3.06 306 0.034 -9.290 2.806 2.869 -2.930 -3.632 1303.851 2954.875 -3244.336 0.051 0.094 0.581 -0.17 -0.54 0.78 0.26
1 3.07 307 -0.067 -9.170 2.595 2.533 -3.387 -5.219 1303.851 2954.875 -3244.336 0.159 -0.024 0.795 -0.17 -0.54 0.78 0.26
1 3.08 308 -0.220 -9.414 2.715 3.113 -5.005 -5.432 1408.782 2954.875 -3214.356 0.330 0.220 0.676 -0.17 -0.55 0.78 0.26
1 3.09 309 -0.249 -9.472 2.854 4.700 -4.822 -5.615 1408.782 2954.875 -3214.356 0.368 0.279 0.539 -0.17 -0.55 0.78 0.26
1 3.10 310 -0.053 -9.630 2.725 5.798 -4.150 -6.104 1438.763 3149.898 -3139.405 0.180 0.438 0.672 -0.17 -0.55 0.78 0.26
1 3.11 311 -0.215 -9.635 2.792 6.165 -4.211 -5.890 1423.772 3119.768 -3334.428 0.352 0.445 0.609 -0.17 -0.55 0.78 0.26
1 3.12 312 -0.120 -9.635 2.768 5.493 -3.723 -5.157 1423.772 3119.768 -3334.428 0.265 0.446 0.637 -0.17 -0.55 0.78 0.26
1 3.13 313 0.038 -9.682 2.864 4.578 -4.761 -4.211 1423.772 3014.836 -3304.447 0.116 0.495 0.544 -0.17 -0.55 0.78 0.26
1 3.14 314 0.010 -9.611 2.816 2.777 -5.280 -4.334 1423.772 3014.836 -3304.447 0.154 0.424 0.594 -0.17 -0.55 0.78 0.26
1 3.15 315 -0.067 -9.544 2.605 1.740 -5.280 -4.608 1303.851 2984.855 -3169.385 0.240 0.358 0.805 -0.17 -0.55 0.78 0.26
1 3.16 316 -0.172 -9.429 2.576 -0.397 -7.843 -4.334 1438.763 2984.855 -3319.438 0.363 0.241 0.828 -0.17 -0.55 0.78 0.26
1 3.17 317 -0.172 -9.539 2.524 -0.549 -9.674 -3.510 1228.750 3149.898 -3214.356 0.371 0.349 0.875 -0.17 -0.55 0.78 0.26
1 3.18 318 -0.225 -9.376 2.366 -2.319 -11.566 -2.625 1303.851 3074.797 -3274.317 0.432 0.184 1.026 -0.17 -0.55 0.78 0.26
1 3.19 319 -0.215 -9.544 2.303 -3.510 -13.641 -2.655 1303.851 3074.797 -3274.317 0.430 0.348 1.078 -0.17 -0.55 0.78 0.26
1 3.20 320 -0.072 -9.390 2.279 -4.608 -15.961 -2.258 1318.841 3044.816 -3334.428 0.295 0.190 1.090 -0.17 -0.55 0.78 0.26
1 3.21 321 -0.144 -9.323 2.246 -4.822 -17.273 -1.678 1318.841 3044.816 -3334.428 0.376 0.119 1.110 -0.17 -0.55 0.78 0.26
1 3.22 322 -0.259 -9.400 2.112 -4.761 -19.104 -1.343 1318.841 2939.885 -3304.447 0.500 0.191 1.231 -0.16 -0.55 0.78 0.26
1 3.23 323 -0.239 -9.486 2.059 -4.059 -22.644 -0.092 1273.870 3074.797 -3319.438 0.499 0.268 1.256 -0.16 -0.55 0.78 0.25
1 3.24 324 -0.139 -9.481 1.963 -3.876 -24.078 0.763 1348.821 3089.787 -3304.447 0.407 0.258 1.338 -0.16 -0.55 0.78 0.25
1 3.25 325 -0.053 -9.596 1.882 -3.174 -26.795 0.732 1138.808 3014.836 -3259.327 0.330 0.368 1.404 -0.16 -0.55 0.78 0.25
1 3.26 326 -0.091 -9.534 1.820 -3.967 -28.595 1.160 1138.808 3014.836 -3259.327 0.380 0.301 1.452 -0.16 -0.55 0.78 0.25
1 3.27 327 -0.187 -9.491 1.858 -4.028 -30.457 1.617 1348.821 3044.816 -3334.428 0.487 0.252 1.397 -0.16 -0.56 0.78 0.25
1 3.28 328 -0.239 -9.769 1.887 -2.563 -32.990 3.296 1348.821 3044.816 -3334.428 0.550 0.525 1.353 -0.16 -0.56 0.78 0.25
1 3.29 329 -0.091 -9.773 1.877 -2.258 -33.661 3.113 1198.769 3149.898 -3319.438 0.411 0.525 1.347 -0.15 -0.56 0.78 0.24
1 3.30 330 -0.096 -9.639 1.863 -2.136 -34.485 3.876 1273.870 3029.826 -3394.389 0.425 0.386 1.348 -0.15 -0.56 0.78 0.24
1 3.31 331 -0.053 -9.472 1.772 -4.517 -35.339 3.662 1348.821 3089.787 -3259.327 0.401 0.209 1.410 -0.15 -0.56 0.78 0.24
1 3.32 332 0.019 -9.386 1.877 -6.683 -35.767 3.815 1018.886 2984.855 -3244.336 0.339 0.117 1.286 -0.15 -0.56 0.78 0.24
1 3.33 333 -0.048 -9.625 2.117 -5.859 -34.760 4.395 1018.886 2984.855 -3244.336 0.416 0.350 1.027 -0.15 -0.56 0.78 0.24
1 3.34 334 0.259 -10.094 3.060 -1.678 -31.189 6.531 1123.818 2909.904 -3274.317 0.117 0.814 0.068 -0.15 -0.57 0.78 0.23
1 3.35 335 1.748 -11.526 4.568 12.878 -3.693 16.296 1123.818 2909.904 -3274.317 -1.371 2.244 -1.446 -0.14 -0.57 0.78 0.23
1 3.36 336 2.672 -11.512 2.830 29.266 20.172 20.905 1108.828 3014.836 -3304.447 -2.310 2.234 0.306 -0.14 -0.57 0.78 0.23
1 3.37 337 3.438 -11.363 3.204 25.024 9.735 26.733 1153.798 3074.797 -3319.438 -3.111 2.097 -0.030 -0.14 -0.56 0.78 0.23
1 3.38 338 3.218 -10.707 3.711 -10.834 7.813 47.669 1108.828 2969.865 -3229.346 -2.986 1.455 -0.489 -0.15 -0.56 0.78 0.23
1 3.39 339 1.484 -9.443 2.883 1.526 12.573 32.257 1213.759 2894.764 -3439.359 -1.322 0.185 0.327 -0.15 -0.56 0.78 0.23
1 3.40 340 -0.239 -9.022 2.969 11.322 5.524 21.729 1213.759 2894.764 -3439.359 0.371 -0.234 0.248 -0.15 -0.56 0.78 0.22
1 3.41 341 -0.685 -8.610 3.347 -0.275 -5.127 22.461 1183.779 3089.787 -3259.327 0.786 -0.642 -0.116 -0.15 -0.56 0.78 0.22
1 3.42 342 -0.867 -8.969 3.654 -16.113 -5.096 25.787 1183.779 3089.787 -3259.327 0.933 -0.285 -0.428 -0.15 -0.56 0.78 0.22
1 3.43 343 -1.355 -8.969 3.429 -6.409 -1.617 22.980 1108.828 2969.865 -3259.327 1.381 -0.291 -0.220 -0.15 -0.56 0.78 0.22
1 3.44 344 -1.197 -8.854 3.687 5.798 -10.010 20.569 1198.769 2909.904 -3394.389 1.183 -0.409 -0.488 -0.16 -0.56 0.78 0.22
1 3.45 345 -1.374 -9.362 3.912 -3.326 -7.355 24.201 1258.880 3014.836 -3229.346 1.292 0.105 -0.696 -0.16 -0.56 0.79 0.21
1 3.46 346 -1.657 -9.467 3.936 -4.364 -9.003 27.191 1273.870 3074.797 -3319.438 1.534 0.211 -0.720 -0.16 -0.56 0.79 0.21
1 3.47 347 -1.671 -9.386 4.018 0.122 -14.191 30.029 1273.870 3074.797 -3319.438 1.505 0.130 -0.801 -0.16 -0.56 0.79 0.21
1 3.48 348 -1.537 -9.017 4.324 -1.129 -16.144 32.105 1123.818 3029.826 -3349.418 1.325 -0.236 -1.101 -0.16 -0.56 0.79 0.21
1 3.49 349 -1.504 -8.912 4.219 -3.937 -15.930 33.966 1123.818 3029.826 -3349.418 1.244 -0.338 -0.991 -0.16 -0.56 0.79 0.2
1 3.50 350 -1.403 -8.806 4.185 2.106 -19.409 35.919 1153.798 2954.875 -3274.317 1.095 -0.440 -0.953 -0.16 -0.56 0.79 0.2
1 3.51 351 -1.192 -8.888 4.190 5.219 -23.193 32.410 1123.818 3029.826 -3349.418 0.837 -0.353 -0.947 -0.16 -0.56 0.79 0.2
1 3.52 352 -0.742 -9.697 4.276 5.188 -23.895 30.823 1108.828 3089.787 -3049.313 0.308 0.471 -1.001 -0.16 -0.55 0.79 0.19
1 3.53 353 -0.474 -9.831 4.300 4.028 -24.536 30.029 1228.750 2984.855 -3349.418 0.008 0.612 -1.009 -0.16 -0.55 0.8 0.19
1 3.54 354 0.038 -10.195 4.353 -0.854 -25.177 23.285 1228.750 2984.855 -3349.418 -0.529 0.980 -1.053 -0.16 -0.55 0.8 0.19
1 3.55 355 0.359 -9.979 4.319 -2.960 -25.635 15.045 1213.759 3014.836 -3304.447 -0.866 0.766 -1.019 -0.16 -0.55 0.8 0.18
1 3.56 356 0.618 -9.692 4.477 -5.188 -26.703 7.385 1213.759 3014.836 -3304.447 -1.129 0.478 -1.178 -0.16 -0.55 0.8 0.18
1 3.57 357 0.230 -9.084 4.382 -12.695 -27.435 -2.289 1093.837 2909.904 -3319.438 -0.730 -0.131 -1.085 -0.16 -0.55 0.8 0.18
1 3.58 358 0.120 -8.902 4.315 -14.191 -29.297 -10.071 1183.779 2969.865 -3304.447 -0.596 -0.316 -1.023 -0.16 -0.56 0.8 0.18
1 3.59 359 0.239 -8.615 4.262 -15.076 -30.243 -16.327 1183.779 2969.865 -3304.447 -0.684 -0.609 -0.979 -0.15 -0.56 0.8 0.18
1 3.60 360 0.464 -8.787 4.377 -11.688 -29.205 -22.217 1123.818 2984.855 -3214.356 -0.819 -0.447 -1.113 -0.15 -0.56 0.8 0.18
1 3.61 361 0.699 -8.672 4.377 -8.209 -29.511 -23.712 1123.818 2984.855 -3214.356 -1.000 -0.565 -1.118 -0.14 -0.56 0.8 0.18
1 3.62 362 0.991 -8.500 4.559 -6.042 -29.358 -23.499 1033.876 2864.784 -3304.447 -1.237 -0.739 -1.299 -0.14 -0.56 0.8 0.18
1 3.63 363 1.006 -8.318 4.468 -6.592 -28.931 -21.179 1033.876 2864.784 -3304.447 -1.195 -0.921 -1.205 -0.14 -0.56 0.8 0.18
1 3.64 364 1.255 -8.265 4.415 -4.852 -25.208 -16.510 1018.886 3029.826 -3214.356 -1.392 -0.974 -1.149 -0.14 -0.56 0.8 0.18
1 3.65 365 1.379 -8.260 4.209 -4.913 -22.553 -11.536 973.766 3029.826 -3214.356 -1.468 -0.978 -0.939 -0.13 -0.56 0.8 0.18
1 3.66 366 1.475 -8.361 4.271 -4.120 -18.250 -9.247 976.314 3030.126 -3216.754 -1.523 -0.876 -0.997 -0.13 -0.56 0.8 0.18
1 3.67 367 1.255 -8.461 4.142 -2.380 -14.191 -4.395 991.304 3090.087 -3261.725 -1.238 -0.772 -0.859 -0.13 -0.56 0.8 0.18
1 3.68 368 1.336 -8.629 4.051 -2.838 -12.238 -1.404 991.304 3090.087 -3261.725 -1.296 -0.603 -0.763 -0.12 -0.56 0.8 0.18
1 3.69 369 1.302 -8.859 4.075 -2.808 -10.590 -1.343 751.311 3105.077 -3216.754 -1.244 -0.371 -0.783 -0.12 -0.56 0.8 0.18
1 3.70 370 1.121 -9.036 3.994 -3.143 -9.705 -1.495 751.311 3105.077 -3216.754 -1.045 -0.193 -0.698 -0.12 -0.56 0.8 0.18
1 3.71 371 0.963 -9.266 3.946 -4.639 -10.254 -4.272 856.242 2940.035 -3306.696 -0.870 0.038 -0.648 -0.12 -0.56 0.8 0.18
1 3.72 372 0.690 -9.558 3.845 -5.768 -10.895 -7.111 856.242 3165.038 -3126.663 -0.580 0.330 -0.548 -0.12 -0.56 0.8 0.18
1 3.73 373 0.479 -9.740 3.721 -5.768 -13.062 -8.484 856.242 3165.038 -3126.663 -0.349 0.511 -0.427 -0.12 -0.56 0.8 0.18
1 3.74 374 0.374 -9.778 3.730 -3.845 -15.106 -12.787 856.242 3090.087 -3261.725 -0.222 0.548 -0.442 -0.12 -0.56 0.8 0.18
1 3.75 375 0.263 -9.558 3.668 -7.629 -16.998 -13.947 826.262 3105.077 -3141.803 -0.054 0.325 -0.389 -0.11 -0.57 0.8 0.18
1 3.76 376 0.206 -9.290 3.697 -8.423 -18.402 -16.022 796.281 2910.054 -3096.683 0.033 0.055 -0.426 -0.11 -0.57 0.8 0.18
1 3.77 377 0.464 -9.194 3.673 -8.087 -16.876 -15.625 796.281 2910.054 -3096.683 -0.193 -0.043 -0.411 -0.11 -0.57 0.8 0.18
1 3.78 378 0.345 -9.146 3.697 -8.331 -16.541 -16.205 886.373 3015.136 -3261.725 -0.041 -0.093 -0.443 -0.11 -0.57 0.8 0.18
1 3.79 379 0.560 -9.079 3.328 -6.531 -15.747 -13.428 721.330 3030.126 -3276.715 -0.225 -0.162 -0.082 -0.11 -0.57 0.8 0.18
1 3.80 380 0.747 -8.840 3.548 -6.012 -14.404 -14.465 721.330 3030.126 -3276.715 -0.383 -0.403 -0.310 -0.11 -0.57 0.8 0.18
1 3.81 381 0.843 -8.849 3.524 -6.287 -12.390 -12.543 871.382 2955.025 -3096.683 -0.450 -0.394 -0.292 -0.11 -0.57 0.79 0.18
1 3.82 382 1.063 -8.835 3.271 -6.531 -11.749 -12.939 586.268 3090.087 -3261.725 -0.613 -0.410 -0.050 -0.1 -0.57 0.79 0.18
1 3.83 383 1.053 -8.830 3.386 -6.470 -11.231 -13.458 736.320 3045.116 -3261.725 -0.573 -0.416 -0.173 -0.1 -0.57 0.79 0.18
1 3.84 384 1.030 -8.572 3.290 -6.042 -8.637 -11.597 736.320 3045.116 -3261.725 -0.520 -0.675 -0.084 -0.1 -0.57 0.79 0.18
1 3.85 385 0.886 -8.404 3.170 -5.798 -7.202 -11.871 811.271 3015.136 -3186.774 -0.351 -0.843 0.030 -0.1 -0.57 0.79 0.18
1 3.86 386 0.886 -8.744 3.098 -5.310 -7.172 -11.353 616.249 2985.005 -3216.754 -0.327 -0.504 0.096 -0.1 -0.57 0.79 0.19
1 3.87 387 1.178 -8.763 3.237 -6.622 -4.791 -10.010 616.249 2985.005 -3216.754 -0.596 -0.485 -0.048 -0.1 -0.57 0.79 0.19
1 3.88 388 1.097 -8.797 3.012 -7.050 -2.930 -7.965 631.239 3090.087 -3186.774 -0.492 -0.453 0.170 -0.1 -0.57 0.79 0.19
1 3.89 389 1.250 -9.003 2.945 -5.096 -1.282 -7.019 586.268 3120.067 -3126.663 -0.610 -0.250 0.221 -0.09 -0.57 0.79 0.19
1 3.90 390 1.231 -9.199 2.830 -4.730 0.549 -4.822 811.271 3120.067 -3336.676 -0.577 -0.055 0.329 -0.09 -0.57 0.79 0.19
1 3.91 391 1.302 -9.462 2.729 -3.967 1.404 -3.174 811.271 3120.067 -3336.676 -0.637 0.207 0.422 -0.09 -0.57 0.79 0.19
1 3.92 392 1.293 -9.620 2.706 -3.723 2.899 -1.587 573.526 2985.755 -3174.932 -0.619 0.363 0.440 -0.09 -0.58 0.79 0.19
1 3.93 393 1.197 -9.716 2.648 -2.106 3.052 -1.831 618.497 2985.755 -3249.883 -0.516 0.457 0.490 -0.09 -0.58 0.79 0.19
1 3.94 394 1.053 -9.879 2.586 0.946 2.991 -0.732 618.497 2985.755 -3249.883 -0.366 0.619 0.547 -0.09 -0.58 0.79 0.19
1 3.95 395 1.020 -9.912 2.682 2.472 2.472 -0.122 708.438 3090.687 -3084.840 -0.328 0.652 0.449 -0.09 -0.58 0.79 0.19
1 3.96 396 1.034 -9.836 2.658 4.395 3.387 0.641 663.468 3015.735 -3234.893 -0.338 0.576 0.475 -0.09 -0.58 0.79 0.19
1 3.97 397 1.001 -9.778 2.777 5.096 3.845 1.221 543.396 3030.726 -3174.932 -0.304 0.520 0.359 -0.09 -0.58 0.79 0.19
1 3.98 398 1.226 -9.496 2.868 4.700 6.073 2.350 543.396 3030.726 -3174.932 -0.531 0.239 0.274 -0.09 -0.58 0.79 0.19
1 3.99 399 1.360 -9.371 3.002 3.845 7.904 2.380 558.386 2970.765 -3159.792 -0.667 0.116 0.145 -0.09 -0.57 0.79 0.19
1 4.00 400 1.470 -9.232 2.964 1.434 10.193 3.113 723.429 2955.774 -3099.831 -0.779 -0.021 0.189 -0.09 -0.57 0.79 0.19
1 4.01 401 1.633 -8.801 2.950 -5.402 14.069 3.326 723.429 2955.774 -3099.831 -0.945 -0.451 0.205 -0.1 -0.57 0.79 0.19
1 4.02 402 1.719 -8.595 2.768 -10.407 16.419 3.143 723.429 3105.827 -3144.801 -1.034 -0.659 0.383 -0.1 -0.57 0.79 0.19
1 4.03 403 1.791 -8.485 2.729 -15.503 18.189 2.716 693.448 3075.696 -3219.902 -1.110 -0.773 0.411 -0.1 -0.57 0.79 0.19
1 4.04 404 1.710 -8.356 2.615 -17.639 21.088 2.625 648.478 2880.823 -3219.902 -1.035 -0.916 0.485 -0.1 -0.58 0.79 0.2
1 4.05 405 1.767 -8.576 2.562 -16.144 24.017 2.502 648.478 2880.823 -3219.902 -1.097 -0.704 0.515 -0.1 -0.58 0.79 0.2
1 4.06 406 1.729 -8.763 2.509 -11.963 26.703 1.617 798.530 3105.827 -3219.902 -1.063 -0.524 0.547 -0.1 -0.58 0.79 0.2
1 4.07 407 1.815 -8.988 2.591 -7.996 27.924 2.228 723.429 3105.827 -3039.870 -1.156 -0.304 0.451 -0.1 -0.58 0.78 0.2
1 4.08 408 1.724 -9.266 2.691 -2.594 30.853 2.441 723.429 3105.827 -3039.870 -1.072 -0.030 0.342 -0.11 -0.58 0.78 0.2
1 4.09 409 1.528 -9.486 2.782 -0.641 32.715 2.472 753.409 3180.778 -3144.801 -0.883 0.189 0.249 -0.11 -0.58 0.78 0.2
1 4.10 410 1.489 -9.477 2.696 0.519 33.722 2.045 753.409 3225.749 -3039.870 -0.854 0.179 0.336 -0.11 -0.58 0.78 0.2
1 4.11 411 1.063 -9.491 2.662 -1.099 35.523 -0.427 723.429 2985.755 -3069.850 -0.450 0.193 0.373 -0.11 -0.58 0.78 0.21
1 4.12 412 0.828 -9.424 2.495 -1.862 34.332 -2.075 723.429 2985.755 -3069.850 -0.226 0.125 0.540 -0.11 -0.58 0.78 0.21
1 4.13 413 0.584 -9.558 2.615 -3.021 30.792 -2.594 813.520 3090.687 -3084.840 0.008 0.258 0.418 -0.12 -0.58 0.78 0.21
1 4.14 414 0.723 -9.807 2.629 -7.050 27.008 -2.869 933.442 3015.735 -3159.792 -0.139 0.505 0.398 -0.12 -0.58 0.78 0.21
1 4.15 415 0.728 -9.960 2.524 -9.613 22.430 -3.876 933.442 3015.735 -3159.792 -0.150 0.654 0.492 -0.12 -0.58 0.78 0.21
1 4.16 416 0.838 -10.185 2.495 -10.895 18.250 -5.096 933.442 3045.716 -3129.811 -0.262 0.874 0.505 -0.12 -0.58 0.78 0.21
1 4.17 417 0.809 -10.219 2.509 -11.475 17.426 -2.747 873.481 3180.778 -3099.831 -0.233 0.902 0.474 -0.12 -0.58 0.78 0.22
1 4.18 418 0.675 -10.080 2.514 -10.651 17.700 0.641 873.481 3180.778 -3099.831 -0.099 0.757 0.450 -0.12 -0.58 0.78 0.22
1 4.19 419 0.895 -10.157 2.418 -4.272 16.083 1.923 903.461 3075.696 -3099.831 -0.334 0.822 0.513 -0.13 -0.58 0.78 0.22
1 4.20 420 1.149 -10.085 2.447 -0.732 16.113 4.791 980.661 3106.126 -3177.030 -0.596 0.747 0.477 -0.13 -0.58 0.78 0.22
1 4.21 421 1.384 -10.022 2.466 -0.732 20.630 7.629 890.720 3196.218 -3056.958 -0.842 0.683 0.454 -0.13 -0.58 0.78 0.22
1 4.22 422 1.279 -10.056 2.322 0.061 22.583 9.796 890.720 3196.218 -3056.958 -0.751 0.715 0.595 -0.13 -0.58 0.77 0.22
1 4.23 423 1.547 -10.166 2.389 1.678 25.787 10.071 860.589 3166.087 -2937.037 -1.037 0.824 0.527 -0.13 -0.58 0.77 0.22
1 4.24 424 1.729 -10.271 2.576 2.502 28.381 9.155 800.628 3181.078 -3177.030 -1.237 0.928 0.340 -0.13 -0.58 0.77 0.22
1 4.25 425 1.887 -10.602 3.548 3.296 27.039 4.791 800.628 3181.078 -3177.030 -1.412 1.258 -0.631 -0.13 -0.58 0.77 0.22
1 4.26 426 1.427 -12.062 3.050 4.242 19.104 -5.310 875.580 3076.146 -2996.998 -0.975 2.722 -0.120 -0.14 -0.58 0.77 0.22
1 4.27 427 0.350 -11.746 2.710 8.057 20.447 -7.263 1025.632 2986.205 -2967.017 0.103 2.409 0.230 -0.14 -0.58 0.77 0.23
1 4.28 428 -0.517 -10.525 3.960 0.458 18.494 -12.146 995.651 2971.214 -3192.021 0.973 1.192 -1.007 -0.14 -0.57 0.77 0.23
1 4.29 429 -0.350 -9.797 3.122 -16.235 13.092 -17.334 995.651 2971.214 -3192.021 0.819 0.464 -0.173 -0.14 -0.57 0.77 0.23
1 4.30 430 0.211 -9.955 2.801 -13.092 9.460 -18.341 1040.622 3241.188 -3132.060 0.273 0.616 0.129 -0.14 -0.58 0.77 0.23
1 4.31 431 0.067 -10.540 3.237 1.587 1.648 -19.959 965.671 3166.087 -3011.988 0.437 1.197 -0.321 -0.14 -0.58 0.77 0.23
1 4.32 432 0.455 -10.937 3.567 4.700 -4.181 -22.736 965.671 3166.087 -3011.988 0.076 1.596 -0.651 -0.14 -0.58 0.77 0.23
1 4.33 433 0.283 -11.287 3.462 5.890 -7.599 -20.203 950.681 3076.146 -3102.079 0.319 1.955 -0.531 -0.14 -0.58 0.77 0.24
1 4.34 434 -0.086 -10.975 3.218 -0.793 -8.972 -17.731 1130.713 3181.078 -2996.998 0.720 1.648 -0.280 -0.13 -0.58 0.77 0.24
1 4.35 435 -0.215 -10.161 3.036 -5.127 -11.292 -13.245 980.661 3151.097 -3222.001 0.878 0.835 -0.100 -0.13 -0.58 0.77 0.24
1 4.36 436 0.670 -9.333 2.935 -5.249 -12.909 -11.902 980.661 3151.097 -3222.001 0.013 0.006 -0.007 -0.13 -0.58 0.77 0.24
1 4.37 437 1.456 -8.969 2.854 -6.195 -10.468 -8.240 1025.632 3106.126 -3222.001 -0.751 -0.359 0.066 -0.13 -0.58 0.77 0.24
1 4.38 438 1.853 -8.811 2.509 -10.895 -0.580 -1.953 935.690 3016.185 -3132.060 -1.129 -0.519 0.400 -0.13 -0.58 0.77 0.24
1 4.39 439 1.891 -8.701 2.385 -11.658 2.197 1.007 935.690 3016.185 -3132.060 -1.153 -0.633 0.509 -0.13 -0.58 0.77 0.24
1 4.40 440 1.719 -8.447 2.466 -12.024 4.120 3.510 815.619 3091.136 -3086.939 -0.966 -0.896 0.394 -0.13 -0.58 0.77 0.24
1 4.41 441 1.690 -8.241 2.610 -13.275 5.493 3.845 875.580 2986.205 -3071.949 -0.936 -1.107 0.233 -0.13 -0.58 0.77 0.24
1 4.42 442 1.173 -8.150 2.576 -14.282 5.920 2.289 875.580 3151.097 -2892.066 -0.422 -1.204 0.248 -0.13 -0.58 0.77 0.24
1 4.43 443 0.967 -8.284 2.883 -12.909 6.348 -0.458 875.580 3151.097 -2892.066 -0.217 -1.075 -0.076 -0.13 -0.58 0.77 0.24
1 4.44 444 0.824 -8.126 3.165 -13.214 9.430 -1.373 965.671 3166.087 -3011.988 -0.074 -1.238 -0.375 -0.13 -0.58 0.77 0.24
1 4.45 445 0.345 -8.160 3.409 -8.667 10.040 -1.740 785.638 3121.117 -2937.037 0.404 -1.210 -0.635 -0.13 -0.58 0.76 0.24
1 4.46 446 -0.182 -8.136 3.596 -5.005 11.017 -3.021 785.638 3121.117 -2937.037 0.929 -1.237 -0.834 -0.13 -0.58 0.76 0.24
1 4.47 447 -0.306 -8.538 4.046 -1.465 12.543 -4.425 905.710 3151.097 -3071.949 1.050 -0.835 -1.282 -0.13 -0.58 0.76 0.24
1 4.48 448 -0.623 -9.007 4.573 4.944 18.616 -3.082 965.671 3091.136 -3086.939 1.353 -0.359 -1.786 -0.14 -0.58 0.76 0.24
1 4.49 449 -0.694 -9.070 4.698 7.324 23.285 -4.608 980.661 3106.126 -2922.046 1.412 -0.291 -1.885 -0.14 -0.58 0.76 0.24
1 4.50 450 -0.153 -9.031 4.832 7.538 28.381 -7.843 980.661 3106.126 -2922.046 0.859 -0.322 -1.991 -0.14 -0.58 0.76 0.24
1 4.51 451 0.038 -8.859 4.937 7.751 32.227 -9.308 830.609 3076.146 -2816.965 0.660 -0.485 -2.066 -0.14 -0.58 0.77 0.25
1 4.52 452 0.249 -8.600 4.966 10.132 34.668 -9.796 890.720 3091.136 -2877.076 0.444 -0.735 -2.064 -0.14 -0.58 0.77 0.25
1 4.53 453 0.441 -8.241 4.832 9.735 34.851 -11.932 890.720 3091.136 -2877.076 0.249 -1.083 -1.896 -0.14 -0.57 0.77 0.25
1 4.54 454 0.378 -8.059 4.904 5.249 34.882 -14.587 980.661 3106.126 -2996.998 0.310 -1.255 -1.934 -0.14 -0.57 0.77 0.25
1 4.55 455 -0.010 -8.045 4.525 -0.214 31.952 -22.583 1055.612 2986.205 -3147.050 0.710 -1.251 -1.503 -0.15 -0.57 0.77 0.26
1 4.56 456 -0.053 -8.136 4.535 0.641 31.067 -27.100 965.671 3121.117 -3011.988 0.768 -1.153 -1.494 -0.15 -0.57 0.77 0.26
1 4.57 457 -0.086 -8.385 4.487 3.723 31.952 -30.487 965.671 3121.117 -3011.988 0.822 -0.896 -1.427 -0.15 -0.57 0.77 0.26
1 4.58 458 -0.402 -8.591 4.420 5.066 33.936 -30.701 995.651 3121.117 -3011.988 1.162 -0.681 -1.337 -0.15 -0.57 0.77 0.27
1 4.59 459 -0.589 -8.883 4.185 4.639 33.478 -31.220 890.720 3121.117 -3086.939 1.369 -0.379 -1.078 -0.15 -0.57 0.76 0.27
1 4.60 460 -0.417 -9.256 4.018 6.531 31.036 -26.398 890.720 3121.117 -3086.939 1.215 0.004 -0.889 -0.15 -0.56 0.76 0.27
1 4.61 461 -0.268 -9.429 3.927 5.737 29.663 -22.217 995.651 3196.218 -2907.056 1.083 0.185 -0.776 -0.15 -0.56 0.76 0.28
1 4.62 462 0.144 -9.687 3.773 3.235 30.975 -17.395 995.651 3196.218 -2907.056 0.682 0.451 -0.604 -0.15 -0.56 0.76 0.28
1 4.63 463 0.297 -9.965 3.572 -1.831 29.846 -6.256 1055.612 3151.097 -2967.017 0.531 0.737 -0.379 -0.15 -0.56 0.76 0.28
1 4.64 464 0.211 -10.128 3.395 -3.052 28.107 0.031 1055.612 3151.097 -2967.017 0.606 0.900 -0.199 -0.16 -0.56 0.76 0.29
1 4.65 465 0.158 -9.836 3.199 -3.326 24.628 3.815 1025.632 2986.205 -2996.998 0.639 0.606 -0.002 -0.16 -0.56 0.76 0.29
1 4.66 466 0.101 -9.927 3.084 -3.815 20.416 5.310 965.671 3046.166 -2982.007 0.675 0.695 0.111 -0.16 -0.56 0.76 0.29
1 4.67 467 0.019 -9.879 2.950 -4.517 13.947 9.888 965.671 3046.166 -2982.007 0.734 0.643 0.241 -0.16 -0.56 0.76 0.29
1 4.68 468 -0.034 -9.955 2.758 -5.524 10.925 11.169 1055.612 3106.126 -2892.066 0.763 0.716 0.426 -0.16 -0.56 0.76 0.29
1 4.69 469 -0.019 -9.850 2.576 -5.463 6.622 12.421 1055.612 3106.126 -2892.066 0.723 0.606 0.600 -0.16 -0.56 0.76 0.29
1 4.70 470 0.350 -9.908 2.370 -2.045 1.465 12.848 1145.704 3091.136 -3056.958 0.305 0.653 0.787 -0.17 -0.56 0.76 0.29
1 4.71 471 0.445 -9.702 2.389 -2.594 -2.014 14.221 1145.704 3091.136 -3056.958 0.187 0.443 0.759 -0.17 -0.56 0.76 0.28
1 4.72 472 0.546 -9.587 2.303 -3.174 -3.998 14.404 1070.603 3046.166 -2937.037 0.067 0.323 0.836 -0.17 -0.56 0.76 0.28
1 4.73 473 0.517 -9.649 2.337 -2.228 -4.425 14.923 995.651 3046.166 -2907.056 0.078 0.381 0.793 -0.17 -0.56 0.76 0.28
1 4.74 474 0.488 -9.405 2.289 -0.519 -4.486 13.794 995.651 3046.166 -2907.056 0.088 0.133 0.833 -0.17 -0.56 0.76 0.28
1 4.75 475 0.287 -9.357 2.294 0.732 -3.906 13.001 1070.603 3091.136 -2907.056 0.272 0.082 0.823 -0.17 -0.56 0.76 0.28
1 4.76 476 -0.125 -9.228 2.356 1.007 -3.296 13.458 1070.603 3091.136 -2907.056 0.667 -0.049 0.757 -0.17 -0.56 0.76 0.28
1 4.77 477 -0.029 -9.194 2.284 2.869 -2.716 11.871 1190.674 3091.136 -2831.955 0.530 -0.086 0.824 -0.17 -0.56 0.76 0.28
1 4.78 478 -0.172 -9.122 2.275 3.479 -3.418 10.559 1190.674 3091.136 -2831.955 0.655 -0.159 0.834 -0.17 -0.56 0.76 0.28
1 4.79 479 -0.168 -9.098 2.337 1.556 -4.364 7.965 1235.645 2986.205 -2922.046 0.635 -0.184 0.772 -0.17 -0.56 0.76 0.28
1 4.80 480 -0.192 -9.137 2.265 2.014 -6.348 4.822 1040.622 3166.087 -2982.007 0.647 -0.147 0.842 -0.17 -0.56 0.76 0.27
1 4.81 481 -0.148 -9.108 2.088 1.740 -9.003 3.510 1040.622 3166.087 -2982.007 0.598 -0.176 1.017 -0.17 -0.56 0.76 0.27
1 4.82 482 -0.196 -9.161 2.112 2.197 -14.923 1.160 1055.612 2986.205 -3041.968 0.643 -0.125 0.991 -0.17 -0.56 0.76 0.27
1 4.83 483 -0.254 -9.070 2.002 1.801 -16.724 0.671 1055.612 2986.205 -3041.968 0.700 -0.217 1.097 -0.17 -0.56 0.76 0.27
1 4.84 484 0.005 -9.007 1.805 -1.068 -20.966 0.641 1145.704 3046.166 -2937.037 0.449 -0.282 1.284 -0.17 -0.56 0.76 0.27
1 4.85 485 0.077 -8.873 1.858 -2.411 -21.820 0.763 1145.704 3046.166 -2937.037 0.384 -0.419 1.221 -0.17 -0.56 0.76 0.27
1 4.86 486 0.268 -8.763 1.738 -8.881 -26.703 -0.183 860.589 3046.166 -3056.958 0.203 -0.534 1.326 -0.17 -0.56 0.76 0.27
1 4.87 487 0.374 -8.725 1.714 -12.573 -29.266 0.977 1205.665 2986.205 -2996.998 0.110 -0.579 1.327 -0.16 -0.56 0.76 0.27
1 4.88 488 0.426 -8.844 1.566 -15.228 -31.189 0.916 1205.665 2986.205 -2996.998 0.069 -0.468 1.447 -0.16 -0.57 0.76 0.26
1 4.89 489 0.326 -8.959 1.384 -11.993 -31.647 1.862 1130.713 2911.104 -2967.017 0.183 -0.362 1.598 -0.16 -0.57 0.76 0.26
1 4.90 490 0.426 -9.094 1.298 -14.923 -35.767 3.876 1130.713 2911.104 -2967.017 0.095 -0.236 1.657 -0.16 -0.57 0.76 0.26
1 4.91 491 0.397 -9.228 1.432 -19.562 -35.767 6.592 1115.723 3046.166 -3011.988 0.135 -0.111 1.491 -0.16 -0.57 0.76 0.26
1 4.92 492 0.148 -9.247 1.441 -18.982 -36.804 8.942 905.710 2986.205 -2846.945 0.396 -0.115 1.403 -0.16 -0.58 0.76 0.25
1 4.93 493 0.105 -9.247 1.446 -17.700 -38.544 7.019 995.651 3046.166 -2937.037 0.441 -0.127 1.361 -0.15 -0.58 0.76 0.25
1 4.94 494 0.196 -9.726 1.619 -15.015 -37.750 8.026 950.681 3181.078 -2922.046 0.355 0.342 1.153 -0.15 -0.58 0.76 0.25
1 4.95 495 0.120 -10.003 1.642 -11.841 -35.584 11.597 950.681 3181.078 -2922.046 0.433 0.611 1.098 -0.15 -0.58 0.76 0.25
1 4.96 496 -0.096 -10.219 1.705 -5.188 -35.034 12.695 890.720 3046.166 -2937.037 0.643 0.818 1.010 -0.15 -0.58 0.76 0.24
1 4.97 497 0.034 -10.420 1.710 -2.472 -36.163 12.482 890.720 3046.166 -2937.037 0.506 1.013 0.986 -0.15 -0.58 0.76 0.24
1 4.98 498 0.187 -10.415 1.547 -0.885 -35.980 12.207 950.681 2986.205 -2846.945 0.346 1.004 1.135 -0.15 -0.58 0.76 0.24
1 4.99 499 0.187 -10.161 1.614 -0.793 -40.009 12.634 830.609 3106.126 -2816.965 0.336 0.743 1.044 -0.14 -0.59 0.76 0.23
1 5.00 500 0.306 -10.104 1.575 -1.770 -41.046 14.313 819.366 3091.736 -2730.321 0.212 0.682 1.070 -0.14 -0.59 0.76 0.23
1 5.01 501 0.024 -9.850 1.231 -1.526 -43.244 14.008 879.327 3106.726 -2790.432 0.491 0.424 1.401 -0.14 -0.59 0.76 0.23
1 5.02 502 0.019 -9.716 1.379 2.441 -47.638 12.604 879.327 3106.726 -2790.432 0.492 0.286 1.240 -0.14 -0.59 0.76 0.23
1 5.03 503 0.005 -9.745 2.327 2.747 -47.699 12.116 744.265 3121.716 -2940.334 0.504 0.312 0.283 -0.14 -0.59 0.76 0.22
1 5.04 504 1.030 -11.756 6.364 6.042 -23.926 22.369 744.265 3121.716 -2940.334 -0.523 2.323 -3.757 -0.14 -0.59 0.76 0.22
1 5.05 505 2.806 -13.920 6.517 25.238 14.404 45.349 804.376 2956.674 -2850.393 -2.316 4.489 -3.902 -0.13 -0.59 0.77 0.22
1 5.06 506 6.747 -13.853 4.564 42.114 42.938 82.062 669.314 3166.687 -3015.436 -6.420 4.440 -1.856 -0.14 -0.59 0.77 0.21
1 5.07 507 7.772 -12.924 4.401 20.599 42.359 92.774 699.294 3106.726 -2820.413 -7.588 3.521 -1.645 -0.15 -0.58 0.77 0.21
1 5.08 508 4.382 -11.320 3.965 14.496 23.316 94.422 789.386 3091.736 -2880.374 -4.358 1.915 -1.212 -0.15 -0.58 0.77 0.2
1 5.09 509 -0.795 -9.864 3.357 19.959 19.531 69.397 789.386 3091.736 -2880.374 0.678 0.467 -0.580 -0.16 -0.58 0.78 0.2
1 5.10 510 -4.688 -8.730 3.084 20.844 -7.172 25.635 894.317 3121.716 -2805.422 4.482 -0.657 -0.275 -0.16 -0.58 0.78 0.2
1 5.11 511 -7.145 -8.868 3.074 -0.793 -25.330 10.315 894.317 3121.716 -2805.422 6.888 -0.508 -0.235 -0.16 -0.57 0.78 0.2
1 5.12 512 -6.493 -9.304 3.318 -7.019 -35.492 -2.533 894.317 2971.664 -2730.321 6.232 -0.069 -0.471 -0.16 -0.57 0.78 0.19
1 5.13 513 -5.052 -10.640 3.481 3.845 -40.772 -9.094 909.308 3031.775 -2925.344 4.804 1.264 -0.642 -0.16 -0.57 0.78 0.19
1 5.14 514 -2.878 -10.880 3.970 6.989 -42.542 -5.127 969.269 3046.765 -2910.354 2.691 1.507 -1.113 -0.15 -0.58 0.78 0.19
1 5.15 515 -1.834 -10.530 4.118 1.526 -47.699 0.305 909.308 2956.674 -3000.445 1.673 1.160 -1.251 -0.15 -0.58 0.78 0.19
1 5.16 516 -1.073 -10.295 4.109 -2.075 -49.378 3.571 909.308 2956.674 -3000.445 0.932 0.926 -1.238 -0.15 -0.58 0.78 0.19
1 5.17 517 -0.555 -9.328 4.434 -3.601 -48.401 4.425 864.337 3046.765 -2940.334 0.432 -0.042 -1.565 -0.14 -0.58 0.78 0.18
1 5.18 518 0.086 -8.375 4.602 -2.991 -44.586 3.876 864.337 3046.765 -2940.334 -0.199 -0.993 -1.726 -0.14 -0.58 0.78 0.18
1 5.19 519 1.068 -6.757 4.425 1.709 -37.323 4.303 954.278 3076.746 -2925.344 -1.165 -2.608 -1.537 -0.14 -0.58 0.78 0.18
1 5.20 520 1.695 -6.316 4.520 2.655 -32.349 4.150 744.265 3046.765 -2910.354 -1.778 -3.045 -1.623 -0.14 -0.58 0.79 0.18
1 5.21 521 2.026 -6.034 4.219 0.305 -29.968 3.784 729.275 2986.804 -2925.344 -2.090 -3.325 -1.312 -0.13 -0.58 0.79 0.17
1 5.22 522 2.121 -6.302 4.353 1.251 -29.785 2.319 759.255 3031.775 -2850.393 -2.176 -3.057 -1.444 -0.13 -0.58 0.79 0.17
1 5.23 523 2.064 -6.474 4.410 2.838 -29.633 -0.702 759.255 3031.775 -2850.393 -2.106 -2.883 -1.498 -0.13 -0.58 0.79 0.17
1 5.24 524 2.026 -6.599 4.516 2.899 -27.924 -2.106 714.285 3016.785 -2760.302 -2.052 -2.757 -1.598 -0.13 -0.58 0.79 0.17
1 5.25 525 1.901 -6.929 4.597 2.380 -24.445 -3.784 714.285 3016.785 -2760.302 -1.911 -2.425 -1.674 -0.12 -0.58 0.79 0.17
1 5.26 526 1.580 -7.657 4.683 2.441 -21.149 -0.122 669.314 3016.785 -2880.374 -1.572 -1.695 -1.755 -0.12 -0.58 0.79 0.17
1 5.27 527 1.326 -8.011 4.520 -1.465 -21.149 11.108 804.376 3031.775 -3000.445 -1.299 -1.337 -1.580 -0.12 -0.58 0.79 0.17
1 5.28 528 1.389 -8.629 4.774 -9.216 -21.301 15.717 714.285 2941.684 -2880.374 -1.352 -0.713 -1.812 -0.12 -0.58 0.79 0.16
1 5.29 529 1.384 -9.007 4.851 -9.857 -17.304 14.557 669.314 2866.732 -2985.305 -1.349 -0.334 -1.888 -0.12 -0.58 0.79 0.16
1 5.30 530 0.460 -9.548 4.377 -9.857 -9.003 19.684 669.314 2866.732 -2985.305 -0.432 0.207 -1.413 -0.12 -0.58 0.79 0.16
1 5.31 531 -0.120 -9.778 4.180 -8.911 -8.606 17.090 744.265 3016.785 -3015.436 0.129 0.436 -1.220 -0.12 -0.58 0.79 0.16
1 5.32 532 -0.455 -9.836 4.109 -9.522 -8.362 14.801 744.265 3016.785 -3015.436 0.446 0.493 -1.151 -0.12 -0.58 0.79 0.16
1 5.33 533 -0.206 -9.874 3.946 -12.695 -12.146 9.155 624.343 2806.771 -2925.344 0.178 0.529 -0.995 -0.12 -0.58 0.79 0.16
1 5.34 534 0.129 -9.864 3.788 -11.719 -12.299 4.242 669.314 2971.664 -2835.403 -0.170 0.516 -0.848 -0.12 -0.58 0.79 0.16
1 5.35 535 0.374 -9.850 3.773 -11.353 -11.536 1.556 669.314 2971.664 -2835.403 -0.415 0.498 -0.844 -0.12 -0.58 0.79 0.15
1 5.36 536 0.795 -9.955 3.864 -11.139 -12.024 -4.608 594.363 2971.664 -2940.334 -0.819 0.597 -0.956 -0.11 -0.58 0.79 0.15
1 5.37 537 0.814 -9.826 3.903 -9.674 -11.505 -9.979 594.363 2971.664 -2940.334 -0.817 0.465 -1.003 -0.11 -0.58 0.79 0.15
1 5.38 538 0.833 -9.620 3.965 -8.545 -8.942 -10.529 654.324 2986.804 -2925.344 -0.809 0.257 -1.072 -0.11 -0.58 0.79 0.15
1 5.39 539 0.776 -9.271 3.864 -8.026 -9.338 -12.909 654.324 2986.804 -2925.344 -0.725 -0.094 -0.975 -0.11 -0.58 0.79 0.15
1 5.40 540 1.135 -9.151 3.917 -5.798 -10.010 -15.472 714.285 2971.664 -2880.374 -1.054 -0.214 -1.031 -0.11 -0.58 0.79 0.15
1 5.41 541 1.255 -8.950 3.769 -4.852 -8.728 -16.571 639.333 3016.785 -2880.374 -1.141 -0.415 -0.884 -0.11 -0.58 0.79 0.15
1 5.42 542 1.058 -9.122 3.567 -1.984 -6.287 -18.646 639.333 3016.785 -2880.374 -0.907 -0.242 -0.682 -0.11 -0.58 0.79 0.16
1 5.43 543 0.771 -8.979 3.457 0.793 -6.836 -19.440 489.281 3046.765 -2910.354 -0.544 -0.381 -0.562 -0.1 -0.58 0.79 0.16
1 5.44 544 0.728 -9.050 3.376 1.740 -7.263 -20.020 489.281 3046.765 -2910.354 -0.465 -0.306 -0.473 -0.1 -0.58 0.79 0.16
1 5.45 545 0.728 -9.122 3.347 1.434 -7.111 -17.426 639.333 3121.716 -2835.403 -0.429 -0.231 -0.437 -0.1 -0.58 0.79 0.16
1 5.46 546 0.867 -9.194 3.170 1.953 -7.629 -18.250 639.333 3121.716 -2835.403 -0.535 -0.156 -0.253 -0.1 -0.58 0.79 0.16
1 5.47 547 0.781 -9.347 3.079 3.479 -6.378 -17.517 594.363 2971.664 -2760.302 -0.415 0.001 -0.156 -0.1 -0.58 0.79 0.16
1 5.48 548 0.771 -9.299 2.720 4.303 -5.035 -15.991 414.330 2971.664 -2835.403 -0.374 -0.044 0.211 -0.09 -0.58 0.79 0.16
1 5.49 549 0.498 -9.400 2.763 4.547 -6.683 -13.580 416.878 2972.713 -2839.300 -0.071 0.060 0.174 -0.09 -0.58 0.79 0.16
1 5.50 550 0.747 -9.405 2.811 6.104 -6.714 -13.458 566.931 3017.684 -2884.271 -0.293 0.068 0.132 -0.09 -0.58 0.79 0.16
1 5.51 551 0.752 -9.453 2.816 6.683 -5.005 -10.956 581.921 2987.704 -2854.291 -0.249 0.124 0.144 -0.09 -0.58 0.79 0.17
1 5.52 552 0.785 -9.290 2.725 8.057 -4.761 -8.301 506.970 2912.603 -2824.310 -0.262 -0.035 0.244 -0.09 -0.58 0.79 0.17
1 5.53 553 0.886 -9.410 2.892 9.399 -4.578 -7.599 506.970 2912.603 -2824.310 -0.345 0.089 0.087 -0.09 -0.58 0.79 0.17
1 5.54 554 0.977 -9.290 2.744 9.857 -2.289 -5.280 461.849 3017.684 -2764.349 -0.421 -0.026 0.248 -0.09 -0.58 0.79 0.17
1 5.55 555 0.958 -9.275 2.725 9.277 -0.641 -3.357 476.839 3152.596 -2929.392 -0.389 -0.035 0.281 -0.09 -0.58 0.79 0.17
1 5.56 556 0.876 -9.237 2.605 9.369 -0.580 -3.052 476.839 3152.596 -2929.392 -0.298 -0.068 0.414 -0.09 -0.58 0.79 0.17
1 5.57 557 0.996 -9.175 2.552 9.277 0.031 -3.479 476.839 2957.723 -2854.291 -0.409 -0.126 0.479 -0.09 -0.58 0.79 0.17
1 5.58 558 1.398 -9.290 2.576 8.789 1.434 -3.296 431.869 2987.704 -2824.310 -0.793 -0.002 0.478 -0.09 -0.58 0.79 0.17
1 5.59 559 1.322 -9.184 2.686 8.942 3.967 -1.099 491.830 2822.661 -2839.300 -0.708 -0.104 0.378 -0.09 -0.58 0.79 0.17
1 5.60 560 1.197 -9.266 2.619 7.843 5.676 0.031 491.830 2822.661 -2839.300 -0.577 -0.018 0.456 -0.08 -0.58 0.79 0.17
1 5.61 561 0.919 -9.122 2.648 5.768 7.385 0.519 476.839 2912.603 -2929.392 -0.297 -0.159 0.437 -0.09 -0.58 0.79 0.17
1 5.62 562 0.857 -8.883 2.500 2.686 9.460 -0.854 356.917 2912.603 -2794.330 -0.235 -0.396 0.592 -0.09 -0.58 0.79 0.17
1 5.63 563 1.073 -8.979 2.241 0.275 11.536 -2.808 356.917 2912.603 -2794.330 -0.450 -0.300 0.852 -0.09 -0.58 0.79 0.17
1 5.64 564 1.293 -9.022 2.236 0.519 13.733 -2.960 356.917 2912.603 -2899.261 -0.668 -0.257 0.856 -0.09 -0.58 0.79 0.17
1 5.65 565 1.346 -9.098 2.131 2.991 14.984 -2.960 566.931 2867.632 -2914.401 -0.714 -0.180 0.960 -0.09 -0.58 0.79 0.17
1 5.66 566 1.384 -9.132 2.294 2.594 16.541 -3.326 461.849 3017.684 -2914.401 -0.748 -0.146 0.798 -0.09 -0.58 0.79 0.18
1 5.67 567 1.279 -8.935 2.490 -0.061 16.480 -3.479 461.849 3017.684 -2914.401 -0.639 -0.342 0.602 -0.09 -0.58 0.79 0.18
1 5.68 568 1.283 -8.916 2.567 -5.646 15.656 -2.472 386.898 2897.612 -2914.401 -0.641 -0.362 0.523 -0.09 -0.58 0.79 0.18
1 5.69 569 1.331 -8.591 2.552 -16.876 15.595 -1.282 551.940 2882.622 -2794.330 -0.686 -0.691 0.526 -0.09 -0.58 0.79 0.18
1 5.70 570 1.274 -8.600 2.624 -23.438 16.785 -0.519 551.940 2882.622 -2794.330 -0.628 -0.688 0.434 -0.09 -0.58 0.79 0.18
1 5.71 571 1.149 -8.773 2.428 -21.729 21.912 1.526 476.839 3032.674 -2929.392 -0.503 -0.525 0.600 -0.09 -0.58 0.79 0.18
1 5.72 572 1.135 -8.672 2.093 -26.337 17.517 -1.434 506.970 2987.704 -2824.310 -0.500 -0.647 0.873 -0.09 -0.58 0.79 0.18
1 5.73 573 1.346 -8.816 2.131 -28.381 15.991 -3.448 536.950 2897.612 -2884.271 -0.709 -0.516 0.794 -0.1 -0.58 0.78 0.18
1 5.74 574 1.652 -9.295 2.117 -21.820 15.625 -3.357 536.950 2897.612 -2884.271 -1.009 -0.048 0.771 -0.1 -0.59 0.78 0.18
1 5.75 575 1.666 -9.673 2.054 -17.944 16.815 -1.770 566.931 3092.635 -2809.320 -1.018 0.321 0.801 -0.1 -0.59 0.78 0.19
1 5.76 576 1.710 -10.152 2.050 -13.031 19.714 0.336 431.869 3032.674 -2824.310 -1.059 0.792 0.779 -0.1 -0.59 0.78 0.19
1 5.77 577 1.733 -10.463 1.767 -5.280 21.057 1.587 431.869 3032.674 -2824.310 -1.083 1.097 1.042 -0.1 -0.59 0.78 0.19
1 5.78 578 1.815 -10.583 2.016 -1.831 23.590 2.411 476.839 3032.674 -2854.291 -1.168 1.212 0.779 -0.1 -0.59 0.78 0.19
1 5.79 579 1.949 -11.167 3.338 1.434 23.804 2.655 641.882 2942.733 -2884.271 -1.310 1.794 -0.547 -0.1 -0.59 0.78 0.19
1 5.80 580 0.958 -12.431 2.696 1.312 20.111 -8.087 716.833 3122.616 -2809.320 -0.337 3.061 0.107 -0.1 -0.59 0.78 0.19
1 5.81 581 -0.594 -12.331 2.868 -0.458 11.414 -13.672 716.833 3122.616 -2809.320 1.223 2.962 -0.062 -0.1 -0.59 0.78 0.19
1 5.82 582 -1.221 -11.287 3.721 -11.963 -0.427 -12.817 716.833 3122.616 -2944.382 1.866 1.919 -0.915 -0.1 -0.59 0.78 0.19
1 5.83 583 -0.733 -10.908 2.830 -24.933 -0.977 -18.524 671.862 3047.665 -2734.369 1.400 1.535 -0.048 -0.1 -0.59 0.78 0.2
1 5.84 584 0.302 -11.095 3.022 -5.280 -1.495 -18.799 671.862 3047.665 -2734.369 0.394 1.715 -0.271 -0.1 -0.59 0.78 0.2
1 5.85 585 1.063 -11.603 3.587 -2.014 -4.547 -16.235 641.882 2897.612 -2914.401 -0.338 2.221 -0.847 -0.1 -0.59 0.78 0.2
1 5.86 586 2.557 -12.058 3.759 0.031 -2.289 -14.954 641.882 3122.616 -2809.320 -1.804 2.678 -1.022 -0.1 -0.59 0.77 0.2
1 5.87 587 2.820 -12.316 3.678 -0.885 5.096 -12.054 581.921 3032.674 -2719.378 -2.022 2.941 -0.937 -0.1 -0.59 0.77 0.2
1 5.88 588 2.246 -11.521 3.414 -9.399 9.522 -0.854 581.921 3032.674 -2719.378 -1.436 2.147 -0.676 -0.1 -0.59 0.77 0.2
1 5.89 589 1.987 -10.779 2.840 -12.848 13.184 5.890 596.911 3017.684 -2704.388 -1.182 1.400 -0.114 -0.1 -0.59 0.77 0.2
1 5.90 590 1.882 -10.181 2.619 -12.817 13.977 6.531 551.940 3227.697 -2749.359 -1.090 0.796 0.091 -0.1 -0.59 0.77 0.2
1 5.91 591 2.461 -9.682 2.442 -11.780 16.968 4.456 551.940 3227.697 -2749.359 -1.680 0.293 0.252 -0.1 -0.59 0.77 0.2
1 5.92 592 2.476 -9.175 2.466 -8.118 22.614 8.453 641.882 3047.665 -2734.369 -1.696 -0.219 0.213 -0.11 -0.59 0.77 0.2
1 5.93 593 1.882 -8.811 2.471 -14.130 24.902 10.468 536.950 3122.616 -2809.320 -1.107 -0.587 0.198 -0.11 -0.59 0.77 0.2
1 5.94 594 1.121 -8.643 2.428 -13.672 23.499 9.674 641.882 3167.736 -2704.388 -0.373 -0.766 0.209 -0.11 -0.59 0.77 0.21
1 5.95 595 0.852 -8.619 2.500 -12.238 22.003 8.881 641.882 3167.736 -2704.388 -0.122 -0.795 0.122 -0.11 -0.59 0.77 0.21
1 5.96 596 0.503 -8.265 2.892 -14.130 22.278 7.874 626.892 3077.645 -2854.291 0.208 -1.154 -0.283 -0.11 -0.6 0.77 0.21
1 5.97 597 0.321 -7.911 3.065 -15.228 23.438 7.416 566.931 3047.665 -2704.388 0.371 -1.515 -0.471 -0.12 -0.6 0.77 0.21
1 5.98 598 -0.005 -7.762 3.338 -14.923 24.201 7.813 566.931 3047.665 -2704.388 0.677 -1.669 -0.762 -0.12 -0.6 0.77 0.21
1 5.99 599 -0.570 -7.686 3.596 -14.923 26.032 7.446 641.882 3197.717 -2764.349 1.222 -1.752 -1.039 -0.12 -0.6 0.77 0.21
1 6.00 600 -1.121 -7.662 3.572 -13.702 26.581 5.707 641.882 3242.688 -2659.268 1.753 -1.782 -1.033 -0.12 -0.6 0.77 0.21
1 6.01 601 -1.446 -7.748 3.807 -11.719 25.696 2.869 641.882 3242.688 -2659.268 2.060 -1.702 -1.284 -0.12 -0.6 0.76 0.21
1 6.02 602 -1.302 -7.858 3.994 -10.864 24.170 -3.235 701.843 3107.625 -2719.378 1.895 -1.600 -1.497 -0.13 -0.6 0.76 0.21
1 6.03 603 -0.685 -7.805 4.018 -10.925 23.010 -7.599 791.934 3167.736 -2554.336 1.269 -1.655 -1.527 -0.13 -0.6 0.76 0.21
1 6.04 604 -0.498 -7.719 3.898 -11.658 22.583 -11.322 731.973 3152.596 -2674.258 1.087 -1.744 -1.420 -0.13 -0.6 0.76 0.22
1 6.05 605 -0.321 -7.925 3.793 -9.674 22.430 -13.580 731.973 3152.596 -2674.258 0.920 -1.541 -1.328 -0.13 -0.6 0.76 0.22
1 6.06 606 -0.330 -7.959 4.013 -8.087 22.675 -16.144 761.954 3077.645 -2719.378 0.943 -1.509 -1.558 -0.13 -0.6 0.76 0.22
1 6.07 607 -0.278 -7.935 3.955 -8.301 23.529 -19.074 761.954 3227.697 -2674.258 0.904 -1.533 -1.502 -0.13 -0.6 0.76 0.22
1 6.08 608 -0.259 -8.303 3.788 -9.277 24.353 -24.109 761.954 3227.697 -2674.258 0.898 -1.162 -1.330 -0.13 -0.6 0.76 0.22
1 6.09 609 -0.283 -8.691 3.596 -8.087 22.705 -23.407 671.862 3047.665 -2704.388 0.960 -0.770 -1.133 -0.13 -0.6 0.76 0.23
1 6.10 610 -0.139 -8.873 3.749 -3.632 20.630 -25.269 731.973 3077.645 -2599.307 0.836 -0.586 -1.284 -0.13 -0.6 0.76 0.23
1 6.11 611 -0.053 -9.232 3.644 -0.336 19.653 -25.665 716.833 3167.736 -2584.316 0.774 -0.223 -1.170 -0.13 -0.6 0.76 0.23
1 6.12 612 0.359 -9.563 3.793 2.686 19.714 -23.712 716.833 3167.736 -2584.316 0.387 0.113 -1.305 -0.13 -0.6 0.76 0.23
1 6.13 613 0.493 -9.917 3.635 1.373 18.372 -21.149 824.463 3364.108 -2632.135 0.277 0.474 -1.131 -0.13 -0.6 0.76 0.24
1 6.14 614 0.311 -10.214 3.529 1.282 14.069 -13.184 734.521 3259.177 -2647.125 0.479 0.776 -1.013 -0.13 -0.59 0.76 0.24
1 6.15 615 0.220 -10.554 3.630 0.458 10.101 -8.575 734.521 3259.177 -2647.125 0.585 1.119 -1.106 -0.13 -0.59 0.76 0.24
1 6.16 616 -0.144 -10.894 3.567 -0.732 4.517 -1.373 869.434 3199.066 -2707.086 0.966 1.462 -1.038 -0.14 -0.59 0.76 0.24
1 6.17 617 -0.283 -10.908 3.558 -0.488 3.143 0.610 824.463 3169.085 -2557.034 1.105 1.476 -1.028 -0.14 -0.59 0.76 0.24
1 6.18 618 -0.239 -11.014 3.314 2.350 1.312 7.050 914.554 3259.177 -2602.005 1.058 1.582 -0.782 -0.14 -0.59 0.76 0.24
1 6.19 619 0.053 -10.985 3.251 3.052 0.092 9.644 914.554 3259.177 -2602.005 0.755 1.554 -0.714 -0.14 -0.59 0.76 0.24
1 6.20 620 0.153 -10.602 3.151 3.204 -0.244 13.733 749.512 3019.183 -2632.135 0.640 1.171 -0.608 -0.14 -0.59 0.76 0.24
1 6.21 621 0.321 -10.396 3.232 5.554 0.824 16.846 794.482 3169.085 -2707.086 0.453 0.965 -0.683 -0.14 -0.59 0.76 0.24
1 6.22 622 0.192 -10.042 3.074 8.972 3.510 17.792 794.482 3169.085 -2707.086 0.559 0.611 -0.517 -0.14 -0.59 0.76 0.24
1 6.23 623 0.402 -9.754 2.931 10.040 5.432 17.487 809.473 3229.196 -2677.106 0.320 0.326 -0.358 -0.14 -0.59 0.76 0.24
1 6.24 624 0.441 -9.161 2.820 7.813 7.996 17.090 659.420 3034.173 -2647.125 0.224 -0.263 -0.212 -0.14 -0.59 0.76 0.24
1 6.25 625 0.445 -8.892 2.658 5.493 10.651 17.304 839.453 3109.125 -2752.057 0.191 -0.529 -0.035 -0.14 -0.59 0.76 0.24
1 6.26 626 0.426 -8.864 2.543 5.951 11.597 17.212 839.453 3109.125 -2752.057 0.182 -0.556 0.092 -0.14 -0.59 0.76 0.24
1 6.27 627 0.350 -8.768 2.423 5.798 12.512 17.731 869.434 3244.187 -2662.116 0.229 -0.650 0.224 -0.14 -0.59 0.76 0.24
1 6.28 628 0.268 -8.706 2.179 6.653 14.710 17.914 824.463 3199.066 -2587.015 0.280 -0.711 0.479 -0.15 -0.59 0.76 0.24
1 6.29 629 0.144 -8.715 2.179 8.118 15.472 15.747 824.463 3199.066 -2587.015 0.372 -0.700 0.490 -0.15 -0.58 0.76 0.24
1 6.30 630 0.034 -9.003 1.939 10.407 16.663 13.794 869.434 3169.085 -2707.086 0.452 -0.411 0.741 -0.15 -0.58 0.76 0.24
1 6.31 631 -0.244 -9.390 1.901 11.414 16.083 10.986 899.564 3199.066 -2587.015 0.672 -0.018 0.807 -0.15 -0.58 0.76 0.24
1 6.32 632 -0.460 -9.592 1.729 11.353 13.794 9.949 974.515 3094.134 -2737.067 0.862 0.186 0.993 -0.15 -0.58 0.76 0.24
1 6.33 633 -0.474 -9.615 1.772 10.925 10.132 8.118 974.515 3094.134 -2737.067 0.853 0.212 0.962 -0.15 -0.58 0.76 0.24
1 6.34 634 -0.359 -9.577 1.777 10.834 7.324 4.364 899.564 3124.115 -2737.067 0.718 0.176 0.967 -0.16 -0.58 0.76 0.24
1 6.35 635 -0.330 -9.702 1.666 11.871 4.303 2.045 914.554 3109.125 -2677.106 0.677 0.303 1.088 -0.16 -0.58 0.76 0.24
1 6.36 636 -0.278 -9.572 1.547 12.482 -0.183 2.838 914.554 3109.125 -2677.106 0.615 0.176 1.218 -0.16 -0.58 0.76 0.24
1 6.37 637 -0.215 -9.544 1.666 13.397 -3.143 2.380 914.554 3034.173 -2497.073 0.544 0.151 1.109 -0.16 -0.58 0.77 0.24
1 6.38 638 -0.105 -9.366 1.489 13.641 -10.468 2.899 839.453 2989.203 -2677.106 0.427 -0.020 1.310 -0.16 -0.58 0.77 0.24
1 6.39 639 -0.182 -9.352 1.633 13.092 -11.688 2.563 974.515 3169.085 -2707.086 0.502 -0.031 1.177 -0.16 -0.58 0.77 0.24
1 6.40 640 -0.436 -9.151 1.757 7.172 -17.883 1.465 974.515 3169.085 -2707.086 0.756 -0.230 1.059 -0.16 -0.58 0.77 0.23
1 6.41 641 -0.532 -9.046 1.676 1.678 -20.660 1.373 959.525 2989.203 -2722.077 0.853 -0.335 1.142 -0.15 -0.58 0.77 0.23
1 6.42 642 -0.488 -8.830 1.791 -3.387 -22.522 0.122 989.505 3079.144 -2752.057 0.813 -0.552 1.021 -0.15 -0.58 0.77 0.23
1 6.43 643 -0.254 -8.351 1.690 -11.139 -24.414 -2.991 989.505 3079.144 -2752.057 0.584 -1.034 1.110 -0.15 -0.58 0.77 0.23
1 6.44 644 -0.105 -8.548 1.231 -12.451 -23.956 -2.808 959.525 3034.173 -2722.077 0.450 -0.842 1.554 -0.15 -0.58 0.77 0.23
1 6.45 645 0.057 -8.658 1.049 -15.442 -28.534 -0.824 959.525 3034.173 -2722.077 0.304 -0.736 1.719 -0.15 -0.58 0.77 0.23
1 6.46 646 -0.460 -8.912 0.819 -15.198 -33.569 0.122 994.002 3078.994 -2830.606 0.849 -0.496 1.898 -0.15 -0.58 0.77 0.23
1 6.47 647 -0.498 -9.122 0.939 -14.587 -35.217 1.221 994.002 3078.994 -2830.606 0.899 -0.293 1.750 -0.14 -0.58 0.77 0.22
1 6.48 648 -0.541 -9.161 1.173 -16.235 -33.966 2.136 919.051 3078.994 -2725.674 0.949 -0.264 1.481 -0.14 -0.59 0.77 0.22
1 6.49 649 -0.397 -9.271 1.240 -17.212 -31.555 3.448 813.970 3108.975 -2830.606 0.810 -0.164 1.379 -0.14 -0.59 0.76 0.22
1 6.50 650 -0.350 -9.453 1.188 -18.585 -28.015 3.387 813.970 3108.975 -2830.606 0.764 0.009 1.397 -0.14 -0.59 0.76 0.22
1 6.51 651 0.177 -9.568 1.216 -19.501 -26.337 4.700 844.100 3033.874 -2575.622 0.238 0.113 1.331 -0.14 -0.59 0.76 0.22
1 6.52 652 0.225 -9.750 1.207 -18.921 -23.468 7.141 844.100 3033.874 -2575.622 0.191 0.285 1.302 -0.14 -0.59 0.76 0.22
1 6.53 653 0.283 -9.596 1.240 -9.979 -22.583 2.747 768.999 3078.994 -2800.625 0.131 0.114 1.199 -0.14 -0.6 0.76 0.21
1 6.54 654 0.192 -9.989 1.259 -3.571 -23.041 0.397 768.999 3078.994 -2800.625 0.229 0.502 1.160 -0.14 -0.6 0.76 0.21
1 6.55 655 -0.220 -9.965 1.140 -4.089 -24.933 1.556 904.061 3048.864 -2635.583 0.648 0.474 1.266 -0.14 -0.6 0.76 0.21
1 6.56 656 -0.326 -9.740 0.704 -3.326 -28.320 0.458 828.960 3018.883 -2560.632 0.758 0.246 1.685 -0.13 -0.6 0.76 0.21
1 6.57 657 -0.469 -9.745 0.555 1.801 -33.386 -4.974 828.960 3018.883 -2560.632 0.909 0.247 1.818 -0.13 -0.6 0.76 0.21
1 6.58 658 -0.584 -10.228 3.103 8.118 -40.894 -9.338 754.009 3123.965 -2635.583 1.040 0.729 -0.739 -0.13 -0.6 0.76 0.2
1 6.59 659 0.383 -12.407 5.727 15.289 -21.637 1.801 754.009 3123.965 -2635.583 0.095 2.908 -3.365 -0.13 -0.6 0.76 0.2
1 6.60 660 1.255 -13.049 5.507 31.891 9.949 22.766 754.009 3018.883 -2635.583 -0.791 3.561 -3.097 -0.13 -0.6 0.76 0.2
1 6.61 661 2.485 -12.972 5.933 41.016 15.656 22.461 754.009 3018.883 -2635.583 -2.058 3.497 -3.468 -0.13 -0.6 0.77 0.2
1 6.62 662 7.140 -12.987 5.014 9.522 33.722 40.405 679.058 3018.883 -2710.684 -6.759 3.523 -2.496 -0.13 -0.6 0.77 0.2
1 6.63 663 6.412 -13.418 3.175 -3.204 23.193 70.160 709.038 3108.975 -2575.622 -6.111 3.953 -0.650 -0.13 -0.59 0.77 0.2
1 6.64 664 2.682 -11.406 3.069 1.221 2.808 87.097 709.038 3108.975 -2575.622 -2.499 1.939 -0.543 -0.14 -0.59 0.77 0.2
1 6.65 665 -3.108 -9.807 3.558 -0.366 -10.284 44.403 739.019 3183.926 -2575.622 3.172 0.339 -1.031 -0.14 -0.59 0.77 0.19
1 6.66 666 -5.655 -9.659 3.098 3.357 -16.266 25.147 739.019 3183.926 -2575.622 5.648 0.191 -0.569 -0.14 -0.59 0.77 0.19
1 6.67 667 -6.407 -9.520 3.213 -4.608 -26.184 13.825 798.979 3168.936 -2590.612 6.364 0.053 -0.678 -0.14 -0.59 0.77 0.19
1 6.68 668 -4.678 -9.970 3.577 2.747 -31.983 -15.503 904.061 3123.965 -2635.583 4.639 0.502 -1.046 -0.14 -0.59 0.77 0.18
1 6.69 669 -2.691 -10.391 3.836 5.371 -34.546 -22.461 949.032 3018.883 -2815.616 2.691 0.926 -1.297 -0.14 -0.59 0.77 0.18
1 6.70 670 -1.044 -10.774 4.128 0.732 -35.309 -19.531 679.058 3123.965 -2665.563 1.091 1.311 -1.582 -0.14 -0.59 0.77 0.18
1 6.71 671 -0.474 -10.760 3.927 -5.920 -33.936 -14.923 679.058 3123.965 -2665.563 0.562 1.297 -1.382 -0.13 -0.59 0.77 0.18
1 6.72 672 -0.134 -9.850 4.018 -6.683 -36.438 -11.627 844.100 3033.874 -2680.704 0.257 0.385 -1.482 -0.13 -0.59 0.77 0.18
1 6.73 673 0.268 -9.046 3.975 -3.357 -39.398 -10.071 844.100 3033.874 -2680.704 -0.113 -0.422 -1.448 -0.13 -0.6 0.77 0.18
1 6.74 674 0.575 -8.045 4.113 -2.502 -41.504 -10.407 739.019 3033.874 -2755.655 -0.390 -1.421 -1.583 -0.13 -0.6 0.77 0.18
1 6.75 675 1.025 -7.231 4.008 -4.089 -38.666 -11.383 634.087 3258.877 -2650.573 -0.772 -2.231 -1.468 -0.12 -0.6 0.77 0.18
1 6.76 676 1.504 -6.848 3.807 1.282 -40.161 -7.477 664.067 3153.945 -2650.573 -1.219 -2.615 -1.272 -0.12 -0.6 0.77 0.17
1 6.77 677 1.973 -6.848 3.749 3.204 -37.750 -4.334 394.093 3123.965 -2740.665 -1.662 -2.613 -1.213 -0.11 -0.6 0.77 0.17
1 6.78 678 2.476 -6.522 3.615 2.014 -34.790 -3.204 396.042 3125.464 -2744.262 -2.144 -2.937 -1.074 -0.11 -0.6 0.77 0.17
1 6.79 679 2.433 -6.838 3.697 -0.702 -32.257 -2.136 546.094 3050.513 -2744.262 -2.082 -2.620 -1.154 -0.11 -0.6 0.78 0.17
1 6.80 680 2.275 -7.599 3.807 -4.028 -25.787 4.211 546.094 3050.513 -2744.262 -1.908 -1.858 -1.267 -0.11 -0.6 0.78 0.17
1 6.81 681 2.299 -8.059 3.687 -4.242 -21.240 3.265 561.084 3230.545 -2654.321 -1.924 -1.400 -1.152 -0.11 -0.6 0.78 0.17
1 6.82 682 2.255 -8.959 3.596 -4.822 -10.925 5.371 561.084 3230.545 -2609.350 -1.853 -0.498 -1.058 -0.1 -0.6 0.78 0.17
1 6.83 683 1.925 -9.261 3.596 -5.035 -7.965 7.568 606.055 3095.483 -2819.363 -1.513 -0.195 -1.055 -0.1 -0.6 0.78 0.17
1 6.84 684 1.619 -9.692 3.658 -6.226 -2.136 7.629 516.114 3185.425 -2684.301 -1.205 0.236 -1.117 -0.1 -0.6 0.78 0.17
1 6.85 685 1.245 -9.721 3.520 -7.874 1.373 5.646 516.114 3185.425 -2684.301 -0.831 0.265 -0.979 -0.1 -0.6 0.78 0.17
1 6.86 686 0.963 -9.429 3.462 -10.803 4.120 4.181 486.133 3155.444 -2684.301 -0.548 -0.028 -0.926 -0.1 -0.6 0.78 0.17
1 6.87 687 0.642 -9.175 3.318 -12.360 4.181 -0.427 486.133 3155.444 -2684.301 -0.228 -0.284 -0.790 -0.1 -0.6 0.78 0.17
1 6.88 688 0.747 -9.108 3.275 -10.986 4.913 -2.808 486.133 3230.545 -2729.272 -0.330 -0.354 -0.758 -0.1 -0.6 0.78 0.17
1 6.89 689 0.642 -9.137 3.295 -11.536 4.425 -5.280 471.143 3095.483 -2639.331 -0.221 -0.327 -0.785 -0.1 -0.6 0.77 0.17
1 6.90 690 0.608 -9.314 3.304 -10.132 4.028 -10.040 546.094 3095.483 -2714.282 -0.167 -0.154 -0.812 -0.1 -0.6 0.77 0.17
1 6.91 691 0.388 -9.261 3.079 -10.407 3.754 -11.231 501.124 3050.513 -2594.360 0.069 -0.208 -0.595 -0.1 -0.6 0.77 0.17
1 6.92 692 0.292 -9.343 3.084 -11.322 0.610 -13.214 501.124 3050.513 -2594.360 0.181 -0.128 -0.609 -0.1 -0.6 0.77 0.17
1 6.93 693 0.388 -9.405 3.117 -10.284 -1.495 -15.411 606.055 3245.536 -2639.331 0.106 -0.067 -0.653 -0.1 -0.6 0.77 0.17
1 6.94 694 0.330 -9.252 3.117 -9.705 -2.167 -15.015 606.055 3245.536 -2639.331 0.187 -0.222 -0.661 -0.1 -0.6 0.77 0.17
1 6.95 695 0.704 -9.218 3.247 -7.904 -1.923 -14.160 516.114 3230.545 -2579.220 -0.164 -0.256 -0.798 -0.1 -0.6 0.77 0.17
1 6.96 696 0.575 -9.122 3.266 -5.615 -1.617 -12.878 441.013 3080.493 -2684.301 -0.012 -0.352 -0.822 -0.1 -0.6 0.77 0.17
1 6.97 697 0.943 -9.046 3.386 -4.639 -0.183 -11.749 501.124 3200.565 -2669.311 -0.339 -0.426 -0.942 -0.1 -0.6 0.77 0.17
1 6.98 698 0.924 -9.189 3.247 -3.204 1.648 -9.766 426.022 3095.483 -2594.360 -0.301 -0.280 -0.801 -0.1 -0.6 0.77 0.18
1 6.99 699 1.087 -9.031 3.113 -1.678 1.404 -8.331 426.022 3095.483 -2594.360 -0.447 -0.436 -0.663 -0.1 -0.6 0.77 0.18
1 7.00 700 1.226 -8.959 3.046 -2.045 1.068 -7.660 576.075 3290.506 -2669.311 -0.569 -0.506 -0.591 -0.1 -0.6 0.77 0.18
1 7.01 701 1.504 -9.113 2.983 -2.441 1.556 -7.263 576.075 3290.506 -2669.311 -0.831 -0.350 -0.526 -0.09 -0.6 0.77 0.18
1 7.02 702 1.417 -9.204 2.667 -3.906 2.197 -5.585 321.091 3245.536 -2714.282 -0.729 -0.258 -0.207 -0.09 -0.6 0.77 0.18
1 7.03 703 1.484 -9.247 2.552 -3.998 2.533 -3.937 516.114 3185.425 -2579.220 -0.781 -0.213 -0.093 -0.09 -0.6 0.77 0.18
1 7.04 704 1.231 -9.347 2.389 -2.716 2.380 -2.319 441.013 3230.545 -2474.288 -0.505 -0.113 0.065 -0.09 -0.61 0.77 0.18
1 7.05 705 1.140 -9.477 2.212 -1.892 2.625 -3.326 546.094 3245.536 -2594.360 -0.405 0.017 0.240 -0.09 -0.61 0.77 0.18
1 7.06 706 1.097 -9.582 2.313 -0.122 3.937 -2.869 546.094 3245.536 -2594.360 -0.353 0.123 0.139 -0.09 -0.61 0.77 0.18
1 7.07 707 1.197 -9.754 2.251 0.702 4.578 -2.960 666.016 3185.425 -2549.239 -0.448 0.296 0.202 -0.09 -0.61 0.77 0.18
1 7.08 708 1.154 -9.663 2.131 1.007 4.822 -2.930 666.016 3185.425 -2549.239 -0.399 0.206 0.322 -0.09 -0.61 0.77 0.18
1 7.09 709 1.039 -9.534 2.265 -0.336 6.317 -0.458 516.114 3380.448 -2549.239 -0.278 0.077 0.189 -0.09 -0.6 0.77 0.18
1 7.10 710 1.077 -9.467 2.208 -0.427 6.561 -0.153 366.062 3305.497 -2504.269 -0.314 0.010 0.246 -0.09 -0.6 0.77 0.18
1 7.11 711 0.934 -9.347 2.231 -0.793 8.240 0.549 366.062 3305.497 -2504.269 -0.169 -0.110 0.222 -0.09 -0.6 0.77 0.18
1 7.12 712 1.331 -9.314 2.208 -0.336 11.658 0.397 516.114 3155.444 -2654.321 -0.568 -0.143 0.246 -0.1 -0.6 0.77 0.19
1 7.13 713 1.437 -9.223 2.150 0.732 14.374 1.190 516.114 3155.444 -2654.321 -0.674 -0.234 0.304 -0.1 -0.6 0.77 0.19
1 7.14 714 1.441 -9.175 2.217 -0.732 17.578 1.129 501.124 3170.435 -2639.331 -0.680 -0.282 0.239 -0.1 -0.6 0.77 0.19
1 7.15 715 1.537 -9.055 2.073 -2.930 19.714 0.336 501.124 3170.435 -2639.331 -0.779 -0.402 0.382 -0.1 -0.6 0.77 0.19
1 7.16 716 1.710 -9.050 1.973 -6.042 23.163 -0.549 396.042 3095.483 -2639.331 -0.952 -0.408 0.479 -0.1 -0.6 0.77 0.19
1 7.17 717 1.810 -8.950 1.882 -9.247 24.597 -0.946 501.124 3125.464 -2714.282 -1.054 -0.510 0.564 -0.1 -0.6 0.77 0.19
1 7.18 718 1.705 -8.916 1.772 -12.787 25.024 -1.740 501.124 3125.464 -2714.282 -0.947 -0.546 0.663 -0.1 -0.6 0.77 0.19
1 7.19 719 1.590 -9.050 1.729 -17.181 26.154 -0.824 546.094 3290.506 -2714.282 -0.827 -0.421 0.669 -0.1 -0.61 0.76 0.19
1 7.20 720 1.326 -9.137 1.604 -19.074 26.001 -0.153 546.094 3290.506 -2714.282 -0.563 -0.341 0.768 -0.1 -0.61 0.76 0.2
1 7.21 721 1.063 -9.309 1.786 -20.447 24.170 -0.549 636.036 3305.497 -2504.269 -0.302 -0.176 0.558 -0.11 -0.61 0.76 0.2
1 7.22 722 1.116 -9.261 1.839 -13.336 28.809 1.770 636.036 3305.497 -2504.269 -0.359 -0.231 0.478 -0.11 -0.61 0.76 0.2
1 7.23 723 1.283 -9.156 1.686 -16.388 26.611 0.305 666.016 3335.477 -2474.288 -0.535 -0.341 0.614 -0.11 -0.61 0.76 0.2
1 7.24 724 1.231 -9.467 1.805 -21.607 25.238 -0.061 471.143 3290.506 -2639.331 -0.486 -0.037 0.467 -0.11 -0.61 0.76 0.2
1 7.25 725 1.068 -9.395 1.891 -14.618 24.902 0.061 471.143 3290.506 -2639.331 -0.326 -0.116 0.349 -0.11 -0.61 0.76 0.2
1 7.26 726 1.422 -9.740 2.174 -9.277 25.543 -0.885 591.065 3335.477 -2549.239 -0.687 0.219 0.029 -0.12 -0.61 0.76 0.21
1 7.27 727 1.331 -9.783 2.121 -7.843 26.032 -0.519 591.065 3335.477 -2549.239 -0.598 0.260 0.073 -0.12 -0.61 0.75 0.21
1 7.28 728 1.413 -10.319 1.844 -2.319 25.330 -0.977 561.084 3380.448 -2549.239 -0.681 0.795 0.346 -0.12 -0.61 0.75 0.21
1 7.29 729 1.446 -10.530 1.686 -0.641 24.597 -0.244 561.084 3380.448 -2549.239 -0.716 1.005 0.501 -0.12 -0.61 0.75 0.21
1 7.30 730 1.571 -10.626 1.370 -0.305 23.010 -0.824 651.026 3440.559 -2519.259 -0.842 1.100 0.815 -0.12 -0.61 0.75 0.21
1 7.31 731 1.599 -10.904 1.269 -1.709 22.492 3.296 756.107 3395.438 -2639.331 -0.874 1.378 0.915 -0.12 -0.61 0.75 0.21
1 7.32 732 1.192 -11.038 1.154 -1.740 22.675 5.493 756.107 3395.438 -2639.331 -0.476 1.511 1.032 -0.12 -0.61 0.75 0.21
1 7.33 733 0.905 -11.430 1.944 0.183 20.081 3.235 636.036 3380.448 -2474.288 -0.203 1.903 0.243 -0.13 -0.61 0.75 0.21
1 7.34 734 0.828 -12.771 2.715 4.395 11.169 -8.301 771.098 3455.549 -2654.321 -0.138 3.246 -0.517 -0.13 -0.61 0.75 0.22
1 7.35 735 0.512 -12.647 2.490 3.540 10.986 -12.268 651.026 3440.559 -2489.278 0.191 3.124 -0.284 -0.13 -0.61 0.75 0.22
1 7.36 736 -0.134 -12.038 2.854 1.373 8.637 -10.254 651.026 3440.559 -2489.278 0.852 2.519 -0.640 -0.13 -0.61 0.75 0.22
1 7.37 737 -0.125 -11.167 2.437 -5.432 5.341 -10.132 576.075 3365.458 -2594.360 0.856 1.649 -0.223 -0.13 -0.61 0.75 0.22
1 7.38 738 0.627 -10.722 2.179 0.763 5.493 -11.078 741.117 3185.425 -2504.269 0.119 1.203 0.031 -0.13 -0.61 0.75 0.22
1 7.39 739 1.619 -10.659 2.806 12.512 7.202 -10.681 741.117 3185.425 -2504.269 -0.857 1.144 -0.589 -0.13 -0.61 0.75 0.22
1 7.40 740 2.246 -10.779 3.041 13.214 6.409 -11.353 711.137 3380.448 -2549.239 -1.470 1.269 -0.805 -0.13 -0.61 0.75 0.22
1 7.41 741 2.677 -10.889 3.141 5.371 10.040 -7.294 711.137 3410.428 -2549.239 -1.872 1.391 -0.866 -0.13 -0.61 0.75 0.23
1 7.42 742 1.939 -10.722 2.878 -1.373 12.787 -0.916 726.127 3365.458 -2489.278 -1.128 1.226 -0.595 -0.13 -0.61 0.75 0.23
1 7.43 743 1.561 -10.482 2.586 -5.829 14.771 4.242 726.127 3365.458 -2489.278 -0.754 0.986 -0.304 -0.13 -0.61 0.75 0.23
1 7.44 744 1.379 -9.869 2.255 -3.998 15.350 8.545 803.177 3442.058 -2641.729 -0.585 0.371 0.021 -0.13 -0.61 0.75 0.23
1 7.45 745 1.274 -9.381 2.303 -1.801 17.944 8.698 848.147 3382.097 -2656.719 -0.493 -0.120 -0.030 -0.13 -0.61 0.75 0.23
1 7.46 746 1.283 -9.122 2.313 -4.913 23.468 6.073 848.147 3382.097 -2656.719 -0.516 -0.379 -0.039 -0.13 -0.61 0.75 0.23
1 7.47 747 1.221 -8.686 2.404 -4.456 24.017 6.470 758.206 3367.106 -2566.778 -0.466 -0.816 -0.131 -0.13 -0.61 0.75 0.23
1 7.48 748 0.670 -8.428 2.729 -7.019 22.980 4.211 683.105 3397.087 -2596.758 0.061 -1.077 -0.459 -0.14 -0.6 0.75 0.23
1 7.49 749 0.412 -8.380 2.591 -7.996 22.583 2.930 878.128 3292.005 -2596.758 0.308 -1.127 -0.323 -0.14 -0.6 0.75 0.23
1 7.50 750 0.139 -8.198 2.777 -7.416 20.599 1.587 878.128 3292.005 -2596.758 0.571 -1.311 -0.518 -0.14 -0.6 0.75 0.23
1 7.51 751 -0.043 -8.030 2.907 -7.629 18.646 1.678 953.079 3247.035 -2596.758 0.745 -1.481 -0.654 -0.14 -0.6 0.75 0.23
1 7.52 752 -0.297 -8.131 3.261 -9.033 18.372 3.754 773.196 3337.126 -2656.719 0.991 -1.383 -1.017 -0.14 -0.6 0.75 0.24
1 7.53 753 -0.843 -8.236 3.390 -8.423 17.578 7.538 773.196 3337.126 -2656.719 1.525 -1.281 -1.157 -0.14 -0.6 0.75 0.24
1 7.54 754 -0.996 -8.208 3.338 -6.592 15.686 9.399 878.128 3247.035 -2566.778 1.658 -1.313 -1.109 -0.15 -0.6 0.75 0.24
1 7.55 755 -1.044 -8.265 3.505 -3.876 15.289 11.353 878.128 3367.106 -2596.758 1.683 -1.257 -1.279 -0.15 -0.6 0.75 0.24
1 7.56 756 -0.795 -8.303 3.591 -1.709 16.510 12.268 758.206 3247.035 -2566.778 1.370 -1.219 -1.348 -0.15 -0.6 0.75 0.24
1 7.57 757 -0.474 -8.093 3.606 0.122 16.205 8.881 758.206 3247.035 -2566.778 1.017 -1.429 -1.350 -0.15 -0.6 0.75 0.24
1 7.58 758 -0.254 -7.997 3.553 1.862 17.120 4.303 923.099 3306.996 -2431.716 0.773 -1.522 -1.282 -0.15 -0.6 0.75 0.24
1 7.59 759 -0.101 -8.107 3.740 1.526 20.416 -3.082 818.167 3262.025 -2581.768 0.613 -1.411 -1.463 -0.16 -0.6 0.75 0.24
1 7.60 760 0.091 -8.088 3.687 0.061 20.172 -10.712 818.167 3262.025 -2581.768 0.420 -1.428 -1.399 -0.16 -0.6 0.75 0.24
1 7.61 761 0.134 -8.433 3.539 -1.709 19.196 -12.482 893.118 3382.097 -2506.667 0.383 -1.080 -1.240 -0.16 -0.6 0.75 0.24
1 7.62 762 0.144 -8.710 3.505 -4.395 16.815 -15.869 818.167 3457.048 -2551.788 0.384 -0.798 -1.193 -0.16 -0.6 0.75 0.24
1 7.63 763 0.134 -9.438 3.266 -5.432 11.536 -16.449 893.118 3337.126 -2656.719 0.423 -0.066 -0.943 -0.16 -0.6 0.75 0.25
1 7.64 764 0.187 -10.013 3.022 -7.050 6.195 -16.419 893.118 3337.126 -2656.719 0.389 0.510 -0.698 -0.16 -0.6 0.75 0.25
1 7.65 765 0.134 -10.386 3.160 -8.484 3.632 -13.947 848.147 3412.077 -2551.788 0.461 0.883 -0.841 -0.16 -0.6 0.75 0.25
1 7.66 766 -0.072 -10.688 2.950 -9.155 1.617 -8.942 953.079 3292.005 -2596.758 0.684 1.184 -0.640 -0.16 -0.6 0.75 0.25
1 7.67 767 -0.144 -10.827 2.988 -6.714 -2.533 -0.397 953.079 3292.005 -2596.758 0.767 1.321 -0.690 -0.16 -0.6 0.75 0.25
1 7.68 768 0.000 -10.693 2.964 -5.981 -4.028 4.852 758.206 3472.038 -2716.680 0.628 1.185 -0.675 -0.16 -0.6 0.74 0.25
1 7.69 769 -0.057 -10.635 2.926 -5.737 -4.639 11.139 968.069 3412.077 -2551.788 0.683 1.125 -0.644 -0.16 -0.6 0.74 0.25
1 7.70 770 -0.397 -10.233 2.931 -5.402 -7.202 18.066 878.128 3321.986 -2491.677 0.990 0.718 -0.662 -0.16 -0.6 0.74 0.25
1 7.71 771 -0.311 -10.286 2.969 -5.280 -7.629 19.074 878.128 3321.986 -2491.677 0.873 0.768 -0.704 -0.16 -0.6 0.75 0.24
1 7.72 772 -0.589 -10.094 2.883 -6.317 -7.324 23.071 998.200 3457.048 -2506.667 1.117 0.573 -0.622 -0.16 -0.6 0.75 0.24
1 7.73 773 -0.402 -9.769 2.734 -7.080 -7.355 25.269 878.128 3472.038 -2491.677 0.891 0.244 -0.478 -0.16 -0.6 0.75 0.24
1 7.74 774 -0.273 -9.869 2.629 -7.751 -5.676 26.978 878.128 3472.038 -2491.677 0.721 0.341 -0.380 -0.16 -0.6 0.75 0.24
1 7.75 775 -0.196 -9.433 2.615 -6.622 -2.441 27.100 923.099 3382.097 -2401.735 0.602 -0.098 -0.373 -0.16 -0.6 0.75 0.24
1 7.76 776 -0.235 -9.338 2.571 -6.775 -0.397 27.069 893.118 3306.996 -2611.749 0.599 -0.197 -0.335 -0.16 -0.6 0.75 0.24
1 7.77 777 -0.460 -9.175 2.591 -7.111 0.946 24.841 893.118 3306.996 -2611.749 0.782 -0.362 -0.359 -0.17 -0.6 0.75 0.23
1 7.78 778 -0.254 -8.979 2.404 -6.989 -0.641 22.736 968.069 3457.048 -2551.788 0.497 -0.564 -0.185 -0.17 -0.6 0.75 0.23
1 7.79 779 -0.388 -8.955 2.351 -6.836 0.061 22.217 893.118 3337.126 -2476.687 0.595 -0.590 -0.139 -0.17 -0.6 0.75 0.23
1 7.80 780 -0.512 -8.825 2.366 -6.226 -0.519 21.393 953.079 3442.058 -2596.758 0.685 -0.722 -0.160 -0.17 -0.6 0.75 0.23
1 7.81 781 -0.694 -8.873 2.260 -4.669 -0.824 18.677 953.079 3442.058 -2596.758 0.833 -0.675 -0.059 -0.17 -0.6 0.75 0.23
1 7.82 782 -0.857 -8.868 2.102 -3.235 -1.648 17.395 848.147 3531.999 -2476.687 0.965 -0.681 0.096 -0.17 -0.6 0.75 0.23
1 7.83 783 -0.900 -8.950 2.150 -3.174 -3.082 13.123 953.079 3517.009 -2521.807 0.980 -0.601 0.046 -0.17 -0.6 0.75 0.22
1 7.84 784 -1.039 -9.022 1.978 -4.700 -4.578 10.712 953.079 3517.009 -2521.807 1.094 -0.530 0.215 -0.17 -0.6 0.75 0.22
1 7.85 785 -0.919 -8.993 1.767 -6.042 -7.507 7.111 1058.161 3472.038 -2521.807 0.935 -0.561 0.413 -0.18 -0.6 0.75 0.22
1 7.86 786 -0.723 -9.208 1.877 -5.005 -9.644 5.768 1073.151 3607.100 -2371.755 0.726 -0.348 0.294 -0.18 -0.6 0.75 0.22
1 7.87 787 -0.565 -9.266 1.777 -1.862 -10.529 4.211 1058.161 3397.087 -2491.677 0.558 -0.292 0.388 -0.18 -0.6 0.75 0.22
1 7.88 788 -0.263 -9.304 1.801 1.099 -11.475 2.289 1058.161 3397.087 -2491.677 0.251 -0.254 0.361 -0.18 -0.6 0.75 0.22
1 7.89 789 0.024 -9.433 1.944 1.190 -11.505 0.397 983.060 3517.009 -2461.696 -0.037 -0.125 0.218 -0.17 -0.6 0.75 0.22
1 7.90 790 0.024 -9.663 1.997 -0.031 -12.756 -0.427 983.060 3517.009 -2491.677 -0.032 0.105 0.167 -0.17 -0.6 0.75 0.22
1 7.91 791 -0.129 -9.615 1.997 1.007 -14.191 -3.082 983.060 3517.009 -2491.677 0.126 0.057 0.166 -0.17 -0.6 0.75 0.22
1 7.92 792 -0.048 -9.563 1.982 0.854 -15.076 -5.310 1013.190 3517.009 -2491.677 0.066 0.005 0.183 -0.17 -0.6 0.75 0.22
1 7.93 793 0.091 -9.726 1.872 1.129 -15.015 -6.104 1043.170 3457.048 -2581.768 -0.058 0.168 0.295 -0.17 -0.6 0.75 0.22
1 7.94 794 -0.029 -9.678 1.944 0.916 -16.632 -6.195 848.147 3337.126 -2431.716 0.077 0.120 0.223 -0.17 -0.6 0.75 0.22
1 7.95 795 0.072 -9.606 1.824 -0.641 -17.120 -6.744 848.147 3337.126 -2431.716 -0.008 0.049 0.342 -0.17 -0.6 0.75 0.21
1 7.96 796 -0.005 -9.429 1.824 -0.916 -18.311 -6.165 1043.170 3502.019 -2581.768 0.086 -0.129 0.340 -0.17 -0.6 0.75 0.21
1 7.97 797 -0.163 -9.410 1.824 -1.068 -19.043 -3.876 848.147 3502.019 -2581.768 0.259 -0.149 0.337 -0.16 -0.6 0.75 0.21
1 7.98 798 -0.369 -9.577 1.805 -0.519 -18.341 -2.411 848.147 3502.019 -2581.768 0.478 0.018 0.352 -0.16 -0.6 0.75 0.21
1 7.99 799 -0.302 -9.659 1.868 0.336 -17.426 -1.495 1013.190 3472.038 -2521.807 0.420 0.099 0.287 -0.16 -0.6 0.75 0.21
1 8.00 800 -0.378 -9.668 1.863 1.373 -15.533 -0.732 833.157 3592.110 -2521.807 0.505 0.109 0.292 -0.16 -0.6 0.75 0.21
1 8.01 801 -0.450 -9.817 1.872 3.021 -14.679 -0.793 923.099 3382.097 -2581.768 0.580 0.258 0.284 -0.16 -0.6 0.75 0.21
1 8.02 802 -0.283 -9.754 2.083 3.265 -14.435 -0.854 923.099 3382.097 -2581.768 0.416 0.196 0.077 -0.16 -0.6 0.75 0.21
1 8.03 803 -0.168 -9.802 2.073 3.876 -14.771 -0.122 908.108 3472.038 -2566.778 0.305 0.245 0.091 -0.16 -0.6 0.75 0.21
1 8.04 804 -0.268 -9.735 2.088 4.150 -14.832 1.556 953.079 3367.106 -2521.807 0.409 0.179 0.081 -0.16 -0.6 0.75 0.21
1 8.05 805 -0.105 -9.864 2.117 5.249 -14.954 1.190 953.079 3367.106 -2521.807 0.247 0.310 0.058 -0.16 -0.6 0.75 0.21
1 8.06 806 0.096 -9.773 2.188 5.798 -13.916 1.312 953.079 3592.110 -2566.778 0.047 0.220 -0.007 -0.16 -0.6 0.75 0.21
1 8.07 807 0.057 -9.520 2.260 8.087 -12.909 2.808 848.147 3457.048 -2506.667 0.091 -0.029 -0.060 -0.15 -0.6 0.75 0.21
1 8.08 808 0.172 -9.314 2.318 9.125 -12.482 3.326 773.196 3531.999 -2506.667 -0.022 -0.232 -0.104 -0.15 -0.6 0.76 0.2
1 8.09 809 0.215 -9.448 2.246 10.468 -11.932 3.418 773.196 3531.999 -2506.667 -0.064 -0.094 -0.017 -0.15 -0.6 0.76 0.2
1 8.10 810 0.206 -9.304 2.073 9.277 -11.902 3.418 968.069 3502.019 -2581.768 -0.054 -0.234 0.173 -0.15 -0.6 0.76 0.2
1 8.11 811 0.043 -9.137 1.791 9.369 -13.855 2.502 758.206 3622.090 -2596.758 0.110 -0.398 0.470 -0.15 -0.6 0.76 0.2
1 8.12 812 -0.364 -9.228 1.403 8.514 -20.966 1.495 758.206 3622.090 -2596.758 0.519 -0.304 0.869 -0.15 -0.6 0.76 0.2
1 8.13 813 -0.675 -9.170 1.312 6.134 -25.299 0.061 773.196 3457.048 -2611.749 0.833 -0.359 0.970 -0.15 -0.6 0.76 0.2
1 8.14 814 -0.781 -9.496 1.030 2.136 -28.259 0.549 893.118 3531.999 -2551.788 0.948 -0.033 1.256 -0.15 -0.6 0.76 0.2
1 8.15 815 -0.670 -9.740 0.867 2.411 -30.609 1.099 878.128 3517.009 -2671.709 0.842 0.211 1.414 -0.15 -0.6 0.76 0.2
1 8.16 816 -0.527 -9.884 0.536 6.775 -36.286 3.662 878.128 3517.009 -2671.709 0.702 0.354 1.742 -0.14 -0.6 0.76 0.2
1 8.17 817 -0.570 -10.027 0.632 8.453 -37.781 6.744 818.167 3531.999 -2506.667 0.747 0.497 1.645 -0.14 -0.6 0.76 0.19
1 8.18 818 -0.752 -9.951 0.704 9.674 -41.077 9.216 803.177 3546.989 -2641.729 0.927 0.421 1.574 -0.14 -0.6 0.76 0.19
1 8.19 819 -0.713 -9.922 0.752 10.254 -48.035 11.322 803.177 3546.989 -2641.729 0.885 0.392 1.527 -0.14 -0.6 0.76 0.19
1 8.20 820 -0.402 -10.430 2.002 11.444 -47.241 14.832 818.167 3457.048 -2551.788 0.568 0.900 0.279 -0.14 -0.6 0.76 0.19
1 8.21 821 0.029 -11.114 2.878 11.810 -34.668 23.834 818.167 3457.048 -2551.788 0.129 1.586 -0.591 -0.13 -0.6 0.76 0.18
1 8.22 822 0.848 -12.642 3.960 29.327 -12.695 39.765 683.105 3442.058 -2566.778 -0.745 3.124 -1.630 -0.13 -0.6 0.77 0.18
1 8.23 823 2.447 -12.843 4.252 33.356 1.099 47.028 683.105 3442.058 -2566.778 -2.402 3.336 -1.875 -0.13 -0.6 0.77 0.17
1 8.24 824 4.046 -12.900 3.860 19.531 13.886 53.986 668.115 3457.048 -2731.670 -4.073 3.405 -1.436 -0.14 -0.6 0.77 0.17
1 8.25 825 4.343 -12.853 3.366 1.892 19.714 58.624 743.066 3412.077 -2551.788 -4.454 3.363 -0.921 -0.14 -0.6 0.77 0.17
1 8.26 826 2.677 -12.508 3.137 3.632 13.336 66.620 743.066 3412.077 -2551.788 -2.883 3.021 -0.688 -0.14 -0.6 0.77 0.17
1 8.27 827 -0.986 -10.971 2.571 7.660 10.986 38.117 758.206 3292.005 -2821.762 0.683 1.488 -0.115 -0.15 -0.59 0.77 0.16
1 8.28 828 -2.471 -10.655 2.050 1.190 -6.409 19.653 758.206 3292.005 -2821.762 2.100 1.178 0.418 -0.15 -0.59 0.77 0.16
1 8.29 829 -2.643 -10.406 2.538 -11.414 -26.337 -0.824 773.196 3502.019 -2836.752 2.231 0.929 -0.076 -0.15 -0.59 0.77 0.16
1 8.30 830 -2.715 -10.243 2.447 -5.096 -29.022 -10.956 773.196 3502.019 -2836.752 2.320 0.762 0.003 -0.15 -0.59 0.77 0.16
1 8.31 831 -2.768 -10.152 2.653 7.996 -40.619 -16.754 923.099 3502.019 -2686.700 2.405 0.670 -0.202 -0.14 -0.6 0.78 0.16
1 8.32 832 -2.231 -9.491 2.902 8.667 -41.840 -20.538 848.147 3232.044 -2581.768 1.911 0.012 -0.435 -0.14 -0.6 0.78 0.16
1 8.33 833 -1.700 -9.036 3.328 6.622 -42.664 -20.599 848.147 3232.044 -2581.768 1.411 -0.439 -0.844 -0.14 -0.6 0.78 0.15
1 8.34 834 -1.178 -8.361 3.491 4.547 -44.769 -13.428 803.177 3397.087 -2671.709 0.924 -1.111 -0.990 -0.13 -0.6 0.78 0.15
1 8.35 835 -0.895 -7.638 3.764 4.822 -39.887 -9.674 803.177 3397.087 -2671.709 0.672 -1.831 -1.247 -0.13 -0.6 0.78 0.15
1 8.36 836 -0.608 -6.728 3.745 -1.831 -28.198 -7.446 638.134 3412.077 -2806.771 0.440 -2.737 -1.209 -0.13 -0.6 0.78 0.15
1 8.37 837 -0.393 -6.733 3.649 -0.519 -26.123 -6.958 638.134 3412.077 -2806.771 0.246 -2.732 -1.113 -0.12 -0.6 0.78 0.15
1 8.38 838 0.364 -6.249 3.831 8.514 -22.919 -7.935 653.125 3472.038 -2596.758 -0.488 -3.214 -1.288 -0.12 -0.6 0.78 0.15
1 8.39 839 0.833 -6.431 4.032 15.961 -16.754 -8.606 548.193 3442.058 -2776.791 -0.936 -3.028 -1.472 -0.12 -0.6 0.78 0.15
1 8.40 840 1.178 -6.915 3.994 15.106 -18.860 -8.301 548.193 3442.058 -2776.791 -1.261 -2.538 -1.408 -0.12 -0.6 0.78 0.15
1 8.41 841 1.810 -7.647 4.267 14.923 -19.898 -6.775 653.125 3292.005 -2671.709 -1.872 -1.799 -1.658 -0.12 -0.59 0.78 0.15
1 8.42 842 1.762 -8.212 4.295 16.846 -18.463 -2.380 653.125 3292.005 -2671.709 -1.803 -1.228 -1.664 -0.11 -0.59 0.78 0.15
1 8.43 843 1.911 -8.557 4.152 13.214 -18.585 3.601 518.062 3382.097 -2731.670 -1.924 -0.872 -1.481 -0.11 -0.59 0.78 0.15
1 8.44 844 1.437 -8.768 3.931 1.709 -23.651 13.794 518.062 3457.048 -2686.700 -1.419 -0.644 -1.203 -0.11 -0.59 0.79 0.15
1 8.45 845 1.101 -9.237 3.927 -2.594 -24.994 15.137 653.125 3292.005 -2851.742 -1.082 -0.172 -1.186 -0.11 -0.59 0.79 0.14
1 8.46 846 0.378 -9.544 3.951 -3.632 -23.804 15.411 653.125 3397.087 -2566.778 -0.361 0.136 -1.205 -0.11 -0.59 0.79 0.14
1 8.47 847 -0.302 -10.090 3.682 -7.019 -21.668 16.113 653.125 3397.087 -2566.778 0.312 0.683 -0.933 -0.11 -0.59 0.79 0.14
1 8.48 848 -1.432 -10.367 3.113 -12.360 -19.135 14.496 473.092 3472.038 -2746.661 1.428 0.960 -0.367 -0.1 -0.59 0.79 0.14
1 8.49 849 -1.719 -10.377 2.892 -11.353 -19.318 10.407 473.092 3472.038 -2746.661 1.703 0.965 -0.162 -0.1 -0.59 0.79 0.14
1 8.50 850 -1.575 -10.190 2.926 -10.376 -18.860 7.324 503.072 3397.087 -2671.709 1.552 0.774 -0.211 -0.1 -0.59 0.79 0.14
1 8.51 851 -0.781 -10.113 2.801 -8.850 -19.592 1.770 578.173 3472.038 -2821.762 0.740 0.689 -0.115 -0.1 -0.59 0.79 0.13
1 8.52 852 0.024 -10.257 2.993 -6.653 -19.470 -3.448 443.111 3337.126 -2761.801 -0.063 0.830 -0.317 -0.1 -0.59 0.79 0.13
1 8.53 853 0.852 -10.391 3.022 -5.951 -16.205 -6.226 578.173 3517.009 -2671.709 -0.876 0.961 -0.354 -0.1 -0.59 0.79 0.13
1 8.54 854 1.235 -10.185 3.055 -4.791 -11.047 -7.538 578.173 3517.009 -2671.709 -1.241 0.754 -0.394 -0.1 -0.6 0.79 0.13
1 8.55 855 1.413 -9.994 3.060 -4.211 -7.507 -8.514 473.092 3397.087 -2716.680 -1.391 0.561 -0.404 -0.1 -0.6 0.79 0.13
1 8.56 856 1.676 -9.534 3.165 -2.777 -3.845 -9.888 473.092 3397.087 -2716.680 -1.628 0.100 -0.513 -0.1 -0.6 0.79 0.13
1 8.57 857 1.772 -8.959 3.165 -2.380 -2.167 -11.292 548.193 3442.058 -2746.661 -1.695 -0.475 -0.514 -0.1 -0.6 0.79 0.13
1 8.58 858 1.681 -8.907 3.175 -2.228 -0.580 -16.785 488.082 3531.999 -2686.700 -1.540 -0.526 -0.520 -0.09 -0.6 0.79 0.13
1 8.59 859 1.518 -8.691 3.137 -1.740 0.885 -17.334 503.072 3442.058 -2671.709 -1.339 -0.740 -0.479 -0.09 -0.6 0.79 0.14
1 8.60 860 1.518 -8.715 2.926 -0.580 0.977 -17.334 548.193 3517.009 -2746.661 -1.304 -0.714 -0.264 -0.09 -0.6 0.79 0.14
1 8.61 861 1.336 -8.787 2.720 -0.397 1.892 -16.419 548.193 3517.009 -2746.661 -1.086 -0.640 -0.054 -0.09 -0.6 0.79 0.14
1 8.62 862 1.125 -9.003 2.605 -1.099 1.953 -16.174 578.173 3472.038 -2746.661 -0.843 -0.423 0.063 -0.09 -0.6 0.79 0.14
1 8.63 863 1.006 -9.204 2.538 -1.099 4.242 -12.482 578.173 3472.038 -2746.661 -0.692 -0.221 0.130 -0.09 -0.6 0.78 0.14
1 8.64 864 0.977 -9.218 2.437 -1.465 4.669 -8.667 608.154 3442.058 -2776.791 -0.638 -0.206 0.231 -0.09 -0.6 0.78 0.14
1 8.65 865 1.255 -9.050 2.342 -1.068 5.981 -7.996 503.072 3397.087 -2671.709 -0.897 -0.373 0.325 -0.09 -0.6 0.78 0.14
1 8.66 866 1.159 -9.266 2.447 -0.885 10.284 -5.371 399.040 3444.006 -2824.160 -0.770 -0.157 0.217 -0.09 -0.6 0.78 0.15
1 8.67 867 1.149 -9.304 2.595 -0.336 10.071 -4.456 518.962 3533.948 -2764.199 -0.750 -0.118 0.068 -0.09 -0.6 0.78 0.15
1 8.68 868 1.116 -9.319 2.500 0.702 10.559 -4.028 518.962 3533.948 -2764.199 -0.708 -0.103 0.165 -0.09 -0.6 0.78 0.15
1 8.69 869 1.178 -9.448 2.452 0.732 11.200 -1.740 444.011 3414.026 -2764.199 -0.763 0.027 0.215 -0.09 -0.6 0.78 0.15
1 8.70 870 1.207 -9.548 2.648 0.366 13.001 0.519 444.011 3414.026 -2764.199 -0.788 0.128 0.020 -0.09 -0.6 0.78 0.15
1 8.71 871 1.432 -9.860 2.710 -0.854 16.541 4.517 548.942 3473.987 -2854.291 -1.014 0.440 -0.041 -0.09 -0.6 0.78 0.15
1 8.72 872 1.489 -9.797 2.749 -0.061 18.311 6.104 369.060 3458.997 -2809.170 -1.076 0.377 -0.078 -0.09 -0.6 0.78 0.15
1 8.73 873 1.714 -9.831 2.595 0.122 21.790 6.989 444.011 3458.997 -2764.199 -1.316 0.411 0.078 -0.09 -0.6 0.78 0.15
1 8.74 874 1.614 -9.864 2.461 -0.427 24.262 7.050 503.972 3369.055 -2824.160 -1.223 0.445 0.213 -0.09 -0.6 0.78 0.16
1 8.75 875 1.599 -9.754 2.389 -1.343 25.696 6.714 503.972 3369.055 -2824.160 -1.219 0.334 0.284 -0.09 -0.6 0.78 0.16
1 8.76 876 1.159 -9.539 2.413 -2.869 26.611 6.104 354.069 3473.987 -2854.291 -0.788 0.117 0.259 -0.1 -0.6 0.78 0.16
1 8.77 877 0.761 -9.199 2.275 -5.096 27.313 4.242 354.069 3473.987 -2854.291 -0.402 -0.224 0.393 -0.1 -0.6 0.78 0.16
1 8.78 878 0.354 -9.007 2.131 -7.996 26.276 1.007 488.981 3503.967 -2809.170 -0.006 -0.418 0.529 -0.1 -0.6 0.78 0.16
1 8.79 879 0.326 -8.801 2.050 -9.186 27.039 -0.946 518.962 3414.026 -2764.199 0.012 -0.628 0.600 -0.1 -0.6 0.78 0.16
1 8.80 880 0.498 -8.883 2.097 -11.353 30.121 -2.991 518.962 3458.997 -2914.251 -0.176 -0.555 0.523 -0.1 -0.6 0.78 0.16
1 8.81 881 0.637 -8.907 2.006 -11.749 30.579 -3.113 444.011 3533.948 -2809.170 -0.320 -0.536 0.597 -0.11 -0.6 0.78 0.16
1 8.82 882 0.963 -9.065 1.968 -12.116 34.363 -4.028 444.011 3533.948 -2809.170 -0.649 -0.383 0.618 -0.11 -0.6 0.78 0.17
1 8.83 883 1.235 -9.055 1.853 -12.207 35.584 -4.517 579.073 3518.958 -2824.160 -0.923 -0.397 0.714 -0.11 -0.6 0.78 0.17
1 8.84 884 1.456 -9.362 1.935 -10.986 35.767 -3.784 579.073 3518.958 -2824.160 -1.143 -0.096 0.614 -0.11 -0.6 0.78 0.17
1 8.85 885 1.551 -9.510 1.944 -8.514 36.408 -2.045 564.083 3503.967 -2914.251 -1.238 0.048 0.588 -0.11 -0.6 0.77 0.17
1 8.86 886 1.240 -9.702 1.781 -8.087 35.828 -0.732 639.034 3414.026 -2689.248 -0.928 0.236 0.737 -0.11 -0.6 0.77 0.17
1 8.87 887 1.135 -9.826 1.930 -8.575 35.278 -0.946 639.034 3414.026 -2689.248 -0.824 0.357 0.574 -0.12 -0.6 0.77 0.18
1 8.88 888 0.963 -9.888 1.992 -10.559 32.593 -2.838 669.014 3533.948 -2764.199 -0.659 0.411 0.482 -0.12 -0.6 0.77 0.18
1 8.89 889 0.972 -10.022 1.997 -10.681 31.281 -5.249 669.014 3533.948 -2764.199 -0.670 0.540 0.461 -0.12 -0.6 0.77 0.18
1 8.90 890 1.125 -10.300 2.145 -12.329 30.640 -7.080 758.956 3669.010 -2674.258 -0.821 0.814 0.294 -0.12 -0.6 0.77 0.18
1 8.91 891 1.130 -10.286 2.126 -11.475 30.701 -6.104 758.956 3669.010 -2674.258 -0.820 0.795 0.295 -0.12 -0.6 0.77 0.19
1 8.92 892 0.584 -10.367 1.911 -8.331 29.511 -4.913 713.985 3458.997 -2614.297 -0.270 0.872 0.494 -0.13 -0.6 0.77 0.19
1 8.93 893 0.225 -10.372 1.901 -6.561 28.839 -4.913 909.008 3518.958 -2719.229 0.090 0.873 0.488 -0.13 -0.6 0.77 0.19
1 8.94 894 -0.163 -10.439 1.796 -4.486 27.710 -3.906 910.657 3520.307 -2721.027 0.477 0.937 0.582 -0.13 -0.6 0.76 0.19
1 8.95 895 -0.335 -10.271 1.595 0.305 26.032 -2.136 850.696 3685.349 -2661.066 0.637 0.765 0.766 -0.13 -0.6 0.76 0.19
1 8.96 896 -0.158 -10.171 1.451 2.686 27.466 -0.214 850.696 3685.349 -2661.066 0.449 0.663 0.907 -0.13 -0.6 0.76 0.2
1 8.97 897 0.225 -10.147 1.408 4.211 29.022 3.571 715.634 3505.316 -2736.018 0.052 0.639 0.950 -0.14 -0.6 0.76 0.2
1 8.98 898 0.464 -10.147 1.437 4.425 31.403 6.134 715.634 3505.316 -2736.018 -0.205 0.639 0.922 -0.14 -0.6 0.76 0.2
1 8.99 899 0.709 -10.291 2.026 5.676 30.884 7.263 850.696 3505.316 -2586.115 -0.468 0.782 0.335 -0.14 -0.6 0.76 0.2
1 9.00 900 0.819 -11.608 3.074 12.360 17.761 -2.594 835.706 3475.336 -2856.089 -0.594 2.100 -0.708 -0.14 -0.6 0.76 0.2
1 9.01 901 0.474 -11.579 2.322 13.947 15.442 -3.662 835.706 3475.336 -2856.089 -0.254 2.076 0.062 -0.14 -0.6 0.76 0.2
1 9.02 902 -1.173 -10.281 2.816 -1.160 19.348 -3.052 1075.699 3580.268 -2661.066 1.392 0.787 -0.396 -0.14 -0.6 0.76 0.2
1 9.03 903 -1.226 -10.080 2.504 -5.646 18.127 -7.050 1075.699 3580.268 -2661.066 1.440 0.585 -0.087 -0.15 -0.6 0.76 0.2
1 9.04 904 -0.484 -10.075 1.920 1.709 15.076 -15.167 1045.719 3610.248 -2766.148 0.700 0.579 0.490 -0.15 -0.6 0.76 0.21
1 9.05 905 0.081 -10.559 2.490 9.033 10.895 -21.393 1045.719 3610.248 -2766.148 0.149 1.063 -0.077 -0.15 -0.6 0.76 0.21
1 9.06 906 1.001 -11.028 3.022 7.843 3.021 -26.642 835.706 3550.287 -2751.008 -0.741 1.537 -0.595 -0.15 -0.6 0.76 0.21
1 9.07 907 1.121 -11.665 3.208 2.350 -3.967 -20.538 925.647 3460.346 -2811.119 -0.822 2.178 -0.771 -0.15 -0.6 0.76 0.21
1 9.08 908 0.192 -11.320 3.299 -3.571 -4.364 -15.106 925.647 3460.346 -2811.119 0.142 1.836 -0.856 -0.14 -0.6 0.76 0.21
1 9.09 909 -0.369 -10.559 2.816 -6.165 -6.165 -11.597 1000.598 3535.297 -2736.018 0.729 1.075 -0.374 -0.14 -0.6 0.76 0.21
1 9.10 910 0.000 -9.256 2.710 -2.380 -6.531 -7.263 880.676 3625.238 -2781.138 0.396 -0.230 -0.281 -0.14 -0.6 0.76 0.21
1 9.11 911 0.555 -8.835 2.677 -5.280 0.275 -4.242 955.627 3520.307 -2721.027 -0.151 -0.651 -0.250 -0.14 -0.6 0.76 0.21
1 9.12 912 0.809 -8.821 2.461 -5.920 5.096 -1.404 955.627 3520.307 -2721.027 -0.399 -0.666 -0.039 -0.14 -0.6 0.76 0.22
1 9.13 913 1.073 -8.878 2.576 -5.157 7.568 2.319 820.715 3460.346 -2871.080 -0.659 -0.610 -0.159 -0.14 -0.6 0.76 0.22
1 9.14 914 0.905 -8.744 2.835 -6.653 9.460 5.249 880.676 3520.307 -2781.138 -0.494 -0.745 -0.421 -0.14 -0.6 0.76 0.22
1 9.15 915 0.728 -8.624 2.988 -9.674 8.667 3.662 880.676 3520.307 -2781.138 -0.323 -0.867 -0.580 -0.14 -0.6 0.76 0.22
1 9.16 916 0.541 -8.519 2.883 -9.613 7.263 4.242 895.667 3535.297 -2871.080 -0.142 -0.974 -0.482 -0.14 -0.6 0.76 0.22
1 9.17 917 -0.134 -8.184 3.275 -11.231 3.876 7.019 820.715 3610.248 -2811.119 0.521 -1.313 -0.889 -0.14 -0.6 0.76 0.22
1 9.18 918 -0.503 -7.848 3.357 -12.238 2.625 6.928 835.706 3595.258 -2781.138 0.878 -1.652 -0.982 -0.15 -0.6 0.76 0.22
1 9.19 919 -0.642 -7.777 3.328 -10.742 1.404 5.524 835.706 3595.258 -2781.138 1.007 -1.728 -0.970 -0.15 -0.6 0.76 0.22
1 9.20 920 -0.618 -7.796 3.304 -8.575 1.312 4.852 820.715 3460.346 -2766.148 0.976 -1.713 -0.960 -0.15 -0.6 0.76 0.22
1 9.21 921 -0.393 -7.896 3.318 -7.141 0.275 5.005 850.696 3610.248 -2841.099 0.745 -1.615 -0.985 -0.15 -0.6 0.76 0.21
1 9.22 922 -0.838 -7.719 3.606 -3.906 -0.427 3.937 850.696 3610.248 -2841.099 1.184 -1.795 -1.280 -0.15 -0.6 0.76 0.21
1 9.23 923 -0.795 -7.690 3.606 -3.082 -0.641 0.641 970.618 3730.320 -2691.047 1.136 -1.825 -1.286 -0.15 -0.6 0.76 0.21
1 9.24 924 -0.790 -7.705 3.678 -4.059 -1.495 -7.416 1075.699 3535.297 -2841.099 1.137 -1.812 -1.365 -0.15 -0.6 0.76 0.21
1 9.25 925 -0.637 -7.753 3.773 -5.585 -1.984 -11.719 985.608 3670.209 -2721.027 1.000 -1.765 -1.467 -0.15 -0.6 0.76 0.22
1 9.26 926 -0.656 -8.074 3.951 -11.108 -2.808 -18.341 985.608 3670.209 -2721.027 1.045 -1.446 -1.658 -0.15 -0.6 0.76 0.22
1 9.27 927 -0.627 -8.509 3.735 -8.698 -5.127 -19.104 925.647 3535.297 -2766.148 1.038 -1.010 -1.443 -0.15 -0.6 0.75 0.22
1 9.28 928 -0.464 -8.940 3.754 -7.294 -7.751 -23.132 805.725 3520.307 -2751.008 0.901 -0.578 -1.461 -0.14 -0.6 0.75 0.22
1 9.29 929 -0.273 -9.922 3.630 -5.981 -10.742 -25.971 805.725 3520.307 -2751.008 0.742 0.406 -1.336 -0.14 -0.6 0.75 0.22
1 9.30 930 0.043 -10.568 3.529 -4.059 -12.054 -24.201 955.627 3745.310 -2751.008 0.462 1.054 -1.235 -0.14 -0.6 0.75 0.22
1 9.31 931 0.474 -11.076 3.491 -4.791 -12.421 -21.027 775.745 3655.219 -2766.148 0.069 1.563 -1.198 -0.14 -0.6 0.75 0.22
1 9.32 932 0.886 -11.373 3.429 -5.188 -12.390 -11.078 835.706 3670.209 -2721.027 -0.275 1.861 -1.149 -0.14 -0.6 0.75 0.22
1 9.33 933 0.785 -11.426 3.304 -3.387 -12.329 -2.228 835.706 3670.209 -2721.027 -0.156 1.913 -1.032 -0.14 -0.6 0.75 0.22
1 9.34 934 0.757 -11.138 3.247 -2.716 -11.536 4.303 745.614 3655.219 -2766.148 -0.121 1.626 -0.978 -0.14 -0.61 0.75 0.22
1 9.35 935 0.541 -10.813 2.945 0.336 -11.597 9.491 805.725 3715.330 -2751.008 0.091 1.299 -0.680 -0.13 -0.61 0.75 0.22
1 9.36 936 0.105 -10.444 2.873 -3.632 -12.756 15.808 805.725 3715.330 -2751.008 0.517 0.930 -0.607 -0.13 -0.61 0.75 0.22
1 9.37 937 -0.038 -10.367 2.672 -5.127 -14.374 18.982 820.715 3805.271 -2736.018 0.643 0.851 -0.410 -0.13 -0.61 0.75 0.22
1 9.38 938 0.010 -10.099 2.605 -4.639 -15.228 22.553 745.614 3685.349 -2736.018 0.572 0.580 -0.349 -0.13 -0.61 0.75 0.22
1 9.39 939 -0.201 -9.917 2.428 -1.038 -14.679 26.550 820.715 3655.219 -2736.018 0.718 0.392 -0.181 -0.14 -0.61 0.75 0.21
1 9.40 940 -0.201 -9.400 2.495 1.953 -10.376 27.710 820.715 3655.219 -2736.018 0.680 -0.127 -0.247 -0.14 -0.61 0.76 0.21
1 9.41 941 -0.316 -9.103 2.361 2.808 -7.690 28.534 835.706 3595.258 -2676.057 0.753 -0.424 -0.108 -0.14 -0.61 0.76 0.21
1 9.42 942 -0.340 -9.079 2.260 3.815 -6.622 25.482 775.745 3580.268 -2736.018 0.735 -0.449 -0.001 -0.14 -0.6 0.76 0.21
1 9.43 943 -0.297 -9.199 2.433 4.608 -5.249 24.170 775.745 3580.268 -2736.018 0.653 -0.329 -0.166 -0.14 -0.6 0.76 0.2
1 9.44 944 -0.091 -9.012 2.231 5.676 -3.998 22.583 685.653 3670.209 -2781.138 0.410 -0.514 0.045 -0.14 -0.6 0.76 0.2
1 9.45 945 -0.144 -8.639 2.169 6.073 -2.014 22.095 835.706 3715.330 -2676.057 0.428 -0.887 0.118 -0.14 -0.6 0.76 0.2
1 9.46 946 -0.101 -8.653 2.346 3.510 0.336 18.494 805.725 3715.330 -2751.008 0.321 -0.869 -0.039 -0.14 -0.6 0.76 0.2
1 9.47 947 -0.172 -8.696 2.179 2.960 1.007 17.914 805.725 3715.330 -2751.008 0.365 -0.825 0.136 -0.14 -0.6 0.76 0.2
1 9.48 948 -0.450 -8.490 2.050 0.519 1.373 14.557 820.715 3730.320 -2811.119 0.618 -1.030 0.269 -0.14 -0.6 0.76 0.2
1 9.49 949 -0.551 -8.701 1.915 -0.946 0.793 10.132 820.715 3760.300 -2736.018 0.699 -0.819 0.405 -0.14 -0.6 0.76 0.2
1 9.50 950 -0.532 -8.883 1.810 -1.160 0.153 6.622 820.715 3760.300 -2736.018 0.665 -0.638 0.509 -0.15 -0.6 0.76 0.2
1 9.51 951 -0.594 -9.113 1.690 -0.183 -2.411 3.815 910.657 3595.258 -2781.138 0.714 -0.409 0.627 -0.15 -0.6 0.76 0.19
1 9.52 952 -0.565 -9.256 1.609 0.397 -6.226 0.641 835.706 3715.330 -2826.109 0.677 -0.266 0.705 -0.15 -0.6 0.76 0.19
1 9.53 953 -0.330 -9.328 1.748 1.709 -8.270 -1.801 835.706 3715.330 -2826.109 0.438 -0.195 0.564 -0.15 -0.6 0.76 0.19
1 9.54 954 -0.158 -9.462 1.815 5.402 -10.407 -4.700 835.706 3595.258 -2676.057 0.273 -0.060 0.499 -0.14 -0.6 0.76 0.19
1 9.55 955 0.153 -9.639 1.901 5.829 -11.810 -6.561 910.657 3715.330 -2781.138 -0.028 0.119 0.419 -0.14 -0.6 0.76 0.19
1 9.56 956 0.105 -9.630 2.064 6.775 -11.749 -7.294 955.627 3595.258 -2646.076 0.034 0.111 0.263 -0.14 -0.6 0.76 0.19
1 9.57 957 0.077 -9.625 2.040 6.042 -11.749 -8.026 955.627 3595.258 -2646.076 0.078 0.109 0.295 -0.14 -0.6 0.76 0.19
1 9.58 958 0.187 -9.635 1.906 2.808 -11.932 -8.881 805.725 3625.238 -2751.008 -0.015 0.120 0.436 -0.14 -0.6 0.76 0.19
1 9.59 959 0.455 -9.692 1.853 -0.275 -12.024 -7.904 835.706 3625.238 -2751.008 -0.264 0.179 0.492 -0.14 -0.6 0.76 0.19
1 9.60 960 0.239 -9.568 1.767 -2.289 -11.414 -5.890 835.706 3625.238 -2751.008 -0.030 0.054 0.577 -0.14 -0.6 0.76 0.19
1 9.61 961 0.273 -9.462 1.528 -5.737 -12.024 -5.371 820.715 3655.219 -2811.119 -0.032 -0.054 0.801 -0.14 -0.6 0.76 0.19
1 9.62 962 0.335 -9.290 1.336 -7.385 -11.932 -5.157 760.604 3625.238 -2901.060 -0.081 -0.229 0.979 -0.14 -0.6 0.76 0.19
1 9.63 963 0.206 -9.299 1.312 -8.698 -13.336 -3.693 820.715 3610.248 -2766.148 0.061 -0.224 0.986 -0.13 -0.6 0.76 0.19
1 9.64 964 0.077 -9.194 1.269 -8.270 -13.886 -2.258 820.715 3610.248 -2766.148 0.201 -0.333 1.010 -0.13 -0.6 0.76 0.19
1 9.65 965 -0.072 -9.467 1.504 -4.730 -13.153 -1.190 775.745 3610.248 -2916.050 0.357 -0.064 0.758 -0.13 -0.61 0.76 0.19
1 9.66 966 -0.139 -9.606 1.580 -3.052 -9.522 -0.702 880.676 3670.209 -2751.008 0.430 0.072 0.668 -0.13 -0.61 0.76 0.19
1 9.67 967 -0.120 -9.730 1.604 1.221 -7.599 0.397 880.676 3670.209 -2751.008 0.414 0.194 0.635 -0.13 -0.61 0.76 0.19
1 9.68 968 0.005 -9.936 1.571 6.500 -5.615 2.228 715.634 3685.349 -2811.119 0.289 0.399 0.666 -0.13 -0.61 0.76 0.19
1 9.69 969 0.182 -9.917 1.647 10.071 -4.211 4.211 835.706 3595.258 -2721.027 0.109 0.382 0.596 -0.13 -0.61 0.76 0.19
1 9.70 970 -0.043 -10.109 1.882 13.397 -1.831 5.188 850.696 3760.300 -2691.047 0.329 0.576 0.374 -0.13 -0.61 0.76 0.19
1 9.71 971 -0.177 -9.860 1.868 15.533 0.549 6.378 850.696 3760.300 -2691.047 0.454 0.331 0.406 -0.13 -0.61 0.76 0.19
1 9.72 972 -0.306 -9.754 2.069 17.212 1.587 6.439 730.624 3715.330 -2826.109 0.571 0.231 0.226 -0.13 -0.6 0.76 0.19
1 9.73 973 -0.306 -9.644 2.413 17.242 4.425 5.096 685.653 3625.238 -2901.060 0.558 0.126 -0.094 -0.13 -0.6 0.76 0.19
1 9.74 974 -0.330 -9.242 2.241 12.177 5.585 3.662 685.653 3625.238 -2901.060 0.569 -0.270 0.105 -0.13 -0.6 0.76 0.19
1 9.75 975 -0.503 -8.916 1.982 5.981 3.052 0.977 655.673 3745.310 -2931.041 0.731 -0.591 0.385 -0.13 -0.6 0.77 0.19
1 9.76 976 -0.613 -8.682 1.484 5.249 -6.744 -5.798 685.653 3625.238 -2856.089 0.832 -0.821 0.899 -0.13 -0.6 0.77 0.19
1 9.77 977 -0.670 -8.686 1.298 7.294 -11.536 -9.216 820.715 3610.248 -2871.080 0.897 -0.815 1.091 -0.13 -0.6 0.77 0.19
1 9.78 978 -1.077 -9.060 0.953 3.632 -17.029 -7.111 820.715 3610.248 -2871.080 1.323 -0.439 1.446 -0.13 -0.6 0.77 0.19
1 9.79 979 -1.451 -9.424 0.752 0.671 -27.039 -3.448 835.706 3670.209 -2856.089 1.705 -0.076 1.642 -0.13 -0.6 0.77 0.19
1 9.80 980 -1.829 -10.271 2.255 4.639 -34.180 2.502 805.725 3550.287 -3006.142 2.087 0.769 0.128 -0.13 -0.6 0.77 0.18
1 9.81 981 -1.393 -11.698 4.247 9.064 -22.278 12.848 805.725 3550.287 -3006.142 1.649 2.195 -1.868 -0.13 -0.6 0.77 0.18
1 9.82 982 -0.201 -12.838 3.366 18.616 -0.854 28.961 775.745 3655.219 -2991.151 0.446 3.337 -0.976 -0.13 -0.6 0.77 0.18
1 9.83 983 2.610 -13.130 3.984 40.985 -0.946 42.877 805.725 3625.238 -2856.089 -2.452 3.647 -1.519 -0.13 -0.6 0.77 0.18
1 9.84 984 4.195 -13.561 4.291 21.332 8.637 59.082 670.663 3460.346 -2871.080 -4.103 4.091 -1.770 -0.13 -0.6 0.77 0.18
1 9.85 985 3.151 -13.049 2.955 8.637 12.421 72.785 670.663 3460.346 -2871.080 -3.156 3.585 -0.409 -0.13 -0.59 0.77 0.17
1 9.86 986 0.450 -12.048 3.122 13.458 4.364 60.242 745.614 3460.346 -2991.151 -0.561 2.589 -0.562 -0.14 -0.59 0.78 0.17
1 9.87 987 -2.227 -11.181 3.481 9.216 -4.059 38.269 925.647 3580.268 -3021.132 2.037 1.729 -0.901 -0.14 -0.59 0.78 0.17
1 9.88 988 -4.257 -11.679 2.782 1.526 -23.102 13.794 925.647 3580.268 -3021.132 4.024 2.231 -0.189 -0.14 -0.59 0.78 0.16
1 9.89 989 -3.017 -11.282 3.362 -6.195 -38.574 -4.120 820.715 3610.248 -2916.050 2.769 1.836 -0.763 -0.14 -0.59 0.78 0.16
1 9.90 990 -2.634 -11.239 3.409 -6.683 -40.314 -14.923 835.706 3595.258 -2961.021 2.432 1.788 -0.823 -0.13 -0.59 0.78 0.16
1 9.91 991 -2.658 -10.875 3.194 8.026 -54.779 -17.242 820.715 3610.248 -3021.132 2.497 1.423 -0.611 -0.13 -0.59 0.78 0.16
1 9.92 992 -2.069 -9.831 3.491 11.993 -62.836 -22.156 820.715 3610.248 -3021.132 1.959 0.383 -0.891 -0.13 -0.59 0.78 0.16
1 9.93 993 -1.389 -9.362 3.821 6.012 -63.172 -22.369 775.745 3415.225 -2991.151 1.330 -0.082 -1.202 -0.12 -0.59 0.78 0.15
1 9.94 994 -1.015 -8.725 3.783 1.465 -62.256 -19.501 925.647 3685.349 -2991.151 1.003 -0.714 -1.147 -0.12 -0.59 0.78 0.15
1 9.95 995 -0.464 -7.690 3.965 8.484 -61.463 -14.740 925.647 3685.349 -2991.151 0.497 -1.745 -1.316 -0.11 -0.59 0.78 0.15
1 9.96 996 0.168 -6.790 4.085 9.338 -58.502 -13.763 745.614 3580.268 -2991.151 -0.093 -2.639 -1.414 -0.11 -0.59 0.78 0.15
1 9.97 997 0.886 -6.192 4.056 6.165 -54.566 -11.261 745.614 3580.268 -2991.151 -0.765 -3.233 -1.372 -0.1 -0.59 0.78 0.15
1 9.98 998 1.853 -5.813 4.190 1.801 -45.441 -8.789 580.722 3370.254 -3036.122 -1.654 -3.605 -1.491 -0.1 -0.59 0.79 0.14
1 9.99 999 2.222 -6.038 4.176 4.700 -41.565 -4.242 580.722 3370.254 -3036.122 -1.992 -3.379 -1.473 -0.09 -0.59 0.79 0.14
1 10.00 1000 2.634 -6.158 4.300 7.813 -39.612 6.653 371.158 3506.815 -2992.800 -2.383 -3.256 -1.590 -0.09 -0.59 0.79 0.14
1 10.01 1001 3.113 -6.211 4.338 4.028 -34.485 11.871 506.070 3476.835 -3007.791 -2.857 -3.201 -1.618 -0.09 -0.59 0.79 0.14
1 10.02 1002 3.160 -7.034 4.434 -4.456 -24.994 18.768 506.070 3476.835 -3007.791 -2.907 -2.376 -1.710 -0.09 -0.59 0.79 0.14
1 10.03 1003 2.749 -8.193 4.113 -6.928 -19.959 22.553 401.139 3446.854 -3007.791 -2.497 -1.216 -1.385 -0.09 -0.59 0.79 0.13
1 10.04 1004 2.136 -8.964 3.893 -6.592 -16.144 23.407 401.139 3446.854 -3007.791 -1.884 -0.444 -1.160 -0.08 -0.59 0.79 0.13
1 10.05 1005 1.183 -10.032 3.922 -8.789 -9.552 18.860 341.178 3581.767 -3022.781 -0.951 0.624 -1.188 -0.08 -0.59 0.79 0.13
