COL1	TIME	ACC_X	ACC_Y	ACC_Z	GYR_X	GYR_Y	GYR_Z	MAG_X	MAG_Y	MAG_Z	LACC_X	LACC_Y	LACC_Z	QUAT_X	QUAT_Y	QUAT_Z	QUAT_W
1 0.00 0 0.661 -9.448 3.486 -1.831 -1.556 2.319 -98.636 2352.717 -4047.663 -0.230 0.215 -0.230 0.01 -0.58 0.82 0.02
1 0.01 1 0.680 -9.572 3.472 -1.160 -0.641 1.892 -98.636 2352.717 -4047.663 -0.251 0.339 -0.217 0.01 -0.58 0.82 0.02
1 0.02 2 0.694 -9.304 3.433 0.244 1.709 1.770 -98.636 2322.587 -4017.683 -0.266 0.070 -0.179 0.01 -0.58 0.82 0.02
1 0.03 3 0.637 -9.170 3.424 0.488 1.129 1.373 -98.636 2322.587 -4017.683 -0.210 -0.064 -0.169 0.01 -0.58 0.82 0.02
1 0.04 4 0.637 -9.127 3.443 0.336 0.122 1.251 -23.685 2277.616 -4092.634 -0.211 -0.106 -0.186 0.01 -0.58 0.82 0.02
1 0.05 5 0.503 -9.026 3.299 -0.122 -0.885 0.885 -83.646 2412.678 -3927.591 -0.075 -0.206 -0.040 0.01 -0.58 0.82 0.02
1 0.06 6 0.388 -9.022 3.338 -1.099 -0.732 1.007 -68.655 2322.587 -3942.582 0.040 -0.210 -0.078 0.01 -0.58 0.82 0.02
1 0.07 7 0.474 -9.151 3.328 -0.641 -1.709 0.519 81.247 2397.688 -3942.582 -0.047 -0.081 -0.069 0.01 -0.58 0.82 0.02
1 0.08 8 0.302 -9.266 3.323 1.892 -1.923 -0.732 81.247 2397.688 -3942.582 0.126 0.034 -0.063 0.01 -0.58 0.82 0.02
1 0.09 9 0.460 -9.477 3.390 1.617 -1.617 -1.160 -158.597 2262.626 -3882.621 -0.030 0.246 -0.127 0.01 -0.58 0.82 0.02
1 0.10 10 0.766 -9.668 3.587 0.061 -0.824 -1.282 -158.597 2262.626 -3882.621 -0.334 0.439 -0.320 0.01 -0.58 0.82 0.02
1 0.11 11 0.838 -9.515 3.491 -1.404 -0.854 -1.251 -98.636 2277.616 -4047.663 -0.402 0.286 -0.223 0.01 -0.58 0.82 0.02
1 0.12 12 0.694 -9.371 3.534 -1.129 -0.763 0.214 6.146 2172.685 -4092.634 -0.250 0.142 -0.267 0.01 -0.58 0.82 0.02
1 0.13 13 0.642 -9.280 3.500 -0.610 -0.031 1.282 -8.694 2337.577 -3927.591 -0.196 0.051 -0.235 0.01 -0.58 0.82 0.02
1 0.14 14 0.608 -9.098 3.386 0.458 -0.214 1.923 81.247 2247.636 -4017.683 -0.163 -0.131 -0.119 0.01 -0.58 0.82 0.02
1 0.15 15 0.417 -9.065 3.323 1.770 -0.427 3.021 81.247 2247.636 -4017.683 0.027 -0.164 -0.055 0.01 -0.58 0.82 0.02
1 0.16 16 0.287 -9.247 3.381 1.770 -1.160 3.845 51.117 2352.717 -4047.663 0.152 0.019 -0.109 0.01 -0.58 0.82 0.02
1 0.17 17 0.421 -9.228 3.534 1.068 0.122 2.472 51.117 2352.717 -4047.663 0.013 0.001 -0.259 0.01 -0.58 0.82 0.02
1 0.18 18 0.402 -9.438 3.630 0.580 1.312 -0.031 -23.685 2397.688 -4047.663 0.027 0.213 -0.352 0.01 -0.58 0.82 0.02
1 0.19 19 0.670 -9.448 3.457 0.763 1.465 -2.289 36.126 2262.626 -4032.673 -0.243 0.223 -0.176 0.01 -0.58 0.82 0.02
1 0.20 20 0.675 -9.343 3.448 0.671 0.275 -3.448 -8.694 2412.678 -3957.572 -0.241 0.120 -0.162 0.01 -0.58 0.82 0.02
1 0.21 21 0.891 -9.347 3.381 1.343 -0.702 -1.221 -38.675 2307.597 -4002.692 -0.451 0.126 -0.093 0.01 -0.58 0.82 0.02
1 0.22 22 0.752 -9.285 3.467 1.282 -0.916 0.122 -38.675 2307.597 -4002.692 -0.307 0.065 -0.177 0.01 -0.58 0.82 0.02
1 0.23 23 0.804 -9.395 3.448 2.411 -0.549 1.465 -38.675 2187.675 -4002.692 -0.358 0.176 -0.154 0.01 -0.58 0.82 0.02
1 0.24 24 0.603 -9.371 3.424 1.587 -0.092 1.465 -38.675 2187.675 -4002.692 -0.156 0.154 -0.126 0.01 -0.58 0.82 0.02
1 0.25 25 0.431 -9.266 3.510 0.977 -1.282 0.244 -23.685 2247.636 -4017.683 0.015 0.050 -0.209 0.01 -0.58 0.82 0.02
1 0.26 26 0.378 -9.295 3.496 -0.153 -2.869 -0.580 -23.685 2127.714 -4122.614 0.068 0.079 -0.192 0.01 -0.58 0.82 0.02
1 0.27 27 0.512 -9.103 3.496 -2.197 -2.930 -0.458 -23.685 2277.616 -4122.614 -0.062 -0.113 -0.193 0.01 -0.58 0.82 0.02
1 0.28 28 0.623 -9.079 3.457 -1.373 -1.953 0.153 -98.636 2277.616 -3912.601 -0.170 -0.137 -0.156 0.01 -0.58 0.82 0.02
1 0.29 29 0.642 -9.055 3.438 -1.465 -0.977 0.549 -98.636 2277.616 -3912.601 -0.188 -0.161 -0.137 0.01 -0.58 0.82 0.02
1 0.30 30 0.656 -9.103 3.448 0.824 0.671 1.648 36.126 2262.626 -4002.692 -0.202 -0.113 -0.146 0.01 -0.58 0.82 0.02
1 0.31 31 0.790 -9.247 3.304 3.296 1.617 2.045 36.126 2262.626 -4002.692 -0.337 0.032 0.000 0.01 -0.58 0.82 0.02
1 0.32 32 0.584 -9.381 3.405 4.456 3.693 2.350 -23.685 2352.717 -4017.683 -0.133 0.168 -0.095 0.01 -0.58 0.82 0.02
1 0.33 33 0.469 -9.515 3.620 3.418 2.472 3.052 -83.646 2337.577 -3957.572 -0.021 0.304 -0.303 0.01 -0.57 0.82 0.02
1 0.34 34 0.493 -9.764 3.730 0.519 1.221 2.258 -68.655 2097.583 -4047.663 -0.055 0.557 -0.402 0.01 -0.57 0.82 0.02
1 0.35 35 0.297 -9.615 3.548 -1.587 0.000 1.923 -83.646 2262.626 -3957.572 0.138 0.409 -0.219 0.01 -0.57 0.82 0.02
1 0.36 36 0.383 -9.534 3.658 -2.716 -0.946 0.824 -83.646 2262.626 -3957.572 0.048 0.327 -0.330 0.01 -0.57 0.82 0.02
1 0.37 37 0.484 -9.323 3.615 -2.441 -0.977 0.824 -23.685 2247.636 -4092.634 -0.054 0.115 -0.290 0.01 -0.57 0.82 0.02
1 0.38 38 0.680 -9.242 3.496 -0.702 -0.885 0.153 -23.685 2247.636 -4092.634 -0.250 0.033 -0.172 0.01 -0.57 0.82 0.02
1 0.39 39 0.666 -8.979 3.323 1.678 -1.770 0.885 -38.675 2412.678 -4032.673 -0.234 -0.230 0.001 0.01 -0.57 0.82 0.02
1 0.40 40 0.680 -8.801 3.333 3.571 -2.258 0.214 126.218 2172.685 -3912.601 -0.247 -0.406 -0.006 0.01 -0.57 0.82 0.02
1 0.41 41 0.579 -8.663 3.318 4.852 -2.411 0.000 126.218 2172.685 -3912.601 -0.144 -0.543 0.013 0.01 -0.57 0.82 0.02
1 0.42 42 0.498 -8.663 3.381 2.258 -3.265 -0.305 -68.655 2172.685 -3912.601 -0.056 -0.538 -0.036 0.01 -0.57 0.82 0.02
1 0.43 43 0.397 -8.595 3.271 -0.702 -2.228 -0.610 -68.655 2172.685 -3912.601 0.047 -0.604 0.077 0.01 -0.57 0.82 0.02
1 0.44 44 0.426 -9.012 3.539 -2.319 -0.061 -2.228 -113.626 2217.655 -4137.604 0.021 -0.187 -0.191 0.01 -0.57 0.82 0.02
1 0.45 45 0.503 -9.232 3.342 -2.106 2.991 -4.334 -113.626 2217.655 -4137.604 -0.052 0.032 0.004 0.01 -0.57 0.82 0.02
1 0.46 46 0.752 -9.520 3.524 -1.556 6.958 -3.265 6.146 2322.587 -4047.663 -0.296 0.319 -0.180 0.01 -0.57 0.82 0.02
1 0.47 47 0.613 -9.793 3.558 -1.221 5.859 -1.221 -173.737 2247.636 -4047.663 -0.154 0.592 -0.215 0.01 -0.57 0.82 0.02
1 0.48 48 0.642 -9.850 3.697 -0.427 3.143 0.580 -173.737 2247.636 -4047.663 -0.181 0.649 -0.355 0.01 -0.57 0.82 0.02
1 0.49 49 0.402 -9.759 3.663 -0.397 -0.763 2.411 -68.655 2352.717 -4092.634 0.055 0.558 -0.322 0.01 -0.57 0.82 0.03
1 0.50 50 0.369 -9.568 3.649 -2.411 -2.777 3.540 -68.655 2352.717 -4092.634 0.085 0.366 -0.308 0.01 -0.57 0.82 0.03
1 0.51 51 0.493 -9.386 3.591 -4.272 -3.296 4.089 66.107 2262.626 -3957.572 -0.045 0.183 -0.254 0.01 -0.57 0.82 0.02
1 0.52 52 0.464 -9.443 3.673 -2.930 -3.448 3.357 66.107 2262.626 -3957.572 -0.021 0.238 -0.339 0.01 -0.57 0.82 0.02
1 0.53 53 0.670 -9.285 3.429 -0.610 -3.784 2.258 6.146 2427.668 -4047.663 -0.230 0.079 -0.097 0.01 -0.57 0.82 0.02
1 0.54 54 0.704 -9.089 3.347 2.411 -2.533 -0.488 81.247 2322.587 -3972.562 -0.263 -0.117 -0.015 0.01 -0.57 0.82 0.02
1 0.55 55 0.761 -8.878 3.409 3.082 -0.977 -1.251 81.247 2322.587 -3972.562 -0.318 -0.326 -0.074 0.01 -0.57 0.82 0.02
1 0.56 56 0.804 -8.883 3.615 0.153 0.031 0.031 -8.694 2262.626 -4002.692 -0.352 -0.318 -0.272 0.01 -0.57 0.82 0.02
1 0.57 57 0.618 -8.945 3.625 -2.075 0.610 0.946 -8.694 2262.626 -4002.692 -0.162 -0.255 -0.279 0.01 -0.57 0.82 0.02
1 0.58 58 0.651 -9.165 3.539 -4.150 0.610 1.556 -8.694 2217.655 -3927.591 -0.196 -0.035 -0.194 0.01 -0.57 0.82 0.02
1 0.59 59 0.522 -9.338 3.572 -4.974 1.068 1.312 -8.694 2217.655 -3927.591 -0.068 0.136 -0.232 0.01 -0.57 0.82 0.02
1 0.60 60 0.479 -9.553 3.630 -2.472 0.336 -0.610 -113.626 2337.577 -4212.556 -0.026 0.349 -0.294 0.01 -0.57 0.82 0.02
1 0.61 61 0.517 -9.319 3.630 -0.061 -0.519 -1.282 36.126 2382.698 -3957.572 -0.064 0.114 -0.295 0.01 -0.57 0.82 0.03
1 0.62 62 0.508 -9.266 3.749 0.885 -0.916 -1.404 36.126 2382.698 -3957.572 -0.054 0.062 -0.414 0.01 -0.57 0.82 0.03
1 0.63 63 0.560 -9.204 3.582 0.824 -2.319 -0.702 6.146 2277.616 -4017.683 -0.103 0.001 -0.243 0.01 -0.57 0.82 0.03
1 0.64 64 0.378 -8.945 3.544 -2.167 -4.059 1.343 -113.626 2262.626 -4032.673 0.082 -0.256 -0.200 0.01 -0.57 0.82 0.03
1 0.65 65 0.163 -8.998 3.520 -2.563 -3.937 2.228 51.117 2277.616 -4017.683 0.297 -0.203 -0.178 0.01 -0.57 0.82 0.03
1 0.66 66 0.225 -8.868 3.477 -0.488 -3.082 0.977 51.117 2277.616 -4017.683 0.232 -0.333 -0.136 0.01 -0.57 0.82 0.02
1 0.67 67 0.527 -9.151 3.606 0.824 -0.671 -1.526 36.126 2262.626 -4032.673 -0.070 -0.050 -0.264 0.01 -0.57 0.82 0.02
1 0.68 68 0.618 -9.290 3.558 0.519 1.953 -1.740 -23.685 2352.717 -3972.562 -0.159 0.090 -0.213 0.01 -0.57 0.82 0.02
1 0.69 69 0.790 -9.405 3.697 -0.854 2.930 -2.441 -23.685 2352.717 -3972.562 -0.329 0.206 -0.349 0.01 -0.57 0.82 0.03
1 0.70 70 0.924 -9.376 3.644 -1.221 1.434 -2.411 36.126 2307.597 -4062.653 -0.461 0.178 -0.295 0.01 -0.57 0.82 0.03
1 0.71 71 0.642 -9.194 3.572 -2.441 -0.824 -0.153 -83.646 2187.675 -3957.572 -0.170 -0.004 -0.224 0.01 -0.57 0.82 0.03
1 0.72 72 0.627 -9.338 3.644 -1.892 -2.563 0.275 -68.655 2352.717 -3837.650 -0.153 0.139 -0.298 0.01 -0.57 0.82 0.03
1 0.73 73 0.522 -9.410 3.582 0.183 -2.441 1.617 -68.655 2352.717 -3837.650 -0.046 0.211 -0.237 0.01 -0.57 0.82 0.03
1 0.74 74 0.536 -9.338 3.596 1.892 -1.648 1.465 -158.597 2262.626 -4032.673 -0.061 0.139 -0.249 0.01 -0.57 0.82 0.03
1 0.75 75 0.503 -9.433 3.587 1.282 -0.763 1.129 -68.655 2352.717 -4017.683 -0.028 0.237 -0.235 0.01 -0.57 0.82 0.03
1 0.76 76 0.670 -9.515 3.524 0.000 -0.610 -0.366 -68.655 2352.717 -4017.683 -0.197 0.319 -0.171 0.01 -0.57 0.82 0.03
1 0.77 77 0.733 -9.429 3.591 0.244 -2.502 0.488 -158.597 2307.597 -4062.653 -0.259 0.233 -0.237 0.01 -0.57 0.82 0.03
1 0.78 78 0.752 -9.228 3.591 0.305 -4.608 1.038 36.126 2412.678 -4062.653 -0.274 0.032 -0.236 0.01 -0.57 0.82 0.03
1 0.79 79 0.757 -9.232 3.611 0.916 -2.502 1.007 -98.636 2352.717 -4017.683 -0.277 0.038 -0.253 0.01 -0.57 0.82 0.03
1 0.80 80 0.728 -9.017 3.606 0.153 0.580 0.916 -98.636 2352.717 -4017.683 -0.246 -0.176 -0.245 0.01 -0.57 0.82 0.03
1 0.81 81 0.575 -9.237 3.716 -0.366 2.380 0.305 66.107 2412.678 -3957.572 -0.092 0.045 -0.353 0.01 -0.57 0.82 0.03
1 0.82 82 0.814 -9.275 3.860 -1.495 3.632 -1.160 -83.646 2307.597 -3957.572 -0.332 0.084 -0.495 0.01 -0.57 0.82 0.03
1 0.83 83 0.785 -9.333 3.773 -2.838 1.678 -0.916 -83.646 2307.597 -3957.572 -0.301 0.142 -0.408 0.01 -0.57 0.82 0.03
1 0.84 84 0.876 -9.247 3.706 -2.350 -0.275 0.946 -83.646 2337.577 -4107.624 -0.390 0.055 -0.342 0.01 -0.57 0.82 0.03
1 0.85 85 0.699 -9.242 3.534 -0.854 -1.160 1.282 -98.636 2397.688 -4047.663 -0.212 0.050 -0.171 0.01 -0.57 0.82 0.03
1 0.86 86 0.522 -8.825 3.323 3.082 -2.319 2.502 -68.655 2172.685 -4047.663 -0.033 -0.366 0.041 0.01 -0.57 0.82 0.03
1 0.87 87 0.517 -8.854 3.275 3.754 -2.899 1.617 -68.655 2172.685 -4047.663 -0.030 -0.335 0.095 0.01 -0.57 0.82 0.03
1 0.88 88 0.498 -8.840 3.462 3.662 -2.533 1.862 6.146 2352.717 -4092.634 -0.011 -0.347 -0.086 0.01 -0.57 0.82 0.03
1 0.89 89 0.278 -8.830 3.534 3.357 -2.533 1.221 -98.636 2202.665 -3942.582 0.208 -0.355 -0.151 0.01 -0.57 0.82 0.03
1 0.90 90 0.283 -9.108 3.711 -2.197 -2.472 -0.946 -98.636 2202.665 -3942.582 0.202 -0.075 -0.323 0.01 -0.57 0.82 0.03
1 0.91 91 0.618 -9.534 3.879 -4.852 0.000 -2.350 -158.597 2187.675 -4107.624 -0.133 0.351 -0.491 0.01 -0.57 0.82 0.03
1 0.92 92 0.757 -9.558 3.735 -6.653 2.747 -2.502 -23.685 2277.616 -3942.582 -0.269 0.374 -0.351 0.01 -0.57 0.82 0.03
1 0.93 93 0.867 -9.577 3.749 -7.568 3.448 0.519 -68.655 2202.665 -4047.663 -0.374 0.388 -0.380 0.01 -0.57 0.82 0.03
1 0.94 94 0.910 -9.606 3.615 -4.913 1.587 1.740 -68.655 2202.665 -4047.663 -0.417 0.413 -0.255 0.01 -0.57 0.82 0.03
1 0.95 95 0.733 -9.376 3.438 0.427 -1.709 3.662 66.107 2217.655 -4032.673 -0.241 0.182 -0.082 0.01 -0.57 0.82 0.03
1 0.96 96 0.508 -9.074 3.290 3.510 -4.852 4.181 -98.636 2247.636 -3972.562 -0.018 -0.119 0.070 0.01 -0.57 0.82 0.03
1 0.97 97 0.575 -8.964 3.529 4.883 -5.310 4.089 -98.636 2247.636 -3972.562 -0.088 -0.227 -0.165 0.01 -0.57 0.82 0.03
1 0.98 98 0.560 -8.926 3.635 2.136 -3.387 2.686 36.126 2217.655 -4062.653 -0.076 -0.263 -0.263 0.01 -0.57 0.82 0.03
1 0.99 99 0.445 -9.012 3.678 -1.801 -2.563 1.434 -83.646 2337.577 -4002.692 0.037 -0.175 -0.300 0.01 -0.57 0.82 0.03
1 1.00 100 0.445 -9.309 3.635 -6.104 -2.228 -1.282 -38.675 2187.675 -4212.556 0.036 0.121 -0.260 0.01 -0.57 0.82 0.02
1 1.01 101 0.757 -9.319 3.644 -4.700 -0.183 -2.258 -38.675 2187.675 -4212.556 -0.272 0.128 -0.277 0.01 -0.57 0.82 0.02
1 1.02 102 0.819 -9.429 3.615 -3.845 0.641 -3.693 -83.646 2307.597 -3957.572 -0.329 0.237 -0.253 0.01 -0.57 0.82 0.03
1 1.03 103 0.891 -9.582 3.630 -2.319 2.594 -3.204 -113.626 2307.597 -3957.572 -0.395 0.389 -0.270 0.01 -0.57 0.82 0.03
1 1.04 104 1.001 -9.553 3.577 -1.251 2.197 -1.221 -113.626 2307.597 -3957.572 -0.500 0.360 -0.220 0.01 -0.57 0.82 0.03
1 1.05 105 0.685 -9.352 3.505 0.549 0.732 1.434 6.146 2397.688 -4017.683 -0.180 0.159 -0.149 0.01 -0.57 0.82 0.03
1 1.06 106 0.623 -9.199 3.563 0.641 -2.014 3.510 -128.616 2352.717 -4017.683 -0.115 0.006 -0.206 0.01 -0.57 0.82 0.03
1 1.07 107 0.560 -8.988 3.438 -0.092 -4.272 4.639 -128.616 2352.717 -4017.683 -0.055 -0.204 -0.079 0.01 -0.57 0.82 0.03
1 1.08 108 0.407 -9.127 3.395 -1.556 -5.341 3.418 6.146 2247.636 -3942.582 0.091 -0.066 -0.036 0.01 -0.57 0.82 0.03
1 1.09 109 0.484 -9.094 3.376 -0.580 -4.700 1.678 -98.636 2322.587 -4167.585 0.011 -0.100 -0.019 0.01 -0.57 0.82 0.03
1 1.10 110 0.623 -9.237 3.448 0.671 -2.319 0.183 -23.685 2397.688 -4017.683 -0.128 0.043 -0.092 0.01 -0.57 0.82 0.02
1 1.11 111 0.661 -9.424 3.534 1.129 -0.397 -0.244 -23.685 2397.688 -4017.683 -0.165 0.230 -0.177 0.01 -0.57 0.82 0.02
1 1.12 112 0.656 -9.410 3.635 -1.038 1.862 0.610 -113.626 2382.698 -4032.673 -0.160 0.216 -0.276 0.01 -0.57 0.82 0.02
1 1.13 113 0.694 -9.410 3.644 -3.113 -0.488 1.923 36.126 2262.626 -4002.692 -0.198 0.216 -0.286 0.01 -0.57 0.82 0.03
1 1.14 114 0.555 -9.338 3.611 -4.395 -2.960 2.136 36.126 2262.626 -4002.692 -0.060 0.144 -0.254 0.01 -0.57 0.82 0.03
1 1.15 115 0.579 -9.161 3.438 -3.326 -5.096 1.038 -23.685 2097.583 -4047.663 -0.084 -0.037 -0.091 0.01 -0.57 0.82 0.02
1 1.16 116 0.599 -9.041 3.390 -1.068 -2.838 1.282 -8.694 2382.698 -4002.692 -0.101 -0.158 -0.047 0.01 -0.57 0.82 0.02
1 1.17 117 0.733 -9.175 3.409 0.061 -0.427 0.946 -23.685 2247.636 -4017.683 -0.235 -0.024 -0.067 0.01 -0.57 0.82 0.02
1 1.18 118 0.656 -9.232 3.496 1.251 2.563 1.709 -23.685 2247.636 -4017.683 -0.158 0.034 -0.153 0.01 -0.57 0.82 0.02
1 1.19 119 0.690 -9.419 3.515 0.275 3.204 2.808 -83.646 2217.655 -3927.591 -0.195 0.221 -0.170 0.01 -0.57 0.82 0.02
1 1.20 120 0.661 -9.448 3.749 -2.258 0.336 2.441 -23.685 2172.685 -4047.663 -0.171 0.250 -0.404 0.01 -0.57 0.82 0.02
1 1.21 121 0.680 -9.352 3.591 -1.923 -1.160 1.251 -23.685 2172.685 -4047.663 -0.194 0.153 -0.248 0.01 -0.57 0.82 0.02
1 1.22 122 0.690 -9.127 3.366 -1.129 -4.211 0.031 -113.626 2457.649 -4032.673 -0.202 -0.073 -0.026 0.01 -0.57 0.82 0.02
1 1.23 123 0.785 -8.926 3.194 -1.221 -3.510 0.305 -38.675 2412.678 -3882.621 -0.294 -0.275 0.145 0.01 -0.57 0.82 0.02
1 1.24 124 0.579 -8.825 3.443 -1.282 -2.930 2.136 -68.655 2427.668 -4017.683 -0.085 -0.376 -0.106 0.01 -0.57 0.82 0.02
1 1.25 125 0.623 -8.993 3.347 -2.960 -2.411 3.693 -68.655 2427.668 -4017.683 -0.129 -0.209 -0.012 0.01 -0.57 0.82 0.02
1 1.26 126 0.522 -9.141 3.639 -3.754 -0.244 4.028 -8.694 2262.626 -4032.673 -0.033 -0.062 -0.308 0.01 -0.57 0.82 0.02
1 1.27 127 0.460 -9.491 3.606 -1.587 2.289 2.106 -38.675 2262.626 -4137.604 0.024 0.286 -0.277 0.01 -0.57 0.82 0.02
1 1.28 128 0.450 -9.529 3.467 -0.214 1.862 -0.153 -38.675 2262.626 -4137.604 0.030 0.324 -0.140 0.01 -0.57 0.82 0.02
1 1.29 129 0.508 -9.505 3.558 -0.458 1.770 -1.709 6.146 2352.717 -4047.663 -0.029 0.300 -0.230 0.01 -0.57 0.82 0.02
1 1.30 130 0.565 -9.319 3.582 -3.204 0.305 -0.763 81.247 2202.665 -3972.562 -0.084 0.113 -0.256 0.01 -0.57 0.82 0.02
1 1.31 131 0.570 -9.242 3.500 -3.693 -1.434 1.648 81.247 2472.639 -4017.683 -0.088 0.035 -0.178 0.01 -0.57 0.82 0.03
1 1.32 132 0.441 -9.170 3.395 -4.150 -2.869 3.418 81.247 2472.639 -4017.683 0.040 -0.039 -0.077 0.01 -0.57 0.82 0.03
1 1.33 133 0.431 -9.170 3.323 -2.960 -3.784 3.479 -23.685 2427.668 -4122.614 0.045 -0.041 -0.010 0.01 -0.58 0.82 0.02
1 1.34 134 0.388 -9.060 3.386 -1.587 -2.533 1.984 -83.646 2217.655 -3927.591 0.085 -0.152 -0.076 0.01 -0.58 0.82 0.02
1 1.35 135 0.436 -9.122 3.414 -2.045 -2.228 -0.244 -83.646 2217.655 -3927.591 0.033 -0.091 -0.107 0.01 -0.58 0.82 0.02
1 1.36 136 0.546 -9.242 3.429 -1.404 -1.007 -1.984 -8.694 2412.678 -4107.624 -0.076 0.028 -0.123 0.01 -0.58 0.82 0.02
1 1.37 137 0.690 -9.410 3.544 -0.244 1.129 -2.289 51.117 2547.590 -4017.683 -0.212 0.196 -0.240 0.01 -0.58 0.82 0.02
1 1.38 138 0.733 -9.491 3.649 -0.610 1.770 0.214 -98.636 2247.636 -3942.582 -0.252 0.277 -0.345 0.01 -0.58 0.82 0.03
1 1.39 139 0.589 -9.539 3.697 -2.472 1.282 2.350 -98.636 2247.636 -3942.582 -0.109 0.325 -0.393 0.01 -0.58 0.82 0.03
1 1.40 140 0.498 -9.592 3.702 -4.456 -0.061 4.486 -98.636 2397.688 -4047.663 -0.021 0.376 -0.401 0.01 -0.58 0.82 0.03
1 1.41 141 0.474 -9.615 3.596 -4.883 -1.770 5.737 66.107 2307.597 -4062.653 -0.003 0.398 -0.300 0.01 -0.58 0.82 0.02
1 1.42 142 0.397 -9.295 3.472 -5.157 -4.913 3.754 66.107 2307.597 -4062.653 0.066 0.075 -0.182 0.01 -0.58 0.82 0.02
1 1.43 143 0.445 -9.213 3.462 -4.120 -6.073 2.228 36.126 2262.626 -4062.653 0.013 -0.009 -0.178 0.01 -0.58 0.82 0.02
1 1.44 144 0.469 -8.883 3.376 -0.305 -4.150 -0.488 -8.694 2307.597 -4182.575 -0.012 -0.342 -0.099 0.01 -0.58 0.82 0.02
1 1.45 145 0.642 -8.686 3.405 2.258 -1.892 -2.380 -8.694 2262.626 -3927.591 -0.180 -0.537 -0.126 0.01 -0.58 0.82 0.02
1 1.46 146 0.809 -8.725 3.328 3.632 0.763 -4.120 -8.694 2262.626 -3927.591 -0.342 -0.497 -0.044 0.01 -0.58 0.82 0.02
1 1.47 147 0.785 -8.801 3.366 2.869 2.106 -6.195 -98.636 2352.717 -3912.601 -0.309 -0.418 -0.076 0.01 -0.58 0.82 0.02
1 1.48 148 0.848 -8.993 3.376 1.312 3.387 -6.805 6.146 2322.587 -4017.683 -0.362 -0.224 -0.081 0.01 -0.58 0.82 0.03
1 1.49 149 0.618 -9.395 3.409 -3.113 1.740 -4.242 6.146 2322.587 -4017.683 -0.122 0.180 -0.112 0.01 -0.58 0.82 0.03
1 1.50 150 0.733 -9.678 3.510 -6.012 1.465 -2.350 81.247 2352.717 -4017.683 -0.229 0.462 -0.214 0.01 -0.58 0.82 0.03
1 1.51 151 0.685 -9.999 3.706 -6.012 2.014 1.129 81.247 2352.717 -4017.683 -0.177 0.781 -0.418 0.01 -0.58 0.82 0.03
1 1.52 152 0.570 -9.869 3.658 -3.967 2.258 4.517 -8.694 2382.698 -4137.604 -0.067 0.646 -0.386 0.01 -0.58 0.82 0.03
1 1.53 153 0.460 -9.769 3.572 -2.747 -0.610 4.517 -8.694 2382.698 -4137.604 0.037 0.543 -0.304 0.01 -0.58 0.82 0.03
1 1.54 154 0.393 -9.520 3.601 -2.655 -4.303 4.944 -23.685 2397.688 -3942.582 0.098 0.293 -0.336 0.01 -0.58 0.82 0.03
1 1.55 155 0.287 -9.094 3.591 -3.082 -7.904 4.822 -8.694 2262.626 -3927.591 0.198 -0.135 -0.329 0.01 -0.58 0.82 0.03
1 1.56 156 0.239 -8.773 3.544 -4.303 -10.040 3.540 -8.694 2262.626 -3927.591 0.242 -0.457 -0.285 0.01 -0.58 0.82 0.03
1 1.57 157 0.278 -8.706 3.323 -2.869 -6.897 1.831 51.117 2352.717 -4047.663 0.203 -0.526 -0.068 0.01 -0.58 0.82 0.03
1 1.58 158 0.393 -8.595 3.256 -1.953 -2.808 -2.319 51.117 2352.717 -4047.663 0.088 -0.636 -0.004 0.01 -0.58 0.82 0.02
1 1.59 159 0.656 -9.074 3.371 0.183 2.563 -6.287 -128.616 2322.587 -4122.614 -0.167 -0.158 -0.120 0.01 -0.58 0.82 0.03
1 1.60 160 0.737 -9.433 3.342 0.580 4.272 -7.996 -128.616 2322.587 -4122.614 -0.240 0.203 -0.089 0.01 -0.58 0.82 0.03
1 1.61 161 0.828 -9.706 3.371 0.488 3.815 -7.324 -98.636 2397.688 -4092.634 -0.321 0.477 -0.116 0.01 -0.58 0.82 0.03
1 1.62 162 0.895 -9.893 3.563 -0.610 2.777 -5.219 36.126 2382.698 -4062.653 -0.378 0.664 -0.307 0.01 -0.58 0.82 0.03
1 1.63 163 0.886 -9.845 3.486 -2.197 0.763 -1.862 36.126 2382.698 -4062.653 -0.362 0.617 -0.231 0.01 -0.58 0.82 0.03
1 1.64 164 0.939 -9.759 3.548 -6.104 -2.502 3.967 -68.655 2352.717 -3972.562 -0.411 0.529 -0.297 0.01 -0.58 0.82 0.03
1 1.65 165 0.594 -9.433 3.515 -8.209 -5.035 7.172 -68.655 2352.717 -3972.562 -0.067 0.201 -0.271 0.01 -0.58 0.82 0.03
1 1.66 166 0.436 -9.161 3.462 -7.050 -6.134 6.683 -8.694 2382.698 -4107.624 0.079 -0.080 -0.239 0.01 -0.58 0.81 0.03
1 1.67 167 0.402 -9.089 3.285 -3.510 -5.981 4.517 -8.694 2382.698 -4107.624 0.107 -0.155 -0.069 0.01 -0.58 0.81 0.03
1 1.68 168 0.479 -9.161 3.342 -0.702 -5.005 1.984 51.117 2322.587 -3942.582 0.026 -0.084 -0.130 0.01 -0.58 0.81 0.03
1 1.69 169 0.498 -9.046 3.505 -0.427 -3.784 1.282 -23.685 2427.668 -3942.582 0.006 -0.199 -0.293 0.01 -0.58 0.81 0.03
1 1.70 170 0.575 -9.041 3.371 -0.824 -2.289 -0.031 -23.685 2427.668 -3942.582 -0.069 -0.203 -0.157 0.01 -0.58 0.81 0.03
1 1.71 171 0.584 -8.983 3.338 -2.106 -1.068 -1.984 -38.675 2337.577 -4062.653 -0.077 -0.261 -0.123 0.01 -0.58 0.81 0.03
1 1.72 172 0.713 -9.161 3.266 -1.465 0.214 -3.143 -38.675 2337.577 -4062.653 -0.203 -0.084 -0.052 0.01 -0.58 0.81 0.03
1 1.73 173 0.757 -9.237 3.304 -1.038 0.122 -3.937 81.247 2322.587 -3942.582 -0.241 -0.007 -0.092 0.01 -0.58 0.81 0.03
1 1.74 174 0.876 -9.347 3.414 -1.312 0.183 -1.312 -158.597 2337.577 -4002.692 -0.349 0.103 -0.203 0.01 -0.58 0.81 0.03
1 1.75 175 0.963 -9.596 3.472 -1.892 0.214 1.160 -188.727 2382.698 -3882.621 -0.431 0.352 -0.261 0.01 -0.58 0.81 0.03
1 1.76 176 0.728 -9.515 3.500 -4.639 0.671 3.265 36.126 2412.678 -3927.591 -0.197 0.270 -0.293 0.01 -0.58 0.81 0.03
1 1.77 177 0.737 -9.544 3.438 -6.104 1.373 3.784 36.126 2412.678 -3927.591 -0.210 0.296 -0.237 0.01 -0.58 0.81 0.03
1 1.78 178 0.555 -9.496 3.457 -3.662 0.519 2.625 -158.597 2307.597 -4002.692 -0.032 0.246 -0.263 0.01 -0.58 0.81 0.03
1 1.79 179 0.536 -9.252 3.333 -3.510 -1.526 3.204 -158.597 2307.597 -4002.692 -0.016 0.000 -0.142 0.01 -0.58 0.81 0.03
1 1.80 180 0.532 -9.156 3.381 -4.486 -4.669 3.326 -38.675 2262.626 -4002.692 -0.015 -0.097 -0.194 0.01 -0.58 0.81 0.03
1 1.81 181 0.579 -9.170 3.275 -3.448 -6.592 3.723 -23.685 2427.668 -3942.582 -0.067 -0.087 -0.099 0.01 -0.58 0.81 0.03
1 1.82 182 0.627 -9.036 3.251 -1.160 -5.707 2.960 51.117 2322.587 -3972.562 -0.117 -0.222 -0.079 0.01 -0.58 0.81 0.03
1 1.83 183 0.618 -9.208 3.309 -0.427 -4.822 1.221 -158.597 2337.577 -3957.572 -0.108 -0.050 -0.137 0.01 -0.58 0.81 0.03
1 1.84 184 0.713 -9.084 3.362 -0.885 -2.747 -0.031 -158.597 2337.577 -3957.572 -0.202 -0.174 -0.189 0.01 -0.58 0.81 0.03
1 1.85 185 0.809 -9.319 3.438 -3.052 -1.892 -0.580 -83.646 2412.678 -4002.692 -0.295 0.060 -0.266 0.01 -0.58 0.81 0.02
1 1.86 186 0.790 -9.410 3.477 -7.538 -0.824 -1.465 -83.646 2412.678 -4002.692 -0.272 0.150 -0.308 0.01 -0.58 0.81 0.03
1 1.87 187 0.876 -9.563 3.318 -7.233 1.068 -2.197 -113.626 2562.581 -3927.591 -0.354 0.301 -0.158 0.01 -0.58 0.81 0.03
1 1.88 188 0.852 -9.515 3.132 -2.350 3.082 -1.190 6.146 2322.587 -3912.601 -0.320 0.249 0.014 0.01 -0.58 0.81 0.03
1 1.89 189 0.766 -9.524 3.180 0.000 2.991 0.031 6.146 2247.636 -4017.683 -0.231 0.257 -0.037 0.01 -0.58 0.81 0.03
1 1.90 190 0.560 -9.419 3.247 0.031 1.038 2.441 -158.597 2382.698 -3882.621 -0.026 0.152 -0.104 0.01 -0.58 0.81 0.03
1 1.91 191 0.508 -9.510 3.290 -2.625 -2.808 4.639 -158.597 2382.698 -3882.621 0.023 0.243 -0.147 0.01 -0.58 0.81 0.03
1 1.92 192 0.374 -9.343 3.338 -6.561 -7.294 5.402 -98.636 2322.587 -3972.562 0.152 0.073 -0.200 0.01 -0.58 0.81 0.03
1 1.93 193 0.421 -9.098 3.213 -5.585 -8.514 2.838 -98.636 2322.587 -3972.562 0.100 -0.174 -0.085 0.01 -0.58 0.81 0.03
1 1.94 194 0.517 -9.165 3.208 -3.540 -6.378 0.366 -83.646 2262.626 -3852.640 0.003 -0.110 -0.088 0.01 -0.58 0.81 0.02
1 1.95 195 0.733 -9.199 3.237 -2.533 -2.197 -1.678 -83.646 2457.649 -3957.572 -0.212 -0.079 -0.123 0.02 -0.58 0.81 0.02
1 1.96 196 0.776 -9.079 3.295 -2.167 2.075 -2.655 6.146 2472.639 -3972.562 -0.246 -0.200 -0.186 0.02 -0.58 0.81 0.02
1 1.97 197 0.915 -9.161 3.199 -3.357 2.136 -2.563 -98.636 2352.717 -3867.630 -0.380 -0.119 -0.092 0.02 -0.58 0.81 0.03
1 1.98 198 0.929 -9.529 3.271 -3.845 2.197 -2.045 -98.636 2352.717 -3867.630 -0.389 0.249 -0.168 0.02 -0.58 0.81 0.03
1 1.99 199 0.642 -9.496 3.323 -2.563 1.892 -1.343 -98.636 2427.668 -3972.562 -0.098 0.214 -0.224 0.02 -0.58 0.81 0.03
1 2.00 200 0.527 -9.649 3.333 -2.747 3.082 -0.549 -98.636 2427.668 -3972.562 0.018 0.367 -0.237 0.02 -0.58 0.81 0.03
1 2.01 201 0.560 -9.649 3.232 -3.937 2.838 -0.275 -68.655 2397.688 -3942.582 -0.016 0.366 -0.138 0.02 -0.58 0.81 0.03
1 2.02 202 0.536 -9.592 3.261 -4.425 1.617 0.214 -113.626 2457.649 -3957.572 0.006 0.307 -0.171 0.01 -0.58 0.81 0.03
1 2.03 203 0.771 -9.702 3.050 -3.784 -2.106 1.221 -158.597 2457.649 -3957.572 -0.230 0.414 0.028 0.01 -0.59 0.81 0.03
1 2.04 204 0.666 -9.381 3.170 -1.373 -2.594 0.793 -98.636 2322.587 -4017.683 -0.123 0.091 -0.096 0.02 -0.59 0.81 0.03
1 2.05 205 0.747 -9.256 3.342 0.671 -1.923 0.214 -98.636 2322.587 -4017.683 -0.203 -0.034 -0.270 0.02 -0.59 0.81 0.03
1 2.06 206 0.800 -9.213 3.208 0.793 0.336 -0.305 -113.626 2217.655 -4002.692 -0.253 -0.076 -0.134 0.02 -0.59 0.81 0.03
1 2.07 207 0.651 -9.343 3.405 -1.038 1.129 0.336 -113.626 2217.655 -4002.692 -0.104 0.054 -0.329 0.02 -0.59 0.81 0.03
1 2.08 208 0.584 -9.343 3.247 -4.883 0.732 1.007 -38.675 2307.597 -4002.692 -0.036 0.054 -0.172 0.02 -0.59 0.81 0.03
1 2.09 209 0.565 -9.357 3.342 -3.967 0.549 -1.404 -83.646 2337.577 -3927.591 -0.018 0.066 -0.272 0.02 -0.59 0.81 0.03
1 2.10 210 0.752 -9.333 2.988 -1.221 1.434 -4.913 6.146 2352.717 -4122.614 -0.199 0.040 0.075 0.02 -0.59 0.81 0.03
1 2.11 211 0.943 -9.323 3.012 0.916 1.984 -5.310 -83.646 2412.678 -3927.591 -0.383 0.031 0.050 0.02 -0.59 0.81 0.03
1 2.12 212 0.761 -9.204 3.079 1.190 1.709 -3.571 -83.646 2412.678 -3927.591 -0.193 -0.088 -0.015 0.02 -0.59 0.81 0.03
1 2.13 213 0.536 -9.204 3.194 -0.488 0.122 -1.495 -98.636 2322.587 -3972.562 0.038 -0.087 -0.128 0.02 -0.59 0.81 0.03
1 2.14 214 0.541 -9.113 3.467 -4.608 -0.946 0.061 -98.636 2322.587 -3972.562 0.035 -0.178 -0.403 0.02 -0.59 0.81 0.03
1 2.15 215 0.618 -9.419 3.141 -7.874 0.549 -0.458 36.126 2262.626 -3957.572 -0.041 0.127 -0.082 0.02 -0.59 0.81 0.03
1 2.16 216 0.488 -9.328 2.964 -7.568 1.007 -0.854 -98.636 2277.616 -3942.582 0.089 0.033 0.086 0.02 -0.59 0.81 0.03
1 2.17 217 0.603 -9.505 2.988 -6.256 1.587 -0.183 -98.636 2277.616 -3942.582 -0.024 0.207 0.051 0.02 -0.59 0.81 0.03
1 2.18 218 0.737 -9.462 3.309 -3.876 0.641 0.854 51.117 2547.590 -4017.683 -0.160 0.158 -0.285 0.02 -0.59 0.81 0.03
1 2.19 219 0.661 -9.414 3.275 -5.524 0.061 0.793 51.117 2547.590 -4017.683 -0.084 0.109 -0.256 0.01 -0.59 0.81 0.03
1 2.20 220 0.594 -9.338 3.165 -6.500 -0.336 -0.397 -203.717 2277.616 -3942.582 -0.018 0.030 -0.152 0.01 -0.59 0.81 0.03
1 2.21 221 0.670 -9.180 3.055 -4.364 -0.549 -2.472 -203.717 2277.616 -3942.582 -0.093 -0.130 -0.050 0.01 -0.59 0.81 0.03
1 2.22 222 0.623 -9.204 3.050 -1.465 -0.732 -6.683 -188.727 2337.577 -3822.660 -0.040 -0.107 -0.050 0.02 -0.59 0.81 0.03
1 2.23 223 0.785 -9.261 3.055 -0.183 -0.397 -8.270 36.126 2337.577 -3852.640 -0.194 -0.050 -0.057 0.02 -0.59 0.81 0.03
1 2.24 224 0.785 -9.328 3.141 -1.373 -0.610 -8.118 36.126 2337.577 -3852.640 -0.182 0.017 -0.144 0.02 -0.59 0.81 0.03
1 2.25 225 0.900 -9.505 3.290 -5.402 0.580 -5.829 -38.675 2382.698 -4002.692 -0.271 0.195 -0.296 0.02 -0.59 0.81 0.03
1 2.26 226 0.895 -9.687 3.424 -6.500 2.014 -5.157 -38.675 2382.698 -4002.692 -0.257 0.375 -0.437 0.02 -0.59 0.81 0.03
1 2.27 227 1.006 -9.807 3.342 -5.951 4.761 -6.378 -98.636 2352.717 -3972.562 -0.359 0.493 -0.363 0.02 -0.59 0.81 0.03
1 2.28 228 0.819 -9.730 3.352 -3.906 5.890 -6.531 -98.636 2352.717 -3972.562 -0.163 0.416 -0.378 0.02 -0.59 0.81 0.03
1 2.29 229 0.857 -9.654 3.299 -2.258 4.700 -6.073 -98.636 2397.688 -3792.679 -0.194 0.339 -0.328 0.02 -0.59 0.81 0.03
1 2.30 230 0.857 -9.467 3.127 -2.655 1.770 -3.448 -173.737 2397.688 -3972.562 -0.186 0.152 -0.157 0.02 -0.59 0.81 0.04
1 2.31 231 0.603 -9.477 3.151 -2.380 -0.244 -2.747 -173.737 2397.688 -3972.562 0.073 0.161 -0.183 0.02 -0.59 0.81 0.04
1 2.32 232 0.575 -9.271 3.285 -0.641 -1.221 -3.174 -68.655 2472.639 -3912.601 0.109 -0.045 -0.321 0.02 -0.59 0.81 0.04
1 2.33 233 0.642 -9.141 3.189 0.580 -0.793 -5.402 -68.655 2472.639 -3912.601 0.047 -0.174 -0.224 0.02 -0.59 0.81 0.04
1 2.34 234 0.603 -9.213 3.223 2.319 -0.793 -7.568 -173.737 2352.717 -4017.683 0.094 -0.100 -0.254 0.02 -0.59 0.81 0.04
1 2.35 235 0.637 -9.405 3.266 2.869 -1.129 -7.172 -173.737 2352.717 -4017.683 0.071 0.094 -0.292 0.02 -0.59 0.81 0.04
1 2.36 236 0.824 -9.481 3.328 5.676 -0.549 -5.035 -113.626 2457.649 -4002.692 -0.106 0.173 -0.349 0.02 -0.59 0.81 0.04
1 2.37 237 1.020 -9.548 3.400 8.911 -2.075 -3.113 -8.694 2487.629 -4002.692 -0.296 0.244 -0.409 0.02 -0.59 0.81 0.04
1 2.38 238 1.259 -9.501 3.352 6.653 -3.967 -8.728 -8.694 2487.629 -4002.692 -0.527 0.201 -0.348 0.02 -0.59 0.81 0.04
1 2.39 239 1.317 -9.582 3.357 2.686 -0.397 -6.989 -128.616 2352.717 -3942.582 -0.571 0.288 -0.340 0.02 -0.59 0.81 0.04
1 2.40 240 0.828 -9.208 3.103 1.495 2.289 3.723 6.146 2397.688 -3972.562 -0.062 -0.081 -0.077 0.02 -0.59 0.81 0.04
1 2.41 241 0.910 -8.912 2.964 3.174 -0.092 3.723 -188.727 2262.626 -3927.591 -0.150 -0.377 0.066 0.02 -0.59 0.81 0.04
1 2.42 242 0.733 -9.046 2.911 5.066 -3.082 -1.648 -188.727 2262.626 -3927.591 0.025 -0.242 0.124 0.02 -0.59 0.81 0.04
1 2.43 243 0.752 -8.969 2.955 6.165 -3.510 -5.066 -113.626 2337.577 -3927.591 0.012 -0.316 0.087 0.02 -0.59 0.81 0.04
1 2.44 244 0.977 -9.261 3.189 2.289 1.678 -7.629 -128.616 2517.610 -3942.582 -0.204 -0.020 -0.140 0.02 -0.59 0.81 0.04
1 2.45 245 0.943 -9.654 3.208 -0.305 6.287 -1.556 -128.616 2517.610 -3942.582 -0.158 0.375 -0.154 0.02 -0.59 0.81 0.04
1 2.46 246 1.092 -9.582 3.184 -1.221 5.493 1.617 -113.626 2532.600 -3927.591 -0.303 0.304 -0.129 0.02 -0.59 0.81 0.04
1 2.47 247 1.322 -9.620 3.175 0.153 0.610 -0.305 -98.636 2397.688 -4092.634 -0.536 0.342 -0.121 0.02 -0.59 0.81 0.04
1 2.48 248 1.154 -9.644 3.041 2.655 -2.075 -0.488 -203.717 2427.668 -4017.683 -0.364 0.366 0.015 0.02 -0.59 0.81 0.04
1 2.49 249 1.173 -9.271 3.002 4.669 -4.272 -2.319 -203.717 2427.668 -4017.683 -0.379 -0.006 0.057 0.02 -0.59 0.81 0.04
1 2.50 250 1.125 -8.979 2.811 2.899 -4.547 -4.028 -83.646 2307.597 -4032.673 -0.321 -0.295 0.254 0.02 -0.59 0.81 0.04
1 2.51 251 1.087 -8.935 2.978 1.892 -1.587 -1.495 -38.675 2412.678 -3882.621 -0.274 -0.337 0.088 0.02 -0.59 0.81 0.04
1 2.52 252 1.015 -8.964 2.878 -0.122 0.854 0.610 -38.675 2412.678 -3882.621 -0.198 -0.307 0.191 0.02 -0.59 0.81 0.04
1 2.53 253 1.121 -9.271 2.883 -1.221 1.465 -3.784 -68.655 2517.610 -4092.634 -0.303 -0.001 0.186 0.02 -0.59 0.81 0.04
1 2.54 254 1.111 -9.510 3.060 -1.617 1.556 -5.585 -38.675 2382.698 -4107.624 -0.280 0.239 0.004 0.02 -0.59 0.81 0.04
1 2.55 255 1.283 -9.529 3.060 -2.167 0.153 -6.226 -158.597 2487.629 -3927.591 -0.443 0.257 0.000 0.02 -0.59 0.81 0.04
1 2.56 256 1.279 -9.797 3.285 -2.594 -0.214 -5.585 -158.597 2487.629 -3927.591 -0.427 0.525 -0.229 0.02 -0.59 0.81 0.04
1 2.57 257 1.082 -9.821 3.204 -4.395 0.214 -2.502 -113.626 2532.600 -3927.591 -0.221 0.549 -0.152 0.02 -0.59 0.81 0.04
1 2.58 258 0.939 -9.879 3.309 -3.387 0.092 8.514 -68.655 2397.688 -3912.601 -0.076 0.604 -0.264 0.02 -0.59 0.81 0.04
1 2.59 259 1.240 -9.965 3.266 -1.007 -3.754 9.338 -68.655 2397.688 -3912.601 -0.390 0.688 -0.225 0.02 -0.59 0.81 0.04
1 2.60 260 1.317 -9.520 3.194 2.472 -4.852 7.111 -113.626 2457.649 -3957.572 -0.475 0.241 -0.156 0.02 -0.59 0.81 0.04
1 2.61 261 1.240 -9.170 3.160 1.953 -4.608 7.324 -158.597 2262.626 -3957.572 -0.405 -0.109 -0.120 0.02 -0.59 0.81 0.04
1 2.62 262 1.058 -8.792 3.113 -2.167 -4.181 7.904 -23.685 2427.668 -4017.683 -0.231 -0.486 -0.068 0.02 -0.59 0.81 0.04
1 2.63 263 0.910 -8.777 3.007 -5.127 -4.639 8.606 -23.685 2427.668 -4017.683 -0.089 -0.502 0.034 0.02 -0.59 0.81 0.04
1 2.64 264 0.929 -8.773 3.074 -1.831 -2.930 7.690 -128.616 2427.668 -4197.565 -0.117 -0.510 -0.039 0.02 -0.59 0.81 0.04
1 2.65 265 1.101 -8.868 3.069 1.007 -0.854 5.127 -173.737 2397.688 -4017.683 -0.297 -0.415 -0.035 0.02 -0.59 0.81 0.04
1 2.66 266 1.216 -9.390 3.108 1.129 3.357 -0.305 -173.737 2397.688 -4017.683 -0.416 0.107 -0.071 0.02 -0.59 0.81 0.04
1 2.67 267 1.307 -9.649 3.093 0.275 6.348 -1.556 -128.616 2352.717 -4047.663 -0.508 0.367 -0.053 0.02 -0.59 0.81 0.04
1 2.68 268 1.317 -9.601 3.151 -1.221 5.249 -0.763 -113.626 2487.629 -4032.673 -0.514 0.320 -0.109 0.02 -0.59 0.81 0.04
1 2.69 269 1.212 -9.716 3.314 -4.364 3.754 3.448 -8.694 2382.698 -3927.591 -0.406 0.434 -0.274 0.02 -0.59 0.81 0.04
1 2.70 270 1.087 -9.615 3.098 -5.188 2.777 4.852 -8.694 2382.698 -3927.591 -0.285 0.332 -0.064 0.02 -0.59 0.81 0.04
1 2.71 271 0.886 -9.232 2.935 -3.937 1.129 5.066 -188.727 2562.581 -4032.673 -0.090 -0.054 0.092 0.02 -0.59 0.81 0.04
1 2.72 272 0.900 -9.199 2.768 -2.594 -0.549 3.021 -83.646 2337.577 -4107.624 -0.111 -0.090 0.254 0.02 -0.59 0.81 0.04
1 2.73 273 0.982 -8.983 2.749 0.458 -0.122 1.251 -83.646 2337.577 -4107.624 -0.195 -0.307 0.269 0.02 -0.59 0.81 0.04
1 2.74 274 1.302 -8.955 2.935 1.495 1.556 -2.350 -98.636 2427.668 -4017.683 -0.514 -0.336 0.083 0.02 -0.59 0.81 0.04
1 2.75 275 1.336 -9.615 2.988 1.465 4.334 -2.808 -173.737 2397.688 -3942.582 -0.543 0.326 0.032 0.02 -0.59 0.81 0.04
1 2.76 276 1.360 -9.491 3.213 3.143 7.294 3.845 -128.616 2472.639 -3972.562 -0.567 0.204 -0.185 0.02 -0.59 0.81 0.04
1 2.77 277 1.609 -9.759 3.247 -2.625 5.310 -1.373 -128.616 2472.639 -3972.562 -0.819 0.473 -0.215 0.02 -0.59 0.81 0.04
1 2.78 278 1.437 -9.874 3.218 -5.402 5.829 0.366 -83.646 2412.678 -3882.621 -0.642 0.587 -0.190 0.02 -0.59 0.81 0.04
1 2.79 279 1.226 -9.788 3.084 -9.430 5.219 5.920 -38.675 2307.597 -4002.692 -0.432 0.499 -0.064 0.02 -0.59 0.81 0.04
1 2.80 280 1.010 -9.711 3.084 -10.468 5.219 8.789 -38.675 2307.597 -4002.692 -0.225 0.417 -0.078 0.02 -0.59 0.81 0.04
1 2.81 281 0.905 -9.558 2.820 -4.761 6.409 8.301 -128.616 2397.688 -3912.601 -0.133 0.258 0.172 0.02 -0.59 0.81 0.04
1 2.82 282 0.919 -9.395 2.816 -1.160 6.104 6.958 -23.685 2517.610 -4017.683 -0.161 0.091 0.167 0.02 -0.59 0.81 0.04
1 2.83 283 0.915 -9.285 3.036 1.556 6.744 3.540 -23.685 2517.610 -4017.683 -0.168 -0.021 -0.057 0.02 -0.59 0.81 0.04
1 2.84 284 1.317 -9.467 3.055 2.472 8.423 -1.373 -83.646 2412.678 -3882.621 -0.582 0.161 -0.071 0.01 -0.59 0.81 0.04
1 2.85 285 1.149 -9.194 2.964 4.822 7.385 7.904 -8.694 2382.698 -3927.591 -0.417 -0.110 0.025 0.01 -0.59 0.81 0.04
1 2.86 286 1.585 -9.515 3.108 5.432 1.709 3.540 -128.616 2472.639 -3912.601 -0.863 0.213 -0.110 0.01 -0.59 0.81 0.04
1 2.87 287 1.839 -9.505 3.026 3.418 0.519 -2.563 -128.616 2472.639 -3912.601 -1.114 0.205 -0.022 0.01 -0.59 0.81 0.04
1 2.88 288 1.408 -9.314 3.160 -1.862 7.111 5.585 -8.694 2337.577 -3957.572 -0.672 0.016 -0.152 0.01 -0.59 0.81 0.04
1 2.89 289 1.034 -9.390 3.108 -7.446 11.993 12.329 -8.694 2142.704 -3957.572 -0.298 0.092 -0.100 0.01 -0.59 0.81 0.04
1 2.90 290 0.508 -9.362 3.223 -8.850 13.947 16.541 -8.694 2142.704 -3957.572 0.213 0.060 -0.222 0.01 -0.59 0.81 0.04
1 2.91 291 0.120 -9.529 2.868 -2.930 8.118 14.404 -23.685 2352.717 -3912.601 0.541 0.217 0.114 0.01 -0.59 0.81 0.04
1 2.92 292 0.292 -9.390 3.079 2.838 4.761 8.179 81.247 2277.616 -3972.562 0.343 0.076 -0.099 0.01 -0.59 0.81 0.04
1 2.93 293 0.589 -9.280 3.127 7.080 3.662 2.533 36.126 2412.678 -3957.572 0.031 -0.033 -0.141 0.01 -0.59 0.81 0.04
1 2.94 294 1.097 -9.410 3.098 8.148 5.341 -0.397 36.126 2412.678 -3957.572 -0.481 0.100 -0.101 0.01 -0.59 0.81 0.04
1 2.95 295 1.523 -9.213 3.170 5.768 8.301 1.526 6.146 2352.717 -3942.582 -0.907 -0.093 -0.160 0.01 -0.59 0.81 0.04
1 2.96 296 1.623 -9.280 3.041 -0.214 10.681 4.700 -38.675 2457.649 -3852.640 -1.009 -0.023 -0.022 0.01 -0.59 0.81 0.04
1 2.97 297 1.628 -9.371 2.940 -2.472 11.292 7.294 -38.675 2457.649 -3852.640 -1.017 0.068 0.080 0.01 -0.59 0.81 0.04
1 2.98 298 1.451 -9.505 2.902 -4.059 12.329 11.383 96.237 2412.678 -3957.572 -0.859 0.199 0.110 0 -0.59 0.81 0.05
1 2.99 299 1.226 -9.759 2.911 -1.984 14.099 12.207 51.117 2322.587 -3972.562 -0.650 0.450 0.096 0 -0.59 0.81 0.05
1 3.00 300 0.838 -9.841 3.127 1.373 14.740 10.407 96.237 2337.577 -4062.653 -0.280 0.529 -0.121 0 -0.59 0.81 0.05
1 3.01 301 0.584 -9.764 3.400 3.448 13.214 7.416 96.237 2337.577 -4062.653 -0.044 0.453 -0.391 0 -0.59 0.81 0.05
1 3.02 302 0.464 -9.687 3.678 1.190 11.139 6.012 -83.646 2307.597 -4002.692 0.060 0.377 -0.663 -0 -0.59 0.81 0.05
1 3.03 303 0.249 -9.572 3.793 -2.960 6.897 5.066 126.218 2397.688 -4047.663 0.263 0.263 -0.773 -0 -0.59 0.81 0.05
1 3.04 304 0.177 -9.477 3.635 -3.662 4.486 3.845 126.218 2397.688 -4047.663 0.323 0.167 -0.613 -0 -0.59 0.81 0.05
1 3.05 305 0.081 -9.381 3.553 -2.716 2.350 2.777 81.247 2472.639 -4017.683 0.408 0.071 -0.532 -0 -0.59 0.81 0.05
1 3.06 306 0.158 -9.510 3.347 0.336 -0.153 0.000 201.169 2397.688 -3762.549 0.317 0.200 -0.325 -0 -0.59 0.81 0.05
1 3.07 307 0.201 -9.592 3.409 3.357 1.495 1.404 -113.626 2487.629 -3957.572 0.270 0.282 -0.384 -0 -0.59 0.81 0.05
1 3.08 308 0.297 -9.601 3.328 6.561 2.533 2.808 -113.626 2487.629 -3957.572 0.169 0.294 -0.295 -0 -0.59 0.81 0.05
1 3.09 309 0.460 -9.697 3.376 8.118 3.448 2.319 171.188 2412.678 -3927.591 -0.001 0.393 -0.331 -0 -0.59 0.81 0.05
1 3.10 310 0.967 -9.802 3.400 11.139 5.798 0.763 141.208 2382.698 -3957.572 -0.514 0.503 -0.341 -0 -0.59 0.81 0.05
1 3.11 311 1.111 -9.582 3.194 12.085 7.599 0.854 141.208 2382.698 -3957.572 -0.661 0.288 -0.118 -0 -0.59 0.81 0.05
1 3.12 312 1.264 -9.462 3.213 12.512 10.681 1.862 201.169 2397.688 -3972.562 -0.815 0.175 -0.118 -0.01 -0.58 0.81 0.05
1 3.13 313 1.283 -9.184 3.328 12.909 11.749 4.120 141.208 2337.577 -3882.621 -0.838 -0.090 -0.195 -0.01 -0.58 0.81 0.05
1 3.14 314 1.168 -9.089 3.429 8.942 11.169 6.287 96.237 2412.678 -3927.591 -0.729 -0.180 -0.277 -0.01 -0.58 0.81 0.05
1 3.15 315 0.977 -8.902 3.635 4.395 10.101 7.294 96.237 2412.678 -3927.591 -0.546 -0.363 -0.469 -0.01 -0.58 0.81 0.05
1 3.16 316 0.656 -8.854 3.438 -0.824 9.430 7.538 96.237 2412.678 -3927.591 -0.237 -0.408 -0.265 -0.01 -0.58 0.81 0.05
1 3.17 317 0.441 -8.979 3.395 -1.190 11.200 2.014 126.218 2277.616 -4017.683 -0.032 -0.284 -0.221 -0.01 -0.58 0.81 0.05
1 3.18 318 0.000 -9.113 3.347 4.608 13.672 -2.167 126.218 2277.616 -4017.683 0.399 -0.150 -0.173 -0.01 -0.58 0.81 0.05
1 3.19 319 -0.378 -9.218 3.223 10.223 14.923 -5.829 216.159 2412.678 -4032.673 0.772 -0.043 -0.041 -0.01 -0.58 0.81 0.05
1 3.20 320 -0.809 -9.266 3.079 11.871 11.963 -2.899 156.198 2397.688 -3972.562 1.193 0.016 0.135 -0.01 -0.58 0.81 0.05
1 3.21 321 -0.752 -9.184 3.189 8.637 4.486 0.092 126.218 2202.665 -4017.683 1.124 -0.060 0.041 -0.01 -0.58 0.81 0.05
1 3.22 322 -0.287 -9.668 3.520 11.627 2.014 -4.364 126.218 2202.665 -4017.683 0.651 0.427 -0.277 -0.01 -0.58 0.81 0.05
1 3.23 323 0.043 -9.505 3.491 13.947 1.770 -4.334 201.169 2247.636 -3942.582 0.321 0.271 -0.230 -0.01 -0.58 0.81 0.05
1 3.24 324 0.316 -9.496 3.706 8.484 1.282 -3.448 156.198 2247.636 -4092.634 0.050 0.268 -0.427 -0.01 -0.58 0.82 0.05
1 3.25 325 0.675 -9.572 3.816 0.916 4.242 0.153 156.198 2247.636 -4092.634 -0.307 0.349 -0.525 -0.01 -0.58 0.82 0.05
1 3.26 326 0.642 -9.520 3.860 -2.319 3.937 2.075 216.159 2307.597 -3957.572 -0.275 0.298 -0.562 -0.01 -0.58 0.82 0.05
1 3.27 327 0.498 -9.285 3.855 -3.784 2.472 2.655 216.159 2307.597 -3957.572 -0.133 0.064 -0.557 -0.01 -0.58 0.82 0.05
1 3.28 328 0.488 -9.232 3.582 0.885 0.854 3.571 246.140 2262.626 -4032.673 -0.132 0.010 -0.285 -0.02 -0.58 0.82 0.05
1 3.29 329 0.445 -9.098 3.572 4.761 1.282 4.059 246.140 2262.626 -4032.673 -0.094 -0.122 -0.271 -0.02 -0.58 0.82 0.05
1 3.30 330 0.436 -9.094 3.529 7.996 0.641 5.371 156.198 2322.587 -4017.683 -0.090 -0.124 -0.218 -0.02 -0.58 0.82 0.05
1 3.31 331 0.278 -9.113 3.520 11.353 -0.183 6.531 216.159 2262.626 -4107.624 0.061 -0.099 -0.194 -0.02 -0.57 0.82 0.05
1 3.32 332 -0.005 -8.907 3.663 10.193 -2.960 6.622 216.159 2262.626 -4107.624 0.334 -0.299 -0.320 -0.02 -0.57 0.82 0.05
1 3.33 333 -0.340 -9.050 3.678 8.118 -1.465 3.876 321.241 2382.698 -4062.653 0.659 -0.150 -0.317 -0.02 -0.57 0.82 0.05
1 3.34 334 -0.441 -8.916 3.826 7.660 0.641 2.136 321.241 2382.698 -4062.653 0.752 -0.279 -0.450 -0.02 -0.57 0.82 0.05
1 3.35 335 -0.273 -8.969 3.620 5.249 1.892 -2.869 216.159 2412.678 -4062.653 0.568 -0.217 -0.218 -0.02 -0.57 0.82 0.05
1 3.36 336 -0.077 -9.050 3.740 5.646 2.502 -6.012 216.159 2412.678 -4062.653 0.371 -0.132 -0.328 -0.02 -0.57 0.82 0.05
1 3.37 337 0.029 -8.955 3.821 6.775 2.441 -6.378 291.110 2307.597 -4032.673 0.269 -0.224 -0.400 -0.02 -0.57 0.82 0.05
1 3.38 338 0.278 -8.940 3.726 4.974 1.709 -5.096 201.169 2322.587 -4092.634 0.026 -0.234 -0.292 -0.02 -0.57 0.82 0.05
1 3.39 339 0.455 -9.137 3.682 4.120 2.686 -4.364 201.169 2322.587 -4092.634 -0.146 -0.033 -0.239 -0.02 -0.57 0.82 0.05
1 3.40 340 0.455 -9.103 3.654 5.188 3.326 -3.265 66.107 2217.655 -4032.673 -0.140 -0.064 -0.202 -0.02 -0.57 0.82 0.05
1 3.41 341 0.168 -8.892 3.587 3.326 2.777 -2.167 66.107 2217.655 -4032.673 0.151 -0.271 -0.126 -0.02 -0.57 0.82 0.05
1 3.42 342 0.077 -9.122 3.505 5.554 1.953 -1.678 321.241 2262.626 -4062.653 0.245 -0.036 -0.031 -0.02 -0.57 0.82 0.05
1 3.43 343 0.014 -9.271 3.534 10.101 3.906 -1.068 321.241 2262.626 -4062.653 0.306 0.117 -0.050 -0.02 -0.57 0.82 0.05
1 3.44 344 -0.125 -9.481 3.764 11.536 4.700 -0.916 201.169 2322.587 -4047.663 0.441 0.333 -0.265 -0.02 -0.57 0.82 0.05
1 3.45 345 -0.196 -9.515 3.936 9.674 4.883 -2.350 306.250 2202.665 -3972.562 0.509 0.372 -0.421 -0.02 -0.57 0.82 0.05
1 3.46 346 -0.158 -9.405 3.946 7.141 4.547 -5.188 306.250 2202.665 -3972.562 0.468 0.268 -0.416 -0.02 -0.57 0.82 0.05
1 3.47 347 0.091 -9.352 3.826 2.655 1.099 -8.301 201.169 2247.636 -4122.614 0.222 0.220 -0.285 -0.02 -0.56 0.82 0.06
1 3.48 348 0.101 -9.275 3.773 3.082 -0.519 -8.637 201.169 2247.636 -4122.614 0.220 0.146 -0.226 -0.02 -0.56 0.82 0.06
1 3.49 349 0.225 -9.113 3.726 5.981 -0.336 -7.843 201.169 2277.616 -3942.582 0.105 -0.015 -0.173 -0.02 -0.56 0.82 0.06
1 3.50 350 0.311 -9.070 3.548 12.848 1.099 -4.944 156.198 2202.665 -4092.634 0.037 -0.048 0.027 -0.02 -0.56 0.82 0.06
1 3.51 351 0.297 -8.935 3.692 14.832 2.625 -3.693 141.208 2307.597 -4062.653 0.057 -0.175 -0.098 -0.02 -0.56 0.82 0.06
1 3.52 352 0.259 -8.902 3.893 14.221 3.662 -4.486 171.188 2382.698 -4107.624 0.099 -0.200 -0.277 -0.02 -0.56 0.83 0.06
1 3.53 353 0.287 -8.983 3.793 13.275 2.686 -5.432 171.188 2382.698 -4107.624 0.074 -0.109 -0.155 -0.02 -0.56 0.83 0.06
1 3.54 354 0.211 -9.079 3.816 11.292 0.366 -4.974 156.198 2172.685 -4047.663 0.156 -0.005 -0.159 -0.02 -0.56 0.83 0.06
1 3.55 355 0.101 -9.141 3.879 10.529 -3.082 -3.143 156.198 2172.685 -4047.663 0.270 0.064 -0.203 -0.02 -0.56 0.83 0.06
1 3.56 356 0.254 -8.969 3.678 10.407 -5.554 -2.014 156.198 2172.685 -4167.585 0.123 -0.102 0.013 -0.02 -0.56 0.83 0.06
1 3.57 357 0.503 -9.117 3.635 9.827 -4.395 -3.906 156.198 2097.583 -4047.663 -0.115 0.059 0.084 -0.02 -0.56 0.83 0.06
1 3.58 358 0.532 -8.821 3.563 9.613 -2.441 -5.219 156.198 2127.714 -4122.614 -0.137 -0.232 0.169 -0.01 -0.56 0.83 0.06
1 3.59 359 0.441 -9.271 3.658 8.362 0.610 -5.280 336.231 2052.613 -4197.565 -0.035 0.224 0.086 -0.01 -0.56 0.83 0.06
1 3.60 360 0.417 -9.386 3.721 7.813 1.617 -2.014 336.231 2052.613 -4197.565 -0.006 0.343 0.034 -0.01 -0.56 0.83 0.06
1 3.61 361 0.503 -9.711 3.893 7.599 0.580 -2.075 66.107 2112.574 -4062.653 -0.091 0.672 -0.129 -0.01 -0.55 0.83 0.06
1 3.62 362 0.632 -9.845 4.046 10.132 2.136 -3.784 66.107 2112.574 -4062.653 -0.217 0.811 -0.273 -0.01 -0.55 0.83 0.06
1 3.63 363 0.532 -9.773 4.176 10.681 3.387 -4.242 141.208 2187.675 -4062.653 -0.110 0.744 -0.389 -0.01 -0.55 0.83 0.06
1 3.64 364 0.259 -9.558 3.922 5.829 1.617 4.578 171.188 2142.704 -4032.673 0.170 0.540 -0.109 -0.01 -0.55 0.83 0.06
1 3.65 365 0.508 -9.515 3.869 6.226 -2.747 5.554 216.159 2217.655 -4137.604 -0.088 0.500 -0.049 -0.01 -0.55 0.83 0.06
1 3.66 366 0.699 -9.366 3.606 12.695 -7.111 7.202 246.140 2067.603 -4257.676 -0.285 0.355 0.223 -0.01 -0.55 0.83 0.06
1 3.67 367 0.881 -8.940 3.606 20.813 -11.139 10.712 246.140 2067.603 -4257.676 -0.473 -0.064 0.241 -0.01 -0.55 0.83 0.06
1 3.68 368 1.111 -8.543 3.553 23.804 -12.390 8.423 201.169 2172.685 -4197.565 -0.707 -0.450 0.321 -0.01 -0.55 0.83 0.06
1 3.69 369 1.513 -8.414 3.591 20.844 -2.014 -0.732 201.169 2172.685 -4197.565 -1.107 -0.565 0.314 -0.01 -0.55 0.83 0.06
1 3.70 370 0.948 -8.299 3.117 16.052 7.202 2.014 291.110 1994.001 -4059.355 -0.532 -0.667 0.818 -0.01 -0.55 0.84 0.06
1 3.71 371 0.431 -8.404 3.074 7.782 8.972 2.411 126.068 2098.933 -4044.365 -0.011 -0.551 0.884 -0.01 -0.55 0.84 0.06
1 3.72 372 0.196 -8.825 3.223 5.493 6.928 -4.700 276.120 2008.991 -4044.365 0.213 -0.124 0.749 -0.01 -0.55 0.84 0.06
1 3.73 373 0.244 -9.271 3.242 7.507 3.845 -11.108 96.087 2113.923 -4179.427 0.168 0.323 0.734 -0.01 -0.54 0.84 0.06
1 3.74 374 0.464 -9.553 3.783 7.813 3.693 -15.778 96.087 2113.923 -4179.427 -0.038 0.609 0.199 -0.01 -0.54 0.84 0.06
1 3.75 375 0.929 -9.649 3.989 6.165 6.592 -16.693 81.097 2128.913 -4014.385 -0.483 0.708 -0.000 -0.01 -0.54 0.84 0.06
1 3.76 376 0.857 -9.668 3.793 -13.580 0.732 -0.854 81.097 2128.913 -4014.385 -0.394 0.730 0.200 -0.01 -0.54 0.84 0.06
1 3.77 377 1.413 -10.185 4.128 -17.242 -3.754 5.951 141.058 1888.919 -4104.326 -0.946 1.241 -0.150 -0.01 -0.54 0.84 0.06
1 3.78 378 1.609 -10.018 4.027 -2.380 -0.549 8.911 156.198 2053.962 -4164.437 -1.143 1.061 -0.077 -0.01 -0.55 0.84 0.06
1 3.79 379 1.551 -9.390 3.855 17.456 4.303 3.540 291.110 2038.972 -4314.339 -1.105 0.435 0.099 -0.01 -0.55 0.84 0.06
1 3.80 380 0.852 -8.916 3.563 17.761 6.134 6.378 126.068 2053.962 -4119.466 -0.405 -0.029 0.414 -0.01 -0.54 0.84 0.06
1 3.81 381 0.666 -8.773 3.457 13.031 3.387 10.742 126.068 2053.962 -4119.466 -0.228 -0.164 0.540 -0.01 -0.54 0.84 0.06
1 3.82 382 0.402 -8.787 3.443 11.383 0.641 10.681 201.169 2008.991 -4194.417 0.021 -0.144 0.569 -0.01 -0.54 0.84 0.06
1 3.83 383 0.125 -8.835 3.237 13.184 -1.556 7.172 201.169 2008.991 -4194.417 0.286 -0.091 0.788 -0.01 -0.54 0.84 0.06
1 3.84 384 -0.014 -8.897 3.409 14.435 -5.890 0.336 171.188 1964.021 -4254.378 0.417 -0.023 0.630 -0.01 -0.54 0.84 0.06
1 3.85 385 -0.292 -9.031 3.529 12.665 -7.629 1.038 246.140 1843.949 -4254.378 0.695 0.118 0.524 -0.01 -0.54 0.84 0.06
1 3.86 386 -0.426 -9.563 4.046 4.761 -9.308 2.167 171.188 1994.001 -4179.427 0.826 0.660 0.030 -0.01 -0.54 0.84 0.06
1 3.87 387 -0.354 -9.864 4.295 -2.075 -8.850 2.563 126.068 1903.910 -4164.437 0.750 0.962 -0.218 -0.01 -0.54 0.84 0.06
1 3.88 388 -0.091 -10.085 4.568 -9.125 -9.125 0.031 126.068 1903.910 -4164.437 0.483 1.178 -0.498 -0.01 -0.54 0.84 0.06
1 3.89 389 0.651 -10.195 4.927 -24.902 -9.003 1.984 156.198 2008.991 -4224.398 -0.253 1.281 -0.876 -0.01 -0.54 0.84 0.06
1 3.90 390 1.494 -10.597 5.670 -43.579 -6.561 10.529 156.198 2008.991 -4224.398 -1.096 1.664 -1.660 -0.01 -0.54 0.84 0.06
1 3.91 391 3.151 -10.942 7.073 -64.575 0.671 22.186 156.198 1903.910 -4089.336 -2.767 1.979 -3.128 -0.01 -0.55 0.84 0.05
1 3.92 392 4.434 -10.813 7.772 -81.787 3.723 20.233 96.087 1918.900 -4284.359 -4.078 1.812 -3.911 -0.01 -0.55 0.83 0.05
1 3.93 393 5.579 -11.162 7.767 -83.802 15.289 22.766 96.087 1918.900 -4284.359 -5.253 2.115 -4.013 -0.01 -0.56 0.83 0.05
1 3.94 394 5.267 -10.343 5.995 -28.229 45.868 31.555 156.198 1933.890 -4014.385 -5.033 1.211 -2.447 -0.02 -0.56 0.82 0.05
1 3.95 395 3.855 -8.696 4.401 34.973 64.820 31.098 156.198 1933.890 -4014.385 -3.693 -0.444 -0.869 -0.02 -0.57 0.82 0.05
1 3.96 396 1.781 -7.082 2.639 88.166 77.118 28.076 276.120 2204.014 -4044.365 -1.685 -2.030 0.967 -0.03 -0.56 0.83 0.05
1 3.97 397 -0.148 -5.550 0.934 116.700 80.109 9.338 276.120 2204.014 -4044.365 0.177 -3.507 2.809 -0.03 -0.55 0.83 0.05
1 3.98 398 -2.437 -3.936 0.268 91.645 56.091 -8.331 336.081 2204.014 -4014.385 2.411 -5.053 3.635 -0.04 -0.55 0.83 0.06
1 3.99 399 -3.678 -3.893 1.049 44.495 37.323 -17.212 231.149 2128.913 -3969.414 3.622 -5.035 2.991 -0.04 -0.54 0.84 0.06
1 4.00 400 -4.971 -4.650 2.102 -17.059 25.452 -26.886 231.149 2128.913 -3969.414 4.909 -4.243 2.016 -0.04 -0.54 0.84 0.06
1 4.01 401 -6.216 -7.662 3.342 -116.883 29.327 -54.016 411.182 2008.991 -4194.417 6.207 -1.274 0.681 -0.04 -0.54 0.84 0.07
1 4.02 402 -6.326 -11.478 3.362 -160.950 39.429 -63.019 411.182 2008.991 -4194.417 6.333 2.464 0.483 -0.05 -0.55 0.83 0.07
1 4.03 403 -5.550 -14.907 2.729 -122.925 19.348 -26.795 606.205 1979.011 -4224.398 5.615 5.802 0.896 -0.05 -0.56 0.82 0.08
1 4.04 404 -3.975 -14.572 2.576 -31.830 -19.104 25.116 606.205 1979.011 -4224.398 4.053 5.412 0.907 -0.05 -0.57 0.82 0.08
1 4.05 405 -2.184 -11.588 2.279 50.141 -54.321 46.051 381.202 2053.962 -4089.336 2.231 2.423 1.191 -0.05 -0.57 0.82 0.07
1 4.06 406 -0.316 -7.944 2.169 91.065 -82.764 33.325 396.192 2219.004 -4029.375 0.333 -1.187 1.389 -0.05 -0.56 0.82 0.07
1 4.07 407 0.963 -6.632 2.691 61.646 -72.602 26.459 396.192 2219.004 -4029.375 -0.961 -2.454 0.981 -0.04 -0.56 0.83 0.06
1 4.08 408 1.839 -6.000 3.524 -28.900 -10.010 19.257 306.101 2204.014 -3909.453 -1.838 -3.034 0.273 -0.04 -0.55 0.83 0.05
1 4.09 409 1.551 -6.623 3.601 -80.231 29.633 12.421 306.101 2204.014 -3909.453 -1.576 -2.437 0.136 -0.04 -0.55 0.83 0.05
1 4.10 410 0.541 -7.437 3.644 -100.220 49.500 4.120 336.081 1933.890 -4119.466 -0.600 -1.672 -0.029 -0.04 -0.56 0.83 0.05
1 4.11 411 -1.551 -11.780 3.395 -76.233 48.981 62.897 336.081 1933.890 -4119.466 1.447 2.618 0.081 -0.04 -0.57 0.82 0.05
1 4.12 412 -5.330 -6.278 1.968 21.118 -13.214 -4.395 396.192 2038.972 -4029.375 5.106 -2.913 1.425 -0.05 -0.57 0.82 0.05
1 4.13 413 -5.785 -6.790 1.106 37.079 -65.094 -38.574 321.091 2308.946 -4059.355 5.524 -2.396 2.298 -0.05 -0.57 0.82 0.05
1 4.14 414 -4.654 -6.872 0.790 40.619 -99.152 -58.899 321.091 2308.946 -4059.355 4.449 -2.298 2.662 -0.05 -0.57 0.82 0.05
1 4.15 415 -3.951 -6.843 -0.101 61.341 -99.518 -33.966 381.202 2053.962 -3864.333 3.850 -2.309 3.605 -0.04 -0.57 0.82 0.05
1 4.16 416 -3.816 -4.281 -1.274 68.695 -95.490 0.122 396.192 2038.972 -3954.424 3.902 -4.801 4.955 -0.02 -0.56 0.83 0.04
1 4.17 417 -4.262 -3.184 -0.819 37.384 -93.170 -0.702 321.091 2038.972 -4104.326 4.402 -5.862 4.585 -0.02 -0.55 0.83 0.04
1 4.18 418 -4.793 -3.256 0.733 -14.099 -87.555 -9.857 321.091 2038.972 -4104.326 4.991 -5.775 3.066 -0.01 -0.55 0.83 0.04
1 4.19 419 -5.674 -4.233 4.013 -83.954 -71.808 -23.071 276.120 1933.890 -4119.466 5.940 -4.816 -0.259 -0.01 -0.56 0.83 0.03
1 4.20 420 -3.783 -6.359 13.173 -218.018 -17.944 -56.366 156.198 1858.939 -4044.365 4.123 -2.748 -9.570 -0 -0.56 0.83 0.03
1 4.21 421 -0.924 -17.023 8.940 -296.845 45.197 -85.144 156.198 1858.939 -4044.365 1.329 7.821 -5.595 0 -0.57 0.82 0.03
1 4.22 422 9.228 -36.781 0.498 -254.884 -21.027 39.307 51.117 2053.962 -4089.336 -8.726 27.449 2.453 0 -0.59 0.81 0.04
1 4.23 423 12.656 -13.355 9.687 127.594 -52.979 218.934 -8.694 2189.024 -3819.362 -12.431 3.867 -7.244 -0.01 -0.61 0.79 0.03
1 4.24 424 11.670 -6.354 7.121 221.925 -124.390 50.659 -8.245 2460.047 -3919.646 -11.676 -3.073 -4.443 -0.01 -0.6 0.8 0.01
1 4.25 425 11.177 -6.216 6.125 168.458 -97.687 -45.502 -8.245 2460.047 -3919.646 -11.154 -3.118 -3.136 -0 -0.59 0.81 0.01
1 4.26 426 8.773 -7.398 5.832 54.016 15.472 -27.557 96.537 2415.077 -3739.764 -8.650 -1.867 -2.643 0 -0.58 0.81 0.01
1 4.27 427 3.299 -7.896 4.702 -53.772 115.021 7.965 -38.225 2490.028 -3769.744 -3.176 -1.357 -1.477 0 -0.58 0.82 0.01
1 4.28 428 -5.646 -10.185 2.615 -127.289 158.051 -17.609 -38.225 2490.028 -3769.744 5.706 0.899 0.516 -0.01 -0.58 0.81 0.01
1 4.29 429 -9.726 -12.594 2.404 -122.925 95.764 -47.363 -23.235 2100.132 -4009.738 9.714 3.252 0.558 -0.02 -0.59 0.81 0.02
1 4.30 430 -8.615 -14.303 2.710 -45.502 -60.944 -29.053 81.547 2325.135 -3709.783 8.669 4.868 -0.063 -0.02 -0.6 0.8 0.03
1 4.31 431 -3.970 -13.820 3.031 29.114 -132.477 -8.575 141.508 2385.096 -3739.764 4.091 4.374 -0.424 -0.01 -0.61 0.8 0.03
1 4.32 432 0.958 -13.638 3.433 86.579 -164.582 10.254 141.508 2385.096 -3739.764 -0.772 4.210 -0.763 -0.01 -0.6 0.8 0.02
1 4.33 433 5.593 -11.675 4.994 102.295 -147.919 35.736 81.547 2325.135 -3679.653 -5.364 2.286 -2.195 0 -0.6 0.8 0.01
1 4.34 434 8.533 -8.457 6.053 78.003 -79.712 34.607 6.596 2280.015 -3679.653 -8.299 -0.890 -3.117 0.01 -0.59 0.81 0.01
1 4.35 435 7.532 -5.770 4.947 21.362 30.609 -17.090 6.596 2280.015 -3679.653 -7.311 -3.546 -1.914 0.01 -0.59 0.81 0
1 4.36 436 4.985 -6.235 3.601 -0.946 70.801 -33.569 -68.206 2400.086 -3754.754 -4.759 -3.067 -0.525 0.01 -0.59 0.81 0
1 4.37 437 2.174 -7.350 2.524 -18.127 78.858 -26.245 -173.287 2325.135 -3859.686 -1.881 -1.941 0.578 0.01 -0.58 0.81 0.01
1 4.38 438 -0.718 -9.280 1.710 -37.109 31.128 -12.329 -68.206 2205.063 -3964.767 1.011 -0.030 1.336 0.01 -0.59 0.81 0.02
1 4.39 439 -1.082 -10.257 2.375 -36.682 -20.569 -10.284 -68.206 2205.063 -3964.767 1.378 0.927 0.609 0 -0.59 0.81 0.02
1 4.40 440 -0.733 -10.607 3.625 -26.062 -54.230 -11.383 -128.316 2130.112 -3829.705 1.047 1.259 -0.699 0.01 -0.59 0.81 0.02
1 4.41 441 0.091 -10.674 4.520 -8.637 -53.284 -11.688 -128.316 2205.063 -3859.686 0.265 1.317 -1.628 0.01 -0.59 0.8 0.02
1 4.42 442 0.857 -10.008 4.051 21.393 -12.970 -3.815 -128.316 2205.063 -3859.686 -0.464 0.650 -1.168 0.01 -0.59 0.8 0.02
1 4.43 443 1.116 -9.194 3.242 37.018 5.829 4.822 -8.245 2460.047 -3844.695 -0.705 -0.156 -0.336 0.02 -0.59 0.81 0.01
1 4.44 444 1.030 -8.193 2.916 38.788 5.463 11.993 -98.336 2175.083 -3964.767 -0.621 -1.141 0.041 0.02 -0.59 0.81 0.01
1 4.45 445 1.202 -7.183 3.132 13.092 -9.918 13.001 -68.206 2250.034 -3784.734 -0.825 -2.121 -0.075 0.01 -0.59 0.81 0.01
1 4.46 446 1.470 -7.116 3.678 -12.268 -15.564 7.294 -68.206 2250.034 -3784.734 -1.104 -2.185 -0.612 0.01 -0.59 0.81 0.01
1 4.47 447 1.762 -7.595 4.046 -33.692 -15.045 0.397 -98.336 2355.116 -3859.686 -1.397 -1.715 -1.007 0.01 -0.59 0.81 0.01
1 4.48 448 2.231 -8.667 4.362 -42.023 -12.054 -4.120 -68.206 2325.135 -3904.656 -1.859 -0.659 -1.377 0.02 -0.59 0.81 0.01
1 4.49 449 2.294 -9.654 4.310 -26.672 -5.310 -3.387 -68.206 2325.135 -3904.656 -1.897 0.313 -1.370 0.02 -0.59 0.81 0.01
1 4.50 450 1.595 -9.228 4.075 13.489 -0.122 -13.092 -83.346 2190.073 -3919.646 -1.182 -0.120 -1.159 0.02 -0.59 0.81 0.01
1 4.51 451 0.967 -8.926 3.965 24.719 -0.427 -12.573 -173.287 2325.135 -3829.705 -0.527 -0.414 -1.030 0.02 -0.59 0.81 0.01
1 4.52 452 0.283 -8.844 3.773 15.350 -2.747 -5.219 -38.225 2310.145 -3844.695 0.202 -0.467 -0.757 0.02 -0.59 0.81 0.01
1 4.53 453 -0.192 -8.888 3.318 -0.732 -10.315 4.669 -38.225 2310.145 -3844.695 0.681 -0.417 -0.280 0.02 -0.59 0.81 0.01
1 4.54 454 0.081 -9.060 3.160 -8.575 -19.867 7.050 -128.316 2175.083 -3709.783 0.401 -0.245 -0.124 0.02 -0.59 0.81 0.01
1 4.55 455 0.785 -9.242 3.472 -2.045 -22.980 2.411 -203.268 2205.063 -3784.734 -0.305 -0.067 -0.445 0.02 -0.59 0.81 0.01
1 4.56 456 1.446 -9.113 3.663 9.155 -23.682 -1.160 -203.268 2205.063 -3784.734 -0.957 -0.195 -0.634 0.02 -0.59 0.81 0.01
1 4.57 457 1.877 -8.232 3.630 15.106 -19.165 -1.312 -173.287 2250.034 -3904.656 -1.370 -1.069 -0.583 0.02 -0.59 0.81 0.01
1 4.58 458 2.064 -8.361 3.654 8.972 -13.947 -3.082 -308.349 2340.125 -3994.748 -1.537 -0.930 -0.581 0.03 -0.59 0.81 0.01
1 4.59 459 2.069 -8.461 3.620 4.089 -4.517 -2.747 -308.349 2340.125 -3994.748 -1.519 -0.822 -0.527 0.03 -0.58 0.81 0.01
1 4.60 460 1.523 -8.686 3.658 0.031 5.310 3.906 -188.277 2220.054 -3919.646 -0.945 -0.588 -0.545 0.03 -0.58 0.81 0.01
1 4.61 461 1.269 -9.094 3.845 -1.801 7.233 6.409 -128.316 2205.063 -3904.656 -0.693 -0.179 -0.727 0.03 -0.58 0.81 0.01
1 4.62 462 0.685 -9.395 3.907 -2.808 6.683 7.355 -278.219 2100.132 -3784.734 -0.116 0.123 -0.786 0.03 -0.58 0.81 0.01
1 4.63 463 0.498 -9.381 4.104 -3.357 2.411 4.822 -278.219 2100.132 -3784.734 0.060 0.108 -0.982 0.03 -0.58 0.81 0.01
1 4.64 464 0.527 -9.237 3.793 -0.275 -9.644 1.221 -128.316 2250.034 -3904.656 0.025 -0.035 -0.669 0.03 -0.58 0.81 0.01
1 4.65 465 0.891 -9.170 3.242 5.585 -17.792 -3.998 -188.277 2310.145 -3874.676 -0.340 -0.101 -0.115 0.03 -0.58 0.81 0.01
1 4.66 466 1.188 -8.878 2.950 13.916 -22.736 -3.265 -188.277 2310.145 -3874.676 -0.625 -0.390 0.184 0.03 -0.58 0.81 0.01
1 4.67 467 1.336 -8.696 3.409 17.853 -19.165 4.211 -158.297 2220.054 -3844.695 -0.739 -0.557 -0.237 0.03 -0.58 0.81 0.01
1 4.68 468 1.317 -8.782 3.797 9.033 -12.573 9.094 -248.238 2325.135 -3829.705 -0.714 -0.462 -0.601 0.03 -0.58 0.81 0.01
1 4.69 469 1.484 -8.912 3.745 -3.998 -9.522 4.669 -233.248 2190.073 -3919.646 -0.882 -0.329 -0.537 0.03 -0.58 0.81 0.01
1 4.70 470 1.422 -9.275 3.625 -13.458 -5.371 -3.662 -233.248 2190.073 -3919.646 -0.812 0.033 -0.424 0.03 -0.58 0.81 0.01
1 4.71 471 1.298 -9.410 3.405 -13.855 -3.632 -8.118 -278.219 2250.034 -3829.705 -0.672 0.162 -0.220 0.03 -0.58 0.81 0.01
1 4.72 472 1.279 -9.175 2.988 -6.317 -4.639 -5.951 -203.268 2175.083 -4009.738 -0.635 -0.077 0.179 0.04 -0.58 0.81 0.01
1 4.73 473 1.796 -9.745 3.213 2.197 -3.204 -8.820 -203.268 2175.083 -4009.738 -1.139 0.490 -0.059 0.04 -0.58 0.81 0.01
1 4.74 474 1.791 -9.424 3.697 12.268 2.411 -0.427 -398.291 2130.112 -3829.705 -1.099 0.175 -0.532 0.04 -0.58 0.81 0.01
1 4.75 475 1.729 -9.309 4.094 6.683 4.211 5.005 -278.219 2205.063 -3964.767 -1.031 0.067 -0.911 0.04 -0.58 0.81 0.01
1 4.76 476 1.389 -9.089 4.089 -5.493 5.371 7.324 -233.248 2115.122 -3814.715 -0.693 -0.150 -0.895 0.04 -0.58 0.81 0.01
1 4.77 477 1.030 -8.935 3.754 -14.587 4.303 8.087 -233.248 2115.122 -3814.715 -0.342 -0.305 -0.565 0.04 -0.58 0.81 0.01
1 4.78 478 0.862 -8.844 3.275 -15.350 0.641 4.028 -188.277 2340.125 -3874.676 -0.183 -0.403 -0.103 0.04 -0.58 0.81 0.01
1 4.79 479 1.053 -8.844 2.921 -0.671 -4.517 -5.127 -113.326 2190.073 -3844.695 -0.377 -0.409 0.234 0.04 -0.58 0.81 0.01
1 4.80 480 1.125 -8.840 2.892 8.759 -3.876 -8.179 -113.326 2190.073 -3844.695 -0.439 -0.415 0.256 0.04 -0.58 0.81 0.01
1 4.81 481 1.121 -8.773 3.022 10.040 0.122 -6.683 -203.268 2325.135 -3964.767 -0.418 -0.478 0.135 0.04 -0.58 0.81 0.01
1 4.82 482 0.910 -8.859 3.443 -3.906 5.859 1.617 -278.219 2250.034 -3604.702 -0.188 -0.383 -0.265 0.04 -0.58 0.81 0.01
1 4.83 483 0.613 -9.103 3.505 -15.564 5.859 4.517 -338.330 2220.054 -3844.695 0.105 -0.142 -0.334 0.04 -0.58 0.81 0.01
1 4.84 484 0.450 -9.199 3.184 -20.935 4.883 3.754 -338.330 2220.054 -3844.695 0.258 -0.054 -0.034 0.04 -0.58 0.81 0.01
1 4.85 485 0.283 -9.228 3.156 -15.808 3.479 0.183 -233.248 2265.024 -3874.676 0.418 -0.035 -0.031 0.04 -0.58 0.81 0.01
1 4.86 486 0.503 -9.304 3.223 -1.465 2.655 -4.272 -38.225 2310.145 -3919.646 0.194 0.036 -0.117 0.04 -0.58 0.81 0.01
1 4.87 487 0.694 -9.381 3.256 3.174 1.343 -4.334 -38.225 2310.145 -3919.646 0.004 0.111 -0.155 0.04 -0.58 0.81 0.01
1 4.88 488 0.953 -9.371 3.630 2.014 3.784 -3.876 -278.219 2205.063 -3859.686 -0.251 0.103 -0.524 0.04 -0.58 0.81 0.01
1 4.89 489 1.121 -9.453 3.606 -3.082 10.345 -1.251 -323.339 2325.135 -3754.754 -0.411 0.188 -0.492 0.03 -0.58 0.81 0.01
1 4.90 490 1.183 -9.491 3.472 -6.195 11.047 0.336 -158.297 2190.073 -3814.715 -0.473 0.225 -0.360 0.03 -0.58 0.81 0.01
1 4.91 491 0.800 -9.448 3.453 -7.080 8.270 0.275 -158.297 2190.073 -3814.715 -0.093 0.180 -0.347 0.03 -0.58 0.81 0.01
1 4.92 492 0.713 -9.520 3.251 -4.608 6.256 -3.662 -308.349 2310.145 -3769.744 -0.008 0.249 -0.153 0.03 -0.58 0.81 0.02
1 4.93 493 0.484 -9.630 3.362 1.373 3.448 -8.881 -248.238 2250.034 -3829.705 0.226 0.359 -0.266 0.03 -0.58 0.81 0.02
1 4.94 494 0.527 -9.601 3.419 9.460 -0.702 -12.970 -248.238 2250.034 -3829.705 0.193 0.333 -0.318 0.03 -0.58 0.81 0.02
1 4.95 495 0.699 -9.347 3.366 7.202 -3.937 -11.688 -233.248 2340.125 -3814.715 0.038 0.085 -0.251 0.03 -0.58 0.81 0.02
1 4.96 496 0.474 -9.405 3.017 6.622 -1.190 -6.317 -233.248 2310.145 -3844.695 0.294 0.153 0.121 0.03 -0.58 0.81 0.02
1 4.97 497 0.445 -9.477 3.113 3.418 -1.099 -2.289 -323.339 2205.063 -3784.734 0.328 0.228 0.033 0.04 -0.58 0.81 0.02
1 4.98 498 0.599 -9.563 3.271 -1.678 -2.014 1.617 -323.339 2205.063 -3784.734 0.174 0.314 -0.123 0.04 -0.58 0.81 0.02
1 4.99 499 0.819 -9.821 3.625 -4.028 -1.648 2.716 -368.310 2115.122 -3919.646 -0.049 0.571 -0.481 0.04 -0.58 0.81 0.02
1 5.00 500 0.790 -9.730 3.788 -1.007 0.641 3.876 -248.238 2175.083 -3904.656 -0.024 0.479 -0.648 0.04 -0.58 0.81 0.02
1 5.01 501 0.761 -9.587 3.764 -0.244 -1.587 2.014 -248.238 2175.083 -3904.656 -0.001 0.335 -0.621 0.03 -0.58 0.81 0.02
1 5.02 502 1.015 -9.548 3.577 0.671 -2.838 0.946 -203.268 2175.083 -3859.686 -0.260 0.298 -0.432 0.03 -0.58 0.81 0.02
1 5.03 503 1.039 -9.496 3.342 5.951 -2.930 2.319 -203.268 2175.083 -3859.686 -0.283 0.246 -0.194 0.03 -0.58 0.81 0.02
1 5.04 504 1.030 -9.007 3.333 11.688 -5.249 -0.458 -188.277 2145.103 -3874.676 -0.272 -0.235 -0.163 0.04 -0.58 0.81 0.02
1 5.05 505 1.231 -9.012 3.151 10.925 -5.524 -3.510 -188.277 2145.103 -3874.676 -0.466 -0.223 0.037 0.04 -0.58 0.81 0.02
1 5.06 506 1.178 -8.921 3.223 8.545 -4.364 -2.655 -278.219 2250.034 -3934.637 -0.403 -0.309 -0.021 0.04 -0.58 0.81 0.02
1 5.07 507 0.891 -8.777 3.069 6.378 -2.655 -1.984 -248.238 2175.083 -3934.637 -0.107 -0.447 0.144 0.04 -0.58 0.81 0.02
1 5.08 508 0.886 -8.797 2.844 -0.336 -6.256 -6.287 -248.238 2175.083 -3934.637 -0.096 -0.425 0.377 0.04 -0.58 0.81 0.02
1 5.09 509 0.824 -9.084 2.998 0.854 -3.571 -7.782 -278.219 2205.063 -4039.718 -0.022 -0.137 0.224 0.04 -0.58 0.81 0.02
1 5.10 510 0.838 -9.252 3.036 4.761 -0.488 -6.348 -278.219 2205.063 -4039.718 -0.022 0.031 0.183 0.04 -0.58 0.81 0.02
1 5.11 511 0.781 -9.189 3.184 5.585 0.092 -2.075 -203.268 2175.083 -3934.637 0.046 -0.028 0.039 0.04 -0.58 0.81 0.02
1 5.12 512 1.111 -9.563 3.682 -3.052 -2.045 -2.838 -248.238 2055.161 -3859.386 -0.275 0.349 -0.449 0.04 -0.58 0.82 0.02
1 5.13 513 1.087 -9.817 3.797 -5.920 -1.343 3.204 -278.219 2175.233 -3859.386 -0.246 0.602 -0.568 0.04 -0.58 0.82 0.02
1 5.14 514 0.943 -9.362 3.831 -6.378 -3.021 7.294 -248.238 2205.213 -3904.356 -0.107 0.145 -0.608 0.04 -0.58 0.81 0.02
1 5.15 515 1.044 -9.501 3.740 -6.317 -4.669 5.646 -248.238 2205.213 -3904.356 -0.215 0.281 -0.523 0.04 -0.58 0.81 0.02
1 5.16 516 0.790 -8.964 3.366 1.373 -4.364 6.500 -188.277 2070.301 -3949.327 0.034 -0.258 -0.155 0.04 -0.58 0.81 0.02
1 5.17 517 0.661 -8.648 3.275 4.211 -5.432 1.526 -188.277 2070.301 -3949.327 0.156 -0.574 -0.063 0.04 -0.58 0.81 0.02
1 5.18 518 0.704 -8.629 3.050 4.944 -7.507 -7.965 -353.170 2250.184 -3964.317 0.117 -0.588 0.176 0.04 -0.58 0.82 0.02
1 5.19 519 0.934 -8.595 3.055 2.289 -5.188 -11.200 -353.170 2250.184 -3964.317 -0.097 -0.618 0.177 0.04 -0.58 0.82 0.02
1 5.20 520 0.800 -8.955 2.998 2.258 -0.427 -12.268 -278.219 2175.233 -3934.337 0.057 -0.256 0.238 0.04 -0.58 0.82 0.02
1 5.21 521 0.709 -9.089 3.041 4.364 2.228 -13.367 -368.160 1995.200 -3949.327 0.165 -0.119 0.198 0.04 -0.58 0.82 0.02
1 5.22 522 1.058 -9.587 2.907 2.777 1.160 -16.541 -368.160 1995.200 -3949.327 -0.166 0.382 0.337 0.04 -0.58 0.82 0.02
1 5.23 523 1.226 -10.224 3.491 -1.617 1.221 -14.618 -323.189 2280.165 -3829.405 -0.310 1.022 -0.247 0.04 -0.58 0.82 0.02
1 5.24 524 1.499 -10.224 3.682 -5.646 -0.397 -8.911 -323.189 2280.165 -3829.405 -0.560 1.023 -0.441 0.04 -0.58 0.82 0.02
1 5.25 525 1.374 -10.195 3.754 -8.575 -3.052 -0.244 -338.180 2145.252 -3814.415 -0.420 0.994 -0.519 0.04 -0.58 0.82 0.02
1 5.26 526 1.389 -10.042 3.879 -1.923 -7.294 2.716 -263.229 2115.272 -3949.327 -0.429 0.834 -0.665 0.04 -0.58 0.81 0.02
1 5.27 527 1.106 -9.472 3.749 7.172 -8.331 5.035 -248.238 2205.213 -3859.386 -0.147 0.263 -0.536 0.04 -0.58 0.81 0.02
1 5.28 528 1.063 -9.424 3.955 9.399 -8.453 5.463 -338.180 2220.204 -3919.347 -0.105 0.220 -0.729 0.04 -0.58 0.81 0.02
1 5.29 529 0.833 -8.955 3.951 8.240 -8.331 8.118 -338.180 2220.204 -3919.347 0.120 -0.244 -0.708 0.04 -0.58 0.82 0.02
1 5.30 530 0.666 -8.528 3.979 5.402 -8.637 2.808 -338.180 2190.223 -3844.396 0.280 -0.666 -0.722 0.04 -0.58 0.82 0.02
1 5.31 531 0.747 -8.380 3.749 3.998 -8.057 -1.129 -338.180 2190.223 -3844.396 0.195 -0.810 -0.479 0.04 -0.58 0.82 0.02
1 5.32 532 0.824 -8.289 3.472 7.050 -7.477 -4.456 -428.271 2250.184 -3859.386 0.122 -0.897 -0.191 0.05 -0.57 0.82 0.02
1 5.33 533 1.192 -8.275 3.108 16.174 -6.592 -9.674 -368.160 2220.204 -3949.327 -0.225 -0.898 0.203 0.05 -0.57 0.82 0.02
1 5.34 534 1.494 -8.308 3.261 20.905 -6.439 -8.698 -353.170 2205.213 -3829.405 -0.507 -0.854 0.074 0.05 -0.57 0.82 0.02
1 5.35 535 1.954 -8.370 3.433 18.066 -5.035 -10.529 -353.170 2130.262 -3829.405 -0.947 -0.779 -0.069 0.05 -0.57 0.82 0.02
1 5.36 536 2.193 -8.528 3.826 7.080 -1.526 -8.759 -353.170 2130.262 -3829.405 -1.163 -0.610 -0.439 0.05 -0.57 0.82 0.02
1 5.37 537 2.251 -8.787 3.951 -6.073 3.723 -4.547 -398.291 2010.190 -3934.337 -1.202 -0.346 -0.555 0.05 -0.57 0.82 0.02
1 5.38 538 2.193 -9.074 3.879 -21.301 9.735 -1.465 -398.291 2010.190 -3934.337 -1.132 -0.060 -0.492 0.05 -0.57 0.82 0.02
1 5.39 539 1.906 -9.165 3.773 -22.369 11.200 -1.526 -503.222 2130.262 -3964.317 -0.837 0.023 -0.409 0.05 -0.57 0.82 0.02
1 5.40 540 1.662 -9.165 3.386 -14.374 8.179 -5.341 -263.229 2190.223 -3874.376 -0.583 0.006 -0.070 0.05 -0.57 0.82 0.03
1 5.41 541 1.480 -9.089 3.357 -9.125 3.906 -8.606 -398.291 2130.262 -3859.386 -0.391 -0.075 -0.059 0.05 -0.57 0.82 0.03
1 5.42 542 1.379 -9.041 3.376 -4.211 1.556 -10.773 -338.180 2070.301 -3949.327 -0.276 -0.125 -0.087 0.05 -0.57 0.82 0.03
1 5.43 543 1.279 -9.079 3.352 -4.059 1.099 -9.369 -338.180 2070.301 -3949.327 -0.159 -0.086 -0.068 0.05 -0.57 0.82 0.03
1 5.44 544 1.331 -9.357 3.433 -6.683 3.235 -6.561 -368.160 2115.272 -3919.347 -0.199 0.191 -0.155 0.05 -0.57 0.82 0.03
1 5.45 545 1.302 -9.659 3.462 -7.050 10.284 -4.822 -368.160 2115.272 -3919.347 -0.162 0.491 -0.192 0.05 -0.57 0.82 0.03
1 5.46 546 1.164 -9.773 3.620 -6.226 14.038 -3.754 -398.291 2100.282 -3904.356 -0.019 0.603 -0.359 0.05 -0.58 0.82 0.03
1 5.47 547 0.934 -9.769 3.726 -9.430 10.864 -1.160 -248.238 2205.213 -3859.386 0.210 0.596 -0.470 0.05 -0.58 0.82 0.03
1 5.48 548 1.030 -9.745 3.745 -10.376 3.387 -0.427 -263.229 2310.295 -3874.376 0.106 0.564 -0.510 0.05 -0.58 0.81 0.03
1 5.49 549 1.192 -9.659 3.567 -3.784 1.343 0.763 -473.242 2130.262 -3859.386 -0.060 0.474 -0.343 0.05 -0.58 0.81 0.03
1 5.50 550 1.168 -9.366 3.362 0.244 -0.732 1.587 -473.242 2130.262 -3859.386 -0.038 0.181 -0.139 0.05 -0.58 0.81 0.03
1 5.51 551 1.269 -9.448 3.453 0.549 0.580 1.526 -248.238 2130.262 -3904.356 -0.141 0.262 -0.229 0.05 -0.58 0.81 0.03
1 5.52 552 1.331 -9.338 3.678 -1.038 6.958 4.364 -248.238 2130.262 -3904.356 -0.207 0.153 -0.451 0.05 -0.58 0.81 0.03
1 5.53 553 1.393 -9.261 3.812 -2.594 8.179 5.341 -323.189 2175.233 -3829.405 -0.276 0.076 -0.583 0.05 -0.58 0.81 0.03
1 5.54 554 1.159 -9.161 3.764 -5.127 6.195 5.798 -308.199 2190.223 -3874.376 -0.052 -0.025 -0.534 0.05 -0.58 0.81 0.03
1 5.55 555 1.202 -9.141 3.558 -5.554 1.862 4.639 -398.291 2205.213 -3784.435 -0.114 -0.049 -0.334 0.04 -0.58 0.81 0.03
1 5.56 556 1.269 -8.868 3.673 -2.655 0.244 3.784 -338.180 2220.204 -3874.376 -0.186 -0.324 -0.454 0.04 -0.58 0.81 0.03
1 5.57 557 1.097 -8.811 3.682 0.580 2.563 2.106 -338.180 2220.204 -3874.376 -0.017 -0.382 -0.462 0.04 -0.58 0.81 0.03
1 5.58 558 0.953 -8.682 3.730 1.526 7.721 0.000 -248.238 2175.233 -3904.356 0.122 -0.510 -0.505 0.04 -0.58 0.81 0.03
1 5.59 559 1.044 -8.902 3.716 -0.336 13.336 -3.113 -248.238 2175.233 -3904.356 0.027 -0.287 -0.483 0.04 -0.58 0.81 0.03
1 5.60 560 1.121 -9.252 3.611 0.763 17.242 -10.895 -278.219 2280.165 -3904.356 -0.051 0.064 -0.373 0.04 -0.58 0.81 0.03
1 5.61 561 1.441 -9.371 3.481 2.838 13.489 -14.496 -368.160 2220.204 -3919.347 -0.366 0.187 -0.237 0.04 -0.58 0.81 0.04
1 5.62 562 1.743 -9.472 3.630 7.294 3.754 -14.893 -323.189 2205.213 -3964.317 -0.636 0.297 -0.368 0.04 -0.58 0.82 0.04
1 5.63 563 1.848 -9.611 3.606 8.392 0.397 -11.017 -308.199 2115.272 -3949.327 -0.720 0.443 -0.332 0.04 -0.58 0.82 0.04
1 5.64 564 1.949 -9.505 3.697 7.111 1.953 -5.310 -308.199 2115.272 -3949.327 -0.802 0.344 -0.411 0.04 -0.57 0.82 0.04
1 5.65 565 1.767 -9.429 3.855 0.610 4.730 0.305 -308.199 2310.295 -3874.376 -0.610 0.272 -0.559 0.04 -0.57 0.82 0.04
1 5.66 566 1.326 -9.122 3.759 -7.660 7.141 4.639 -308.199 2310.295 -3874.376 -0.171 -0.033 -0.461 0.04 -0.57 0.82 0.04
1 5.67 567 0.943 -8.940 3.558 -11.749 6.805 5.096 -233.248 2220.204 -3874.376 0.203 -0.219 -0.268 0.04 -0.57 0.82 0.04
1 5.68 568 0.843 -8.955 3.251 -8.972 3.723 1.373 -248.238 2250.184 -3934.337 0.293 -0.211 0.026 0.04 -0.58 0.82 0.04
1 5.69 569 0.828 -8.979 3.323 -0.916 1.984 -1.312 -248.238 2250.184 -3934.337 0.300 -0.192 -0.057 0.04 -0.58 0.82 0.04
1 5.70 570 1.250 -8.667 3.333 4.669 1.801 -5.402 -353.170 2325.285 -3859.386 -0.121 -0.502 -0.065 0.04 -0.58 0.82 0.04
1 5.71 571 1.403 -8.763 3.333 5.402 4.211 -7.629 -353.170 2325.285 -3859.386 -0.266 -0.403 -0.056 0.04 -0.58 0.82 0.04
1 5.72 572 1.417 -8.873 3.433 3.510 8.362 -8.514 -353.170 2250.184 -3784.435 -0.270 -0.288 -0.147 0.04 -0.58 0.82 0.04
1 5.73 573 1.384 -8.993 3.505 0.000 11.810 -9.033 -353.170 2250.184 -3784.435 -0.228 -0.165 -0.212 0.04 -0.57 0.82 0.04
1 5.74 574 1.350 -9.237 3.477 -2.869 7.660 -8.484 -248.238 2280.165 -3904.356 -0.187 0.082 -0.181 0.04 -0.57 0.82 0.05
1 5.75 575 1.245 -9.381 3.486 -3.052 2.747 -8.087 -338.180 2265.174 -3769.444 -0.074 0.226 -0.192 0.04 -0.57 0.82 0.05
1 5.76 576 1.077 -9.457 3.678 -2.991 0.366 -6.470 -338.180 2265.174 -3769.444 0.104 0.303 -0.386 0.04 -0.57 0.82 0.05
1 5.77 577 1.111 -9.467 3.553 -3.784 1.526 0.671 -398.291 2100.282 -3964.317 0.083 0.312 -0.267 0.04 -0.58 0.82 0.05
1 5.78 578 1.264 -9.357 3.558 -3.204 3.204 5.890 -398.291 2100.282 -3964.317 -0.075 0.200 -0.276 0.04 -0.58 0.82 0.05
1 5.79 579 1.192 -9.170 3.457 -0.366 3.357 7.813 -338.180 2190.223 -3919.347 -0.013 0.011 -0.177 0.04 -0.58 0.82 0.05
1 5.80 580 1.398 -8.912 3.371 4.364 1.434 6.897 -338.180 2190.223 -3919.347 -0.232 -0.248 -0.088 0.04 -0.58 0.82 0.05
1 5.81 581 1.705 -8.830 3.366 6.073 -0.183 3.143 -308.199 2220.204 -3919.347 -0.546 -0.328 -0.076 0.04 -0.57 0.82 0.05
1 5.82 582 1.844 -8.763 3.376 6.531 -0.061 0.824 -338.180 2115.272 -3874.376 -0.685 -0.392 -0.076 0.04 -0.57 0.82 0.05
1 5.83 583 1.954 -8.754 3.481 2.869 1.007 -2.960 -338.180 2115.272 -3874.376 -0.791 -0.397 -0.171 0.04 -0.57 0.82 0.05
1 5.84 584 1.863 -9.328 3.620 -4.608 7.904 -5.554 -278.219 2250.184 -3754.304 -0.681 0.183 -0.302 0.04 -0.57 0.82 0.05
1 5.85 585 1.575 -9.333 3.553 -8.728 9.003 -4.791 -278.219 2250.184 -3754.304 -0.385 0.187 -0.240 0.04 -0.57 0.82 0.05
1 5.86 586 1.432 -9.659 3.716 -11.505 8.698 -3.326 -353.170 2175.233 -3964.317 -0.237 0.510 -0.413 0.04 -0.57 0.82 0.05
1 5.87 587 1.259 -9.654 3.457 -10.407 4.028 -0.916 -353.170 2175.233 -3964.317 -0.062 0.500 -0.168 0.04 -0.58 0.82 0.05
1 5.88 588 1.283 -9.477 3.486 -7.507 -1.312 1.007 -278.219 2280.165 -3829.405 -0.087 0.319 -0.209 0.04 -0.58 0.82 0.05
1 5.89 589 1.379 -9.419 3.500 -1.648 -3.235 5.463 -248.238 2250.184 -3934.337 -0.184 0.258 -0.232 0.04 -0.58 0.81 0.05
1 5.90 590 1.403 -9.132 3.390 -0.885 -2.869 7.019 -248.238 2250.184 -3934.337 -0.212 -0.031 -0.125 0.04 -0.58 0.81 0.05
1 5.91 591 1.322 -8.969 3.448 -1.068 -0.122 7.477 -248.238 2250.184 -3829.405 -0.137 -0.195 -0.183 0.04 -0.58 0.81 0.05
1 5.92 592 1.269 -8.983 3.524 -0.671 1.038 5.524 -233.248 2190.223 -3814.415 -0.103 -0.183 -0.260 0.04 -0.58 0.81 0.05
1 5.93 593 1.159 -8.849 3.630 -0.885 0.000 3.479 -338.180 2145.252 -3844.396 0.000 -0.317 -0.364 0.04 -0.58 0.81 0.05
1 5.94 594 1.159 -8.734 3.505 -1.434 -0.641 1.434 -338.180 2145.252 -3844.396 -0.004 -0.432 -0.238 0.04 -0.58 0.82 0.05
1 5.95 595 1.063 -8.940 3.496 -2.777 -1.862 -0.305 -323.189 2175.233 -3904.356 0.092 -0.227 -0.228 0.04 -0.58 0.82 0.05
1 5.96 596 1.274 -9.117 3.457 -4.547 -0.885 -1.221 -128.167 2130.262 -3904.356 -0.117 -0.050 -0.192 0.04 -0.58 0.81 0.05
1 5.97 597 1.408 -9.261 3.333 -3.845 1.953 -0.519 -128.167 2130.262 -3904.356 -0.248 0.093 -0.072 0.04 -0.58 0.81 0.05
1 5.98 598 1.475 -9.390 3.357 -1.251 6.104 1.434 -323.189 2325.285 -3784.435 -0.314 0.220 -0.101 0.04 -0.58 0.81 0.05
1 5.99 599 1.212 -9.271 3.357 -0.122 6.989 9.522 -233.248 2265.174 -3844.396 -0.064 0.099 -0.101 0.04 -0.58 0.81 0.05
1 6.00 600 1.207 -9.218 3.481 -1.312 3.052 12.421 -413.281 2265.174 -3814.415 -0.075 0.044 -0.225 0.04 -0.58 0.81 0.05
1 6.01 601 1.255 -8.988 3.309 -3.418 -2.655 8.453 -413.281 2265.174 -3814.415 -0.140 -0.188 -0.053 0.04 -0.58 0.81 0.05
1 6.02 602 1.106 -9.103 3.165 -7.141 -4.730 11.108 -263.229 2145.252 -3949.327 -0.000 -0.076 0.084 0.04 -0.58 0.81 0.05
1 6.03 603 1.154 -8.859 3.046 -9.399 -5.280 13.550 -233.248 2265.174 -3844.396 -0.062 -0.326 0.192 0.04 -0.58 0.81 0.05
1 6.04 604 1.393 -8.883 2.729 -6.653 0.946 10.651 -233.248 2265.174 -3844.396 -0.317 -0.309 0.493 0.04 -0.58 0.81 0.05
1 6.05 605 1.829 -8.916 2.744 -2.411 5.157 11.383 -233.248 2070.301 -3844.396 -0.766 -0.282 0.465 0.03 -0.58 0.81 0.05
1 6.06 606 2.198 -9.146 3.132 -1.007 12.360 13.489 -203.268 2205.213 -3859.386 -1.165 -0.060 0.066 0.03 -0.58 0.81 0.04
1 6.07 607 2.222 -9.486 3.524 -3.296 17.426 14.648 -323.189 2205.213 -3934.337 -1.207 0.278 -0.327 0.03 -0.58 0.81 0.04
1 6.08 608 2.480 -9.443 3.491 -9.491 19.257 16.144 -323.189 2205.213 -3934.337 -1.487 0.232 -0.296 0.03 -0.58 0.81 0.04
1 6.09 609 2.672 -9.414 3.520 -15.930 19.470 11.414 -98.186 2280.165 -3859.386 -1.699 0.197 -0.336 0.03 -0.58 0.81 0.04
1 6.10 610 2.413 -9.539 3.285 -17.059 20.538 4.517 -203.268 2205.213 -3784.435 -1.451 0.314 -0.119 0.03 -0.58 0.81 0.05
1 6.11 611 2.045 -9.462 3.208 -11.169 26.489 5.341 -203.268 2205.213 -3784.435 -1.087 0.230 -0.063 0.03 -0.58 0.81 0.05
1 6.12 612 1.666 -9.510 3.060 -5.096 28.229 8.423 -233.248 2265.174 -3949.327 -0.717 0.272 0.071 0.03 -0.58 0.81 0.05
1 6.13 613 1.417 -9.352 2.950 -3.571 23.407 11.261 -158.297 2340.275 -3949.327 -0.485 0.111 0.176 0.02 -0.58 0.81 0.05
1 6.14 614 1.365 -9.256 2.993 -5.066 16.724 8.820 -98.186 2175.233 -3829.405 -0.476 0.008 0.125 0.02 -0.58 0.81 0.05
1 6.15 615 1.212 -9.036 2.940 -5.554 15.472 9.674 -98.186 2175.233 -3829.405 -0.340 -0.216 0.172 0.02 -0.58 0.81 0.05
1 6.16 616 1.020 -9.204 3.170 -5.035 16.388 9.277 51.566 2325.285 -3709.333 -0.165 -0.052 -0.064 0.02 -0.58 0.81 0.05
1 6.17 617 0.886 -9.065 3.299 -4.639 19.806 12.878 -8.245 2220.204 -3769.444 -0.051 -0.194 -0.198 0.02 -0.58 0.81 0.05
1 6.18 618 0.618 -9.074 3.242 -4.608 27.466 17.151 -8.245 2220.204 -3769.444 0.189 -0.188 -0.143 0.01 -0.58 0.81 0.05
1 6.19 619 0.541 -9.395 3.232 -1.160 31.189 18.280 -113.176 2220.204 -3874.376 0.228 0.129 -0.135 0.01 -0.58 0.81 0.05
1 6.20 620 0.455 -9.165 3.017 0.153 30.640 18.707 -68.206 2325.285 -3784.435 0.273 -0.103 0.082 0.01 -0.58 0.81 0.05
1 6.21 621 0.699 -8.998 3.462 -1.648 24.414 8.148 -128.167 2250.184 -3709.333 -0.049 -0.276 -0.360 0 -0.58 0.81 0.05
1 6.22 622 1.484 -9.208 3.553 0.854 22.522 -2.594 -128.167 2250.184 -3709.333 -0.853 -0.065 -0.448 0 -0.58 0.81 0.05
1 6.23 623 1.714 -9.505 3.496 1.007 21.362 -6.012 36.576 2310.295 -3769.444 -1.082 0.234 -0.383 0 -0.58 0.81 0.05
1 6.24 624 1.168 -9.548 3.544 -4.089 19.989 -2.350 66.557 2145.252 -3949.327 -0.531 0.279 -0.427 0 -0.58 0.81 0.06
1 6.25 625 1.116 -9.433 3.606 -11.871 19.196 -7.019 66.557 2145.252 -3949.327 -0.480 0.162 -0.494 -0 -0.58 0.81 0.06
1 6.26 626 0.560 -10.137 3.611 -14.435 26.398 -12.848 51.566 2280.165 -3859.386 0.082 0.862 -0.513 -0 -0.58 0.81 0.06
1 6.27 627 -0.172 -10.353 3.615 -14.557 27.527 -6.104 156.648 2355.266 -3964.317 0.822 1.072 -0.535 -0 -0.59 0.81 0.06
1 6.28 628 -0.771 -10.535 3.663 -9.186 18.585 3.448 171.788 2266.523 -3944.980 1.407 1.242 -0.616 -0.01 -0.59 0.81 0.06
1 6.29 629 -1.221 -10.688 3.371 0.275 7.477 9.094 171.788 2266.523 -3944.980 1.842 1.392 -0.333 -0.01 -0.59 0.81 0.06
1 6.30 630 -0.857 -10.257 3.342 9.705 -6.073 9.186 156.798 2251.533 -3959.970 1.462 0.961 -0.300 -0.01 -0.59 0.81 0.06
1 6.31 631 -0.067 -10.267 3.730 16.693 -8.606 -0.366 -23.085 2281.514 -3704.986 0.666 0.975 -0.672 -0.01 -0.59 0.81 0.06
1 6.32 632 0.737 -9.869 3.721 20.874 -0.061 -2.319 -23.085 2281.514 -3704.986 -0.134 0.587 -0.637 -0.01 -0.59 0.81 0.06
1 6.33 633 1.264 -9.582 3.596 11.932 6.195 3.082 246.889 2386.445 -3915.000 -0.660 0.310 -0.480 -0.01 -0.58 0.81 0.06
1 6.34 634 1.006 -8.969 3.577 6.012 7.904 7.141 141.808 2266.523 -3870.029 -0.402 -0.295 -0.438 -0.01 -0.58 0.81 0.06
1 6.35 635 0.666 -8.663 3.577 1.007 8.484 5.707 141.808 2266.523 -3870.029 -0.070 -0.598 -0.425 -0.01 -0.58 0.81 0.06
1 6.36 636 0.704 -8.686 3.362 -0.885 7.965 -5.310 156.798 2356.465 -3825.058 -0.122 -0.570 -0.197 -0.01 -0.58 0.81 0.06
1 6.37 637 0.570 -8.490 2.959 -1.343 7.416 -10.834 141.808 2341.475 -3915.000 0.018 -0.765 0.208 -0.01 -0.58 0.81 0.06
1 6.38 638 0.713 -8.610 2.868 -1.770 7.233 -12.970 201.769 2281.514 -3959.970 -0.112 -0.645 0.299 -0.01 -0.58 0.81 0.07
1 6.39 639 0.857 -8.983 2.696 4.791 11.200 -8.484 201.769 2281.514 -3959.970 -0.241 -0.270 0.471 -0.01 -0.58 0.81 0.07
1 6.40 640 0.895 -9.572 3.036 16.388 14.557 -0.549 231.749 2206.562 -3855.039 -0.273 0.322 0.139 -0.01 -0.58 0.81 0.07
1 6.41 641 1.039 -9.884 3.453 17.761 15.411 0.397 156.798 2326.484 -3825.058 -0.419 0.640 -0.258 -0.01 -0.58 0.81 0.07
1 6.42 642 0.704 -9.936 3.759 14.313 13.916 1.923 156.798 2326.484 -3825.058 -0.089 0.701 -0.539 -0.01 -0.58 0.81 0.07
1 6.43 643 0.340 -9.845 3.721 2.075 4.974 1.862 381.801 2326.484 -3959.970 0.260 0.622 -0.463 -0.01 -0.58 0.81 0.07
1 6.44 644 0.029 -9.505 3.366 -2.136 -0.763 0.671 126.817 2206.562 -3825.058 0.565 0.283 -0.105 -0.01 -0.58 0.81 0.07
1 6.45 645 -0.254 -9.261 3.146 -1.129 -5.371 -0.031 216.759 2146.452 -3765.097 0.844 0.038 0.112 -0.01 -0.58 0.81 0.07
1 6.46 646 -0.278 -9.046 3.041 3.906 -6.439 -1.770 216.759 2146.452 -3765.097 0.866 -0.178 0.217 -0.01 -0.58 0.81 0.07
1 6.47 647 -0.388 -9.007 3.175 8.179 -4.547 -2.808 246.889 2146.452 -3840.048 0.975 -0.215 0.088 -0.01 -0.58 0.81 0.07
1 6.48 648 -0.249 -9.223 3.529 6.958 0.488 -4.150 231.749 2251.533 -3780.087 0.835 0.005 -0.254 -0.01 -0.58 0.81 0.07
1 6.49 649 0.182 -9.548 3.864 4.242 5.768 -5.280 231.749 2251.533 -3780.087 0.403 0.335 -0.578 -0.01 -0.58 0.81 0.07
1 6.50 650 0.311 -9.788 3.630 2.930 7.233 5.585 141.808 2266.523 -3840.048 0.269 0.580 -0.325 -0.01 -0.58 0.81 0.07
1 6.51 651 0.680 -9.706 3.649 2.686 -1.038 13.458 171.788 2221.553 -4020.081 -0.116 0.500 -0.338 -0.01 -0.58 0.81 0.07
1 6.52 652 1.183 -9.812 3.678 6.073 -8.301 10.345 336.831 2251.533 -3929.990 -0.636 0.606 -0.363 -0.01 -0.58 0.82 0.07
1 6.53 653 1.221 -9.563 3.740 12.878 -9.308 7.965 336.831 2251.533 -3929.990 -0.680 0.360 -0.414 -0.01 -0.57 0.82 0.07
1 6.54 654 0.895 -9.127 3.563 13.672 -7.904 5.890 171.788 2221.553 -3840.048 -0.355 -0.068 -0.217 -0.01 -0.57 0.82 0.07
1 6.55 655 0.326 -8.409 3.524 2.930 -0.641 9.064 156.798 2281.514 -3855.039 0.212 -0.780 -0.161 -0.01 -0.57 0.82 0.07
1 6.56 656 0.172 -8.433 3.342 -0.580 2.625 5.646 156.798 2281.514 -3855.039 0.355 -0.753 0.031 -0.01 -0.57 0.82 0.07
1 6.57 657 -0.029 -8.557 3.141 1.648 1.312 0.366 66.856 2116.471 -3870.029 0.544 -0.629 0.234 -0.01 -0.57 0.82 0.07
1 6.58 658 0.010 -8.811 3.199 11.353 -1.404 -8.575 171.788 2116.471 -4020.081 0.501 -0.371 0.187 -0.01 -0.57 0.82 0.07
1 6.59 659 0.359 -8.969 3.347 15.198 -0.549 -12.451 156.798 2131.461 -3959.970 0.162 -0.206 0.056 -0.01 -0.57 0.82 0.07
1 6.60 660 0.666 -9.065 3.769 11.932 0.427 -11.810 156.798 2131.461 -3959.970 -0.129 -0.102 -0.345 -0.01 -0.57 0.82 0.07
1 6.61 661 0.694 -9.275 3.994 5.249 1.831 -8.545 171.788 2221.553 -3915.000 -0.142 0.116 -0.553 -0.01 -0.57 0.82 0.07
1 6.62 662 0.508 -9.304 3.893 -7.446 -0.092 4.120 171.788 2221.553 -3944.980 0.052 0.148 -0.445 -0.01 -0.57 0.82 0.07
1 6.63 663 0.781 -9.577 3.793 -9.857 -3.540 3.357 171.788 2221.553 -3944.980 -0.226 0.419 -0.349 -0.01 -0.57 0.82 0.07
1 6.64 664 0.857 -9.702 3.601 -2.380 -3.876 1.190 156.798 2101.481 -4005.091 -0.306 0.539 -0.169 -0.01 -0.57 0.82 0.07
1 6.65 665 0.656 -9.199 3.529 9.460 -0.702 2.991 171.788 2146.452 -3915.000 -0.102 0.036 -0.097 -0.01 -0.57 0.82 0.07
1 6.66 666 0.651 -9.156 3.692 10.529 -0.031 4.364 201.769 2176.432 -3900.009 -0.101 -0.002 -0.246 -0.01 -0.57 0.82 0.07
1 6.67 667 0.704 -9.094 3.644 7.294 0.366 4.578 201.769 2176.432 -3900.009 -0.160 -0.059 -0.183 -0.01 -0.57 0.82 0.07
1 6.68 668 0.637 -8.964 3.620 3.601 0.336 3.174 216.759 2221.553 -3915.000 -0.098 -0.185 -0.149 -0.01 -0.57 0.82 0.07
1 6.69 669 0.608 -9.031 3.333 1.770 0.427 0.916 276.870 2176.432 -3900.009 -0.072 -0.116 0.144 -0.01 -0.57 0.82 0.07
1 6.70 670 0.340 -9.266 3.199 3.845 3.174 -2.014 276.870 2176.432 -3900.009 0.195 0.120 0.280 -0.01 -0.57 0.82 0.07
1 6.71 671 0.192 -9.319 3.352 6.683 3.601 -4.364 216.759 2146.452 -3944.980 0.344 0.174 0.131 -0.01 -0.57 0.82 0.07
1 6.72 672 0.374 -9.721 3.845 10.315 5.737 -6.073 141.808 2191.572 -3870.029 0.165 0.584 -0.343 -0.01 -0.57 0.82 0.07
1 6.73 673 0.177 -9.764 3.740 7.538 4.852 1.801 141.808 2146.452 -4095.032 0.363 0.632 -0.224 -0.01 -0.57 0.82 0.07
1 6.74 674 0.402 -9.893 3.831 -0.519 -2.533 5.249 141.808 2146.452 -4095.032 0.128 0.764 -0.307 -0.01 -0.57 0.82 0.07
1 6.75 675 0.747 -9.970 3.917 -3.784 -8.972 7.416 96.837 2116.471 -3870.029 -0.224 0.839 -0.396 -0.01 -0.57 0.82 0.07
1 6.76 676 1.097 -9.759 3.864 0.458 -10.956 7.721 306.850 2176.432 -3900.009 -0.578 0.626 -0.348 -0.01 -0.57 0.82 0.07
1 6.77 677 1.202 -9.065 3.606 9.125 -8.026 7.141 306.850 2176.432 -3900.009 -0.685 -0.067 -0.087 -0.01 -0.57 0.82 0.07
1 6.78 678 1.063 -8.610 3.558 9.827 -4.395 4.700 141.808 2071.500 -3915.000 -0.547 -0.517 -0.026 -0.01 -0.57 0.82 0.07
1 6.79 679 0.824 -8.457 3.328 7.446 0.214 4.730 141.808 2071.500 -3915.000 -0.307 -0.665 0.218 -0.01 -0.56 0.82 0.06
1 6.80 680 0.426 -8.394 3.314 6.622 2.106 2.045 231.749 2131.461 -3929.990 0.084 -0.718 0.255 -0.01 -0.56 0.82 0.06
1 6.81 681 0.287 -8.701 3.409 9.583 3.998 -2.472 231.749 2131.461 -3929.990 0.220 -0.408 0.169 -0.01 -0.56 0.82 0.06
1 6.82 682 0.292 -8.969 3.539 13.367 5.066 -6.561 216.759 1996.549 -4020.081 0.216 -0.134 0.055 -0.01 -0.56 0.82 0.06
1 6.83 683 0.115 -8.902 3.812 13.367 3.296 -6.012 6.746 2251.533 -3825.058 0.398 -0.193 -0.198 -0.01 -0.56 0.82 0.07
1 6.84 684 0.350 -9.343 4.008 4.913 1.709 -7.690 6.746 2251.533 -3825.058 0.168 0.255 -0.376 -0.01 -0.56 0.83 0.07
1 6.85 685 0.666 -9.682 4.104 -0.427 0.732 -3.845 201.769 2131.461 -4035.071 -0.140 0.600 -0.461 -0.01 -0.56 0.83 0.07
1 6.86 686 0.872 -9.750 3.931 -5.035 0.275 1.434 201.769 2131.461 -4035.071 -0.340 0.668 -0.286 -0.01 -0.56 0.83 0.07
1 6.87 687 1.082 -9.807 4.161 -3.113 -1.312 6.775 366.811 2116.471 -3915.000 -0.555 0.721 -0.528 -0.01 -0.56 0.83 0.07
1 6.88 688 1.322 -9.534 4.118 3.662 0.214 8.575 366.811 2116.471 -3915.000 -0.802 0.447 -0.485 -0.01 -0.56 0.83 0.07
1 6.89 689 1.053 -9.386 4.032 8.667 2.045 9.216 51.866 2176.432 -3855.039 -0.541 0.302 -0.390 -0.01 -0.56 0.83 0.07
1 6.90 690 0.690 -9.041 3.726 7.965 1.495 12.421 246.889 2146.452 -4050.062 -0.188 -0.038 -0.069 -0.01 -0.56 0.83 0.07
1 6.91 691 0.594 -8.964 3.606 5.951 -1.709 11.108 246.889 2146.452 -4050.062 -0.108 -0.111 0.061 -0.01 -0.56 0.83 0.06
1 6.92 692 0.321 -8.998 3.256 13.031 -1.831 4.669 51.866 2101.481 -4005.091 0.153 -0.074 0.420 -0.01 -0.56 0.83 0.06
1 6.93 693 0.043 -8.806 3.558 16.693 -1.251 0.305 51.866 2101.481 -4005.091 0.424 -0.260 0.132 -0.01 -0.56 0.83 0.06
1 6.94 694 0.014 -8.725 3.797 14.954 1.831 -5.280 201.769 2011.540 -3929.990 0.451 -0.324 -0.064 -0.01 -0.56 0.83 0.06
1 6.95 695 0.230 -8.734 3.912 10.437 3.387 -9.064 201.769 2011.540 -3929.990 0.240 -0.306 -0.159 -0.01 -0.56 0.83 0.06
1 6.96 696 0.369 -9.094 3.917 4.456 3.418 -11.658 141.808 1996.549 -4020.081 0.111 0.059 -0.150 -0.01 -0.55 0.83 0.06
1 6.97 697 0.632 -9.572 3.936 1.221 3.693 -7.507 66.856 2071.500 -4020.081 -0.140 0.541 -0.163 -0.01 -0.55 0.83 0.06
1 6.98 698 0.900 -9.280 3.783 -0.824 -1.251 3.632 66.856 2071.500 -4020.081 -0.403 0.250 -0.008 -0.01 -0.55 0.83 0.07
1 6.99 699 1.451 -9.467 3.970 -1.160 -9.644 7.874 126.817 2101.481 -4110.022 -0.956 0.436 -0.197 -0.01 -0.55 0.83 0.06
1 7.00 700 1.714 -9.601 4.185 5.707 -8.850 9.033 126.817 2101.481 -4110.022 -1.221 0.568 -0.416 -0.01 -0.55 0.83 0.06
1 7.01 701 1.796 -9.285 4.027 11.505 -3.540 7.324 156.798 1906.758 -3959.371 -1.300 0.254 -0.254 -0.01 -0.55 0.83 0.06
1 7.02 702 1.015 -8.907 3.682 12.238 5.035 9.644 201.918 2101.781 -3779.338 -0.519 -0.110 0.124 -0.01 -0.55 0.83 0.06
1 7.03 703 0.278 -8.643 3.443 8.392 4.913 12.543 366.811 2071.800 -3944.380 0.206 -0.367 0.380 -0.01 -0.55 0.83 0.06
1 7.04 704 0.297 -8.844 3.572 8.362 3.937 10.376 231.899 1906.758 -3929.390 0.167 -0.163 0.261 -0.01 -0.55 0.83 0.06
1 7.05 705 -0.120 -8.864 3.491 11.292 2.350 4.852 231.899 1906.758 -3929.390 0.567 -0.140 0.353 -0.01 -0.55 0.83 0.06
1 7.06 706 -0.220 -8.667 3.735 12.909 -1.495 -7.019 201.918 2011.839 -4034.322 0.659 -0.330 0.124 -0.01 -0.55 0.83 0.06
1 7.07 707 0.101 -8.696 3.955 9.644 -1.404 -13.763 201.918 2011.839 -4034.322 0.340 -0.294 -0.080 -0.01 -0.55 0.83 0.06
1 7.08 708 0.565 -8.868 3.917 6.378 1.404 -15.778 216.909 2146.751 -4019.332 -0.110 -0.115 -0.027 -0.01 -0.55 0.83 0.06
1 7.09 709 0.785 -9.180 3.754 1.312 0.977 0.702 156.798 2056.810 -4004.341 -0.303 0.205 0.152 -0.01 -0.55 0.83 0.06
1 7.10 710 1.298 -9.472 3.955 0.092 -4.547 3.937 231.899 1981.859 -4034.322 -0.816 0.497 -0.049 -0.01 -0.55 0.83 0.06
1 7.11 711 1.666 -9.505 3.998 3.021 -6.500 8.637 276.870 1831.807 -3929.390 -1.184 0.530 -0.094 -0.01 -0.55 0.83 0.06
1 7.12 712 1.925 -9.481 4.156 8.301 -5.035 6.195 276.870 1831.807 -3929.390 -1.443 0.508 -0.247 -0.01 -0.55 0.83 0.06
1 7.13 713 1.724 -9.405 4.065 12.299 1.007 7.538 81.847 1861.787 -3959.371 -1.241 0.437 -0.144 -0.01 -0.55 0.83 0.06
1 7.14 714 1.044 -9.070 3.682 11.902 8.118 8.057 81.847 1861.787 -3959.371 -0.562 0.109 0.256 -0.01 -0.55 0.83 0.06
1 7.15 715 0.541 -9.022 3.457 9.216 7.843 10.803 141.808 1846.797 -4019.332 -0.066 0.068 0.498 -0.01 -0.55 0.84 0.06
1 7.16 716 0.019 -9.170 3.553 7.904 2.960 7.141 81.847 1936.738 -4004.341 0.424 0.223 0.422 -0.01 -0.54 0.84 0.06
1 7.17 717 -0.158 -8.959 3.386 9.277 -2.014 1.740 276.870 1936.738 -3929.390 0.590 0.016 0.597 -0.01 -0.54 0.84 0.06
1 7.18 718 -0.038 -9.113 3.386 10.376 -5.157 -5.920 291.860 1966.869 -4049.462 0.469 0.173 0.606 -0.01 -0.54 0.84 0.06
1 7.19 719 0.364 -9.266 3.496 10.986 -4.211 -9.216 291.860 1966.869 -4049.462 0.076 0.331 0.506 -0.01 -0.54 0.84 0.06
1 7.20 720 0.709 -9.453 3.644 11.200 -1.099 -7.935 231.899 1831.807 -4154.394 -0.255 0.524 0.369 -0.01 -0.54 0.84 0.06
1 7.21 721 0.503 -9.438 3.563 6.958 -0.793 13.672 231.899 1831.807 -4154.394 -0.039 0.515 0.461 -0.01 -0.54 0.84 0.06
1 7.22 722 0.948 -9.630 3.816 2.563 -7.263 12.085 246.889 1846.797 -4094.433 -0.497 0.708 0.214 -0.01 -0.54 0.84 0.06
1 7.23 723 1.073 -9.582 4.013 4.425 -8.820 10.559 141.808 1921.748 -4019.332 -0.635 0.660 0.018 -0.01 -0.54 0.84 0.06
1 7.24 724 1.355 -9.357 4.085 9.003 -7.050 6.500 201.918 1936.738 -3929.390 -0.922 0.439 -0.045 -0.01 -0.54 0.84 0.06
1 7.25 725 1.283 -8.993 4.070 4.608 -3.967 12.421 276.870 1981.859 -4004.341 -0.849 0.079 -0.021 -0.01 -0.54 0.84 0.06
1 7.26 726 1.097 -8.964 4.329 -3.265 -1.984 22.675 276.870 1981.859 -4004.341 -0.674 0.051 -0.277 -0.01 -0.54 0.84 0.06
1 7.27 727 1.039 -9.103 4.616 -9.338 -1.129 27.252 276.870 1786.836 -4004.341 -0.644 0.187 -0.569 -0.01 -0.54 0.84 0.06
1 7.28 728 1.207 -9.304 4.798 -14.557 -1.373 20.569 276.870 1786.836 -4004.341 -0.843 0.381 -0.762 -0.01 -0.54 0.84 0.06
1 7.29 729 1.710 -9.127 4.889 -22.369 -3.143 2.625 156.798 1906.758 -4109.423 -1.371 0.196 -0.868 -0.01 -0.54 0.84 0.05
1 7.30 730 1.915 -9.055 4.980 -38.391 -3.113 -12.177 306.850 1831.807 -3959.371 -1.579 0.114 -0.982 -0.01 -0.54 0.84 0.05
1 7.31 731 1.853 -8.955 5.291 -51.483 12.299 -15.289 81.847 1756.855 -3929.390 -1.460 -0.028 -1.393 -0.01 -0.55 0.83 0.06
1 7.32 732 1.489 -8.969 4.932 -48.554 26.154 -11.475 231.899 2056.810 -4004.341 -1.074 -0.039 -1.094 -0.01 -0.55 0.83 0.06
1 7.33 733 0.675 -9.012 4.348 -32.990 36.194 -8.514 231.899 2056.810 -4004.341 -0.254 -0.017 -0.563 -0.01 -0.55 0.83 0.06
1 7.34 734 -0.168 -9.041 3.524 -7.263 38.788 -2.960 231.899 2176.732 -4034.322 0.581 -0.002 0.231 -0.02 -0.56 0.83 0.06
1 7.35 735 -0.963 -8.667 2.892 20.233 32.990 -2.167 231.899 2176.732 -4034.322 1.355 -0.375 0.865 -0.02 -0.55 0.83 0.06
1 7.36 736 -1.872 -7.820 2.586 45.441 15.015 -12.939 321.840 1996.849 -3839.449 2.244 -1.209 1.207 -0.02 -0.55 0.83 0.06
1 7.37 737 -2.366 -7.566 2.682 37.262 3.082 -19.287 321.840 2041.820 -3914.400 2.734 -1.438 1.170 -0.02 -0.55 0.83 0.07
1 7.38 738 -2.136 -7.992 2.921 -7.935 0.244 -21.942 231.899 1981.859 -4034.322 2.556 -0.975 1.010 -0.02 -0.55 0.83 0.07
1 7.39 739 -2.255 -8.888 3.687 -34.485 9.247 -16.846 276.870 1981.859 -4034.322 2.704 -0.087 0.223 -0.02 -0.55 0.83 0.07
1 7.40 740 -2.313 -9.884 4.156 -48.279 27.191 -7.996 276.870 1981.859 -4034.322 2.754 0.885 -0.300 -0.02 -0.55 0.83 0.07
1 7.41 741 -2.227 -10.942 4.109 -45.471 35.584 4.334 96.837 1891.768 -4094.433 2.646 1.914 -0.318 -0.02 -0.55 0.83 0.07
1 7.42 742 -1.767 -11.426 3.534 -28.076 19.318 18.311 96.837 1891.768 -4094.433 2.156 2.374 0.201 -0.03 -0.56 0.83 0.07
1 7.43 743 -0.292 -10.329 2.629 1.740 -25.879 18.677 276.870 1981.859 -4004.341 0.646 1.262 1.074 -0.03 -0.56 0.83 0.07
1 7.44 744 0.503 -9.869 2.533 28.534 -50.690 15.015 231.899 2176.732 -3929.390 -0.167 0.799 1.164 -0.03 -0.56 0.83 0.07
1 7.45 745 0.986 -8.921 2.610 43.793 -51.666 19.104 231.899 2176.732 -3929.390 -0.650 -0.141 1.105 -0.02 -0.56 0.83 0.07
1 7.46 746 0.536 -7.580 2.701 25.726 -12.360 25.269 321.840 2041.820 -4019.332 -0.199 -1.444 1.107 -0.02 -0.55 0.83 0.06
1 7.47 747 -0.546 -7.389 2.337 -3.601 18.036 16.419 321.840 2041.820 -4019.332 0.853 -1.625 1.496 -0.02 -0.55 0.83 0.06
1 7.48 748 -2.069 -7.595 1.987 -30.579 31.403 5.646 216.909 1891.768 -4124.413 2.344 -1.426 1.832 -0.02 -0.55 0.83 0.06
1 7.49 749 -3.414 -7.777 1.753 -45.685 22.430 -3.998 216.909 1891.768 -4124.413 3.668 -1.265 2.018 -0.02 -0.55 0.83 0.06
1 7.50 750 -4.267 -9.170 1.810 -40.558 -19.775 -12.238 336.831 1906.758 -3959.371 4.519 0.102 1.897 -0.03 -0.56 0.83 0.06
1 7.51 751 -3.869 -9.285 1.700 -15.167 -49.713 9.644 321.840 1966.869 -3944.380 4.112 0.188 1.937 -0.03 -0.56 0.83 0.06
1 7.52 752 -3.563 -7.523 2.040 36.194 -65.918 1.282 321.840 1966.869 -3944.380 3.790 -1.593 1.549 -0.03 -0.56 0.82 0.06
1 7.53 753 -2.193 -5.890 3.256 69.367 -76.599 -14.313 231.899 2056.810 -3959.371 2.474 -3.184 0.435 -0.02 -0.56 0.83 0.05
1 7.54 754 -0.872 -4.951 3.524 57.526 -67.261 -13.001 231.899 2056.810 -3959.371 1.216 -4.083 0.257 -0.01 -0.55 0.83 0.05
1 7.55 755 -0.029 -4.305 2.643 24.719 -59.509 -11.078 216.909 1996.849 -4019.332 0.428 -4.699 1.205 -0.01 -0.55 0.83 0.05
1 7.56 756 0.402 -4.022 1.470 -19.623 -63.935 -10.284 216.909 1996.849 -4019.332 0.047 -4.973 2.394 -0 -0.55 0.83 0.05
1 7.57 757 0.053 -4.190 0.824 -59.052 -69.763 -12.329 51.866 1981.859 -3899.410 0.450 -4.822 2.993 0 -0.55 0.83 0.04
1 7.58 758 -1.020 -4.372 4.635 -78.614 -45.990 -12.390 51.866 1981.859 -4034.322 1.579 -4.676 -0.913 0.01 -0.56 0.83 0.04
1 7.59 759 -1.891 -5.679 5.761 -81.696 -17.853 -26.367 51.866 1981.859 -4034.322 2.497 -3.411 -2.150 0.01 -0.56 0.83 0.04
1 7.60 760 -0.484 -14.605 2.916 -123.475 1.892 -29.785 -113.026 1921.748 -4019.332 1.170 5.431 0.462 0.01 -0.57 0.82 0.04
1 7.61 761 4.496 -21.802 0.905 -211.549 -41.657 16.266 -113.026 1921.748 -4019.332 -3.774 12.556 2.262 0.01 -0.58 0.81 0.04
1 7.62 762 6.192 -18.264 6.584 -123.444 -94.788 98.297 -22.935 2101.781 -3779.338 -5.501 8.920 -3.711 0.02 -0.59 0.8 0.04
1 7.63 763 5.497 -14.275 9.132 0.092 -56.915 65.766 -22.935 2101.781 -3779.338 -4.907 4.884 -6.393 0.02 -0.6 0.8 0.03
1 7.64 764 3.984 -12.671 7.259 44.342 10.101 -12.970 66.856 2146.751 -3809.318 -3.443 3.282 -4.502 0.02 -0.6 0.8 0.02
1 7.65 765 0.656 -12.757 5.062 12.634 66.559 -42.023 -68.056 2251.833 -3749.357 -0.088 3.389 -2.240 0.02 -0.6 0.8 0.03
1 7.66 766 -1.762 -12.991 4.195 -23.621 54.230 -3.021 -68.056 2251.833 -3749.357 2.367 3.637 -1.338 0.01 -0.59 0.8 0.03
1 7.67 767 -2.777 -12.915 3.807 -53.772 -6.195 30.945 -202.968 2281.813 -3824.458 3.376 3.555 -0.965 0.01 -0.6 0.8 0.04
1 7.68 768 -0.943 -12.685 4.554 -46.326 -93.354 37.171 -22.935 2176.732 -3704.387 1.469 3.275 -1.868 0.01 -0.6 0.8 0.03
1 7.69 769 1.599 -12.015 5.555 -11.078 -98.847 14.862 -37.925 2266.823 -3689.396 -1.081 2.586 -2.932 0.02 -0.6 0.8 0.02
1 7.70 770 3.137 -11.464 5.871 26.276 -68.695 -6.714 -37.925 2266.823 -3689.396 -2.593 2.034 -3.257 0.02 -0.61 0.8 0.02
1 7.71 771 3.362 -11.244 5.598 43.488 -30.182 -6.378 -113.026 2341.774 -3659.566 -2.783 1.828 -2.943 0.02 -0.6 0.8 0.02
1 7.72 772 2.725 -10.195 4.779 32.501 2.625 17.975 -232.948 2221.703 -3659.566 -2.133 0.797 -2.063 0.03 -0.6 0.8 0.02
1 7.73 773 2.054 -9.089 4.037 16.113 -0.885 19.287 -232.948 2221.703 -3659.566 -1.483 -0.295 -1.270 0.03 -0.6 0.8 0.02
1 7.74 774 1.829 -8.145 3.539 5.951 -18.402 8.453 -247.938 2326.784 -3644.576 -1.280 -1.230 -0.738 0.02 -0.6 0.8 0.01
1 7.75 775 2.231 -7.279 3.773 6.073 -43.427 -10.071 -22.935 2251.683 -3749.657 -1.660 -2.087 -0.947 0.03 -0.6 0.8 0.01
1 7.76 776 2.490 -6.905 3.826 10.254 -43.030 -15.350 -83.046 2191.722 -3809.618 -1.882 -2.457 -0.993 0.03 -0.6 0.8 0.01
1 7.77 777 2.586 -6.618 4.109 12.116 -31.036 -17.151 -83.046 2191.722 -3809.618 -1.937 -2.738 -1.264 0.03 -0.59 0.8 0.01
1 7.78 778 2.504 -6.829 3.860 8.423 -14.313 -14.160 -128.017 2281.813 -3704.687 -1.820 -2.520 -1.001 0.04 -0.59 0.8 0.01
1 7.79 779 2.236 -7.274 3.625 -0.946 -0.946 -10.010 -232.948 2221.703 -3734.667 -1.528 -2.071 -0.758 0.04 -0.59 0.8 0.01
1 7.80 780 2.040 -8.758 3.409 -14.740 5.585 3.845 -232.948 2221.703 -3734.667 -1.321 -0.587 -0.547 0.04 -0.59 0.8 0.01
1 7.81 781 1.757 -8.519 3.424 -1.953 6.714 8.270 -368.010 2416.726 -3734.667 -1.036 -0.831 -0.576 0.04 -0.59 0.8 0.01
1 7.82 782 0.785 -7.504 3.122 17.090 -5.188 -5.737 -128.017 2251.683 -3674.706 -0.068 -1.840 -0.256 0.04 -0.59 0.8 0.01
1 7.83 783 0.522 -7.307 3.376 15.808 -15.747 -7.385 -98.036 2281.813 -3704.687 0.209 -2.028 -0.486 0.04 -0.59 0.8 0.01
1 7.84 784 0.632 -7.087 3.165 12.207 -21.820 -5.310 -98.036 2281.813 -3704.687 0.116 -2.241 -0.256 0.04 -0.59 0.81 0.01
1 7.85 785 0.886 -7.504 3.299 6.470 -17.517 -3.479 -277.919 2401.735 -3824.608 -0.121 -1.819 -0.377 0.04 -0.59 0.81 0.01
1 7.86 786 1.010 -7.896 3.649 2.350 -3.540 -3.021 -353.020 2281.813 -3899.560 -0.235 -1.424 -0.721 0.04 -0.59 0.81 0.01
1 7.87 787 1.034 -8.595 4.065 -6.805 10.986 -1.190 -353.020 2281.813 -3899.560 -0.254 -0.724 -1.136 0.04 -0.59 0.81 0.01
1 7.88 788 0.737 -8.988 3.855 -22.766 6.409 -0.122 -323.040 2176.732 -3704.687 0.042 -0.330 -0.923 0.04 -0.59 0.81 0.01
1 7.89 789 0.632 -9.065 3.821 -45.746 -12.573 -3.845 -353.020 2281.813 -3854.589 0.146 -0.259 -0.906 0.04 -0.59 0.81 0.01
1 7.90 790 1.255 -10.195 4.104 -49.500 -35.034 -7.568 -247.938 2206.712 -3674.706 -0.450 0.836 -1.312 0.04 -0.6 0.8 0.01
1 7.91 791 1.666 -10.683 4.434 -23.865 -36.286 -4.944 -247.938 2206.712 -3674.706 -0.836 1.307 -1.706 0.04 -0.6 0.8 0.01
1 7.92 792 2.150 -10.832 4.315 10.834 -26.154 3.601 -262.929 2221.703 -3839.599 -1.301 1.450 -1.614 0.05 -0.6 0.8 0.01
1 7.93 793 1.786 -10.022 4.233 31.464 -18.280 11.566 -308.049 2341.774 -3659.566 -0.935 0.647 -1.510 0.05 -0.6 0.8 0.01
1 7.94 794 1.240 -9.089 3.371 33.203 -11.963 15.869 -308.049 2341.774 -3659.566 -0.401 -0.274 -0.601 0.05 -0.6 0.8 0.01
1 7.95 795 0.919 -8.356 3.007 18.402 -14.954 15.137 -427.971 2281.813 -3599.605 -0.092 -0.991 -0.180 0.05 -0.59 0.8 0.01
1 7.96 796 0.982 -8.184 2.931 7.111 -18.738 8.484 -338.030 2191.722 -3659.566 -0.168 -1.154 -0.069 0.05 -0.59 0.8 0
1 7.97 797 1.168 -8.437 3.103 0.183 -21.851 -6.714 -353.020 2101.781 -3569.625 -0.352 -0.895 -0.226 0.05 -0.59 0.8 0
1 7.98 798 1.489 -8.490 3.486 2.625 -15.778 -11.139 -353.020 2101.781 -3569.625 -0.649 -0.840 -0.607 0.05 -0.59 0.8 0
1 7.99 799 1.374 -8.720 3.505 4.211 -9.277 -11.688 -442.961 2146.751 -3764.647 -0.507 -0.605 -0.618 0.05 -0.59 0.8 0
1 8.00 800 1.676 -9.050 3.472 -0.641 -5.646 -11.322 -578.023 2206.712 -3854.589 -0.784 -0.269 -0.576 0.05 -0.59 0.8 0
1 8.01 801 1.911 -9.869 3.601 -4.913 -2.197 -11.993 -577.424 2207.312 -3852.640 -0.994 0.552 -0.704 0.06 -0.59 0.8 0
1 8.02 802 2.021 -10.477 3.884 -5.188 -0.671 -5.920 -442.512 2267.273 -3732.568 -1.080 1.162 -0.991 0.06 -0.59 0.8 0
1 8.03 803 2.064 -10.401 3.989 -8.026 -8.148 0.458 -487.482 2312.394 -3762.699 -1.112 1.084 -1.104 0.06 -0.59 0.8 0
1 8.04 804 2.241 -10.267 4.171 -3.113 -16.602 8.820 -502.473 2177.332 -3567.676 -1.286 0.942 -1.311 0.06 -0.59 0.8 0
1 8.05 805 2.078 -9.826 3.635 9.522 -18.372 9.552 -502.473 2177.332 -3567.676 -1.129 0.500 -0.777 0.06 -0.59 0.8 0
1 8.06 806 1.882 -9.060 3.275 17.120 -18.127 10.040 -517.463 2222.302 -3732.568 -0.934 -0.261 -0.401 0.06 -0.59 0.8 0
1 8.07 807 1.642 -8.447 2.859 18.280 -16.113 8.545 -502.473 2327.384 -3747.559 -0.693 -0.866 0.042 -0.06 0.59 -0.8 0
1 8.08 808 1.207 -8.414 2.758 5.127 -11.017 6.805 -502.473 2327.384 -3747.559 -0.255 -0.892 0.165 -0.06 0.59 -0.81 0
1 8.09 809 1.077 -8.514 2.864 3.143 -1.801 6.805 -427.372 2252.283 -3777.689 -0.127 -0.789 0.068 -0.06 0.59 -0.81 0
1 8.10 810 1.006 -8.816 3.060 3.662 5.188 3.296 -367.411 2147.351 -3762.699 -0.061 -0.486 -0.123 -0.06 0.59 -0.81 0
1 8.11 811 1.068 -9.242 3.132 3.967 7.660 -2.808 -367.411 2147.351 -3762.699 -0.130 -0.058 -0.188 -0.06 0.59 -0.81 0
1 8.12 812 1.417 -9.620 3.438 4.852 9.735 -10.223 -427.372 2177.332 -3747.559 -0.473 0.326 -0.478 -0.06 0.59 -0.81 0
1 8.13 813 1.470 -9.759 3.328 4.334 7.416 -10.529 -517.463 2222.302 -3657.617 -0.512 0.470 -0.357 -0.06 0.59 -0.81 0
1 8.14 814 1.662 -9.903 3.477 3.235 4.700 -7.843 -517.463 2192.322 -3762.699 -0.688 0.617 -0.497 0.06 -0.59 0.81 0
1 8.15 815 1.733 -9.697 3.625 2.808 2.777 -2.869 -517.463 2192.322 -3762.699 -0.748 0.415 -0.638 0.06 -0.59 0.81 0
1 8.16 816 1.499 -9.376 3.438 3.052 -0.549 2.380 -397.391 2132.361 -3747.559 -0.507 0.097 -0.444 0.06 -0.59 0.81 0
1 8.17 817 1.293 -8.849 3.386 2.625 -2.380 6.409 -442.512 1997.299 -3837.650 -0.299 -0.427 -0.384 0.06 -0.59 0.81 0
1 8.18 818 1.274 -8.600 3.146 2.716 -5.005 5.554 -442.512 1997.299 -3837.650 -0.283 -0.674 -0.139 0.06 -0.59 0.81 0
1 8.19 819 0.996 -8.318 2.840 3.601 -7.385 3.998 -397.391 2252.283 -3747.559 -0.009 -0.953 0.179 0.06 -0.59 0.81 0
1 8.20 820 0.915 -8.212 2.940 3.174 -7.904 4.456 -367.411 2147.351 -3687.598 0.071 -1.057 0.083 0.06 -0.58 0.81 0
1 8.21 821 0.814 -8.437 3.146 0.946 -5.035 2.686 -367.411 2072.400 -3837.650 0.170 -0.831 -0.120 0.06 -0.58 0.81 0
1 8.22 822 0.838 -8.667 3.175 0.519 0.244 1.373 -367.411 2072.400 -3837.650 0.143 -0.601 -0.146 0.06 -0.58 0.81 0
1 8.23 823 1.140 -9.165 3.304 1.129 6.042 -2.228 -532.453 2327.384 -3642.627 -0.161 -0.102 -0.272 0.06 -0.58 0.81 0
1 8.24 824 1.221 -9.529 3.615 1.465 14.038 -6.378 -592.414 2042.270 -3732.568 -0.241 0.263 -0.578 0.06 -0.58 0.81 0
1 8.25 825 1.508 -9.673 3.567 -1.007 13.550 -8.575 -592.414 2042.270 -3732.568 -0.525 0.410 -0.523 0.06 -0.58 0.81 0
1 8.26 826 1.791 -9.682 3.553 -3.052 8.484 -6.928 -427.372 2057.260 -3822.660 -0.790 0.423 -0.504 0.06 -0.58 0.81 0
1 8.27 827 1.710 -9.635 3.615 -0.885 3.845 -4.272 -442.512 2147.351 -3687.598 -0.698 0.376 -0.567 0.06 -0.58 0.81 0.01
1 8.28 828 1.710 -9.472 3.467 3.387 0.702 -1.648 -412.381 2147.351 -3807.669 -0.689 0.215 -0.415 0.06 -0.58 0.81 0.01
1 8.29 829 1.446 -9.376 3.357 5.280 -0.122 -0.153 -412.381 2147.351 -3807.669 -0.419 0.123 -0.296 0.06 -0.58 0.81 0.01
1 8.30 830 1.403 -9.117 3.280 2.991 -0.366 1.190 -472.492 2102.380 -3597.656 -0.372 -0.132 -0.211 0.06 -0.58 0.81 0.01
1 8.31 831 1.106 -8.959 3.318 -0.824 1.038 3.418 -427.372 2282.263 -3747.559 -0.075 -0.289 -0.244 0.06 -0.58 0.81 0.01
1 8.32 832 0.972 -8.907 3.237 -3.815 1.221 3.784 -427.372 2282.263 -3747.559 0.056 -0.341 -0.160 0.06 -0.58 0.81 0.01
1 8.33 833 0.819 -8.835 3.256 -5.310 -0.122 2.380 -412.381 2147.351 -3732.568 0.204 -0.414 -0.181 0.06 -0.58 0.81 0.01
1 8.34 834 0.967 -8.806 2.969 -2.930 -2.289 -0.946 -577.424 2207.312 -3777.689 0.051 -0.446 0.096 0.06 -0.58 0.81 0.01
1 8.35 835 1.034 -8.878 2.993 -1.282 -1.099 -3.693 -397.391 2252.283 -3672.607 -0.014 -0.375 0.070 0.06 -0.58 0.81 0.01
1 8.36 836 1.144 -9.017 2.998 1.770 2.777 -6.622 -397.391 2252.283 -3672.607 -0.117 -0.236 0.064 0.06 -0.58 0.81 0.01
1 8.37 837 1.250 -9.366 3.208 3.510 8.209 -10.407 -517.463 2117.371 -3657.617 -0.212 0.116 -0.143 0.06 -0.58 0.81 0.01
1 8.38 838 1.034 -9.759 3.529 0.549 15.137 -10.468 -502.473 2177.332 -3702.588 0.016 0.513 -0.457 0.06 -0.58 0.81 0.01
1 8.39 839 0.953 -10.085 3.654 -3.357 14.801 -5.585 -502.473 2177.332 -3702.588 0.107 0.841 -0.576 0.06 -0.58 0.81 0.01
1 8.40 840 0.704 -9.936 3.721 -5.798 8.301 -0.092 -412.381 2042.270 -3687.598 0.358 0.693 -0.642 0.06 -0.58 0.81 0.01
1 8.41 841 1.274 -9.946 3.706 -4.303 -4.608 -1.984 -517.463 2072.400 -3837.650 -0.218 0.699 -0.637 0.06 -0.58 0.81 0.01
1 8.42 842 1.489 -9.764 3.472 -0.519 -9.460 -2.319 -412.381 1997.299 -3762.699 -0.428 0.517 -0.406 0.06 -0.58 0.81 0.01
1 8.43 843 1.949 -9.261 3.563 1.953 -11.719 0.214 -412.381 1997.299 -3762.699 -0.878 0.015 -0.496 0.06 -0.58 0.81 0.01
1 8.44 844 2.050 -8.816 3.477 2.167 -9.338 5.035 -472.492 2177.332 -3822.660 -0.970 -0.428 -0.405 0.06 -0.58 0.81 0.01
1 8.45 845 2.016 -8.667 3.366 -1.678 -8.484 6.531 -487.482 2147.351 -3867.630 -0.933 -0.574 -0.291 0.06 -0.58 0.81 0.01
1 8.46 846 1.393 -8.279 3.256 -8.484 -4.974 11.078 -487.482 2147.351 -3867.630 -0.310 -0.963 -0.184 0.06 -0.58 0.81 0.01
1 8.47 847 1.183 -8.514 3.041 -0.305 4.822 4.608 -532.453 2177.332 -3822.660 -0.107 -0.733 0.022 0.06 -0.58 0.81 0.01
1 8.48 848 0.737 -8.677 2.907 13.886 18.219 -10.254 -367.411 2147.351 -3837.650 0.330 -0.566 0.170 0.06 -0.58 0.81 0.01
1 8.49 849 0.493 -9.089 3.046 11.047 20.538 -18.219 -502.473 2207.312 -3747.559 0.581 -0.146 0.055 0.06 -0.58 0.81 0.01
1 8.50 850 0.206 -9.347 3.175 -0.061 18.311 -17.914 -502.473 2207.312 -3747.559 0.881 0.120 -0.059 0.06 -0.58 0.81 0.01
1 8.51 851 0.570 -9.663 3.462 -10.223 10.345 -12.878 -472.492 2132.361 -3822.660 0.527 0.437 -0.347 0.06 -0.58 0.81 0.02
1 8.52 852 1.164 -10.161 3.663 -10.559 2.747 -13.733 -472.492 2207.312 -3822.660 -0.057 0.932 -0.561 0.06 -0.58 0.81 0.02
1 8.53 853 1.437 -10.022 3.304 -1.190 -8.179 -7.019 -472.492 2207.312 -3822.660 -0.314 0.791 -0.213 0.06 -0.58 0.81 0.02
1 8.54 854 1.700 -9.524 3.414 1.495 -12.939 -0.580 -442.512 2192.322 -3687.598 -0.561 0.294 -0.326 0.06 -0.58 0.81 0.02
1 8.55 855 1.743 -9.184 3.467 1.648 -12.543 5.096 -442.512 2192.322 -3687.598 -0.593 -0.045 -0.380 0.06 -0.58 0.81 0.02
1 8.56 856 1.523 -8.825 3.328 -2.960 -9.613 4.669 -487.482 2072.400 -3867.630 -0.368 -0.403 -0.238 0.06 -0.58 0.81 0.02
1 8.57 857 1.006 -8.586 3.309 -7.904 -4.517 7.690 -487.482 2072.400 -3867.630 0.149 -0.644 -0.224 0.06 -0.58 0.81 0.02
1 8.58 858 0.709 -8.830 3.338 -9.522 0.153 7.050 -487.482 2147.351 -3762.699 0.436 -0.404 -0.263 0.06 -0.58 0.81 0.01
1 8.59 859 0.723 -9.103 3.323 -7.355 3.082 2.472 -502.473 2207.312 -3822.660 0.411 -0.136 -0.258 0.06 -0.58 0.81 0.01
1 8.60 860 0.910 -9.180 3.338 -1.495 0.397 -6.683 -502.473 2207.312 -3822.660 0.218 -0.062 -0.279 0.06 -0.58 0.81 0.01
1 8.61 861 1.178 -9.237 3.376 2.777 -1.160 -11.871 -487.482 1997.299 -3657.617 -0.046 -0.005 -0.319 0.06 -0.58 0.81 0.01
1 8.62 862 1.686 -9.333 3.510 3.357 -2.106 -12.787 -487.482 1997.299 -3657.617 -0.539 0.094 -0.448 0.06 -0.58 0.81 0.02
1 8.63 863 1.772 -9.587 3.706 -2.350 0.336 -7.202 -502.473 2282.263 -3702.588 -0.585 0.357 -0.634 0.06 -0.58 0.81 0.02
1 8.64 864 1.786 -9.180 3.711 -4.150 0.214 -2.228 -502.473 2282.263 -3702.588 -0.588 -0.049 -0.639 0.06 -0.58 0.81 0.02
1 8.65 865 1.968 -9.261 3.639 -5.829 -3.510 -3.357 -532.453 2207.312 -3672.607 -0.762 0.033 -0.570 0.06 -0.58 0.81 0.02
1 8.66 866 1.733 -9.314 3.673 -4.486 -5.127 -6.439 -427.372 2132.361 -3747.559 -0.515 0.085 -0.610 0.06 -0.58 0.81 0.02
1 8.67 867 1.604 -9.189 3.596 -1.953 -5.249 -5.066 -427.372 2132.361 -3747.559 -0.370 -0.038 -0.536 0.06 -0.58 0.81 0.02
1 8.68 868 1.398 -8.935 3.366 0.946 -5.249 -3.357 -532.453 2132.361 -3672.607 -0.152 -0.290 -0.305 0.07 -0.58 0.81 0.02
1 8.69 869 1.250 -8.758 3.352 0.214 -4.852 -3.540 -532.453 2132.361 -3672.607 0.005 -0.465 -0.288 0.07 -0.58 0.81 0.02
1 8.70 870 1.164 -8.734 3.079 1.556 -4.120 -2.350 -562.434 2222.302 -3612.646 0.105 -0.486 -0.011 0.07 -0.58 0.81 0.02
1 8.71 871 1.370 -8.801 2.959 2.747 -2.991 -2.045 -562.434 2222.302 -3612.646 -0.096 -0.417 0.112 0.07 -0.58 0.81 0.02
1 8.72 872 1.590 -8.916 2.639 2.930 -1.862 -2.625 -652.375 2177.332 -3747.559 -0.311 -0.300 0.437 0.07 -0.58 0.81 0.02
1 8.73 873 2.016 -9.031 2.811 2.472 0.092 -2.228 -577.424 2132.361 -3852.640 -0.730 -0.184 0.267 0.07 -0.58 0.81 0.02
1 8.74 874 2.313 -9.223 3.022 0.427 2.258 -2.625 -577.424 2132.361 -3852.640 -1.019 0.010 0.058 0.07 -0.58 0.81 0.02
1 8.75 875 2.370 -9.486 3.467 -5.890 6.958 -2.655 -472.492 2132.361 -3597.656 -1.067 0.274 -0.388 0.07 -0.58 0.81 0.02
1 8.76 876 2.198 -9.582 3.544 -12.207 9.125 -0.641 -472.492 2132.361 -3597.656 -0.886 0.370 -0.469 0.07 -0.58 0.81 0.02
1 8.77 877 2.011 -9.615 3.596 -16.602 8.850 1.862 -487.482 2222.302 -3732.568 -0.694 0.400 -0.533 0.07 -0.58 0.81 0.02
1 8.78 878 1.427 -9.611 3.390 -13.855 6.653 3.113 -502.473 2177.332 -3777.689 -0.115 0.382 -0.364 0.07 -0.58 0.81 0.02
1 8.79 879 0.953 -9.510 3.175 -6.561 3.845 3.113 -352.420 2177.332 -3747.559 0.353 0.276 -0.163 0.07 -0.58 0.81 0.02
1 8.80 880 0.790 -9.366 3.170 -0.458 2.045 2.899 -592.414 2147.351 -3807.669 0.507 0.130 -0.163 0.07 -0.59 0.81 0.02
1 8.81 881 0.776 -9.156 3.199 2.960 0.580 0.397 -592.414 2147.351 -3807.669 0.514 -0.081 -0.189 0.07 -0.59 0.81 0.02
1 8.82 882 0.891 -9.098 3.208 0.458 -1.434 -3.510 -502.473 2207.312 -3597.656 0.397 -0.137 -0.193 0.06 -0.58 0.81 0.02
1 8.83 883 1.173 -9.204 3.180 -4.547 -1.556 -5.127 -502.473 2207.312 -3597.656 0.116 -0.030 -0.160 0.06 -0.58 0.81 0.02
1 8.84 884 1.221 -9.290 3.103 -8.179 -0.122 -2.777 -517.463 2192.322 -3687.598 0.074 0.056 -0.087 0.07 -0.58 0.81 0.02
1 8.85 885 1.326 -9.639 3.132 -8.301 2.869 0.458 -427.372 2282.263 -3567.676 -0.026 0.400 -0.136 0.07 -0.59 0.81 0.02
1 8.86 886 1.580 -9.778 3.151 -5.737 3.723 0.793 -652.375 2132.361 -3672.607 -0.282 0.535 -0.165 0.06 -0.59 0.81 0.02
1 8.87 887 1.542 -9.726 3.400 -2.625 4.395 4.120 -517.463 2147.351 -3732.568 -0.247 0.480 -0.420 0.06 -0.59 0.81 0.02
1 8.88 888 1.719 -9.716 3.457 -1.831 3.906 5.219 -517.463 2147.351 -3732.568 -0.431 0.469 -0.478 0.06 -0.59 0.81 0.02
1 8.89 889 1.556 -9.606 3.462 -2.838 3.357 6.928 -502.473 2132.361 -3702.588 -0.275 0.358 -0.484 0.06 -0.59 0.81 0.02
1 8.90 890 1.609 -9.232 3.448 -3.632 1.556 7.813 -502.473 2132.361 -3702.588 -0.337 -0.018 -0.471 0.06 -0.59 0.81 0.02
1 8.91 891 1.614 -9.007 3.251 -2.869 1.434 7.843 -427.372 2282.263 -3672.607 -0.352 -0.245 -0.276 0.06 -0.59 0.81 0.02
1 8.92 892 1.274 -8.672 2.955 -2.228 1.923 7.538 -442.512 2222.302 -3612.646 -0.030 -0.583 0.018 0.06 -0.59 0.81 0.02
1 8.93 893 1.379 -8.600 2.983 -2.594 1.740 7.416 -472.492 2207.312 -3567.676 -0.146 -0.656 -0.011 0.06 -0.59 0.81 0.02
1 8.94 894 1.302 -8.682 2.710 -3.265 1.312 4.578 -487.482 2222.302 -3807.669 -0.078 -0.577 0.259 0.06 -0.59 0.81 0.02
1 8.95 895 1.518 -8.744 2.677 -3.418 1.282 2.350 -487.482 2222.302 -3807.669 -0.298 -0.517 0.288 0.06 -0.59 0.81 0.02
1 8.96 896 1.484 -8.988 2.816 -1.312 5.066 -0.153 -427.372 2252.283 -3672.607 -0.266 -0.274 0.144 0.06 -0.59 0.81 0.02
1 8.97 897 1.891 -9.433 3.031 0.671 10.864 -0.732 -427.372 2252.283 -3672.607 -0.673 0.171 -0.072 0.06 -0.59 0.81 0.02
1 8.98 898 2.093 -9.563 3.175 -2.441 12.634 0.824 -502.473 2282.263 -3747.559 -0.874 0.301 -0.214 0.06 -0.59 0.81 0.02
1 8.99 899 1.925 -9.572 3.237 -5.493 12.817 4.425 -562.434 2192.322 -3732.568 -0.707 0.310 -0.276 0.06 -0.59 0.81 0.02
1 9.00 900 1.724 -9.386 3.113 -9.247 11.688 11.353 -487.482 2222.302 -3807.669 -0.522 0.118 -0.162 0.06 -0.59 0.81 0.02
1 9.01 901 1.523 -9.285 3.041 -9.918 10.864 14.221 -442.512 2267.273 -3657.617 -0.339 0.012 -0.101 0.06 -0.59 0.81 0.02
1 9.02 902 1.226 -9.208 3.065 -8.179 9.338 14.771 -442.512 2267.273 -3657.617 -0.064 -0.071 -0.135 0.06 -0.59 0.81 0.02
1 9.03 903 1.092 -9.141 3.266 -6.531 9.033 11.993 -412.381 2192.322 -3582.666 0.047 -0.144 -0.345 0.05 -0.59 0.81 0.02
1 9.04 904 1.044 -9.275 3.285 -4.272 10.071 7.721 -412.381 2192.322 -3582.666 0.075 -0.013 -0.369 0.05 -0.59 0.81 0.02
1 9.05 905 1.106 -9.343 2.993 -3.906 9.766 5.524 -487.482 2267.273 -3612.646 -0.004 0.051 -0.080 0.05 -0.59 0.81 0.02
1 9.06 906 1.360 -9.553 2.883 -2.350 8.972 3.876 -397.391 2282.263 -3672.607 -0.271 0.259 0.029 0.05 -0.59 0.8 0.02
1 9.07 907 1.844 -9.965 2.868 1.068 10.010 5.402 -427.372 2177.332 -3777.689 -0.773 0.668 0.040 0.05 -0.59 0.8 0.02
1 9.08 908 2.059 -9.960 2.820 1.404 10.864 8.759 -277.469 2252.283 -3702.588 -0.996 0.663 0.089 0.05 -0.59 0.8 0.02
1 9.09 909 2.198 -9.788 2.868 0.732 10.437 13.611 -277.469 2252.283 -3702.588 -1.148 0.489 0.043 0.05 -0.59 0.8 0.02
1 9.10 910 2.102 -9.572 3.060 -1.038 11.475 14.984 -517.463 2267.273 -3657.617 -1.068 0.272 -0.149 0.05 -0.59 0.8 0.02
1 9.11 911 2.107 -9.515 3.184 -1.587 17.059 15.442 -517.463 2267.273 -3657.617 -1.093 0.212 -0.273 0.05 -0.59 0.8 0.02
1 9.12 912 1.470 -9.022 3.127 -3.510 30.426 16.693 -427.372 2177.332 -3702.588 -0.479 -0.283 -0.214 0.04 -0.59 0.8 0.02
1 9.13 913 0.943 -9.065 2.849 -4.059 37.140 16.602 -487.482 2267.273 -3687.598 0.016 -0.243 0.065 0.04 -0.59 0.81 0.02
1 9.14 914 0.292 -9.003 2.543 -3.479 30.975 14.221 -307.450 2387.345 -3732.568 0.591 -0.312 0.373 0.04 -0.59 0.81 0.03
1 9.15 915 0.493 -8.959 2.653 -2.441 18.158 7.935 -202.518 2357.364 -3702.588 0.355 -0.359 0.260 0.03 -0.59 0.8 0.03
1 9.16 916 1.135 -9.457 3.012 3.601 10.407 -4.211 -202.518 2357.364 -3702.588 -0.303 0.137 -0.100 0.03 -0.59 0.8 0.03
1 9.17 917 1.647 -9.343 3.127 5.829 8.820 -7.263 -172.688 2206.562 -3570.074 -0.811 0.025 -0.207 0.03 -0.59 0.81 0.03
1 9.18 918 1.815 -9.419 3.151 1.099 11.780 -3.265 -172.688 2206.562 -3570.074 -0.968 0.106 -0.222 0.03 -0.59 0.81 0.03
1 9.19 919 1.710 -9.271 3.089 -11.383 19.074 7.599 -307.750 2311.494 -3810.068 -0.860 -0.042 -0.158 0.03 -0.59 0.81 0.03
1 9.20 920 1.743 -9.050 3.113 -13.397 20.966 5.280 -202.668 2176.582 -3525.104 -0.903 -0.266 -0.192 0.03 -0.59 0.81 0.03
1 9.21 921 1.484 -9.577 3.031 -8.331 26.184 -0.366 -202.668 2176.582 -3525.104 -0.659 0.254 -0.125 0.03 -0.59 0.8 0.03
1 9.22 922 0.838 -9.836 3.046 0.488 35.462 -3.357 -112.727 2311.494 -3615.195 -0.023 0.509 -0.150 0.03 -0.59 0.8 0.03
1 9.23 923 0.445 -9.946 3.323 0.397 39.093 -1.190 -112.727 2311.494 -3615.195 0.359 0.620 -0.422 0.02 -0.59 0.8 0.04
1 9.24 924 0.292 -10.319 3.395 -2.838 37.262 3.113 -232.798 2221.553 -3735.117 0.492 0.994 -0.487 0.02 -0.59 0.8 0.04
1 9.25 925 0.345 -10.176 3.314 -2.655 28.107 8.453 -232.798 2221.553 -3735.117 0.414 0.848 -0.405 0.02 -0.59 0.8 0.04
1 9.26 926 0.843 -10.147 3.160 4.395 9.583 2.899 -22.785 2206.562 -3705.136 -0.107 0.818 -0.252 0.02 -0.59 0.8 0.04
1 9.27 927 0.900 -9.874 2.950 10.529 2.777 4.211 -157.697 2311.494 -3660.166 -0.176 0.545 -0.036 0.02 -0.59 0.8 0.04
1 9.28 928 1.063 -9.534 2.945 14.618 -0.122 9.369 -157.697 2311.494 -3660.166 -0.346 0.209 -0.018 0.02 -0.59 0.8 0.04
1 9.29 929 1.250 -9.491 3.227 14.374 3.357 15.259 7.045 2206.562 -3750.107 -0.558 0.177 -0.260 0.02 -0.59 0.81 0.04
1 9.30 930 0.982 -9.237 3.323 9.857 7.874 16.815 7.045 2206.562 -3750.107 -0.311 -0.072 -0.335 0.01 -0.59 0.81 0.04
1 9.31 931 0.747 -9.165 3.218 3.723 9.979 16.724 -37.775 2146.602 -3735.117 -0.102 -0.141 -0.215 0.01 -0.59 0.81 0.04
1 9.32 932 0.852 -9.189 3.544 2.136 11.017 7.294 -37.775 2146.602 -3735.117 -0.233 -0.116 -0.533 0.01 -0.59 0.81 0.04
1 9.33 933 0.546 -9.046 3.524 6.012 15.595 -1.312 -37.775 2191.572 -3690.146 0.062 -0.258 -0.505 0.01 -0.59 0.81 0.04
1 9.34 934 0.129 -8.964 3.390 13.153 21.423 -7.813 -67.756 2326.484 -3645.175 0.477 -0.334 -0.355 0.01 -0.59 0.81 0.04
1 9.35 935 -0.196 -8.935 3.405 12.543 22.522 -8.575 -67.756 2326.484 -3645.175 0.803 -0.355 -0.346 0.01 -0.59 0.81 0.04
1 9.36 936 0.053 -9.208 3.567 2.319 16.968 -7.202 -22.785 2251.533 -3825.058 0.541 -0.070 -0.471 0.01 -0.58 0.81 0.04
1 9.37 937 0.445 -9.999 3.898 4.913 17.548 -12.390 -22.785 2251.533 -3825.058 0.148 0.722 -0.793 0.01 -0.58 0.81 0.04
1 9.38 938 0.579 -10.066 3.903 11.505 17.334 -10.284 37.176 2311.494 -3690.146 0.020 0.795 -0.782 0.01 -0.58 0.81 0.04
1 9.39 939 0.417 -9.917 3.740 10.681 11.627 -5.157 37.176 2311.494 -3690.146 0.188 0.653 -0.601 0 -0.58 0.81 0.05
1 9.40 940 0.335 -9.845 3.558 9.216 4.089 1.587 67.156 2146.602 -3615.195 0.269 0.587 -0.402 0 -0.58 0.81 0.05
1 9.41 941 0.134 -9.606 3.342 9.186 -8.667 5.981 7.045 2206.562 -3645.175 0.462 0.352 -0.172 0 -0.58 0.81 0.05
1 9.42 942 0.211 -9.079 3.309 11.047 -12.848 2.808 7.045 2206.562 -3645.175 0.377 -0.171 -0.125 0 -0.58 0.81 0.05
1 9.43 943 0.464 -9.228 3.544 13.611 -8.698 -3.967 82.146 2206.562 -3645.175 0.120 -0.017 -0.345 0 -0.58 0.81 0.05
1 9.44 944 0.412 -8.868 3.635 15.320 4.486 -4.700 37.176 2311.494 -3615.195 0.184 -0.360 -0.392 0.01 -0.58 0.81 0.05
1 9.45 945 0.249 -8.902 3.548 9.552 10.193 0.641 -22.785 2011.540 -3780.087 0.347 -0.319 -0.282 0 -0.58 0.82 0.05
1 9.46 946 0.532 -9.055 3.572 3.021 9.918 -2.228 -22.785 2011.540 -3780.087 0.056 -0.160 -0.291 0 -0.58 0.82 0.05
1 9.47 947 0.728 -9.390 3.802 6.989 11.231 -4.883 -82.746 2221.553 -3765.097 -0.142 0.178 -0.513 0 -0.58 0.82 0.05
1 9.48 948 0.646 -9.481 3.936 13.306 9.705 -4.425 -37.775 2071.500 -3765.097 -0.058 0.275 -0.630 0 -0.58 0.82 0.05
1 9.49 949 0.690 -9.457 3.903 12.238 6.592 -0.244 -37.775 2071.500 -3765.097 -0.098 0.259 -0.575 0 -0.57 0.82 0.05
1 9.50 950 0.651 -9.242 3.869 10.681 5.432 2.625 -127.717 2056.510 -3675.156 -0.061 0.051 -0.519 0 -0.57 0.82 0.05
1 9.51 951 0.196 -8.964 3.706 8.423 5.585 5.859 -127.717 2251.533 -3750.107 0.379 -0.214 -0.320 0 -0.57 0.82 0.05
1 9.52 952 -0.086 -8.888 3.615 8.911 5.249 6.470 -37.775 2191.572 -3615.195 0.647 -0.286 -0.213 0 -0.57 0.82 0.05
1 9.53 953 -0.134 -8.672 3.510 10.254 5.493 5.157 -37.775 2191.572 -3615.195 0.679 -0.496 -0.092 0 -0.57 0.82 0.05
1 9.54 954 -0.235 -8.706 3.467 11.749 3.296 0.580 -22.785 2101.481 -3750.107 0.767 -0.457 -0.032 0 -0.57 0.82 0.05
1 9.55 955 -0.244 -8.715 3.505 13.580 2.258 -3.693 52.166 1936.588 -3780.087 0.770 -0.441 -0.051 0 -0.57 0.82 0.05
1 9.56 956 0.053 -8.864 3.716 11.780 3.021 -10.956 52.166 1936.588 -3780.087 0.473 -0.284 -0.241 -0 -0.57 0.82 0.05
1 9.57 957 0.235 -9.098 3.735 7.690 3.479 -13.336 37.176 2041.520 -3765.097 0.298 -0.042 -0.240 0 -0.57 0.82 0.05
1 9.58 958 0.196 -9.223 3.639 -2.075 -1.892 -4.883 37.176 2041.520 -3840.048 0.358 0.092 -0.124 0 -0.57 0.82 0.05
1 9.59 959 0.321 -9.491 3.960 -4.944 -8.362 -1.282 97.137 1966.569 -3810.068 0.238 0.359 -0.449 0 -0.57 0.82 0.05
1 9.60 960 0.632 -9.615 3.994 -3.021 -12.695 2.014 97.137 1966.569 -3810.068 -0.069 0.481 -0.488 0 -0.57 0.82 0.05
1 9.61 961 0.852 -9.553 4.027 2.502 -11.658 2.869 7.045 1981.559 -3780.087 -0.286 0.419 -0.522 0 -0.57 0.82 0.05
1 9.62 962 1.006 -9.395 4.061 6.622 -7.111 3.632 82.146 2011.540 -3780.087 -0.436 0.264 -0.549 0 -0.57 0.82 0.05
1 9.63 963 1.044 -9.165 3.960 7.233 0.061 4.700 82.146 2011.540 -3780.087 -0.474 0.038 -0.437 0 -0.57 0.82 0.05
1 9.64 964 0.943 -8.993 3.773 8.484 3.479 6.531 -172.688 2101.481 -3825.058 -0.377 -0.129 -0.237 0 -0.57 0.82 0.05
1 9.65 965 0.991 -8.825 3.706 11.322 5.310 6.561 -22.785 2011.540 -3825.058 -0.432 -0.292 -0.156 0 -0.56 0.82 0.05
1 9.66 966 0.072 -8.821 3.567 12.634 7.843 8.209 -7.495 2147.651 -3987.252 0.467 -0.283 0.020 0 -0.56 0.83 0.05
1 9.67 967 -0.407 -8.897 3.457 7.843 7.538 6.470 -7.495 2147.651 -3987.252 0.928 -0.201 0.147 0 -0.56 0.83 0.05
1 9.68 968 -0.646 -9.237 3.630 3.784 8.453 1.404 -22.485 1982.608 -3822.210 1.150 0.142 -0.015 0 -0.56 0.83 0.05
1 9.69 969 -0.479 -9.467 3.716 3.082 7.599 -6.348 -67.456 2102.530 -3747.259 0.970 0.373 -0.097 -0 -0.56 0.83 0.05
1 9.70 970 -0.182 -9.869 3.807 7.263 1.556 -12.970 -67.456 2102.530 -3747.259 0.673 0.777 -0.182 -0 -0.56 0.83 0.05
1 9.71 971 0.034 -9.429 3.730 5.035 -8.453 0.458 37.326 2117.521 -3732.269 0.466 0.341 -0.097 -0 -0.56 0.83 0.05
1 9.72 972 0.824 -9.405 3.927 0.916 -18.982 9.705 37.326 2072.550 -3912.301 -0.322 0.320 -0.286 -0 -0.56 0.83 0.05
1 9.73 973 2.208 -9.467 4.492 3.479 -16.754 13.763 97.287 2042.569 -3912.301 -1.713 0.383 -0.849 0 -0.56 0.83 0.04
1 9.74 974 2.533 -9.304 4.535 10.712 -5.310 11.780 97.287 2042.569 -3912.301 -2.038 0.224 -0.882 0 -0.56 0.83 0.04
1 9.75 975 2.097 -9.012 4.195 13.367 8.057 6.134 52.316 2012.589 -3777.239 -1.608 -0.061 -0.523 0 -0.56 0.83 0.04
1 9.76 976 1.106 -8.227 3.577 7.904 13.367 14.008 -22.485 2057.560 -3777.239 -0.621 -0.837 0.117 0 -0.56 0.83 0.04
1 9.77 977 0.302 -8.208 3.213 0.488 7.751 12.207 -22.485 2057.560 -3777.239 0.164 -0.853 0.492 0 -0.56 0.83 0.04
1 9.78 978 -0.177 -8.505 3.060 5.615 0.488 2.960 -22.485 1937.638 -3702.288 0.624 -0.557 0.646 -0 -0.56 0.83 0.04
1 9.79 979 -0.704 -8.648 3.065 11.749 0.214 -3.876 37.326 2072.550 -3867.181 1.141 -0.412 0.644 -0 -0.56 0.83 0.04
1 9.80 980 -0.704 -8.873 3.620 11.963 3.448 -10.712 52.316 1832.556 -3852.190 1.138 -0.176 0.116 -0 -0.56 0.83 0.04
1 9.81 981 -0.211 -9.175 4.046 6.409 5.829 -16.022 52.316 1832.556 -3852.190 0.651 0.132 -0.295 -0 -0.56 0.83 0.04
1 9.82 982 0.297 -9.395 4.267 0.580 5.890 -15.717 -67.456 1937.638 -3957.272 0.157 0.356 -0.507 -0 -0.56 0.83 0.04
1 9.83 983 0.809 -9.678 4.190 -4.395 2.502 -7.568 7.345 1937.638 -3852.190 -0.341 0.640 -0.429 -0 -0.56 0.83 0.04
1 9.84 984 1.135 -9.668 4.109 -6.378 -4.791 4.639 7.345 1937.638 -3852.190 -0.660 0.629 -0.353 -0 -0.56 0.83 0.04
1 9.85 985 1.992 -9.635 4.286 -0.061 -12.817 8.789 -7.495 1892.517 -3942.282 -1.519 0.592 -0.539 -0 -0.56 0.83 0.04
1 9.86 986 2.543 -9.438 4.214 9.460 -10.529 7.202 52.316 1862.537 -3927.292 -2.066 0.394 -0.470 0 -0.56 0.83 0.04
1 9.87 987 2.457 -9.170 4.161 16.602 -2.930 2.075 52.316 1862.537 -3927.292 -1.978 0.130 -0.408 0 -0.56 0.83 0.04
1 9.88 988 0.986 -8.567 3.510 6.744 7.538 8.331 82.296 1907.507 -3897.311 -0.486 -0.454 0.287 0 -0.55 0.83 0.04
1 9.89 989 0.292 -8.514 3.295 -3.906 10.162 11.383 -67.456 1937.638 -3822.210 0.197 -0.505 0.509 0 -0.55 0.83 0.04
1 9.90 990 -0.201 -8.844 3.208 -2.991 10.132 9.705 97.287 1997.599 -3867.181 0.669 -0.178 0.588 0 -0.55 0.83 0.04
1 9.91 991 -0.599 -9.041 3.170 3.174 7.507 2.411 97.287 1997.599 -3867.181 1.045 0.015 0.622 -0 -0.55 0.83 0.04
1 9.92 992 -0.460 -9.098 3.309 10.559 1.526 -10.040 -22.485 2012.589 -4077.194 0.896 0.073 0.486 -0 -0.55 0.83 0.04
1 9.93 993 0.043 -9.400 3.601 10.498 -1.190 -15.717 7.345 1937.638 -3852.190 0.395 0.379 0.203 -0 -0.55 0.83 0.04
1 9.94 994 0.493 -9.615 3.759 6.561 -1.801 -16.144 7.345 1937.638 -3852.190 -0.040 0.600 0.057 -0 -0.55 0.83 0.04
1 9.95 995 1.235 -9.807 4.176 1.160 -0.488 -7.202 -37.476 1922.647 -3837.200 -0.741 0.799 -0.348 0 -0.55 0.83 0.04
1 9.96 996 1.384 -9.812 3.975 -0.732 0.977 9.186 82.296 2057.560 -3927.292 -0.881 0.804 -0.147 0 -0.55 0.83 0.04
1 9.97 997 1.551 -9.783 4.128 -0.763 -0.763 13.336 37.326 1922.647 -3762.249 -1.061 0.774 -0.302 0 -0.55 0.83 0.04
1 9.98 998 1.657 -9.788 4.291 5.096 -0.031 13.397 37.326 1922.647 -3762.249 -1.177 0.779 -0.464 0 -0.55 0.83 0.04
1 9.99 999 1.408 -9.644 4.271 13.001 0.427 10.010 7.345 1907.507 -3927.292 -0.946 0.638 -0.435 -0 -0.55 0.83 0.04
1 10.00 1000 0.982 -8.940 3.965 15.656 2.075 7.568 232.349 1937.638 -3747.259 -0.527 -0.057 -0.108 -0 -0.55 0.83 0.04
1 10.01 1001 0.742 -8.524 3.802 10.773 1.343 6.165 232.349 1937.638 -3747.259 -0.294 -0.465 0.077 -0 -0.55 0.83 0.04
1 10.02 1002 0.498 -8.466 3.266 4.974 0.183 5.890 67.306 1967.618 -3762.249 -0.063 -0.511 0.642 -0 -0.55 0.84 0.04
1 10.03 1003 0.187 -8.548 3.089 5.463 0.244 3.479 37.326 1772.595 -3837.200 0.242 -0.428 0.823 -0 -0.55 0.84 0.04
1 10.04 1004 0.345 -8.950 3.204 8.698 2.502 -0.183 142.407 1967.618 -3912.301 0.079 -0.024 0.713 -0 -0.55 0.84 0.04
1 10.05 1005 0.306 -9.151 3.208 12.970 4.791 -4.974 142.407 1967.618 -3912.301 0.117 0.182 0.718 -0 -0.55 0.84 0.04
1 10.06 1006 0.134 -9.252 3.529 11.902 5.066 -8.606 7.345 1937.638 -3927.292 0.293 0.289 0.411 -0 -0.55 0.84 0.04
1 10.07 1007 0.560 -9.424 3.759 7.965 3.387 -10.895 7.345 1757.605 -3777.239 -0.125 0.467 0.193 -0 -0.55 0.84 0.04
1 10.08 1008 0.512 -9.951 3.821 6.775 2.228 -4.700 7.345 1757.605 -3777.239 -0.066 0.998 0.140 -0 -0.55 0.84 0.04
1 10.09 1009 0.690 -9.371 3.481 8.759 -1.831 6.531 -82.446 1847.546 -3867.181 -0.233 0.422 0.486 -0 -0.55 0.84 0.04
1 10.10 1010 1.121 -9.558 3.539 13.184 -10.132 7.690 37.326 1802.576 -3987.252 -0.673 0.616 0.446 -0 -0.54 0.84 0.04
1 10.11 1011 1.398 -9.161 3.563 20.447 -9.125 9.003 -22.485 1832.556 -4077.194 -0.952 0.225 0.438 -0 -0.54 0.84 0.04
1 10.12 1012 1.494 -9.266 3.649 23.254 -5.188 10.864 -22.485 1832.556 -4077.194 -1.048 0.342 0.377 0 -0.54 0.84 0.04
1 10.13 1013 1.437 -8.864 3.745 20.325 -0.061 15.167 -7.495 1922.647 -3987.252 -0.996 -0.048 0.309 0 -0.54 0.84 0.04
1 10.14 1014 1.312 -8.643 3.721 9.674 4.944 15.656 -82.446 1847.546 -3987.252 -0.886 -0.258 0.356 0 -0.54 0.84 0.04
