COL1	TIME	ACC_X	ACC_Y	ACC_Z	GYR_X	GYR_Y	GYR_Z	MAG_X	MAG_Y	MAG_Z	LACC_X	LACC_Y	LACC_Z	QUAT_X	QUAT_Y	QUAT_Z	QUAT_W
1 0.00 0 0.819 -9.726 0.776 0.000 -2.289 1.495 -149.902 1364.861 4439.058 -0.118 -0.022 -0.044 0.03 -0.68 0.73 0.02
1 0.01 1 0.733 -9.783 0.694 0.153 -2.411 1.648 -284.964 1304.900 4379.097 -0.031 0.036 0.038 0.03 -0.68 0.73 0.02
1 0.02 2 0.570 -9.812 0.761 -0.214 -1.862 1.251 -119.922 1394.991 4439.058 0.132 0.064 -0.029 0.03 -0.68 0.73 0.02
1 0.03 3 0.685 -9.812 0.790 0.244 -1.892 1.770 -119.922 1394.991 4439.058 0.017 0.064 -0.058 0.03 -0.68 0.73 0.02
1 0.04 4 0.694 -9.735 0.771 -0.366 -1.129 1.678 -209.863 1379.851 4529.000 0.007 -0.012 -0.038 0.03 -0.68 0.73 0.02
1 0.05 5 0.891 -9.773 0.752 -0.061 -1.984 1.953 -179.883 1304.900 4454.048 -0.189 0.026 -0.019 0.03 -0.68 0.73 0.02
1 0.06 6 0.733 -9.845 0.737 0.580 -1.465 1.434 -179.883 1304.900 4454.048 -0.030 0.098 -0.005 0.03 -0.68 0.73 0.02
1 0.07 7 0.656 -9.678 0.757 -0.336 -1.282 2.075 -284.964 1424.972 4484.029 0.047 -0.070 -0.024 0.03 -0.68 0.73 0.02
1 0.08 8 0.718 -9.687 0.809 -0.366 -1.556 2.289 -359.916 1154.848 4484.029 -0.015 -0.060 -0.077 0.03 -0.68 0.73 0.02
1 0.09 9 0.680 -9.797 0.785 -0.153 -1.648 1.526 -329.935 1214.958 4394.087 0.023 0.050 -0.052 0.03 -0.68 0.73 0.02
1 0.10 10 0.742 -9.807 0.761 -1.160 -1.251 1.343 -329.935 1214.958 4394.087 -0.039 0.060 -0.028 0.03 -0.68 0.73 0.02
1 0.11 11 0.651 -9.864 0.795 -0.702 -1.282 1.709 -284.964 1229.949 4379.097 0.052 0.117 -0.062 0.03 -0.68 0.73 0.02
1 0.12 12 0.704 -9.797 0.824 0.000 -0.732 1.740 -239.994 1424.972 4454.048 -0.001 0.050 -0.090 0.03 -0.68 0.73 0.02
1 0.13 13 0.718 -9.845 0.661 -0.122 -0.702 2.106 -239.994 1424.972 4454.048 -0.015 0.098 0.073 0.03 -0.68 0.73 0.02
1 0.14 14 0.709 -9.855 0.632 0.153 -0.427 1.648 -329.935 1439.962 4364.107 -0.005 0.108 0.102 0.03 -0.68 0.73 0.02
1 0.15 15 0.685 -9.778 0.781 0.824 -0.183 2.014 -329.935 1439.962 4364.107 0.019 0.031 -0.047 0.03 -0.68 0.73 0.02
1 0.16 16 0.699 -9.673 0.699 0.275 -0.671 2.106 -209.863 1379.851 4379.097 0.004 -0.074 0.035 0.03 -0.68 0.73 0.02
1 0.17 17 0.709 -9.740 0.757 -0.732 -0.122 1.678 -209.863 1379.851 4379.097 -0.005 -0.007 -0.022 0.03 -0.68 0.73 0.02
1 0.18 18 0.752 -9.802 0.728 -0.092 -0.519 1.556 -299.955 1244.939 4439.058 -0.049 0.055 0.006 0.03 -0.68 0.73 0.02
1 0.19 19 0.690 -9.697 0.661 -0.305 -1.099 1.434 -299.955 1289.910 4364.107 0.014 -0.050 0.072 0.03 -0.68 0.73 0.02
1 0.20 20 0.728 -9.769 0.728 0.488 -0.946 1.923 -299.955 1289.910 4364.107 -0.025 0.022 0.005 0.03 -0.68 0.73 0.02
1 0.21 21 0.790 -9.826 0.603 -0.885 -1.190 1.801 -104.932 1304.900 4379.097 -0.087 0.079 0.130 0.03 -0.68 0.73 0.02
1 0.22 22 0.718 -9.759 0.579 -0.977 -1.038 2.106 -104.932 1304.900 4379.097 -0.014 0.012 0.153 0.03 -0.68 0.73 0.02
1 0.23 23 0.761 -9.912 0.757 -1.007 -0.946 1.709 -269.974 1244.939 4469.039 -0.058 0.165 -0.024 0.03 -0.68 0.73 0.02
1 0.24 24 0.747 -9.826 0.680 -0.580 -0.061 2.380 -269.974 1244.939 4469.039 -0.043 0.079 0.052 0.03 -0.68 0.73 0.02
1 0.25 25 0.833 -9.912 0.694 -0.061 -0.671 2.197 -224.854 1289.910 4394.087 -0.130 0.165 0.037 0.03 -0.68 0.73 0.02
1 0.26 26 0.804 -9.855 0.742 -0.305 0.092 2.472 -119.922 1394.991 4334.126 -0.100 0.108 -0.011 0.03 -0.68 0.73 0.02
1 0.27 27 0.666 -9.797 0.776 0.183 0.061 1.465 -119.922 1394.991 4334.126 0.038 0.050 -0.046 0.03 -0.68 0.73 0.02
1 0.28 28 0.828 -9.807 0.642 -0.916 0.092 1.740 -314.945 1304.900 4454.048 -0.125 0.060 0.088 0.03 -0.68 0.73 0.02
1 0.29 29 0.742 -9.812 0.690 -1.312 0.000 1.709 -314.945 1304.900 4454.048 -0.039 0.064 0.039 0.03 -0.68 0.73 0.02
1 0.30 30 0.704 -9.841 0.613 -0.305 -0.641 1.831 -209.863 1229.949 4484.029 -0.000 0.093 0.114 0.03 -0.68 0.73 0.02
1 0.31 31 0.713 -9.893 0.680 1.007 -0.946 1.312 -209.863 1229.949 4484.029 -0.010 0.145 0.046 0.03 -0.68 0.73 0.02
1 0.32 32 0.781 -9.807 0.771 0.336 -0.275 1.465 -269.974 1214.958 4364.107 -0.077 0.059 -0.046 0.03 -0.68 0.73 0.02
1 0.33 33 0.685 -9.797 0.704 0.214 -0.061 1.434 -104.932 1454.952 4409.078 0.019 0.050 0.021 0.03 -0.68 0.73 0.02
1 0.34 34 0.757 -9.754 0.599 -0.793 -0.031 1.526 -104.932 1454.952 4409.078 -0.053 0.007 0.125 0.03 -0.68 0.73 0.02
1 0.35 35 0.685 -9.898 0.685 -0.519 -0.183 1.740 -194.873 1289.910 4499.019 0.019 0.150 0.037 0.03 -0.68 0.73 0.02
1 0.36 36 0.704 -9.812 0.555 0.397 -0.275 2.136 -194.873 1289.910 4499.019 0.001 0.064 0.165 0.03 -0.68 0.73 0.02
1 0.37 37 0.766 -9.773 0.757 0.824 -0.275 1.862 -134.912 1229.949 4454.048 -0.062 0.025 -0.036 0.03 -0.68 0.73 0.02
1 0.38 38 0.685 -9.831 0.723 0.763 0.092 1.984 -149.902 1319.890 4544.140 0.019 0.083 -0.002 0.03 -0.68 0.73 0.02
1 0.39 39 0.824 -9.826 0.656 -0.275 -0.214 1.404 -329.935 1214.958 4394.087 -0.120 0.078 0.066 0.03 -0.68 0.73 0.02
1 0.40 40 0.675 -9.769 0.666 -0.671 -0.244 1.770 -284.964 1199.968 4529.000 0.029 0.021 0.056 0.03 -0.68 0.73 0.02
1 0.41 41 0.680 -9.750 0.675 -0.854 -0.397 1.770 -284.964 1199.968 4529.000 0.024 0.001 0.045 0.03 -0.68 0.73 0.02
1 0.42 42 0.771 -9.797 0.651 -1.129 -0.275 1.678 -134.912 1124.867 4484.029 -0.066 0.049 0.068 0.03 -0.68 0.73 0.02
1 0.43 43 0.666 -9.812 0.599 -0.488 -0.458 1.556 -134.912 1124.867 4484.029 0.039 0.064 0.119 0.03 -0.68 0.73 0.02
1 0.44 44 0.670 -9.898 0.781 -0.092 -0.305 1.587 -314.945 1304.900 4529.000 0.034 0.150 -0.064 0.03 -0.68 0.73 0.02
1 0.45 45 0.795 -9.826 0.646 -0.519 -0.610 1.495 -284.964 1424.972 4349.117 -0.091 0.078 0.071 0.03 -0.68 0.73 0.02
1 0.46 46 0.680 -9.817 0.670 -0.824 -0.427 1.648 -209.863 1304.900 4529.000 0.024 0.068 0.047 0.03 -0.68 0.73 0.02
1 0.47 47 0.623 -9.841 0.713 -0.488 -0.732 1.892 -284.964 1304.900 4409.078 0.081 0.092 0.003 0.03 -0.68 0.73 0.02
1 0.48 48 0.781 -9.826 0.670 -1.587 -0.702 1.892 -284.964 1304.900 4409.078 -0.078 0.078 0.045 0.03 -0.68 0.73 0.02
1 0.49 49 0.747 -9.826 0.661 -0.854 -0.702 1.953 -194.873 1214.958 4364.107 -0.045 0.077 0.054 0.03 -0.68 0.73 0.02
1 0.50 50 0.737 -9.745 0.733 0.000 -0.824 1.465 -194.873 1214.958 4364.107 -0.035 -0.004 -0.019 0.03 -0.68 0.73 0.02
1 0.51 51 0.680 -9.759 0.642 -0.153 -0.946 1.129 -149.902 1364.861 4289.006 0.023 0.010 0.072 0.03 -0.68 0.73 0.02
1 0.52 52 0.790 -9.773 0.666 0.214 -1.770 1.160 -329.935 1319.890 4619.091 -0.087 0.025 0.048 0.03 -0.68 0.73 0.02
1 0.53 53 0.575 -9.812 0.766 -0.702 -1.404 1.373 -119.922 1214.958 4649.071 0.129 0.063 -0.053 0.03 -0.68 0.73 0.02
1 0.54 54 0.723 -9.735 0.690 -0.153 -1.434 1.678 -149.902 1319.890 4499.019 -0.020 -0.014 0.024 0.03 -0.68 0.73 0.02
1 0.55 55 0.666 -9.860 0.709 -1.007 -1.404 2.014 -149.902 1319.890 4499.019 0.037 0.111 0.005 0.03 -0.68 0.73 0.02
1 0.56 56 0.675 -9.879 0.618 -0.366 -1.282 1.923 -284.964 1199.968 4409.078 0.027 0.130 0.094 0.03 -0.68 0.73 0.02
1 0.57 57 0.728 -9.807 0.742 0.336 -1.434 1.923 -284.964 1199.968 4409.078 -0.026 0.058 -0.031 0.03 -0.68 0.73 0.02
1 0.58 58 0.632 -9.668 0.757 0.671 -0.885 1.801 -59.961 1454.952 4409.078 0.070 -0.081 -0.045 0.03 -0.68 0.73 0.02
1 0.59 59 0.728 -9.745 0.790 0.702 -1.007 1.770 -134.912 1274.919 4409.078 -0.027 -0.004 -0.079 0.03 -0.68 0.73 0.02
1 0.60 60 0.632 -9.788 0.809 -0.580 -1.343 1.617 -284.964 1274.919 4484.029 0.069 0.039 -0.098 0.03 -0.68 0.73 0.02
1 0.61 61 0.828 -9.812 0.713 -0.488 -1.831 1.831 -329.935 1319.890 4394.087 -0.127 0.063 -0.001 0.03 -0.68 0.73 0.02
1 0.62 62 0.733 -9.759 0.651 -0.488 -1.251 1.526 -329.935 1319.890 4394.087 -0.031 0.010 0.061 0.03 -0.68 0.73 0.02
1 0.63 63 0.737 -9.788 0.733 -0.092 -0.977 1.953 -149.902 1319.890 4499.019 -0.035 0.039 -0.020 0.03 -0.68 0.73 0.02
1 0.64 64 0.704 -9.778 0.728 0.397 -1.099 2.167 -149.902 1319.890 4499.019 -0.002 0.029 -0.016 0.03 -0.68 0.73 0.02
1 0.65 65 0.646 -9.855 0.713 0.153 -1.648 1.648 -149.902 1319.890 4544.140 0.056 0.106 -0.002 0.03 -0.68 0.73 0.02
1 0.66 66 0.757 -9.778 0.795 0.580 -1.251 1.312 -209.863 1304.900 4379.097 -0.055 0.029 -0.083 0.03 -0.68 0.73 0.02
1 0.67 67 0.675 -9.783 0.742 -0.153 -1.862 1.862 -209.863 1274.919 4484.029 0.026 0.034 -0.029 0.03 -0.68 0.73 0.02
1 0.68 68 0.728 -9.869 0.699 -0.580 -1.587 1.373 -329.935 1289.910 4394.087 -0.026 0.120 0.014 0.03 -0.68 0.73 0.02
1 0.69 69 0.656 -9.759 0.747 0.153 -1.373 1.343 -329.935 1289.910 4394.087 0.046 0.010 -0.035 0.03 -0.68 0.73 0.02
1 0.70 70 0.761 -9.778 0.718 0.427 -1.617 1.160 -194.873 1289.910 4469.039 -0.060 0.029 -0.006 0.03 -0.68 0.73 0.02
1 0.71 71 0.694 -9.764 0.781 1.465 -2.350 1.312 -194.873 1289.910 4469.039 0.008 0.015 -0.068 0.03 -0.68 0.73 0.02
1 0.72 72 0.623 -9.850 0.690 0.702 -1.465 1.617 -239.994 1304.900 4454.048 0.080 0.101 0.024 0.03 -0.68 0.73 0.02
1 0.73 73 0.670 -9.706 0.852 0.763 -1.923 2.167 -134.912 1349.871 4559.130 0.031 -0.042 -0.138 0.03 -0.68 0.73 0.02
1 0.74 74 0.723 -9.721 0.718 0.305 -1.495 2.228 -209.863 1304.900 4349.117 -0.021 -0.028 -0.003 0.03 -0.68 0.73 0.02
1 0.75 75 0.699 -9.812 0.704 0.305 -1.587 1.709 -179.883 1274.919 4484.029 0.003 0.063 0.011 0.03 -0.68 0.73 0.02
1 0.76 76 0.747 -9.836 0.718 -0.183 -1.953 1.617 -179.883 1274.919 4484.029 -0.046 0.087 -0.003 0.03 -0.68 0.73 0.02
1 0.77 77 0.800 -9.860 0.742 0.580 -1.770 2.136 -224.854 1364.861 4364.107 -0.098 0.111 -0.027 0.03 -0.68 0.73 0.02
1 0.78 78 0.824 -9.869 0.699 0.854 -0.916 2.411 -224.854 1364.861 4364.107 -0.121 0.121 0.016 0.03 -0.68 0.73 0.02
1 0.79 79 0.637 -9.922 0.675 0.580 -1.068 1.801 -194.873 1394.991 4394.087 0.066 0.173 0.039 0.03 -0.68 0.73 0.02
1 0.80 80 0.790 -9.706 0.757 0.305 -1.343 1.740 -179.883 1274.919 4484.029 -0.087 -0.042 -0.042 0.03 -0.68 0.73 0.02
1 0.81 81 0.709 -9.750 0.742 -0.397 -1.190 1.770 -119.922 1244.939 4469.039 -0.005 0.001 -0.027 0.03 -0.68 0.73 0.02
1 0.82 82 0.637 -9.706 0.718 0.214 -1.373 1.923 -269.974 1394.991 4469.039 0.066 -0.042 -0.004 0.03 -0.68 0.73 0.02
1 0.83 83 0.737 -9.788 0.747 0.183 -1.221 1.556 -269.974 1394.991 4469.039 -0.034 0.039 -0.032 0.03 -0.68 0.73 0.02
1 0.84 84 0.618 -9.826 0.623 0.366 -1.312 1.831 -224.854 1214.958 4439.058 0.086 0.078 0.092 0.03 -0.68 0.73 0.02
1 0.85 85 0.694 -9.663 0.742 0.366 -1.312 1.953 -224.854 1214.958 4439.058 0.009 -0.085 -0.027 0.03 -0.68 0.73 0.02
1 0.86 86 0.627 -9.702 0.699 -0.244 -1.465 1.282 -329.935 1244.939 4439.058 0.076 -0.047 0.016 0.03 -0.68 0.73 0.02
1 0.87 87 0.728 -9.831 0.757 -0.183 -1.709 1.801 -239.994 1349.871 4454.048 -0.025 0.082 -0.041 0.03 -0.68 0.73 0.02
1 0.88 88 0.690 -9.778 0.699 0.641 -1.099 1.831 -239.994 1199.968 4454.048 0.013 0.030 0.016 0.03 -0.68 0.73 0.02
1 0.89 89 0.690 -9.855 0.752 0.366 -1.007 1.190 -269.974 1169.988 4469.039 0.013 0.106 -0.037 0.03 -0.68 0.73 0.02
1 0.90 90 0.694 -9.706 0.766 0.427 -1.495 1.678 -269.974 1169.988 4469.039 0.009 -0.042 -0.051 0.03 -0.68 0.73 0.02
1 0.91 91 0.733 -9.869 0.723 0.671 -1.678 1.495 -194.873 1169.988 4469.039 -0.030 0.121 -0.008 0.03 -0.68 0.73 0.02
1 0.92 92 0.680 -9.802 0.718 -0.275 -1.129 2.045 -194.873 1169.988 4469.039 0.024 0.054 -0.003 0.03 -0.68 0.73 0.02
1 0.93 93 0.723 -9.726 0.747 0.061 -1.099 1.678 -179.883 1229.949 4454.048 -0.020 -0.023 -0.032 0.03 -0.68 0.73 0.02
1 0.94 94 0.718 -9.716 0.747 -0.061 -0.946 1.099 -59.961 1154.848 4304.146 -0.015 -0.032 -0.032 0.03 -0.68 0.73 0.02
1 0.95 95 0.646 -9.740 0.694 1.617 -0.763 1.709 -59.961 1154.848 4304.146 0.058 -0.008 0.021 0.03 -0.68 0.73 0.02
1 0.96 96 0.828 -9.788 0.752 0.854 -1.007 1.495 -209.863 1229.949 4529.000 -0.125 0.039 -0.035 0.03 -0.68 0.73 0.02
1 0.97 97 0.718 -9.864 0.766 0.336 -0.702 1.099 -209.863 1229.949 4529.000 -0.014 0.116 -0.049 0.03 -0.68 0.73 0.02
1 0.98 98 0.766 -9.778 0.656 0.427 -0.549 1.495 -179.883 1229.949 4409.078 -0.062 0.030 0.061 0.03 -0.68 0.73 0.02
1 0.99 99 0.752 -9.927 0.761 -0.092 -0.397 1.984 -179.883 1229.949 4409.078 -0.047 0.178 -0.045 0.03 -0.68 0.73 0.02
1 1.00 100 0.685 -9.812 0.699 -0.153 -0.671 1.404 -179.883 1304.900 4484.029 0.021 0.064 0.018 0.03 -0.68 0.73 0.02
1 1.01 101 0.752 -9.821 0.790 0.549 -0.702 1.434 -59.961 1274.919 4454.048 -0.046 0.073 -0.073 0.03 -0.68 0.73 0.02
1 1.02 102 0.771 -9.750 0.690 0.488 -0.610 1.587 -59.961 1274.919 4454.048 -0.066 0.001 0.028 0.03 -0.68 0.73 0.02
1 1.03 103 0.680 -9.864 0.694 0.214 0.458 1.801 -194.873 1319.890 4439.058 0.026 0.116 0.023 0.03 -0.68 0.73 0.02
1 1.04 104 0.852 -9.821 0.637 1.007 -0.244 1.801 -194.873 1319.890 4439.058 -0.147 0.073 0.081 0.03 -0.68 0.73 0.02
1 1.05 105 0.723 -9.884 0.675 0.824 0.000 1.892 -194.873 1214.958 4364.107 -0.018 0.136 0.044 0.03 -0.68 0.73 0.02
1 1.06 106 0.728 -9.831 0.761 0.671 0.183 1.801 -194.873 1214.958 4364.107 -0.023 0.083 -0.043 0.03 -0.68 0.73 0.02
1 1.07 107 0.704 -9.908 0.819 0.000 0.061 2.014 -314.945 1349.871 4529.000 0.002 0.160 -0.097 0.03 -0.68 0.73 0.02
1 1.08 108 0.646 -9.783 0.733 -0.031 -0.183 1.953 -134.912 1229.949 4529.000 0.059 0.035 -0.011 0.03 -0.68 0.73 0.02
1 1.09 109 0.637 -9.702 0.685 0.641 -0.519 1.801 -134.912 1229.949 4529.000 0.067 -0.046 0.037 0.03 -0.68 0.73 0.02
1 1.10 110 0.651 -9.735 0.800 1.068 -0.458 1.404 -209.863 1229.949 4529.000 0.052 -0.013 -0.077 0.03 -0.68 0.73 0.02
1 1.11 111 0.680 -9.802 0.709 0.092 -0.641 1.648 -209.863 1229.949 4529.000 0.023 0.054 0.016 0.03 -0.68 0.73 0.02
1 1.12 112 0.589 -9.759 0.666 -0.824 0.244 1.678 -179.883 1229.949 4484.029 0.114 0.011 0.060 0.03 -0.68 0.73 0.02
1 1.13 113 0.685 -9.773 0.637 -1.526 -0.366 1.740 -179.883 1229.949 4484.029 0.018 0.026 0.088 0.03 -0.68 0.73 0.02
1 1.14 114 0.666 -9.826 0.694 -0.031 -0.336 1.892 -284.964 1574.874 4454.048 0.037 0.078 0.026 0.03 -0.68 0.73 0.02
1 1.15 115 0.742 -9.979 0.699 0.519 -0.397 1.862 -239.994 1229.949 4409.078 -0.040 0.231 0.021 0.03 -0.68 0.73 0.02
1 1.16 116 0.594 -9.874 0.747 -0.427 -0.427 1.740 -239.994 1229.949 4409.078 0.108 0.126 -0.027 0.03 -0.68 0.73 0.02
1 1.17 117 0.618 -9.797 0.632 -0.122 -0.580 1.617 -179.883 1199.968 4409.078 0.084 0.049 0.088 0.03 -0.68 0.73 0.02
1 1.18 118 0.728 -9.797 0.728 -0.305 0.061 1.678 -269.974 1289.910 4469.039 -0.027 0.049 -0.008 0.03 -0.68 0.73 0.02
1 1.19 119 0.747 -9.955 0.766 0.366 0.275 2.350 -194.873 1289.910 4394.087 -0.046 0.207 -0.047 0.03 -0.68 0.73 0.02
1 1.20 120 0.570 -9.927 0.761 0.519 -0.397 1.923 -194.873 1289.910 4394.087 0.131 0.178 -0.041 0.03 -0.68 0.73 0.02
1 1.21 121 0.704 -9.682 0.728 0.885 -0.397 1.465 -284.964 1274.919 4379.097 -0.004 -0.066 -0.006 0.03 -0.68 0.73 0.02
1 1.22 122 0.527 -9.730 0.704 0.946 -0.214 1.556 -224.854 1364.861 4394.087 0.173 -0.018 0.020 0.03 -0.68 0.73 0.02
1 1.23 123 0.627 -9.932 0.747 0.000 -0.549 1.526 -224.854 1364.861 4394.087 0.072 0.183 -0.023 0.03 -0.68 0.73 0.02
1 1.24 124 0.776 -9.817 0.766 -0.702 -0.275 1.343 -194.873 1289.910 4439.058 -0.077 0.068 -0.042 0.03 -0.68 0.73 0.02
1 1.25 125 0.728 -9.807 0.685 0.000 -0.061 1.617 -149.902 1244.939 4574.120 -0.028 0.059 0.039 0.03 -0.68 0.73 0.02
1 1.26 126 0.704 -9.841 0.761 0.763 -0.061 1.862 -89.941 1364.861 4394.087 -0.005 0.092 -0.038 0.03 -0.68 0.73 0.02
1 1.27 127 0.642 -9.864 0.694 1.160 0.031 1.587 -89.941 1364.861 4394.087 0.057 0.116 0.030 0.03 -0.68 0.73 0.02
1 1.28 128 0.733 -9.888 0.785 0.977 0.580 2.197 -179.883 1349.871 4304.146 -0.035 0.140 -0.057 0.03 -0.68 0.73 0.02
1 1.29 129 0.833 -9.932 0.766 0.671 0.793 2.106 -179.883 1154.848 4484.029 -0.136 0.184 -0.037 0.03 -0.68 0.73 0.02
1 1.30 130 0.718 -9.793 0.771 0.275 0.397 1.892 -179.883 1154.848 4484.029 -0.021 0.045 -0.041 0.03 -0.68 0.73 0.02
1 1.31 131 0.666 -9.874 0.685 0.000 0.702 1.617 -224.854 1169.988 4394.087 0.032 0.126 0.047 0.03 -0.68 0.73 0.02
1 1.32 132 0.857 -9.864 0.809 -0.122 0.214 1.526 -104.932 1304.900 4559.130 -0.160 0.117 -0.078 0.03 -0.68 0.73 0.02
1 1.33 133 0.666 -9.711 0.757 -0.549 0.610 1.404 -239.994 1274.919 4409.078 0.032 -0.036 -0.025 0.03 -0.68 0.73 0.02
1 1.34 134 0.589 -9.797 0.804 0.092 0.366 1.740 -239.994 1274.919 4409.078 0.109 0.050 -0.073 0.03 -0.68 0.73 0.02
1 1.35 135 0.594 -9.817 0.742 0.519 -0.854 1.465 -239.994 1274.919 4304.146 0.104 0.069 -0.010 0.03 -0.68 0.73 0.02
1 1.36 136 0.508 -9.711 0.771 0.824 -0.763 1.984 -239.994 1229.949 4454.048 0.189 -0.036 -0.038 0.03 -0.68 0.73 0.02
1 1.37 137 0.642 -9.802 0.800 0.336 -1.129 1.862 -239.994 1229.949 4454.048 0.054 0.054 -0.067 0.03 -0.68 0.73 0.02
1 1.38 138 0.666 -9.821 0.713 -0.244 -1.007 1.648 -224.854 1214.958 4439.058 0.029 0.074 0.020 0.03 -0.68 0.73 0.02
1 1.39 139 0.694 -9.826 0.771 0.153 -1.465 1.740 -299.955 1319.890 4544.140 0.001 0.078 -0.037 0.03 -0.68 0.73 0.02
1 1.40 140 0.623 -9.673 0.651 0.275 -0.885 2.045 -149.902 1214.958 4439.058 0.073 -0.075 0.083 0.03 -0.68 0.73 0.02
1 1.41 141 0.728 -9.740 0.795 0.610 -0.763 1.953 -149.902 1214.958 4439.058 -0.033 -0.008 -0.061 0.03 -0.68 0.73 0.02
1 1.42 142 0.699 -9.759 0.675 0.366 -0.885 1.709 -209.863 1304.900 4454.048 -0.004 0.011 0.059 0.03 -0.68 0.73 0.02
1 1.43 143 0.742 -9.845 0.632 -0.153 -1.099 1.556 -299.955 1319.890 4394.087 -0.048 0.098 0.102 0.03 -0.68 0.73 0.02
1 1.44 144 0.709 -9.874 0.790 -0.275 -1.221 1.740 -299.955 1319.890 4394.087 -0.014 0.126 -0.056 0.03 -0.68 0.73 0.02
1 1.45 145 0.723 -9.845 0.857 0.061 -1.129 1.465 -179.883 1274.919 4409.078 -0.028 0.098 -0.123 0.03 -0.68 0.73 0.02
1 1.46 146 0.776 -9.946 0.690 0.610 -1.099 1.526 -194.873 1214.958 4439.058 -0.081 0.198 0.045 0.03 -0.68 0.73 0.02
1 1.47 147 0.594 -9.764 0.814 0.946 -1.770 1.648 -299.955 1214.958 4469.039 0.101 0.016 -0.080 0.03 -0.68 0.73 0.02
1 1.48 148 0.776 -9.826 0.752 0.916 -1.007 1.831 -299.955 1214.958 4469.039 -0.081 0.078 -0.017 0.03 -0.68 0.73 0.02
1 1.49 149 0.771 -9.735 0.709 -0.153 -0.824 2.136 -104.932 1274.919 4409.078 -0.076 -0.012 0.026 0.03 -0.68 0.73 0.02
1 1.50 150 0.742 -9.759 0.742 -0.641 -0.671 2.045 -119.922 1214.958 4544.140 -0.046 0.012 -0.008 0.03 -0.68 0.73 0.02
1 1.51 151 0.694 -9.845 0.704 -0.305 -1.099 1.740 -119.922 1214.958 4544.140 0.002 0.098 0.030 0.03 -0.68 0.73 0.02
1 1.52 152 0.694 -9.797 0.709 0.519 -1.129 1.526 -374.906 1214.958 4364.107 0.002 0.050 0.025 0.03 -0.68 0.73 0.02
1 1.53 153 0.728 -9.817 0.833 1.495 -0.977 1.953 -149.902 1244.939 4469.039 -0.031 0.069 -0.100 0.03 -0.68 0.73 0.02
1 1.54 154 0.699 -9.778 0.804 1.404 -0.549 2.014 -269.974 1364.861 4574.120 -0.003 0.031 -0.068 0.03 -0.68 0.73 0.02
1 1.55 155 0.618 -9.769 0.733 0.275 -1.007 1.526 -269.974 1364.861 4574.120 0.078 0.021 0.006 0.03 -0.68 0.73 0.02
1 1.56 156 0.733 -9.841 0.699 -0.366 -0.336 1.709 -149.902 1394.991 4364.107 -0.037 0.093 0.039 0.03 -0.68 0.73 0.02
1 1.57 157 0.642 -9.735 0.718 0.122 -0.946 1.434 -209.863 1274.919 4244.035 0.054 -0.012 0.020 0.03 -0.68 0.73 0.02
1 1.58 158 0.771 -9.764 0.690 0.702 -1.282 1.556 -209.863 1274.919 4244.035 -0.075 0.017 0.048 0.03 -0.68 0.73 0.02
1 1.59 159 0.761 -9.745 0.627 0.458 -1.160 1.801 -239.994 1199.968 4349.117 -0.066 -0.003 0.110 0.03 -0.68 0.73 0.02
1 1.60 160 0.771 -9.802 0.771 0.397 -2.197 1.740 -209.863 1229.949 4304.146 -0.074 0.055 -0.034 0.03 -0.68 0.73 0.02
1 1.61 161 0.819 -9.812 0.819 -0.549 -2.441 2.106 -134.912 1274.919 4349.117 -0.122 0.064 -0.081 0.03 -0.68 0.73 0.02
1 1.62 162 0.694 -9.831 0.833 0.305 -1.251 1.801 -134.912 1274.919 4349.117 0.002 0.084 -0.096 0.03 -0.68 0.73 0.02
1 1.63 163 0.704 -9.850 0.876 0.366 -2.075 1.953 -59.961 1274.919 4409.078 -0.007 0.103 -0.138 0.03 -0.68 0.73 0.02
1 1.64 164 0.709 -9.807 0.694 0.641 -1.556 1.831 -119.922 1319.890 4499.019 -0.012 0.060 0.044 0.03 -0.68 0.73 0.02
1 1.65 165 0.728 -9.855 0.781 0.916 -1.923 1.770 -119.922 1319.890 4499.019 -0.030 0.108 -0.042 0.03 -0.68 0.73 0.02
1 1.66 166 0.637 -9.764 0.747 0.763 -1.404 1.923 -269.974 1319.890 4469.039 0.061 0.017 -0.009 0.03 -0.68 0.73 0.02
1 1.67 167 0.704 -9.773 0.848 0.336 -1.129 1.770 -194.873 1364.861 4499.019 -0.007 0.026 -0.109 0.03 -0.68 0.73 0.02
1 1.68 168 0.733 -9.807 0.857 -0.214 -0.763 1.434 -44.971 1244.939 4394.087 -0.036 0.060 -0.119 0.03 -0.68 0.73 0.02
1 1.69 169 0.781 -9.721 0.733 -0.854 -1.038 2.106 -44.971 1244.939 4394.087 -0.084 -0.026 0.006 0.03 -0.68 0.73 0.02
1 1.70 170 0.675 -9.773 0.800 0.732 -0.977 2.136 -284.964 1154.848 4454.048 0.022 0.026 -0.060 0.03 -0.68 0.73 0.02
1 1.71 171 0.685 -9.860 0.757 -0.031 -1.160 2.167 -299.955 1244.939 4619.091 0.012 0.112 -0.017 0.03 -0.68 0.73 0.02
1 1.72 172 0.675 -9.869 0.876 0.183 -0.397 2.594 -299.955 1244.939 4619.091 0.021 0.122 -0.136 0.03 -0.68 0.73 0.02
1 1.73 173 0.680 -9.864 0.699 -0.122 -0.549 1.923 -149.902 1319.890 4499.019 0.016 0.117 0.041 0.03 -0.68 0.73 0.02
1 1.74 174 0.642 -9.778 0.757 0.031 -0.763 2.502 -299.955 1394.991 4499.019 0.054 0.031 -0.017 0.03 -0.68 0.73 0.02
1 1.75 175 0.651 -9.630 0.766 -0.732 -0.854 2.563 -299.955 1394.991 4499.019 0.043 -0.118 -0.027 0.03 -0.68 0.73 0.02
1 1.76 176 0.623 -9.860 0.713 -1.038 -0.397 1.862 -59.961 1199.968 4559.130 0.071 0.112 0.025 0.03 -0.68 0.73 0.02
1 1.77 177 0.761 -9.702 0.675 -1.282 -0.305 2.045 -224.854 1364.861 4394.087 -0.068 -0.046 0.061 0.03 -0.68 0.73 0.02
1 1.78 178 0.728 -9.893 0.699 -0.793 -0.275 2.533 -149.902 1319.890 4364.107 -0.035 0.145 0.034 0.03 -0.68 0.73 0.02
1 1.79 179 0.575 -9.874 0.795 0.183 0.305 2.838 -149.902 1319.890 4364.107 0.117 0.126 -0.063 0.03 -0.68 0.73 0.02
1 1.80 180 0.833 -9.860 0.857 0.153 0.885 2.136 -239.994 1349.871 4454.048 -0.144 0.111 -0.126 0.03 -0.68 0.73 0.02
1 1.81 181 0.551 -9.807 0.785 -0.458 0.275 2.869 -209.863 1229.949 4379.097 0.138 0.059 -0.054 0.03 -0.68 0.73 0.02
1 1.82 182 0.733 -9.692 0.699 0.702 1.404 2.777 -209.863 1229.949 4379.097 -0.046 -0.056 0.033 0.03 -0.68 0.73 0.02
1 1.83 183 0.694 -9.740 0.737 0.397 1.007 2.167 -119.922 1214.958 4364.107 -0.010 -0.009 -0.004 0.03 -0.68 0.73 0.02
1 1.84 184 0.623 -9.773 0.843 -0.702 1.862 2.472 -44.971 1289.910 4394.087 0.060 0.025 -0.108 0.03 -0.68 0.73 0.02
1 1.85 185 0.675 -10.008 0.776 -0.549 1.404 3.326 -329.935 1244.939 4439.058 0.006 0.259 -0.042 0.03 -0.68 0.73 0.02
1 1.86 186 0.718 -9.927 0.862 0.092 2.594 3.479 -329.935 1244.939 4439.058 -0.041 0.178 -0.128 0.03 -0.68 0.73 0.02
1 1.87 187 0.685 -9.821 0.747 2.563 3.510 3.723 -224.854 1214.958 4364.107 -0.012 0.072 -0.009 0.03 -0.68 0.73 0.02
1 1.88 188 0.742 -9.716 0.809 2.533 2.289 4.517 -104.932 1304.900 4379.097 -0.074 -0.033 -0.067 0.03 -0.68 0.73 0.02
1 1.89 189 0.709 -9.740 0.728 2.869 2.106 4.120 -104.932 1304.900 4379.097 -0.044 -0.009 0.020 0.03 -0.68 0.73 0.02
1 1.90 190 0.747 -9.797 0.804 0.824 2.045 3.052 -59.961 1349.871 4409.078 -0.085 0.049 -0.052 0.03 -0.68 0.73 0.02
1 1.91 191 0.733 -9.836 0.891 -3.143 2.106 3.967 -179.883 1304.900 4454.048 -0.072 0.087 -0.137 0.03 -0.68 0.73 0.02
1 1.92 192 0.680 -10.003 0.828 -4.425 1.495 4.150 -179.883 1124.867 4484.029 -0.022 0.254 -0.078 0.03 -0.68 0.73 0.02
1 1.93 193 0.512 -9.984 0.804 -2.808 2.808 2.747 -179.883 1124.867 4484.029 0.142 0.235 -0.060 0.03 -0.68 0.73 0.02
1 1.94 194 0.584 -10.018 0.723 2.350 2.380 1.617 -134.912 1274.919 4454.048 0.066 0.267 0.018 0.03 -0.68 0.73 0.02
1 1.95 195 0.613 -9.946 1.010 5.035 2.106 3.082 -104.932 1274.919 4454.048 0.036 0.196 -0.264 0.03 -0.68 0.73 0.02
1 1.96 196 0.666 -9.836 0.991 3.296 3.876 3.601 -104.932 1274.919 4454.048 -0.020 0.086 -0.236 0.02 -0.68 0.73 0.02
1 1.97 197 0.694 -9.941 1.025 1.038 5.707 4.059 -239.994 1274.919 4349.117 -0.052 0.192 -0.262 0.02 -0.68 0.73 0.02
1 1.98 198 0.733 -9.879 0.828 0.488 6.683 4.364 0.000 1199.968 4559.130 -0.095 0.130 -0.062 0.02 -0.68 0.73 0.02
1 1.99 199 0.771 -9.984 0.929 1.373 6.378 3.510 -134.912 1154.848 4484.029 -0.137 0.235 -0.161 0.02 -0.68 0.73 0.02
1 2.00 200 0.809 -9.979 0.943 3.296 6.989 3.021 -134.912 1154.848 4484.029 -0.178 0.230 -0.171 0.02 -0.68 0.73 0.02
1 2.01 201 0.704 -9.807 0.972 4.700 7.996 3.998 -209.863 1304.900 4529.000 -0.078 0.059 -0.186 0.02 -0.68 0.73 0.02
1 2.02 202 0.680 -9.826 1.034 4.639 8.606 4.334 -134.912 1274.919 4454.048 -0.058 0.078 -0.238 0.02 -0.68 0.73 0.02
1 2.03 203 0.579 -9.826 0.934 3.998 8.301 3.265 -134.912 1274.919 4454.048 0.038 0.079 -0.128 0.02 -0.68 0.74 0.02
1 2.04 204 0.670 -9.678 0.919 3.326 8.728 3.510 -179.883 1274.919 4409.078 -0.057 -0.069 -0.107 0.02 -0.68 0.74 0.02
1 2.05 205 0.656 -9.620 0.934 1.770 9.430 3.754 -149.902 1394.991 4439.058 -0.045 -0.126 -0.115 0.02 -0.68 0.74 0.02
1 2.06 206 0.670 -9.769 0.953 1.587 11.231 3.357 -14.990 1214.958 4394.087 -0.063 0.022 -0.129 0.02 -0.68 0.74 0.03
1 2.07 207 0.814 -9.611 0.986 1.343 10.742 2.625 -14.990 1214.958 4394.087 -0.210 -0.136 -0.158 0.02 -0.68 0.74 0.03
1 2.08 208 0.757 -9.687 0.848 2.167 11.841 1.801 14.990 1319.890 4289.006 -0.155 -0.058 -0.010 0.02 -0.68 0.74 0.03
1 2.09 209 0.584 -9.702 0.905 1.831 12.360 1.801 -239.994 1304.900 4409.078 0.017 -0.044 -0.063 0.02 -0.68 0.74 0.03
1 2.10 210 0.493 -9.735 1.001 2.228 14.221 1.648 -239.994 1304.900 4409.078 0.106 -0.010 -0.154 0.02 -0.68 0.74 0.03
1 2.11 211 0.455 -9.759 0.929 2.289 15.045 2.350 -194.873 1319.890 4499.019 0.141 0.014 -0.077 0.01 -0.68 0.74 0.03
1 2.12 212 0.278 -9.649 0.891 1.221 14.587 2.106 104.932 1199.968 4379.097 0.312 -0.096 -0.033 0.01 -0.68 0.74 0.03
1 2.13 213 0.441 -9.773 0.939 -0.580 15.137 2.563 -59.961 1424.972 4244.035 0.145 0.029 -0.077 0.01 -0.68 0.74 0.03
1 2.14 214 0.493 -9.888 0.924 -0.946 15.381 2.899 -59.961 1424.972 4244.035 0.088 0.144 -0.062 0.01 -0.68 0.74 0.03
1 2.15 215 0.484 -9.860 0.824 0.122 16.663 2.716 104.932 1274.919 4379.097 0.094 0.115 0.039 0.01 -0.68 0.74 0.03
1 2.16 216 0.503 -9.989 0.862 0.854 17.273 2.655 -179.883 1199.968 4409.078 0.067 0.244 0.003 0.01 -0.68 0.74 0.03
1 2.17 217 0.421 -9.932 0.895 1.617 17.731 2.747 -179.883 1199.968 4409.078 0.143 0.186 -0.027 0.01 -0.68 0.74 0.03
1 2.18 218 0.421 -9.927 1.010 1.862 18.677 2.045 14.990 1244.939 4439.058 0.138 0.182 -0.138 0.01 -0.67 0.74 0.03
1 2.19 219 0.235 -9.874 0.895 1.129 18.127 1.923 14.990 1244.939 4439.058 0.320 0.129 -0.018 0.01 -0.67 0.74 0.04
1 2.20 220 0.278 -9.946 0.953 2.167 18.189 1.526 -14.990 1169.988 4364.107 0.272 0.201 -0.072 0 -0.67 0.74 0.04
1 2.21 221 0.292 -9.903 0.939 3.906 17.273 1.953 -14.990 1169.988 4364.107 0.253 0.158 -0.053 0 -0.67 0.74 0.04
1 2.22 222 0.302 -9.716 1.010 6.195 17.426 2.045 14.990 1289.910 4544.140 0.239 -0.028 -0.118 0 -0.67 0.74 0.04
1 2.23 223 0.101 -9.678 0.867 4.852 16.205 2.106 44.971 1319.890 4394.087 0.428 -0.065 0.045 0 -0.67 0.74 0.04
1 2.24 224 0.177 -9.726 0.852 2.045 15.778 1.923 44.971 1319.890 4394.087 0.345 -0.017 0.066 -0 -0.67 0.74 0.04
1 2.25 225 0.153 -9.644 1.010 1.190 15.259 2.502 -14.990 1289.910 4289.006 0.363 -0.099 -0.088 -0 -0.67 0.74 0.04
1 2.26 226 0.014 -9.759 0.895 0.641 14.740 2.350 -14.990 1289.910 4289.006 0.496 0.016 0.030 -0 -0.67 0.74 0.04
1 2.27 227 0.148 -9.764 0.737 0.336 14.008 2.747 179.883 1274.919 4454.048 0.355 0.021 0.190 -0 -0.67 0.74 0.04
1 2.28 228 0.206 -9.750 0.752 0.488 13.916 2.899 179.883 1274.919 4454.048 0.292 0.006 0.176 -0 -0.67 0.74 0.04
1 2.29 229 0.172 -9.692 0.814 0.641 12.482 2.808 29.980 1304.900 4304.146 0.319 -0.051 0.115 -0 -0.67 0.74 0.04
1 2.30 230 0.101 -9.888 0.694 -0.427 12.604 2.686 59.961 1304.900 4454.048 0.379 0.144 0.234 -0.01 -0.67 0.74 0.04
1 2.31 231 0.139 -9.802 0.661 -0.458 12.146 2.869 59.961 1304.900 4454.048 0.334 0.058 0.265 -0.01 -0.67 0.74 0.04
1 2.32 232 -0.043 -9.759 0.795 0.916 12.146 1.801 134.912 1274.919 4379.097 0.510 0.014 0.130 -0.01 -0.67 0.74 0.04
1 2.33 233 0.014 -9.769 0.737 1.495 11.932 2.686 134.912 1274.919 4379.097 0.447 0.023 0.188 -0.01 -0.67 0.74 0.04
1 2.34 234 0.062 -9.730 0.828 -0.122 11.871 2.869 14.990 1214.958 4469.039 0.392 -0.015 0.099 -0.01 -0.67 0.74 0.04
1 2.35 235 0.110 -9.702 0.733 -0.763 10.223 2.747 14.990 1214.958 4469.039 0.339 -0.044 0.195 -0.01 -0.67 0.74 0.04
1 2.36 236 0.139 -9.706 0.795 -1.556 9.918 2.747 89.941 1319.890 4439.058 0.305 -0.040 0.131 -0.01 -0.67 0.74 0.04
1 2.37 237 0.254 -9.860 0.718 -1.984 8.179 2.533 89.941 1319.890 4289.006 0.185 0.113 0.205 -0.01 -0.67 0.74 0.04
1 2.38 238 0.287 -9.821 0.766 -1.678 6.653 2.441 89.941 1319.890 4289.006 0.144 0.074 0.150 -0.01 -0.67 0.74 0.04
1 2.39 239 0.311 -9.711 0.814 -0.580 5.432 1.953 44.971 1139.857 4334.126 0.116 -0.037 0.099 -0.01 -0.67 0.74 0.04
1 2.40 240 0.134 -9.831 0.771 -0.641 5.127 2.930 44.971 1139.857 4334.126 0.291 0.083 0.140 -0.01 -0.67 0.74 0.04
1 2.41 241 0.187 -9.836 0.905 -0.824 4.456 2.716 134.912 1199.968 4349.117 0.234 0.087 0.005 -0.01 -0.67 0.74 0.04
1 2.42 242 0.220 -9.845 0.857 -0.397 3.235 2.655 134.912 1199.968 4349.117 0.196 0.096 0.051 -0.01 -0.67 0.74 0.04
1 2.43 243 0.125 -9.807 0.742 -0.580 1.556 3.021 224.854 1319.890 4439.058 0.288 0.058 0.166 -0.01 -0.67 0.74 0.04
1 2.44 244 0.220 -9.754 0.761 -0.031 1.007 3.204 194.873 1289.910 4394.087 0.189 0.005 0.144 -0.01 -0.67 0.74 0.04
1 2.45 245 0.426 -9.893 0.742 0.336 -0.397 2.594 194.873 1289.910 4394.087 -0.023 0.143 0.162 -0.01 -0.67 0.74 0.04
1 2.46 246 0.397 -9.764 0.795 0.305 -1.068 3.326 224.854 1214.958 4394.087 0.003 0.014 0.110 -0.01 -0.67 0.74 0.04
1 2.47 247 0.220 -9.730 0.910 0.549 -1.709 3.357 224.854 1214.958 4394.087 0.179 -0.020 -0.006 -0.01 -0.67 0.74 0.04
1 2.48 248 0.244 -9.659 0.891 0.427 -3.815 3.021 104.932 1274.919 4454.048 0.152 -0.092 0.014 -0.01 -0.67 0.74 0.04
1 2.49 249 0.206 -9.754 0.742 -0.763 -5.127 2.869 104.932 1274.919 4454.048 0.187 0.004 0.162 -0.01 -0.67 0.74 0.04
1 2.50 250 0.330 -9.778 0.867 -1.709 -7.111 3.296 179.883 1229.949 4454.048 0.060 0.028 0.035 -0.01 -0.67 0.74 0.04
1 2.51 251 0.354 -9.754 0.848 -1.343 -7.507 3.021 149.902 1244.939 4439.058 0.034 0.003 0.051 -0.01 -0.67 0.74 0.04
1 2.52 252 0.412 -9.893 0.814 -1.678 -7.935 3.174 149.902 1244.939 4439.058 -0.026 0.141 0.077 -0.01 -0.67 0.74 0.04
1 2.53 253 0.436 -9.927 0.771 -1.495 -8.911 3.265 134.912 1304.900 4349.117 -0.050 0.175 0.116 -0.01 -0.67 0.74 0.04
1 2.54 254 0.407 -9.936 0.670 -1.740 -7.751 2.167 134.912 1304.900 4349.117 -0.022 0.184 0.213 -0.01 -0.67 0.74 0.04
1 2.55 255 0.354 -9.802 0.704 -1.404 -7.751 1.373 194.873 1169.988 4394.087 0.032 0.049 0.175 -0.01 -0.67 0.74 0.04
1 2.56 256 0.503 -9.687 0.723 0.122 -8.545 0.610 269.974 1214.958 4574.120 -0.115 -0.066 0.152 -0.01 -0.67 0.74 0.04
1 2.57 257 0.412 -9.836 0.785 -0.732 -8.545 0.153 209.863 1274.919 4349.117 -0.021 0.083 0.089 -0.01 -0.67 0.74 0.04
1 2.58 258 0.493 -9.788 0.728 -3.082 -9.857 -1.007 209.863 1229.949 4349.117 -0.099 0.035 0.144 -0.01 -0.67 0.74 0.04
1 2.59 259 0.335 -9.874 0.690 -4.974 -11.292 -2.991 209.863 1229.949 4349.117 0.064 0.121 0.177 -0.01 -0.68 0.74 0.04
1 2.60 260 0.283 -9.975 0.737 -3.967 -11.841 -3.967 44.971 1319.890 4499.019 0.132 0.220 0.111 -0.01 -0.68 0.74 0.04
1 2.61 261 0.263 -9.984 0.661 -2.441 -13.092 -4.761 44.971 1319.890 4499.019 0.161 0.230 0.180 -0 -0.68 0.74 0.04
1 2.62 262 0.215 -9.975 0.814 -1.984 -14.374 -5.585 194.873 1289.910 4364.107 0.219 0.220 0.022 -0 -0.68 0.74 0.04
1 2.63 263 0.278 -9.999 0.958 -1.404 -15.045 -6.409 89.941 1244.939 4259.025 0.168 0.244 -0.126 -0 -0.68 0.74 0.04
1 2.64 264 0.172 -9.912 0.953 -2.319 -15.595 -6.836 194.873 1244.939 4469.039 0.286 0.158 -0.124 -0 -0.68 0.74 0.04
1 2.65 265 0.378 -10.013 0.934 -2.472 -16.510 -6.500 0.000 1199.968 4409.078 0.093 0.259 -0.108 0 -0.68 0.74 0.03
1 2.66 266 0.460 -9.922 0.804 -1.434 -16.480 -6.958 0.000 1199.968 4409.078 0.025 0.168 0.016 0 -0.68 0.74 0.03
1 2.67 267 0.579 -9.884 0.872 0.183 -16.449 -7.050 44.971 1169.988 4544.140 -0.067 0.131 -0.057 0 -0.68 0.74 0.03
1 2.68 268 0.632 -9.884 0.948 -0.427 -16.571 -6.683 44.971 1169.988 4544.140 -0.104 0.132 -0.134 0.01 -0.68 0.74 0.03
1 2.69 269 0.632 -9.888 0.934 -0.610 -16.296 -7.355 0.000 1304.900 4454.048 -0.088 0.137 -0.121 0.01 -0.68 0.74 0.03
1 2.70 270 0.666 -9.788 0.891 -1.221 -16.357 -6.989 -179.883 1229.949 4304.146 -0.106 0.037 -0.080 0.01 -0.68 0.74 0.03
1 2.71 271 0.838 -9.754 0.929 0.793 -15.991 -6.744 -149.902 1244.939 4394.087 -0.263 0.005 -0.120 0.01 -0.68 0.74 0.03
1 2.72 272 0.790 -9.601 0.824 0.488 -15.808 -7.324 -44.971 1169.988 4394.087 -0.198 -0.147 -0.014 0.01 -0.68 0.74 0.03
1 2.73 273 0.781 -9.735 0.747 -0.458 -15.106 -7.935 -44.971 1169.988 4394.087 -0.172 -0.012 0.062 0.01 -0.68 0.74 0.03
1 2.74 274 0.781 -9.673 0.886 -1.831 -15.564 -7.721 44.971 1169.988 4544.140 -0.138 -0.073 -0.082 0.02 -0.68 0.73 0.03
1 2.75 275 0.737 -9.735 0.900 -2.899 -16.205 -7.294 44.971 1169.988 4544.140 -0.078 -0.010 -0.101 0.02 -0.68 0.73 0.03
1 2.76 276 0.694 -9.745 0.838 -1.495 -17.456 -7.233 -44.971 1214.958 4334.126 -0.020 0.000 -0.043 0.02 -0.68 0.73 0.03
1 2.77 277 0.685 -9.735 0.948 -0.092 -18.097 -6.348 -104.932 1274.919 4409.078 0.005 -0.008 -0.156 0.02 -0.68 0.73 0.03
1 2.78 278 0.627 -9.836 0.919 0.549 -18.799 -5.615 -194.873 1244.939 4364.107 0.076 0.093 -0.128 0.02 -0.68 0.73 0.03
1 2.79 279 0.488 -9.673 0.982 1.099 -19.928 -4.852 -119.922 1394.991 4469.039 0.227 -0.069 -0.190 0.02 -0.68 0.73 0.03
1 2.80 280 0.723 -9.687 0.972 0.519 -20.142 -4.578 -119.922 1394.991 4469.039 0.003 -0.054 -0.180 0.02 -0.68 0.73 0.03
1 2.81 281 0.680 -9.735 0.963 -0.214 -20.416 -3.998 -29.980 1274.919 4409.078 0.069 -0.004 -0.171 0.03 -0.68 0.73 0.03
1 2.82 282 0.900 -9.817 0.838 -1.343 -19.623 -3.174 -29.980 1274.919 4409.078 -0.141 0.078 -0.049 0.03 -0.68 0.73 0.03
1 2.83 283 0.867 -9.754 0.895 -1.770 -19.257 -3.662 -239.994 1349.871 4379.097 -0.096 0.016 -0.111 0.03 -0.68 0.73 0.03
1 2.84 284 0.872 -9.687 0.776 -0.671 -19.470 -3.448 -149.902 1319.890 4499.019 -0.090 -0.050 0.005 0.03 -0.68 0.73 0.02
1 2.85 285 0.963 -9.917 0.666 1.221 -19.409 -3.754 -89.941 1289.910 4364.107 -0.170 0.180 0.112 0.03 -0.68 0.73 0.02
1 2.86 286 0.905 -10.032 0.608 0.580 -19.959 -3.326 -104.932 1199.968 4529.000 -0.102 0.296 0.168 0.03 -0.68 0.73 0.02
1 2.87 287 0.963 -10.200 0.728 1.129 -20.020 -1.892 -104.932 1199.968 4529.000 -0.149 0.464 0.046 0.03 -0.68 0.73 0.02
1 2.88 288 0.943 -9.922 0.594 3.510 -19.684 -1.099 -284.964 1304.900 4454.048 -0.113 0.188 0.179 0.04 -0.68 0.73 0.02
1 2.89 289 1.034 -9.917 0.661 6.134 -19.745 -0.824 -284.964 1304.900 4454.048 -0.197 0.184 0.116 0.04 -0.68 0.73 0.02
1 2.90 290 1.068 -9.821 0.522 6.378 -19.714 -0.946 -209.863 1199.968 4454.048 -0.223 0.089 0.262 0.04 -0.68 0.73 0.02
1 2.91 291 1.154 -9.735 0.579 3.906 -20.569 -1.129 -149.902 1319.890 4334.126 -0.301 0.004 0.209 0.04 -0.68 0.73 0.02
1 2.92 292 1.393 -9.754 0.508 0.580 -20.264 -1.129 -209.863 1454.952 4349.117 -0.531 0.024 0.282 0.04 -0.68 0.73 0.02
1 2.93 293 1.451 -9.750 0.517 0.519 -19.440 -1.587 -209.863 1304.900 4409.078 -0.578 0.020 0.269 0.04 -0.68 0.73 0.02
1 2.94 294 1.585 -9.639 0.479 1.953 -19.165 -2.197 -209.863 1304.900 4409.078 -0.700 -0.089 0.304 0.04 -0.68 0.73 0.02
1 2.95 295 1.690 -9.773 0.464 3.204 -17.517 -2.228 -329.935 1244.939 4394.087 -0.794 0.046 0.316 0.05 -0.68 0.73 0.02
1 2.96 296 1.547 -9.783 0.527 1.678 -16.144 -2.777 -329.935 1244.939 4394.087 -0.623 0.058 0.252 0.05 -0.68 0.73 0.02
1 2.97 297 1.614 -9.879 0.608 0.610 -15.900 -2.441 -314.945 1304.900 4379.097 -0.677 0.155 0.169 0.05 -0.68 0.73 0.02
1 2.98 298 1.494 -9.841 0.575 1.434 -17.029 -2.838 -419.876 1229.949 4454.048 -0.545 0.117 0.200 0.05 -0.68 0.73 0.02
1 2.99 299 1.532 -10.042 0.594 3.601 -17.059 -3.845 -419.876 1229.949 4454.048 -0.570 0.320 0.179 0.05 -0.68 0.73 0.02
1 3.00 300 1.346 -10.032 0.517 6.195 -18.555 -3.998 -389.896 1304.900 4274.016 -0.369 0.312 0.258 0.05 -0.68 0.73 0.02
1 3.01 301 1.508 -9.754 0.555 7.111 -19.135 -4.089 -389.896 1304.900 4274.016 -0.518 0.036 0.223 0.05 -0.68 0.73 0.02
1 3.02 302 1.686 -9.706 0.460 6.592 -18.372 -3.510 -314.945 1229.949 4559.130 -0.681 -0.010 0.325 0.06 -0.68 0.73 0.01
1 3.03 303 1.872 -9.592 0.484 4.578 -16.388 -3.479 -314.945 1229.949 4559.130 -0.837 -0.121 0.308 0.06 -0.68 0.73 0.01
1 3.04 304 1.844 -9.553 0.292 2.625 -12.695 -2.563 -299.955 1169.988 4394.087 -0.793 -0.158 0.499 0.06 -0.68 0.73 0.01
1 3.05 305 1.686 -9.615 0.225 1.831 -11.108 -2.411 -449.857 1289.910 4364.107 -0.622 -0.095 0.564 0.06 -0.68 0.73 0.01
1 3.06 306 1.786 -9.778 0.196 2.045 -10.529 -3.113 -449.857 1289.910 4364.107 -0.710 0.069 0.589 0.06 -0.68 0.73 0.01
1 3.07 307 1.733 -9.649 0.220 0.732 -9.522 -2.655 -359.916 1079.896 4409.078 -0.644 -0.059 0.562 0.06 -0.68 0.73 0.01
1 3.08 308 1.963 -9.778 0.096 0.580 -8.087 -2.655 -359.916 1079.896 4409.078 -0.861 0.072 0.682 0.06 -0.68 0.73 0.01
1 3.09 309 1.935 -9.884 0.077 -0.275 -6.256 -3.174 -449.857 1244.939 4289.006 -0.818 0.178 0.696 0.06 -0.68 0.73 0.02
1 3.10 310 1.920 -10.166 0.211 -0.244 -4.974 -3.906 -449.857 1244.939 4289.006 -0.790 0.462 0.556 0.06 -0.68 0.73 0.02
1 3.11 311 1.801 -10.257 0.345 4.425 -3.571 -3.387 -464.997 1124.867 4244.035 -0.643 0.555 0.414 0.07 -0.68 0.73 0.02
1 3.12 312 1.642 -10.295 0.302 8.606 -3.754 -3.052 -359.916 1199.968 4409.078 -0.473 0.595 0.462 0.07 -0.68 0.73 0.02
1 3.13 313 1.542 -9.903 0.220 13.550 -3.662 -2.350 -359.916 1199.968 4409.078 -0.363 0.205 0.554 0.07 -0.68 0.73 0.02
1 3.14 314 1.504 -9.793 0.464 13.214 -0.977 -1.648 -314.945 1199.968 4529.000 -0.316 0.097 0.326 0.07 -0.67 0.73 0.02
1 3.15 315 1.571 -9.654 0.474 8.575 -0.549 -1.282 -314.945 1199.968 4529.000 -0.374 -0.039 0.334 0.07 -0.67 0.74 0.02
1 3.16 316 1.528 -9.687 0.441 6.287 -0.824 -0.641 -464.997 1154.848 4409.078 -0.324 -0.004 0.380 0.07 -0.67 0.74 0.02
1 3.17 317 1.580 -9.496 0.326 7.507 -1.892 -0.488 -464.997 1154.848 4409.078 -0.371 -0.194 0.501 0.07 -0.67 0.74 0.02
1 3.18 318 1.633 -9.448 0.292 11.047 0.336 -0.702 -419.876 1154.848 4349.117 -0.410 -0.239 0.551 0.07 -0.67 0.74 0.02
1 3.19 319 1.537 -9.424 0.417 10.681 2.197 0.153 -269.974 1289.910 4289.006 -0.308 -0.261 0.440 0.07 -0.67 0.74 0.02
1 3.20 320 1.590 -9.366 0.493 6.775 3.204 0.824 -269.974 1289.910 4289.006 -0.356 -0.317 0.376 0.07 -0.67 0.74 0.02
1 3.21 321 1.417 -9.371 0.316 3.174 3.357 2.045 -479.987 1169.988 4334.126 -0.181 -0.311 0.559 0.07 -0.67 0.74 0.02
1 3.22 322 1.259 -9.462 0.302 1.709 3.387 3.448 -479.987 1169.988 4334.126 -0.023 -0.220 0.573 0.07 -0.67 0.74 0.02
1 3.23 323 1.183 -9.352 0.086 4.486 3.326 4.334 -374.906 1169.988 4394.087 0.052 -0.330 0.788 0.07 -0.67 0.74 0.02
1 3.24 324 1.312 -9.448 0.249 4.944 5.188 4.883 -374.906 1169.988 4394.087 -0.081 -0.235 0.626 0.07 -0.67 0.74 0.02
1 3.25 325 1.441 -9.228 0.268 3.174 8.118 6.073 -419.876 1049.916 4274.016 -0.220 -0.456 0.613 0.06 -0.67 0.74 0.02
1 3.26 326 1.475 -9.161 0.297 0.671 8.911 6.500 -464.997 974.965 4349.117 -0.259 -0.524 0.586 0.06 -0.67 0.74 0.02
1 3.27 327 1.307 -9.252 0.139 -2.441 11.108 7.751 -464.997 974.965 4349.117 -0.098 -0.434 0.742 0.06 -0.67 0.74 0.02
1 3.28 328 1.212 -9.366 0.086 -3.357 13.275 9.613 -404.886 1169.988 4439.058 -0.012 -0.321 0.787 0.06 -0.67 0.74 0.02
1 3.29 329 1.360 -9.357 0.206 -2.533 15.289 11.078 -404.886 1169.988 4439.058 -0.174 -0.333 0.660 0.06 -0.67 0.74 0.02
1 3.30 330 1.293 -9.491 0.182 -3.571 16.052 12.085 -404.886 1214.958 4439.058 -0.122 -0.201 0.678 0.06 -0.67 0.74 0.02
1 3.31 331 1.326 -9.601 0.230 -4.486 17.181 12.665 -404.886 1214.958 4439.058 -0.172 -0.093 0.624 0.06 -0.67 0.74 0.02
1 3.32 332 1.288 -9.903 0.048 -3.387 16.876 14.160 -404.886 1064.906 4154.094 -0.168 0.203 0.789 0.05 -0.67 0.74 0.03
1 3.33 333 1.393 -10.142 0.172 -1.648 17.944 13.763 -359.916 1154.848 4409.078 -0.293 0.440 0.658 0.05 -0.67 0.74 0.03
1 3.34 334 1.298 -10.343 0.129 -0.366 18.646 13.794 -359.916 1154.848 4409.078 -0.216 0.638 0.697 0.05 -0.67 0.74 0.03
1 3.35 335 1.326 -10.487 0.158 1.770 17.670 13.153 -404.886 1319.890 4364.107 -0.264 0.780 0.665 0.05 -0.67 0.74 0.03
1 3.36 336 1.355 -10.377 0.192 8.911 18.219 12.116 -269.974 1064.906 4259.025 -0.309 0.668 0.633 0.05 -0.68 0.74 0.03
1 3.37 337 1.422 -10.109 0.278 13.001 18.646 10.193 -269.974 1289.910 4334.126 -0.393 0.399 0.556 0.05 -0.67 0.74 0.03
1 3.38 338 1.207 -10.046 0.364 13.123 19.684 7.996 -269.974 1289.910 4334.126 -0.190 0.336 0.486 0.04 -0.67 0.74 0.03
1 3.39 339 1.154 -9.850 0.316 8.881 19.440 6.592 -329.935 1244.939 4364.107 -0.148 0.141 0.552 0.04 -0.67 0.74 0.03
1 3.40 340 1.006 -9.730 0.321 4.303 18.372 7.111 -149.902 1139.857 4289.006 -0.019 0.021 0.570 0.04 -0.67 0.74 0.03
1 3.41 341 1.255 -9.606 0.321 4.303 19.928 7.263 -149.902 1139.857 4289.006 -0.277 -0.104 0.574 0.04 -0.67 0.74 0.03
1 3.42 342 1.398 -9.716 0.062 5.127 23.254 7.568 -224.854 1319.890 4334.126 -0.428 0.006 0.838 0.04 -0.67 0.74 0.03
1 3.43 343 1.528 -9.912 0.086 6.866 26.795 7.721 -239.994 1199.968 4349.117 -0.567 0.202 0.821 0.04 -0.67 0.74 0.03
1 3.44 344 1.556 -10.008 0.048 6.683 28.900 9.644 -89.941 1214.958 4364.107 -0.605 0.297 0.868 0.03 -0.67 0.74 0.03
1 3.45 345 1.551 -10.027 -0.072 9.308 28.992 9.552 -89.941 1214.958 4364.107 -0.612 0.316 0.995 0.03 -0.67 0.74 0.04
1 3.46 346 1.360 -10.176 -0.091 12.970 29.938 8.362 -149.902 1289.910 4289.006 -0.431 0.465 1.024 0.03 -0.67 0.74 0.04
1 3.47 347 1.044 -10.118 -0.081 18.127 33.173 9.125 -224.854 1244.939 4214.055 -0.140 0.408 1.049 0.03 -0.67 0.74 0.04
1 3.48 348 0.895 -10.214 -0.086 18.585 31.311 10.040 -224.854 1244.939 4214.055 -0.007 0.505 1.078 0.02 -0.67 0.74 0.04
1 3.49 349 0.948 -10.018 -0.354 18.097 28.717 10.376 -104.932 1079.896 4349.117 -0.077 0.309 1.369 0.02 -0.67 0.74 0.04
1 3.50 350 0.986 -9.764 -0.488 20.172 28.900 8.362 -134.912 1154.848 4244.035 -0.131 0.056 1.523 0.02 -0.67 0.74 0.04
1 3.51 351 1.010 -9.261 -0.421 23.621 33.447 6.928 -104.932 1229.949 4244.035 -0.168 -0.445 1.481 0.02 -0.67 0.74 0.04
1 3.52 352 0.991 -8.959 -0.412 21.484 32.806 7.019 -104.932 1229.949 4244.035 -0.161 -0.745 1.499 0.02 -0.67 0.74 0.04
1 3.53 353 0.642 -8.773 -0.464 16.113 26.459 5.920 -59.961 1079.896 4169.084 0.177 -0.929 1.577 0.01 -0.67 0.74 0.05
1 3.54 354 0.613 -8.964 -0.541 7.080 17.181 4.425 44.971 944.984 4109.123 0.186 -0.735 1.695 0.01 -0.66 0.75 0.05
1 3.55 355 0.881 -9.615 0.024 -8.118 14.587 0.214 44.971 944.984 4109.123 -0.087 -0.085 1.120 0.01 -0.66 0.75 0.05
1 3.56 356 0.838 -10.679 1.183 -16.724 21.088 -3.326 0.000 1124.867 4349.117 -0.043 0.976 -0.059 0.01 -0.67 0.74 0.05
1 3.57 357 0.637 -11.684 1.551 -22.369 22.003 -9.705 14.990 1064.906 4214.055 0.164 1.979 -0.453 0.01 -0.67 0.74 0.05
1 3.58 358 0.182 -10.880 1.298 7.141 17.365 -15.808 44.971 1064.906 4364.107 0.634 1.173 -0.226 0.01 -0.67 0.74 0.05
1 3.59 359 -0.311 -10.291 1.695 29.633 19.470 -18.250 44.971 1064.906 4364.107 1.150 0.586 -0.621 0.01 -0.67 0.74 0.05
1 3.60 360 -0.718 -9.960 2.318 27.954 23.438 -21.851 -44.971 1214.958 4334.126 1.575 0.262 -1.201 0.01 -0.67 0.74 0.06
1 3.61 361 -0.661 -10.075 2.140 3.204 20.447 -24.139 -89.941 1139.857 4364.107 1.555 0.391 -0.931 0.01 -0.66 0.75 0.06
1 3.62 362 -0.249 -10.372 1.695 -5.096 14.069 -24.597 -89.941 1139.857 4364.107 1.166 0.691 -0.477 0.01 -0.66 0.75 0.06
1 3.63 363 0.455 -10.846 1.461 1.160 11.231 -22.614 -44.971 944.984 4184.074 0.493 1.168 -0.246 0.01 -0.66 0.75 0.06
1 3.64 364 1.293 -11.095 1.714 17.548 15.289 -17.242 89.941 944.984 4289.006 -0.314 1.421 -0.490 0.01 -0.66 0.75 0.06
1 3.65 365 1.815 -10.961 1.973 36.102 23.163 -6.104 -44.971 989.955 4259.025 -0.813 1.294 -0.714 0.01 -0.66 0.75 0.07
1 3.66 366 2.112 -10.525 2.069 30.029 21.698 -2.869 -44.971 989.955 4259.025 -1.101 0.866 -0.755 0.01 -0.66 0.75 0.07
1 3.67 367 2.217 -10.434 2.184 17.609 16.022 -1.770 -29.980 1154.848 4169.084 -1.204 0.783 -0.818 0.01 -0.66 0.75 0.07
1 3.68 368 2.744 -10.473 2.227 7.416 9.674 -1.770 0.000 1124.867 4094.133 -1.726 0.829 -0.812 0.01 -0.65 0.75 0.07
1 3.69 369 3.218 -10.487 2.050 4.547 6.500 3.296 0.000 1124.867 4094.133 -2.200 0.845 -0.626 0.01 -0.65 0.75 0.07
1 3.70 370 3.409 -10.401 1.896 6.592 6.775 6.897 -14.990 869.883 4004.042 -2.397 0.759 -0.464 0.01 -0.65 0.75 0.07
1 3.71 371 3.587 -10.080 1.968 8.331 9.979 9.125 -14.990 1094.887 4214.055 -2.585 0.439 -0.524 0.01 -0.65 0.75 0.07
1 3.72 372 2.763 -9.759 2.322 7.690 17.120 9.705 224.854 1139.857 4109.123 -1.767 0.120 -0.861 0.01 -0.65 0.75 0.07
1 3.73 373 2.073 -9.687 2.490 3.723 19.135 8.911 224.854 1139.857 4109.123 -1.078 0.051 -1.008 0.01 -0.65 0.76 0.07
1 3.74 374 1.173 -9.697 2.490 -0.488 18.097 8.484 104.932 1049.916 4019.032 -0.184 0.063 -0.991 0.01 -0.65 0.76 0.07
1 3.75 375 0.536 -9.697 2.519 -2.838 17.517 7.751 89.941 944.984 4184.074 0.440 0.063 -1.009 0 -0.65 0.76 0.07
1 3.76 376 -0.206 -9.501 2.595 -0.183 18.280 8.270 89.941 944.984 4184.074 1.146 -0.134 -1.071 0 -0.65 0.76 0.07
1 3.77 377 -0.493 -9.438 2.485 4.425 19.653 9.979 14.990 839.903 4214.055 1.410 -0.197 -0.949 0 -0.65 0.76 0.07
1 3.78 378 -0.924 -9.343 2.653 9.674 22.461 11.261 -14.990 914.854 4109.123 1.812 -0.292 -1.097 -0 -0.65 0.76 0.07
1 3.79 379 -1.006 -9.122 2.595 13.031 24.048 12.909 -14.990 914.854 4109.123 1.859 -0.511 -1.013 -0 -0.65 0.76 0.07
1 3.80 380 -1.111 -8.672 2.667 15.778 24.048 14.435 0.000 974.965 4169.084 1.927 -0.959 -1.053 -0.01 -0.65 0.76 0.07
1 3.81 381 -1.178 -8.576 2.524 14.008 24.536 14.862 89.941 1139.857 4079.143 1.955 -1.053 -0.875 -0.01 -0.64 0.76 0.07
1 3.82 382 -0.939 -8.533 2.528 10.132 24.323 15.106 14.990 1094.887 4184.074 1.676 -1.093 -0.846 -0.01 -0.64 0.76 0.07
1 3.83 383 -0.771 -8.739 2.437 2.747 24.811 16.083 14.990 1094.887 4184.074 1.431 -0.885 -0.712 -0.01 -0.64 0.76 0.07
1 3.84 384 -0.584 -8.907 2.289 -3.632 23.987 17.151 329.935 944.984 3974.061 1.205 -0.719 -0.557 -0.02 -0.64 0.76 0.07
1 3.85 385 -0.488 -9.046 2.102 -0.885 23.041 17.059 209.863 1004.945 4124.113 1.072 -0.582 -0.368 -0.02 -0.64 0.76 0.07
1 3.86 386 -0.259 -8.993 1.963 5.371 22.522 16.419 209.863 1004.945 4124.113 0.807 -0.635 -0.222 -0.02 -0.64 0.76 0.07
1 3.87 387 -0.014 -9.031 2.117 6.775 21.545 14.313 299.955 869.883 4154.094 0.530 -0.596 -0.361 -0.02 -0.64 0.76 0.07
1 3.88 388 0.038 -9.151 2.069 1.831 20.142 12.207 149.902 989.955 4154.094 0.448 -0.475 -0.298 -0.02 -0.64 0.77 0.07
1 3.89 389 0.000 -9.208 2.030 -3.754 18.799 10.498 119.922 839.903 4079.143 0.460 -0.417 -0.250 -0.03 -0.64 0.77 0.07
1 3.90 390 0.081 -9.381 2.083 -6.012 17.395 9.094 119.922 839.903 4079.143 0.357 -0.246 -0.302 -0.03 -0.64 0.77 0.07
1 3.91 391 -0.038 -9.769 2.184 -5.096 16.113 8.087 314.945 1004.945 4169.084 0.440 0.138 -0.412 -0.03 -0.64 0.77 0.07
1 3.92 392 -0.101 -9.855 2.097 -2.228 15.137 8.759 329.935 914.854 4154.094 0.484 0.223 -0.329 -0.03 -0.64 0.77 0.07
1 3.93 393 -0.249 -9.807 2.140 2.045 15.259 9.125 329.935 914.854 4154.094 0.614 0.175 -0.371 -0.03 -0.64 0.77 0.07
1 3.94 394 -0.397 -9.673 2.294 3.571 15.686 9.094 449.857 944.984 4049.012 0.742 0.042 -0.517 -0.03 -0.64 0.77 0.07
1 3.95 395 -0.493 -9.663 2.299 0.824 15.839 9.552 284.964 779.942 4199.064 0.817 0.033 -0.512 -0.03 -0.64 0.77 0.07
1 3.96 396 -0.599 -9.505 2.140 -1.373 16.357 9.888 359.916 1004.945 4124.113 0.901 -0.125 -0.348 -0.04 -0.64 0.77 0.07
1 3.97 397 -0.737 -9.467 1.992 -0.275 14.984 10.590 359.916 1004.945 4124.113 1.016 -0.163 -0.197 -0.04 -0.64 0.77 0.07
1 3.98 398 -0.747 -9.505 1.915 0.214 15.442 11.902 374.906 839.903 4109.123 0.975 -0.126 -0.117 -0.04 -0.64 0.77 0.07
1 3.99 399 -0.560 -9.496 1.872 0.458 14.526 11.536 329.935 1064.906 4184.074 0.763 -0.135 -0.072 -0.04 -0.64 0.77 0.07
1 4.00 400 -0.570 -9.433 1.915 0.641 13.519 11.597 329.935 1064.906 4184.074 0.748 -0.198 -0.114 -0.04 -0.64 0.77 0.06
1 4.01 401 -0.508 -9.381 1.786 0.977 11.719 11.566 404.886 944.984 4154.094 0.662 -0.250 0.018 -0.04 -0.64 0.77 0.06
1 4.02 402 -0.541 -9.467 1.738 1.343 10.590 10.681 329.935 794.932 4259.025 0.672 -0.164 0.068 -0.04 -0.64 0.77 0.06
1 4.03 403 -0.570 -9.290 1.743 1.160 8.667 10.376 329.935 839.903 4259.025 0.679 -0.341 0.066 -0.04 -0.64 0.77 0.06
1 4.04 404 -0.474 -9.261 1.642 0.336 6.378 9.827 329.935 839.903 4259.025 0.563 -0.370 0.169 -0.05 -0.64 0.77 0.06
1 4.05 405 -0.599 -9.319 1.829 0.031 4.883 8.545 479.987 944.984 4154.094 0.651 -0.312 -0.017 -0.05 -0.64 0.77 0.06
1 4.06 406 -0.709 -9.462 1.690 0.946 3.143 8.575 509.968 1064.906 4079.143 0.745 -0.169 0.121 -0.05 -0.64 0.77 0.06
1 4.07 407 -0.642 -9.496 1.834 2.258 1.892 8.026 509.968 1064.906 4079.143 0.662 -0.135 -0.021 -0.05 -0.64 0.77 0.06
1 4.08 408 -0.599 -9.457 1.700 4.242 0.916 6.958 419.876 899.864 4124.113 0.604 -0.173 0.117 -0.05 -0.64 0.77 0.06
1 4.09 409 -0.718 -9.524 1.801 4.639 -0.397 6.561 569.929 974.965 4124.113 0.711 -0.105 0.022 -0.05 -0.64 0.77 0.06
1 4.10 410 -0.771 -9.343 1.815 4.425 -2.258 4.791 464.847 899.864 4199.064 0.751 -0.285 0.014 -0.05 -0.64 0.77 0.06
1 4.11 411 -0.742 -9.309 1.777 3.845 -4.303 3.876 464.847 899.864 4199.064 0.712 -0.318 0.058 -0.05 -0.64 0.77 0.06
1 4.12 412 -0.872 -9.491 1.590 2.228 -7.446 2.441 404.886 719.981 4049.012 0.826 -0.134 0.254 -0.05 -0.64 0.77 0.05
1 4.13 413 -0.852 -9.687 1.590 1.526 -11.444 1.129 584.919 914.854 4214.055 0.802 0.062 0.254 -0.05 -0.64 0.77 0.05
1 4.14 414 -0.800 -9.668 1.499 2.655 -14.923 -0.183 584.919 914.854 4214.055 0.747 0.043 0.345 -0.05 -0.64 0.77 0.05
1 4.15 415 -0.747 -9.501 1.374 6.104 -18.768 -1.190 479.987 794.932 4214.055 0.696 -0.124 0.472 -0.05 -0.64 0.77 0.05
1 4.16 416 -0.584 -9.405 1.207 7.660 -23.560 -2.838 419.876 974.965 4124.113 0.538 -0.218 0.646 -0.04 -0.64 0.77 0.05
1 4.17 417 -0.728 -9.266 1.245 5.798 -25.757 -3.052 359.916 779.942 4124.113 0.690 -0.356 0.615 -0.04 -0.63 0.77 0.05
1 4.18 418 -0.852 -9.352 1.144 3.387 -27.100 -3.174 359.916 779.942 4124.113 0.823 -0.269 0.721 -0.04 -0.63 0.77 0.05
1 4.19 419 -0.948 -9.381 1.097 0.122 -28.137 -2.533 464.847 824.913 4094.133 0.928 -0.240 0.771 -0.04 -0.63 0.77 0.05
1 4.20 420 -0.761 -9.505 1.149 -3.235 -29.877 -0.427 404.886 944.984 4214.055 0.754 -0.117 0.707 -0.04 -0.64 0.77 0.04
1 4.21 421 -0.388 -9.548 0.852 -2.594 -30.090 0.153 404.886 944.984 4214.055 0.386 -0.076 0.993 -0.03 -0.64 0.77 0.04
1 4.22 422 -0.187 -9.606 1.039 -1.953 -28.565 0.977 374.906 914.854 4079.143 0.192 -0.021 0.796 -0.03 -0.64 0.77 0.04
1 4.23 423 0.005 -9.697 1.010 -0.458 -27.100 0.580 314.945 824.913 4199.064 0.009 0.069 0.817 -0.03 -0.64 0.77 0.04
1 4.24 424 0.125 -9.659 0.905 -0.244 -26.856 -0.183 269.974 764.952 4109.123 -0.103 0.029 0.915 -0.03 -0.64 0.77 0.04
1 4.25 425 0.134 -9.620 0.934 0.488 -26.795 -0.885 269.974 764.952 4109.123 -0.102 -0.011 0.878 -0.03 -0.64 0.77 0.04
1 4.26 426 0.292 -9.592 1.077 1.831 -26.886 -1.129 239.994 929.994 4349.117 -0.249 -0.041 0.728 -0.03 -0.64 0.77 0.03
1 4.27 427 0.359 -9.433 1.006 0.092 -26.154 -1.221 269.974 914.854 4184.074 -0.290 -0.200 0.792 -0.02 -0.64 0.77 0.03
1 4.28 428 0.517 -9.457 0.967 -1.495 -24.811 -1.495 269.974 914.854 4184.074 -0.435 -0.177 0.824 -0.02 -0.64 0.77 0.03
1 4.29 429 0.623 -9.501 0.881 -1.678 -25.421 -1.953 284.964 779.942 4124.113 -0.525 -0.135 0.902 -0.02 -0.64 0.77 0.03
1 4.30 430 0.546 -9.424 0.766 -1.770 -24.414 -2.319 284.964 779.942 4124.113 -0.433 -0.214 1.006 -0.02 -0.64 0.77 0.03
1 4.31 431 0.464 -9.256 0.589 -1.831 -23.682 -3.204 209.863 974.965 4244.035 -0.336 -0.383 1.173 -0.02 -0.64 0.77 0.03
1 4.32 432 0.283 -9.180 0.383 -2.655 -24.017 -3.723 209.863 974.965 4244.035 -0.138 -0.462 1.367 -0.01 -0.64 0.77 0.03
1 4.33 433 0.215 -9.170 0.306 -5.280 -25.238 -3.326 89.941 869.883 4109.123 -0.056 -0.473 1.430 -0.01 -0.64 0.77 0.03
1 4.34 434 0.239 -9.208 0.115 -9.369 -26.154 -4.334 59.961 899.864 4199.064 -0.049 -0.442 1.581 -0.01 -0.64 0.77 0.02
1 4.35 435 0.163 -9.577 0.129 -14.862 -26.032 -4.791 59.961 899.864 4199.064 0.043 -0.078 1.535 -0.01 -0.64 0.76 0.02
1 4.36 436 -0.129 -9.668 -0.110 -14.923 -26.764 -4.425 284.964 1004.945 4244.035 0.350 0.007 1.740 -0 -0.65 0.76 0.02
1 4.37 437 -0.115 -9.735 -0.134 -11.536 -26.917 -5.035 284.964 1004.945 4244.035 0.350 0.069 1.729 -0 -0.65 0.76 0.02
1 4.38 438 -0.321 -9.572 -0.024 -4.913 -28.717 -5.981 134.912 854.893 4244.035 0.569 -0.098 1.590 -0 -0.65 0.76 0.02
1 4.39 439 -0.608 -9.429 0.431 -3.204 -30.914 -6.866 134.912 854.893 4244.035 0.870 -0.245 1.115 0 -0.65 0.76 0.02
1 4.40 440 -0.795 -9.874 1.887 -3.296 -33.936 -6.317 134.912 899.864 4244.035 1.070 0.198 -0.356 0 -0.65 0.76 0.02
1 4.41 441 -0.378 -12.264 3.433 -26.978 -36.316 3.540 104.932 779.942 4199.064 0.677 2.585 -1.924 0.01 -0.65 0.76 0.02
1 4.42 442 0.053 -12.493 2.495 -46.265 -46.662 16.724 104.932 779.942 4199.064 0.247 2.807 -1.037 0.01 -0.65 0.76 0.01
1 4.43 443 0.766 -10.985 1.901 -9.613 -46.967 23.377 59.961 929.994 4124.113 -0.482 1.289 -0.506 0.01 -0.65 0.76 0.01
1 4.44 444 1.393 -10.133 2.045 42.664 -35.278 26.001 59.961 929.994 4124.113 -1.130 0.437 -0.644 0.01 -0.65 0.76 0.01
1 4.45 445 1.441 -9.170 3.069 41.443 -19.531 24.750 -29.980 779.942 4304.146 -1.198 -0.515 -1.592 0.01 -0.65 0.76 0.01
1 4.46 446 0.757 -8.720 2.634 7.080 -16.144 19.226 -29.980 779.942 4304.146 -0.534 -0.953 -1.077 0.01 -0.65 0.76 0
1 4.47 447 0.326 -8.744 2.447 -15.198 -16.602 13.611 59.961 779.942 4349.117 -0.122 -0.924 -0.858 0.01 -0.65 0.76 0
1 4.48 448 0.134 -9.797 2.744 -21.698 -17.456 11.993 44.971 764.952 4184.074 0.043 0.124 -1.187 -0.01 0.65 -0.76 0
1 4.49 449 0.383 -11.277 2.490 -27.954 -15.106 13.916 44.971 764.952 4184.074 -0.220 1.598 -0.967 -0.01 0.65 -0.76 0
1 4.50 450 0.172 -11.459 1.724 -36.713 -12.299 12.665 -89.941 989.955 4259.025 -0.026 1.771 -0.257 -0.01 0.65 -0.76 0
1 4.51 451 -0.077 -11.028 1.178 -11.414 -11.078 3.387 -89.941 989.955 4259.025 0.212 1.332 0.242 -0.01 0.65 -0.76 0
1 4.52 452 -0.570 -10.923 1.863 6.622 -14.465 -6.531 29.980 1079.896 4349.117 0.708 1.226 -0.451 -0.01 0.65 -0.76 0
1 4.53 453 -0.536 -11.076 2.409 -10.162 -15.350 -7.721 29.980 1079.896 4349.117 0.688 1.381 -0.987 -0.01 0.65 -0.76 0
1 4.54 454 -0.570 -11.042 2.457 -28.107 -13.886 -8.331 -134.912 929.994 4409.078 0.738 1.346 -1.044 -0.02 0.65 -0.76 0
1 4.55 455 -0.699 -10.889 2.303 -28.015 -11.993 -8.240 29.980 854.893 4169.084 0.885 1.188 -0.927 -0.02 0.66 -0.76 0
1 4.56 456 -0.536 -10.616 2.131 -8.820 -10.864 -7.202 29.980 854.893 4169.084 0.756 0.906 -0.827 -0.02 0.66 -0.75 0
1 4.57 457 -0.120 -10.310 2.385 -4.272 -10.407 -7.141 0.000 974.965 4304.146 0.353 0.599 -1.088 -0.02 0.66 -0.75 0
1 4.58 458 0.158 -10.104 2.457 -7.416 -9.277 -6.531 0.000 974.965 4304.146 0.088 0.393 -1.160 -0.02 0.66 -0.75 0
1 4.59 459 0.383 -9.797 2.289 -9.949 -9.064 -6.226 -29.980 929.994 4484.029 -0.123 0.086 -0.997 -0.02 0.66 -0.75 0
1 4.60 460 0.895 -9.362 2.184 -4.272 -8.118 -4.913 -194.873 869.883 4364.107 -0.621 -0.350 -0.899 -0.02 0.66 -0.75 0
1 4.61 461 0.977 -9.237 2.188 2.441 -8.728 -5.005 -59.961 1079.896 4409.078 -0.687 -0.474 -0.906 -0.02 0.66 -0.75 0
1 4.62 462 1.044 -8.950 2.399 4.334 -8.911 -4.456 -119.922 839.903 4469.039 -0.737 -0.760 -1.109 -0.02 0.66 -0.75 0
1 4.63 463 1.125 -8.878 2.509 3.876 -9.827 -4.059 -119.922 839.903 4469.039 -0.785 -0.827 -1.190 -0.02 0.66 -0.75 0
1 4.64 464 1.259 -8.873 2.591 2.472 -10.620 -2.899 -194.873 1094.887 4364.107 -0.902 -0.829 -1.258 -0.03 0.66 -0.75 0
1 4.65 465 1.499 -8.816 2.457 2.319 -11.749 -2.197 -194.873 1094.887 4364.107 -1.125 -0.884 -1.110 -0.03 0.66 -0.75 0
1 4.66 466 1.499 -8.806 2.581 4.669 -11.261 -0.427 -89.941 869.883 4259.025 -1.109 -0.891 -1.221 -0.03 0.66 -0.75 0
1 4.67 467 1.743 -8.888 2.380 8.575 -12.573 0.793 -104.932 854.893 4349.117 -1.339 -0.807 -1.003 -0.03 0.65 -0.76 0
1 4.68 468 1.810 -8.849 2.318 7.538 -11.932 1.465 -284.964 854.893 4454.048 -1.392 -0.842 -0.922 -0.03 0.65 -0.76 0
1 4.69 469 2.035 -8.998 2.270 3.510 -10.925 1.160 -224.854 1139.857 4334.126 -1.602 -0.690 -0.855 -0.03 0.65 -0.76 0
1 4.70 470 2.155 -9.122 2.126 0.000 -8.423 0.458 -224.854 1139.857 4334.126 -1.708 -0.563 -0.698 -0.03 0.65 -0.76 0
1 4.71 471 2.016 -9.371 1.901 -2.625 -7.263 -1.190 -149.902 1019.936 4364.107 -1.536 -0.311 -0.464 -0.03 0.65 -0.76 0
1 4.72 472 2.030 -9.644 1.887 -3.174 -6.073 -4.822 -149.902 1019.936 4364.107 -1.532 -0.037 -0.451 0.03 -0.65 0.76 0
1 4.73 473 1.705 -9.553 1.738 -1.007 -4.913 -6.836 -134.912 899.864 4379.097 -1.185 -0.127 -0.304 0.03 -0.65 0.76 0
1 4.74 474 1.446 -9.539 1.504 4.364 -5.798 -9.552 -269.974 764.952 4469.039 -0.904 -0.140 -0.067 0.04 -0.65 0.76 0
1 4.75 475 1.154 -9.481 1.451 4.211 -6.622 -9.491 -284.964 974.965 4304.146 -0.587 -0.195 -0.009 0.04 -0.65 0.76 0
1 4.76 476 1.140 -9.472 1.341 1.434 -8.087 -10.590 -134.912 929.994 4304.146 -0.550 -0.203 0.107 0.04 -0.65 0.76 0
1 4.77 477 1.188 -9.697 1.422 -2.197 -8.545 -10.895 -134.912 929.994 4304.146 -0.575 0.024 0.028 0.04 -0.65 0.76 0
1 4.78 478 1.130 -9.903 1.446 -2.045 -9.216 -10.193 -149.902 944.984 4289.006 -0.471 0.232 -0.006 0.04 -0.65 0.76 0.01
1 4.79 479 1.111 -10.008 1.461 2.991 -8.514 -9.491 -149.902 944.984 4289.006 -0.429 0.338 -0.024 0.04 -0.65 0.76 0.01
1 4.80 480 1.312 -9.912 1.374 7.721 -8.637 -7.843 -209.863 929.994 4349.117 -0.609 0.244 0.067 0.04 -0.65 0.76 0.01
1 4.81 481 1.427 -9.625 1.461 8.301 -7.660 -7.965 -224.854 944.984 4259.025 -0.703 -0.040 -0.008 0.04 -0.65 0.76 0.01
1 4.82 482 1.456 -9.481 1.451 6.104 -5.432 -8.270 -314.945 1004.945 4484.029 -0.711 -0.180 0.012 0.04 -0.65 0.76 0.01
1 4.83 483 1.528 -9.410 1.312 4.852 -2.808 -8.514 -284.964 779.942 4304.146 -0.762 -0.249 0.161 0.04 -0.65 0.76 0.01
1 4.84 484 1.446 -9.295 1.322 4.242 -0.214 -7.599 -284.964 779.942 4304.146 -0.660 -0.361 0.157 0.05 -0.65 0.76 0.01
1 4.85 485 1.441 -9.141 1.144 4.150 1.190 -6.256 -269.974 719.981 4394.087 -0.620 -0.510 0.345 0.05 -0.65 0.76 0.01
1 4.86 486 1.432 -9.323 0.986 1.465 5.798 -4.913 -269.974 719.981 4394.087 -0.595 -0.326 0.507 0.05 -0.65 0.76 0.01
1 4.87 487 1.566 -9.438 0.948 -1.221 8.911 -4.211 -299.955 839.903 4334.126 -0.717 -0.210 0.544 0.05 -0.65 0.76 0.01
1 4.88 488 1.772 -9.457 0.953 0.977 9.979 -2.197 -284.964 824.913 4409.078 -0.912 -0.191 0.536 0.05 -0.65 0.76 0.01
1 4.89 489 2.054 -9.352 0.867 5.096 8.392 -0.793 -329.935 839.903 4439.058 -1.185 -0.295 0.622 0.05 -0.65 0.76 0.01
1 4.90 490 2.447 -9.026 0.757 10.010 9.399 -0.183 -239.994 854.893 4304.146 -1.567 -0.619 0.739 0.05 -0.65 0.76 0.02
1 4.91 491 2.548 -8.983 0.785 7.111 12.817 0.153 -239.994 854.893 4304.146 -1.655 -0.659 0.720 0.05 -0.65 0.76 0.02
1 4.92 492 2.356 -8.701 0.599 -2.777 19.836 1.068 -314.945 779.942 4349.117 -1.441 -0.938 0.917 0.04 -0.65 0.76 0.02
1 4.93 493 1.954 -8.993 0.460 -9.888 23.285 1.343 -314.945 779.942 4349.117 -1.033 -0.647 1.046 0.04 -0.65 0.76 0.02
1 4.94 494 1.791 -9.141 0.244 -13.611 24.872 2.411 -284.964 854.893 4379.097 -0.868 -0.501 1.241 0.04 -0.65 0.76 0.02
1 4.95 495 1.872 -9.290 0.096 -10.956 25.665 2.930 -284.964 854.893 4409.078 -0.949 -0.357 1.364 0.04 -0.65 0.76 0.02
1 4.96 496 2.222 -9.390 0.086 -3.113 30.945 7.050 -359.916 824.913 4349.117 -1.301 -0.259 1.353 0.04 -0.65 0.76 0.03
1 4.97 497 2.409 -9.529 0.029 0.519 33.386 8.087 -134.912 779.942 4409.078 -1.492 -0.123 1.398 0.04 -0.65 0.76 0.03
1 4.98 498 2.361 -9.635 0.201 -0.366 35.523 6.989 -134.912 779.942 4409.078 -1.450 -0.019 1.220 0.04 -0.65 0.76 0.03
1 4.99 499 1.810 -9.754 0.148 -2.167 35.889 4.303 -224.854 794.932 4394.087 -0.905 0.100 1.268 0.03 -0.65 0.76 0.03
1 5.00 500 1.312 -9.932 0.139 0.458 34.210 3.174 -224.854 794.932 4394.087 -0.418 0.274 1.263 0.03 -0.65 0.76 0.03
1 5.01 501 0.737 -9.960 0.273 5.280 30.090 3.784 -209.863 929.994 4454.048 0.148 0.301 1.127 0.03 -0.65 0.76 0.04
1 5.02 502 0.316 -9.888 0.584 10.437 25.177 4.517 -29.980 824.913 4304.146 0.558 0.229 0.821 0.03 -0.65 0.76 0.04
1 5.03 503 -0.158 -9.625 1.149 15.106 18.433 6.226 -269.974 794.932 4289.006 1.017 -0.033 0.271 0.03 -0.65 0.76 0.04
1 5.04 504 -0.455 -9.486 1.322 17.456 5.981 6.775 -224.854 839.903 4394.087 1.295 -0.170 0.122 0.02 -0.65 0.76 0.04
1 5.05 505 -0.555 -9.218 1.446 15.625 -2.441 6.012 -224.854 839.903 4394.087 1.377 -0.436 0.023 0.02 -0.65 0.76 0.04
1 5.06 506 -0.431 -9.007 1.255 13.519 -7.324 5.371 -179.883 899.864 4409.078 1.236 -0.645 0.239 0.02 -0.65 0.76 0.04
1 5.07 507 0.057 -7.963 0.584 12.726 -4.578 5.829 -179.883 899.864 4409.078 0.731 -1.684 0.947 0.02 -0.65 0.76 0.03
1 5.08 508 0.517 -7.504 0.321 10.101 5.402 5.951 -104.932 899.864 4409.078 0.265 -2.141 1.229 0.02 -0.65 0.76 0.03
1 5.09 509 0.771 -7.609 -0.077 -1.221 17.029 6.409 -179.883 779.942 4454.048 0.003 -2.035 1.639 0.02 -0.65 0.76 0.03
1 5.10 510 0.776 -7.863 -0.220 -20.386 24.689 7.294 -179.883 779.942 4454.048 -0.015 -1.783 1.777 0.02 -0.65 0.76 0.04
1 5.11 511 0.804 -8.840 -0.168 -43.823 24.414 10.193 -149.902 839.903 4364.107 -0.058 -0.813 1.690 0.02 -0.65 0.76 0.04
1 5.12 512 1.216 -9.692 0.943 -42.389 21.027 10.529 -149.902 839.903 4364.107 -0.487 0.029 0.515 0.02 -0.65 0.76 0.04
1 5.13 513 1.729 -11.191 1.959 -36.804 13.306 5.524 -149.902 764.952 4499.019 -1.014 1.516 -0.569 0.02 -0.65 0.75 0.04
1 5.14 514 1.877 -11.995 2.184 -44.739 5.280 -13.763 -149.902 764.952 4499.019 -1.159 2.305 -0.910 0.01 -0.66 0.75 0.04
1 5.15 515 1.762 -11.038 0.790 -15.778 -0.488 -28.748 -134.912 929.994 4349.117 -1.003 1.343 0.425 0.02 -0.66 0.75 0.04
1 5.16 516 1.700 -10.171 0.876 23.956 2.502 -20.172 -89.941 794.932 4394.087 -0.894 0.479 0.329 0.02 -0.66 0.75 0.04
1 5.17 517 1.954 -10.171 1.532 31.708 5.737 -13.733 -89.941 794.932 4394.087 -1.113 0.487 -0.286 0.02 -0.66 0.75 0.04
1 5.18 518 1.911 -11.105 2.265 -23.499 3.021 -17.578 -14.990 914.854 4364.107 -1.040 1.429 -0.978 0.02 -0.66 0.75 0.04
1 5.19 519 1.144 -12.163 2.169 -45.593 0.366 -18.860 -14.990 914.854 4364.107 -0.247 2.487 -0.901 0.02 -0.66 0.75 0.05
1 5.20 520 0.053 -13.116 2.016 -36.011 0.305 -18.066 -119.922 914.854 4469.039 0.874 3.435 -0.810 0.02 -0.66 0.75 0.05
1 5.21 521 -0.268 -13.264 1.504 -10.498 -0.580 -10.834 -119.922 914.854 4469.039 1.247 3.578 -0.383 0.02 -0.67 0.74 0.05
1 5.22 522 0.709 -12.297 1.815 17.761 5.341 11.292 -194.873 914.854 4469.039 0.272 2.612 -0.683 0.02 -0.66 0.75 0.05
1 5.23 523 1.872 -11.502 2.528 13.336 11.566 15.350 -194.873 914.854 4679.052 -0.910 1.819 -1.368 0.02 -0.66 0.75 0.05
1 5.24 524 2.313 -11.454 3.103 -9.308 14.008 9.247 -194.873 914.854 4679.052 -1.372 1.771 -1.929 0.02 -0.66 0.75 0.05
1 5.25 525 2.241 -12.058 2.639 -25.482 16.296 3.906 -29.980 929.994 4349.117 -1.311 2.370 -1.484 0.02 -0.66 0.75 0.05
1 5.26 526 2.184 -11.785 2.394 -8.179 18.158 5.707 -29.980 929.994 4349.117 -1.260 2.093 -1.276 0.02 -0.67 0.74 0.05
1 5.27 527 2.136 -11.162 2.466 13.947 22.217 7.050 -29.980 974.965 4454.048 -1.221 1.467 -1.365 0.02 -0.67 0.74 0.05
1 5.28 528 1.504 -9.908 2.734 26.123 23.316 8.148 -29.980 974.965 4454.048 -0.613 0.217 -1.578 0.02 -0.66 0.75 0.05
1 5.29 529 1.226 -9.271 2.840 26.581 24.567 6.439 -119.922 1139.857 4619.091 -0.344 -0.414 -1.628 0.01 -0.66 0.75 0.05
1 5.30 530 0.589 -8.840 3.017 16.144 23.041 1.343 -149.902 869.883 4544.140 0.286 -0.839 -1.756 0.01 -0.66 0.75 0.05
1 5.31 531 0.426 -8.744 3.079 10.407 19.318 -0.458 -149.902 869.883 4544.140 0.444 -0.930 -1.779 0.01 -0.66 0.75 0.05
1 5.32 532 0.330 -8.734 3.227 5.859 17.181 -2.045 -59.961 974.965 4559.130 0.536 -0.936 -1.898 0.01 -0.66 0.75 0.05
1 5.33 533 0.192 -8.696 3.093 5.188 18.005 -2.625 -59.961 974.965 4559.130 0.673 -0.971 -1.738 0.01 -0.66 0.75 0.06
1 5.34 534 0.019 -8.663 2.978 6.714 18.036 -0.549 0.000 854.893 4529.000 0.843 -1.001 -1.599 0.01 -0.66 0.75 0.06
1 5.35 535 -0.168 -8.715 2.806 8.942 17.120 2.411 0.000 854.893 4529.000 1.025 -0.946 -1.402 0.01 -0.65 0.75 0.06
1 5.36 536 -0.809 -8.754 2.811 4.334 18.555 5.249 -44.971 839.903 4544.140 1.638 -0.902 -1.355 0.01 -0.65 0.76 0.06
1 5.37 537 -1.125 -9.204 2.777 -4.211 18.555 6.470 -44.971 839.903 4544.140 1.932 -0.451 -1.305 0 -0.65 0.76 0.06
1 5.38 538 -1.523 -9.563 2.591 -11.566 17.090 9.064 -44.971 839.903 4544.140 2.301 -0.094 -1.115 0 -0.65 0.76 0.06
1 5.39 539 -1.379 -10.027 2.332 -12.360 15.808 11.810 14.990 914.854 4544.140 2.124 0.366 -0.865 0 -0.65 0.76 0.06
1 5.40 540 -1.207 -9.706 2.184 3.601 15.778 15.137 -14.990 944.984 4469.039 1.916 0.042 -0.723 -0 -0.65 0.76 0.06
1 5.41 541 -1.010 -9.615 2.150 13.794 15.747 17.304 44.971 989.955 4499.019 1.682 -0.051 -0.682 -0 -0.65 0.76 0.06
1 5.42 542 -0.804 -9.065 2.131 14.923 15.595 19.135 44.971 989.955 4499.019 1.437 -0.600 -0.639 -0 -0.65 0.76 0.05
1 5.43 543 -0.508 -8.883 2.035 6.500 15.015 19.836 59.961 854.893 4529.000 1.061 -0.779 -0.494 -0.01 -0.65 0.76 0.05
1 5.44 544 -0.283 -8.988 1.882 -7.782 11.871 17.334 -29.980 824.913 4589.110 0.800 -0.676 -0.338 -0.01 -0.65 0.76 0.05
1 5.45 545 -0.192 -9.366 1.748 -9.430 10.529 16.876 -29.980 824.913 4589.110 0.678 -0.300 -0.213 -0.01 -0.65 0.76 0.05
1 5.46 546 0.201 -9.692 1.556 -5.005 10.407 15.991 59.961 779.942 4349.117 0.257 0.022 -0.032 -0.01 -0.65 0.76 0.05
1 5.47 547 0.211 -9.663 1.681 2.899 9.918 14.801 44.971 989.955 4439.058 0.222 -0.008 -0.160 -0.01 -0.65 0.76 0.05
1 5.48 548 0.254 -9.716 1.671 4.913 8.301 14.679 119.922 794.932 4439.058 0.156 0.044 -0.145 -0.01 -0.65 0.76 0.05
1 5.49 549 0.383 -9.453 1.580 4.822 7.446 13.763 119.922 794.932 4439.058 0.004 -0.219 -0.046 -0.02 -0.65 0.76 0.05
1 5.50 550 0.263 -9.242 1.547 4.730 7.477 13.306 134.912 899.864 4529.000 0.103 -0.429 -0.004 -0.02 -0.65 0.76 0.05
1 5.51 551 0.014 -9.141 1.676 3.357 7.568 12.604 119.922 794.932 4574.120 0.313 -0.528 -0.117 -0.02 -0.65 0.76 0.05
1 5.52 552 0.005 -9.060 1.532 2.502 7.111 11.414 119.922 794.932 4574.120 0.302 -0.609 0.033 -0.02 -0.65 0.76 0.05
1 5.53 553 -0.345 -9.117 1.518 2.716 5.371 10.162 59.961 749.961 4379.097 0.633 -0.552 0.051 -0.02 -0.65 0.76 0.05
1 5.54 554 -0.421 -9.012 1.551 3.784 4.089 8.606 14.990 764.952 4364.107 0.692 -0.657 0.022 -0.02 -0.65 0.76 0.04
1 5.55 555 -0.532 -9.060 1.542 4.822 2.960 7.660 149.902 944.984 4619.091 0.786 -0.609 0.038 -0.02 -0.65 0.76 0.04
1 5.56 556 -0.570 -8.864 1.465 5.005 2.472 6.958 149.902 944.984 4619.091 0.809 -0.804 0.122 -0.02 -0.65 0.76 0.04
1 5.57 557 -0.713 -8.706 1.312 3.510 -0.824 5.585 194.873 764.952 4574.120 0.937 -0.961 0.283 -0.02 -0.65 0.76 0.04
1 5.58 558 -0.694 -8.619 1.192 -1.099 -3.693 3.387 209.863 824.913 4454.048 0.901 -1.046 0.410 -0.02 -0.65 0.76 0.04
1 5.59 559 -0.532 -8.600 1.130 -5.127 -5.737 0.824 209.863 824.913 4454.048 0.734 -1.066 0.468 -0.02 -0.65 0.76 0.04
1 5.60 560 -0.493 -8.768 1.149 -8.301 -6.805 -0.610 239.994 899.864 4454.048 0.698 -0.900 0.440 -0.02 -0.65 0.76 0.04
1 5.61 561 -0.646 -9.122 0.991 -11.536 -8.972 -1.953 44.971 719.981 4619.091 0.852 -0.549 0.581 -0.02 -0.65 0.76 0.04
1 5.62 562 -0.570 -9.319 0.867 -8.606 -13.001 -3.662 224.854 944.984 4619.091 0.777 -0.356 0.684 -0.02 -0.65 0.76 0.04
1 5.63 563 -0.412 -9.232 0.838 -3.479 -14.832 -4.395 224.854 944.984 4619.091 0.624 -0.445 0.694 -0.02 -0.65 0.76 0.04
1 5.64 564 -0.263 -9.228 0.891 -1.495 -16.022 -4.456 89.941 869.883 4544.140 0.482 -0.451 0.629 -0.02 -0.65 0.76 0.04
1 5.65 565 -0.091 -9.390 1.144 -5.127 -15.106 -6.531 134.912 779.942 4589.110 0.331 -0.291 0.359 -0.02 -0.65 0.76 0.04
1 5.66 566 -0.278 -9.601 1.212 -8.789 -15.808 -9.766 134.912 779.942 4589.110 0.533 -0.082 0.278 -0.01 -0.65 0.76 0.04
1 5.67 567 -0.464 -9.788 1.077 -7.507 -17.487 -10.101 89.941 839.903 4544.140 0.736 0.103 0.397 -0.01 -0.65 0.76 0.04
1 5.68 568 -0.579 -9.841 1.097 -2.625 -19.470 -9.277 59.961 824.913 4694.042 0.867 0.154 0.365 -0.01 -0.65 0.76 0.04
1 5.69 569 -0.450 -9.706 1.255 2.441 -21.149 -6.989 134.912 854.893 4529.000 0.750 0.020 0.201 -0.01 -0.65 0.76 0.03
1 5.70 570 0.115 -9.793 1.360 3.998 -21.057 -3.845 134.912 854.893 4529.000 0.195 0.107 0.097 -0.01 -0.65 0.76 0.03
1 5.71 571 0.512 -9.601 1.417 0.763 -20.966 -2.899 44.971 644.880 4499.019 -0.191 -0.084 0.044 -0.01 -0.65 0.76 0.03
1 5.72 572 1.058 -9.544 1.413 -0.763 -16.510 -2.441 -89.941 1019.936 4649.071 -0.711 -0.141 0.048 -0 -0.65 0.76 0.03
1 5.73 573 1.111 -9.544 1.350 -0.244 -13.428 -2.869 -89.941 1019.936 4649.071 -0.749 -0.140 0.109 -0 -0.65 0.76 0.03
1 5.74 574 0.876 -9.433 1.097 1.495 -11.475 -2.960 89.941 944.984 4469.039 -0.500 -0.250 0.362 -0 -0.65 0.76 0.03
1 5.75 575 0.565 -9.467 0.886 0.427 -11.993 -3.326 -44.971 869.883 4544.140 -0.176 -0.216 0.571 0 -0.65 0.76 0.03
1 5.76 576 -0.005 -9.271 0.560 -1.526 -15.686 -4.364 44.971 869.883 4619.091 0.404 -0.413 0.891 0 -0.65 0.76 0.03
1 5.77 577 0.048 -9.386 0.397 -2.838 -17.304 -4.028 44.971 869.883 4619.091 0.361 -0.299 1.046 0 -0.65 0.76 0.03
1 5.78 578 0.053 -9.429 0.450 -2.838 -20.020 -4.883 -14.990 914.854 4619.091 0.367 -0.257 0.981 0 -0.65 0.76 0.03
1 5.79 579 -0.072 -9.673 0.488 -3.296 -21.668 -5.432 59.961 929.994 4559.130 0.502 -0.014 0.930 0.01 -0.65 0.76 0.03
1 5.80 580 -0.503 -9.855 0.575 -2.136 -25.421 -7.599 59.961 929.994 4559.130 0.957 0.165 0.818 0.01 -0.65 0.76 0.03
1 5.81 581 -0.737 -9.979 0.915 1.282 -28.565 -6.866 -89.941 914.854 4469.039 1.204 0.289 0.468 0.01 -0.66 0.75 0.02
1 5.82 582 -0.761 -10.540 2.193 4.822 -29.511 -5.493 -44.971 914.854 4649.071 1.237 0.849 -0.811 0.01 -0.66 0.75 0.02
1 5.83 583 -0.618 -12.900 2.844 -8.209 -24.414 2.869 -14.990 914.854 4544.140 1.107 3.211 -1.460 0.01 -0.66 0.76 0.02
1 5.84 584 -0.455 -12.024 2.002 -30.304 -30.975 16.083 -14.990 914.854 4544.140 0.943 2.331 -0.642 0.01 -0.66 0.75 0.02
1 5.85 585 -0.105 -10.980 1.346 13.611 -31.586 18.250 -44.971 794.932 4469.039 0.580 1.280 -0.037 0.02 -0.66 0.75 0.02
1 5.86 586 0.503 -10.621 1.824 43.915 -27.496 19.348 14.990 839.903 4619.091 -0.045 0.920 -0.516 0.02 -0.66 0.75 0.02
1 5.87 587 0.560 -10.224 2.658 22.614 -14.099 18.127 14.990 839.903 4619.091 -0.143 0.537 -1.233 0.02 -0.65 0.76 0.01
1 5.88 588 0.397 -9.955 2.471 2.869 -14.374 16.144 -59.961 899.864 4559.130 -0.001 0.273 -1.013 0.02 -0.65 0.76 0.01
1 5.89 589 0.316 -10.224 2.054 -3.876 -14.801 12.634 -179.883 704.991 4454.048 0.063 0.541 -0.590 0.02 -0.65 0.76 0.01
1 5.90 590 0.283 -10.204 1.796 0.244 -14.587 8.881 -179.883 704.991 4454.048 0.085 0.521 -0.333 0.02 -0.65 0.76 0.01
1 5.91 591 -0.096 -9.989 1.518 15.350 -17.395 2.808 -89.941 839.903 4649.071 0.456 0.306 -0.050 0.02 -0.65 0.76 0.01
1 5.92 592 -0.254 -9.821 1.686 16.846 -18.066 -1.221 -119.922 794.932 4574.120 0.612 0.141 -0.199 0.02 -0.65 0.76 0.01
1 5.93 593 -0.311 -10.094 2.457 7.935 -18.066 -3.326 -149.902 839.903 4544.140 0.672 0.418 -0.945 0.02 -0.65 0.76 0.01
1 5.94 594 -0.081 -11.248 2.615 -11.414 -16.876 -1.373 -149.902 839.903 4544.140 0.447 1.576 -1.083 0.02 -0.65 0.76 0
1 5.95 595 0.345 -11.153 1.906 -16.022 -16.571 1.831 -224.854 689.851 4649.071 0.034 1.474 -0.417 0.02 -0.65 0.76 0
1 5.96 596 0.086 -10.315 1.518 13.855 -15.320 -0.549 -119.922 839.903 4544.140 0.297 0.634 -0.044 0.02 -0.65 0.76 0
1 5.97 597 -0.297 -9.793 1.791 34.485 -14.984 -4.272 -119.922 839.903 4544.140 0.684 0.116 -0.288 0.02 -0.65 0.76 0
1 5.98 598 -0.474 -9.204 2.246 20.722 -18.127 -3.601 -134.912 854.893 4559.130 0.868 -0.464 -0.689 0.03 -0.65 0.76 0
1 5.99 599 -0.211 -9.146 2.361 -2.502 -21.240 -2.930 -89.941 794.932 4499.019 0.610 -0.514 -0.762 0.03 -0.65 0.76 0
1 6.00 600 -0.105 -9.462 2.174 -16.907 -20.874 -3.815 -134.912 824.913 4559.130 0.511 -0.196 -0.566 0.03 -0.65 0.76 0
1 6.01 601 0.201 -9.697 2.217 -15.900 -18.677 -3.937 -134.912 824.913 4559.130 0.214 0.036 -0.627 -0.03 0.65 -0.76 0
1 6.02 602 0.417 -9.750 1.906 5.249 -15.625 -3.662 -59.961 779.942 4454.048 0.020 0.085 -0.345 -0.03 0.65 -0.76 0
1 6.03 603 0.484 -9.682 1.863 15.472 -14.954 -3.906 -194.873 839.903 4499.019 -0.036 0.020 -0.288 -0.03 0.65 -0.76 0
1 6.04 604 0.737 -9.362 2.174 15.533 -15.778 -5.432 -194.873 839.903 4499.019 -0.276 -0.296 -0.573 -0.03 0.65 -0.76 0
1 6.05 605 1.073 -9.175 2.313 5.676 -15.198 -6.653 -299.955 914.854 4649.071 -0.595 -0.478 -0.688 -0.03 0.64 -0.76 0
1 6.06 606 1.144 -9.146 2.294 2.930 -15.381 -6.500 -209.863 824.913 4484.029 -0.647 -0.503 -0.654 -0.03 0.64 -0.76 0
1 6.07 607 1.082 -9.338 2.203 3.326 -16.998 -7.111 -299.955 794.932 4499.019 -0.565 -0.309 -0.554 -0.04 0.64 -0.76 0
1 6.08 608 1.130 -9.366 2.275 3.967 -18.341 -6.805 -299.955 794.932 4499.019 -0.570 -0.275 -0.610 -0.04 0.64 -0.76 0
1 6.09 609 1.231 -9.510 2.332 5.585 -20.081 -6.928 -284.964 629.890 4559.130 -0.648 -0.128 -0.656 -0.04 0.64 -0.77 0
1 6.10 610 1.317 -9.314 2.552 8.118 -21.515 -5.310 -449.857 764.952 4574.120 -0.713 -0.321 -0.863 -0.04 0.64 -0.77 0
1 6.11 611 1.202 -9.204 2.471 11.871 -22.156 -4.272 -449.857 764.952 4574.120 -0.577 -0.426 -0.764 -0.04 0.64 -0.77 0
1 6.12 612 1.197 -8.950 2.557 14.465 -23.224 -2.716 -359.916 704.991 4589.110 -0.554 -0.675 -0.829 -0.05 0.64 -0.77 0
1 6.13 613 1.288 -8.797 2.543 13.031 -22.766 -1.831 -494.978 779.942 4529.000 -0.627 -0.823 -0.789 -0.05 0.64 -0.77 0
1 6.14 614 1.264 -8.797 2.442 11.139 -21.912 1.373 -359.916 779.942 4454.048 -0.587 -0.817 -0.665 -0.05 0.64 -0.77 0
1 6.15 615 1.326 -8.797 2.389 10.437 -20.325 3.357 -359.916 779.942 4454.048 -0.637 -0.812 -0.592 -0.05 0.64 -0.77 0.01
1 6.16 616 1.408 -8.883 2.576 9.796 -19.348 6.409 -239.994 749.961 4529.000 -0.705 -0.718 -0.742 -0.05 0.64 -0.77 0.01
1 6.17 617 1.494 -9.189 2.428 7.874 -18.829 6.805 -419.876 749.961 4529.000 -0.788 -0.408 -0.576 -0.05 0.63 -0.77 0.01
1 6.18 618 1.504 -9.271 2.428 5.463 -16.846 7.141 -419.876 749.961 4529.000 -0.794 -0.324 -0.562 -0.05 0.63 -0.77 0.01
1 6.19 619 1.686 -9.568 2.313 5.463 -15.747 7.141 -389.896 674.860 4634.081 -0.974 -0.025 -0.437 -0.05 0.63 -0.77 0.01
1 6.20 620 1.614 -9.649 2.193 7.263 -15.350 3.387 -419.876 779.942 4559.130 -0.898 0.059 -0.307 -0.06 0.63 -0.77 0.01
1 6.21 621 1.777 -9.711 2.059 7.965 -15.137 -0.458 -389.896 749.961 4409.078 -1.053 0.124 -0.163 -0.06 0.63 -0.77 0.01
1 6.22 622 1.786 -9.529 2.102 8.820 -14.008 -3.693 -389.896 749.961 4409.078 -1.049 -0.055 -0.195 -0.06 0.63 -0.77 0.01
1 6.23 623 1.829 -9.544 1.911 8.545 -14.313 -4.883 -554.938 719.981 4574.120 -1.054 -0.033 0.019 -0.06 0.63 -0.77 0.01
1 6.24 624 1.815 -9.290 2.011 4.089 -11.719 -7.019 -464.997 629.890 4484.029 -1.017 -0.283 -0.073 -0.06 0.63 -0.77 0.01
1 6.25 625 2.054 -9.271 2.011 1.129 -10.376 -8.423 -464.997 629.890 4484.029 -1.233 -0.300 -0.068 -0.06 0.63 -0.77 0.01
1 6.26 626 2.117 -9.410 1.714 -0.244 -8.820 -9.491 -314.945 779.942 4589.110 -1.268 -0.158 0.228 -0.06 0.63 -0.77 0.01
1 6.27 627 2.083 -9.237 1.719 0.488 -6.897 -10.986 -404.886 794.932 4499.019 -1.205 -0.329 0.220 -0.06 0.63 -0.77 0.01
1 6.28 628 2.217 -9.400 1.858 1.068 -5.585 -11.688 -509.968 719.981 4619.091 -1.310 -0.164 0.080 -0.06 0.63 -0.77 0.01
1 6.29 629 2.351 -9.175 1.839 0.488 -2.899 -11.871 -509.968 719.981 4619.091 -1.414 -0.386 0.099 -0.07 0.63 -0.77 0.01
1 6.30 630 2.356 -9.223 1.786 -0.275 -0.763 -12.177 -404.886 794.932 4499.019 -1.388 -0.335 0.151 -0.07 0.63 -0.77 0
1 6.31 631 2.212 -9.175 1.805 -0.427 1.740 -11.749 -494.978 749.961 4529.000 -1.184 -0.377 0.130 -0.07 0.63 -0.77 0
1 6.32 632 2.217 -9.218 1.733 -0.092 4.211 -10.590 -494.978 749.961 4529.000 -1.161 -0.331 0.200 0.07 -0.63 0.77 0
1 6.33 633 2.088 -9.146 1.609 -1.068 5.707 -9.369 -479.987 644.880 4499.019 -1.008 -0.400 0.324 0.07 -0.63 0.77 0
1 6.34 634 1.877 -9.137 1.676 -1.953 7.935 -7.660 -599.909 749.961 4409.078 -0.777 -0.408 0.255 0.07 -0.63 0.77 0
1 6.35 635 1.801 -9.333 1.532 -3.998 8.820 -6.653 -644.880 854.893 4694.042 -0.684 -0.210 0.396 0.07 -0.63 0.77 0
1 6.36 636 1.710 -9.304 1.647 -3.906 10.010 -4.913 -644.880 854.893 4694.042 -0.578 -0.239 0.275 0.07 -0.63 0.77 0.01
1 6.37 637 1.858 -9.453 1.456 -3.662 11.627 -2.594 -644.880 704.991 4409.078 -0.715 -0.090 0.460 0.07 -0.63 0.77 0.01
1 6.38 638 1.944 -9.453 1.446 -1.038 14.893 -1.099 -554.938 644.880 4544.140 -0.784 -0.090 0.458 0.07 -0.63 0.77 0.01
1 6.39 639 1.987 -9.443 1.379 -0.580 16.174 0.336 -554.938 644.880 4544.140 -0.823 -0.100 0.523 0.07 -0.63 0.77 0.01
1 6.40 640 2.160 -9.347 1.331 0.427 18.524 2.625 -539.948 599.909 4559.130 -0.992 -0.195 0.570 0.07 -0.63 0.77 0.01
1 6.41 641 2.184 -9.127 1.183 1.129 20.660 4.852 -539.948 599.909 4559.130 -1.016 -0.415 0.719 0.07 -0.63 0.77 0.01
1 6.42 642 2.222 -9.089 1.140 -3.021 24.719 6.897 -509.968 689.851 4469.039 -1.057 -0.454 0.763 0.07 -0.63 0.77 0.01
1 6.43 643 1.973 -9.175 0.963 -4.944 26.795 8.270 -509.968 689.851 4469.039 -0.814 -0.369 0.936 0.06 -0.63 0.77 0.02
1 6.44 644 2.102 -9.333 0.852 -6.439 29.053 9.949 -494.978 749.961 4559.130 -0.953 -0.214 1.038 0.06 -0.63 0.77 0.02
1 6.45 645 2.016 -9.208 0.637 -6.073 31.586 11.200 -479.987 764.952 4394.087 -0.895 -0.346 1.231 0.06 -0.63 0.77 0.02
1 6.46 646 1.781 -9.400 0.484 -4.456 35.980 10.376 -479.987 764.952 4394.087 -0.678 -0.159 1.374 0.06 -0.63 0.77 0.02
1 6.47 647 1.762 -9.405 0.479 -4.272 36.713 9.613 -464.997 749.961 4454.048 -0.676 -0.158 1.369 0.05 -0.63 0.77 0.02
1 6.48 648 1.235 -9.759 0.555 -6.226 36.713 8.637 -314.945 824.913 4664.062 -0.166 0.193 1.283 0.05 -0.64 0.77 0.02
1 6.49 649 0.924 -9.879 0.685 -5.798 34.515 8.240 -509.968 644.880 4574.120 0.127 0.308 1.141 0.05 -0.64 0.77 0.02
1 6.50 650 0.642 -9.927 0.761 -1.160 30.792 9.003 -509.968 644.880 4574.120 0.390 0.352 1.053 0.05 -0.64 0.77 0.03
1 6.51 651 0.512 -9.970 0.991 5.371 27.863 10.376 -314.945 824.913 4529.000 0.498 0.391 0.817 0.04 -0.64 0.77 0.03
1 6.52 652 0.378 -9.740 1.336 13.275 24.933 12.878 -374.906 764.952 4499.019 0.581 0.160 0.490 0.04 -0.64 0.77 0.03
1 6.53 653 0.278 -9.630 1.542 14.069 20.172 13.550 -374.906 764.952 4499.019 0.653 0.050 0.305 0.04 -0.64 0.77 0.03
1 6.54 654 0.163 -9.563 1.762 10.803 14.740 13.245 -329.935 764.952 4439.058 0.740 -0.015 0.104 0.04 -0.64 0.77 0.03
1 6.55 655 -0.034 -9.754 1.820 8.698 7.782 12.634 -329.935 764.952 4439.058 0.909 0.177 0.063 0.04 -0.63 0.77 0.03
1 6.56 656 -0.110 -9.189 1.523 13.367 2.441 12.543 -224.854 689.851 4619.091 0.961 -0.388 0.373 0.03 -0.63 0.77 0.03
1 6.57 657 -0.043 -8.615 1.274 17.334 5.463 12.146 -224.854 689.851 4619.091 0.870 -0.961 0.640 0.03 -0.63 0.77 0.03
1 6.58 658 0.254 -8.121 0.948 15.656 13.794 11.231 -89.941 794.932 4499.019 0.554 -1.451 0.989 0.03 -0.63 0.77 0.03
1 6.59 659 0.555 -8.102 0.661 3.326 23.651 9.857 -239.994 674.860 4559.130 0.234 -1.467 1.302 0.03 -0.63 0.77 0.03
1 6.60 660 0.623 -8.528 0.129 -27.527 33.875 9.644 -239.994 674.860 4559.130 0.127 -1.044 1.833 0.03 -0.63 0.77 0.03
1 6.61 661 0.785 -9.237 -0.172 -41.382 36.408 9.064 -209.863 854.893 4409.078 -0.058 -0.347 2.085 0.02 -0.63 0.77 0.03
1 6.62 662 1.125 -9.836 -0.383 -38.513 40.100 8.514 -209.863 854.893 4409.078 -0.418 0.236 2.224 0.02 -0.64 0.77 0.03
1 6.63 663 1.681 -9.793 -0.498 -20.569 41.779 8.453 -119.922 719.981 4439.058 -0.991 0.180 2.276 0.02 -0.64 0.77 0.03
1 6.64 664 2.021 -9.702 -0.383 -0.763 45.624 5.341 -119.922 719.981 4439.058 -1.345 0.081 2.124 0.02 -0.64 0.77 0.03
1 6.65 665 2.337 -9.424 0.364 0.702 48.004 3.326 -179.883 674.860 4559.130 -1.670 -0.200 1.361 0.01 -0.64 0.77 0.04
1 6.66 666 2.883 -9.606 1.877 -3.052 46.539 -0.427 0.000 629.890 4484.029 -2.220 -0.019 -0.158 0.01 -0.64 0.77 0.04
1 6.67 667 2.126 -11.938 3.247 -49.408 22.827 -25.360 0.000 629.890 4484.029 -1.453 2.309 -1.552 0.01 -0.64 0.76 0.04
1 6.68 668 1.015 -12.038 2.150 -58.838 8.850 -39.917 -59.961 674.860 4529.000 -0.299 2.399 -0.537 0.01 -0.65 0.76 0.05
1 6.69 669 0.374 -11.205 1.374 -9.399 0.702 -33.844 -59.961 674.860 4529.000 0.402 1.559 0.168 0.01 -0.65 0.76 0.05
1 6.70 670 -0.460 -10.755 2.035 31.677 1.892 -29.205 -44.971 764.952 4544.140 1.285 1.113 -0.487 0.01 -0.65 0.76 0.05
1 6.71 671 -1.121 -10.401 3.046 5.920 5.798 -35.065 -134.912 749.961 4589.110 1.992 0.771 -1.449 0.01 -0.65 0.76 0.05
1 6.72 672 -1.312 -10.430 2.500 -21.729 -2.350 -29.053 -149.902 869.883 4544.140 2.236 0.808 -0.880 0.02 -0.65 0.76 0.05
1 6.73 673 -1.374 -10.588 2.595 -29.419 -8.392 -19.775 -89.941 839.903 4499.019 2.346 0.967 -1.000 0.02 -0.65 0.76 0.06
1 6.74 674 -0.776 -11.584 2.653 -28.931 -3.906 -13.580 -89.941 839.903 4499.019 1.810 1.956 -1.144 0.02 -0.65 0.76 0.06
1 6.75 675 0.034 -12.029 2.399 -25.024 9.338 -0.763 -89.941 764.952 4469.039 1.013 2.396 -0.930 0.02 -0.65 0.76 0.06
1 6.76 676 0.919 -11.933 2.471 -14.160 14.191 5.219 -89.941 764.952 4469.039 0.125 2.295 -1.034 0.02 -0.65 0.75 0.06
1 6.77 677 1.140 -11.967 2.782 -5.829 19.348 7.813 -29.980 749.961 4559.130 -0.105 2.326 -1.360 0.02 -0.65 0.75 0.06
1 6.78 678 1.695 -11.871 2.672 -8.789 24.323 13.275 -224.854 869.883 4574.120 -0.675 2.228 -1.255 0.02 -0.65 0.75 0.06
1 6.79 679 2.198 -11.397 2.500 -7.446 22.736 14.618 -59.961 1049.916 4664.062 -1.199 1.750 -1.090 0.02 -0.65 0.75 0.06
1 6.80 680 2.725 -10.611 2.356 2.075 20.783 13.123 0.000 824.913 4559.130 -1.750 0.961 -0.955 0.01 -0.65 0.75 0.06
1 6.81 681 3.290 -9.984 2.413 12.695 20.660 11.139 0.000 824.913 4559.130 -2.338 0.332 -1.010 0.01 -0.65 0.75 0.06
1 6.82 682 3.079 -8.940 2.461 20.020 22.705 8.881 -149.902 689.851 4679.052 -2.139 -0.704 -0.999 0.01 -0.65 0.76 0.06
1 6.83 683 2.571 -8.275 2.648 16.907 24.933 7.080 -149.902 689.851 4679.052 -1.632 -1.364 -1.145 0.01 -0.65 0.76 0.06
1 6.84 684 2.011 -8.059 2.825 11.017 24.750 5.035 -29.980 779.942 4664.062 -1.073 -1.573 -1.285 0.01 -0.65 0.76 0.06
1 6.85 685 1.245 -7.935 2.864 1.068 22.369 1.740 -14.990 794.932 4679.052 -0.317 -1.696 -1.307 0.01 -0.65 0.76 0.06
1 6.86 686 0.771 -8.222 2.974 -4.089 20.111 0.092 -29.980 824.913 4589.110 0.150 -1.408 -1.409 0.01 -0.65 0.76 0.06
1 6.87 687 0.417 -8.289 2.911 -8.026 17.761 -2.167 0.000 854.893 4634.081 0.501 -1.342 -1.349 0.01 -0.65 0.76 0.07
1 6.88 688 -0.326 -8.595 2.859 -7.141 16.388 -2.258 0.000 854.893 4634.081 1.240 -1.037 -1.301 0 -0.65 0.76 0.07
1 6.89 689 -0.694 -8.744 2.840 -2.686 15.747 -3.571 -89.941 719.981 4544.140 1.602 -0.887 -1.274 0 -0.65 0.76 0.07
1 6.90 690 -1.087 -8.983 2.983 0.702 15.076 -3.815 -89.941 719.981 4544.140 1.986 -0.647 -1.404 0 -0.65 0.76 0.07
1 6.91 691 -1.202 -9.295 2.897 -4.211 13.397 -3.967 89.941 839.903 4574.120 2.091 -0.334 -1.305 0 -0.65 0.76 0.07
1 6.92 692 -1.580 -9.692 2.859 -11.505 11.383 1.556 14.990 719.981 4724.022 2.457 0.063 -1.263 0 -0.65 0.76 0.07
1 6.93 693 -1.288 -9.893 2.629 -8.026 12.177 6.531 0.000 899.864 4589.110 2.146 0.261 -1.038 -0 -0.65 0.76 0.07
1 6.94 694 -0.919 -9.965 2.418 -1.923 13.794 10.925 -59.961 824.913 4634.081 1.752 0.330 -0.831 -0 -0.65 0.76 0.07
1 6.95 695 -0.814 -9.821 2.327 1.770 14.893 14.038 -59.961 824.913 4634.081 1.617 0.185 -0.737 -0 -0.65 0.76 0.07
1 6.96 696 -0.388 -9.639 2.275 0.122 14.710 15.411 44.971 869.883 4679.052 1.124 0.001 -0.665 -0.01 -0.65 0.76 0.07
1 6.97 697 -0.110 -9.630 2.117 -3.540 15.564 15.167 44.971 869.883 4679.052 0.814 -0.011 -0.502 -0.01 -0.65 0.76 0.06
1 6.98 698 0.292 -9.850 1.978 -8.331 15.015 14.404 -14.990 914.854 4574.120 0.383 0.207 -0.365 -0.01 -0.65 0.76 0.06
1 6.99 699 0.541 -10.171 1.839 -11.108 12.299 13.397 -14.990 869.883 4649.071 0.110 0.525 -0.236 -0.01 -0.65 0.76 0.06
1 7.00 700 0.747 -10.305 1.642 -3.967 9.308 11.688 29.980 899.864 4634.081 -0.115 0.655 -0.054 -0.01 -0.65 0.76 0.06
1 7.01 701 0.728 -10.118 1.585 6.805 8.606 12.299 119.922 869.883 4619.091 -0.113 0.466 -0.005 -0.01 -0.65 0.76 0.06
1 7.02 702 0.527 -9.745 1.762 13.794 6.439 12.939 119.922 869.883 4619.091 0.071 0.093 -0.175 -0.01 -0.65 0.76 0.06
1 7.03 703 0.192 -9.433 1.944 11.658 3.754 14.771 104.932 854.893 4634.081 0.368 -0.214 -0.316 -0.01 -0.65 0.76 0.06
1 7.04 704 0.101 -9.275 1.891 0.122 2.380 14.252 104.932 854.893 4634.081 0.437 -0.371 -0.251 -0.01 -0.65 0.76 0.06
1 7.05 705 -0.110 -9.443 1.959 -3.021 0.458 13.123 89.941 794.932 4619.091 0.626 -0.205 -0.317 -0.02 -0.64 0.76 0.06
1 7.06 706 -0.115 -9.510 1.714 0.916 0.519 12.238 59.961 899.864 4694.042 0.609 -0.139 -0.074 -0.02 -0.65 0.76 0.06
1 7.07 707 -0.546 -9.510 1.801 10.254 0.946 12.177 149.902 869.883 4724.022 1.019 -0.139 -0.155 -0.02 -0.64 0.76 0.06
1 7.08 708 -0.670 -9.151 1.753 12.909 0.824 11.963 59.961 854.893 4664.062 1.120 -0.497 -0.092 -0.02 -0.64 0.76 0.06
1 7.09 709 -0.565 -9.165 1.848 11.108 0.549 11.871 59.961 854.893 4664.062 0.992 -0.480 -0.168 -0.02 -0.64 0.76 0.05
1 7.10 710 -0.330 -8.959 1.781 9.491 -0.549 10.376 179.883 929.994 4769.143 0.735 -0.684 -0.082 -0.02 -0.64 0.76 0.05
1 7.11 711 -0.057 -9.314 1.609 6.409 0.488 7.690 179.883 929.994 4769.143 0.426 -0.326 0.118 -0.02 -0.64 0.77 0.05
1 7.12 712 0.067 -9.520 1.504 7.111 2.350 4.730 104.932 929.994 4694.042 0.291 -0.119 0.232 -0.02 -0.64 0.77 0.05
1 7.13 713 0.316 -9.472 1.370 12.421 2.441 2.716 179.883 779.942 4664.062 0.035 -0.165 0.377 -0.02 -0.64 0.77 0.05
1 7.14 714 0.153 -9.386 1.302 18.036 0.031 1.465 89.941 869.883 4544.140 0.195 -0.248 0.462 -0.02 -0.64 0.77 0.05
1 7.15 715 0.182 -9.132 1.393 18.829 -2.686 -1.617 269.974 869.883 4439.058 0.167 -0.497 0.395 -0.02 -0.64 0.77 0.05
1 7.16 716 0.086 -9.007 1.566 13.641 -2.625 -3.357 269.974 869.883 4439.058 0.267 -0.617 0.249 -0.02 -0.64 0.77 0.05
1 7.17 717 0.091 -8.955 1.575 7.019 -3.113 -4.791 134.912 674.860 4589.110 0.269 -0.665 0.261 -0.02 -0.64 0.77 0.05
1 7.18 718 -0.115 -9.165 1.350 2.625 -4.883 -3.448 134.912 674.860 4589.110 0.489 -0.451 0.501 -0.02 -0.64 0.77 0.05
1 7.19 719 -0.029 -9.371 1.528 1.495 -5.005 -3.723 14.990 839.903 4574.120 0.409 -0.245 0.324 -0.02 -0.64 0.77 0.05
1 7.20 720 0.225 -9.606 1.686 1.007 -2.777 -4.059 194.873 839.903 4574.120 0.162 -0.010 0.167 -0.01 -0.64 0.77 0.05
1 7.21 721 0.393 -9.750 1.757 2.838 -0.977 -2.960 194.873 839.903 4574.120 0.001 0.134 0.095 -0.01 -0.64 0.77 0.05
1 7.22 722 0.378 -9.740 1.580 7.568 -0.641 -2.441 194.873 839.903 4499.019 0.022 0.126 0.276 -0.01 -0.64 0.77 0.05
1 7.23 723 0.354 -9.663 1.638 11.261 -0.885 -1.678 194.873 839.903 4499.019 0.052 0.051 0.226 -0.01 -0.64 0.77 0.05
1 7.24 724 0.512 -9.625 1.724 11.719 -2.197 -0.671 104.932 779.942 4559.130 -0.101 0.015 0.153 -0.01 -0.64 0.77 0.05
1 7.25 725 0.867 -9.496 1.733 10.010 -3.387 -0.061 104.932 779.942 4559.130 -0.446 -0.108 0.173 -0.01 -0.63 0.77 0.05
1 7.26 726 1.053 -9.319 1.494 8.606 -4.486 0.305 44.971 719.981 4619.091 -0.626 -0.282 0.424 -0.01 -0.63 0.77 0.05
1 7.27 727 1.279 -9.410 1.504 8.179 -4.028 1.495 269.974 764.952 4574.120 -0.844 -0.189 0.425 -0.01 -0.63 0.77 0.05
1 7.28 728 1.283 -9.189 1.499 7.843 -1.953 1.526 59.961 824.913 4529.000 -0.841 -0.407 0.438 -0.01 -0.63 0.77 0.05
1 7.29 729 1.006 -9.295 1.542 6.500 -0.580 2.014 0.000 779.942 4589.110 -0.556 -0.300 0.403 -0.01 -0.63 0.77 0.05
1 7.30 730 0.699 -9.592 1.451 2.472 1.495 2.136 0.000 779.942 4589.110 -0.246 -0.001 0.501 -0.01 -0.63 0.77 0.05
1 7.31 731 0.283 -9.759 1.331 -0.549 1.404 2.289 59.961 854.893 4634.081 0.172 0.167 0.623 -0.01 -0.63 0.77 0.05
1 7.32 732 -0.072 -10.123 1.192 -1.953 0.153 2.319 59.961 854.893 4634.081 0.521 0.528 0.748 -0.01 -0.63 0.77 0.05
1 7.33 733 -0.421 -10.195 0.996 2.899 -2.686 2.594 89.941 764.952 4499.019 0.865 0.598 0.937 -0.01 -0.63 0.77 0.05
1 7.34 734 -0.374 -10.137 1.010 9.003 -5.646 3.906 59.961 824.913 4484.029 0.809 0.540 0.921 -0.01 -0.63 0.77 0.05
1 7.35 735 -0.460 -10.032 0.958 10.315 -8.148 6.012 59.961 824.913 4484.029 0.886 0.435 0.980 -0.01 -0.63 0.77 0.05
1 7.36 736 -0.426 -9.864 0.924 5.280 -11.932 7.294 0.000 749.961 4589.110 0.842 0.268 1.020 -0.01 -0.63 0.77 0.04
1 7.37 737 -0.321 -9.860 1.063 2.197 -14.374 7.843 0.000 749.961 4589.110 0.725 0.263 0.882 -0.01 -0.63 0.77 0.04
1 7.38 738 -0.254 -9.927 1.053 4.456 -15.320 8.972 119.922 614.899 4469.039 0.647 0.329 0.888 -0.01 -0.63 0.77 0.04
1 7.39 739 -0.340 -9.864 1.154 9.522 -16.327 8.911 119.922 614.899 4469.039 0.722 0.266 0.784 -0.01 -0.63 0.77 0.04
1 7.40 740 -0.541 -9.687 1.389 16.205 -19.653 8.148 179.883 824.913 4484.029 0.901 0.091 0.567 -0.01 -0.63 0.77 0.04
1 7.41 741 -0.450 -9.668 1.523 17.242 -21.881 7.721 134.912 674.860 4454.048 0.800 0.075 0.451 -0.01 -0.63 0.77 0.04
1 7.42 742 -0.311 -9.601 1.566 16.357 -24.323 7.416 134.912 674.860 4454.048 0.654 0.012 0.429 -0 -0.63 0.78 0.03
1 7.43 743 0.057 -9.620 1.623 15.625 -26.367 6.775 -89.941 839.903 4574.120 0.280 0.035 0.390 -0 -0.63 0.78 0.03
1 7.44 744 0.144 -9.381 1.848 20.294 -29.785 5.707 -89.941 839.903 4574.120 0.192 -0.200 0.184 -0 -0.63 0.78 0.03
1 7.45 745 0.316 -9.319 1.719 25.513 -34.027 5.890 134.912 749.961 4589.110 0.020 -0.257 0.337 -0 -0.63 0.78 0.03
1 7.46 746 0.436 -9.117 1.868 27.313 -37.384 4.974 134.912 749.961 4589.110 -0.096 -0.451 0.221 0 -0.63 0.78 0.03
1 7.47 747 0.766 -8.639 2.255 25.726 -39.581 1.160 -29.980 779.942 4484.029 -0.408 -0.913 -0.094 0.01 -0.62 0.78 0.02
1 7.48 748 1.111 -8.543 3.443 26.428 -37.933 1.251 -14.990 794.932 4364.107 -0.736 -1.000 -1.243 0.01 -0.62 0.78 0.02
1 7.49 749 1.461 -9.764 4.880 16.571 -31.708 6.866 -14.990 794.932 4364.107 -1.068 0.233 -2.631 0.01 -0.62 0.78 0.02
1 7.50 750 1.532 -11.698 5.076 -28.687 -31.494 18.158 59.961 749.961 4559.130 -1.141 2.170 -2.819 0.01 -0.62 0.78 0.02
1 7.51 751 0.910 -10.990 3.141 -32.044 -37.018 18.677 -104.932 674.860 4304.146 -0.533 1.447 -0.943 0.01 -0.62 0.78 0.02
1 7.52 752 1.183 -10.147 2.691 34.119 -41.870 23.468 -104.932 599.909 4409.078 -0.820 0.589 -0.556 0.01 -0.63 0.78 0.01
1 7.53 753 1.346 -9.333 3.275 68.360 -41.199 29.205 -104.932 599.909 4409.078 -0.997 -0.220 -1.116 0.02 -0.62 0.78 0.01
1 7.54 754 1.288 -8.509 3.821 44.403 -36.102 29.541 -89.941 719.981 4499.019 -0.977 -1.001 -1.477 0.02 -0.62 0.79 0
1 7.55 755 0.943 -8.749 3.160 -24.933 -33.081 21.637 -134.912 854.893 4409.078 -0.650 -0.757 -0.795 0.02 -0.62 0.79 0
1 7.56 756 0.230 -9.592 2.399 -42.877 -33.997 13.550 -134.912 854.893 4409.078 0.053 0.075 -0.076 -0.02 0.62 -0.79 0
1 7.57 757 -0.469 -10.257 1.657 -28.687 -37.903 7.263 -179.883 704.991 4379.097 0.747 0.726 0.604 -0.02 0.62 -0.78 0
1 7.58 758 -1.322 -10.846 1.657 11.810 -41.718 3.265 -14.990 689.851 4439.058 1.598 1.305 0.565 -0.02 0.62 -0.78 0.01
1 7.59 759 -1.662 -11.052 2.121 20.233 -40.527 2.228 -149.902 689.851 4439.058 1.949 1.513 0.108 -0.03 0.62 -0.78 0.01
1 7.60 760 -1.992 -10.980 2.275 12.268 -39.398 2.869 -149.902 689.851 4439.058 2.292 1.448 -0.019 -0.03 0.62 -0.78 0.01
1 7.61 761 -2.016 -10.784 2.064 3.479 -39.276 3.113 -14.990 764.952 4394.087 2.328 1.257 0.212 -0.03 0.62 -0.78 0.01
1 7.62 762 -1.623 -10.181 1.614 10.162 -38.330 2.136 -209.863 779.942 4529.000 1.940 0.655 0.668 -0.03 0.62 -0.78 0.02
1 7.63 763 -1.240 -10.080 1.848 14.435 -37.811 2.655 -209.863 779.942 4529.000 1.555 0.557 0.442 -0.03 0.62 -0.79 0.02
1 7.64 764 -0.618 -10.286 2.045 7.568 -35.858 2.563 -89.941 689.851 4394.087 0.934 0.766 0.260 -0.04 0.62 -0.79 0.02
1 7.65 765 0.450 -10.324 2.011 -2.777 -33.051 3.052 -104.932 824.913 4379.097 -0.129 0.805 0.296 -0.04 0.62 -0.79 0.02
1 7.66 766 0.910 -10.329 1.935 -2.899 -25.665 4.639 -269.974 839.903 4364.107 -0.580 0.808 0.362 -0.04 0.62 -0.79 0.02
1 7.67 767 1.140 -10.276 2.198 5.463 -21.301 4.395 -269.974 839.903 4364.107 -0.801 0.753 0.089 -0.04 0.62 -0.78 0.02
1 7.68 768 1.034 -9.989 2.370 11.749 -20.050 2.228 -299.955 689.851 4439.058 -0.676 0.470 -0.070 -0.04 0.62 -0.79 0.02
1 7.69 769 1.159 -9.673 2.471 12.116 -22.522 -0.427 -374.906 689.851 4394.087 -0.786 0.158 -0.154 -0.04 0.62 -0.79 0.02
1 7.70 770 1.173 -9.232 2.457 9.857 -25.452 -5.219 -374.906 689.851 4394.087 -0.780 -0.278 -0.123 -0.04 0.62 -0.79 0.02
1 7.71 771 1.077 -8.792 2.404 11.017 -25.726 -7.721 -209.863 629.890 4379.097 -0.660 -0.714 -0.056 -0.05 0.61 -0.79 0.02
1 7.72 772 0.905 -8.476 2.437 11.322 -26.917 -11.200 -209.863 704.991 4529.000 -0.459 -1.024 -0.073 -0.05 0.61 -0.79 0.02
1 7.73 773 0.632 -8.346 2.466 7.690 -28.076 -11.902 -329.935 644.880 4439.058 -0.155 -1.148 -0.085 -0.05 0.61 -0.79 0.02
1 7.74 774 0.374 -8.394 2.662 2.258 -29.511 -12.360 -329.935 644.880 4439.058 0.132 -1.096 -0.271 -0.05 0.61 -0.79 0.02
1 7.75 775 0.364 -8.433 2.706 -0.214 -28.748 -11.597 -389.896 704.991 4454.048 0.173 -1.055 -0.311 -0.05 0.61 -0.79 0.02
1 7.76 776 0.374 -8.437 2.710 -0.153 -25.726 -8.789 -404.886 614.899 4394.087 0.217 -1.046 -0.313 -0.06 0.61 -0.79 0.02
1 7.77 777 0.479 -8.495 2.849 2.655 -21.545 -6.226 -404.886 614.899 4394.087 0.134 -0.987 -0.449 -0.06 0.61 -0.79 0.03
1 7.78 778 0.929 -8.524 3.151 3.510 -16.113 -2.594 -329.935 764.952 4469.039 -0.298 -0.955 -0.742 -0.06 0.61 -0.79 0.03
1 7.79 779 1.164 -8.648 3.299 -0.153 -10.864 0.305 -419.876 704.991 4409.078 -0.520 -0.827 -0.881 -0.06 0.61 -0.79 0.02
1 7.80 780 1.767 -8.648 3.141 -7.172 -4.974 2.533 -419.876 629.890 4484.029 -1.114 -0.825 -0.718 -0.06 0.61 -0.79 0.02
1 7.81 781 1.901 -8.821 3.036 -8.484 0.916 1.404 -419.876 629.890 4484.029 -1.240 -0.653 -0.616 -0.06 0.61 -0.79 0.02
1 7.82 782 2.021 -8.883 3.012 -7.721 5.402 -0.458 -419.876 779.942 4454.048 -1.351 -0.592 -0.599 -0.06 0.61 -0.79 0.02
1 7.83 783 1.805 -9.151 2.897 -9.766 8.820 -3.235 -419.876 629.890 4454.048 -1.113 -0.325 -0.496 -0.06 0.61 -0.79 0.02
1 7.84 784 1.662 -9.137 2.916 -8.362 10.040 -7.751 -419.876 629.890 4454.048 -0.954 -0.341 -0.524 -0.06 0.61 -0.79 0.02
1 7.85 785 1.317 -9.400 2.820 -5.676 10.407 -8.789 -419.876 704.991 4484.029 -0.593 -0.078 -0.435 -0.06 0.61 -0.79 0.02
1 7.86 786 1.034 -9.462 2.873 -4.944 9.186 -10.101 -464.997 824.913 4349.117 -0.295 -0.015 -0.491 -0.06 0.61 -0.79 0.02
1 7.87 787 1.183 -9.405 2.907 -8.606 7.507 -13.428 -464.997 674.860 4349.117 -0.427 -0.072 -0.527 -0.06 0.61 -0.79 0.01
1 7.88 788 1.226 -9.496 2.686 -9.888 6.653 -12.848 -464.997 674.860 4349.117 -0.449 0.019 -0.313 -0.06 0.61 -0.79 0.01
1 7.89 789 1.451 -9.180 2.543 -6.439 6.531 -12.695 -359.916 749.961 4484.029 -0.653 -0.297 -0.179 -0.06 0.61 -0.79 0.01
1 7.90 790 1.537 -8.873 2.490 -3.998 6.409 -13.855 -479.987 644.880 4619.091 -0.716 -0.604 -0.134 -0.06 0.61 -0.79 0.01
1 7.91 791 1.719 -8.835 2.284 -7.996 6.958 -14.587 -479.987 644.880 4619.091 -0.846 -0.640 0.062 -0.06 0.61 -0.79 0.01
1 7.92 792 1.523 -8.787 2.327 -13.092 8.545 -13.306 -449.857 644.880 4334.126 -0.623 -0.688 0.007 -0.06 0.61 -0.79 0
1 7.93 793 1.566 -8.715 2.208 -16.602 8.698 -12.909 -509.968 614.899 4469.039 -0.642 -0.762 0.109 -0.06 0.61 -0.79 0
1 7.94 794 1.508 -8.825 2.078 -17.761 8.270 -11.810 -329.935 839.903 4544.140 -0.562 -0.656 0.214 -0.06 0.62 -0.79 0
1 7.95 795 1.441 -8.801 1.891 -16.693 9.979 -9.583 -329.935 839.903 4544.140 -0.475 -0.683 0.376 0.06 -0.62 0.78 0
1 7.96 796 1.561 -8.974 1.954 -14.862 11.322 -6.226 -359.916 779.942 4484.029 -0.577 -0.515 0.289 0.06 -0.62 0.78 0
1 7.97 797 1.638 -8.821 1.772 -14.526 12.085 -3.998 -374.906 764.952 4439.058 -0.640 -0.672 0.450 0.06 -0.62 0.78 0
1 7.98 798 1.796 -9.003 1.724 -16.785 13.855 -1.801 -374.906 764.952 4439.058 -0.780 -0.498 0.453 0.06 -0.62 0.78 0.01
1 7.99 799 1.848 -8.830 1.748 -16.663 15.289 0.000 -479.987 689.851 4499.019 -0.826 -0.676 0.404 0.06 -0.62 0.78 0.01
1 8.00 800 1.796 -9.041 1.537 -16.144 18.768 3.265 -554.938 914.854 4469.039 -0.771 -0.470 0.590 0.06 -0.62 0.78 0.01
1 8.01 801 1.930 -9.084 1.422 -16.571 21.942 5.646 -554.938 914.854 4469.039 -0.908 -0.433 0.681 0.06 -0.62 0.78 0.01
1 8.02 802 1.877 -9.094 1.116 -19.013 25.726 10.895 -464.997 779.942 4454.048 -0.863 -0.430 0.961 0.06 -0.63 0.78 0.01
1 8.03 803 1.973 -9.065 0.838 -18.311 26.733 13.275 -389.896 779.942 4454.048 -0.972 -0.466 1.210 0.06 -0.63 0.78 0.01
1 8.04 804 2.064 -8.854 0.618 -16.693 26.154 15.198 -269.974 869.883 4439.058 -1.081 -0.685 1.401 0.05 -0.63 0.78 0.01
1 8.05 805 2.050 -9.113 0.541 -16.449 26.001 15.808 -269.974 869.883 4439.058 -1.105 -0.443 1.418 0.05 -0.63 0.77 0.02
1 8.06 806 2.021 -9.338 0.565 -20.691 28.137 15.228 -269.974 839.903 4544.140 -1.096 -0.227 1.360 0.05 -0.63 0.77 0.02
1 8.07 807 1.714 -9.759 0.618 -23.071 28.717 14.496 -314.945 899.864 4409.078 -0.809 0.185 1.270 0.04 -0.63 0.77 0.02
1 8.08 808 1.575 -9.979 0.450 -21.179 29.541 13.031 -314.945 899.864 4409.078 -0.691 0.396 1.398 0.04 -0.64 0.77 0.02
1 8.09 809 0.996 -9.951 0.335 -10.284 28.626 10.864 -299.955 914.854 4544.140 -0.132 0.359 1.477 0.04 -0.64 0.77 0.02
1 8.10 810 0.713 -9.932 0.378 -4.364 28.290 10.254 -284.964 899.864 4529.000 0.130 0.333 1.409 0.04 -0.64 0.77 0.02
1 8.11 811 0.575 -9.754 0.479 -5.188 27.710 10.284 -149.902 839.903 4364.107 0.247 0.151 1.292 0.04 -0.64 0.77 0.02
1 8.12 812 0.455 -9.812 0.527 -9.949 27.374 9.522 -149.902 839.903 4364.107 0.324 0.199 1.213 0.03 -0.64 0.77 0.02
1 8.13 813 0.244 -9.999 0.479 -16.266 28.748 6.928 -269.974 869.883 4619.091 0.514 0.379 1.235 0.03 -0.64 0.77 0.02
1 8.14 814 -0.110 -9.975 0.680 -13.611 27.252 5.096 -179.883 899.864 4484.029 0.849 0.349 1.005 0.03 -0.64 0.77 0.03
1 8.15 815 -0.421 -9.932 0.752 -8.484 23.651 3.204 -179.883 899.864 4484.029 1.141 0.300 0.909 0.03 -0.64 0.76 0.03
1 8.16 816 -0.699 -9.592 0.915 -5.402 17.059 2.319 -104.932 899.864 4634.081 1.402 -0.044 0.731 0.02 -0.64 0.76 0.03
1 8.17 817 -0.752 -9.845 1.202 -8.331 10.681 1.953 -119.922 839.903 4544.140 1.437 0.207 0.433 0.02 -0.65 0.76 0.03
1 8.18 818 -0.828 -9.697 1.101 -13.397 4.425 0.092 -59.961 899.864 4559.130 1.499 0.055 0.521 0.02 -0.65 0.76 0.03
1 8.19 819 -0.560 -9.601 0.757 -14.526 0.885 0.214 -59.961 899.864 4559.130 1.220 -0.045 0.845 0.02 -0.65 0.76 0.03
1 8.20 820 -0.244 -9.199 0.287 -11.139 4.272 -0.244 -179.883 929.994 4559.130 0.889 -0.456 1.261 0.02 -0.65 0.76 0.03
1 8.21 821 0.072 -9.113 0.120 -11.566 11.627 0.031 -224.854 914.854 4574.120 0.568 -0.547 1.404 0.02 -0.65 0.76 0.03
1 8.22 822 0.086 -9.098 0.062 -16.388 18.799 0.671 -224.854 914.854 4574.120 0.548 -0.566 1.434 0.02 -0.65 0.76 0.03
1 8.23 823 0.249 -9.333 0.177 -23.407 23.529 0.702 -224.854 914.854 4649.071 0.379 -0.337 1.284 0.02 -0.65 0.76 0.03
1 8.24 824 0.541 -9.903 0.579 -30.396 28.198 0.000 -194.873 914.854 4574.120 0.079 0.226 0.837 0.02 -0.65 0.76 0.03
1 8.25 825 0.781 -11.138 1.355 -33.112 28.992 -3.845 -119.922 869.883 4679.052 -0.166 1.454 0.013 0.01 -0.66 0.75 0.03
1 8.26 826 1.135 -12.316 1.820 -36.804 30.304 -13.336 -119.922 869.883 4679.052 -0.520 2.625 -0.497 0.01 -0.66 0.75 0.03
1 8.27 827 1.561 -11.852 1.140 -6.012 24.262 -21.759 -149.902 989.955 4784.133 -0.907 2.152 0.093 0.01 -0.66 0.75 0.04
1 8.28 828 1.690 -10.741 1.322 31.159 22.705 -20.447 -149.902 1019.936 4574.120 -1.006 1.044 -0.082 0.01 -0.66 0.75 0.04
1 8.29 829 1.863 -9.687 2.073 49.164 23.285 -21.271 -149.902 1019.936 4574.120 -1.145 0.000 -0.775 0.01 -0.66 0.75 0.04
1 8.30 830 1.700 -9.323 2.892 35.095 22.553 -23.895 -44.971 989.955 4829.104 -0.945 -0.350 -1.514 0.01 -0.66 0.75 0.05
1 8.31 831 1.058 -9.462 3.189 -13.672 10.834 -24.445 -59.961 1079.896 4664.062 -0.264 -0.200 -1.756 0.01 -0.65 0.76 0.05
1 8.32 832 0.761 -10.276 3.347 -31.372 2.563 -24.597 -104.932 899.864 4694.042 0.072 0.618 -1.908 0.01 -0.65 0.76 0.05
1 8.33 833 0.378 -11.483 3.467 -36.469 -3.021 -26.154 -104.932 899.864 4694.042 0.493 1.824 -2.061 0.01 -0.65 0.75 0.05
1 8.34 834 0.474 -12.536 2.911 -30.060 -5.737 -23.621 -149.902 1064.906 4619.091 0.478 2.870 -1.608 0.02 -0.66 0.75 0.05
1 8.35 835 0.781 -12.192 2.840 0.519 -1.617 -11.047 -104.932 854.893 4589.110 0.201 2.525 -1.560 0.02 -0.66 0.75 0.05
1 8.36 836 0.747 -11.545 3.165 14.130 7.141 -2.808 -104.932 854.893 4589.110 0.249 1.881 -1.878 0.02 -0.66 0.75 0.05
1 8.37 837 0.967 -11.109 3.314 6.561 15.595 2.350 -209.863 1004.945 4664.062 0.032 1.449 -2.005 0.02 -0.66 0.75 0.06
1 8.38 838 1.121 -10.765 3.218 -19.623 17.883 6.714 -134.912 824.913 4694.042 -0.127 1.104 -1.903 0.02 -0.66 0.75 0.06
1 8.39 839 1.317 -10.837 3.041 -23.193 19.074 9.613 -209.863 1049.916 4664.062 -0.333 1.172 -1.747 0.02 -0.66 0.75 0.06
1 8.40 840 1.417 -10.635 2.749 -14.252 20.752 10.742 -209.863 1049.916 4664.062 -0.449 0.965 -1.487 0.02 -0.66 0.75 0.06
1 8.41 841 1.341 -10.396 2.734 -0.305 23.621 11.444 -134.912 974.965 4559.130 -0.389 0.721 -1.495 0.01 -0.66 0.75 0.06
1 8.42 842 1.331 -9.654 2.701 11.871 23.010 12.878 -119.922 1094.887 4724.022 -0.416 -0.021 -1.437 0.01 -0.66 0.75 0.06
1 8.43 843 1.279 -9.094 2.610 13.367 22.430 12.238 -119.922 1094.887 4724.022 -0.382 -0.579 -1.314 0.01 -0.66 0.75 0.06
1 8.44 844 1.465 -8.782 2.562 11.658 21.820 10.437 -29.980 1199.968 4739.013 -0.585 -0.887 -1.233 0.01 -0.66 0.75 0.06
1 8.45 845 1.346 -8.351 2.600 11.353 22.858 9.796 -119.922 1094.887 4754.003 -0.478 -1.315 -1.241 0.01 -0.66 0.75 0.06
1 8.46 846 1.097 -8.227 2.605 10.254 24.323 7.324 -134.912 1124.867 4694.042 -0.240 -1.436 -1.216 0.01 -0.66 0.75 0.06
1 8.47 847 0.666 -8.193 2.519 8.514 25.177 5.859 -134.912 1124.867 4694.042 0.176 -1.468 -1.110 0 -0.65 0.75 0.06
1 8.48 848 -0.201 -8.399 2.586 4.517 24.170 3.296 -59.961 1004.945 4694.042 1.021 -1.260 -1.149 0 -0.65 0.75 0.06
1 8.49 849 -0.843 -8.686 2.356 -0.275 21.423 0.854 -14.990 1169.988 4679.052 1.653 -0.972 -0.910 0 -0.65 0.75 0.06
1 8.50 850 -1.053 -9.108 2.322 -7.355 16.419 -0.397 -14.990 1169.988 4679.052 1.850 -0.551 -0.871 -0 -0.65 0.76 0.06
1 8.51 851 -1.288 -9.620 2.279 -9.827 11.627 1.709 0.000 1049.916 4634.081 2.069 -0.041 -0.831 -0 -0.65 0.75 0.06
1 8.52 852 -1.331 -10.118 1.997 -5.219 6.989 6.653 29.980 1004.945 4589.110 2.092 0.455 -0.556 -0 -0.65 0.75 0.06
1 8.53 853 -1.125 -10.128 1.944 1.404 5.554 10.315 -119.922 1064.906 4679.052 1.863 0.462 -0.508 -0 -0.65 0.75 0.06
1 8.54 854 -0.809 -9.908 1.844 8.179 5.676 13.123 -119.922 1064.906 4679.052 1.519 0.240 -0.403 -0 -0.65 0.75 0.06
1 8.55 855 -0.599 -9.802 1.959 11.108 7.019 15.106 -14.990 944.984 4619.091 1.279 0.135 -0.505 -0.01 -0.65 0.76 0.06
1 8.56 856 0.024 -9.797 2.078 5.615 10.956 16.510 119.922 1064.906 4574.120 0.594 0.131 -0.587 -0.01 -0.65 0.76 0.06
1 8.57 857 0.220 -9.927 1.982 1.465 13.580 16.449 119.922 1064.906 4574.120 0.368 0.261 -0.479 -0.01 -0.65 0.76 0.06
1 8.58 858 0.254 -10.008 1.719 2.380 14.526 14.893 104.932 1079.896 4739.013 0.306 0.341 -0.209 -0.01 -0.65 0.76 0.06
1 8.59 859 0.273 -9.975 1.695 5.707 14.526 13.336 104.932 1079.896 4739.013 0.262 0.307 -0.179 -0.01 -0.65 0.76 0.06
1 8.60 860 0.158 -9.587 1.393 13.855 12.665 12.604 44.971 1019.936 4649.071 0.354 -0.080 0.136 -0.01 -0.65 0.76 0.06
1 8.61 861 0.115 -9.304 1.532 16.266 10.223 12.146 44.971 1019.936 4649.071 0.375 -0.360 0.016 -0.01 -0.65 0.76 0.06
1 8.62 862 0.148 -9.137 1.532 11.322 9.430 11.292 134.912 1049.916 4769.143 0.321 -0.525 0.041 -0.02 -0.65 0.76 0.05
1 8.63 863 0.148 -9.223 1.537 4.761 7.813 11.139 104.932 1079.896 4589.110 0.284 -0.436 0.066 -0.02 -0.65 0.76 0.05
1 8.64 864 0.053 -9.314 1.446 0.031 5.371 11.231 104.932 1079.896 4589.110 0.362 -0.345 0.158 -0.02 -0.65 0.76 0.05
1 8.65 865 -0.172 -9.271 1.484 2.960 5.005 11.108 224.854 1064.906 4574.120 0.568 -0.389 0.121 -0.02 -0.65 0.76 0.05
1 8.66 866 -0.421 -9.343 1.547 7.660 2.594 10.834 224.854 1064.906 4574.120 0.797 -0.317 0.063 -0.02 -0.65 0.76 0.05
1 8.67 867 -0.651 -9.371 1.604 9.766 1.434 11.444 299.955 1094.887 4724.022 1.006 -0.287 0.018 -0.02 -0.65 0.76 0.05
1 8.68 868 -0.771 -9.213 1.700 10.162 0.580 11.658 299.955 1094.887 4724.022 1.104 -0.443 -0.062 -0.02 -0.65 0.76 0.05
1 8.69 869 -0.824 -9.237 1.733 10.101 -0.671 11.597 119.922 989.955 4679.052 1.134 -0.417 -0.080 -0.02 -0.64 0.76 0.05
1 8.70 870 -0.690 -9.242 1.710 11.536 -1.129 10.986 134.912 1049.916 4529.000 0.976 -0.411 -0.040 -0.02 -0.64 0.76 0.05
1 8.71 871 -0.532 -9.117 1.528 11.322 -3.662 9.522 134.912 1049.916 4529.000 0.778 -0.530 0.177 -0.02 -0.64 0.76 0.05
1 8.72 872 -0.417 -9.113 1.413 10.071 -6.622 7.935 314.945 1004.945 4694.042 0.647 -0.532 0.308 -0.02 -0.64 0.77 0.05
1 8.73 873 -0.297 -9.060 1.484 9.094 -8.972 6.165 314.945 1004.945 4694.042 0.516 -0.583 0.249 -0.02 -0.64 0.77 0.04
1 8.74 874 -0.072 -9.022 1.341 9.399 -10.864 3.876 119.922 1064.906 4724.022 0.284 -0.619 0.404 -0.02 -0.64 0.77 0.04
1 8.75 875 0.067 -9.199 1.168 8.606 -14.069 2.106 119.922 1064.906 4724.022 0.143 -0.440 0.588 -0.02 -0.64 0.77 0.04
1 8.76 876 -0.014 -9.050 1.264 5.920 -16.846 0.854 179.883 1079.896 4559.130 0.225 -0.587 0.501 -0.02 -0.64 0.77 0.04
1 8.77 877 -0.091 -9.242 1.030 2.563 -18.951 -0.488 29.980 929.994 4559.130 0.304 -0.394 0.743 -0.02 -0.64 0.77 0.04
1 8.78 878 -0.225 -9.266 0.809 1.923 -23.499 -1.709 29.980 929.994 4559.130 0.451 -0.371 0.959 -0.02 -0.64 0.77 0.04
1 8.79 879 -0.254 -9.429 0.910 4.059 -25.421 -1.892 104.932 974.965 4664.062 0.487 -0.208 0.855 -0.01 -0.64 0.77 0.04
1 8.80 880 -0.105 -9.304 0.972 5.859 -27.374 -1.984 104.932 974.965 4664.062 0.348 -0.333 0.792 -0.01 -0.64 0.77 0.04
1 8.81 881 0.096 -9.386 1.202 5.554 -27.100 -3.448 29.980 1079.896 4559.130 0.158 -0.250 0.565 -0.01 -0.64 0.77 0.03
1 8.82 882 0.551 -9.529 1.164 2.960 -25.269 -4.517 14.990 869.883 4499.019 -0.283 -0.106 0.606 -0.01 -0.64 0.77 0.03
1 8.83 883 0.541 -9.491 1.197 2.411 -25.299 -5.310 89.941 1064.906 4439.058 -0.257 -0.144 0.572 -0.01 -0.64 0.77 0.03
1 8.84 884 0.527 -9.496 1.336 3.571 -25.543 -5.951 29.980 1124.867 4529.000 -0.224 -0.139 0.432 -0.01 -0.64 0.77 0.03
1 8.85 885 0.718 -9.788 1.738 3.510 -24.902 -5.463 29.980 1124.867 4529.000 -0.378 0.155 0.032 -0 -0.64 0.77 0.03
1 8.86 886 0.795 -10.070 1.810 1.495 -20.996 -4.028 149.902 1019.936 4544.140 -0.436 0.439 -0.037 0 -0.64 0.77 0.03
1 8.87 887 0.800 -10.123 1.532 0.549 -20.538 -3.693 149.902 1019.936 4544.140 -0.424 0.492 0.241 0 -0.64 0.77 0.03
1 8.88 888 0.728 -9.884 1.221 3.540 -21.942 -2.808 -14.990 1139.857 4574.120 -0.336 0.253 0.551 0 -0.64 0.77 0.03
1 8.89 889 0.833 -9.491 1.365 14.587 -22.461 -1.251 29.980 1079.896 4484.029 -0.426 -0.138 0.410 0.01 -0.64 0.77 0.03
1 8.90 890 0.670 -9.242 1.125 14.465 -20.569 0.305 -14.990 944.984 4439.058 -0.250 -0.384 0.663 0.01 -0.64 0.77 0.03
1 8.91 891 0.436 -9.108 1.346 5.035 -19.104 1.251 -104.932 1079.896 4529.000 -0.005 -0.515 0.460 0.01 -0.64 0.77 0.02
1 8.92 892 0.144 -9.366 1.197 -6.287 -17.151 1.892 -104.932 1079.896 4529.000 0.298 -0.256 0.606 0.01 -0.64 0.77 0.02
1 8.93 893 -0.014 -9.529 0.972 -15.045 -18.219 3.296 -44.971 989.955 4574.120 0.457 -0.098 0.806 0.01 -0.64 0.77 0.02
1 8.94 894 -0.196 -9.754 0.680 -11.871 -18.433 3.784 -44.971 989.955 4574.120 0.636 0.122 1.069 0.01 -0.64 0.77 0.02
1 8.95 895 -0.192 -9.711 0.474 -4.059 -18.341 3.662 -44.971 989.955 4574.120 0.629 0.074 1.250 0.01 -0.64 0.77 0.02
1 8.96 896 -0.412 -9.410 0.412 0.946 -19.165 2.228 -119.922 1094.887 4649.071 0.846 -0.230 1.298 0.01 -0.64 0.77 0.02
1 8.97 897 -0.441 -9.433 0.374 -2.289 -22.308 1.648 -59.961 1079.896 4454.048 0.873 -0.208 1.327 0.01 -0.64 0.77 0.02
1 8.98 898 -0.551 -9.424 0.627 -9.399 -23.132 0.458 -44.971 1019.936 4439.058 0.982 -0.220 1.061 0.02 -0.64 0.77 0.02
1 8.99 899 -0.699 -9.687 1.097 -13.092 -23.895 -0.305 -44.971 1019.936 4439.058 1.131 0.040 0.571 0.02 -0.64 0.76 0.01
1 9.00 900 -0.637 -11.114 2.615 -21.210 -21.484 6.928 -44.971 1139.857 4469.039 1.065 1.459 -0.994 0.02 -0.65 0.76 0.01
1 9.01 901 -0.426 -12.240 2.519 -34.607 -24.597 14.313 -44.971 1139.857 4469.039 0.849 2.578 -0.936 0.02 -0.65 0.76 0.01
1 9.02 902 -0.259 -11.876 2.054 -29.144 -29.938 17.456 -239.994 1004.945 4484.029 0.667 2.204 -0.526 0.02 -0.65 0.76 0.01
1 9.03 903 0.057 -11.100 2.073 3.876 -33.081 17.609 -134.912 974.965 4634.081 0.335 1.423 -0.579 0.02 -0.65 0.76 0.01
1 9.04 904 0.383 -10.578 2.423 32.318 -31.769 19.501 -59.961 1049.916 4484.029 -0.007 0.902 -0.913 0.02 -0.65 0.76 0
1 9.05 905 0.335 -10.161 2.720 21.118 -28.076 18.127 -89.941 944.984 4394.087 0.022 0.492 -1.166 0.02 -0.65 0.76 0
1 9.06 906 0.254 -9.745 2.605 5.493 -27.344 14.526 -89.941 944.984 4394.087 0.084 0.082 -1.008 -0.02 0.65 -0.76 0
1 9.07 907 0.369 -9.769 2.658 -6.592 -25.910 10.040 -29.980 1004.945 4664.062 -0.055 0.109 -1.037 -0.02 0.65 -0.76 0
1 9.08 908 0.287 -10.348 2.902 -11.383 -22.675 7.538 -29.980 1004.945 4664.062 0.020 0.687 -1.286 -0.03 0.65 -0.76 0.01
1 9.09 909 0.259 -11.311 2.461 -21.515 -19.440 7.233 -284.964 1004.945 4529.000 0.046 1.647 -0.863 -0.03 0.65 -0.76 0.01
1 9.10 910 -0.096 -11.349 1.767 -22.705 -18.311 5.524 -59.961 1004.945 4559.130 0.397 1.679 -0.204 -0.03 0.65 -0.76 0.01
1 9.11 911 -0.220 -10.899 1.283 5.829 -18.951 0.854 -89.941 944.984 4439.058 0.521 1.224 0.251 -0.03 0.65 -0.76 0.01
1 9.12 912 -0.354 -10.851 1.666 14.862 -21.210 0.610 -119.922 1139.857 4679.052 0.659 1.177 -0.132 -0.03 0.65 -0.76 0.01
1 9.13 913 -0.354 -10.650 1.949 5.066 -22.247 0.183 -119.922 1139.857 4679.052 0.666 0.979 -0.395 -0.03 0.65 -0.76 0.01
1 9.14 914 -0.091 -10.602 1.781 -8.972 -21.820 -0.397 -194.873 1019.936 4574.120 0.415 0.932 -0.226 -0.03 0.65 -0.76 0.01
1 9.15 915 0.081 -10.415 1.609 -6.165 -17.639 -0.061 -194.873 1019.936 4574.120 0.248 0.742 -0.070 -0.03 0.65 -0.76 0.01
1 9.16 916 0.153 -10.085 1.743 6.714 -15.289 0.336 -179.883 929.994 4559.130 0.180 0.411 -0.210 -0.03 0.65 -0.76 0.01
1 9.17 917 0.244 -9.941 1.882 16.327 -13.031 0.610 -149.902 989.955 4544.140 0.093 0.270 -0.334 -0.03 0.65 -0.76 0.01
1 9.18 918 0.326 -9.433 2.064 11.414 -10.803 0.519 -194.873 1094.887 4679.052 0.015 -0.233 -0.490 -0.03 0.65 -0.76 0.01
1 9.19 919 0.412 -9.271 2.045 4.639 -10.345 -1.221 -134.912 1199.968 4529.000 -0.068 -0.392 -0.449 -0.03 0.65 -0.76 0.01
1 9.20 920 0.536 -9.175 2.117 1.221 -9.216 -2.838 -134.912 1199.968 4529.000 -0.186 -0.486 -0.508 -0.03 0.65 -0.76 0.01
1 9.21 921 0.589 -9.060 2.059 3.876 -9.247 -4.456 -239.994 1079.896 4454.048 -0.229 -0.599 -0.444 -0.04 0.65 -0.76 0.01
1 9.22 922 0.958 -9.108 2.322 8.575 -10.864 -5.310 -239.994 1079.896 4454.048 -0.572 -0.547 -0.684 -0.04 0.64 -0.76 0.01
1 9.23 923 0.919 -9.060 2.322 9.003 -11.719 -5.859 -209.863 1124.867 4559.130 -0.516 -0.590 -0.665 -0.04 0.64 -0.76 0.01
1 9.24 924 0.963 -8.998 2.768 7.874 -12.909 -7.477 -209.863 1004.945 4529.000 -0.540 -0.649 -1.092 -0.04 0.64 -0.77 0.01
1 9.25 925 0.900 -8.955 2.768 8.087 -16.052 -8.698 -404.886 1019.936 4499.019 -0.456 -0.688 -1.073 -0.04 0.64 -0.77 0.01
1 9.26 926 0.828 -8.926 2.825 16.083 -18.189 -7.782 -299.955 1064.906 4499.019 -0.362 -0.712 -1.110 -0.04 0.64 -0.77 0.01
1 9.27 927 1.006 -8.519 2.792 21.332 -19.592 -6.226 -299.955 1064.906 4499.019 -0.517 -1.112 -1.048 -0.04 0.64 -0.77 0.01
1 9.28 928 1.135 -8.418 2.763 22.461 -20.752 -3.845 -224.854 1094.887 4574.120 -0.626 -1.205 -0.982 -0.04 0.64 -0.77 0.01
1 9.29 929 1.235 -8.169 2.677 16.480 -19.684 -1.587 -224.854 1094.887 4574.120 -0.695 -1.439 -0.825 -0.05 0.64 -0.77 0.01
1 9.30 930 1.312 -8.155 2.629 9.399 -18.829 0.885 -209.863 1079.896 4529.000 -0.762 -1.449 -0.757 -0.05 0.63 -0.77 0.01
1 9.31 931 1.302 -8.476 2.696 -0.275 -18.524 2.563 -284.964 1124.867 4409.078 -0.744 -1.125 -0.811 -0.05 0.63 -0.77 0.01
1 9.32 932 1.489 -9.031 2.500 -9.918 -17.242 4.822 -374.906 1019.936 4469.039 -0.921 -0.569 -0.613 -0.05 0.63 -0.77 0.01
1 9.33 933 1.484 -9.462 2.433 -7.507 -16.205 5.310 -284.964 1049.916 4454.048 -0.910 -0.139 -0.555 -0.05 0.63 -0.77 0.01
1 9.34 934 1.528 -9.678 2.351 -2.594 -14.862 3.510 -284.964 1049.916 4454.048 -0.947 0.075 -0.483 -0.05 0.63 -0.77 0.01
1 9.35 935 1.484 -10.003 2.442 1.465 -12.848 1.251 -464.997 1124.867 4529.000 -0.896 0.400 -0.577 -0.05 0.63 -0.77 0.01
1 9.36 936 1.523 -9.754 2.208 4.456 -11.475 -4.364 -464.997 1124.867 4529.000 -0.912 0.154 -0.334 -0.05 0.63 -0.77 0.01
1 9.37 937 1.393 -9.433 1.896 8.087 -11.200 -6.378 -314.945 1049.916 4484.029 -0.763 -0.163 -0.015 -0.05 0.63 -0.77 0.01
1 9.38 938 1.374 -9.184 1.982 8.270 -12.268 -7.904 -374.906 989.955 4649.071 -0.723 -0.409 -0.089 -0.05 0.63 -0.77 0.01
1 9.39 939 1.575 -9.103 1.872 3.326 -12.604 -8.514 -374.906 989.955 4649.071 -0.900 -0.486 0.031 -0.06 0.63 -0.77 0.01
1 9.40 940 1.714 -9.328 1.738 -9.033 -13.519 -9.369 -329.935 944.984 4619.091 -1.013 -0.259 0.166 -0.06 0.63 -0.77 0.01
1 9.41 941 1.714 -9.400 1.666 -11.292 -13.825 -10.040 -329.935 944.984 4619.091 -0.985 -0.188 0.225 -0.06 0.63 -0.77 0.01
1 9.42 942 1.920 -9.668 1.532 -7.324 -13.855 -10.956 -404.886 944.984 4439.058 -1.162 0.078 0.339 -0.06 0.63 -0.77 0.01
1 9.43 943 2.078 -9.505 1.441 -3.174 -13.123 -10.529 -404.886 944.984 4439.058 -1.260 -0.085 0.403 -0.06 0.63 -0.77 0.01
1 9.44 944 2.097 -9.304 1.508 1.343 -12.451 -11.200 -419.876 1004.945 4454.048 -1.248 -0.284 0.331 -0.06 0.63 -0.77 0.01
1 9.45 945 2.035 -9.280 1.566 2.197 -9.552 -11.078 -479.987 989.955 4469.039 -1.155 -0.305 0.273 -0.07 0.63 -0.77 0.01
1 9.46 946 1.796 -9.280 1.566 1.251 -8.362 -10.773 -479.987 989.955 4469.039 -0.886 -0.303 0.273 -0.07 0.63 -0.77 0.01
1 9.47 947 1.810 -9.299 1.508 0.153 -7.813 -9.277 -284.964 974.965 4559.130 -0.873 -0.281 0.329 -0.07 0.63 -0.77 0.01
1 9.48 948 1.657 -9.146 1.537 2.197 -5.402 -7.416 -494.978 1124.867 4484.029 -0.696 -0.432 0.298 -0.07 0.63 -0.77 0.01
1 9.49 949 1.662 -9.184 1.647 4.669 -2.472 -5.829 -494.978 1049.916 4589.110 -0.679 -0.392 0.188 -0.07 0.63 -0.77 0
1 9.50 950 1.532 -9.036 1.537 6.012 0.153 -4.547 -494.978 1049.916 4589.110 -0.532 -0.538 0.302 -0.07 0.63 -0.77 0
1 9.51 951 1.566 -9.050 1.623 2.747 3.662 -2.533 -479.987 944.984 4469.039 -0.539 -0.518 0.229 -0.07 0.63 -0.77 0
1 9.52 952 1.633 -9.065 1.523 -1.404 6.042 -0.549 -749.961 929.994 4454.048 -0.597 -0.502 0.331 -0.07 0.63 -0.77 0
1 9.53 953 1.829 -9.098 1.504 -4.211 9.766 1.221 -749.961 929.994 4454.048 -0.788 -0.469 0.346 -0.07 0.63 -0.77 0
1 9.54 954 1.872 -9.295 1.212 -4.517 12.573 2.563 -449.857 944.984 4649.071 -0.828 -0.274 0.630 -0.07 0.63 -0.77 0
1 9.55 955 2.045 -9.467 1.207 -4.425 14.984 5.890 -449.857 944.984 4649.071 -1.000 -0.103 0.627 0.07 -0.63 0.77 0
1 9.56 956 2.231 -9.568 1.130 -5.829 16.724 7.965 -479.987 1064.906 4469.039 -1.190 -0.004 0.696 0.07 -0.63 0.77 0
1 9.57 957 2.380 -9.510 0.833 -6.653 19.684 9.033 -479.987 1064.906 4469.039 -1.342 -0.064 0.982 0.07 -0.63 0.77 0
1 9.58 958 2.299 -9.371 0.685 -2.228 26.062 10.040 -569.929 974.965 4454.048 -1.275 -0.209 1.107 0.06 -0.64 0.77 0.01
1 9.59 959 1.949 -9.036 0.627 1.740 30.243 9.705 -329.935 989.955 4499.019 -0.936 -0.546 1.159 0.06 -0.64 0.77 0.01
1 9.60 960 1.614 -8.859 0.623 1.160 32.837 9.399 -329.935 989.955 4499.019 -0.614 -0.725 1.163 0.06 -0.64 0.77 0.01
1 9.61 961 1.571 -9.017 0.642 -4.669 33.478 10.254 -479.987 914.854 4364.107 -0.586 -0.569 1.141 0.06 -0.64 0.77 0.01
1 9.62 962 1.547 -9.218 0.603 -14.679 31.250 11.627 -449.857 1019.936 4439.058 -0.579 -0.372 1.167 0.05 -0.64 0.77 0.01
1 9.63 963 1.891 -9.232 0.694 -15.869 30.823 11.322 -359.916 1079.896 4484.029 -0.942 -0.364 1.053 0.05 -0.64 0.77 0.01
1 9.64 964 1.954 -9.520 0.603 -12.543 30.579 12.116 -359.916 1079.896 4484.029 -1.021 -0.083 1.118 0.05 -0.64 0.77 0.01
1 9.65 965 1.480 -9.395 0.814 -6.958 30.487 11.292 -359.916 1079.896 4664.062 -0.578 -0.217 0.869 0.05 -0.64 0.77 0.02
1 9.66 966 1.231 -9.343 0.795 -3.754 28.046 8.850 -389.896 974.965 4409.078 -0.345 -0.273 0.880 0.04 -0.64 0.76 0.02
1 9.67 967 0.718 -9.314 1.010 -5.493 25.574 8.118 -389.896 974.965 4409.078 0.152 -0.304 0.657 0.04 -0.64 0.76 0.02
1 9.68 968 0.412 -9.611 1.259 -7.874 22.003 7.965 -194.873 1019.936 4469.039 0.441 -0.010 0.398 0.04 -0.64 0.76 0.02
1 9.69 969 -0.340 -10.003 1.614 -8.118 12.421 8.606 -329.935 1064.906 4544.140 1.173 0.378 0.032 0.04 -0.64 0.76 0.02
1 9.70 970 -0.412 -10.152 1.733 -5.890 4.059 8.667 -299.955 1094.887 4544.140 1.224 0.523 -0.100 0.04 -0.64 0.76 0.02
1 9.71 971 -0.603 -9.941 1.403 0.000 -3.845 8.423 -299.955 1094.887 4544.140 1.394 0.309 0.222 0.04 -0.64 0.76 0.02
1 9.72 972 -0.230 -8.883 0.690 6.928 -6.622 9.033 -104.932 1004.945 4409.078 0.982 -0.752 0.935 0.03 -0.64 0.76 0.02
1 9.73 973 0.029 -8.251 0.464 9.949 -1.709 8.972 -269.974 1019.936 4334.126 0.710 -1.384 1.171 0.03 -0.64 0.76 0.02
1 9.74 974 0.469 -7.949 0.115 -1.373 16.144 7.324 -269.974 1019.936 4334.126 0.258 -1.684 1.532 0.03 -0.64 0.76 0.02
1 9.75 975 0.608 -8.035 0.053 -21.881 25.421 7.721 -194.873 989.955 4499.019 0.105 -1.600 1.587 0.03 -0.64 0.76 0.02
1 9.76 976 0.800 -9.228 -0.206 -57.251 32.349 6.287 -194.873 1214.958 4544.140 -0.102 -0.415 1.808 0.03 -0.65 0.76 0.02
1 9.77 977 1.312 -10.334 -0.230 -63.721 36.682 5.707 -239.994 1124.867 4559.130 -0.629 0.677 1.752 0.03 -0.65 0.76 0.02
1 9.78 978 2.006 -11.200 -0.254 -49.103 41.199 6.104 -239.994 1124.867 4559.130 -1.335 1.527 1.672 0.03 -0.65 0.76 0.02
1 9.79 979 2.758 -11.751 0.431 -19.135 44.098 5.432 -134.912 1004.945 4559.130 -2.102 2.066 0.912 0.02 -0.66 0.75 0.02
1 9.80 980 3.184 -12.134 1.887 9.399 39.795 -6.622 -119.922 1169.988 4439.058 -2.552 2.443 -0.574 0.02 -0.66 0.75 0.03
1 9.81 981 2.801 -11.421 2.145 3.632 28.351 -21.881 -119.922 1169.988 4439.058 -2.158 1.733 -0.817 0.02 -0.66 0.75 0.03
1 9.82 982 2.567 -10.382 1.628 3.448 18.341 -28.565 -44.971 1169.988 4544.140 -1.891 0.697 -0.293 0.02 -0.66 0.75 0.03
1 9.83 983 1.997 -9.735 1.848 9.216 10.986 -25.482 -104.932 1229.949 4589.110 -1.274 0.055 -0.503 0.02 -0.66 0.75 0.04
1 9.84 984 1.647 -10.367 2.394 -6.531 5.676 -22.980 -44.971 1019.936 4469.039 -0.878 0.693 -1.032 0.02 -0.66 0.75 0.04
1 9.85 985 1.073 -11.268 2.485 -27.771 5.219 -29.236 -44.971 1019.936 4469.039 -0.261 1.597 -1.120 0.02 -0.66 0.75 0.04
1 9.86 986 0.019 -11.770 2.169 -31.494 3.357 -33.569 -224.854 1244.939 4649.071 0.834 2.099 -0.837 0.02 -0.66 0.75 0.04
1 9.87 987 -1.178 -12.077 2.088 -10.620 -0.580 -30.304 -209.863 1079.896 4529.000 2.131 2.405 -0.827 0.02 -0.66 0.75 0.05
1 9.88 988 -1.173 -11.732 2.356 10.895 -4.761 -15.533 -209.863 1079.896 4529.000 2.164 2.065 -1.090 0.03 -0.66 0.75 0.05
1 9.89 989 -0.627 -10.971 2.241 5.249 -0.397 -6.836 -149.902 1064.906 4439.058 1.641 1.308 -0.960 0.03 -0.66 0.75 0.05
1 9.90 990 0.120 -10.846 2.270 -8.637 5.859 -0.641 -269.974 1214.958 4544.140 0.904 1.185 -0.986 0.03 -0.66 0.75 0.05
1 9.91 991 1.111 -11.301 2.485 -23.743 10.773 3.235 -179.883 1274.919 4529.000 -0.087 1.638 -1.218 0.03 -0.66 0.75 0.05
1 9.92 992 1.250 -11.727 2.567 -24.872 13.123 3.296 -179.883 1274.919 4529.000 -0.230 2.059 -1.329 0.03 -0.66 0.75 0.05
1 9.93 993 1.422 -11.780 2.442 -12.665 15.045 6.561 -284.964 1229.949 4559.130 -0.407 2.107 -1.240 0.03 -0.66 0.75 0.05
1 9.94 994 1.408 -10.841 2.461 14.740 18.829 12.573 -194.873 1319.890 4619.091 -0.416 1.164 -1.276 0.02 -0.66 0.75 0.05
1 9.95 995 1.326 -10.013 2.528 24.017 20.233 14.130 -194.873 1319.890 4619.091 -0.356 0.337 -1.314 0.02 -0.66 0.75 0.05
1 9.96 996 1.231 -9.295 2.734 21.790 19.898 14.252 -194.873 1319.890 4619.091 -0.280 -0.377 -1.471 0.02 -0.66 0.75 0.05
1 9.97 997 1.140 -8.873 2.610 12.909 18.494 12.421 -284.964 1274.919 4559.130 -0.209 -0.794 -1.303 0.02 -0.66 0.75 0.05
1 9.98 998 1.226 -8.677 2.667 1.984 16.785 8.881 -119.922 1214.958 4619.091 -0.312 -0.989 -1.332 0.02 -0.66 0.75 0.05
1 9.99 999 1.355 -8.672 2.605 2.045 18.494 7.233 -119.922 1214.958 4619.091 -0.454 -0.992 -1.252 0.02 -0.66 0.75 0.05
1 10.00 1000 1.240 -8.600 2.471 5.280 20.691 6.836 -104.932 1229.949 4559.130 -0.348 -1.063 -1.102 0.02 -0.66 0.75 0.05
1 10.01 1001 0.761 -8.490 2.318 7.874 20.660 5.951 -29.980 1304.900 4454.048 0.122 -1.171 -0.931 0.01 -0.66 0.75 0.05
1 10.02 1002 0.134 -8.356 2.442 9.399 21.942 2.533 -29.980 1304.900 4454.048 0.730 -1.301 -1.017 0.01 -0.65 0.75 0.05
1 10.03 1003 -0.168 -8.452 2.557 7.050 21.057 0.824 -209.863 1424.972 4559.130 1.026 -1.203 -1.116 0.01 -0.65 0.76 0.05
1 10.04 1004 -0.642 -8.725 2.495 0.275 19.989 -0.580 -134.912 1154.848 4559.130 1.489 -0.928 -1.032 0.01 -0.65 0.76 0.06
1 10.05 1005 -0.977 -9.376 2.337 -7.263 17.212 -2.136 -29.980 1274.919 4409.078 1.812 -0.277 -0.865 0.01 -0.65 0.76 0.06
1 10.06 1006 -1.159 -9.797 2.212 -10.162 13.367 -0.671 -29.980 1274.919 4409.078 1.982 0.143 -0.743 0.01 -0.65 0.76 0.06
1 10.07 1007 -1.365 -10.224 2.251 -5.249 11.536 2.747 14.990 1364.861 4499.019 2.174 0.567 -0.789 0.01 -0.65 0.76 0.06
1 10.08 1008 -1.259 -10.353 1.987 1.160 10.162 7.294 -14.990 1319.890 4574.120 2.049 0.694 -0.529 0 -0.65 0.76 0.06
1 10.09 1009 -1.049 -9.932 1.896 13.123 9.186 12.573 -14.990 1319.890 4574.120 1.782 0.271 -0.418 0 -0.65 0.76 0.05
1 10.10 1010 -0.723 -9.505 2.006 14.740 8.911 15.747 59.961 1229.949 4559.130 1.424 -0.153 -0.504 0 -0.65 0.76 0.05
1 10.11 1011 -0.536 -9.343 2.030 8.698 8.270 16.663 29.980 1349.871 4484.029 1.203 -0.315 -0.503 -0 -0.65 0.76 0.05
1 10.12 1012 -0.043 -9.453 1.863 0.732 8.575 17.548 194.873 1169.988 4679.052 0.677 -0.204 -0.321 -0 -0.65 0.76 0.05
1 10.13 1013 0.139 -9.754 1.657 -5.768 9.094 16.480 194.873 1169.988 4679.052 0.465 0.096 -0.113 -0 -0.65 0.76 0.05
1 10.14 1014 0.201 -9.888 1.628 -4.425 9.522 14.343 -59.961 1274.919 4409.078 0.375 0.227 -0.091 -0 -0.65 0.76 0.05
1 10.15 1015 0.321 -9.917 1.623 2.747 10.223 14.252 -29.980 1274.919 4454.048 0.230 0.253 -0.092 -0.01 -0.65 0.76 0.05
1 10.16 1016 0.187 -9.941 1.628 9.735 11.810 15.015 -29.980 1274.919 4454.048 0.316 0.277 -0.083 -0.01 -0.65 0.76 0.05
1 10.17 1017 0.187 -9.611 1.719 10.284 11.780 15.442 -44.971 1244.939 4394.087 0.291 -0.052 -0.157 -0.01 -0.65 0.76 0.05
1 10.18 1018 0.182 -9.381 1.676 8.850 10.651 14.496 14.990 1064.906 4574.120 0.270 -0.281 -0.097 -0.01 -0.65 0.76 0.05
1 10.19 1019 0.187 -9.299 1.647 8.514 10.010 14.496 14.990 1064.906 4574.120 0.242 -0.361 -0.054 -0.01 -0.65 0.76 0.05
1 10.20 1020 -0.053 -9.132 1.863 6.012 8.698 13.977 104.932 1274.919 4484.029 0.459 -0.527 -0.256 -0.01 -0.65 0.76 0.05
1 10.21 1021 -0.192 -9.275 1.829 3.998 8.301 14.526 29.980 1229.949 4379.097 0.575 -0.382 -0.209 -0.01 -0.65 0.76 0.05
1 10.22 1022 -0.321 -9.184 1.868 3.021 7.751 14.282 104.932 1304.900 4484.029 0.679 -0.473 -0.239 -0.01 -0.65 0.76 0.05
1 10.23 1023 -0.393 -9.405 1.777 4.517 7.385 15.595 104.932 1304.900 4484.029 0.726 -0.252 -0.140 -0.02 -0.65 0.76 0.04
