COL1	TIME	ACC_X	ACC_Y	ACC_Z	GYR_X	GYR_Y	GYR_Z	MAG_X	MAG_Y	MAG_Z	LACC_X	LACC_Y	LACC_Z	QUAT_X	QUAT_Y	QUAT_Z	QUAT_W
1 0.00 0 1.183 -9.620 2.299 -1.129 -2.594 1.312 -704.991 -464.997 -3164.888 0.032 0.138 -0.143 -0.11 0.61 -0.78 0.04
1 0.01 1 1.235 -9.558 2.188 -1.068 -2.167 1.404 -704.991 -464.997 -3164.888 -0.021 0.075 -0.033 -0.11 0.61 -0.78 0.04
1 0.02 2 1.192 -9.625 2.217 -1.770 -2.869 1.648 -674.860 -629.890 -3239.989 0.021 0.142 -0.063 -0.11 0.61 -0.78 0.04
1 0.03 3 1.283 -9.596 2.203 -1.770 -2.502 1.495 -674.860 -629.890 -3239.989 -0.070 0.113 -0.050 -0.11 0.61 -0.78 0.04
1 0.04 4 1.259 -9.606 2.227 -0.854 -2.411 1.892 -764.952 -599.909 -3074.947 -0.046 0.122 -0.075 -0.11 0.61 -0.78 0.04
1 0.05 5 1.293 -9.635 2.208 -0.366 -2.045 1.862 -764.952 -599.909 -3074.947 -0.080 0.151 -0.056 -0.11 0.61 -0.78 0.04
1 0.06 6 1.255 -9.644 2.131 -0.397 -2.319 1.465 -674.860 -584.919 -3239.989 -0.043 0.161 0.021 -0.11 0.61 -0.78 0.04
1 0.07 7 1.226 -9.486 2.150 -0.275 -1.953 1.373 -704.991 -659.870 -3164.888 -0.014 0.002 0.002 -0.11 0.61 -0.78 0.04
1 0.08 8 1.293 -9.491 2.251 -0.946 -2.319 1.862 -704.991 -659.870 -3164.888 -0.082 0.007 -0.099 -0.11 0.61 -0.78 0.04
1 0.09 9 1.259 -9.759 2.093 -1.801 -2.136 1.099 -734.971 -644.880 -3254.979 -0.050 0.275 0.059 -0.11 0.61 -0.78 0.04
1 0.10 10 1.235 -9.649 2.102 -1.801 -2.075 1.526 -659.870 -644.880 -3224.999 -0.026 0.164 0.047 -0.11 0.61 -0.78 0.04
1 0.11 11 1.212 -9.644 2.188 -1.404 -1.770 1.221 -674.860 -464.997 -3209.859 -0.003 0.159 -0.041 -0.11 0.61 -0.78 0.04
1 0.12 12 1.346 -9.654 2.193 -0.977 -1.465 1.007 -674.860 -464.997 -3209.859 -0.137 0.168 -0.046 -0.11 0.61 -0.78 0.04
1 0.13 13 1.197 -9.477 2.193 -0.488 -2.258 1.526 -704.991 -659.870 -3239.989 0.012 -0.009 -0.046 -0.11 0.61 -0.78 0.04
1 0.14 14 1.274 -9.726 2.241 -0.549 -2.350 1.190 -779.942 -584.919 -3059.957 -0.066 0.241 -0.093 -0.11 0.61 -0.78 0.04
1 0.15 15 1.259 -9.639 2.136 -0.061 -2.533 1.221 -779.942 -584.919 -3059.957 -0.051 0.155 0.013 -0.11 0.61 -0.78 0.04
1 0.16 16 1.255 -9.611 2.150 -0.916 -2.045 1.495 -690.000 -644.880 -3044.966 -0.047 0.126 -0.000 -0.11 0.61 -0.78 0.04
1 0.17 17 1.221 -9.601 2.217 -1.556 -1.678 1.587 -674.860 -389.896 -3314.940 -0.015 0.116 -0.069 -0.11 0.61 -0.78 0.04
1 0.18 18 1.130 -9.726 2.150 -1.770 -1.648 2.106 -569.929 -434.867 -3209.859 0.076 0.240 -0.003 -0.11 0.61 -0.78 0.04
1 0.19 19 1.216 -9.572 2.136 -1.129 -2.319 1.099 -569.929 -434.867 -3209.859 -0.011 0.086 0.010 -0.11 0.61 -0.78 0.04
1 0.20 20 1.269 -9.548 2.164 -0.732 -2.167 1.343 -764.952 -569.929 -3119.917 -0.063 0.063 -0.019 -0.11 0.61 -0.78 0.04
1 0.21 21 1.231 -9.606 2.270 -0.427 -2.533 1.007 -690.000 -524.958 -3374.901 -0.024 0.120 -0.124 -0.11 0.61 -0.78 0.04
1 0.22 22 1.269 -9.558 2.131 -0.366 -1.648 1.495 -690.000 -524.958 -3374.901 -0.062 0.072 0.015 -0.11 0.61 -0.78 0.04
1 0.23 23 1.322 -9.649 2.107 -1.404 -1.160 0.885 -674.860 -509.968 -3164.888 -0.114 0.163 0.039 -0.11 0.61 -0.78 0.04
1 0.24 24 1.231 -9.601 2.026 -1.953 -1.862 1.007 -704.991 -629.890 -3209.859 -0.022 0.115 0.119 -0.11 0.61 -0.78 0.04
1 0.25 25 1.226 -9.673 2.193 -1.465 -1.740 1.770 -614.899 -569.929 -3224.999 -0.017 0.187 -0.051 -0.11 0.61 -0.78 0.04
1 0.26 26 1.413 -9.711 2.231 -1.556 -1.648 0.793 -614.899 -569.929 -3224.999 -0.204 0.225 -0.091 -0.11 0.61 -0.78 0.04
1 0.27 27 1.360 -9.663 2.208 -0.488 -0.916 1.282 -824.913 -584.919 -3104.927 -0.151 0.177 -0.067 -0.11 0.61 -0.78 0.04
1 0.28 28 1.365 -9.611 2.112 -0.336 -0.732 1.129 -674.860 -584.919 -3209.859 -0.155 0.124 0.029 -0.11 0.61 -0.78 0.04
1 0.29 29 1.279 -9.510 2.078 0.366 -0.427 0.641 -674.860 -584.919 -3209.859 -0.068 0.024 0.063 -0.11 0.61 -0.78 0.04
1 0.30 30 1.235 -9.510 2.088 -0.153 -1.007 1.648 -704.991 -584.919 -3284.960 -0.025 0.024 0.054 -0.11 0.61 -0.78 0.04
1 0.31 31 1.336 -9.553 2.002 -1.007 -1.007 1.038 -704.991 -704.991 -3164.888 -0.125 0.067 0.139 -0.11 0.61 -0.78 0.04
1 0.32 32 1.312 -9.654 2.222 -1.068 -1.282 0.519 -749.961 -539.948 -3164.888 -0.100 0.167 -0.083 -0.11 0.61 -0.78 0.04
1 0.33 33 1.140 -9.654 2.112 -1.251 -0.946 0.519 -749.961 -539.948 -3164.888 0.072 0.167 0.028 -0.11 0.61 -0.78 0.04
1 0.34 34 1.216 -9.620 2.093 -1.129 -0.366 1.160 -690.000 -569.929 -3254.979 -0.005 0.134 0.047 -0.11 0.61 -0.78 0.04
1 0.35 35 1.307 -9.601 2.160 0.305 -1.190 1.007 -824.913 -629.890 -3314.940 -0.096 0.114 -0.021 -0.11 0.61 -0.78 0.04
1 0.36 36 1.221 -9.481 2.222 1.190 -1.434 0.244 -824.913 -629.890 -3314.940 -0.009 -0.005 -0.082 -0.11 0.61 -0.78 0.04
1 0.37 37 1.216 -9.529 2.227 -0.122 -0.916 0.580 -629.890 -584.919 -3104.927 -0.004 0.043 -0.084 -0.11 0.61 -0.78 0.04
1 0.38 38 1.159 -9.568 2.155 -1.129 -0.580 1.190 -779.942 -659.870 -3209.859 0.054 0.082 -0.012 -0.11 0.61 -0.78 0.04
1 0.39 39 1.274 -9.529 2.212 -2.350 -1.007 1.129 -749.961 -629.890 -3059.957 -0.061 0.044 -0.070 -0.11 0.61 -0.78 0.04
1 0.40 40 1.226 -9.668 2.313 -1.465 -0.793 1.678 -749.961 -629.890 -3059.957 -0.013 0.182 -0.171 -0.11 0.61 -0.78 0.04
1 0.41 41 1.183 -9.587 2.236 -1.404 -1.617 1.160 -734.971 -599.909 -3149.898 0.030 0.101 -0.094 -0.11 0.61 -0.78 0.04
1 0.42 42 1.288 -9.539 2.179 -0.549 -1.465 0.610 -839.903 -599.909 -3254.979 -0.076 0.053 -0.036 -0.11 0.61 -0.78 0.04
1 0.43 43 1.231 -9.577 2.126 -0.702 -0.946 0.671 -839.903 -599.909 -3254.979 -0.018 0.092 0.017 -0.11 0.61 -0.78 0.04
1 0.44 44 1.259 -9.572 2.198 -0.732 -0.671 0.793 -824.913 -539.948 -3164.888 -0.047 0.087 -0.054 -0.11 0.61 -0.78 0.04
1 0.45 45 1.288 -9.501 2.198 -1.129 -0.824 1.465 -614.899 -569.929 -3224.999 -0.075 0.015 -0.054 -0.11 0.61 -0.78 0.04
1 0.46 46 1.235 -9.596 2.174 -1.251 0.153 1.617 -674.860 -659.870 -3314.940 -0.022 0.111 -0.030 -0.11 0.61 -0.78 0.04
1 0.47 47 1.183 -9.596 2.112 -1.068 -0.305 1.190 -674.860 -659.870 -3314.940 0.031 0.111 0.032 -0.11 0.61 -0.78 0.04
1 0.48 48 1.173 -9.544 2.231 -0.244 0.122 0.519 -749.961 -434.867 -3239.989 0.040 0.058 -0.088 -0.11 0.61 -0.78 0.04
1 0.49 49 1.144 -9.601 2.145 -0.244 -0.153 0.366 -704.991 -584.919 -3239.989 0.068 0.116 -0.001 -0.11 0.61 -0.78 0.04
1 0.50 50 1.212 -9.520 2.155 -0.214 -0.397 0.763 -704.991 -584.919 -3239.989 0.001 0.034 -0.011 -0.11 0.61 -0.78 0.04
1 0.51 51 1.235 -9.548 2.251 -0.336 -0.458 1.160 -734.971 -569.929 -3194.869 -0.023 0.063 -0.107 -0.11 0.61 -0.78 0.04
1 0.52 52 1.073 -9.668 2.073 -1.495 -0.671 0.366 -734.971 -674.860 -3224.999 0.140 0.183 0.070 -0.11 0.61 -0.78 0.04
1 0.53 53 1.216 -9.577 2.299 -1.160 -0.641 0.946 -734.971 -674.860 -3224.999 -0.004 0.092 -0.154 -0.11 0.61 -0.78 0.04
1 0.54 54 1.235 -9.601 2.231 -0.488 -0.793 0.488 -734.971 -374.906 -3194.869 -0.024 0.116 -0.087 -0.11 0.61 -0.78 0.04
1 0.55 55 1.192 -9.606 2.164 -0.183 -0.580 0.916 -749.961 -584.919 -3164.888 0.019 0.120 -0.020 -0.11 0.61 -0.78 0.04
1 0.56 56 1.226 -9.477 2.198 -0.641 -0.305 0.610 -704.991 -629.890 -3209.859 -0.014 -0.009 -0.053 -0.11 0.61 -0.78 0.04
1 0.57 57 1.164 -9.553 2.140 -0.702 -0.183 0.793 -704.991 -629.890 -3209.859 0.048 0.068 0.005 -0.11 0.61 -0.78 0.04
1 0.58 58 1.192 -9.544 2.231 -1.251 -0.275 0.946 -524.958 -434.867 -3239.989 0.019 0.058 -0.086 -0.11 0.61 -0.78 0.04
1 0.59 59 1.221 -9.639 2.289 -1.373 -0.519 1.099 -854.893 -659.870 -3239.989 -0.010 0.154 -0.143 -0.11 0.61 -0.78 0.04
1 0.60 60 1.135 -9.649 2.193 -0.916 -0.824 1.465 -854.893 -659.870 -3239.989 0.076 0.164 -0.047 -0.11 0.61 -0.78 0.04
1 0.61 61 1.188 -9.615 2.313 -0.610 -0.061 1.038 -539.948 -644.880 -3254.979 0.022 0.130 -0.166 -0.11 0.61 -0.78 0.04
1 0.62 62 1.240 -9.697 2.140 -0.488 -0.671 1.038 -704.991 -629.890 -3104.927 -0.031 0.212 0.007 -0.11 0.61 -0.78 0.04
1 0.63 63 1.197 -9.611 2.251 -0.793 -0.641 0.854 -734.971 -599.909 -3194.869 0.012 0.126 -0.104 -0.11 0.61 -0.78 0.04
1 0.64 64 1.307 -9.587 2.198 -1.129 -0.702 0.732 -734.971 -599.909 -3194.869 -0.098 0.102 -0.050 -0.11 0.61 -0.78 0.04
1 0.65 65 1.173 -9.563 2.179 -1.129 -0.427 0.153 -749.961 -629.890 -3284.960 0.037 0.078 -0.031 -0.11 0.61 -0.78 0.04
1 0.66 66 1.240 -9.548 2.279 -0.580 -0.366 0.824 -614.899 -599.909 -3194.869 -0.030 0.064 -0.131 -0.11 0.61 -0.78 0.04
1 0.67 67 1.245 -9.673 2.169 -0.275 -0.031 0.732 -614.899 -599.909 -3194.869 -0.035 0.188 -0.021 -0.11 0.61 -0.78 0.04
1 0.68 68 1.255 -9.659 2.117 -0.275 -0.397 1.038 -734.971 -569.929 -3224.999 -0.045 0.174 0.032 -0.11 0.61 -0.78 0.04
1 0.69 69 1.245 -9.558 2.179 -0.366 -0.305 0.519 -794.932 -644.880 -3299.950 -0.035 0.073 -0.031 -0.11 0.61 -0.78 0.04
1 0.70 70 1.231 -9.596 2.251 -1.129 -0.092 0.610 -839.903 -599.909 -3254.979 -0.020 0.112 -0.102 -0.11 0.61 -0.78 0.04
1 0.71 71 1.226 -9.539 2.212 -0.549 0.031 1.129 -839.903 -599.909 -3254.979 -0.015 0.054 -0.063 -0.11 0.61 -0.78 0.04
1 0.72 72 1.178 -9.529 2.198 -0.031 -0.488 1.343 -734.971 -524.958 -3224.999 0.033 0.045 -0.049 -0.11 0.61 -0.78 0.04
1 0.73 73 1.149 -9.644 2.342 -0.580 -0.214 1.221 -704.991 -779.942 -3284.960 0.061 0.160 -0.193 -0.11 0.61 -0.78 0.04
1 0.74 74 1.269 -9.510 2.327 -0.946 -0.397 0.488 -704.991 -779.942 -3284.960 -0.059 0.026 -0.178 -0.11 0.61 -0.78 0.04
1 0.75 75 1.379 -9.635 2.260 -0.977 -0.427 0.671 -614.899 -494.978 -3224.999 -0.169 0.150 -0.110 -0.11 0.61 -0.78 0.04
1 0.76 76 1.226 -9.587 2.203 -0.702 -0.488 0.366 -569.929 -704.991 -3209.859 -0.016 0.103 -0.052 -0.11 0.61 -0.78 0.04
1 0.77 77 1.149 -9.644 2.198 0.031 -0.336 0.793 -914.854 -449.857 -3074.947 0.061 0.160 -0.047 -0.11 0.61 -0.78 0.04
1 0.78 78 1.283 -9.582 2.217 -0.153 -0.153 0.641 -914.854 -449.857 -3074.947 -0.074 0.098 -0.066 -0.11 0.61 -0.78 0.04
1 0.79 79 1.226 -9.529 2.193 -0.122 -0.366 1.099 -674.860 -434.867 -3134.908 -0.016 0.045 -0.042 -0.11 0.61 -0.78 0.04
1 0.80 80 1.168 -9.515 2.198 -0.549 -0.671 1.221 -779.942 -734.971 -3284.960 0.041 0.031 -0.046 -0.11 0.61 -0.78 0.04
1 0.81 81 1.274 -9.620 2.303 -0.763 -0.977 0.458 -779.942 -734.971 -3284.960 -0.064 0.136 -0.151 -0.11 0.61 -0.78 0.04
1 0.82 82 1.322 -9.534 2.126 -0.488 -0.519 0.763 -749.961 -629.890 -3164.888 -0.112 0.050 0.027 -0.11 0.61 -0.78 0.04
1 0.83 83 1.231 -9.596 2.107 -0.153 -0.824 0.824 -629.890 -509.968 -3239.989 -0.020 0.113 0.046 -0.11 0.61 -0.78 0.04
1 0.84 84 1.288 -9.582 2.241 -0.519 -0.244 0.610 -779.942 -539.948 -3239.989 -0.077 0.098 -0.088 -0.11 0.61 -0.78 0.04
1 0.85 85 1.231 -9.592 2.102 -0.824 0.488 0.580 -779.942 -539.948 -3239.989 -0.019 0.108 0.052 -0.11 0.61 -0.78 0.04
1 0.86 86 1.298 -9.563 2.284 -0.977 0.183 0.244 -690.000 -599.909 -3299.950 -0.086 0.080 -0.131 -0.11 0.61 -0.78 0.04
1 0.87 87 1.159 -9.486 2.222 -0.610 -0.244 0.458 -839.903 -674.860 -3224.999 0.054 0.003 -0.068 -0.11 0.61 -0.78 0.04
1 0.88 88 1.240 -9.611 2.102 -0.305 0.183 0.366 -839.903 -674.860 -3224.999 -0.028 0.128 0.052 -0.11 0.61 -0.78 0.04
1 0.89 89 1.317 -9.592 2.260 -0.977 -0.153 0.854 -659.870 -599.909 -3149.898 -0.105 0.109 -0.105 -0.11 0.61 -0.78 0.04
1 0.90 90 1.293 -9.639 2.284 -0.427 -0.427 0.763 -629.890 -584.919 -3104.927 -0.080 0.156 -0.129 -0.11 0.61 -0.78 0.04
1 0.91 91 1.322 -9.611 2.275 -0.214 -0.366 1.099 -764.952 -524.958 -3119.917 -0.108 0.128 -0.119 -0.11 0.61 -0.78 0.04
1 0.92 92 1.293 -9.544 2.150 0.061 -0.183 0.732 -764.952 -524.958 -3119.917 -0.079 0.061 0.006 -0.11 0.61 -0.78 0.04
1 0.93 93 1.302 -9.539 2.289 -0.427 -0.122 1.007 -749.961 -629.890 -3059.957 -0.089 0.056 -0.133 -0.11 0.61 -0.78 0.04
1 0.94 94 1.164 -9.515 2.179 -0.336 0.031 0.610 -704.991 -629.890 -3209.859 0.051 0.033 -0.022 -0.11 0.61 -0.78 0.04
1 0.95 95 1.197 -9.558 2.222 -0.275 -0.061 0.641 -704.991 -629.890 -3209.859 0.017 0.076 -0.064 -0.11 0.61 -0.78 0.04
1 0.96 96 1.259 -9.692 2.217 -0.763 0.336 0.000 -734.971 -569.929 -3254.979 -0.045 0.210 -0.059 -0.11 0.61 -0.78 0.04
1 0.97 97 1.202 -9.534 2.308 -1.709 0.031 1.282 -734.971 -569.929 -3254.979 0.013 0.052 -0.149 -0.11 0.61 -0.78 0.04
1 0.98 98 1.250 -9.673 2.308 -1.038 0.214 1.007 -584.919 -569.929 -3194.869 -0.034 0.191 -0.149 -0.11 0.61 -0.78 0.04
1 0.99 99 1.212 -9.697 2.217 -0.275 0.336 1.129 -584.919 -569.929 -3194.869 0.004 0.216 -0.056 -0.11 0.61 -0.78 0.04
1 1.00 100 1.245 -9.706 2.184 0.885 0.397 0.702 -764.952 -644.880 -3194.869 -0.030 0.226 -0.022 -0.11 0.61 -0.78 0.04
1 1.01 101 1.173 -9.630 2.217 0.732 0.183 0.702 -764.952 -599.909 -3254.979 0.042 0.150 -0.052 -0.11 0.61 -0.78 0.04
1 1.02 102 1.034 -9.587 2.155 0.275 -0.031 0.641 -764.952 -599.909 -3254.979 0.180 0.107 0.012 -0.11 0.61 -0.78 0.04
1 1.03 103 1.106 -9.568 2.251 0.397 0.000 0.854 -659.870 -599.909 -3224.999 0.108 0.088 -0.083 -0.11 0.61 -0.78 0.04
1 1.04 104 1.226 -9.505 2.251 0.732 -0.488 0.824 -659.870 -599.909 -3224.999 -0.013 0.026 -0.081 -0.11 0.61 -0.78 0.04
1 1.05 105 1.116 -9.601 2.241 0.214 -0.702 1.129 -764.952 -524.958 -3119.917 0.097 0.122 -0.069 -0.11 0.61 -0.78 0.04
1 1.06 106 1.144 -9.520 2.303 0.397 -1.282 0.977 -764.952 -524.958 -3119.917 0.068 0.041 -0.130 -0.11 0.61 -0.78 0.04
1 1.07 107 1.116 -9.505 2.246 0.580 -1.373 1.007 -629.890 -584.919 -3239.989 0.096 0.027 -0.071 -0.11 0.61 -0.78 0.04
1 1.08 108 1.188 -9.606 2.217 0.092 -1.892 0.854 -764.952 -569.929 -3299.950 0.024 0.128 -0.040 -0.11 0.61 -0.78 0.04
1 1.09 109 1.279 -9.577 2.279 0.366 -2.289 1.007 -764.952 -569.929 -3299.950 -0.067 0.099 -0.101 -0.11 0.61 -0.78 0.04
1 1.10 110 1.140 -9.544 2.299 -0.061 -1.404 1.373 -779.942 -539.948 -3239.989 0.072 0.066 -0.118 -0.11 0.61 -0.78 0.04
1 1.11 111 1.374 -9.386 2.260 0.397 -0.671 1.404 -779.942 -539.948 -3239.989 -0.162 -0.092 -0.080 -0.11 0.61 -0.78 0.04
1 1.12 112 1.259 -9.659 2.327 0.214 -0.763 1.617 -749.961 -539.948 -3284.960 -0.048 0.182 -0.145 -0.11 0.61 -0.78 0.04
1 1.13 113 1.250 -9.553 2.303 -0.427 -0.610 0.885 -749.961 -539.948 -3284.960 -0.038 0.077 -0.120 -0.11 0.61 -0.78 0.04
1 1.14 114 1.255 -9.615 2.313 -0.061 -1.312 1.190 -659.870 -644.880 -3224.999 -0.043 0.139 -0.129 -0.11 0.61 -0.78 0.04
1 1.15 115 1.240 -9.563 2.251 -0.122 -0.946 0.946 -734.971 -599.909 -3299.950 -0.028 0.087 -0.066 -0.11 0.61 -0.78 0.04
1 1.16 116 1.283 -9.592 2.346 -0.214 0.031 1.373 -734.971 -599.909 -3299.950 -0.071 0.115 -0.161 -0.11 0.61 -0.78 0.04
1 1.17 117 1.350 -9.462 2.322 -0.031 -0.183 1.648 -749.961 -629.890 -3284.960 -0.138 -0.014 -0.137 -0.11 0.61 -0.78 0.04
1 1.18 118 1.135 -9.520 2.188 -1.129 0.061 2.136 -749.961 -629.890 -3284.960 0.078 0.044 -0.002 -0.11 0.61 -0.78 0.04
1 1.19 119 1.293 -9.572 2.318 -0.458 -0.305 0.916 -779.942 -509.968 -3134.908 -0.081 0.097 -0.130 -0.11 0.61 -0.78 0.04
1 1.20 120 1.202 -9.424 2.260 -0.854 -0.519 0.183 -659.870 -569.929 -3149.898 0.010 -0.051 -0.072 -0.11 0.61 -0.78 0.04
1 1.21 121 1.245 -9.544 2.346 -0.732 0.031 0.122 -674.860 -659.870 -3239.989 -0.033 0.068 -0.157 -0.11 0.61 -0.78 0.04
1 1.22 122 1.312 -9.625 2.418 -0.488 -0.183 0.885 -764.952 -569.929 -3299.950 -0.100 0.150 -0.229 -0.11 0.61 -0.78 0.04
1 1.23 123 1.216 -9.520 2.284 -0.977 -0.031 -0.153 -764.952 -569.929 -3299.950 -0.004 0.045 -0.094 -0.11 0.61 -0.78 0.04
1 1.24 124 1.197 -9.481 2.246 -0.946 0.122 0.763 -749.961 -659.870 -3104.927 0.015 0.007 -0.054 -0.11 0.61 -0.78 0.04
1 1.25 125 1.202 -9.453 2.366 -0.610 -0.885 0.183 -749.961 -659.870 -3104.927 0.010 -0.022 -0.173 -0.11 0.61 -0.78 0.04
1 1.26 126 1.317 -9.433 2.342 -0.824 -0.641 0.183 -674.860 -659.870 -3239.989 -0.105 -0.041 -0.149 -0.11 0.61 -0.78 0.04
1 1.27 127 1.298 -9.481 2.217 -0.671 -1.221 0.580 -690.000 -719.981 -3224.999 -0.086 0.007 -0.023 -0.11 0.61 -0.78 0.04
1 1.28 128 1.231 -9.491 2.251 -1.434 -1.282 -0.031 -674.860 -509.968 -3314.940 -0.019 0.017 -0.055 -0.11 0.61 -0.78 0.04
1 1.29 129 1.393 -9.611 2.356 -1.434 -1.099 0.977 -659.870 -494.978 -3254.979 -0.181 0.137 -0.161 -0.11 0.61 -0.78 0.04
1 1.30 130 1.355 -9.534 2.294 -0.946 -0.427 1.190 -659.870 -494.978 -3254.979 -0.142 0.061 -0.098 -0.11 0.61 -0.78 0.04
1 1.31 131 1.235 -9.649 2.327 -0.977 -0.885 0.000 -674.860 -584.919 -3059.957 -0.022 0.176 -0.131 -0.11 0.61 -0.78 0.04
1 1.32 132 1.298 -9.673 2.327 -0.916 0.092 0.397 -674.860 -584.919 -3059.957 -0.084 0.200 -0.131 -0.11 0.61 -0.78 0.04
1 1.33 133 1.274 -9.524 2.231 -0.671 0.549 0.824 -614.899 -674.860 -3149.898 -0.059 0.052 -0.034 -0.11 0.61 -0.78 0.04
1 1.34 134 1.231 -9.587 2.313 0.153 0.214 1.007 -749.961 -629.890 -3104.927 -0.015 0.115 -0.113 -0.11 0.61 -0.78 0.04
1 1.35 135 1.259 -9.496 2.342 -0.610 -0.031 0.519 -599.909 -584.919 -3419.872 -0.044 0.024 -0.140 -0.11 0.61 -0.78 0.04
1 1.36 136 1.250 -9.481 2.308 -0.885 -0.610 0.641 -629.890 -539.948 -3284.960 -0.034 0.010 -0.105 -0.11 0.61 -0.78 0.04
1 1.37 137 1.336 -9.601 2.413 -1.068 -0.610 0.763 -629.890 -539.948 -3284.960 -0.120 0.130 -0.210 -0.11 0.61 -0.78 0.04
1 1.38 138 1.264 -9.572 2.299 -0.793 -0.519 1.160 -734.971 -569.929 -3224.999 -0.048 0.101 -0.094 -0.11 0.61 -0.78 0.04
1 1.39 139 1.250 -9.467 2.342 -0.702 0.610 0.488 -734.971 -569.929 -3224.999 -0.033 -0.004 -0.137 -0.11 0.61 -0.78 0.04
1 1.40 140 1.192 -9.486 2.370 -0.275 0.519 0.153 -614.899 -494.978 -3224.999 0.025 0.016 -0.165 -0.11 0.61 -0.78 0.04
1 1.41 141 1.403 -9.553 2.409 0.153 0.031 0.519 -734.971 -569.929 -3299.950 -0.185 0.083 -0.201 -0.11 0.61 -0.78 0.04
1 1.42 142 1.331 -9.515 2.346 -0.244 0.305 0.427 -779.942 -659.870 -3239.989 -0.113 0.046 -0.135 -0.11 0.61 -0.78 0.04
1 1.43 143 1.264 -9.539 2.370 -0.488 0.366 0.946 -704.991 -629.890 -3359.911 -0.045 0.070 -0.158 -0.11 0.61 -0.78 0.04
1 1.44 144 1.341 -9.443 2.389 -0.153 0.732 0.885 -704.991 -629.890 -3359.911 -0.121 -0.026 -0.177 -0.11 0.61 -0.78 0.04
1 1.45 145 1.173 -9.558 2.342 -0.580 0.244 0.916 -690.000 -599.909 -3224.999 0.046 0.090 -0.126 -0.11 0.61 -0.78 0.04
1 1.46 146 1.154 -9.510 2.452 -0.458 0.427 0.671 -690.000 -599.909 -3224.999 0.065 0.042 -0.235 -0.11 0.61 -0.78 0.04
1 1.47 147 1.202 -9.544 2.327 -0.458 0.854 0.122 -690.000 -569.929 -3374.901 0.017 0.076 -0.109 -0.11 0.61 -0.78 0.04
1 1.48 148 1.298 -9.615 2.404 -0.519 0.153 0.275 -659.870 -644.880 -3254.979 -0.079 0.148 -0.185 -0.11 0.61 -0.78 0.04
1 1.49 149 1.293 -9.601 2.385 0.275 -0.397 0.305 -690.000 -524.958 -3254.979 -0.073 0.135 -0.163 -0.11 0.61 -0.78 0.04
1 1.50 150 1.360 -9.496 2.284 0.061 -0.397 -0.061 -704.991 -734.971 -3284.960 -0.140 0.030 -0.060 -0.11 0.61 -0.78 0.04
1 1.51 151 1.408 -9.620 2.452 -0.793 -0.061 0.610 -704.991 -734.971 -3284.960 -0.186 0.155 -0.227 -0.11 0.61 -0.78 0.04
1 1.52 152 1.279 -9.587 2.332 -0.488 0.397 0.275 -779.942 -629.890 -3359.911 -0.056 0.122 -0.106 -0.11 0.61 -0.78 0.04
1 1.53 153 1.245 -9.635 2.322 0.000 0.610 0.854 -779.942 -629.890 -3359.911 -0.022 0.170 -0.095 -0.11 0.61 -0.78 0.04
1 1.54 154 1.240 -9.462 2.346 0.092 0.702 0.610 -734.971 -569.929 -3299.950 -0.017 -0.002 -0.117 -0.11 0.61 -0.78 0.04
1 1.55 155 1.159 -9.582 2.241 0.488 0.824 1.038 -629.890 -629.890 -3209.859 0.064 0.118 -0.010 -0.11 0.61 -0.78 0.04
1 1.56 156 1.144 -9.524 2.370 0.244 -0.519 1.190 -584.919 -674.860 -3224.999 0.078 0.061 -0.135 -0.11 0.61 -0.78 0.04
1 1.57 157 1.346 -9.548 2.380 0.519 -0.763 0.732 -659.870 -674.860 -3254.979 -0.124 0.085 -0.144 -0.11 0.61 -0.78 0.04
1 1.58 158 1.235 -9.539 2.399 0.366 -0.458 0.732 -659.870 -674.860 -3254.979 -0.014 0.076 -0.163 -0.11 0.61 -0.78 0.04
1 1.59 159 1.398 -9.376 2.466 0.916 -0.061 0.702 -764.952 -674.860 -3329.931 -0.177 -0.087 -0.230 -0.11 0.61 -0.78 0.04
1 1.60 160 1.312 -9.462 2.217 1.160 0.305 0.549 -764.952 -674.860 -3329.931 -0.090 0.000 0.023 -0.11 0.61 -0.78 0.04
1 1.61 161 1.302 -9.381 2.337 -0.366 0.580 1.099 -854.893 -539.948 -3164.888 -0.080 -0.080 -0.093 -0.11 0.61 -0.78 0.04
1 1.62 162 1.269 -9.524 2.437 -0.671 0.183 0.671 -839.903 -674.860 -3149.898 -0.047 0.064 -0.192 -0.11 0.61 -0.78 0.04
1 1.63 163 1.269 -9.467 2.299 -0.519 0.275 0.763 -839.903 -674.860 -3149.898 -0.047 0.007 -0.051 -0.11 0.61 -0.78 0.04
1 1.64 164 1.255 -9.467 2.366 -0.183 0.427 0.916 -659.870 -599.909 -3224.999 -0.033 0.007 -0.117 -0.11 0.61 -0.78 0.04
1 1.65 165 1.307 -9.577 2.375 -0.580 0.366 0.336 -659.870 -599.909 -3224.999 -0.085 0.117 -0.125 -0.11 0.61 -0.78 0.04
1 1.66 166 1.274 -9.596 2.418 -0.244 -0.153 0.366 -734.971 -749.961 -3299.950 -0.052 0.137 -0.167 -0.11 0.61 -0.78 0.04
1 1.67 167 1.125 -9.558 2.342 -1.160 0.458 0.824 -734.971 -749.961 -3299.950 0.097 0.099 -0.090 -0.11 0.61 -0.78 0.04
1 1.68 168 1.144 -9.659 2.385 -1.373 0.427 1.343 -779.942 -509.968 -3164.888 0.077 0.199 -0.133 -0.11 0.61 -0.78 0.04
1 1.69 169 1.183 -9.577 2.409 -0.916 -0.092 0.336 -690.000 -494.978 -3254.979 0.039 0.118 -0.156 -0.11 0.61 -0.78 0.04
1 1.70 170 1.298 -9.462 2.332 -0.885 -0.641 0.763 -690.000 -494.978 -3254.979 -0.076 0.003 -0.079 -0.11 0.61 -0.78 0.04
1 1.71 171 1.168 -9.544 2.265 -0.031 0.336 0.183 -704.991 -734.971 -3359.911 0.055 0.085 -0.010 -0.11 0.61 -0.78 0.04
1 1.72 172 1.125 -9.457 2.303 -1.068 0.580 0.732 -704.991 -734.971 -3359.911 0.099 -0.000 -0.046 -0.11 0.61 -0.78 0.04
1 1.73 173 1.216 -9.587 2.270 -0.702 0.275 0.580 -704.991 -584.919 -3314.940 0.008 0.129 -0.012 -0.11 0.61 -0.78 0.04
1 1.74 174 1.058 -9.501 2.342 -0.793 -0.641 0.702 -704.991 -584.919 -3314.940 0.166 0.043 -0.084 -0.11 0.61 -0.78 0.04
1 1.75 175 1.183 -9.620 2.217 -0.183 -0.641 1.190 -749.961 -659.870 -3389.892 0.041 0.163 0.041 -0.11 0.61 -0.78 0.04
1 1.76 176 1.370 -9.520 2.346 -0.488 -1.099 0.671 -794.932 -599.909 -3299.950 -0.147 0.062 -0.089 -0.11 0.61 -0.78 0.04
1 1.77 177 1.183 -9.649 2.418 -0.641 -0.702 0.854 -794.932 -599.909 -3299.950 0.040 0.192 -0.160 -0.11 0.61 -0.78 0.04
1 1.78 178 1.216 -9.568 2.385 0.854 -1.801 1.251 -629.890 -434.867 -3239.989 0.007 0.110 -0.125 -0.11 0.61 -0.78 0.04
1 1.79 179 1.140 -9.558 2.480 0.641 -1.831 1.099 -629.890 -434.867 -3239.989 0.083 0.101 -0.219 -0.11 0.61 -0.78 0.04
1 1.80 180 1.245 -9.515 2.308 0.061 -2.350 1.007 -794.932 -719.981 -3374.901 -0.023 0.059 -0.043 -0.11 0.61 -0.78 0.04
1 1.81 181 1.298 -9.400 2.433 -1.068 -1.587 0.885 -794.932 -719.981 -3374.901 -0.075 -0.056 -0.166 -0.11 0.61 -0.78 0.04
1 1.82 182 1.197 -9.553 2.342 -1.099 -0.885 0.763 -690.000 -599.909 -3299.950 0.026 0.098 -0.074 -0.11 0.61 -0.78 0.04
1 1.83 183 1.173 -9.544 2.375 -1.343 -0.336 1.495 -690.000 -599.909 -3194.869 0.050 0.089 -0.107 -0.11 0.61 -0.78 0.04
1 1.84 184 1.168 -9.505 2.437 -1.190 -0.061 1.740 -690.000 -599.909 -3194.869 0.055 0.051 -0.168 -0.11 0.61 -0.78 0.04
1 1.85 185 1.116 -9.611 2.452 -1.038 -0.854 1.495 -674.860 -539.948 -3209.859 0.107 0.156 -0.181 -0.11 0.61 -0.78 0.04
1 1.86 186 1.212 -9.467 2.260 -0.763 -1.831 1.190 -764.952 -599.909 -3224.999 0.010 0.013 0.012 -0.11 0.61 -0.78 0.04
1 1.87 187 1.144 -9.582 2.366 -1.251 -2.258 0.854 -629.890 -509.968 -3209.859 0.077 0.127 -0.094 -0.11 0.61 -0.78 0.04
1 1.88 188 1.015 -9.630 2.294 -1.007 -2.594 1.007 -629.890 -509.968 -3209.859 0.205 0.175 -0.023 -0.11 0.61 -0.78 0.04
1 1.89 189 1.212 -9.611 2.356 -0.519 -2.502 1.343 -584.919 -719.981 -3224.999 0.009 0.156 -0.086 -0.11 0.61 -0.78 0.04
1 1.90 190 1.144 -9.524 2.409 -1.251 -2.472 1.587 -629.890 -539.948 -3359.911 0.075 0.069 -0.139 -0.11 0.61 -0.78 0.04
1 1.91 191 1.240 -9.544 2.452 -0.793 -1.892 1.465 -629.890 -539.948 -3359.911 -0.022 0.088 -0.182 -0.11 0.61 -0.78 0.04
1 1.92 192 1.226 -9.467 2.385 -1.221 -1.404 1.617 -794.932 -644.880 -3299.950 -0.008 0.012 -0.115 -0.11 0.61 -0.78 0.04
1 1.93 193 1.216 -9.510 2.461 -0.977 -1.923 1.221 -734.971 -569.929 -3194.869 0.002 0.055 -0.190 -0.11 0.61 -0.78 0.04
1 1.94 194 1.259 -9.548 2.433 -1.373 -2.258 0.824 -794.932 -569.929 -3224.999 -0.041 0.094 -0.161 -0.11 0.61 -0.78 0.04
1 1.95 195 1.202 -9.481 2.519 -1.007 -1.770 1.678 -794.932 -569.929 -3224.999 0.017 0.027 -0.247 -0.11 0.61 -0.78 0.04
1 1.96 196 1.212 -9.443 2.385 -0.763 -2.350 1.190 -629.890 -659.870 -3164.888 0.008 -0.011 -0.111 -0.11 0.61 -0.78 0.04
1 1.97 197 1.288 -9.572 2.437 -1.007 -2.686 1.892 -629.890 -734.971 -3209.859 -0.069 0.118 -0.163 -0.11 0.61 -0.78 0.04
1 1.98 198 1.173 -9.424 2.313 -1.068 -2.350 1.190 -629.890 -734.971 -3209.859 0.046 -0.030 -0.039 -0.11 0.61 -0.78 0.04
1 1.99 199 1.135 -9.405 2.509 -1.068 -2.319 1.190 -749.961 -509.968 -3209.859 0.084 -0.049 -0.235 -0.11 0.61 -0.78 0.04
1 2.00 200 1.288 -9.510 2.337 -1.160 -2.380 0.946 -674.860 -734.971 -3239.989 -0.069 0.056 -0.062 -0.11 0.61 -0.78 0.04
1 2.01 201 1.307 -9.410 2.433 -1.343 -1.923 1.404 -839.903 -644.880 -3254.979 -0.087 -0.045 -0.158 -0.11 0.61 -0.78 0.04
1 2.02 202 1.212 -9.510 2.418 -2.045 -2.594 0.732 -839.903 -644.880 -3254.979 0.008 0.056 -0.144 -0.11 0.61 -0.78 0.04
1 2.03 203 1.154 -9.486 2.452 -2.075 -2.441 1.007 -659.870 -644.880 -3194.869 0.066 0.032 -0.178 -0.11 0.61 -0.78 0.04
1 2.04 204 1.197 -9.592 2.485 -2.014 -2.472 0.427 -629.890 -539.948 -3239.989 0.023 0.137 -0.213 -0.11 0.61 -0.78 0.04
1 2.05 205 1.298 -9.654 2.342 -1.007 -2.716 1.343 -629.890 -539.948 -3239.989 -0.077 0.199 -0.070 -0.11 0.61 -0.78 0.04
1 2.06 206 1.231 -9.572 2.327 -1.251 -2.533 1.831 -749.961 -629.890 -3284.960 -0.010 0.118 -0.055 -0.11 0.61 -0.78 0.04
1 2.07 207 1.149 -9.592 2.428 -1.709 -3.418 1.892 -674.860 -584.919 -3164.888 0.071 0.137 -0.156 -0.11 0.61 -0.78 0.04
1 2.08 208 1.192 -9.501 2.389 -1.068 -3.387 2.350 -749.961 -659.870 -3284.960 0.027 0.046 -0.119 -0.11 0.61 -0.78 0.04
1 2.09 209 1.231 -9.553 2.461 -0.824 -4.120 2.075 -749.961 -659.870 -3284.960 -0.012 0.098 -0.191 -0.11 0.61 -0.78 0.04
1 2.10 210 1.283 -9.515 2.476 -0.061 -3.479 1.556 -794.932 -674.860 -3254.979 -0.065 0.060 -0.204 -0.11 0.61 -0.78 0.04
1 2.11 211 1.231 -9.496 2.428 -0.366 -3.113 1.434 -734.971 -674.860 -3329.931 -0.012 0.041 -0.154 -0.11 0.61 -0.78 0.04
1 2.12 212 1.226 -9.529 2.495 -0.763 -3.052 1.465 -734.971 -674.860 -3329.931 -0.008 0.075 -0.219 -0.11 0.61 -0.78 0.04
1 2.13 213 1.231 -9.443 2.452 -1.251 -3.082 1.526 -734.971 -599.909 -3299.950 -0.012 -0.010 -0.175 -0.11 0.61 -0.78 0.04
1 2.14 214 1.259 -9.534 2.504 -2.014 -1.892 1.923 -674.860 -509.968 -3314.940 -0.041 0.081 -0.227 -0.11 0.61 -0.78 0.04
1 2.15 215 1.384 -9.467 2.476 -1.099 -3.082 1.678 -749.961 -584.919 -3284.960 -0.166 0.013 -0.200 -0.11 0.61 -0.78 0.04
1 2.16 216 1.302 -9.429 2.461 -0.641 -2.441 2.014 -749.961 -584.919 -3284.960 -0.084 -0.025 -0.185 -0.11 0.61 -0.78 0.04
1 2.17 217 1.149 -9.577 2.428 0.092 -2.380 1.221 -629.890 -659.870 -3209.859 0.070 0.124 -0.151 -0.11 0.61 -0.78 0.04
1 2.18 218 1.125 -9.453 2.447 -0.519 -2.960 1.282 -704.991 -584.919 -3209.859 0.093 -0.001 -0.168 -0.11 0.61 -0.78 0.04
1 2.19 219 1.264 -9.539 2.437 -0.336 -3.448 2.014 -704.991 -584.919 -3209.859 -0.047 0.086 -0.157 -0.11 0.61 -0.78 0.04
1 2.20 220 1.279 -9.515 2.500 -0.946 -3.967 1.007 -659.870 -599.909 -3329.931 -0.061 0.062 -0.218 -0.11 0.61 -0.78 0.04
1 2.21 221 1.302 -9.692 2.471 -0.977 -4.242 1.038 -824.913 -734.971 -3209.859 -0.085 0.240 -0.189 -0.11 0.61 -0.78 0.05
1 2.22 222 1.379 -9.529 2.538 -0.397 -4.120 1.038 -690.000 -524.958 -3194.869 -0.159 0.077 -0.255 -0.11 0.61 -0.78 0.05
1 2.23 223 1.317 -9.510 2.404 -0.488 -2.441 1.007 -690.000 -524.958 -3194.869 -0.095 0.059 -0.120 -0.11 0.61 -0.78 0.05
1 2.24 224 1.355 -9.649 2.490 -0.458 -1.434 1.160 -629.890 -629.890 -3284.960 -0.132 0.198 -0.205 -0.11 0.61 -0.78 0.05
1 2.25 225 1.202 -9.539 2.480 -0.092 -0.885 2.289 -764.952 -674.860 -3149.898 0.022 0.088 -0.194 -0.11 0.61 -0.78 0.05
1 2.26 226 1.322 -9.515 2.452 -0.427 -1.434 1.617 -764.952 -674.860 -3149.898 -0.100 0.065 -0.163 -0.11 0.61 -0.78 0.05
1 2.27 227 1.144 -9.793 2.361 0.000 -2.075 0.488 -690.000 -644.880 -3224.999 0.077 0.342 -0.071 -0.11 0.61 -0.78 0.05
1 2.28 228 1.207 -9.635 2.385 0.153 -2.991 1.526 -674.860 -659.870 -3284.960 0.016 0.185 -0.093 -0.11 0.61 -0.78 0.05
1 2.29 229 1.302 -9.692 2.361 1.678 -2.838 1.495 -674.860 -659.870 -3284.960 -0.081 0.243 -0.068 -0.11 0.61 -0.78 0.05
1 2.30 230 1.322 -9.491 2.413 3.448 -4.211 2.411 -734.971 -794.932 -3299.950 -0.100 0.043 -0.113 -0.12 0.61 -0.78 0.05
1 2.31 231 1.484 -9.553 2.275 3.387 -4.578 2.197 -764.952 -719.981 -3329.931 -0.264 0.107 0.032 -0.12 0.61 -0.78 0.05
1 2.32 232 1.456 -9.611 2.284 1.099 -4.303 2.533 -704.991 -659.870 -3029.976 -0.235 0.166 0.027 -0.12 0.61 -0.78 0.05
1 2.33 233 1.628 -9.544 2.342 1.678 -3.418 3.265 -704.991 -659.870 -3029.976 -0.407 0.099 -0.028 -0.12 0.61 -0.78 0.05
1 2.34 234 1.489 -9.563 2.370 3.113 -1.099 3.296 -794.932 -719.981 -3329.931 -0.269 0.119 -0.054 -0.12 0.61 -0.78 0.05
1 2.35 235 1.580 -9.587 2.318 4.181 -0.580 3.174 -899.864 -629.890 -3389.892 -0.361 0.144 0.005 -0.12 0.61 -0.79 0.05
1 2.36 236 1.532 -9.443 2.428 3.632 -0.214 2.808 -899.864 -629.890 -3389.892 -0.315 0.002 -0.098 -0.12 0.61 -0.79 0.05
1 2.37 237 1.408 -9.520 2.299 1.648 0.122 2.563 -734.971 -674.860 -3374.901 -0.192 0.082 0.043 -0.12 0.61 -0.79 0.05
1 2.38 238 1.346 -9.491 2.246 1.007 0.885 2.441 -749.961 -659.870 -3284.960 -0.131 0.054 0.100 -0.12 0.61 -0.79 0.05
1 2.39 239 1.561 -9.520 2.251 1.770 -0.031 2.106 -929.994 -779.942 -3239.989 -0.347 0.083 0.098 -0.12 0.61 -0.79 0.05
1 2.40 240 1.451 -9.410 2.380 2.045 0.732 0.793 -929.994 -779.942 -3239.989 -0.237 -0.026 -0.028 -0.12 0.61 -0.79 0.05
1 2.41 241 1.513 -9.443 2.179 2.808 1.678 0.854 -629.890 -704.991 -3209.859 -0.298 0.009 0.178 -0.12 0.61 -0.79 0.05
1 2.42 242 1.384 -9.510 2.303 1.831 2.930 0.122 -824.913 -659.870 -3104.927 -0.167 0.077 0.059 -0.12 0.61 -0.79 0.05
1 2.43 243 1.125 -9.443 2.332 1.282 3.601 0.458 -824.913 -659.870 -3104.927 0.093 0.012 0.035 -0.12 0.6 -0.79 0.05
1 2.44 244 1.092 -9.467 2.251 1.099 2.563 0.885 -779.942 -704.991 -3164.888 0.124 0.037 0.122 -0.11 0.6 -0.79 0.05
1 2.45 245 1.077 -9.505 2.332 0.732 0.671 0.336 -690.000 -599.909 -3224.999 0.137 0.075 0.044 -0.11 0.6 -0.79 0.05
1 2.46 246 1.121 -9.481 2.332 0.732 -0.122 -0.793 -674.860 -734.971 -3209.859 0.094 0.052 0.045 -0.11 0.6 -0.79 0.05
1 2.47 247 1.183 -9.347 2.294 0.244 0.549 -0.580 -674.860 -734.971 -3209.859 0.033 -0.081 0.085 -0.11 0.6 -0.79 0.05
1 2.48 248 1.240 -9.304 2.322 0.610 0.916 -0.793 -704.991 -704.991 -3239.989 -0.022 -0.124 0.058 -0.11 0.6 -0.79 0.05
1 2.49 249 1.235 -9.419 2.428 -0.427 1.251 0.153 -674.860 -704.991 -3284.960 -0.016 -0.008 -0.046 -0.11 0.6 -0.79 0.05
1 2.50 250 1.087 -9.501 2.423 -1.312 1.343 -0.244 -674.860 -704.991 -3284.960 0.133 0.073 -0.040 -0.11 0.6 -0.79 0.05
1 2.51 251 1.149 -9.400 2.433 -1.801 0.519 -0.153 -659.870 -674.860 -3329.931 0.072 -0.027 -0.049 -0.11 0.6 -0.79 0.05
1 2.52 252 1.025 -9.486 2.457 -3.967 -0.336 -1.038 -659.870 -749.961 -3194.869 0.198 0.059 -0.076 -0.11 0.6 -0.79 0.05
1 2.53 253 1.274 -9.443 2.366 -3.510 0.427 -0.671 -629.890 -629.890 -3314.940 -0.050 0.015 0.011 -0.11 0.6 -0.79 0.04
1 2.54 254 1.101 -9.481 2.313 -2.625 1.648 -0.275 -629.890 -629.890 -3314.940 0.125 0.053 0.061 -0.11 0.6 -0.79 0.04
1 2.55 255 1.144 -9.467 2.294 -2.747 1.617 -0.122 -749.961 -584.919 -3284.960 0.082 0.038 0.078 -0.11 0.61 -0.79 0.04
1 2.56 256 0.991 -9.505 2.241 -3.510 1.404 0.275 -599.909 -659.870 -3314.940 0.235 0.075 0.128 -0.11 0.61 -0.79 0.04
1 2.57 257 1.121 -9.457 2.385 -4.425 0.946 0.946 -599.909 -659.870 -3314.940 0.105 0.027 -0.018 -0.11 0.61 -0.79 0.04
1 2.58 258 1.125 -9.592 2.332 -4.425 0.854 0.214 -749.961 -704.991 -3209.859 0.098 0.159 0.030 -0.11 0.61 -0.79 0.04
1 2.59 259 1.049 -9.539 2.485 -4.883 0.854 0.275 -764.952 -674.860 -3329.931 0.174 0.104 -0.134 -0.11 0.61 -0.79 0.04
1 2.60 260 1.077 -9.548 2.466 -5.066 0.610 -0.092 -749.961 -704.991 -3359.911 0.145 0.112 -0.120 -0.11 0.61 -0.79 0.04
1 2.61 261 1.068 -9.467 2.299 -4.913 0.336 0.793 -749.961 -704.991 -3359.911 0.153 0.030 0.043 -0.11 0.61 -0.79 0.04
1 2.62 262 1.101 -9.606 2.423 -4.852 0.275 0.458 -824.913 -809.922 -3314.940 0.119 0.167 -0.087 -0.11 0.61 -0.79 0.04
1 2.63 263 1.202 -9.558 2.337 -4.211 0.275 -0.031 -869.883 -674.860 -3119.917 0.017 0.118 -0.006 -0.11 0.61 -0.79 0.04
1 2.64 264 1.231 -9.457 2.413 -4.028 1.160 0.000 -869.883 -674.860 -3119.917 -0.011 0.016 -0.087 -0.11 0.61 -0.79 0.04
1 2.65 265 1.077 -9.448 2.394 -4.852 1.312 0.305 -734.971 -644.880 -3224.999 0.142 0.006 -0.071 -0.11 0.61 -0.79 0.04
1 2.66 266 1.044 -9.448 2.279 -4.456 0.885 0.519 -690.000 -524.958 -3254.979 0.175 0.003 0.035 -0.11 0.61 -0.78 0.04
1 2.67 267 0.963 -9.501 2.313 -4.883 -0.214 0.031 -824.913 -704.991 -3314.940 0.255 0.055 -0.004 -0.11 0.61 -0.78 0.04
1 2.68 268 1.015 -9.501 2.428 -4.364 -0.946 0.458 -824.913 -704.991 -3314.940 0.202 0.053 -0.124 -0.11 0.61 -0.78 0.04
1 2.69 269 1.192 -9.548 2.327 -4.547 -1.587 0.702 -824.913 -734.971 -3239.989 0.024 0.100 -0.029 -0.11 0.61 -0.78 0.04
1 2.70 270 1.188 -9.558 2.366 -4.303 -1.740 0.214 -734.971 -719.981 -3224.999 0.029 0.108 -0.072 -0.11 0.61 -0.78 0.04
1 2.71 271 1.068 -9.606 2.447 -3.143 -1.770 0.824 -734.971 -719.981 -3224.999 0.149 0.155 -0.158 -0.11 0.61 -0.78 0.04
1 2.72 272 1.159 -9.639 2.509 -3.296 -1.404 1.038 -599.909 -584.919 -3284.960 0.058 0.188 -0.224 -0.11 0.61 -0.78 0.04
1 2.73 273 1.216 -9.639 2.346 -3.296 -1.709 0.763 -599.909 -584.919 -3284.960 0.001 0.187 -0.064 -0.11 0.61 -0.78 0.04
1 2.74 274 1.393 -9.625 2.428 -3.052 -1.343 0.244 -764.952 -749.961 -3254.979 -0.176 0.171 -0.152 -0.11 0.61 -0.78 0.04
1 2.75 275 1.398 -9.711 2.265 -3.693 -1.617 0.366 -764.952 -749.961 -3254.979 -0.179 0.257 0.007 -0.11 0.61 -0.78 0.04
1 2.76 276 1.231 -9.692 2.279 -3.418 -0.946 0.275 -734.971 -749.961 -3149.898 -0.009 0.236 -0.012 -0.11 0.61 -0.78 0.04
1 2.77 277 1.255 -9.592 2.375 -3.357 -0.641 0.763 -584.919 -644.880 -3299.950 -0.032 0.135 -0.112 -0.11 0.61 -0.78 0.04
1 2.78 278 1.144 -9.620 2.212 -3.265 -1.099 0.610 -584.919 -644.880 -3299.950 0.079 0.163 0.048 -0.11 0.61 -0.78 0.04
1 2.79 279 1.274 -9.572 2.437 -3.479 -0.946 0.641 -764.952 -599.909 -3224.999 -0.050 0.115 -0.180 -0.11 0.61 -0.78 0.04
1 2.80 280 1.365 -9.510 2.351 -2.960 -0.793 0.458 -764.952 -599.909 -3224.999 -0.142 0.051 -0.098 -0.11 0.61 -0.78 0.04
1 2.81 281 1.231 -9.491 2.389 -2.441 -0.122 -0.183 -584.919 -569.929 -3194.869 -0.005 0.032 -0.140 -0.11 0.61 -0.78 0.04
1 2.82 282 1.216 -9.505 2.389 -3.174 0.061 0.183 -584.919 -569.929 -3194.869 0.011 0.046 -0.141 -0.11 0.61 -0.78 0.04
1 2.83 283 1.374 -9.491 2.351 -3.723 0.366 -0.092 -659.870 -599.909 -3254.979 -0.146 0.031 -0.106 -0.11 0.61 -0.78 0.04
1 2.84 284 1.360 -9.462 2.447 -4.303 1.251 0.336 -690.000 -524.958 -3299.950 -0.130 0.002 -0.205 -0.11 0.61 -0.78 0.04
1 2.85 285 1.307 -9.635 2.571 -3.296 1.587 0.275 -690.000 -524.958 -3299.950 -0.077 0.174 -0.333 -0.11 0.61 -0.78 0.04
1 2.86 286 1.374 -9.750 2.490 -2.594 0.977 -0.061 -690.000 -569.929 -3224.999 -0.143 0.288 -0.253 -0.11 0.61 -0.78 0.04
1 2.87 287 1.326 -9.788 2.423 0.580 1.343 0.580 -690.000 -569.929 -3224.999 -0.094 0.326 -0.187 -0.11 0.61 -0.78 0.04
1 2.88 288 1.331 -9.802 2.480 5.981 1.740 1.892 -599.909 -539.948 -3164.888 -0.099 0.343 -0.235 -0.11 0.61 -0.78 0.04
1 2.89 289 1.326 -9.592 2.385 6.989 2.441 3.204 -599.909 -539.948 -3164.888 -0.096 0.135 -0.127 -0.11 0.61 -0.78 0.04
1 2.90 290 1.370 -9.592 2.423 6.928 2.289 4.517 -779.942 -539.948 -3209.859 -0.144 0.137 -0.153 -0.11 0.61 -0.78 0.04
1 2.91 291 1.307 -9.505 2.409 6.042 0.946 5.646 -690.000 -599.909 -3224.999 -0.087 0.053 -0.127 -0.11 0.61 -0.78 0.04
1 2.92 292 1.408 -9.505 2.289 7.538 -0.580 7.324 -690.000 -599.909 -3224.999 -0.196 0.055 0.003 -0.11 0.61 -0.78 0.04
1 2.93 293 1.642 -9.371 2.308 11.627 -2.838 10.010 -674.860 -659.870 -3209.859 -0.439 -0.078 -0.003 -0.11 0.61 -0.78 0.04
1 2.94 294 1.853 -9.156 2.203 14.771 -4.272 11.414 -674.860 -659.870 -3209.859 -0.658 -0.290 0.118 -0.11 0.61 -0.79 0.04
1 2.95 295 2.078 -9.089 2.107 14.465 -4.181 13.519 -584.919 -599.909 -3329.931 -0.893 -0.353 0.235 -0.11 0.61 -0.79 0.04
1 2.96 296 2.294 -8.830 1.911 12.329 -3.754 15.595 -659.870 -569.929 -3329.931 -1.130 -0.605 0.471 -0.11 0.61 -0.79 0.04
1 2.97 297 2.452 -8.706 1.887 9.125 -3.143 17.609 -734.971 -569.929 -3224.999 -1.300 -0.727 0.510 -0.11 0.6 -0.79 0.05
1 2.98 298 2.667 -8.763 1.781 5.371 -1.587 17.609 -704.991 -704.991 -3284.960 -1.529 -0.668 0.626 -0.11 0.6 -0.79 0.05
1 2.99 299 2.658 -8.773 1.666 0.244 -0.885 18.250 -704.991 -704.991 -3284.960 -1.532 -0.659 0.744 -0.11 0.6 -0.79 0.05
1 3.00 300 2.964 -8.792 1.801 -5.341 2.594 17.273 -824.913 -659.870 -3209.859 -1.852 -0.643 0.606 -0.11 0.6 -0.79 0.05
1 3.01 301 2.907 -9.127 1.911 -8.118 5.371 16.205 -824.913 -659.870 -3209.859 -1.807 -0.311 0.487 -0.11 0.6 -0.79 0.05
1 3.02 302 2.787 -9.462 1.949 -11.078 9.369 14.130 -749.961 -584.919 -3359.911 -1.698 0.020 0.437 -0.11 0.61 -0.79 0.05
1 3.03 303 2.514 -9.879 1.896 -15.076 16.571 10.559 -659.870 -524.958 -3224.999 -1.443 0.425 0.454 -0.11 0.61 -0.79 0.05
1 3.04 304 2.193 -10.056 1.992 -15.259 19.257 8.087 -674.860 -659.870 -3284.960 -1.130 0.596 0.336 -0.11 0.61 -0.79 0.05
1 3.05 305 2.006 -10.118 2.040 -10.651 18.341 5.280 -599.909 -659.870 -3389.892 -0.951 0.653 0.268 -0.1 0.61 -0.78 0.05
1 3.06 306 1.772 -10.176 2.093 -4.364 16.144 2.899 -599.909 -659.870 -3389.892 -0.722 0.706 0.203 -0.1 0.61 -0.78 0.05
1 3.07 307 1.911 -10.142 1.872 1.678 14.954 2.289 -509.968 -644.880 -3149.898 -0.864 0.672 0.421 -0.1 0.61 -0.78 0.04
1 3.08 308 1.858 -9.773 1.824 1.099 16.357 2.014 -509.968 -644.880 -3149.898 -0.813 0.304 0.472 -0.1 0.61 -0.78 0.04
1 3.09 309 1.805 -9.778 1.882 -4.211 17.426 1.190 -539.948 -719.981 -3224.999 -0.763 0.309 0.417 -0.1 0.61 -0.78 0.04
1 3.10 310 1.504 -9.908 1.915 -8.881 14.557 -1.526 -584.919 -674.860 -3254.979 -0.462 0.435 0.369 -0.1 0.61 -0.78 0.04
1 3.11 311 1.245 -10.027 1.920 -7.507 12.116 -3.235 -494.978 -734.971 -3209.859 -0.201 0.551 0.351 -0.1 0.61 -0.78 0.04
1 3.12 312 1.441 -10.099 2.035 -4.120 10.773 -2.991 -569.929 -659.870 -3314.940 -0.394 0.621 0.226 -0.1 0.61 -0.78 0.04
1 3.13 313 1.149 -9.797 1.982 -0.580 11.749 -2.167 -569.929 -659.870 -3314.940 -0.098 0.319 0.274 -0.1 0.61 -0.78 0.04
1 3.14 314 1.106 -9.687 2.040 3.510 12.299 1.831 -659.870 -569.929 -3299.950 -0.055 0.209 0.218 -0.1 0.61 -0.78 0.04
1 3.15 315 0.900 -9.319 1.877 3.204 9.033 2.472 -659.870 -569.929 -3299.950 0.147 -0.159 0.387 -0.1 0.61 -0.78 0.04
1 3.16 316 1.015 -9.108 1.939 1.373 4.456 1.648 -690.000 -749.961 -3299.950 0.026 -0.369 0.329 -0.1 0.61 -0.78 0.04
1 3.17 317 1.178 -9.189 2.107 -0.732 0.519 1.038 -690.000 -599.909 -3299.950 -0.141 -0.287 0.165 -0.09 0.61 -0.78 0.03
1 3.18 318 1.288 -9.448 2.136 -4.364 0.580 1.343 -584.919 -569.929 -3194.869 -0.250 -0.029 0.133 -0.09 0.61 -0.78 0.03
1 3.19 319 1.269 -9.687 2.361 -5.280 2.441 2.350 -614.899 -569.929 -3329.931 -0.231 0.209 -0.099 -0.09 0.61 -0.78 0.03
1 3.20 320 1.346 -9.706 2.279 -3.937 3.876 2.533 -614.899 -569.929 -3329.931 -0.309 0.226 -0.023 -0.09 0.61 -0.78 0.03
1 3.21 321 1.389 -9.817 2.308 -0.763 4.700 1.434 -509.968 -644.880 -3254.979 -0.354 0.336 -0.054 -0.09 0.61 -0.78 0.03
1 3.22 322 1.159 -9.501 2.399 1.373 6.592 -0.183 -509.968 -644.880 -3254.979 -0.125 0.020 -0.143 -0.09 0.61 -0.78 0.03
1 3.23 323 1.020 -9.462 2.394 -0.549 7.538 -0.610 -464.997 -599.909 -3254.979 0.013 -0.017 -0.133 -0.09 0.61 -0.78 0.03
1 3.24 324 1.154 -9.314 2.313 -2.197 8.637 -0.732 -449.857 -629.890 -3239.989 -0.120 -0.165 -0.048 -0.09 0.61 -0.78 0.03
1 3.25 325 0.891 -9.266 2.447 -3.021 10.559 -1.251 -419.876 -659.870 -3134.908 0.142 -0.212 -0.181 -0.09 0.61 -0.78 0.03
1 3.26 326 0.728 -9.381 2.361 -4.303 12.543 -1.984 -524.958 -704.991 -3239.989 0.303 -0.098 -0.095 -0.09 0.61 -0.78 0.03
1 3.27 327 0.479 -9.472 2.428 -7.172 13.977 -1.556 -524.958 -704.991 -3239.989 0.550 -0.008 -0.164 -0.09 0.61 -0.78 0.03
1 3.28 328 0.273 -9.534 2.404 -8.881 14.008 0.214 -569.929 -629.890 -3239.989 0.750 0.052 -0.147 -0.09 0.61 -0.78 0.03
1 3.29 329 -0.062 -9.620 2.495 -8.270 11.993 0.946 -569.929 -629.890 -3239.989 1.076 0.136 -0.246 -0.09 0.61 -0.78 0.03
1 3.30 330 -0.278 -9.726 2.471 -6.134 7.751 2.167 -434.867 -674.860 -3329.931 1.279 0.238 -0.229 -0.09 0.61 -0.78 0.03
1 3.31 331 -0.034 -9.673 2.409 -5.219 4.761 2.686 -374.906 -584.919 -3164.888 1.022 0.183 -0.172 -0.09 0.62 -0.78 0.03
1 3.32 332 -0.029 -9.797 2.332 -2.106 1.251 3.510 -509.968 -674.860 -3299.950 0.991 0.303 -0.103 -0.08 0.62 -0.78 0.03
1 3.33 333 -0.057 -9.486 2.236 -2.319 -1.099 3.357 -419.876 -629.890 -3134.908 1.008 -0.010 -0.008 -0.08 0.62 -0.78 0.03
1 3.34 334 0.283 -9.505 2.337 -3.174 -3.784 3.082 -419.876 -629.890 -3134.908 0.657 0.008 -0.111 -0.08 0.62 -0.78 0.03
1 3.35 335 0.378 -9.706 2.500 -5.371 -4.425 3.387 -449.857 -629.890 -3104.927 0.554 0.207 -0.277 -0.08 0.62 -0.78 0.03
1 3.36 336 0.306 -9.965 2.476 -6.897 -4.730 2.899 -449.857 -629.890 -3104.927 0.620 0.464 -0.260 -0.08 0.62 -0.78 0.03
1 3.37 337 0.541 -10.008 2.476 -7.080 -2.502 2.777 -389.896 -569.929 -3299.950 0.379 0.504 -0.268 -0.08 0.62 -0.78 0.03
1 3.38 338 0.498 -10.018 2.581 -3.815 -1.434 2.838 -434.867 -674.860 -3119.917 0.416 0.512 -0.381 -0.08 0.62 -0.78 0.03
1 3.39 339 0.431 -10.003 2.615 -0.336 -1.190 2.106 -434.867 -674.860 -3119.917 0.477 0.496 -0.419 -0.08 0.62 -0.78 0.03
1 3.40 340 0.393 -9.864 2.442 0.061 -0.214 1.434 -434.867 -524.958 -3254.979 0.506 0.357 -0.243 -0.08 0.62 -0.78 0.03
1 3.41 341 0.206 -9.572 2.399 -1.831 0.031 1.434 -434.867 -524.958 -3254.979 0.689 0.065 -0.199 -0.08 0.62 -0.78 0.03
1 3.42 342 0.000 -9.702 2.519 -3.296 0.580 1.831 -389.896 -599.909 -3194.869 0.888 0.193 -0.318 -0.08 0.62 -0.78 0.03
1 3.43 343 -0.077 -9.932 2.279 -5.035 -0.183 3.021 -389.896 -599.909 -3194.869 0.956 0.422 -0.081 -0.08 0.62 -0.78 0.03
1 3.44 344 -0.086 -10.013 2.428 -5.798 -3.845 5.096 -509.968 -524.958 -3194.869 0.955 0.501 -0.235 -0.08 0.62 -0.78 0.03
1 3.45 345 -0.110 -9.951 2.375 -5.188 -6.287 5.585 -509.968 -494.978 -3149.898 0.966 0.436 -0.189 -0.08 0.62 -0.78 0.03
1 3.46 346 0.125 -10.080 2.361 -3.967 -7.935 5.219 -509.968 -494.978 -3149.898 0.719 0.563 -0.181 -0.08 0.62 -0.78 0.03
1 3.47 347 0.345 -9.951 2.289 -2.472 -9.979 5.402 -419.876 -584.919 -3239.989 0.478 0.430 -0.118 -0.08 0.62 -0.78 0.03
1 3.48 348 0.474 -9.821 2.241 -0.824 -9.094 6.500 -419.876 -584.919 -3239.989 0.340 0.299 -0.073 -0.08 0.62 -0.78 0.03
1 3.49 349 0.493 -9.668 2.289 -1.465 -7.416 7.141 -389.896 -494.978 -3329.931 0.312 0.145 -0.121 -0.08 0.62 -0.78 0.03
1 3.50 350 0.503 -9.539 2.155 -2.930 -6.073 7.507 -389.896 -494.978 -3329.931 0.293 0.014 0.011 -0.08 0.62 -0.78 0.04
1 3.51 351 0.565 -9.625 2.184 -4.913 -4.974 7.263 -539.948 -644.880 -3119.917 0.221 0.099 -0.022 -0.08 0.62 -0.78 0.04
1 3.52 352 0.326 -9.639 1.997 -6.836 -5.310 7.874 -389.896 -599.909 -3119.917 0.450 0.111 0.158 -0.08 0.62 -0.78 0.04
1 3.53 353 0.230 -9.702 2.026 -7.477 -6.165 7.477 -389.896 -599.909 -3119.917 0.535 0.170 0.119 -0.08 0.62 -0.78 0.04
1 3.54 354 0.326 -9.697 1.973 -6.531 -7.202 6.897 -494.978 -539.948 -3134.908 0.418 0.158 0.149 -0.08 0.62 -0.78 0.04
1 3.55 355 0.268 -9.663 1.935 -5.737 -7.599 5.981 -494.978 -539.948 -3134.908 0.466 0.122 0.176 -0.08 0.62 -0.78 0.04
1 3.56 356 0.445 -9.515 1.935 -6.165 -7.629 6.012 -449.857 -434.867 -3314.940 0.280 -0.030 0.167 -0.08 0.62 -0.78 0.04
1 3.57 357 0.206 -9.577 1.786 -7.721 -8.575 6.348 -449.857 -434.867 -3314.940 0.511 0.030 0.304 -0.08 0.62 -0.78 0.04
1 3.58 358 0.244 -9.553 1.949 -10.132 -9.399 6.653 -449.857 -629.890 -3134.908 0.464 0.002 0.128 -0.08 0.62 -0.78 0.04
1 3.59 359 0.407 -9.740 1.858 -12.573 -10.803 6.317 -494.978 -509.968 -3134.908 0.291 0.184 0.202 -0.08 0.62 -0.78 0.04
1 3.60 360 0.618 -9.999 1.786 -13.062 -11.322 5.341 -494.978 -509.968 -3134.908 0.072 0.438 0.255 -0.08 0.62 -0.78 0.04
1 3.61 361 0.733 -9.994 1.915 -11.505 -10.407 3.906 -584.919 -449.857 -3224.999 -0.048 0.429 0.105 -0.08 0.62 -0.78 0.04
1 3.62 362 0.747 -9.970 1.949 -9.308 -8.362 1.801 -464.997 -569.929 -3224.999 -0.065 0.397 0.036 -0.08 0.63 -0.77 0.04
1 3.63 363 0.742 -9.984 1.887 -7.080 -6.134 -0.122 -464.997 -494.978 -3194.869 -0.059 0.409 0.085 -0.08 0.63 -0.77 0.04
1 3.64 364 0.661 -9.821 1.872 -6.104 -4.486 -2.472 -464.997 -494.978 -3194.869 0.027 0.244 0.089 -0.08 0.63 -0.77 0.04
1 3.65 365 0.484 -9.769 1.801 -6.378 -2.075 -3.418 -539.948 -524.958 -3149.898 0.210 0.190 0.151 -0.08 0.63 -0.77 0.04
1 3.66 366 0.182 -9.850 1.676 -8.118 -1.190 -3.815 -584.919 -599.909 -3074.947 0.518 0.270 0.266 -0.08 0.63 -0.77 0.04
1 3.67 367 -0.048 -9.841 1.690 -9.399 -3.174 -3.784 -584.919 -599.909 -3074.947 0.752 0.258 0.240 -0.08 0.63 -0.77 0.04
1 3.68 368 -0.163 -9.903 1.575 -9.277 -6.409 -3.601 -449.857 -584.919 -3134.908 0.871 0.318 0.340 -0.08 0.63 -0.77 0.04
1 3.69 369 -0.101 -10.061 1.700 -8.514 -12.604 -3.052 -509.968 -449.857 -3119.917 0.813 0.470 0.184 -0.08 0.63 -0.77 0.04
1 3.70 370 -0.091 -10.204 1.628 -7.324 -15.076 -3.235 -584.919 -449.857 -3044.966 0.806 0.611 0.242 -0.08 0.63 -0.77 0.04
1 3.71 371 0.091 -10.214 1.719 -5.035 -16.663 -3.265 -584.919 -449.857 -3044.966 0.628 0.618 0.138 -0.08 0.63 -0.77 0.04
1 3.72 372 0.148 -10.013 1.647 -1.831 -17.517 -2.350 -584.919 -419.876 -3149.898 0.576 0.416 0.201 -0.09 0.63 -0.77 0.05
1 3.73 373 0.187 -9.941 1.619 1.617 -17.395 -1.648 -599.909 -584.919 -3164.888 0.543 0.344 0.225 -0.09 0.63 -0.77 0.05
1 3.74 374 0.268 -9.582 1.417 2.411 -17.700 -0.885 -599.909 -584.919 -3164.888 0.464 -0.015 0.426 -0.09 0.63 -0.77 0.05
1 3.75 375 0.206 -9.553 1.499 1.556 -18.402 0.244 -464.997 -494.978 -3119.917 0.529 -0.044 0.345 -0.09 0.63 -0.77 0.05
1 3.76 376 0.192 -9.529 1.403 -0.793 -19.836 -0.916 -524.958 -539.948 -3209.859 0.549 -0.068 0.437 -0.09 0.63 -0.77 0.05
1 3.77 377 0.359 -9.639 1.379 0.061 -20.630 -2.319 -539.948 -494.978 -3149.898 0.386 0.042 0.456 -0.09 0.63 -0.77 0.05
1 3.78 378 0.388 -9.611 1.537 3.204 -20.386 -3.235 -539.948 -494.978 -3149.898 0.365 0.013 0.295 -0.09 0.63 -0.77 0.05
1 3.79 379 0.417 -9.548 1.480 5.585 -20.172 -3.265 -464.997 -599.909 -3194.869 0.345 -0.048 0.355 -0.09 0.63 -0.77 0.05
1 3.80 380 0.407 -9.477 1.609 6.226 -19.562 -3.571 -464.997 -419.876 -3194.869 0.363 -0.118 0.231 -0.09 0.63 -0.77 0.05
1 3.81 381 0.479 -9.424 1.662 5.981 -17.761 -2.960 -464.997 -419.876 -3194.869 0.300 -0.169 0.184 -0.09 0.63 -0.77 0.05
1 3.82 382 0.517 -9.275 1.575 3.754 -18.005 -3.510 -764.952 -449.857 -3119.917 0.270 -0.316 0.277 -0.1 0.63 -0.77 0.05
1 3.83 383 0.541 -9.343 1.642 2.197 -18.616 -4.822 -629.890 -539.948 -3209.859 0.255 -0.247 0.213 -0.1 0.63 -0.77 0.05
1 3.84 384 0.747 -9.386 1.623 3.906 -18.524 -7.355 -614.899 -494.978 -3119.917 0.075 -0.201 0.236 -0.1 0.63 -0.77 0.06
1 3.85 385 0.900 -9.438 1.628 5.157 -16.907 -8.514 -614.899 -494.978 -3119.917 -0.062 -0.146 0.235 -0.1 0.63 -0.77 0.06
1 3.86 386 0.857 -9.520 1.872 7.324 -15.259 -10.040 -764.952 -599.909 -3194.869 0.000 -0.062 -0.003 -0.1 0.63 -0.77 0.06
1 3.87 387 0.795 -9.419 1.801 8.545 -13.245 -10.681 -779.942 -464.997 -3029.976 0.082 -0.159 0.078 -0.1 0.63 -0.77 0.06
1 3.88 388 0.728 -9.429 1.547 8.270 -10.925 -10.651 -779.942 -464.997 -3029.976 0.169 -0.145 0.344 -0.11 0.63 -0.77 0.06
1 3.89 389 0.819 -9.496 1.547 5.920 -9.186 -10.223 -779.942 -509.968 -3029.976 0.099 -0.074 0.354 -0.11 0.63 -0.77 0.06
1 3.90 390 0.785 -9.606 1.647 5.524 -8.728 -11.292 -674.860 -584.919 -3164.888 0.151 0.039 0.261 -0.11 0.63 -0.77 0.06
1 3.91 391 0.800 -9.572 1.628 7.263 -7.996 -12.939 -599.909 -629.890 -3104.927 0.174 0.012 0.292 -0.11 0.62 -0.77 0.06
1 3.92 392 0.747 -9.462 1.571 9.338 -6.317 -12.756 -599.909 -629.890 -3104.927 0.247 -0.094 0.359 -0.11 0.62 -0.77 0.05
1 3.93 393 0.608 -9.548 1.389 9.216 -5.829 -12.390 -839.903 -494.978 -3119.917 0.406 -0.004 0.552 -0.11 0.62 -0.77 0.05
1 3.94 394 0.704 -9.443 1.408 6.378 -4.700 -11.536 -779.942 -509.968 -3059.957 0.329 -0.105 0.542 -0.11 0.62 -0.77 0.05
1 3.95 395 0.642 -9.453 1.451 4.242 -4.181 -11.078 -779.942 -509.968 -3059.957 0.408 -0.093 0.505 -0.11 0.62 -0.77 0.05
1 3.96 396 0.699 -9.750 1.379 2.686 -5.707 -12.634 -779.942 -464.997 -3164.888 0.366 0.206 0.579 -0.11 0.62 -0.77 0.05
1 3.97 397 0.646 -9.663 1.528 3.693 -7.080 -13.886 -764.952 -494.978 -3119.917 0.435 0.122 0.431 -0.11 0.62 -0.77 0.05
1 3.98 398 0.757 -9.692 1.441 8.118 -5.707 -13.001 -854.893 -584.919 -3029.976 0.364 0.157 0.523 -0.12 0.62 -0.77 0.05
1 3.99 399 0.733 -9.592 1.336 8.240 -5.402 -12.970 -854.893 -584.919 -3029.976 0.407 0.060 0.637 -0.12 0.62 -0.77 0.05
1 4.00 400 0.690 -9.462 1.207 5.981 -5.310 -11.780 -824.913 -539.948 -3209.859 0.467 -0.066 0.774 -0.12 0.62 -0.77 0.05
1 4.01 401 0.565 -9.429 1.202 4.303 -6.500 -11.871 -854.893 -629.890 -3134.908 0.609 -0.096 0.782 -0.12 0.62 -0.77 0.05
1 4.02 402 0.599 -9.481 1.121 3.754 -7.782 -12.238 -854.893 -629.890 -3134.908 0.591 -0.042 0.864 -0.12 0.62 -0.77 0.05
1 4.03 403 0.723 -9.592 1.082 3.540 -10.345 -12.695 -914.854 -569.929 -3074.947 0.484 0.071 0.901 -0.12 0.62 -0.77 0.05
1 4.04 404 0.699 -9.663 1.192 3.845 -10.284 -12.421 -704.991 -659.870 -3164.888 0.527 0.145 0.790 -0.12 0.62 -0.77 0.05
1 4.05 405 0.996 -9.649 1.087 5.066 -9.094 -11.139 -704.991 -659.870 -3164.888 0.249 0.132 0.893 -0.12 0.62 -0.77 0.05
1 4.06 406 0.939 -9.659 1.197 4.425 -8.148 -10.345 -794.932 -599.909 -3224.999 0.342 0.146 0.783 -0.12 0.62 -0.77 0.05
1 4.07 407 1.025 -9.682 1.101 2.869 -8.270 -9.460 -854.893 -629.890 -3239.989 0.272 0.172 0.878 -0.13 0.62 -0.77 0.05
1 4.08 408 1.221 -9.630 1.087 2.380 -8.209 -10.620 -974.965 -584.919 -3134.908 0.091 0.121 0.889 -0.13 0.62 -0.77 0.05
1 4.09 409 1.245 -9.601 1.106 3.174 -6.592 -11.261 -974.965 -584.919 -3134.908 0.085 0.094 0.867 -0.13 0.62 -0.77 0.05
1 4.10 410 1.173 -9.611 1.101 4.913 -4.974 -13.184 -1019.936 -719.981 -3299.950 0.176 0.107 0.871 -0.13 0.62 -0.77 0.05
1 4.11 411 1.073 -9.510 1.240 5.280 -4.364 -13.855 -839.903 -644.880 -3194.869 0.296 0.009 0.733 -0.13 0.62 -0.77 0.05
1 4.12 412 1.168 -9.395 1.116 5.646 -2.655 -14.465 -974.965 -584.919 -3164.888 0.241 -0.099 0.862 -0.13 0.62 -0.77 0.05
1 4.13 413 1.111 -9.443 1.097 5.127 -1.465 -14.893 -974.965 -584.919 -3164.888 0.320 -0.048 0.883 -0.13 0.62 -0.77 0.05
1 4.14 414 1.121 -9.280 1.020 3.784 0.336 -16.907 -1019.936 -599.909 -3149.898 0.333 -0.207 0.961 -0.13 0.62 -0.77 0.05
1 4.15 415 1.077 -9.299 1.111 4.791 2.625 -17.578 -1019.936 -674.860 -3194.869 0.400 -0.184 0.871 -0.13 0.62 -0.77 0.05
1 4.16 416 0.876 -9.433 0.963 5.249 3.784 -17.059 -1019.936 -674.860 -3194.869 0.624 -0.045 1.023 -0.14 0.62 -0.77 0.05
1 4.17 417 0.512 -9.371 0.833 4.181 4.242 -16.449 -1064.906 -524.958 -3119.917 1.009 -0.104 1.154 -0.14 0.62 -0.77 0.04
1 4.18 418 0.565 -9.146 0.804 2.136 3.510 -14.740 -1019.936 -599.909 -3194.869 0.973 -0.326 1.183 -0.14 0.62 -0.77 0.04
1 4.19 419 0.546 -9.366 0.694 0.610 3.510 -13.550 -1019.936 -599.909 -3194.869 1.005 -0.104 1.291 -0.14 0.62 -0.77 0.04
1 4.20 420 0.326 -9.242 0.460 -0.549 1.770 -11.688 -1019.936 -644.880 -3074.947 1.249 -0.227 1.515 -0.14 0.62 -0.77 0.04
1 4.21 421 0.359 -8.964 0.421 -3.510 -0.214 -10.529 -1079.896 -809.922 -3239.989 1.224 -0.505 1.543 -0.14 0.62 -0.77 0.04
1 4.22 422 0.364 -8.758 0.397 -8.026 -1.801 -9.522 -974.965 -659.870 -3164.888 1.227 -0.713 1.551 -0.14 0.62 -0.77 0.04
1 4.23 423 0.273 -8.825 0.761 -11.383 -3.143 -9.033 -974.965 -659.870 -3164.888 1.330 -0.648 1.170 -0.14 0.62 -0.77 0.04
1 4.24 424 0.225 -9.036 1.575 -15.137 -9.430 -7.019 -1064.906 -749.961 -3149.898 1.389 -0.439 0.335 -0.14 0.62 -0.77 0.04
1 4.25 425 1.786 -10.702 3.117 -32.501 -36.621 2.319 -1079.896 -659.870 -3284.960 -0.169 1.222 -1.236 -0.14 0.62 -0.77 0.04
1 4.26 426 4.482 -13.178 4.401 -46.723 -44.647 10.834 -1079.896 -659.870 -3284.960 -2.862 3.689 -2.565 -0.14 0.62 -0.77 0.04
1 4.27 427 6.546 -14.806 4.674 -8.057 -7.446 26.703 -1094.887 -644.880 -3014.986 -4.942 5.290 -2.971 -0.15 0.63 -0.76 0.05
1 4.28 428 5.339 -13.216 3.745 22.095 26.215 42.816 -1109.877 -629.890 -3104.927 -3.779 3.693 -2.038 -0.15 0.63 -0.76 0.05
1 4.29 429 3.529 -10.947 2.658 9.247 52.918 58.502 -1184.978 -584.919 -3164.888 -2.046 1.418 -0.912 -0.14 0.63 -0.77 0.05
1 4.30 430 1.393 -9.587 1.915 -15.381 68.207 61.524 -1184.978 -584.919 -3164.888 -0.013 0.046 -0.151 -0.14 0.63 -0.77 0.05
1 4.31 431 -0.608 -9.778 0.872 -33.905 60.211 53.955 -1169.988 -794.932 -3119.917 1.887 0.221 0.881 -0.13 0.63 -0.77 0.05
1 4.32 432 -1.441 -11.162 1.480 -49.866 34.424 33.325 -929.994 -539.948 -3104.927 2.622 1.584 0.225 -0.12 0.63 -0.76 0.05
1 4.33 433 -0.249 -11.813 2.040 -43.457 16.785 18.890 -929.994 -539.948 -3104.927 1.356 2.215 -0.403 -0.12 0.63 -0.76 0.05
1 4.34 434 0.804 -12.570 2.275 -29.511 11.688 12.695 -944.984 -644.880 -3074.947 0.266 2.957 -0.701 -0.12 0.64 -0.76 0.05
1 4.35 435 0.862 -12.637 2.878 -31.647 31.830 20.691 -824.913 -629.890 -3059.957 0.162 3.006 -1.385 -0.11 0.64 -0.76 0.05
1 4.36 436 0.254 -12.005 2.749 -36.102 41.046 31.952 -869.883 -449.857 -2939.885 0.729 2.363 -1.298 -0.11 0.64 -0.76 0.05
1 4.37 437 -0.287 -11.349 2.466 -27.954 40.283 39.368 -869.883 -449.857 -2939.885 1.211 1.694 -1.061 -0.11 0.65 -0.75 0.05
1 4.38 438 -0.723 -10.717 1.959 -11.078 27.954 38.422 -764.952 -599.909 -3044.966 1.581 1.052 -0.582 -0.1 0.65 -0.75 0.05
1 4.39 439 -0.737 -9.941 1.915 8.301 6.104 30.792 -659.870 -524.958 -2939.885 1.537 0.270 -0.544 -0.1 0.65 -0.75 0.05
1 4.40 440 0.532 -8.835 2.097 32.410 -33.722 17.212 -659.870 -524.958 -2939.885 0.215 -0.836 -0.701 -0.1 0.65 -0.75 0.06
1 4.41 441 2.188 -8.212 2.179 39.307 -53.833 7.599 -824.913 -464.997 -2984.855 -1.470 -1.454 -0.736 -0.1 0.65 -0.76 0.06
1 4.42 442 4.678 -7.298 2.208 32.105 -56.305 -5.005 -659.870 -524.958 -2969.865 -3.946 -2.351 -0.655 -0.1 0.64 -0.76 0.07
1 4.43 443 5.943 -7.116 2.356 17.120 -35.950 -5.829 -779.942 -584.919 -2849.943 -5.160 -2.522 -0.759 -0.11 0.64 -0.76 0.07
1 4.44 444 6.029 -7.111 2.528 1.190 -4.669 -0.183 -779.942 -584.919 -2849.943 -5.192 -2.518 -0.907 -0.11 0.64 -0.76 0.07
1 4.45 445 5.713 -7.279 2.562 -12.634 28.595 9.125 -734.971 -449.857 -3044.966 -4.838 -2.345 -0.933 -0.11 0.64 -0.76 0.07
1 4.46 446 4.535 -7.652 2.595 -23.499 56.885 15.228 -854.893 -584.919 -2984.855 -3.646 -1.972 -0.974 -0.11 0.64 -0.76 0.06
1 4.47 447 2.653 -8.505 2.002 -30.548 75.226 13.825 -854.893 -584.919 -2984.855 -1.769 -1.123 -0.399 -0.11 0.64 -0.76 0.06
1 4.48 448 1.585 -9.319 2.021 -27.466 68.665 9.186 -734.971 -644.880 -3044.966 -0.718 -0.315 -0.444 -0.11 0.64 -0.76 0.06
1 4.49 449 0.819 -10.032 2.121 -23.285 54.260 3.937 -734.971 -644.880 -3044.966 0.030 0.393 -0.571 -0.1 0.64 -0.76 0.05
1 4.50 450 0.527 -10.525 2.174 -18.982 31.738 -9.430 -494.978 -584.919 -2984.855 0.299 0.877 -0.667 -0.1 0.64 -0.76 0.05
1 4.51 451 0.565 -10.645 2.093 -15.198 18.066 -17.822 -494.978 -584.919 -2984.855 0.269 0.995 -0.603 -0.09 0.64 -0.76 0.04
1 4.52 452 0.958 -10.358 1.791 -4.334 7.477 -23.468 -659.870 -494.978 -2939.885 -0.096 0.708 -0.317 -0.09 0.64 -0.76 0.04
1 4.53 453 1.484 -9.936 1.671 8.453 2.228 -25.055 -584.919 -524.958 -2894.914 -0.588 0.290 -0.195 -0.1 0.64 -0.76 0.04
1 4.54 454 2.409 -9.237 1.686 9.369 5.615 -19.653 -584.919 -524.958 -2894.914 -1.472 -0.403 -0.192 -0.1 0.64 -0.76 0.04
1 4.55 455 2.696 -9.117 1.686 -1.526 14.496 -14.984 -599.909 -464.997 -2909.904 -1.721 -0.516 -0.172 -0.1 0.64 -0.76 0.04
1 4.56 456 2.811 -9.223 1.571 -10.925 26.123 -8.667 -614.899 -599.909 -3014.986 -1.775 -0.404 -0.056 -0.1 0.64 -0.76 0.03
1 4.57 457 2.624 -9.347 1.733 -10.345 28.748 -7.782 -599.909 -629.890 -2984.855 -1.569 -0.279 -0.228 -0.1 0.64 -0.76 0.03
1 4.58 458 2.322 -9.448 1.738 -2.533 31.860 -9.399 -599.909 -629.890 -2984.855 -1.249 -0.176 -0.234 -0.1 0.64 -0.76 0.03
1 4.59 459 2.117 -9.453 1.901 -0.061 31.036 -11.444 -674.860 -464.997 -3059.957 -1.025 -0.169 -0.391 -0.1 0.64 -0.76 0.03
1 4.60 460 1.882 -9.659 1.944 -1.343 29.968 -13.641 -779.942 -704.991 -2954.875 -0.770 0.041 -0.425 -0.1 0.64 -0.76 0.02
1 4.61 461 1.470 -9.836 1.863 -3.754 28.076 -14.465 -779.942 -704.991 -2954.875 -0.337 0.222 -0.337 -0.09 0.64 -0.76 0.02
1 4.62 462 1.092 -9.860 1.767 -1.251 23.651 -11.719 -690.000 -569.929 -2969.865 0.060 0.249 -0.238 -0.09 0.64 -0.76 0.02
1 4.63 463 0.876 -9.793 1.767 5.585 17.670 -9.613 -690.000 -569.929 -2969.865 0.289 0.184 -0.233 -0.09 0.64 -0.76 0.02
1 4.64 464 0.919 -9.323 1.465 18.036 8.148 -6.531 -674.860 -584.919 -3029.976 0.264 -0.278 0.104 -0.09 0.64 -0.76 0.02
1 4.65 465 1.212 -8.859 1.623 20.508 3.754 -4.334 -674.860 -584.919 -3029.976 -0.022 -0.736 -0.024 -0.09 0.64 -0.76 0.02
1 4.66 466 1.700 -8.682 1.513 18.036 1.343 -1.251 -629.890 -539.948 -2879.924 -0.504 -0.907 0.118 -0.09 0.64 -0.76 0.02
1 4.67 467 2.040 -8.490 1.542 11.475 1.801 2.411 -764.952 -719.981 -2969.865 -0.840 -1.094 0.115 -0.09 0.64 -0.76 0.02
1 4.68 468 2.337 -8.548 1.561 5.035 3.601 4.913 -764.952 -719.981 -2969.865 -1.134 -1.033 0.112 -0.09 0.64 -0.76 0.02
1 4.69 469 2.739 -8.801 1.642 -1.404 8.850 6.866 -599.909 -659.870 -2984.855 -1.535 -0.778 0.039 -0.09 0.64 -0.77 0.02
1 4.70 470 2.739 -9.170 1.638 -3.143 13.397 7.538 -599.909 -659.870 -2984.855 -1.535 -0.409 0.045 -0.09 0.64 -0.77 0.02
1 4.71 471 2.667 -9.232 1.575 -4.822 16.937 7.507 -494.978 -629.890 -3059.957 -1.464 -0.347 0.107 -0.09 0.64 -0.77 0.02
1 4.72 472 2.217 -9.371 1.532 -1.343 18.799 6.958 -599.909 -539.948 -2909.904 -1.019 -0.209 0.148 -0.09 0.64 -0.77 0.01
1 4.73 473 1.858 -9.271 1.317 2.533 18.005 6.378 -629.890 -704.991 -2879.924 -0.665 -0.310 0.367 -0.09 0.64 -0.77 0.01
1 4.74 474 1.848 -8.912 1.183 4.791 16.480 7.385 -614.899 -599.909 -2939.885 -0.663 -0.668 0.508 -0.09 0.64 -0.77 0.01
1 4.75 475 1.915 -8.787 1.101 4.913 15.228 8.545 -614.899 -599.909 -2939.885 -0.738 -0.792 0.598 -0.09 0.64 -0.77 0.01
1 4.76 476 2.112 -8.825 1.240 -3.387 15.991 10.101 -509.968 -569.929 -3014.986 -0.944 -0.754 0.465 -0.09 0.64 -0.77 0.01
1 4.77 477 2.227 -8.955 1.331 -8.545 18.341 11.749 -509.968 -569.929 -3014.986 -1.069 -0.626 0.373 -0.09 0.64 -0.77 0.01
1 4.78 478 2.284 -9.271 1.255 -7.324 20.996 12.970 -509.968 -749.961 -2939.885 -1.139 -0.314 0.440 -0.09 0.64 -0.77 0.01
1 4.79 479 2.208 -9.184 1.015 2.075 25.757 13.153 -614.899 -719.981 -2864.934 -1.092 -0.405 0.668 -0.08 0.64 -0.77 0.01
1 4.80 480 2.169 -9.084 0.991 3.937 28.259 11.963 -509.968 -599.909 -2939.885 -1.069 -0.507 0.698 -0.08 0.64 -0.77 0.01
1 4.81 481 1.997 -8.993 0.977 1.129 30.182 11.688 -629.890 -584.919 -3029.976 -0.912 -0.598 0.719 -0.08 0.64 -0.77 0.01
1 4.82 482 1.930 -9.074 0.934 -5.188 31.647 11.627 -629.890 -584.919 -3029.976 -0.861 -0.518 0.763 -0.08 0.64 -0.77 0.01
1 4.83 483 1.805 -9.165 1.039 -8.392 33.386 11.505 -494.978 -509.968 -2879.924 -0.754 -0.431 0.650 -0.08 0.64 -0.77 0.01
1 4.84 484 1.762 -9.319 0.900 -7.019 38.910 10.956 -494.978 -509.968 -2879.924 -0.729 -0.281 0.778 -0.07 0.64 -0.77 0.01
1 4.85 485 1.571 -9.390 0.800 -3.967 43.244 10.040 -464.997 -449.857 -2864.934 -0.555 -0.213 0.870 -0.07 0.64 -0.76 0
1 4.86 486 0.982 -9.113 0.661 0.092 45.380 9.399 -299.955 -779.942 -2849.943 -0.005 -0.496 1.003 -0.07 0.64 -0.76 0
1 4.87 487 0.766 -9.074 0.570 -0.641 42.816 9.247 -434.867 -524.958 -2864.934 0.188 -0.536 1.095 0.06 -0.64 0.76 0
1 4.88 488 0.632 -9.252 0.795 -5.890 35.217 10.345 -329.935 -674.860 -3014.986 0.298 -0.362 0.867 0.06 -0.64 0.76 0
1 4.89 489 0.838 -9.381 0.771 -5.402 27.954 9.003 -329.935 -674.860 -3014.986 0.068 -0.236 0.881 0.06 -0.64 0.76 0
1 4.90 490 1.207 -9.654 0.350 -0.031 24.841 7.813 -374.906 -734.971 -2849.943 -0.320 0.034 1.296 0.06 -0.64 0.76 0
1 4.91 491 1.547 -9.496 0.024 3.906 28.259 10.254 -374.906 -734.971 -2849.943 -0.675 -0.126 1.619 0.05 -0.64 0.76 0
1 4.92 492 1.518 -9.003 -0.062 6.622 32.227 11.322 -194.873 -704.991 -2849.943 -0.662 -0.621 1.705 0.05 -0.64 0.76 0.01
1 4.93 493 1.408 -8.509 0.503 4.761 33.142 11.353 -254.984 -674.860 -2894.914 -0.570 -1.115 1.142 0.05 -0.64 0.76 0.01
1 4.94 494 1.111 -9.065 3.362 -18.799 37.689 7.751 -269.974 -539.948 -2879.924 -0.314 -0.563 -1.713 0.05 -0.64 0.76 0.01
1 4.95 495 0.661 -12.153 4.008 -49.957 53.681 0.671 -209.863 -794.932 -2939.885 0.121 2.521 -2.381 0.04 -0.64 0.76 0.01
1 4.96 496 -0.895 -15.754 4.525 -69.000 55.084 -1.923 -209.863 -794.932 -2939.885 1.665 6.108 -2.976 0.04 -0.65 0.76 0.01
1 4.97 497 -2.299 -15.754 3.893 8.026 43.915 -20.966 -104.932 -599.909 -3014.986 3.064 6.096 -2.421 0.04 -0.65 0.76 0.02
1 4.98 498 -2.299 -11.689 2.150 125.550 14.526 -59.387 -104.932 -599.909 -3014.986 3.099 2.043 -0.614 0.04 -0.65 0.76 0.02
1 4.99 499 -1.293 -8.476 2.763 78.644 -1.526 -64.606 -194.873 -779.942 -2774.992 2.171 -1.133 -1.046 0.04 -0.64 0.77 0.02
1 5.00 500 -0.144 -7.887 1.786 3.357 -24.078 -69.062 -134.912 -524.958 -2894.914 1.201 -1.667 0.124 0.05 -0.63 0.77 0.03
1 5.01 501 0.450 -8.251 1.599 0.275 -36.469 -66.132 -164.893 -659.870 -2954.875 0.717 -1.290 0.310 0.05 -0.63 0.77 0.03
1 5.02 502 2.567 -9.175 2.490 23.560 -34.729 -38.544 -224.854 -704.991 -2954.875 -1.306 -0.352 -0.571 0.06 -0.63 0.77 0.03
1 5.03 503 3.994 -9.481 1.992 30.029 -14.862 -14.984 -224.854 -704.991 -2954.875 -2.669 -0.030 -0.036 0.06 -0.63 0.77 0.03
1 5.04 504 4.592 -9.577 2.342 17.731 -13.153 3.174 -389.896 -869.883 -2864.934 -3.231 0.080 -0.344 0.06 -0.63 0.78 0.03
1 5.05 505 5.129 -9.797 3.821 -14.435 -10.223 7.446 -389.896 -869.883 -2864.934 -3.759 0.304 -1.810 0.06 -0.63 0.78 0.03
1 5.06 506 4.745 -11.564 3.721 -56.091 16.571 6.409 -299.955 -704.991 -2954.875 -3.383 2.063 -1.745 0.06 -0.63 0.77 0.03
1 5.07 507 3.012 -12.551 3.318 -48.004 32.745 3.662 -419.876 -704.991 -2849.943 -1.662 3.033 -1.414 0.06 -0.63 0.77 0.03
1 5.08 508 0.402 -11.660 2.629 -4.425 41.962 -0.122 -494.978 -809.922 -2909.904 0.922 2.120 -0.821 0.06 -0.64 0.77 0.04
1 5.09 509 -0.680 -10.631 2.193 4.059 33.417 0.427 -209.863 -719.981 -3014.986 1.995 1.091 -0.377 0.06 -0.64 0.77 0.04
1 5.10 510 -1.259 -9.649 1.748 -6.409 21.027 0.000 -209.863 -719.981 -3014.986 2.566 0.110 0.079 0.06 -0.64 0.77 0.04
1 5.11 511 -1.245 -9.208 2.045 -20.111 7.874 0.580 -194.873 -629.890 -2954.875 2.529 -0.335 -0.227 0.05 -0.64 0.77 0.04
1 5.12 512 -1.417 -9.151 2.294 -28.839 -6.561 -1.617 -194.873 -629.890 -2954.875 2.682 -0.401 -0.504 0.05 -0.64 0.77 0.04
1 5.13 513 -1.494 -9.410 2.413 -32.257 -16.663 -4.211 -224.854 -779.942 -3029.976 2.743 -0.151 -0.661 0.05 -0.64 0.77 0.04
1 5.14 514 -1.403 -9.711 2.624 -35.675 -28.473 -5.310 -299.955 -539.948 -2909.904 2.642 0.142 -0.913 0.05 -0.64 0.77 0.04
1 5.15 515 -1.058 -9.769 2.916 -34.882 -40.924 -5.798 -254.984 -644.880 -2789.982 2.292 0.181 -1.305 0.06 -0.64 0.76 0.03
1 5.16 516 -0.809 -9.730 2.921 -28.870 -44.586 -8.850 -194.873 -704.991 -2909.904 2.046 0.136 -1.356 0.06 -0.65 0.76 0.03
1 5.17 517 -0.560 -9.706 2.835 -20.660 -47.211 -13.428 -194.873 -704.991 -2909.904 1.806 0.107 -1.306 0.06 -0.65 0.76 0.03
1 5.18 518 -0.407 -9.410 2.619 -12.390 -49.378 -16.419 -269.974 -704.991 -2954.875 1.672 -0.191 -1.115 0.06 -0.65 0.76 0.03
1 5.19 519 -0.230 -9.390 2.706 -6.561 -51.056 -18.097 -269.974 -704.991 -2954.875 1.520 -0.210 -1.216 0.07 -0.65 0.76 0.02
1 5.20 520 0.000 -9.343 2.710 -8.057 -49.622 -14.496 -434.867 -599.909 -2789.982 1.318 -0.255 -1.230 0.07 -0.65 0.76 0.02
1 5.21 521 0.196 -9.366 2.552 -11.383 -45.899 -9.644 -434.867 -569.929 -2714.881 1.146 -0.229 -1.081 0.07 -0.65 0.76 0.02
1 5.22 522 -0.048 -9.501 2.490 -11.688 -40.009 -4.242 -434.867 -569.929 -2714.881 1.408 -0.095 -1.033 0.08 -0.65 0.76 0.02
1 5.23 523 -0.421 -9.702 2.136 -7.050 -33.173 2.899 -569.929 -584.919 -2669.911 1.790 0.103 -0.707 0.08 -0.65 0.76 0.01
1 5.24 524 -0.838 -9.534 1.968 -6.134 -36.469 5.768 -569.929 -584.919 -2669.911 2.197 -0.067 -0.549 0.08 -0.65 0.76 0.01
1 5.25 525 -0.919 -9.390 1.820 -6.928 -43.793 7.355 -449.857 -659.870 -2669.911 2.264 -0.214 -0.411 0.08 -0.65 0.76 0.01
1 5.26 526 -0.651 -9.290 1.853 -7.019 -51.880 8.362 -449.857 -659.870 -2669.911 1.979 -0.319 -0.460 0.09 -0.65 0.76 0
1 5.27 527 -0.115 -9.462 1.896 -3.143 -56.641 9.094 -569.929 -584.919 -2849.943 1.428 -0.151 -0.518 0.09 -0.65 0.76 0
1 5.28 528 0.637 -9.194 1.992 5.280 -53.711 11.108 -569.929 -584.919 -2804.973 0.663 -0.422 -0.622 -0.09 0.65 -0.75 0
1 5.29 529 0.814 -9.046 2.097 5.890 -48.065 11.810 -569.929 -584.919 -2804.973 0.475 -0.572 -0.726 -0.09 0.65 -0.75 0.01
1 5.30 530 0.833 -9.089 2.188 -1.709 -40.039 12.787 -764.952 -419.876 -2639.930 0.435 -0.530 -0.809 -0.1 0.65 -0.76 0.01
1 5.31 531 0.742 -9.046 2.212 -5.646 -36.469 12.329 -764.952 -419.876 -2639.930 0.514 -0.576 -0.837 -0.1 0.65 -0.75 0.02
1 5.32 532 0.709 -9.218 2.083 -5.798 -33.966 8.575 -614.899 -569.929 -2609.950 0.536 -0.406 -0.715 -0.1 0.65 -0.75 0.02
1 5.33 533 0.627 -9.309 1.944 -3.143 -32.623 5.249 -614.899 -569.929 -2609.950 0.610 -0.317 -0.583 -0.1 0.65 -0.75 0.02
1 5.34 534 0.397 -9.252 1.930 2.502 -32.105 3.601 -674.860 -584.919 -2804.973 0.836 -0.375 -0.571 -0.1 0.65 -0.75 0.02
1 5.35 535 0.426 -8.825 2.011 8.118 -32.044 1.801 -749.961 -509.968 -2699.891 0.805 -0.801 -0.647 -0.11 0.65 -0.75 0.03
1 5.36 536 0.603 -8.849 1.949 5.219 -31.067 2.350 -749.961 -509.968 -2699.891 0.626 -0.775 -0.573 -0.11 0.65 -0.75 0.03
1 5.37 537 0.661 -8.988 1.772 -3.967 -29.022 1.312 -659.870 -599.909 -2864.934 0.569 -0.635 -0.385 -0.11 0.65 -0.75 0.03
1 5.38 538 0.785 -9.065 1.848 -5.310 -28.809 1.129 -659.870 -599.909 -2864.934 0.446 -0.559 -0.469 -0.11 0.65 -0.75 0.04
1 5.39 539 0.934 -9.366 1.805 -0.549 -27.069 0.916 -839.903 -524.958 -2609.950 0.301 -0.258 -0.431 -0.11 0.65 -0.75 0.04
1 5.40 540 1.125 -9.400 1.738 3.571 -24.445 1.526 -839.903 -524.958 -2609.950 0.113 -0.224 -0.362 -0.12 0.65 -0.75 0.04
1 5.41 541 1.063 -9.343 1.638 4.120 -21.210 2.563 -899.864 -659.870 -2729.872 0.176 -0.280 -0.256 -0.12 0.64 -0.75 0.04
1 5.42 542 1.020 -9.137 1.461 3.693 -17.426 2.472 -734.971 -644.880 -2759.852 0.220 -0.485 -0.072 -0.12 0.64 -0.75 0.04
1 5.43 543 0.795 -9.271 1.355 3.326 -15.472 1.404 -734.971 -644.880 -2759.852 0.445 -0.350 0.038 -0.12 0.64 -0.75 0.04
1 5.44 544 0.809 -9.314 1.240 1.831 -15.503 -0.916 -974.965 -539.948 -2804.973 0.433 -0.306 0.159 -0.12 0.64 -0.75 0.04
1 5.45 545 0.761 -9.223 1.149 0.946 -15.533 -1.007 -974.965 -539.948 -2804.973 0.484 -0.397 0.250 -0.12 0.64 -0.75 0.05
1 5.46 546 0.627 -9.290 1.159 1.526 -15.961 -1.892 -704.991 -659.870 -2804.973 0.622 -0.329 0.239 -0.12 0.64 -0.75 0.05
1 5.47 547 0.766 -9.237 1.192 2.991 -17.578 -2.502 -704.991 -659.870 -2804.973 0.487 -0.381 0.205 -0.13 0.64 -0.75 0.05
1 5.48 548 1.058 -9.338 1.288 5.219 -17.670 -3.418 -914.854 -599.909 -2789.982 0.200 -0.280 0.112 -0.13 0.64 -0.75 0.05
1 5.49 549 1.125 -9.242 1.279 6.012 -15.656 -4.547 -899.864 -434.867 -2774.992 0.141 -0.374 0.126 -0.13 0.64 -0.75 0.05
1 5.50 550 1.279 -9.314 1.350 3.876 -9.735 -7.538 -899.864 -434.867 -2774.992 -0.001 -0.299 0.061 -0.13 0.64 -0.75 0.05
1 5.51 551 1.087 -9.587 1.279 1.190 -4.913 -9.064 -854.893 -539.948 -2624.940 0.204 -0.024 0.138 -0.13 0.64 -0.75 0.05
1 5.52 552 0.450 -9.903 1.235 -0.427 -1.801 -11.475 -944.984 -524.958 -2639.930 0.871 0.296 0.183 -0.13 0.64 -0.75 0.05
1 5.53 553 0.330 -10.056 0.963 1.251 -3.387 -12.390 -794.932 -599.909 -2684.901 1.003 0.451 0.455 -0.13 0.64 -0.75 0.05
1 5.54 554 0.158 -10.094 0.872 2.625 -7.568 -13.794 -794.932 -599.909 -2684.901 1.188 0.491 0.546 -0.13 0.64 -0.75 0.05
1 5.55 555 0.503 -10.118 0.919 5.920 -11.566 -16.510 -899.864 -629.890 -2774.992 0.858 0.517 0.497 -0.13 0.64 -0.75 0.05
1 5.56 556 0.503 -9.807 1.106 9.979 -13.367 -16.174 -1034.926 -704.991 -2669.911 0.878 0.210 0.316 -0.14 0.64 -0.75 0.05
1 5.57 557 0.924 -9.678 1.034 10.040 -13.580 -16.388 -1034.926 -704.991 -2669.911 0.478 0.085 0.398 -0.14 0.64 -0.76 0.05
1 5.58 558 1.006 -9.735 0.967 8.850 -14.099 -15.137 -929.994 -509.968 -2699.891 0.420 0.147 0.475 -0.14 0.64 -0.76 0.05
1 5.59 559 1.049 -9.510 1.010 7.019 -14.557 -14.160 -869.883 -644.880 -2894.914 0.423 -0.069 0.445 -0.14 0.64 -0.76 0.05
1 5.60 560 0.977 -9.438 0.895 9.399 -15.442 -12.909 -1064.906 -599.909 -2789.982 0.517 -0.136 0.566 -0.14 0.64 -0.76 0.05
1 5.61 561 1.010 -9.433 0.742 9.888 -18.219 -11.047 -1064.906 -599.909 -2789.982 0.502 -0.137 0.727 -0.15 0.64 -0.76 0.05
1 5.62 562 1.001 -9.089 0.536 10.803 -20.416 -10.498 -1094.887 -794.932 -2684.901 0.529 -0.478 0.940 -0.15 0.63 -0.76 0.05
1 5.63 563 1.192 -8.902 0.488 10.681 -22.369 -10.498 -1004.945 -779.942 -2774.992 0.355 -0.661 0.994 -0.15 0.63 -0.76 0.05
1 5.64 564 1.408 -8.725 0.254 5.432 -22.583 -6.073 -1004.945 -779.942 -2774.992 0.159 -0.834 1.234 -0.15 0.63 -0.76 0.05
1 5.65 565 1.484 -8.758 0.144 2.014 -21.423 -3.052 -1034.926 -659.870 -2699.891 0.097 -0.798 1.343 -0.15 0.63 -0.76 0.06
1 5.66 566 1.566 -8.720 -0.115 -1.190 -16.907 -0.977 -1079.896 -629.890 -2774.992 0.027 -0.836 1.593 -0.15 0.63 -0.76 0.06
1 5.67 567 1.245 -8.552 -0.211 -6.073 -9.888 -1.526 -1109.877 -809.922 -2699.891 0.363 -1.005 1.663 -0.16 0.63 -0.76 0.06
1 5.68 568 0.891 -8.552 -0.010 -11.292 -7.202 -1.617 -1109.877 -809.922 -2699.891 0.722 -1.006 1.450 -0.16 0.63 -0.76 0.06
1 5.69 569 0.632 -8.797 0.919 -20.599 -11.169 -0.275 -1019.936 -749.961 -2684.901 0.986 -0.764 0.502 -0.16 0.63 -0.75 0.06
1 5.70 570 1.039 -10.161 1.585 -40.894 -32.013 5.859 -1064.906 -569.929 -2609.950 0.579 0.595 -0.204 -0.16 0.64 -0.75 0.06
1 5.71 571 2.849 -13.125 3.208 -72.418 -52.612 17.548 -1064.906 -569.929 -2609.950 -1.240 3.547 -1.906 -0.16 0.64 -0.75 0.06
1 5.72 572 5.655 -17.071 4.233 -53.345 -28.778 28.961 -1199.968 -674.860 -2759.852 -4.065 7.473 -3.058 -0.16 0.64 -0.75 0.06
1 5.73 573 4.525 -16.573 3.912 24.750 6.500 45.166 -1079.896 -659.870 -2729.872 -2.966 6.957 -2.844 -0.17 0.65 -0.74 0.07
1 5.74 574 2.519 -12.613 2.399 24.750 34.119 70.465 -1154.998 -779.942 -2624.940 -1.110 2.983 -1.251 -0.16 0.64 -0.74 0.07
1 5.75 575 1.513 -11.789 1.360 -16.327 34.302 72.205 -1154.998 -779.942 -2624.940 -0.216 2.147 -0.182 -0.15 0.64 -0.74 0.08
1 5.76 576 0.412 -11.880 1.226 -39.703 33.264 63.019 -1184.978 -539.948 -2519.858 0.776 2.221 -0.075 -0.15 0.65 -0.74 0.08
1 5.77 577 -0.048 -11.540 1.417 -36.347 30.457 46.784 -1079.896 -584.919 -2549.989 1.143 1.864 -0.320 -0.15 0.65 -0.74 0.08
1 5.78 578 0.589 -11.157 1.307 -20.172 17.456 30.151 -1079.896 -584.919 -2549.989 0.440 1.469 -0.252 -0.14 0.65 -0.74 0.08
1 5.79 579 1.039 -11.464 1.834 -12.665 23.316 9.552 -1079.896 -509.968 -2549.989 -0.051 1.769 -0.801 -0.14 0.65 -0.74 0.08
1 5.80 580 0.757 -11.727 2.437 -21.668 31.708 5.463 -869.883 -644.880 -2534.999 0.211 2.029 -1.417 -0.14 0.65 -0.74 0.08
1 5.81 581 -0.201 -12.158 2.662 -24.811 20.416 9.491 -854.893 -659.870 -2549.989 1.143 2.451 -1.698 -0.14 0.66 -0.74 0.08
1 5.82 582 -0.407 -12.240 2.940 -20.935 14.984 11.688 -854.893 -659.870 -2549.989 1.332 2.528 -2.006 -0.13 0.66 -0.74 0.08
1 5.83 583 -0.886 -11.713 2.773 8.789 -3.174 17.548 -899.864 -629.890 -2444.907 1.790 1.998 -1.851 -0.13 0.66 -0.74 0.08
1 5.84 584 -0.278 -10.717 2.179 45.014 -24.994 20.050 -839.903 -524.958 -2639.930 1.156 1.002 -1.231 -0.13 0.66 -0.74 0.08
1 5.85 585 0.694 -9.204 1.657 81.024 -52.307 14.465 -839.903 -524.958 -2639.930 0.161 -0.505 -0.630 -0.13 0.66 -0.74 0.08
1 5.86 586 3.304 -7.236 1.144 102.997 -81.238 2.655 -839.903 -674.860 -2504.868 -2.459 -2.459 0.012 -0.14 0.65 -0.74 0.09
1 5.87 587 5.186 -6.421 1.585 80.628 -74.768 2.625 -839.903 -599.909 -2639.930 -4.331 -3.254 -0.285 -0.14 0.64 -0.75 0.09
1 5.88 588 6.881 -6.196 2.002 8.423 -28.412 6.653 -1004.945 -704.991 -2804.973 -6.006 -3.451 -0.516 -0.14 0.64 -0.75 0.1
1 5.89 589 6.896 -6.364 2.236 -15.076 -9.705 8.942 -1004.945 -704.991 -2804.973 -5.980 -3.279 -0.750 -0.15 0.63 -0.75 0.1
1 5.90 590 5.732 -7.887 2.380 -44.098 44.983 12.390 -1004.945 -659.870 -2669.911 -4.789 -1.760 -0.935 -0.15 0.64 -0.75 0.1
1 5.91 591 4.219 -8.912 1.911 -30.457 75.745 12.116 -1004.945 -704.991 -2699.891 -3.265 -0.741 -0.510 -0.15 0.64 -0.75 0.1
1 5.92 592 2.140 -9.381 1.408 -6.226 89.691 7.202 -1004.945 -704.991 -2699.891 -1.191 -0.275 -0.025 -0.14 0.64 -0.75 0.09
1 5.93 593 0.484 -9.237 1.475 13.153 82.642 -5.310 -869.883 -794.932 -2714.881 0.455 -0.417 -0.078 -0.14 0.64 -0.75 0.09
1 5.94 594 -0.560 -8.768 1.532 23.285 45.044 -27.222 -839.903 -719.981 -2564.979 1.497 -0.881 -0.098 -0.13 0.64 -0.75 0.08
1 5.95 595 -0.464 -8.739 1.504 15.289 18.677 -31.983 -839.903 -719.981 -2564.979 1.417 -0.902 -0.026 -0.13 0.64 -0.75 0.08
1 5.96 596 0.330 -8.811 1.389 -1.373 -1.556 -25.940 -914.854 -569.929 -2714.881 0.693 -0.816 0.134 -0.13 0.64 -0.76 0.07
1 5.97 597 0.986 -9.050 1.197 -1.709 -3.693 -18.158 -779.942 -809.922 -2669.911 0.069 -0.573 0.324 -0.13 0.64 -0.76 0.07
1 5.98 598 1.403 -9.275 1.173 5.402 -4.272 -10.468 -899.864 -539.948 -2624.940 -0.322 -0.345 0.347 -0.13 0.64 -0.76 0.07
1 5.99 599 2.040 -9.419 1.437 11.261 -3.479 -3.418 -899.864 -539.948 -2624.940 -0.943 -0.198 0.093 -0.13 0.64 -0.76 0.07
1 6.00 600 2.557 -9.462 1.676 11.902 -1.801 2.350 -869.883 -719.981 -2564.979 -1.449 -0.151 -0.129 -0.13 0.63 -0.76 0.07
1 6.01 601 3.194 -9.386 1.542 9.094 2.625 4.547 -824.913 -779.942 -2729.872 -2.079 -0.224 0.023 -0.14 0.63 -0.76 0.07
1 6.02 602 3.232 -9.113 1.484 10.223 5.920 2.838 -824.913 -779.942 -2729.872 -2.110 -0.494 0.096 -0.14 0.63 -0.76 0.07
1 6.03 603 2.974 -8.926 1.676 11.536 14.465 1.862 -989.955 -749.961 -2504.868 -1.829 -0.672 -0.059 -0.14 0.63 -0.76 0.07
1 6.04 604 2.648 -8.950 1.762 11.871 19.470 3.387 -974.965 -809.922 -2699.891 -1.494 -0.643 -0.123 -0.14 0.63 -0.76 0.07
1 6.05 605 2.356 -8.912 1.719 10.101 21.515 6.042 -989.955 -839.903 -2789.982 -1.199 -0.677 -0.057 -0.13 0.63 -0.76 0.07
1 6.06 606 2.016 -9.026 1.609 8.179 20.355 6.378 -989.955 -839.903 -2789.982 -0.863 -0.559 0.073 -0.13 0.63 -0.76 0.07
1 6.07 607 1.829 -9.046 1.705 7.355 17.242 6.409 -839.903 -719.981 -2684.901 -0.682 -0.538 -0.006 -0.13 0.63 -0.76 0.07
1 6.08 608 2.059 -9.328 1.781 3.632 12.299 7.446 -854.893 -629.890 -2804.973 -0.919 -0.253 -0.067 -0.13 0.63 -0.76 0.07
1 6.09 609 2.428 -9.568 1.733 1.678 14.343 8.728 -854.893 -629.890 -2804.973 -1.295 -0.013 -0.009 -0.13 0.63 -0.76 0.07
1 6.10 610 2.519 -9.654 1.690 3.815 18.372 10.010 -974.965 -809.922 -2729.872 -1.393 0.074 0.042 -0.13 0.63 -0.76 0.07
1 6.11 611 2.480 -9.443 1.642 13.092 25.116 11.200 -824.913 -734.971 -2669.911 -1.372 -0.134 0.115 -0.13 0.63 -0.77 0.07
1 6.12 612 2.500 -9.199 1.427 19.592 26.154 10.071 -824.913 -809.922 -2774.992 -1.402 -0.375 0.358 -0.13 0.63 -0.77 0.06
1 6.13 613 2.480 -8.787 1.331 21.027 26.337 7.141 -824.913 -809.922 -2774.992 -1.393 -0.781 0.487 -0.12 0.63 -0.77 0.06
1 6.14 614 2.682 -8.543 1.221 15.991 25.421 4.059 -794.932 -749.961 -2714.881 -1.599 -1.020 0.630 -0.12 0.62 -0.77 0.06
1 6.15 615 2.816 -8.552 1.188 8.057 26.978 1.404 -869.883 -794.932 -2684.901 -1.732 -1.006 0.686 -0.12 0.62 -0.77 0.06
1 6.16 616 2.859 -8.787 1.178 1.068 31.342 -0.153 -869.883 -794.932 -2684.901 -1.769 -0.768 0.707 -0.12 0.62 -0.77 0.06
1 6.17 617 2.591 -9.031 1.058 -0.214 35.675 1.373 -854.893 -779.942 -2879.924 -1.495 -0.522 0.832 -0.12 0.62 -0.77 0.06
1 6.18 618 2.236 -9.108 1.331 3.235 42.633 4.181 -764.952 -839.903 -2864.934 -1.140 -0.444 0.567 -0.12 0.62 -0.77 0.05
1 6.19 619 2.069 -8.888 1.087 7.813 45.319 5.341 -779.942 -734.971 -2669.911 -0.981 -0.663 0.822 -0.11 0.62 -0.77 0.05
1 6.20 620 1.714 -8.720 1.001 10.620 45.929 4.578 -779.942 -734.971 -2669.911 -0.639 -0.828 0.925 -0.11 0.62 -0.77 0.05
1 6.21 621 1.638 -8.696 1.025 10.193 45.715 4.089 -704.991 -884.874 -2669.911 -0.575 -0.850 0.921 -0.11 0.62 -0.77 0.05
1 6.22 622 1.480 -8.639 0.915 6.592 46.631 5.341 -674.860 -884.874 -2699.891 -0.431 -0.905 1.048 -0.11 0.62 -0.77 0.05
1 6.23 623 1.264 -8.749 0.843 1.556 48.462 8.789 -674.860 -884.874 -2699.891 -0.234 -0.794 1.134 -0.1 0.62 -0.77 0.04
1 6.24 624 1.264 -8.782 0.910 -0.549 50.415 10.071 -629.890 -779.942 -2804.973 -0.258 -0.761 1.076 -0.1 0.62 -0.77 0.04
1 6.25 625 0.876 -8.686 0.675 3.204 52.033 11.261 -569.929 -779.942 -2849.943 0.075 -0.862 1.315 -0.09 0.62 -0.77 0.04
1 6.26 626 0.594 -8.658 0.781 5.859 51.148 10.895 -539.948 -749.961 -2789.982 0.327 -0.891 1.221 -0.09 0.62 -0.78 0.04
1 6.27 627 0.551 -8.203 0.527 10.986 44.678 7.111 -539.948 -749.961 -2789.982 0.343 -1.344 1.496 -0.09 0.62 -0.78 0.04
1 6.28 628 0.685 -7.925 0.350 8.728 38.605 5.524 -434.867 -914.854 -2759.852 0.186 -1.619 1.696 -0.08 0.62 -0.78 0.03
1 6.29 629 0.752 -7.896 0.110 -1.343 34.058 6.042 -569.929 -779.942 -2699.891 0.100 -1.646 1.951 -0.08 0.62 -0.78 0.03
1 6.30 630 1.183 -7.858 -0.048 -10.223 30.365 9.338 -569.929 -779.942 -2699.891 -0.350 -1.686 2.110 -0.08 0.62 -0.78 0.03
1 6.31 631 1.307 -7.805 -0.144 -13.397 28.809 11.353 -539.948 -914.854 -2819.963 -0.496 -1.743 2.196 -0.08 0.62 -0.78 0.03
1 6.32 632 2.054 -8.107 0.072 -18.799 27.863 13.489 -329.935 -794.932 -2789.982 -1.292 -1.452 1.948 -0.07 0.63 -0.78 0.03
1 6.33 633 2.131 -8.064 0.560 -20.996 27.557 14.496 -299.955 -779.942 -2729.872 -1.396 -1.503 1.435 -0.07 0.63 -0.78 0.03
1 6.34 634 2.212 -8.145 5.243 -30.914 42.816 11.932 -299.955 -779.942 -2729.872 -1.509 -1.430 -3.279 -0.07 0.63 -0.77 0.03
1 6.35 635 1.197 -11.531 5.311 -54.352 89.112 -10.071 -299.955 -779.942 -2729.872 -0.508 1.950 -3.368 -0.06 0.63 -0.77 0.02
1 6.36 636 -3.314 -18.177 4.520 -109.436 93.903 -23.865 -419.876 -629.890 -2804.973 4.005 8.581 -2.656 -0.06 0.63 -0.77 0.02
1 6.37 637 -5.449 -17.090 3.845 -11.078 40.894 -34.821 -419.876 -629.890 -2804.973 6.155 7.470 -2.118 -0.06 0.64 -0.77 0.01
1 6.38 638 -2.519 -11.268 4.147 148.011 -7.507 -74.097 -344.925 -734.971 -2669.911 3.281 1.662 -2.360 -0.06 0.64 -0.77 0.01
1 6.39 639 -0.474 -8.576 3.477 45.014 -12.939 -83.161 -344.925 -734.971 -2669.911 1.340 -0.977 -1.472 -0.06 0.63 -0.78 0
1 6.40 640 1.183 -8.706 2.504 -29.846 -47.547 -77.912 -329.935 -599.909 -2819.963 -0.079 -0.803 -0.406 0.07 -0.62 0.78 0
1 6.41 641 2.294 -9.592 2.236 -0.732 -45.807 -62.165 -329.935 -599.909 -2819.963 -1.063 0.090 -0.174 0.08 -0.62 0.78 0
1 6.42 642 4.343 -10.133 0.129 5.798 -22.675 -29.083 -344.925 -779.942 -2669.911 -3.015 0.645 1.933 0.08 -0.62 0.78 0.01
1 6.43 643 5.253 -9.596 0.618 -7.355 -19.409 1.251 -419.876 -884.874 -2804.973 -3.880 0.114 1.443 0.09 -0.62 0.78 0.01
1 6.44 644 5.042 -8.916 2.758 -33.112 -5.768 10.162 -419.876 -884.874 -2804.973 -3.670 -0.570 -0.719 0.09 -0.62 0.78 0.01
1 6.45 645 3.941 -10.530 3.084 -72.632 29.419 14.313 -539.948 -944.984 -2789.982 -2.555 1.034 -1.099 0.09 -0.63 0.78 0.01
1 6.46 646 2.212 -12.134 3.141 -89.142 34.485 14.130 -539.948 -944.984 -2789.982 -0.853 2.616 -1.246 0.08 -0.63 0.77 0.01
1 6.47 647 -0.254 -12.953 2.576 -56.244 43.976 7.294 -629.890 -734.971 -2729.872 1.557 3.384 -0.908 0.08 -0.64 0.76 0.01
1 6.48 648 -1.935 -12.168 2.241 -22.980 35.156 -2.045 -629.890 -734.971 -2729.872 3.221 2.587 -0.633 0.08 -0.64 0.76 0.01
1 6.49 649 -2.787 -10.918 2.136 -11.139 14.252 -10.620 -494.978 -704.991 -2669.911 4.073 1.333 -0.548 0.08 -0.64 0.76 0.01
1 6.50 650 -2.777 -9.740 1.968 -14.710 -13.763 -18.280 -434.867 -599.909 -2609.950 4.082 0.155 -0.395 0.08 -0.64 0.76 0.01
1 6.51 651 -1.968 -9.539 2.188 -25.665 -35.980 -25.147 -434.867 -599.909 -2609.950 3.292 -0.047 -0.641 0.08 -0.64 0.76 0.01
1 6.52 652 -0.527 -10.286 3.026 -44.800 -46.112 -27.405 -224.854 -629.890 -2549.989 1.875 0.696 -1.523 0.08 -0.65 0.76 0.01
1 6.53 653 0.101 -10.789 3.409 -48.371 -39.154 -19.775 -224.854 -629.890 -2549.989 1.281 1.194 -1.968 0.08 -0.65 0.76 0.01
1 6.54 654 0.235 -11.224 3.390 -42.847 -28.381 -12.024 -584.919 -569.929 -2609.950 1.182 1.624 -2.022 0.09 -0.65 0.75 0.01
1 6.55 655 -0.512 -11.488 3.137 -23.773 -18.066 -8.057 -434.867 -569.929 -2534.999 1.976 1.878 -1.895 0.09 -0.65 0.75 0.01
1 6.56 656 -1.255 -11.191 3.050 -8.698 -21.454 -7.690 -509.968 -569.929 -2384.946 2.734 1.579 -1.840 0.09 -0.66 0.75 0.01
1 6.57 657 -1.705 -10.616 2.811 2.411 -31.372 -7.751 -464.997 -599.909 -2459.897 3.201 1.006 -1.613 0.1 -0.66 0.75 0.01
1 6.58 658 -1.666 -10.147 2.629 7.324 -44.037 -8.667 -464.997 -599.909 -2459.897 3.183 0.539 -1.432 0.1 -0.66 0.75 0.01
1 6.59 659 -1.274 -9.817 2.418 7.050 -56.153 -7.202 -614.899 -524.958 -2639.930 2.800 0.211 -1.214 0.1 -0.65 0.75 0
1 6.60 660 -0.431 -9.438 2.169 -1.068 -67.078 -3.571 -614.899 -524.958 -2639.930 1.957 -0.166 -0.960 -0.1 0.65 -0.75 0
1 6.61 661 0.139 -9.587 2.208 -5.371 -65.766 1.221 -614.899 -494.978 -2609.950 1.388 -0.018 -1.003 -0.11 0.65 -0.75 0
1 6.62 662 0.848 -9.788 2.241 -8.087 -55.390 11.871 -704.991 -584.919 -2549.989 0.674 0.178 -1.066 -0.11 0.65 -0.75 0.01
1 6.63 663 1.154 -9.874 2.241 -5.066 -45.624 15.991 -734.971 -644.880 -2429.917 0.353 0.260 -1.080 -0.12 0.65 -0.75 0.02
1 6.64 664 1.164 -9.797 2.366 -0.183 -38.391 15.106 -690.000 -569.929 -2534.999 0.325 0.180 -1.211 -0.12 0.65 -0.75 0.02
1 6.65 665 0.838 -9.668 2.184 4.578 -34.332 11.810 -690.000 -569.929 -2534.999 0.635 0.049 -1.026 -0.12 0.65 -0.75 0.02
1 6.66 666 0.675 -9.563 2.035 9.369 -33.600 9.064 -659.870 -449.857 -2459.897 0.784 -0.057 -0.867 -0.12 0.65 -0.75 0.03
1 6.67 667 0.412 -8.979 1.935 17.914 -32.105 10.162 -659.870 -449.857 -2459.897 1.036 -0.641 -0.750 -0.12 0.65 -0.75 0.03
1 6.68 668 0.441 -8.505 1.609 21.240 -29.236 12.360 -674.860 -584.919 -2369.956 0.994 -1.114 -0.399 -0.12 0.65 -0.75 0.03
1 6.69 669 0.187 -7.997 1.484 16.327 -27.496 11.932 -794.932 -524.958 -2534.999 1.218 -1.619 -0.219 -0.13 0.65 -0.75 0.04
1 6.70 670 0.230 -7.997 1.475 11.749 -28.473 11.078 -824.913 -659.870 -2414.927 1.165 -1.618 -0.193 -0.13 0.65 -0.75 0.04
1 6.71 671 -0.062 -8.452 1.599 -5.219 -33.997 6.561 -779.942 -584.919 -2474.888 1.452 -1.164 -0.318 -0.13 0.65 -0.75 0.04
1 6.72 672 0.110 -8.945 1.523 -10.468 -38.056 3.876 -779.942 -584.919 -2474.888 1.279 -0.673 -0.258 -0.13 0.65 -0.75 0.04
1 6.73 673 0.201 -9.285 1.532 -5.585 -38.757 2.319 -824.913 -539.948 -2414.927 1.187 -0.336 -0.287 -0.13 0.65 -0.75 0.05
1 6.74 674 0.517 -9.352 1.480 10.437 -37.140 2.655 -824.913 -539.948 -2414.927 0.868 -0.270 -0.243 -0.14 0.65 -0.75 0.05
1 6.75 675 0.460 -8.821 1.360 17.456 -35.004 2.075 -824.913 -434.867 -2519.858 0.923 -0.801 -0.117 -0.14 0.65 -0.75 0.05
1 6.76 676 0.656 -8.591 1.279 12.939 -34.027 -0.183 -944.984 -599.909 -2564.979 0.728 -1.026 0.004 -0.14 0.64 -0.75 0.05
1 6.77 677 0.541 -8.538 1.197 9.369 -34.760 -2.014 -854.893 -584.919 -2594.959 0.853 -1.076 0.096 -0.14 0.64 -0.75 0.06
1 6.78 678 0.910 -8.811 1.216 -0.092 -36.102 -7.111 -839.903 -569.929 -2504.868 0.499 -0.801 0.077 -0.15 0.64 -0.75 0.06
1 6.79 679 0.948 -9.232 1.350 -0.916 -34.638 -8.423 -839.903 -569.929 -2504.868 0.479 -0.378 -0.065 -0.15 0.64 -0.75 0.06
1 6.80 680 1.240 -9.520 1.331 3.082 -31.555 -8.606 -794.932 -599.909 -2534.999 0.205 -0.088 -0.051 -0.15 0.64 -0.75 0.06
1 6.81 681 1.216 -9.635 1.432 6.836 -28.015 -7.324 -794.932 -599.909 -2534.999 0.247 0.029 -0.151 -0.15 0.64 -0.75 0.06
1 6.82 682 1.192 -9.414 1.298 11.841 -22.308 -6.195 -944.984 -374.906 -2504.868 0.286 -0.188 -0.010 -0.15 0.64 -0.75 0.06
1 6.83 683 1.001 -9.007 0.953 11.536 -20.264 -5.676 -989.955 -524.958 -2504.868 0.491 -0.591 0.347 -0.16 0.64 -0.75 0.06
1 6.84 684 0.881 -8.749 0.781 6.470 -18.677 -6.165 -914.854 -644.880 -2564.979 0.631 -0.843 0.543 -0.16 0.64 -0.75 0.07
1 6.85 685 0.804 -8.835 0.886 3.265 -18.311 -7.080 -1004.945 -464.997 -2519.858 0.720 -0.754 0.441 -0.16 0.64 -0.75 0.07
1 6.86 686 0.867 -8.725 0.800 2.411 -17.822 -7.568 -1004.945 -464.997 -2519.858 0.669 -0.863 0.526 -0.16 0.64 -0.75 0.07
1 6.87 687 0.900 -8.605 1.010 2.930 -16.510 -7.935 -1064.906 -644.880 -2564.979 0.651 -0.980 0.316 -0.16 0.64 -0.75 0.07
1 6.88 688 0.948 -8.768 0.699 2.136 -15.900 -8.179 -1064.906 -644.880 -2564.979 0.618 -0.815 0.628 -0.16 0.64 -0.75 0.07
1 6.89 689 0.661 -9.055 0.551 -2.625 -15.564 -8.484 -1064.906 -749.961 -2609.950 0.918 -0.526 0.773 -0.17 0.64 -0.75 0.07
1 6.90 690 0.637 -9.103 0.618 -4.822 -14.648 -9.003 -1064.906 -569.929 -2564.979 0.954 -0.477 0.697 -0.17 0.64 -0.75 0.07
1 6.91 691 0.608 -9.716 0.493 -4.974 -16.937 -9.705 -1079.896 -539.948 -2294.855 1.005 0.135 0.792 -0.17 0.64 -0.75 0.07
1 6.92 692 0.747 -10.046 0.493 -2.380 -18.738 -10.986 -1229.949 -509.968 -2474.888 0.878 0.466 0.777 -0.17 0.64 -0.75 0.07
1 6.93 693 0.771 -10.008 0.742 1.892 -20.477 -12.177 -1229.949 -509.968 -2474.888 0.868 0.428 0.516 -0.17 0.64 -0.75 0.07
1 6.94 694 1.111 -9.841 0.895 9.033 -21.271 -13.184 -899.864 -464.997 -2549.989 0.544 0.263 0.359 -0.18 0.64 -0.75 0.07
1 6.95 695 1.504 -9.726 0.900 15.015 -22.186 -12.238 -899.864 -464.997 -2549.989 0.171 0.153 0.363 -0.18 0.64 -0.75 0.07
1 6.96 696 1.556 -9.410 0.910 9.430 -22.797 -11.688 -1094.887 -524.958 -2459.897 0.140 -0.158 0.368 -0.18 0.63 -0.75 0.07
1 6.97 697 1.834 -9.098 0.809 7.050 -24.231 -10.986 -974.965 -629.890 -2594.959 -0.116 -0.464 0.478 -0.18 0.63 -0.75 0.08
1 6.98 698 1.858 -9.036 0.838 6.622 -24.994 -10.620 -974.965 -629.890 -2594.959 -0.118 -0.522 0.452 -0.18 0.63 -0.75 0.08
1 6.99 699 1.939 -9.127 0.512 6.317 -24.994 -9.888 -1154.998 -629.890 -2519.858 -0.154 -0.422 0.780 -0.19 0.63 -0.75 0.08
1 7.00 700 2.131 -9.343 0.086 3.479 -24.567 -9.247 -1154.998 -629.890 -2519.858 -0.323 -0.202 1.204 -0.19 0.63 -0.75 0.08
1 7.01 701 2.093 -9.467 -0.062 0.336 -21.698 -6.897 -1184.978 -629.890 -2519.858 -0.263 -0.075 1.343 -0.19 0.63 -0.75 0.08
1 7.02 702 1.844 -9.414 -0.728 -0.366 -16.266 -3.632 -1184.978 -629.890 -2519.858 0.002 -0.126 1.995 -0.19 0.63 -0.75 0.08
1 7.03 703 1.666 -9.366 -0.958 -2.686 -12.268 0.397 -1199.968 -644.880 -2429.917 0.189 -0.175 2.207 -0.19 0.63 -0.75 0.08
1 7.04 704 1.341 -9.386 -0.235 -19.226 -9.979 4.761 -1244.939 -524.958 -2564.979 0.515 -0.159 1.459 -0.2 0.63 -0.75 0.08
1 7.05 705 1.441 -9.960 0.828 -32.135 -18.280 8.820 -1244.939 -524.958 -2564.979 0.410 0.410 0.356 -0.2 0.63 -0.74 0.08
1 7.06 706 3.371 -13.743 2.452 -67.536 -39.765 27.893 -1154.998 -539.948 -2549.989 -1.552 4.171 -1.397 -0.2 0.64 -0.74 0.08
1 7.07 707 4.688 -15.774 3.108 -66.590 -28.442 33.325 -1154.998 -539.948 -2549.989 -2.905 6.183 -2.168 -0.2 0.64 -0.74 0.09
1 7.08 708 4.396 -16.473 3.113 -2.014 -5.920 39.642 -1169.988 -419.876 -2384.946 -2.659 6.866 -2.255 -0.2 0.65 -0.73 0.09
1 7.09 709 3.199 -15.132 3.084 29.144 19.257 55.878 -1169.988 -419.876 -2384.946 -1.525 5.516 -2.209 -0.2 0.65 -0.73 0.09
1 7.10 710 1.441 -12.474 2.773 -16.235 38.574 75.440 -1259.929 -434.867 -2519.858 0.141 2.847 -1.854 -0.19 0.64 -0.73 0.09
1 7.11 711 0.426 -12.642 1.887 -38.269 34.577 75.043 -1244.939 -449.857 -2354.966 1.044 2.996 -0.969 -0.19 0.65 -0.73 0.1
1 7.12 712 -0.057 -12.446 1.858 -39.337 33.020 64.514 -1244.939 -449.857 -2354.966 1.411 2.779 -0.981 -0.18 0.65 -0.73 0.1
1 7.13 713 0.733 -11.335 2.021 -17.456 19.531 42.603 -1094.887 -449.857 -2429.917 0.436 1.636 -1.233 -0.17 0.66 -0.73 0.1
1 7.14 714 0.972 -11.430 1.887 -10.559 15.839 36.224 -1094.887 -449.857 -2429.917 0.137 1.724 -1.115 -0.17 0.66 -0.73 0.1
1 7.15 715 0.757 -11.028 2.174 -8.850 24.567 24.201 -1094.887 -329.935 -2429.917 0.307 1.316 -1.408 -0.17 0.66 -0.73 0.1
1 7.16 716 0.283 -10.798 2.399 -16.571 27.832 22.308 -1094.887 -329.935 -2429.917 0.745 1.082 -1.643 -0.17 0.66 -0.73 0.1
1 7.17 717 -0.613 -10.808 2.198 -16.388 14.099 25.818 -944.984 -449.857 -2354.966 1.604 1.086 -1.462 -0.16 0.66 -0.73 0.1
1 7.18 718 -0.694 -10.995 2.150 -1.617 -21.515 29.053 -989.955 -329.935 -2354.966 1.646 1.267 -1.433 -0.16 0.66 -0.72 0.1
1 7.19 719 0.163 -10.592 2.088 20.874 -46.173 29.602 -989.955 -329.935 -2354.966 0.748 0.861 -1.380 -0.16 0.66 -0.72 0.11
1 7.20 720 3.180 -9.304 1.427 67.963 -74.951 23.407 -974.965 -509.968 -2339.976 -2.340 -0.428 -0.637 -0.16 0.66 -0.73 0.12
1 7.21 721 4.104 -8.777 1.494 77.851 -78.736 18.402 -974.965 -509.968 -2339.976 -3.271 -0.946 -0.599 -0.17 0.65 -0.73 0.12
1 7.22 722 6.441 -7.283 1.494 65.155 -52.735 -1.068 -974.965 -314.945 -2369.956 -5.580 -2.426 -0.485 -0.17 0.65 -0.73 0.13
1 7.23 723 6.536 -6.963 1.863 28.229 -17.609 -10.132 -974.965 -314.945 -2369.956 -5.620 -2.733 -0.770 -0.17 0.64 -0.73 0.13
1 7.24 724 5.895 -7.125 1.915 -10.284 18.982 -7.690 -974.965 -389.896 -2369.956 -4.917 -2.560 -0.789 -0.18 0.64 -0.74 0.13
1 7.25 725 4.645 -8.026 1.671 -37.018 49.591 -0.793 -914.854 -569.929 -2459.897 -3.621 -1.657 -0.558 -0.18 0.64 -0.74 0.12
1 7.26 726 2.595 -9.161 1.087 -34.515 68.421 1.038 -914.854 -569.929 -2459.897 -1.550 -0.525 -0.016 -0.18 0.64 -0.74 0.12
1 7.27 727 1.532 -9.290 1.001 -7.935 60.364 -9.308 -1004.945 -389.896 -2594.959 -0.480 -0.399 0.028 -0.17 0.65 -0.73 0.11
1 7.28 728 1.322 -8.849 1.379 21.423 38.208 -26.154 -914.854 -419.876 -2324.985 -0.234 -0.834 -0.335 -0.17 0.65 -0.74 0.1
1 7.29 729 1.585 -8.562 1.532 19.318 31.403 -26.550 -1004.945 -464.997 -2339.976 -0.461 -1.113 -0.446 -0.17 0.65 -0.74 0.1
1 7.30 730 1.609 -8.414 1.676 5.768 33.173 -21.668 -1004.945 -464.997 -2339.976 -0.447 -1.252 -0.554 -0.17 0.64 -0.74 0.1
1 7.31 731 1.499 -8.686 1.686 -7.263 37.933 -12.634 -839.903 -449.857 -2459.897 -0.310 -0.975 -0.551 -0.17 0.64 -0.74 0.1
1 7.32 732 1.159 -9.017 1.542 -10.742 38.971 -2.808 -944.984 -524.958 -2384.946 0.042 -0.643 -0.407 -0.16 0.64 -0.74 0.09
1 7.33 733 1.053 -9.534 1.566 0.824 29.083 4.517 -944.984 -524.958 -2384.946 0.144 -0.126 -0.434 -0.16 0.65 -0.74 0.09
1 7.34 734 1.269 -9.687 1.619 12.451 22.339 3.693 -914.854 -329.935 -2279.865 -0.081 0.027 -0.478 -0.16 0.65 -0.74 0.09
1 7.35 735 1.580 -9.036 1.398 21.149 15.259 -1.984 -974.965 -509.968 -2444.907 -0.406 -0.619 -0.200 -0.16 0.64 -0.74 0.09
1 7.36 736 1.753 -8.734 1.437 19.135 11.353 -4.852 -899.864 -509.968 -2519.858 -0.572 -0.915 -0.201 -0.16 0.64 -0.75 0.09
1 7.37 737 1.619 -8.658 1.231 12.451 9.277 -6.378 -899.864 -509.968 -2519.858 -0.427 -0.987 0.037 -0.16 0.64 -0.75 0.09
1 7.38 738 1.657 -8.576 1.144 6.531 8.392 -4.974 -989.955 -524.958 -2534.999 -0.455 -1.064 0.142 -0.16 0.64 -0.75 0.09
1 7.39 739 1.585 -8.864 1.183 2.716 9.857 -0.885 -899.864 -389.896 -2474.888 -0.376 -0.774 0.115 -0.16 0.64 -0.75 0.09
1 7.40 740 1.676 -9.252 1.259 3.448 13.336 6.256 -899.864 -389.896 -2474.888 -0.464 -0.385 0.046 -0.16 0.64 -0.75 0.08
1 7.41 741 1.499 -9.347 1.350 4.883 15.076 10.681 -824.913 -464.997 -2519.858 -0.292 -0.289 -0.037 -0.15 0.64 -0.75 0.08
1 7.42 742 1.523 -9.266 1.279 9.583 16.357 13.184 -914.854 -449.857 -2564.979 -0.328 -0.370 0.046 -0.15 0.64 -0.75 0.08
1 7.43 743 1.714 -8.964 1.101 15.533 14.435 13.397 -1064.906 -494.978 -2459.897 -0.555 -0.671 0.263 -0.15 0.64 -0.75 0.08
1 7.44 744 1.738 -8.648 0.986 12.817 13.153 13.489 -1064.906 -494.978 -2459.897 -0.597 -0.985 0.404 -0.15 0.64 -0.75 0.08
1 7.45 745 1.733 -8.505 0.934 7.233 12.848 13.458 -749.961 -584.919 -2624.940 -0.609 -1.128 0.476 -0.15 0.64 -0.75 0.08
1 7.46 746 1.786 -8.701 0.867 2.014 14.618 13.275 -779.942 -509.968 -2414.927 -0.680 -0.932 0.554 -0.15 0.64 -0.75 0.08
1 7.47 747 1.930 -8.935 0.872 -0.031 16.785 13.886 -779.942 -509.968 -2414.927 -0.839 -0.699 0.552 -0.14 0.64 -0.75 0.08
1 7.48 748 1.642 -9.180 1.116 3.235 20.264 13.733 -914.854 -419.876 -2459.897 -0.567 -0.456 0.309 -0.14 0.64 -0.75 0.08
1 7.49 749 1.753 -9.094 1.092 7.690 21.545 12.421 -854.893 -464.997 -2669.911 -0.695 -0.544 0.338 -0.14 0.64 -0.75 0.08
1 7.50 750 1.542 -9.141 1.173 6.470 22.858 9.766 -779.942 -464.997 -2624.940 -0.515 -0.495 0.284 -0.14 0.64 -0.75 0.08
1 7.51 751 1.566 -9.122 1.154 3.479 23.712 7.751 -779.942 -464.997 -2624.940 -0.552 -0.514 0.314 -0.14 0.64 -0.75 0.08
1 7.52 752 1.269 -9.184 1.101 3.540 22.583 6.287 -779.942 -389.896 -2624.940 -0.266 -0.452 0.374 -0.14 0.64 -0.75 0.08
1 7.53 753 1.489 -9.390 1.221 5.035 20.569 4.913 -614.899 -494.978 -2504.868 -0.496 -0.245 0.263 -0.13 0.64 -0.75 0.08
1 7.54 754 1.551 -9.477 1.044 5.829 20.813 5.707 -614.899 -494.978 -2504.868 -0.566 -0.159 0.450 -0.13 0.64 -0.76 0.08
1 7.55 755 1.700 -9.524 0.996 8.606 25.055 7.355 -659.870 -524.958 -2534.999 -0.723 -0.110 0.509 -0.13 0.64 -0.76 0.08
1 7.56 756 1.686 -9.515 0.891 8.545 29.785 8.392 -674.860 -539.948 -2594.959 -0.718 -0.118 0.628 -0.13 0.64 -0.76 0.08
1 7.57 757 1.484 -9.419 0.881 5.432 37.659 9.460 -764.952 -569.929 -2564.979 -0.544 -0.212 0.664 -0.12 0.64 -0.76 0.07
1 7.58 758 1.341 -9.366 0.733 4.578 38.941 8.972 -764.952 -569.929 -2564.979 -0.417 -0.265 0.822 -0.12 0.64 -0.76 0.07
1 7.59 759 0.790 -9.275 0.761 7.782 40.497 6.195 -659.870 -494.978 -2504.868 0.115 -0.357 0.802 -0.12 0.64 -0.76 0.07
1 7.60 760 0.517 -9.299 0.704 12.695 38.635 1.801 -690.000 -449.857 -2639.930 0.372 -0.332 0.874 -0.12 0.64 -0.76 0.07
1 7.61 761 0.148 -8.959 0.469 15.076 35.767 -1.160 -690.000 -449.857 -2639.930 0.729 -0.669 1.129 -0.11 0.64 -0.76 0.07
1 7.62 762 0.273 -8.471 0.239 14.923 28.595 -2.777 -599.909 -509.968 -2594.959 0.596 -1.155 1.380 -0.11 0.64 -0.76 0.07
1 7.63 763 0.259 -8.131 -0.062 13.519 23.834 -3.510 -464.997 -449.857 -2504.868 0.608 -1.491 1.709 -0.11 0.64 -0.76 0.06
1 7.64 764 0.800 -7.729 0.077 8.240 15.595 -1.068 -599.909 -584.919 -2624.940 0.067 -1.885 1.617 -0.11 0.63 -0.76 0.06
1 7.65 765 0.929 -7.734 0.306 3.815 13.763 1.221 -599.909 -584.919 -2624.940 -0.065 -1.878 1.399 -0.11 0.63 -0.76 0.06
1 7.66 766 1.566 -7.729 3.280 -15.961 18.890 1.709 -659.870 -524.958 -2639.930 -0.709 -1.884 -1.578 -0.11 0.63 -0.76 0.06
1 7.67 767 1.197 -9.908 4.487 -44.251 42.999 -11.566 -524.958 -509.968 -2624.940 -0.345 0.289 -2.813 -0.11 0.64 -0.76 0.06
1 7.68 768 -0.809 -14.912 5.229 -92.377 59.784 -28.748 -524.958 -509.968 -2624.940 1.679 5.284 -3.621 -0.1 0.64 -0.76 0.05
1 7.69 769 -2.907 -16.688 4.233 -64.545 39.765 -39.124 -494.978 -584.919 -2729.872 3.809 7.042 -2.757 -0.1 0.64 -0.76 0.05
1 7.70 770 -1.786 -13.408 2.926 119.294 -4.242 -77.118 -449.857 -434.867 -2474.888 2.750 3.762 -1.488 -0.1 0.65 -0.76 0.04
1 7.71 771 -0.306 -9.457 2.955 107.575 -16.846 -84.656 -449.857 -434.867 -2474.888 1.377 -0.154 -1.371 -0.11 0.64 -0.76 0.04
1 7.72 772 2.045 -7.748 2.208 -12.268 -42.481 -82.306 -524.958 -389.896 -2549.989 -0.718 -1.789 -0.384 -0.12 0.63 -0.77 0.03
1 7.73 773 3.716 -9.400 2.375 -44.098 -58.106 -65.644 -584.919 -524.958 -2609.950 -2.258 -0.126 -0.594 -0.12 0.63 -0.77 0.03
1 7.74 774 4.616 -11.698 2.251 -42.328 -33.234 -35.187 -629.890 -464.997 -2729.872 -3.043 2.178 -0.542 -0.13 0.63 -0.77 0.03
1 7.75 775 5.167 -12.589 1.154 -18.250 -5.402 3.204 -629.890 -464.997 -2729.872 -3.549 3.065 0.495 -0.13 0.63 -0.76 0.03
1 7.76 776 4.966 -10.798 1.901 12.878 2.716 30.823 -839.903 -569.929 -2714.881 -3.363 1.269 -0.266 -0.13 0.63 -0.76 0.03
1 7.77 777 4.018 -8.639 2.734 -1.617 14.771 19.135 -734.971 -569.929 -2639.930 -2.458 -0.894 -1.081 -0.13 0.63 -0.76 0.03
1 7.78 778 3.041 -8.706 2.117 -35.248 25.543 6.622 -734.971 -569.929 -2639.930 -1.506 -0.829 -0.449 -0.13 0.63 -0.76 0.03
1 7.79 779 0.776 -10.463 1.834 -78.644 36.377 0.732 -734.971 -419.876 -2684.901 0.758 0.911 -0.267 -0.13 0.64 -0.76 0.03
1 7.80 780 -0.694 -11.397 1.733 -76.782 35.584 -2.319 -690.000 -449.857 -2639.930 2.217 1.827 -0.272 -0.12 0.64 -0.76 0.03
1 7.81 781 -1.647 -11.636 1.614 -49.194 25.787 -7.172 -569.929 -434.867 -2624.940 3.169 2.052 -0.247 -0.12 0.64 -0.75 0.02
1 7.82 782 -1.863 -11.143 1.480 -16.510 11.322 -14.740 -569.929 -434.867 -2624.940 3.394 1.553 -0.166 -0.12 0.65 -0.75 0.02
1 7.83 783 -1.714 -10.252 1.523 2.411 -2.655 -21.668 -584.919 -449.857 -2534.999 3.270 0.664 -0.222 -0.12 0.65 -0.75 0.02
1 7.84 784 -1.575 -9.170 1.781 2.136 -13.947 -20.142 -629.890 -389.896 -2594.959 3.154 -0.413 -0.474 -0.12 0.65 -0.75 0.02
1 7.85 785 -1.738 -8.715 1.887 -2.960 -15.350 -10.376 -629.890 -389.896 -2594.959 3.328 -0.866 -0.575 -0.12 0.65 -0.75 0.02
1 7.86 786 -1.801 -8.552 1.767 -8.087 -21.423 -2.472 -674.860 -464.997 -2594.959 3.390 -1.029 -0.456 -0.13 0.65 -0.75 0.02
1 7.87 787 -1.034 -8.883 1.829 -25.147 -43.091 -1.221 -824.913 -509.968 -2549.989 2.597 -0.707 -0.550 -0.13 0.65 -0.75 0.02
1 7.88 788 -0.220 -9.443 2.121 -35.645 -54.810 -8.087 -704.991 -464.997 -2669.911 1.777 -0.154 -0.888 -0.13 0.65 -0.75 0.03
1 7.89 789 0.584 -9.975 2.423 -37.262 -59.632 -15.045 -704.991 -464.997 -2669.911 0.984 0.372 -1.249 -0.13 0.65 -0.75 0.03
1 7.90 790 1.068 -10.353 2.457 -25.848 -59.570 -20.233 -704.991 -434.867 -2474.888 0.527 0.748 -1.338 -0.14 0.65 -0.75 0.03
1 7.91 791 1.279 -10.583 2.495 -8.728 -55.573 -19.531 -824.913 -359.916 -2624.940 0.352 0.980 -1.411 -0.14 0.65 -0.74 0.03
1 7.92 792 1.633 -10.133 2.351 9.064 -43.793 -10.803 -824.913 -359.916 -2624.940 0.034 0.535 -1.282 -0.15 0.65 -0.74 0.04
1 7.93 793 1.628 -9.721 2.088 6.592 -34.058 -3.204 -824.913 -284.964 -2414.927 0.066 0.128 -1.014 -0.15 0.65 -0.74 0.04
1 7.94 794 1.451 -9.395 2.002 -5.524 -19.501 5.096 -824.913 -164.893 -2414.927 0.258 -0.193 -0.912 -0.15 0.65 -0.74 0.04
1 7.95 795 1.130 -9.323 1.844 -9.766 -13.367 5.676 -914.854 -299.955 -2429.917 0.574 -0.266 -0.760 -0.15 0.65 -0.74 0.04
1 7.96 796 0.963 -9.510 1.532 -7.629 -11.322 4.761 -914.854 -299.955 -2429.917 0.733 -0.082 -0.459 -0.15 0.65 -0.74 0.04
1 7.97 797 0.680 -9.697 1.633 -3.815 -13.001 3.937 -944.984 -149.902 -2429.917 1.007 0.102 -0.566 -0.15 0.65 -0.74 0.04
1 7.98 798 0.508 -9.807 1.518 -1.892 -13.580 3.693 -929.994 -389.896 -2519.858 1.170 0.211 -0.454 -0.15 0.65 -0.74 0.04
1 7.99 799 0.201 -9.659 1.609 0.275 -14.008 5.249 -929.994 -389.896 -2519.858 1.466 0.060 -0.546 -0.15 0.65 -0.74 0.05
1 8.00 800 0.283 -9.347 1.499 5.676 -14.221 6.409 -839.903 -224.854 -2504.868 1.372 -0.253 -0.434 -0.16 0.65 -0.74 0.05
1 8.01 801 0.091 -8.950 1.240 10.101 -16.693 5.615 -1004.945 -209.863 -2444.907 1.530 -0.654 -0.152 -0.16 0.65 -0.74 0.05
1 8.02 802 0.048 -8.830 1.384 8.820 -18.677 4.303 -914.854 -254.984 -2504.868 1.560 -0.774 -0.283 -0.16 0.65 -0.74 0.05
1 8.03 803 0.053 -8.935 1.556 -3.143 -23.560 -0.488 -914.854 -254.984 -2504.868 1.553 -0.669 -0.453 -0.16 0.65 -0.74 0.05
1 8.04 804 0.014 -9.151 1.542 -8.637 -26.978 -2.686 -824.913 -359.916 -2474.888 1.587 -0.455 -0.447 -0.16 0.65 -0.74 0.06
1 8.05 805 0.225 -9.539 1.590 -5.951 -28.809 -3.052 -944.984 -299.955 -2459.897 1.376 -0.069 -0.508 -0.16 0.65 -0.74 0.06
1 8.06 806 0.474 -10.051 1.571 6.134 -27.496 -4.303 -944.984 -299.955 -2459.897 1.127 0.443 -0.497 -0.16 0.65 -0.74 0.06
1 8.07 807 0.498 -9.654 1.432 14.771 -24.780 -3.632 -869.883 -299.955 -2504.868 1.106 0.046 -0.355 -0.16 0.65 -0.74 0.06
1 8.08 808 0.417 -9.237 1.298 14.893 -22.797 -2.502 -989.955 -254.984 -2609.950 1.193 -0.365 -0.180 -0.17 0.64 -0.74 0.06
1 8.09 809 0.455 -9.228 1.331 11.688 -22.125 -2.350 -1064.906 -329.935 -2564.979 1.155 -0.372 -0.196 -0.17 0.64 -0.74 0.06
1 8.10 810 0.441 -9.232 1.250 2.716 -23.254 -2.625 -1064.906 -329.935 -2564.979 1.170 -0.366 -0.107 -0.17 0.64 -0.74 0.07
1 8.11 811 0.723 -9.362 1.164 3.418 -24.719 -3.693 -929.994 -314.945 -2474.888 0.889 -0.237 -0.020 -0.17 0.64 -0.74 0.07
1 8.12 812 0.891 -9.510 1.264 7.080 -25.116 -4.608 -1094.887 -254.984 -2354.966 0.726 -0.087 -0.119 -0.17 0.64 -0.74 0.07
1 8.13 813 1.039 -9.491 1.283 10.162 -23.895 -4.822 -1094.887 -254.984 -2354.966 0.585 -0.104 -0.130 -0.17 0.64 -0.74 0.07
1 8.14 814 1.379 -9.362 1.144 10.803 -18.127 -4.547 -1064.906 -224.854 -2534.999 0.253 -0.231 0.021 -0.17 0.64 -0.74 0.07
1 8.15 815 1.528 -9.242 1.183 9.186 -14.343 -4.456 -1064.906 -224.854 -2534.999 0.115 -0.347 -0.003 -0.17 0.64 -0.74 0.07
1 8.16 816 1.456 -9.247 1.269 6.714 -9.125 -3.418 -1064.906 -374.906 -2639.930 0.203 -0.337 -0.067 -0.18 0.64 -0.75 0.07
1 8.17 817 1.322 -9.314 1.245 7.690 -6.012 -4.028 -1064.906 -374.906 -2639.930 0.344 -0.267 -0.033 -0.18 0.64 -0.75 0.07
1 8.18 818 1.355 -9.333 1.250 8.148 -4.608 -5.859 -1079.896 -284.964 -2669.911 0.318 -0.245 -0.026 -0.18 0.64 -0.75 0.07
1 8.19 819 1.135 -9.223 1.063 8.362 -4.150 -7.355 -1199.968 -224.854 -2684.901 0.547 -0.352 0.174 -0.18 0.64 -0.75 0.08
1 8.20 820 1.092 -9.338 0.919 10.681 -2.136 -10.010 -1199.968 -224.854 -2684.901 0.599 -0.234 0.329 -0.18 0.64 -0.75 0.08
1 8.21 821 0.905 -9.280 0.852 14.374 -3.113 -11.475 -1184.978 -314.945 -2444.907 0.797 -0.288 0.410 -0.18 0.63 -0.75 0.08
1 8.22 822 0.800 -9.031 0.704 16.388 -5.585 -13.153 -1184.978 -314.945 -2444.907 0.916 -0.532 0.576 -0.18 0.63 -0.75 0.08
1 8.23 823 0.781 -9.017 0.804 12.421 -10.254 -14.710 -989.955 -419.876 -2564.979 0.967 -0.536 0.513 -0.18 0.63 -0.75 0.08
1 8.24 824 0.958 -9.194 0.747 11.444 -12.573 -14.862 -989.955 -419.876 -2564.979 0.809 -0.353 0.583 -0.18 0.63 -0.75 0.08
1 8.25 825 1.034 -9.232 0.919 11.505 -13.825 -14.343 -1229.949 -284.964 -2594.959 0.752 -0.310 0.421 -0.18 0.63 -0.75 0.08
1 8.26 826 0.915 -9.299 0.804 13.519 -14.557 -12.878 -1169.988 -419.876 -2684.901 0.891 -0.237 0.548 -0.19 0.63 -0.75 0.08
1 8.27 827 0.895 -9.266 0.776 15.808 -16.541 -10.895 -1169.988 -419.876 -2684.901 0.926 -0.266 0.591 -0.19 0.63 -0.75 0.08
1 8.28 828 0.838 -9.074 0.498 17.731 -20.538 -5.554 -1259.929 -284.964 -2594.959 0.996 -0.452 0.885 -0.19 0.63 -0.75 0.08
1 8.29 829 1.087 -8.830 0.302 14.069 -23.499 -2.289 -1259.929 -284.964 -2594.959 0.755 -0.693 1.098 -0.19 0.63 -0.75 0.08
1 8.30 830 1.312 -8.495 0.010 10.315 -24.933 0.946 -1154.998 -389.896 -2669.911 0.535 -1.026 1.401 -0.19 0.63 -0.75 0.08
1 8.31 831 1.465 -8.332 -0.302 3.143 -26.642 3.967 -1199.968 -329.935 -2609.950 0.389 -1.185 1.724 -0.19 0.62 -0.75 0.08
1 8.32 832 1.652 -8.495 0.029 -6.073 -28.290 6.256 -1184.978 -389.896 -2669.911 0.203 -1.023 1.389 -0.2 0.62 -0.75 0.08
1 8.33 833 2.040 -9.175 0.843 -21.515 -33.753 10.376 -1349.871 -254.984 -2564.979 -0.188 -0.347 0.553 -0.2 0.62 -0.75 0.09
1 8.34 834 2.988 -10.717 2.662 -41.107 -41.168 19.959 -1349.871 -254.984 -2564.979 -1.144 1.186 -1.319 -0.2 0.63 -0.75 0.09
1 8.35 835 4.918 -13.719 3.644 -62.622 -45.075 35.217 -1169.988 -494.978 -2639.930 -3.097 4.174 -2.379 -0.2 0.63 -0.75 0.09
1 8.36 836 6.240 -17.019 4.209 -42.694 -4.028 50.842 -1169.988 -494.978 -2639.930 -4.466 7.450 -3.051 -0.2 0.63 -0.74 0.09
1 8.37 837 3.740 -15.209 2.840 35.767 33.417 58.472 -1364.861 -284.964 -2774.992 -2.035 5.618 -1.763 -0.2 0.64 -0.74 0.1
1 8.38 838 1.202 -11.196 1.757 39.673 46.845 73.761 -1334.880 -314.945 -2549.989 0.311 1.589 -0.550 -0.19 0.63 -0.74 0.1
1 8.39 839 -0.043 -10.453 1.748 -22.369 43.732 75.318 -1109.877 -209.863 -2519.858 1.438 0.835 -0.492 -0.18 0.63 -0.74 0.1
1 8.40 840 -0.848 -11.679 1.858 -65.064 36.926 65.247 -1064.906 -299.955 -2639.930 2.118 2.038 -0.642 -0.18 0.64 -0.74 0.11
1 8.41 841 -0.800 -12.608 1.925 -64.331 28.565 50.354 -1064.906 -299.955 -2639.930 1.973 2.944 -0.802 -0.17 0.64 -0.74 0.11
1 8.42 842 0.254 -12.939 1.556 -32.837 8.820 37.018 -1139.857 -419.876 -2714.881 0.847 3.257 -0.513 -0.17 0.65 -0.74 0.11
1 8.43 843 1.154 -12.857 2.102 5.737 4.425 19.623 -1139.857 -419.876 -2714.881 -0.104 3.166 -1.092 -0.17 0.65 -0.73 0.11
1 8.44 844 1.020 -12.101 2.452 5.524 13.214 15.503 -944.984 -224.854 -2564.979 -0.002 2.407 -1.437 -0.17 0.65 -0.73 0.11
1 8.45 845 0.560 -11.387 2.126 6.500 1.740 14.404 -989.955 -179.883 -2564.979 0.410 1.691 -1.089 -0.16 0.65 -0.74 0.11
1 8.46 846 0.412 -11.114 2.332 8.637 -4.089 13.062 -914.854 -419.876 -2639.930 0.540 1.417 -1.283 -0.16 0.65 -0.74 0.11
1 8.47 847 0.383 -10.688 2.131 23.071 -18.768 14.069 -914.854 -329.935 -2534.999 0.554 0.992 -1.061 -0.16 0.65 -0.74 0.11
1 8.48 848 1.058 -9.927 1.671 40.100 -32.837 19.196 -914.854 -329.935 -2534.999 -0.139 0.233 -0.562 -0.16 0.65 -0.74 0.11
1 8.49 849 2.150 -9.036 1.350 55.298 -46.082 19.806 -914.854 -179.883 -2564.979 -1.254 -0.652 -0.175 -0.16 0.64 -0.74 0.12
1 8.50 850 4.123 -8.021 1.494 54.169 -47.760 9.369 -914.854 -179.883 -2564.979 -3.236 -1.658 -0.237 -0.17 0.64 -0.74 0.12
1 8.51 851 4.927 -7.566 1.690 35.034 -33.539 0.610 -794.932 -149.902 -2534.999 -4.029 -2.101 -0.353 -0.17 0.64 -0.74 0.12
1 8.52 852 5.272 -7.671 2.016 3.845 -0.031 -3.754 -974.965 -164.893 -2669.911 -4.299 -1.975 -0.588 -0.17 0.63 -0.75 0.12
1 8.53 853 5.066 -7.959 2.059 -3.357 11.932 -3.326 -1019.936 -149.902 -2684.901 -4.054 -1.683 -0.623 -0.17 0.63 -0.75 0.12
1 8.54 854 3.941 -8.749 1.906 -17.639 45.502 -0.153 -1064.906 -254.984 -2714.881 -2.903 -0.891 -0.476 -0.17 0.63 -0.75 0.12
1 8.55 855 2.629 -9.199 1.705 -16.419 57.312 -3.906 -1064.906 -254.984 -2714.881 -1.575 -0.441 -0.287 -0.17 0.63 -0.75 0.12
1 8.56 856 1.791 -9.419 1.686 -4.364 55.969 -10.437 -974.965 -164.893 -2774.992 -0.726 -0.220 -0.275 -0.17 0.63 -0.75 0.11
1 8.57 857 1.106 -9.481 1.686 10.773 43.854 -17.639 -974.965 -164.893 -2774.992 -0.027 -0.155 -0.264 -0.16 0.63 -0.75 0.11
1 8.58 858 1.269 -9.161 1.868 19.806 22.522 -24.414 -974.965 -239.994 -2804.973 -0.168 -0.469 -0.415 -0.16 0.63 -0.75 0.11
1 8.59 859 1.398 -8.768 1.963 16.968 18.646 -23.590 -929.994 -314.945 -2669.911 -0.266 -0.852 -0.475 -0.16 0.63 -0.75 0.1
1 8.60 860 1.494 -8.495 1.743 12.604 25.574 -14.130 -869.883 -374.906 -2714.881 -0.300 -1.107 -0.190 -0.16 0.63 -0.75 0.1
1 8.61 861 1.307 -8.538 1.686 10.101 26.276 -6.683 -869.883 -224.854 -2714.881 -0.099 -1.058 -0.107 -0.16 0.63 -0.76 0.1
1 8.62 862 1.350 -8.619 1.609 8.362 22.247 -1.678 -869.883 -224.854 -2714.881 -0.139 -0.973 -0.010 -0.16 0.63 -0.76 0.09
1 8.63 863 1.513 -8.782 1.681 7.111 17.059 0.549 -914.854 -104.932 -2714.881 -0.302 -0.807 -0.063 -0.16 0.63 -0.76 0.09
1 8.64 864 1.844 -8.744 1.614 10.345 11.047 -1.404 -914.854 -104.932 -2714.881 -0.634 -0.843 0.020 -0.16 0.63 -0.76 0.09
1 8.65 865 2.040 -8.682 1.518 13.886 9.552 -4.730 -914.854 -224.854 -2609.950 -0.826 -0.902 0.133 -0.16 0.63 -0.76 0.09
1 8.66 866 2.227 -8.437 1.441 15.656 11.231 -6.378 -824.913 -209.863 -2699.891 -1.002 -1.140 0.233 -0.16 0.62 -0.76 0.09
1 8.67 867 2.140 -8.308 1.422 14.252 16.876 -3.876 -839.903 -329.935 -2819.963 -0.890 -1.257 0.305 -0.16 0.62 -0.76 0.09
1 8.68 868 1.815 -8.323 1.432 10.590 18.463 0.031 -929.994 -389.896 -2774.992 -0.563 -1.238 0.320 -0.15 0.62 -0.76 0.09
1 8.69 869 1.719 -8.222 1.307 6.805 19.775 3.815 -929.994 -389.896 -2774.992 -0.473 -1.336 0.463 -0.15 0.62 -0.76 0.09
1 8.70 870 1.710 -8.390 1.178 2.502 18.799 5.798 -899.864 -434.867 -2774.992 -0.474 -1.167 0.606 -0.15 0.62 -0.76 0.08
1 8.71 871 1.805 -8.586 1.178 -1.556 16.937 8.789 -899.864 -434.867 -2774.992 -0.583 -0.971 0.613 -0.15 0.62 -0.76 0.08
1 8.72 872 1.997 -9.026 1.245 -5.676 16.602 10.498 -734.971 -449.857 -2759.852 -0.788 -0.533 0.545 -0.15 0.62 -0.76 0.08
1 8.73 873 2.069 -9.204 1.173 -3.418 19.623 12.787 -779.942 -209.863 -2804.973 -0.873 -0.358 0.611 -0.15 0.62 -0.76 0.08
1 8.74 874 2.097 -9.247 1.164 1.648 22.553 14.954 -779.942 -209.863 -2804.973 -0.916 -0.318 0.616 -0.15 0.62 -0.76 0.08
1 8.75 875 2.107 -9.122 0.982 7.080 25.513 16.602 -839.903 -419.876 -2789.982 -0.966 -0.445 0.808 -0.14 0.62 -0.76 0.08
1 8.76 876 1.973 -8.921 0.886 6.775 25.543 16.449 -839.903 -419.876 -2789.982 -0.854 -0.647 0.915 -0.14 0.62 -0.77 0.08
1 8.77 877 1.930 -8.691 0.895 3.601 25.696 14.740 -839.903 -329.935 -2789.982 -0.833 -0.878 0.914 -0.14 0.62 -0.77 0.08
1 8.78 878 1.968 -8.739 0.833 -0.366 25.971 12.085 -839.903 -329.935 -2789.982 -0.891 -0.831 0.980 -0.14 0.62 -0.77 0.08
1 8.79 879 1.868 -8.787 0.963 -3.540 26.764 10.284 -659.870 -374.906 -2819.963 -0.806 -0.785 0.849 -0.13 0.62 -0.77 0.08
1 8.80 880 1.437 -8.686 0.982 -2.625 27.832 8.911 -749.961 -314.945 -2879.924 -0.389 -0.889 0.824 -0.13 0.62 -0.77 0.08
1 8.81 881 1.446 -8.691 0.939 -0.427 28.656 9.094 -749.961 -314.945 -2879.924 -0.413 -0.886 0.863 -0.13 0.63 -0.77 0.08
1 8.82 882 1.317 -8.758 0.929 -2.411 28.168 7.080 -674.860 -239.994 -2804.973 -0.317 -0.822 0.875 -0.13 0.63 -0.77 0.07
1 8.83 883 1.326 -8.974 0.900 -4.608 26.093 6.042 -674.860 -239.994 -2804.973 -0.340 -0.609 0.900 -0.12 0.63 -0.77 0.07
1 8.84 884 1.312 -8.993 0.785 -3.387 23.926 4.211 -614.899 -224.854 -2789.982 -0.337 -0.592 1.007 -0.12 0.63 -0.77 0.07
1 8.85 885 1.355 -8.902 0.623 0.366 24.658 2.930 -614.899 -224.854 -2789.982 -0.389 -0.685 1.165 -0.12 0.63 -0.77 0.07
1 8.86 886 1.422 -8.787 0.393 -1.617 28.107 2.472 -629.890 -239.994 -2729.872 -0.462 -0.801 1.393 -0.12 0.63 -0.77 0.07
1 8.87 887 1.092 -8.466 0.029 -8.331 36.286 5.463 -779.942 -464.997 -2849.943 -0.138 -1.124 1.750 -0.12 0.63 -0.77 0.07
1 8.88 888 0.781 -8.538 -0.144 -9.033 40.344 6.928 -779.942 -464.997 -2849.943 0.159 -1.055 1.913 -0.12 0.63 -0.77 0.06
1 8.89 889 0.057 -8.342 -0.168 -12.390 40.222 9.674 -524.958 -284.964 -2804.973 0.842 -1.258 1.923 -0.11 0.63 -0.77 0.06
1 8.90 890 -0.072 -8.366 -0.105 -14.069 37.201 12.390 -524.958 -284.964 -2804.973 0.946 -1.238 1.848 -0.11 0.63 -0.77 0.06
1 8.91 891 0.005 -8.476 -0.283 -17.670 23.468 18.005 -614.899 -254.984 -2864.934 0.839 -1.135 2.006 -0.1 0.63 -0.76 0.06
1 8.92 892 0.244 -8.591 0.469 -17.365 12.909 19.165 -614.899 -254.984 -2864.934 0.568 -1.026 1.232 -0.1 0.63 -0.76 0.06
1 8.93 893 0.867 -8.897 2.346 -21.301 10.132 17.517 -569.929 -284.964 -2804.973 -0.084 -0.726 -0.669 -0.1 0.64 -0.76 0.06
1 8.94 894 0.283 -11.033 5.253 -46.478 35.462 1.984 -449.857 -284.964 -2849.943 0.474 1.402 -3.606 -0.1 0.64 -0.76 0.06
1 8.95 895 -2.059 -16.147 5.100 -78.186 56.000 -18.219 -449.857 -284.964 -2849.943 2.801 6.509 -3.490 -0.1 0.64 -0.76 0.06
1 8.96 896 -3.812 -16.018 3.625 14.526 17.670 -43.030 -419.876 -284.964 -2804.973 4.597 6.354 -2.199 -0.09 0.65 -0.76 0.05
1 8.97 897 -2.950 -13.997 3.055 82.794 3.204 -56.214 -419.876 -284.964 -2804.973 3.807 4.351 -1.554 -0.09 0.64 -0.76 0.04
1 8.98 898 -0.522 -8.337 1.212 108.399 -27.161 -85.053 -299.955 -209.863 -2774.992 1.493 -1.267 0.481 -0.1 0.64 -0.76 0.04
1 8.99 899 1.283 -6.584 1.935 20.416 -45.136 -88.745 -299.955 -209.863 -2774.992 -0.183 -2.983 -0.119 -0.1 0.63 -0.77 0.04
1 9.00 900 3.304 -7.743 2.337 -43.305 -58.075 -81.787 -389.896 -149.902 -2819.963 -2.060 -1.808 -0.527 -0.11 0.63 -0.77 0.03
1 9.01 901 4.549 -10.008 2.868 -56.183 -52.704 -58.014 -659.870 -299.955 -2939.885 -3.176 0.460 -1.141 -0.12 0.63 -0.77 0.03
1 9.02 902 5.502 -12.474 1.523 -8.392 -9.033 -8.575 -659.870 -299.955 -2939.885 -4.032 2.926 0.124 -0.12 0.63 -0.76 0.03
1 9.03 903 6.115 -11.368 1.939 23.438 -9.399 18.555 -614.899 -179.883 -2969.865 -4.614 1.820 -0.323 -0.13 0.63 -0.76 0.03
1 9.04 904 6.182 -9.754 4.310 -22.369 16.602 12.512 -704.991 -89.941 -2879.924 -4.725 0.206 -2.652 -0.12 0.63 -0.76 0.03
1 9.05 905 4.578 -10.635 3.505 -61.310 43.427 2.441 -749.961 -209.863 -2804.973 -3.140 1.077 -1.891 -0.12 0.63 -0.76 0.03
1 9.06 906 2.016 -12.139 2.691 -67.719 58.350 -0.244 -749.961 -209.863 -2804.973 -0.591 2.565 -1.160 -0.12 0.64 -0.76 0.03
1 9.07 907 -0.412 -12.297 2.193 -48.065 59.052 -2.625 -629.890 -284.964 -2804.973 1.825 2.709 -0.742 -0.12 0.64 -0.76 0.03
1 9.08 908 -2.155 -11.133 1.609 -16.602 32.532 -10.773 -509.968 -179.883 -2789.982 3.563 1.537 -0.205 -0.11 0.64 -0.76 0.02
1 9.09 909 -2.164 -10.243 1.116 -15.228 11.902 -15.808 -509.968 -179.883 -2789.982 3.579 0.645 0.268 -0.11 0.65 -0.76 0.02
1 9.10 910 -1.638 -9.539 1.025 -23.193 -2.838 -20.569 -629.890 -119.922 -2624.940 3.071 -0.059 0.342 -0.11 0.65 -0.75 0.02
1 9.11 911 -1.312 -9.381 1.441 -32.868 -5.157 -19.135 -614.899 -29.980 -2684.901 2.762 -0.225 -0.150 -0.11 0.65 -0.75 0.02
1 9.12 912 -1.724 -9.682 1.791 -33.447 -3.357 -13.825 -659.870 -179.883 -2864.934 3.183 0.072 -0.546 -0.11 0.65 -0.75 0.02
1 9.13 913 -2.150 -10.075 1.935 -31.006 -6.378 -7.660 -659.870 -179.883 -2864.934 3.606 0.459 -0.734 -0.11 0.65 -0.75 0.02
1 9.14 914 -2.557 -10.449 1.925 -27.985 -17.029 -3.845 -629.890 -119.922 -2774.992 4.000 0.825 -0.765 -0.11 0.65 -0.75 0.02
1 9.15 915 -2.696 -10.669 1.690 -23.926 -30.579 -0.916 -569.929 -44.971 -2729.872 4.133 1.040 -0.570 -0.11 0.66 -0.75 0.02
1 9.16 916 -2.174 -10.463 1.743 -14.771 -57.282 -2.777 -569.929 -44.971 -2729.872 3.619 0.831 -0.663 -0.12 0.66 -0.74 0.02
1 9.17 917 -1.073 -10.176 1.772 -6.256 -75.348 -8.545 -584.919 -29.980 -2564.979 2.531 0.541 -0.726 -0.12 0.66 -0.74 0.02
1 9.18 918 0.239 -9.893 1.824 4.028 -85.968 -13.275 -674.860 -164.893 -2594.959 1.231 0.258 -0.805 -0.12 0.66 -0.74 0.03
1 9.19 919 2.026 -9.726 2.155 8.637 -81.024 -13.123 -659.870 -104.932 -2639.930 -0.511 0.096 -1.145 -0.13 0.66 -0.74 0.03
1 9.20 920 2.950 -9.553 2.265 3.540 -63.507 -6.165 -659.870 -104.932 -2639.930 -1.404 -0.071 -1.253 -0.14 0.66 -0.74 0.04
1 9.21 921 3.180 -9.548 2.346 -2.136 -42.084 1.556 -629.890 -89.941 -2804.973 -1.609 -0.072 -1.335 -0.14 0.65 -0.74 0.04
1 9.22 922 2.830 -9.654 2.198 -5.127 -20.050 7.294 -734.971 -104.932 -2714.881 -1.246 0.035 -1.189 -0.14 0.65 -0.74 0.04
1 9.23 923 2.073 -9.759 2.035 -4.700 -3.418 9.155 -734.971 -104.932 -2714.881 -0.488 0.141 -1.026 -0.15 0.65 -0.74 0.04
1 9.24 924 0.709 -10.166 1.844 -2.045 -1.831 7.782 -869.883 -104.932 -2639.930 0.870 0.547 -0.834 -0.15 0.65 -0.74 0.04
1 9.25 925 0.158 -10.032 1.801 6.195 -4.822 7.813 -854.893 -14.990 -2699.891 1.408 0.411 -0.787 -0.14 0.65 -0.74 0.04
1 9.26 926 -0.043 -9.654 1.518 21.240 -11.932 7.538 -854.893 -14.990 -2729.872 1.570 0.031 -0.467 -0.14 0.65 -0.74 0.04
1 9.27 927 0.110 -9.184 1.250 23.956 -15.442 6.378 -854.893 -14.990 -2729.872 1.398 -0.438 -0.164 -0.14 0.65 -0.74 0.05
1 9.28 928 0.249 -8.873 1.403 18.219 -17.365 4.669 -794.932 74.951 -2639.930 1.244 -0.748 -0.284 -0.14 0.65 -0.74 0.05
1 9.29 929 0.378 -8.854 1.537 10.986 -17.456 2.991 -914.854 -149.902 -2714.881 1.103 -0.766 -0.394 -0.14 0.65 -0.75 0.05
1 9.30 930 0.441 -9.065 1.561 5.188 -16.510 2.869 -914.854 -149.902 -2714.881 1.033 -0.554 -0.403 -0.15 0.65 -0.75 0.05
1 9.31 931 0.278 -9.252 1.532 6.958 -13.458 4.334 -914.854 -149.902 -2714.881 1.188 -0.368 -0.365 -0.15 0.65 -0.75 0.05
1 9.32 932 0.168 -9.199 1.341 13.641 -13.550 5.005 -854.893 -44.971 -2699.891 1.288 -0.421 -0.164 -0.15 0.65 -0.75 0.05
1 9.33 933 0.278 -8.902 1.355 17.304 -17.212 1.770 -824.913 -89.941 -2879.924 1.155 -0.716 -0.135 -0.15 0.65 -0.75 0.06
1 9.34 934 0.436 -8.940 1.250 15.991 -18.555 -2.197 -824.913 -89.941 -2879.924 0.993 -0.675 -0.005 -0.15 0.64 -0.75 0.06
1 9.35 935 0.637 -8.916 1.226 16.113 -18.250 -5.524 -1004.945 -14.990 -2774.992 0.795 -0.695 0.040 -0.15 0.64 -0.75 0.06
1 9.36 936 0.618 -9.060 1.422 17.853 -17.975 -8.057 -944.984 -104.932 -2639.930 0.823 -0.548 -0.134 -0.15 0.64 -0.75 0.06
1 9.37 937 0.599 -9.079 1.331 18.158 -16.083 -8.453 -944.984 -104.932 -2639.930 0.853 -0.523 -0.017 -0.15 0.64 -0.75 0.06
1 9.38 938 0.565 -9.036 1.379 14.526 -14.252 -6.989 -974.965 -89.941 -2729.872 0.898 -0.561 -0.041 -0.15 0.64 -0.75 0.06
1 9.39 939 0.503 -9.036 1.346 11.505 -12.512 -5.829 -929.994 -119.922 -2909.904 0.969 -0.557 0.014 -0.15 0.64 -0.75 0.06
1 9.40 940 0.445 -9.117 1.331 10.498 -11.719 -5.493 -989.955 -104.932 -2789.982 1.039 -0.469 0.060 -0.15 0.64 -0.75 0.06
1 9.41 941 0.488 -9.041 1.149 12.726 -11.749 -5.859 -989.955 -104.932 -2789.982 1.001 -0.542 0.258 -0.15 0.64 -0.75 0.06
1 9.42 942 0.757 -8.710 0.948 17.181 -10.956 -5.890 -1034.926 -44.971 -2849.943 0.739 -0.869 0.480 -0.16 0.63 -0.75 0.06
1 9.43 943 0.694 -8.562 0.939 14.160 -10.651 -5.432 -1079.896 -44.971 -2909.904 0.810 -1.013 0.512 -0.16 0.63 -0.75 0.06
1 9.44 944 0.771 -8.519 0.910 8.881 -10.101 -4.547 -1079.896 -44.971 -2909.904 0.745 -1.051 0.559 -0.16 0.63 -0.76 0.07
1 9.45 945 0.977 -8.667 0.824 5.585 -7.599 -3.265 -1064.906 -104.932 -2894.914 0.549 -0.899 0.656 -0.16 0.63 -0.76 0.07
1 9.46 946 0.948 -8.816 0.704 4.700 -6.165 -2.411 -989.955 -104.932 -2894.914 0.586 -0.748 0.784 -0.16 0.63 -0.76 0.07
1 9.47 947 0.939 -8.672 0.685 3.632 -4.456 -3.754 -989.955 -104.932 -2894.914 0.602 -0.890 0.810 -0.16 0.63 -0.76 0.07
1 9.48 948 1.034 -9.070 0.685 1.923 -3.265 -3.387 -1094.887 -74.951 -2789.982 0.517 -0.490 0.813 -0.16 0.63 -0.76 0.07
1 9.49 949 0.943 -9.189 0.646 1.465 -1.801 -3.326 -914.854 -179.883 -2939.885 0.612 -0.370 0.850 -0.16 0.63 -0.76 0.07
1 9.50 950 0.915 -9.180 0.579 2.319 -1.556 -4.089 -1184.978 -89.941 -2954.875 0.644 -0.380 0.914 -0.16 0.63 -0.76 0.07
1 9.51 951 0.967 -9.386 0.766 4.395 -1.678 -4.883 -1184.978 -89.941 -2954.875 0.596 -0.173 0.726 -0.16 0.63 -0.76 0.07
1 9.52 952 0.977 -9.457 0.843 6.714 -2.625 -4.700 -899.864 -164.893 -2849.943 0.591 -0.100 0.653 -0.16 0.63 -0.76 0.07
1 9.53 953 0.910 -9.333 1.034 8.362 -1.740 -5.402 -1139.857 -224.854 -2969.865 0.663 -0.223 0.467 -0.16 0.63 -0.76 0.07
1 9.54 954 0.857 -9.127 0.579 10.773 -3.326 -6.500 -1139.857 -224.854 -2969.865 0.721 -0.427 0.930 -0.16 0.63 -0.76 0.07
1 9.55 955 0.785 -8.849 0.168 0.153 -10.925 -7.111 -1109.877 -209.863 -2909.904 0.807 -0.699 1.357 -0.16 0.63 -0.76 0.07
1 9.56 956 0.967 -8.892 0.029 -6.042 -15.503 -8.301 -1094.887 -104.932 -2939.885 0.635 -0.657 1.484 -0.16 0.63 -0.76 0.07
1 9.57 957 1.207 -8.974 -0.125 -7.233 -16.480 -7.477 -1154.998 -119.922 -2849.943 0.408 -0.577 1.615 -0.16 0.63 -0.76 0.07
1 9.58 958 1.465 -9.122 -0.402 -7.629 -15.595 -7.080 -1154.998 -119.922 -2849.943 0.163 -0.430 1.869 -0.17 0.63 -0.76 0.07
1 9.59 959 1.532 -9.381 -0.005 -12.054 -14.557 -5.707 -1109.877 -239.994 -2849.943 0.110 -0.173 1.444 -0.17 0.63 -0.75 0.07
1 9.60 960 2.145 -10.726 1.556 -27.893 -19.409 3.296 -1019.936 -29.980 -2894.914 -0.492 1.170 -0.150 -0.17 0.63 -0.75 0.07
1 9.61 961 3.194 -12.570 3.295 -50.080 -25.971 14.099 -1019.936 -29.980 -2894.914 -1.537 3.007 -1.934 -0.17 0.63 -0.75 0.07
1 9.62 962 5.224 -15.917 3.764 -65.521 -31.525 27.039 -1094.887 -224.854 -2969.865 -3.577 6.343 -2.473 -0.17 0.64 -0.75 0.07
1 9.63 963 3.989 -16.434 3.405 -6.378 19.531 36.896 -1184.978 -89.941 -2879.924 -2.414 6.826 -2.290 -0.17 0.64 -0.74 0.07
1 9.64 964 1.882 -13.810 1.537 48.157 36.804 47.058 -1109.877 14.990 -2849.943 -0.368 4.195 -0.398 -0.17 0.64 -0.74 0.07
1 9.65 965 0.642 -11.047 1.360 23.773 47.455 55.817 -1109.877 14.990 -2849.943 0.793 1.430 -0.143 -0.16 0.64 -0.75 0.08
1 9.66 966 -0.939 -10.142 0.900 -22.553 50.049 57.739 -1139.857 -224.854 -2789.982 2.281 0.515 0.346 -0.16 0.64 -0.75 0.08
1 9.67 967 -1.815 -11.038 0.790 -61.554 29.327 43.854 -1064.906 -224.854 -2789.982 3.051 1.391 0.419 -0.15 0.64 -0.75 0.08
1 9.68 968 -0.287 -11.947 1.484 -53.955 13.245 28.015 -1064.906 -224.854 -2789.982 1.438 2.281 -0.357 -0.15 0.65 -0.74 0.08
1 9.69 969 0.891 -11.971 1.891 -28.992 -1.404 18.219 -1034.926 14.990 -2804.973 0.212 2.290 -0.845 -0.15 0.65 -0.74 0.08
1 9.70 970 1.604 -12.110 2.303 -15.350 8.453 13.184 -899.864 14.990 -2804.973 -0.551 2.416 -1.331 -0.14 0.66 -0.74 0.08
1 9.71 971 1.183 -11.861 2.504 -24.536 21.759 19.348 -764.952 -29.980 -2759.852 -0.151 2.162 -1.555 -0.14 0.66 -0.74 0.08
1 9.72 972 0.503 -11.612 2.500 -27.649 22.492 25.696 -764.952 -29.980 -2759.852 0.495 1.906 -1.584 -0.14 0.66 -0.74 0.08
1 9.73 973 -0.196 -11.186 2.461 -17.548 12.634 25.238 -899.864 -89.941 -2849.943 1.154 1.473 -1.580 -0.14 0.66 -0.73 0.08
1 9.74 974 -0.417 -10.923 2.030 4.272 -3.265 21.942 -899.864 -44.971 -2669.911 1.338 1.205 -1.166 -0.14 0.66 -0.73 0.08
1 9.75 975 0.206 -9.697 1.298 46.143 -34.149 16.693 -899.864 -44.971 -2669.911 0.686 -0.023 -0.416 -0.14 0.66 -0.73 0.08
1 9.76 976 1.331 -8.533 1.068 61.951 -53.559 12.116 -749.961 14.990 -2774.992 -0.469 -1.183 -0.124 -0.14 0.66 -0.74 0.09
1 9.77 977 3.654 -7.599 1.144 44.861 -59.448 5.341 -734.971 74.951 -2759.852 -2.808 -2.101 -0.034 -0.14 0.65 -0.74 0.09
1 9.78 978 4.180 -7.394 1.302 11.719 -44.678 0.427 -869.883 104.932 -2894.914 -3.330 -2.300 -0.143 -0.14 0.65 -0.74 0.1
1 9.79 979 5.406 -7.973 1.551 -18.890 -19.959 -1.587 -869.883 104.932 -2894.914 -4.531 -1.718 -0.389 -0.14 0.65 -0.74 0.1
1 9.80 980 5.200 -8.557 1.733 -34.607 8.362 0.244 -794.932 -29.980 -2894.914 -4.286 -1.134 -0.603 -0.15 0.65 -0.74 0.1
1 9.81 981 4.372 -9.108 1.733 -34.119 33.600 1.068 -704.991 44.971 -2804.973 -3.425 -0.586 -0.647 -0.15 0.65 -0.74 0.09
1 9.82 982 2.624 -9.390 1.393 -13.458 50.873 -6.256 -704.991 44.971 -2804.973 -1.655 -0.305 -0.341 -0.15 0.65 -0.74 0.09
1 9.83 983 2.016 -9.060 1.293 0.580 46.082 -11.993 -854.893 89.941 -2849.943 -1.027 -0.634 -0.254 -0.14 0.65 -0.74 0.09
1 9.84 984 1.719 -8.739 1.374 7.629 30.396 -18.951 -749.961 14.990 -2729.872 -0.683 -0.947 -0.309 -0.14 0.65 -0.74 0.08
1 9.85 985 1.609 -8.686 1.432 6.439 26.611 -19.623 -794.932 -149.902 -2894.914 -0.542 -0.995 -0.347 -0.14 0.65 -0.74 0.08
1 9.86 986 1.915 -8.663 1.456 -4.028 24.536 -15.991 -794.932 -149.902 -2894.914 -0.817 -1.014 -0.360 -0.14 0.65 -0.74 0.07
1 9.87 987 1.681 -9.017 1.283 -9.186 26.367 -9.186 -704.991 -44.971 -2804.973 -0.557 -0.657 -0.187 -0.14 0.65 -0.74 0.07
1 9.88 988 1.604 -9.477 1.317 -8.881 28.168 -1.160 -764.952 -29.980 -2759.852 -0.467 -0.196 -0.227 -0.14 0.65 -0.74 0.07
1 9.89 989 1.374 -9.754 1.422 -1.953 23.529 8.484 -764.952 -29.980 -2759.852 -0.238 0.081 -0.336 -0.14 0.65 -0.74 0.07
1 9.90 990 1.676 -9.802 1.504 5.280 19.379 8.911 -899.864 -14.990 -2879.924 -0.551 0.128 -0.414 -0.14 0.65 -0.74 0.07
1 9.91 991 1.829 -9.505 1.470 12.695 16.296 6.134 -899.864 -14.990 -2879.924 -0.717 -0.169 -0.369 -0.13 0.65 -0.74 0.07
1 9.92 992 1.963 -9.132 1.456 18.311 14.496 3.418 -690.000 0.000 -2789.982 -0.861 -0.537 -0.302 -0.13 0.65 -0.74 0.06
1 9.93 993 1.796 -8.830 1.298 17.395 15.442 3.693 -690.000 0.000 -2789.982 -0.693 -0.835 -0.111 -0.13 0.65 -0.75 0.06
1 9.94 994 1.877 -8.605 1.207 15.930 15.961 3.693 -764.952 179.883 -2759.852 -0.775 -1.056 0.011 -0.13 0.65 -0.75 0.06
1 9.95 995 1.729 -8.691 1.212 13.153 16.327 4.608 -674.860 44.971 -2849.943 -0.628 -0.967 0.034 -0.13 0.65 -0.75 0.06
1 9.96 996 1.753 -8.782 1.245 3.876 15.564 7.904 -674.860 44.971 -2849.943 -0.656 -0.873 0.022 -0.13 0.65 -0.75 0.06
