COL1	TIME	ACC_X	ACC_Y	ACC_Z	GYR_X	GYR_Y	GYR_Z	MAG_X	MAG_Y	MAG_Z	LACC_X	LACC_Y	LACC_Z	QUAT_X	QUAT_Y	QUAT_Z	QUAT_W
1 0.00 0 0.508 -9.362 2.792 1.282 5.890 4.700 -209.863 -449.857 -3254.979 0.267 -0.120 -0.438 -0.05 0.61 -0.79 0
1 0.01 1 0.551 -9.596 2.667 1.709 6.775 4.913 -344.925 -434.867 -3314.940 0.214 0.116 -0.307 -0.05 0.61 -0.79 0
1 0.02 2 0.330 -9.510 2.490 1.404 7.263 4.913 -329.935 -569.929 -3329.931 0.415 0.032 -0.115 -0.05 0.61 -0.79 0
1 0.03 3 0.393 -9.501 2.557 0.031 6.348 4.822 -344.925 -509.968 -3359.911 0.341 0.022 -0.177 -0.05 0.61 -0.79 0
1 0.04 4 0.273 -9.524 2.595 -0.153 5.554 5.096 -329.935 -569.929 -3194.869 0.450 0.046 -0.211 -0.05 0.61 -0.79 0
1 0.05 5 0.378 -9.620 2.619 0.336 4.608 3.998 -329.935 -569.929 -3194.869 0.333 0.142 -0.231 -0.05 0.61 -0.79 0
1 0.06 6 0.283 -9.635 2.533 0.061 5.096 4.639 -209.863 -449.857 -3329.931 0.420 0.157 -0.140 -0.05 0.61 -0.79 0
1 0.07 7 0.268 -9.630 2.639 0.488 5.676 4.303 -209.863 -449.857 -3329.931 0.424 0.153 -0.242 -0.05 0.61 -0.79 0
1 0.08 8 0.321 -9.764 2.409 -0.854 6.714 3.906 -284.964 -449.857 -3404.882 0.361 0.287 -0.008 -0.05 0.61 -0.79 0
1 0.09 9 0.292 -9.989 2.308 -2.625 7.965 4.456 -284.964 -449.857 -3404.882 0.380 0.512 0.095 -0.05 0.61 -0.79 0
1 0.10 10 0.340 -10.181 2.648 -2.258 7.660 8.850 -284.964 -569.929 -3254.979 0.306 0.700 -0.250 -0.04 0.61 -0.79 0
1 0.11 11 0.565 -10.487 2.490 -3.662 6.744 11.993 -224.854 -629.890 -3314.940 0.063 1.006 -0.092 -0.04 0.61 -0.79 0
1 0.12 12 0.886 -10.688 2.327 -5.951 9.338 15.228 -224.854 -629.890 -3314.940 -0.280 1.204 0.067 -0.04 0.61 -0.79 0
1 0.13 13 0.857 -10.793 2.447 -1.770 11.383 18.341 -299.955 -464.997 -3419.872 -0.276 1.307 -0.059 -0.04 0.61 -0.79 0
1 0.14 14 0.848 -10.679 2.337 10.376 15.320 18.311 -299.955 -464.997 -3419.872 -0.298 1.191 0.055 -0.04 0.61 -0.79 0
1 0.15 15 0.642 -10.128 2.318 13.977 14.832 16.174 -224.854 -434.867 -3284.960 -0.124 0.642 0.090 -0.04 0.61 -0.79 0
1 0.16 16 0.555 -9.817 2.265 16.174 14.191 15.045 -134.912 -494.978 -3224.999 -0.066 0.335 0.163 -0.04 0.61 -0.79 0
1 0.17 17 0.105 -9.366 2.169 17.578 17.334 13.367 -224.854 -539.948 -3314.940 0.334 -0.105 0.308 -0.03 0.61 -0.79 0.01
1 0.18 18 -0.201 -9.295 2.002 15.503 19.013 13.519 -179.883 -494.978 -3404.882 0.613 -0.171 0.502 -0.03 0.61 -0.79 0.01
1 0.19 19 -0.407 -9.218 1.939 11.719 19.898 14.679 -179.883 -494.978 -3404.882 0.789 -0.244 0.585 -0.03 0.61 -0.79 0.01
1 0.20 20 -0.699 -9.132 1.896 9.247 18.646 13.733 -89.941 -584.919 -3539.944 1.048 -0.327 0.644 -0.03 0.61 -0.79 0.01
1 0.21 21 -0.857 -9.223 1.882 6.836 14.984 11.963 -89.941 -584.919 -3539.944 1.173 -0.234 0.669 -0.02 0.61 -0.79 0.01
1 0.22 22 -0.943 -9.256 1.686 7.141 9.491 8.209 -29.980 -569.929 -3329.931 1.230 -0.199 0.873 -0.02 0.61 -0.79 0.01
1 0.23 23 -0.895 -9.333 1.887 9.827 6.500 5.188 -59.961 -569.929 -3449.853 1.157 -0.122 0.679 -0.02 0.61 -0.79 0.01
1 0.24 24 -0.910 -9.204 1.844 10.803 3.754 0.092 29.980 -449.857 -3449.853 1.139 -0.246 0.745 -0.02 0.61 -0.79 0.01
1 0.25 25 -0.828 -9.060 1.920 8.881 2.228 -0.977 -44.971 -584.919 -3314.940 1.050 -0.386 0.680 -0.02 0.61 -0.8 0.01
1 0.26 26 -0.843 -9.026 1.796 7.355 0.092 -1.617 -44.971 -584.919 -3314.940 1.058 -0.417 0.814 -0.02 0.61 -0.8 0.01
1 0.27 27 -0.872 -9.017 1.705 4.547 -2.167 -3.326 -89.941 -629.890 -3314.940 1.083 -0.425 0.912 -0.02 0.61 -0.8 0.01
1 0.28 28 -1.010 -9.026 1.566 3.845 -6.317 -4.700 -89.941 -629.890 -3314.940 1.221 -0.415 1.054 -0.02 0.61 -0.8 0.01
1 0.29 29 -0.809 -8.811 1.561 1.953 -12.085 -7.019 -59.961 -494.978 -3479.983 1.023 -0.630 1.058 -0.02 0.61 -0.8 0.01
1 0.30 30 -0.455 -8.835 1.657 3.265 -14.862 -8.484 -104.932 -599.909 -3404.882 0.676 -0.606 0.961 -0.02 0.61 -0.8 0.01
1 0.31 31 -0.335 -8.835 1.868 3.204 -15.900 -9.979 -104.932 -599.909 -3404.882 0.568 -0.606 0.750 -0.02 0.61 -0.8 0.01
1 0.32 32 -0.057 -8.816 2.188 2.319 -12.085 -13.184 -134.912 -839.903 -3404.882 0.326 -0.624 0.430 -0.02 0.6 -0.8 0.01
1 0.33 33 -0.302 -8.744 2.260 3.967 -9.216 -16.937 -134.912 -839.903 -3404.882 0.594 -0.694 0.361 -0.02 0.6 -0.8 0.01
1 0.34 34 -0.278 -8.868 2.064 4.059 -9.613 -20.416 -44.971 -629.890 -3494.973 0.596 -0.567 0.563 -0.02 0.6 -0.8 0
1 0.35 35 -0.350 -9.108 2.093 -4.395 -12.299 -22.369 -44.971 -629.890 -3494.973 0.700 -0.326 0.538 -0.03 0.6 -0.8 0
1 0.36 36 -0.019 -9.960 2.394 -14.954 -15.839 -21.668 -44.971 -584.919 -3419.872 0.404 0.524 0.224 -0.03 0.6 -0.8 0
1 0.37 37 0.508 -10.271 2.418 -7.965 -17.273 -17.609 -164.893 -734.971 -3539.944 -0.088 0.831 0.178 -0.03 0.61 -0.8 0
1 0.38 38 1.049 -10.267 2.753 -3.448 -17.700 -13.214 -164.893 -734.971 -3539.944 -0.597 0.823 -0.174 -0.03 0.61 -0.79 0
1 0.39 39 1.963 -10.430 3.036 -9.949 -16.876 -10.010 -134.912 -494.978 -3479.983 -1.455 0.985 -0.471 -0.03 0.61 -0.79 0
1 0.40 40 2.351 -10.750 3.079 -12.817 -13.031 -8.301 -134.912 -494.978 -3479.983 -1.822 1.303 -0.530 -0.04 0.61 -0.79 0
1 0.41 41 2.351 -10.856 3.065 -7.294 -6.104 -6.409 -164.893 -704.991 -3314.940 -1.805 1.404 -0.532 -0.04 0.61 -0.79 0
1 0.42 42 2.112 -10.875 3.232 0.549 -0.641 -5.096 -164.893 -704.991 -3314.940 -1.553 1.423 -0.706 -0.04 0.61 -0.79 0
1 0.43 43 1.729 -10.659 3.247 6.073 4.639 -1.678 -254.984 -569.929 -3449.853 -1.164 1.209 -0.716 -0.04 0.61 -0.79 0
1 0.44 44 1.212 -9.965 2.993 12.207 12.390 2.167 -464.997 -674.860 -3404.882 -0.646 0.518 -0.450 -0.04 0.61 -0.79 0
1 0.45 45 0.723 -9.630 2.744 13.947 17.059 3.174 -464.997 -674.860 -3404.882 -0.160 0.188 -0.180 -0.04 0.61 -0.79 0
1 0.46 46 0.029 -9.299 2.648 9.369 20.569 4.944 -179.883 -524.958 -3404.882 0.516 -0.131 -0.039 0.03 -0.6 0.8 0
1 0.47 47 -0.144 -9.127 2.615 6.958 18.829 3.479 -179.883 -524.958 -3404.882 0.672 -0.300 0.012 0.03 -0.6 0.8 0
1 0.48 48 -0.436 -8.998 2.385 5.310 17.395 1.373 -254.984 -719.981 -3479.983 0.948 -0.426 0.255 0.03 -0.6 0.8 0
1 0.49 49 -0.484 -8.974 2.299 2.838 14.099 -2.197 -254.984 -719.981 -3479.983 0.984 -0.448 0.350 0.03 -0.6 0.8 0
1 0.50 50 -0.608 -8.959 2.303 -0.122 11.505 -5.096 -89.941 -659.870 -3389.892 1.101 -0.462 0.350 0.03 -0.6 0.8 0
1 0.51 51 -0.575 -9.170 2.193 -4.852 7.141 -6.226 -224.854 -539.948 -3389.892 1.065 -0.251 0.460 0.03 -0.6 0.8 0
1 0.52 52 -0.575 -9.295 2.136 -7.263 5.554 -4.517 -224.854 -539.948 -3389.892 1.064 -0.128 0.512 0.03 -0.6 0.8 0
1 0.53 53 -0.508 -9.529 2.145 -8.118 1.312 -1.831 -254.984 -719.981 -3449.853 0.994 0.103 0.492 0.03 -0.6 0.8 0
1 0.54 54 -0.393 -9.592 2.069 -5.737 -6.653 -1.129 -89.941 -539.948 -3494.973 0.873 0.158 0.544 0.03 -0.6 0.8 0
1 0.55 55 0.029 -9.678 2.155 -4.395 -11.932 -1.953 -269.974 -629.890 -3359.911 0.451 0.242 0.448 0.03 -0.61 0.8 0
1 0.56 56 0.455 -9.764 2.270 -4.486 -16.541 -2.289 -269.974 -629.890 -3359.911 0.030 0.326 0.324 0.03 -0.61 0.8 0
1 0.57 57 0.785 -9.793 2.351 -4.211 -16.083 -2.045 -59.961 -644.880 -3329.931 -0.290 0.353 0.234 0.03 -0.61 0.79 0
1 0.58 58 1.034 -9.817 2.327 -3.052 -10.040 1.617 -224.854 -704.991 -3389.892 -0.528 0.375 0.250 0.03 -0.61 0.79 0
1 0.59 59 1.188 -9.659 2.500 -2.991 -5.463 5.310 -224.854 -704.991 -3389.892 -0.674 0.216 0.071 0.03 -0.61 0.79 0
1 0.60 60 1.034 -9.750 2.423 -3.052 -1.984 6.165 -209.863 -644.880 -3509.963 -0.519 0.306 0.144 0.03 -0.61 0.79 0
1 0.61 61 0.852 -9.486 2.543 -0.854 -1.190 3.479 -134.912 -719.981 -3479.983 -0.342 0.040 0.018 0.03 -0.61 0.79 0
1 0.62 62 0.690 -9.328 2.375 -0.366 -2.045 0.488 -194.873 -584.919 -3389.892 -0.178 -0.118 0.185 0.03 -0.61 0.79 0
1 0.63 63 0.709 -9.544 2.203 -1.434 -3.448 -1.434 -194.873 -584.919 -3389.892 -0.194 0.098 0.357 0.03 -0.61 0.79 0
1 0.64 64 0.546 -9.266 2.160 -2.991 -3.601 -2.014 -269.974 -704.991 -3419.872 -0.025 -0.180 0.397 0.03 -0.61 0.79 0
1 0.65 65 0.469 -9.486 2.246 -4.883 -3.784 -1.892 -254.984 -644.880 -3509.963 0.058 0.039 0.305 0.03 -0.61 0.79 0
1 0.66 66 0.326 -9.606 2.275 -7.721 -3.418 -0.153 -254.984 -644.880 -3509.963 0.206 0.156 0.268 0.03 -0.61 0.79 0
1 0.67 67 0.129 -9.625 2.275 -8.728 -4.944 1.831 -194.873 -584.919 -3464.993 0.404 0.173 0.258 0.03 -0.61 0.79 0
1 0.68 68 0.259 -9.793 2.303 -8.301 -7.172 3.754 -194.873 -629.890 -3494.973 0.271 0.333 0.203 -0.03 0.61 -0.79 0
1 0.69 69 0.259 -9.678 2.260 -6.897 -9.277 4.242 -224.854 -629.890 -3419.872 0.267 0.215 0.233 -0.03 0.61 -0.79 0
1 0.70 70 0.445 -9.697 2.380 -5.737 -11.108 4.578 -224.854 -629.890 -3419.872 0.077 0.231 0.103 -0.03 0.61 -0.79 0
1 0.71 71 0.603 -9.611 2.356 -3.967 -13.001 4.150 -254.984 -569.929 -3479.983 -0.082 0.143 0.119 -0.04 0.61 -0.79 0
1 0.72 72 0.785 -9.457 2.394 -3.174 -14.191 3.265 -179.883 -599.909 -3449.853 -0.263 -0.012 0.075 -0.04 0.61 -0.79 0
1 0.73 73 1.073 -9.472 2.504 -4.059 -12.726 1.923 -179.883 -599.909 -3449.853 -0.547 0.001 -0.040 -0.04 0.61 -0.79 0
1 0.74 74 1.049 -9.433 2.509 -4.395 -9.918 1.434 -209.863 -569.929 -3404.882 -0.517 -0.038 -0.050 -0.04 0.61 -0.79 0
1 0.75 75 1.010 -9.381 2.457 -5.890 -8.453 1.526 -254.984 -569.929 -3404.882 -0.472 -0.092 -0.002 -0.04 0.61 -0.79 0
1 0.76 76 0.824 -9.501 2.471 -6.775 -6.958 1.251 -329.935 -494.978 -3299.950 -0.275 0.025 -0.031 -0.04 0.61 -0.79 0.01
1 0.77 77 0.972 -9.659 2.380 -7.416 -6.287 1.343 -329.935 -494.978 -3299.950 -0.419 0.181 0.052 -0.04 0.61 -0.79 0.01
1 0.78 78 0.809 -9.740 2.500 -6.470 -5.920 1.495 -134.912 -644.880 -3479.983 -0.252 0.261 -0.077 -0.04 0.61 -0.79 0.01
1 0.79 79 0.709 -9.630 2.548 -5.951 -5.890 0.610 -284.964 -569.929 -3479.983 -0.148 0.149 -0.133 -0.04 0.61 -0.79 0.01
1 0.80 80 0.804 -9.630 2.591 -4.730 -5.493 0.153 -284.964 -569.929 -3479.983 -0.240 0.147 -0.183 -0.04 0.61 -0.79 0.01
1 0.81 81 0.709 -9.568 2.476 -4.547 -5.493 -0.336 -224.854 -509.968 -3314.940 -0.140 0.084 -0.073 -0.04 0.61 -0.79 0.01
1 0.82 82 0.675 -9.606 2.480 -4.822 -5.157 -0.458 -164.893 -629.890 -3419.872 -0.102 0.121 -0.082 -0.04 0.61 -0.79 0.01
1 0.83 83 0.565 -9.759 2.370 -4.822 -7.660 1.007 -329.935 -494.978 -3449.853 0.016 0.272 0.017 -0.04 0.61 -0.79 0.01
1 0.84 84 0.551 -9.654 2.519 -4.639 -8.881 1.343 -329.935 -494.978 -3449.853 0.033 0.165 -0.138 -0.04 0.61 -0.79 0.01
1 0.85 85 0.685 -9.534 2.447 -4.211 -10.223 2.014 -269.974 -539.948 -3419.872 -0.099 0.044 -0.071 -0.04 0.61 -0.79 0.01
1 0.86 86 0.785 -9.764 2.509 -4.517 -10.956 2.808 -344.925 -629.890 -3359.911 -0.197 0.273 -0.139 -0.04 0.61 -0.79 0.01
1 0.87 87 0.872 -9.659 2.581 -5.127 -11.017 3.204 -344.925 -629.890 -3359.911 -0.281 0.167 -0.216 -0.05 0.61 -0.79 0.01
1 0.88 88 0.919 -9.682 2.557 -4.761 -10.010 3.418 -224.854 -464.997 -3209.859 -0.326 0.189 -0.198 -0.05 0.61 -0.79 0.01
1 0.89 89 0.915 -9.716 2.600 -3.510 -8.087 3.052 -299.955 -539.948 -3359.911 -0.318 0.222 -0.246 -0.05 0.61 -0.79 0.01
1 0.90 90 0.919 -9.505 2.528 -1.495 -6.042 3.143 -299.955 -539.948 -3314.940 -0.319 0.010 -0.178 -0.05 0.61 -0.79 0.01
1 0.91 91 0.905 -9.534 2.543 -1.373 -5.890 2.441 -299.955 -539.948 -3314.940 -0.304 0.039 -0.193 -0.05 0.61 -0.79 0.01
1 0.92 92 0.752 -9.486 2.361 -2.991 -6.653 1.404 -389.896 -569.929 -3509.963 -0.148 -0.009 -0.011 -0.05 0.61 -0.79 0.01
1 0.93 93 0.814 -9.587 2.303 -3.754 -6.714 1.251 -449.857 -539.948 -3284.960 -0.208 0.091 0.043 -0.05 0.61 -0.79 0.01
1 0.94 94 0.915 -9.524 2.351 -4.395 -6.531 0.793 -449.857 -539.948 -3284.960 -0.306 0.028 -0.010 -0.05 0.61 -0.79 0.01
1 0.95 95 0.824 -9.544 2.356 -5.066 -6.836 1.099 -254.984 -569.929 -3329.931 -0.211 0.046 -0.020 -0.05 0.62 -0.79 0.01
1 0.96 96 0.891 -9.582 2.389 -5.219 -7.080 0.610 -269.974 -584.919 -3314.940 -0.275 0.083 -0.059 -0.05 0.62 -0.79 0.01
1 0.97 97 0.838 -9.601 2.385 -4.974 -6.897 0.244 -269.974 -584.919 -3314.940 -0.218 0.101 -0.060 -0.05 0.62 -0.79 0.01
1 0.98 98 0.747 -9.721 2.433 -5.005 -6.348 0.122 -359.916 -524.958 -3404.882 -0.118 0.219 -0.119 -0.05 0.62 -0.79 0.01
1 0.99 99 0.752 -9.682 2.318 -4.913 -6.592 1.434 -299.955 -509.968 -3389.892 -0.120 0.179 -0.009 -0.05 0.62 -0.79 0.01
1 1.00 100 0.924 -9.716 2.370 -4.944 -6.500 2.472 -254.984 -494.978 -3299.950 -0.291 0.211 -0.068 -0.05 0.62 -0.79 0.01
1 1.01 101 0.953 -9.778 2.409 -4.944 -6.134 3.357 -254.984 -494.978 -3299.950 -0.318 0.272 -0.112 -0.05 0.62 -0.79 0.01
1 1.02 102 1.063 -9.687 2.500 -2.930 -5.096 3.845 -299.955 -509.968 -3314.940 -0.428 0.180 -0.208 -0.05 0.62 -0.79 0.01
1 1.03 103 1.121 -9.793 2.437 -1.526 -4.334 3.571 -299.955 -509.968 -3359.911 -0.484 0.285 -0.148 -0.05 0.62 -0.79 0.01
1 1.04 104 1.197 -9.702 2.543 -0.946 -3.204 3.845 -299.955 -509.968 -3359.911 -0.561 0.194 -0.254 -0.05 0.62 -0.79 0.01
1 1.05 105 1.130 -9.797 2.409 -0.122 -2.716 3.357 -374.906 -434.867 -3464.993 -0.493 0.290 -0.118 -0.05 0.62 -0.79 0.02
1 1.06 106 1.097 -9.678 2.509 -0.214 -1.984 3.296 -224.854 -629.890 -3389.892 -0.460 0.171 -0.216 -0.05 0.62 -0.79 0.02
1 1.07 107 1.216 -9.663 2.548 0.610 -1.068 2.319 -254.984 -419.876 -3374.901 -0.579 0.157 -0.251 -0.05 0.62 -0.79 0.02
1 1.08 108 1.082 -9.568 2.461 0.946 -0.732 1.556 -254.984 -419.876 -3374.901 -0.443 0.063 -0.161 -0.05 0.62 -0.79 0.01
1 1.09 109 1.125 -9.692 2.639 1.617 0.397 0.885 -434.867 -494.978 -3329.931 -0.483 0.189 -0.333 -0.05 0.62 -0.79 0.01
1 1.10 110 1.077 -9.730 2.696 3.326 0.610 0.702 -374.906 -464.997 -3359.911 -0.432 0.229 -0.384 -0.05 0.62 -0.79 0.01
1 1.11 111 1.034 -9.568 2.634 4.517 1.740 0.580 -374.906 -464.997 -3359.911 -0.386 0.068 -0.314 -0.05 0.62 -0.79 0.01
1 1.12 112 1.015 -9.635 2.701 4.822 2.899 -0.793 -269.974 -464.997 -3359.911 -0.361 0.141 -0.359 -0.05 0.61 -0.79 0.01
1 1.13 113 0.900 -9.596 2.667 4.761 3.113 -0.732 -254.984 -494.978 -3374.901 -0.242 0.106 -0.314 -0.05 0.61 -0.79 0.01
1 1.14 114 0.939 -9.539 2.552 3.693 3.418 -1.160 -359.916 -599.909 -3329.931 -0.278 0.051 -0.189 -0.05 0.61 -0.79 0.01
1 1.15 115 1.077 -9.807 2.576 2.960 3.723 -1.587 -359.916 -599.909 -3329.931 -0.412 0.322 -0.204 -0.05 0.61 -0.79 0.01
1 1.16 116 0.943 -9.750 2.725 2.014 4.791 -1.221 -449.857 -539.948 -3239.989 -0.274 0.266 -0.345 -0.05 0.61 -0.79 0.01
1 1.17 117 0.752 -9.673 2.725 2.350 5.554 -1.495 -299.955 -584.919 -3464.993 -0.078 0.192 -0.339 -0.05 0.61 -0.79 0.01
1 1.18 118 0.843 -9.750 2.634 3.143 5.463 -1.862 -299.955 -584.919 -3464.993 -0.166 0.270 -0.240 -0.05 0.61 -0.79 0.01
1 1.19 119 0.742 -9.659 2.701 3.906 4.242 -1.831 -389.896 -644.880 -3374.901 -0.062 0.182 -0.299 -0.05 0.61 -0.79 0.01
1 1.20 120 0.776 -9.692 2.571 5.798 3.479 -0.885 -224.854 -584.919 -3389.892 -0.091 0.221 -0.150 -0.05 0.61 -0.79 0.01
1 1.21 121 0.646 -9.620 2.610 5.951 2.533 -1.007 -329.935 -719.981 -3479.983 0.039 0.152 -0.177 -0.05 0.61 -0.79 0.01
1 1.22 122 0.723 -9.448 2.418 4.852 2.167 -0.793 -329.935 -719.981 -3479.983 -0.036 -0.018 0.025 -0.05 0.61 -0.79 0.01
1 1.23 123 0.618 -9.429 2.452 3.998 1.251 -1.343 -329.935 -644.880 -3329.931 0.070 -0.034 0.001 -0.05 0.61 -0.79 0.01
1 1.24 124 0.685 -9.424 2.442 2.777 -0.153 -0.610 -269.974 -584.919 -3389.892 0.005 -0.037 0.018 -0.05 0.61 -0.79 0.01
1 1.25 125 0.694 -9.405 2.466 2.869 0.092 0.000 -269.974 -584.919 -3389.892 -0.003 -0.055 -0.000 -0.05 0.61 -0.79 0.01
1 1.26 126 0.785 -9.486 2.361 2.747 -0.427 0.610 -254.984 -674.860 -3404.882 -0.093 0.028 0.111 -0.05 0.61 -0.79 0.01
1 1.27 127 0.742 -9.381 2.528 2.625 0.183 0.061 -359.916 -599.909 -3374.901 -0.048 -0.074 -0.045 -0.05 0.61 -0.79 0.01
1 1.28 128 0.632 -9.491 2.418 2.258 -0.366 0.641 -299.955 -629.890 -3314.940 0.063 0.038 0.071 -0.05 0.61 -0.79 0.01
1 1.29 129 0.766 -9.390 2.279 1.587 -0.641 1.343 -299.955 -629.890 -3314.940 -0.072 -0.062 0.214 -0.05 0.61 -0.79 0.01
1 1.30 130 0.656 -9.410 2.308 0.610 -1.343 1.801 -269.974 -584.919 -3389.892 0.038 -0.042 0.188 -0.05 0.61 -0.79 0.01
1 1.31 131 0.661 -9.433 2.322 0.275 -1.984 1.801 -359.916 -644.880 -3254.979 0.032 -0.018 0.175 -0.05 0.61 -0.79 0.01
1 1.32 132 0.800 -9.529 2.413 0.000 -3.448 1.984 -359.916 -644.880 -3254.979 -0.107 0.078 0.085 -0.05 0.61 -0.79 0.01
1 1.33 133 0.776 -9.558 2.327 0.275 -3.387 1.495 -389.896 -569.929 -3329.931 -0.084 0.107 0.171 -0.05 0.61 -0.79 0.01
1 1.34 134 0.838 -9.735 2.318 0.519 -3.479 0.336 -299.955 -629.890 -3359.911 -0.143 0.285 0.182 -0.05 0.61 -0.79 0.01
1 1.35 135 0.785 -9.682 2.442 0.824 -3.174 0.214 -389.896 -749.961 -3299.950 -0.088 0.232 0.058 -0.05 0.61 -0.79 0.01
1 1.36 136 0.838 -9.807 2.322 0.763 -4.028 0.854 -389.896 -749.961 -3299.950 -0.139 0.357 0.179 -0.05 0.61 -0.79 0.01
1 1.37 137 0.771 -9.927 2.193 1.556 -5.829 2.380 -419.876 -629.890 -3419.872 -0.070 0.478 0.310 -0.05 0.61 -0.79 0.01
1 1.38 138 0.934 -9.764 2.303 2.625 -6.042 2.716 -344.925 -509.968 -3389.892 -0.233 0.315 0.200 -0.05 0.61 -0.79 0.01
1 1.39 139 1.379 -9.687 2.346 5.005 -5.341 2.197 -344.925 -509.968 -3389.892 -0.677 0.240 0.161 -0.05 0.61 -0.79 0.01
1 1.40 140 1.398 -9.544 2.552 4.547 -4.272 0.977 -254.984 -569.929 -3374.901 -0.693 0.098 -0.038 -0.05 0.61 -0.79 0.01
1 1.41 141 1.269 -9.663 2.586 4.761 -3.113 0.458 -254.984 -569.929 -3374.901 -0.558 0.220 -0.065 -0.06 0.61 -0.79 0.01
1 1.42 142 1.465 -9.563 2.389 6.592 -0.336 3.326 -269.974 -464.997 -3494.973 -0.745 0.125 0.149 -0.06 0.61 -0.79 0.01
1 1.43 143 1.331 -9.395 2.567 5.859 1.587 5.798 -269.974 -464.997 -3494.973 -0.610 -0.040 -0.018 -0.06 0.61 -0.79 0.01
1 1.44 144 1.350 -9.347 2.615 4.181 3.326 5.096 -434.867 -494.978 -3449.853 -0.632 -0.085 -0.055 -0.06 0.61 -0.79 0.01
1 1.45 145 1.101 -9.381 2.490 1.923 3.326 4.547 -329.935 -674.860 -3449.853 -0.386 -0.050 0.077 -0.05 0.6 -0.79 0.01
1 1.46 146 1.121 -9.457 2.567 1.465 1.709 2.319 -329.935 -674.860 -3449.853 -0.408 0.028 0.004 -0.05 0.6 -0.79 0.01
1 1.47 147 1.178 -9.472 2.452 2.533 3.265 1.862 -284.964 -719.981 -3404.882 -0.467 0.043 0.123 -0.05 0.6 -0.79 0.01
1 1.48 148 1.058 -9.481 2.571 2.106 4.364 2.014 -284.964 -719.981 -3404.882 -0.347 0.054 0.008 -0.05 0.6 -0.79 0.01
1 1.49 149 0.848 -9.443 2.567 0.885 4.211 0.977 -284.964 -569.929 -3479.983 -0.137 0.018 0.022 -0.05 0.6 -0.79 0.01
1 1.50 150 0.728 -9.553 2.658 1.221 2.869 0.427 -284.964 -569.929 -3479.983 -0.017 0.129 -0.065 -0.05 0.6 -0.8 0.01
1 1.51 151 0.843 -9.553 2.571 1.526 0.885 -0.610 -374.906 -779.942 -3494.973 -0.132 0.130 0.025 -0.05 0.6 -0.8 0.01
1 1.52 152 0.656 -9.539 2.524 1.465 -0.641 -1.465 -134.912 -674.860 -3449.853 0.058 0.117 0.076 -0.05 0.6 -0.8 0.01
1 1.53 153 0.800 -9.491 2.533 2.472 -1.678 -1.770 -134.912 -674.860 -3449.853 -0.082 0.070 0.070 -0.05 0.6 -0.8 0.01
1 1.54 154 0.666 -9.414 2.552 3.235 -2.563 0.183 -254.984 -674.860 -3449.853 0.056 -0.004 0.057 -0.05 0.6 -0.8 0.01
1 1.55 155 0.752 -9.371 2.533 2.045 -3.082 1.648 -254.984 -674.860 -3449.853 -0.028 -0.046 0.081 -0.05 0.6 -0.8 0.01
1 1.56 156 0.934 -9.386 2.677 0.671 -3.052 3.784 -179.883 -674.860 -3374.901 -0.211 -0.029 -0.055 -0.05 0.6 -0.8 0.01
1 1.57 157 0.986 -9.252 2.624 -1.221 -2.197 4.425 -179.883 -674.860 -3374.901 -0.267 -0.163 -0.000 -0.05 0.6 -0.8 0.01
1 1.58 158 1.049 -9.271 2.557 -1.831 -0.824 4.364 -374.906 -734.971 -3389.892 -0.332 -0.144 0.067 -0.05 0.6 -0.8 0.01
1 1.59 159 1.039 -9.323 2.533 -2.258 0.153 3.204 -269.974 -734.971 -3419.872 -0.326 -0.092 0.089 -0.05 0.6 -0.8 0.01
1 1.60 160 0.996 -9.558 2.480 -2.991 -1.282 3.143 -269.974 -734.971 -3419.872 -0.284 0.142 0.140 -0.05 0.6 -0.8 0.01
1 1.61 161 0.881 -9.649 2.610 -3.326 -2.655 1.892 -329.935 -599.909 -3404.882 -0.170 0.231 0.006 -0.05 0.6 -0.8 0.01
1 1.62 162 0.891 -9.764 2.610 -1.831 -3.815 2.014 -329.935 -599.909 -3404.882 -0.180 0.345 0.002 -0.05 0.6 -0.8 0.01
1 1.63 163 0.848 -9.821 2.442 -0.488 -5.219 1.984 -164.893 -629.890 -3419.872 -0.136 0.402 0.167 -0.05 0.6 -0.8 0.01
1 1.64 164 0.972 -9.759 2.600 1.007 -5.829 1.465 -344.925 -734.971 -3389.892 -0.257 0.340 0.009 -0.05 0.6 -0.8 0.01
1 1.65 165 1.202 -9.783 2.586 2.960 -4.730 1.251 -329.935 -674.860 -3449.853 -0.484 0.365 0.026 -0.05 0.6 -0.8 0.01
1 1.66 166 1.144 -9.515 2.658 4.334 -3.021 2.258 -284.964 -524.958 -3404.882 -0.422 0.099 -0.040 -0.05 0.6 -0.8 0.01
1 1.67 167 1.140 -9.362 2.567 3.510 -2.838 2.991 -284.964 -524.958 -3404.882 -0.415 -0.052 0.058 -0.06 0.6 -0.8 0.01
1 1.68 168 1.116 -9.424 2.595 0.580 -2.991 2.441 -434.867 -719.981 -3449.853 -0.390 0.012 0.036 -0.06 0.6 -0.8 0.01
1 1.69 169 1.101 -9.386 2.519 -0.519 -3.845 1.343 -434.867 -719.981 -3449.853 -0.375 -0.026 0.116 -0.06 0.6 -0.8 0.01
1 1.70 170 1.121 -9.453 2.562 -0.671 -3.296 0.549 -329.935 -644.880 -3449.853 -0.391 0.042 0.073 -0.06 0.6 -0.8 0.01
1 1.71 171 1.173 -9.524 2.629 -1.526 -3.082 -0.397 -224.854 -539.948 -3389.892 -0.433 0.114 0.006 -0.06 0.6 -0.8 0.01
1 1.72 172 1.101 -9.510 2.787 -3.021 -2.563 -2.075 -299.955 -734.971 -3389.892 -0.354 0.100 -0.154 -0.06 0.6 -0.8 0.01
1 1.73 173 1.202 -9.563 2.825 -3.357 -0.793 -1.862 -344.925 -629.890 -3419.872 -0.447 0.153 -0.195 -0.06 0.6 -0.8 0.01
1 1.74 174 1.025 -9.898 2.749 -1.556 1.587 -1.526 -344.925 -629.890 -3419.872 -0.264 0.488 -0.120 -0.06 0.6 -0.8 0.01
1 1.75 175 0.670 -9.850 2.672 2.960 3.143 1.190 -329.935 -524.958 -3404.882 0.094 0.441 -0.042 -0.06 0.6 -0.8 0.01
1 1.76 176 0.675 -9.759 2.591 3.815 2.228 2.319 -329.935 -524.958 -3404.882 0.089 0.351 0.044 -0.06 0.6 -0.8 0.01
1 1.77 177 0.589 -9.625 2.624 2.777 0.671 3.937 -284.964 -644.880 -3479.983 0.171 0.218 0.018 -0.06 0.6 -0.8 0.01
1 1.78 178 0.790 -9.568 2.500 3.387 -0.916 4.303 -419.876 -704.991 -3359.911 -0.042 0.163 0.153 -0.06 0.6 -0.8 0.01
1 1.79 179 1.097 -9.553 2.461 3.662 -0.702 3.693 -359.916 -644.880 -3299.950 -0.353 0.150 0.197 -0.06 0.6 -0.8 0.01
1 1.80 180 1.144 -9.491 2.533 5.127 0.092 1.526 -374.906 -734.971 -3599.905 -0.402 0.089 0.131 -0.06 0.6 -0.8 0.01
1 1.81 181 1.154 -9.419 2.538 5.707 1.740 -0.854 -374.906 -734.971 -3599.905 -0.409 0.020 0.135 -0.06 0.6 -0.8 0.01
1 1.82 182 0.943 -9.462 2.591 4.547 1.831 -2.502 -254.984 -839.903 -3374.901 -0.194 0.066 0.091 -0.06 0.6 -0.8 0.01
1 1.83 183 0.991 -9.592 2.658 3.754 2.197 -2.899 -254.984 -839.903 -3374.901 -0.235 0.198 0.032 -0.06 0.6 -0.8 0.01
1 1.84 184 0.747 -9.577 2.567 4.334 2.869 -1.892 -329.935 -599.909 -3329.931 0.014 0.186 0.129 -0.06 0.6 -0.8 0.01
1 1.85 185 0.709 -9.443 2.552 4.303 3.571 -0.702 -254.984 -674.860 -3449.853 0.056 0.055 0.151 -0.06 0.6 -0.8 0.01
1 1.86 186 0.532 -9.481 2.471 2.563 2.167 0.732 -299.955 -659.870 -3419.872 0.233 0.097 0.247 -0.06 0.6 -0.8 0.01
1 1.87 187 0.584 -9.501 2.600 2.319 0.427 1.404 -329.935 -719.981 -3554.934 0.179 0.117 0.122 -0.06 0.6 -0.8 0.01
1 1.88 188 0.747 -9.477 2.576 2.960 0.153 1.648 -329.935 -719.981 -3554.934 0.013 0.094 0.150 -0.06 0.6 -0.8 0.01
1 1.89 189 0.838 -9.453 2.782 2.380 0.031 1.221 -434.867 -644.880 -3329.931 -0.078 0.072 -0.051 -0.06 0.6 -0.8 0.01
1 1.90 190 0.666 -9.467 2.782 1.373 1.556 0.854 -434.867 -644.880 -3329.931 0.093 0.087 -0.046 -0.06 0.6 -0.8 0.01
1 1.91 191 0.680 -9.592 2.935 0.641 2.716 -0.153 -284.964 -644.880 -3509.963 0.078 0.213 -0.196 -0.06 0.6 -0.8 0.01
1 1.92 192 0.479 -9.539 2.739 0.702 1.526 0.092 -359.916 -719.981 -3554.934 0.277 0.161 0.005 -0.06 0.6 -0.8 0.01
1 1.93 193 0.350 -9.726 2.725 3.326 0.183 1.282 -359.916 -644.880 -3404.882 0.403 0.350 0.027 -0.05 0.6 -0.8 0.01
1 1.94 194 0.484 -9.706 2.715 4.059 -0.824 2.502 -224.854 -704.991 -3539.944 0.265 0.332 0.042 -0.05 0.6 -0.8 0.01
1 1.95 195 0.498 -9.596 2.653 4.761 -3.113 2.838 -224.854 -704.991 -3539.944 0.246 0.223 0.110 -0.05 0.6 -0.8 0.01
1 1.96 196 0.555 -9.477 2.634 4.791 -4.578 3.479 -209.863 -674.860 -3479.983 0.184 0.106 0.137 -0.05 0.6 -0.8 0.01
1 1.97 197 0.632 -9.529 2.634 5.035 -5.432 3.296 -209.863 -674.860 -3479.983 0.104 0.160 0.144 -0.05 0.6 -0.8 0.01
1 1.98 198 0.737 -9.390 2.571 4.547 -4.639 3.387 -269.974 -734.971 -3419.872 -0.003 0.023 0.213 -0.05 0.6 -0.8 0.01
1 1.99 199 0.828 -9.539 2.619 4.181 -3.998 4.517 -179.883 -674.860 -3449.853 -0.096 0.173 0.172 -0.05 0.6 -0.8 0.01
1 2.00 200 0.867 -9.448 2.552 2.380 -4.150 5.768 -299.955 -659.870 -3389.892 -0.141 0.085 0.250 -0.05 0.6 -0.8 0.01
1 2.01 201 0.876 -9.505 2.701 1.617 -2.960 5.890 -359.916 -644.880 -3509.963 -0.155 0.143 0.105 -0.05 0.59 -0.8 0.01
1 2.02 202 1.082 -9.390 2.782 0.854 -1.678 5.310 -359.916 -644.880 -3509.963 -0.366 0.029 0.026 -0.05 0.59 -0.8 0.01
1 2.03 203 0.900 -9.491 2.701 -0.427 -0.092 3.815 -329.935 -644.880 -3509.963 -0.187 0.130 0.109 -0.05 0.59 -0.8 0.01
1 2.04 204 0.771 -9.592 2.729 0.031 1.099 3.906 -329.935 -644.880 -3509.963 -0.060 0.230 0.081 -0.05 0.59 -0.8 0.01
1 2.05 205 0.608 -9.702 2.911 3.693 1.160 3.876 -254.984 -719.981 -3449.853 0.099 0.340 -0.100 -0.05 0.59 -0.8 0.01
1 2.06 206 0.546 -9.706 2.753 5.737 -0.092 5.524 -329.935 -794.932 -3404.882 0.156 0.346 0.063 -0.05 0.59 -0.8 0.01
1 2.07 207 0.488 -9.496 2.739 7.019 -1.160 5.646 -329.935 -794.932 -3404.882 0.206 0.138 0.086 -0.05 0.59 -0.8 0.01
1 2.08 208 0.742 -9.098 2.787 6.348 -1.404 5.127 -254.984 -719.981 -3584.915 -0.063 -0.255 0.059 -0.05 0.59 -0.8 0.01
1 2.09 209 0.828 -9.204 2.787 4.791 0.183 3.632 -254.984 -719.981 -3584.915 -0.154 -0.147 0.069 -0.05 0.59 -0.8 0.01
1 2.10 210 0.656 -9.304 2.768 3.662 1.495 2.106 -299.955 -734.971 -3569.924 0.015 -0.044 0.096 -0.05 0.59 -0.8 0.01
1 2.11 211 0.474 -9.204 2.739 3.723 2.014 0.641 -299.955 -734.971 -3569.924 0.196 -0.142 0.132 -0.05 0.59 -0.8 0.01
1 2.12 212 0.321 -9.343 2.706 3.601 0.549 -0.977 -179.883 -749.961 -3554.934 0.348 -0.001 0.173 -0.05 0.59 -0.8 0.01
1 2.13 213 0.311 -9.381 2.782 3.052 -1.923 -1.495 -209.863 -794.932 -3479.983 0.357 0.039 0.103 -0.05 0.59 -0.8 0.01
1 2.14 214 0.110 -9.448 2.768 2.258 -3.632 0.183 -209.863 -794.932 -3479.983 0.559 0.108 0.123 -0.05 0.59 -0.8 0.01
1 2.15 215 0.431 -9.386 2.935 2.350 -5.096 1.892 -194.873 -779.942 -3569.924 0.235 0.048 -0.037 -0.05 0.59 -0.8 0.01
1 2.16 216 0.484 -9.343 2.859 0.641 -6.439 2.533 -194.873 -779.942 -3569.924 0.180 0.006 0.044 -0.05 0.59 -0.8 0.01
1 2.17 217 0.431 -9.237 2.864 0.427 -6.470 3.204 -449.857 -704.991 -3464.993 0.231 -0.099 0.040 -0.05 0.59 -0.8 0.01
1 2.18 218 0.575 -9.338 2.801 0.732 -5.524 3.082 -449.857 -704.991 -3464.993 0.085 0.002 0.105 -0.05 0.59 -0.81 0.01
1 2.19 219 0.397 -9.237 2.878 0.732 -5.829 2.899 -134.912 -644.880 -3479.983 0.261 -0.098 0.030 -0.05 0.59 -0.81 0.01
1 2.20 220 0.498 -9.338 2.773 -0.244 -8.270 2.350 -179.883 -644.880 -3584.915 0.159 0.003 0.137 -0.05 0.59 -0.81 0.01
1 2.21 221 0.637 -9.457 2.964 -0.916 -8.789 2.045 -179.883 -644.880 -3584.915 0.019 0.123 -0.054 -0.05 0.59 -0.81 0.01
1 2.22 222 0.699 -9.433 2.878 -0.458 -9.064 2.747 -284.964 -569.929 -3404.882 -0.040 0.098 0.030 -0.05 0.59 -0.81 0.02
1 2.23 223 0.594 -9.419 2.907 0.397 -9.766 2.350 -284.964 -569.929 -3404.882 0.067 0.084 0.002 -0.05 0.59 -0.81 0.02
1 2.24 224 0.713 -9.371 2.897 0.946 -10.925 2.167 -269.974 -854.893 -3569.924 -0.051 0.037 0.013 -0.05 0.59 -0.81 0.02
1 2.25 225 0.781 -9.280 2.739 1.312 -12.421 2.167 -269.974 -854.893 -3569.924 -0.116 -0.053 0.174 -0.05 0.59 -0.81 0.02
1 2.26 226 0.733 -9.089 2.931 0.580 -13.916 1.556 -434.867 -674.860 -3584.915 -0.064 -0.244 -0.016 -0.06 0.59 -0.81 0.02
1 2.27 227 1.010 -9.184 2.868 -1.343 -13.397 0.854 -449.857 -854.893 -3539.944 -0.336 -0.147 0.047 -0.06 0.59 -0.81 0.02
1 2.28 228 1.269 -9.098 2.921 -2.350 -11.169 0.793 -449.857 -854.893 -3539.944 -0.587 -0.233 -0.005 -0.06 0.59 -0.81 0.02
1 2.29 229 1.034 -9.132 2.878 -4.547 -10.223 1.251 -359.916 -599.909 -3554.934 -0.345 -0.200 0.036 -0.06 0.59 -0.81 0.02
1 2.30 230 0.986 -9.338 2.897 -7.477 -8.179 1.770 -389.896 -719.981 -3629.885 -0.283 0.003 0.003 -0.06 0.59 -0.8 0.02
1 2.31 231 0.891 -9.299 2.892 -8.301 -7.324 2.838 -374.906 -854.893 -3599.905 -0.183 -0.038 -0.002 -0.06 0.59 -0.8 0.02
1 2.32 232 0.919 -9.453 2.758 -9.430 -7.294 2.441 -374.906 -854.893 -3599.905 -0.210 0.112 0.121 -0.06 0.59 -0.8 0.02
1 2.33 233 0.752 -9.433 2.806 -9.552 -8.301 3.754 -329.935 -719.981 -3509.963 -0.040 0.089 0.060 -0.06 0.59 -0.8 0.02
1 2.34 234 0.953 -9.558 2.888 -9.979 -9.674 2.563 -374.906 -704.991 -3419.872 -0.241 0.209 -0.035 -0.06 0.59 -0.8 0.02
1 2.35 235 1.183 -9.568 2.892 -9.369 -9.735 3.021 -374.906 -704.991 -3419.872 -0.469 0.215 -0.054 -0.06 0.59 -0.8 0.02
1 2.36 236 1.140 -9.577 3.079 -7.904 -9.338 2.197 -359.916 -719.981 -3554.934 -0.423 0.221 -0.253 -0.06 0.59 -0.8 0.02
1 2.37 237 1.087 -9.678 2.926 -5.737 -7.507 1.556 -449.857 -884.874 -3599.905 -0.361 0.317 -0.119 -0.06 0.59 -0.8 0.02
1 2.38 238 1.097 -9.692 2.974 -4.181 -6.714 1.465 -389.896 -839.903 -3509.963 -0.367 0.329 -0.173 -0.06 0.59 -0.8 0.02
1 2.39 239 1.001 -9.702 2.897 -3.021 -5.646 1.984 -389.896 -839.903 -3509.963 -0.267 0.338 -0.101 -0.06 0.59 -0.8 0.02
1 2.40 240 0.891 -9.577 2.911 -2.167 -5.615 1.373 -434.867 -674.860 -3584.915 -0.154 0.213 -0.118 -0.06 0.59 -0.8 0.02
1 2.41 241 0.776 -9.510 2.658 -2.777 -6.470 0.854 -389.896 -674.860 -3479.983 -0.036 0.145 0.133 -0.06 0.59 -0.8 0.02
1 2.42 242 0.804 -9.443 2.639 -3.571 -6.897 1.465 -389.896 -674.860 -3479.983 -0.062 0.077 0.148 -0.06 0.59 -0.8 0.02
1 2.43 243 0.785 -9.544 2.624 -4.944 -6.836 2.411 -389.896 -644.880 -3584.915 -0.040 0.177 0.159 -0.07 0.59 -0.8 0.02
1 2.44 244 0.800 -9.673 2.753 -6.500 -7.111 2.808 -359.916 -749.961 -3404.882 -0.051 0.302 0.015 -0.07 0.6 -0.8 0.02
1 2.45 245 0.915 -9.529 2.643 -5.646 -7.233 3.937 -194.873 -779.942 -3464.993 -0.166 0.156 0.116 -0.07 0.6 -0.8 0.02
1 2.46 246 0.843 -9.438 2.811 -4.883 -6.622 4.700 -194.873 -779.942 -3464.993 -0.095 0.062 -0.059 -0.07 0.6 -0.8 0.02
1 2.47 247 1.077 -9.496 2.763 -5.219 -5.341 5.005 -374.906 -779.942 -3389.892 -0.331 0.118 -0.017 -0.07 0.6 -0.8 0.02
1 2.48 248 0.953 -9.615 2.911 -5.463 -4.181 5.280 -344.925 -704.991 -3494.973 -0.209 0.236 -0.172 -0.07 0.6 -0.8 0.02
1 2.49 249 0.881 -9.821 2.682 -4.791 -1.587 5.890 -344.925 -704.991 -3494.973 -0.140 0.440 0.053 -0.07 0.6 -0.8 0.03
1 2.50 250 0.857 -9.730 2.729 -3.326 -1.343 6.592 -389.896 -749.961 -3449.853 -0.121 0.347 -0.001 -0.07 0.6 -0.8 0.03
1 2.51 251 0.915 -9.730 2.773 -3.357 -0.702 7.874 -389.896 -749.961 -3629.885 -0.185 0.345 -0.049 -0.07 0.6 -0.8 0.03
1 2.52 252 0.795 -9.711 2.710 -3.906 1.495 8.942 -359.916 -749.961 -3509.963 -0.084 0.322 0.005 -0.06 0.6 -0.8 0.03
1 2.53 253 0.848 -9.673 2.706 -2.747 1.526 9.888 -359.916 -749.961 -3509.963 -0.149 0.281 0.006 -0.06 0.6 -0.8 0.03
1 2.54 254 0.838 -9.735 2.729 -2.686 2.502 11.383 -509.968 -644.880 -3404.882 -0.154 0.342 -0.020 -0.06 0.6 -0.8 0.03
1 2.55 255 0.891 -9.917 2.739 -2.197 3.662 12.024 -344.925 -704.991 -3389.892 -0.222 0.522 -0.032 -0.06 0.6 -0.8 0.03
1 2.56 256 0.804 -9.855 2.792 -2.533 6.165 14.069 -344.925 -704.991 -3389.892 -0.154 0.458 -0.086 -0.06 0.6 -0.8 0.03
1 2.57 257 0.781 -10.008 2.820 -3.021 6.866 16.632 -389.896 -749.961 -3449.853 -0.149 0.610 -0.117 -0.06 0.6 -0.8 0.03
1 2.58 258 0.804 -9.912 2.883 -2.686 8.453 18.097 -374.906 -659.870 -3599.905 -0.197 0.512 -0.182 -0.06 0.6 -0.8 0.03
1 2.59 259 0.785 -9.812 3.079 -2.594 11.414 17.792 -419.876 -584.919 -3359.911 -0.232 0.407 -0.380 -0.06 0.6 -0.8 0.03
1 2.60 260 0.656 -9.692 2.935 -0.427 12.360 16.968 -419.876 -584.919 -3359.911 -0.130 0.286 -0.235 -0.06 0.6 -0.8 0.03
1 2.61 261 0.517 -9.654 2.854 1.801 13.489 15.533 -359.916 -794.932 -3479.983 -0.018 0.248 -0.150 -0.05 0.6 -0.8 0.03
1 2.62 262 0.441 -9.343 2.658 3.387 13.794 13.977 -419.876 -734.971 -3539.944 0.032 -0.063 0.053 -0.05 0.6 -0.8 0.03
1 2.63 263 0.187 -9.228 2.715 4.211 14.648 13.123 -419.876 -734.971 -3539.944 0.261 -0.177 0.004 -0.05 0.6 -0.8 0.03
1 2.64 264 -0.129 -9.132 2.619 1.923 15.839 9.735 -374.906 -734.971 -3569.924 0.552 -0.271 0.109 -0.05 0.6 -0.8 0.03
1 2.65 265 -0.192 -9.146 2.485 -0.366 16.022 7.751 -224.854 -704.991 -3359.911 0.591 -0.256 0.248 -0.05 0.6 -0.8 0.03
1 2.66 266 -0.546 -9.271 2.437 0.031 15.045 2.899 -464.997 -674.860 -3449.853 0.906 -0.133 0.298 -0.05 0.6 -0.8 0.03
1 2.67 267 -0.790 -9.280 2.246 0.763 12.146 0.580 -464.997 -674.860 -3449.853 1.135 -0.124 0.491 -0.04 0.6 -0.8 0.03
1 2.68 268 -0.843 -9.572 2.112 -0.397 9.705 -0.549 -254.984 -719.981 -3479.983 1.176 0.168 0.624 -0.04 0.6 -0.8 0.03
1 2.69 269 -0.757 -9.433 2.193 -1.556 8.270 -0.488 -179.883 -599.909 -3449.853 1.079 0.028 0.540 -0.04 0.6 -0.8 0.03
1 2.70 270 -0.876 -9.534 2.035 1.617 7.935 -0.519 -179.883 -599.909 -3449.853 1.190 0.127 0.695 -0.04 0.6 -0.8 0.03
1 2.71 271 -0.876 -9.347 1.954 2.991 3.632 0.885 -269.974 -809.922 -3419.872 1.179 -0.060 0.777 -0.04 0.6 -0.8 0.03
1 2.72 272 -0.752 -9.501 1.968 -3.876 -0.092 0.610 -284.964 -524.958 -3449.853 1.044 0.094 0.766 -0.04 0.6 -0.8 0.03
1 2.73 273 -0.690 -9.888 1.997 -7.568 -3.632 0.885 -284.964 -524.958 -3449.853 0.972 0.480 0.730 -0.04 0.6 -0.8 0.03
1 2.74 274 -0.464 -10.008 2.145 -2.563 -4.608 2.258 -104.932 -719.981 -3509.963 0.734 0.591 0.554 -0.04 0.6 -0.8 0.03
1 2.75 275 -0.546 -9.946 2.188 4.425 -4.944 1.770 -164.893 -659.870 -3359.911 0.810 0.527 0.505 -0.04 0.6 -0.8 0.03
1 2.76 276 -0.603 -9.702 2.021 5.920 -6.805 0.061 -134.912 -674.860 -3584.915 0.862 0.284 0.677 -0.04 0.6 -0.8 0.03
1 2.77 277 -0.704 -9.783 2.150 3.235 -7.843 -0.275 -134.912 -674.860 -3584.915 0.961 0.367 0.552 -0.04 0.6 -0.8 0.03
1 2.78 278 -0.833 -9.951 2.035 2.014 -8.514 2.899 -344.925 -659.870 -3464.993 1.087 0.534 0.668 -0.04 0.6 -0.8 0.03
1 2.79 279 -0.939 -9.903 1.973 6.592 -8.972 6.134 -164.893 -704.991 -3539.944 1.187 0.486 0.729 -0.04 0.6 -0.8 0.03
1 2.80 280 -0.752 -9.649 1.978 9.155 -10.040 8.087 -164.893 -704.991 -3539.944 0.990 0.233 0.728 -0.04 0.6 -0.8 0.03
1 2.81 281 -0.690 -9.467 2.026 5.951 -12.543 9.277 -269.974 -779.942 -3569.924 0.899 0.055 0.697 -0.04 0.6 -0.8 0.03
1 2.82 282 -0.484 -9.558 1.901 2.930 -13.214 9.735 -194.873 -704.991 -3494.973 0.678 0.147 0.825 -0.04 0.6 -0.8 0.03
1 2.83 283 -0.369 -9.501 1.901 4.517 -12.817 9.796 -254.984 -569.929 -3449.853 0.550 0.089 0.825 -0.04 0.6 -0.8 0.03
1 2.84 284 -0.311 -9.338 2.069 7.751 -12.421 7.813 -254.984 -569.929 -3449.853 0.481 -0.073 0.660 -0.04 0.6 -0.8 0.04
1 2.85 285 -0.330 -9.252 2.059 10.345 -10.559 5.737 -224.854 -629.890 -3239.989 0.492 -0.157 0.678 -0.04 0.6 -0.8 0.04
1 2.86 286 -0.426 -9.223 1.868 7.599 -10.284 2.625 -254.984 -674.860 -3479.983 0.582 -0.183 0.881 -0.04 0.6 -0.8 0.04
1 2.87 287 -0.374 -9.438 1.896 6.073 -12.116 0.916 -254.984 -674.860 -3479.983 0.526 0.035 0.859 -0.04 0.6 -0.8 0.04
1 2.88 288 -0.211 -9.529 1.705 6.226 -14.008 -1.282 -389.896 -839.903 -3584.915 0.366 0.128 1.059 -0.04 0.6 -0.8 0.04
1 2.89 289 -0.115 -9.433 1.820 6.714 -15.656 -1.007 -419.876 -734.971 -3599.905 0.276 0.034 0.947 -0.04 0.6 -0.8 0.04
1 2.90 290 0.067 -9.400 1.968 7.965 -16.083 -3.479 -194.873 -704.991 -3494.973 0.102 0.002 0.803 -0.04 0.6 -0.8 0.04
1 2.91 291 0.081 -9.410 1.925 7.660 -17.761 -5.432 -194.873 -704.991 -3494.973 0.100 0.013 0.853 -0.04 0.6 -0.8 0.04
1 2.92 292 0.192 -9.376 2.078 7.233 -20.020 -7.385 -299.955 -854.893 -3419.872 0.006 -0.018 0.706 -0.04 0.6 -0.8 0.04
1 2.93 293 0.153 -9.410 2.131 7.050 -19.867 -10.284 -224.854 -734.971 -3539.944 0.065 0.018 0.660 -0.04 0.6 -0.8 0.04
1 2.94 294 0.283 -9.529 2.150 5.402 -18.829 -11.475 -224.854 -734.971 -3539.944 -0.041 0.140 0.647 -0.05 0.6 -0.8 0.04
1 2.95 295 0.326 -9.587 1.997 6.195 -16.876 -11.383 -344.925 -779.942 -3599.905 -0.059 0.200 0.805 -0.05 0.6 -0.8 0.04
1 2.96 296 0.129 -9.544 2.121 10.010 -14.374 -12.634 -359.916 -794.932 -3554.934 0.186 0.161 0.691 -0.05 0.59 -0.8 0.04
1 2.97 297 0.110 -9.405 2.078 9.125 -14.099 -12.787 -389.896 -794.932 -3584.915 0.230 0.026 0.744 -0.05 0.59 -0.8 0.04
1 2.98 298 0.125 -9.582 2.160 7.385 -14.801 -13.458 -389.896 -794.932 -3584.915 0.239 0.207 0.671 -0.05 0.59 -0.8 0.04
1 2.99 299 0.306 -9.888 2.241 7.111 -15.259 -13.580 -434.867 -674.860 -3554.934 0.082 0.516 0.596 -0.05 0.59 -0.8 0.04
1 3.00 300 0.302 -9.678 2.179 12.238 -11.658 -12.238 -494.978 -779.942 -3359.911 0.112 0.308 0.664 -0.06 0.59 -0.8 0.04
1 3.01 301 0.211 -9.529 2.112 15.228 -10.712 -11.993 -494.978 -779.942 -3359.911 0.226 0.165 0.743 -0.06 0.59 -0.8 0.04
1 3.02 302 0.187 -9.448 1.939 14.465 -11.353 -11.780 -509.968 -869.883 -3659.866 0.272 0.089 0.933 -0.06 0.59 -0.8 0.04
1 3.03 303 0.172 -9.376 1.935 11.536 -13.550 -11.749 -449.857 -854.893 -3464.993 0.329 0.029 0.967 -0.06 0.59 -0.8 0.04
1 3.04 304 0.182 -9.328 1.801 9.369 -14.648 -10.864 -419.876 -884.874 -3539.944 0.341 -0.015 1.111 -0.06 0.59 -0.8 0.04
1 3.05 305 0.014 -9.443 1.868 8.514 -15.930 -8.606 -419.876 -884.874 -3539.944 0.528 0.103 1.051 -0.06 0.59 -0.8 0.04
1 3.06 306 0.220 -9.453 1.791 8.148 -16.205 -7.599 -509.968 -674.860 -3509.963 0.339 0.115 1.132 -0.06 0.59 -0.8 0.04
1 3.07 307 0.378 -9.457 1.829 7.660 -17.242 -6.042 -209.863 -989.955 -3629.885 0.196 0.122 1.098 -0.06 0.59 -0.8 0.04
1 3.08 308 0.441 -9.520 1.992 5.615 -17.273 -6.653 -209.863 -989.955 -3629.885 0.150 0.186 0.938 -0.07 0.59 -0.8 0.04
1 3.09 309 0.517 -9.596 2.136 6.012 -18.494 -6.470 -674.860 -779.942 -3569.924 0.090 0.265 0.795 -0.07 0.59 -0.81 0.04
1 3.10 310 1.015 -10.209 2.820 3.540 -22.461 -4.791 -674.860 -1004.945 -3539.944 -0.372 0.881 0.114 -0.07 0.59 -0.81 0.04
1 3.11 311 1.389 -10.453 2.763 1.160 -23.285 -2.258 -629.890 -809.922 -3674.856 -0.727 1.127 0.171 -0.07 0.59 -0.81 0.04
1 3.12 312 1.801 -10.248 3.022 11.505 -16.113 -0.793 -629.890 -809.922 -3674.856 -1.126 0.923 -0.083 -0.07 0.59 -0.81 0.04
1 3.13 313 1.705 -9.716 3.491 25.269 -8.667 -2.686 -569.929 -854.893 -3674.856 -1.021 0.399 -0.530 -0.07 0.59 -0.81 0.04
1 3.14 314 1.992 -10.185 4.061 11.841 -16.083 2.136 -509.968 -749.961 -3659.866 -1.291 0.882 -1.062 -0.07 0.58 -0.81 0.04
1 3.15 315 3.184 -11.014 5.042 -22.400 0.031 11.444 -509.968 -749.961 -3659.866 -2.478 1.712 -2.038 -0.08 0.58 -0.81 0.04
1 3.16 316 2.864 -11.469 4.104 0.122 15.076 11.688 -599.909 -854.893 -3719.977 -2.170 2.158 -1.127 -0.08 0.59 -0.81 0.04
1 3.17 317 1.705 -10.928 3.850 23.773 28.839 13.245 -599.909 -854.893 -3719.977 -1.032 1.613 -0.880 -0.07 0.59 -0.81 0.04
1 3.18 318 -0.091 -9.419 2.935 14.496 25.696 12.146 -734.971 -914.854 -3554.934 0.701 0.123 0.106 -0.07 0.58 -0.81 0.04
1 3.19 319 -0.316 -9.371 2.816 -7.446 18.280 11.536 -734.971 -914.854 -3554.934 0.895 0.079 0.242 -0.07 0.58 -0.81 0.04
1 3.20 320 -0.455 -9.568 2.931 -20.569 17.975 7.019 -569.929 -959.975 -3599.905 1.004 0.268 0.112 -0.07 0.58 -0.81 0.04
1 3.21 321 -0.963 -9.975 3.424 -14.954 19.928 1.831 -539.948 -914.854 -3479.983 1.489 0.665 -0.408 -0.06 0.58 -0.81 0.04
1 3.22 322 -1.528 -10.243 3.606 8.850 15.076 -0.122 -539.948 -914.854 -3479.983 2.035 0.929 -0.601 -0.06 0.59 -0.81 0.04
1 3.23 323 -1.575 -10.166 3.625 14.862 6.378 0.519 -389.896 -1019.936 -3629.885 2.069 0.855 -0.608 -0.06 0.59 -0.81 0.04
1 3.24 324 -1.259 -9.769 3.788 12.390 -3.296 -0.061 -434.867 -914.854 -3809.918 1.749 0.472 -0.728 -0.06 0.58 -0.81 0.04
1 3.25 325 -1.140 -9.553 3.630 13.977 -5.798 -3.510 -419.876 -779.942 -3569.924 1.621 0.264 -0.546 -0.06 0.58 -0.81 0.04
1 3.26 326 -0.804 -9.208 3.342 18.768 -11.810 -8.911 -419.876 -779.942 -3569.924 1.289 -0.071 -0.230 -0.06 0.58 -0.81 0.04
1 3.27 327 -0.546 -9.290 3.285 14.038 -16.937 -9.033 -419.876 -884.874 -3599.905 1.041 0.020 -0.144 -0.06 0.58 -0.81 0.04
1 3.28 328 -0.024 -9.252 3.414 4.639 -21.820 -7.599 -374.906 -854.893 -3494.973 0.533 -0.011 -0.256 -0.06 0.58 -0.81 0.04
1 3.29 329 0.359 -9.352 3.491 -0.519 -24.170 -5.707 -374.906 -854.893 -3494.973 0.166 0.092 -0.326 -0.06 0.58 -0.81 0.04
1 3.30 330 1.001 -9.443 3.740 1.373 -21.545 -4.425 -569.929 -884.874 -3569.924 -0.458 0.184 -0.574 -0.06 0.58 -0.81 0.04
1 3.31 331 1.417 -8.988 3.951 1.343 -19.714 -6.622 -569.929 -884.874 -3569.924 -0.856 -0.268 -0.782 -0.07 0.58 -0.81 0.04
1 3.32 332 1.657 -8.658 4.190 -2.441 -12.939 -14.740 -464.997 -944.984 -3584.915 -1.042 -0.591 -1.009 -0.07 0.58 -0.81 0.04
1 3.33 333 1.666 -8.586 4.133 -6.195 -8.270 -19.226 -464.997 -944.984 -3584.915 -1.016 -0.659 -0.948 -0.07 0.58 -0.81 0.04
1 3.34 334 1.523 -8.691 4.089 -9.338 -4.181 -22.614 -434.867 -989.955 -3584.915 -0.832 -0.551 -0.905 -0.07 0.58 -0.81 0.04
1 3.35 335 1.437 -8.605 3.989 -12.390 -1.465 -24.139 -704.991 -959.975 -3599.905 -0.703 -0.636 -0.810 -0.07 0.58 -0.81 0.04
1 3.36 336 1.221 -8.691 4.056 -14.923 0.061 -24.201 -704.991 -959.975 -3599.905 -0.446 -0.550 -0.887 -0.08 0.58 -0.81 0.04
1 3.37 337 0.948 -8.696 3.797 -15.045 -0.061 -21.729 -614.899 -914.854 -3659.866 -0.135 -0.546 -0.641 -0.08 0.58 -0.81 0.04
1 3.38 338 0.900 -8.730 3.520 -11.993 -2.167 -18.646 -614.899 -914.854 -3659.866 -0.052 -0.514 -0.378 -0.08 0.58 -0.81 0.03
1 3.39 339 0.766 -8.639 3.505 -8.911 -5.493 -14.954 -749.961 -959.975 -3644.875 0.111 -0.606 -0.375 -0.08 0.58 -0.81 0.03
1 3.40 340 0.809 -8.734 3.295 -11.658 -13.855 -8.118 -734.971 -839.903 -3449.853 0.114 -0.512 -0.180 -0.08 0.58 -0.81 0.03
1 3.41 341 1.484 -8.581 3.433 -6.683 -22.034 4.700 -749.961 -1049.916 -3569.924 -0.546 -0.667 -0.331 -0.08 0.58 -0.81 0.03
1 3.42 342 2.236 -8.500 3.620 -7.263 -18.433 10.803 -690.000 -989.955 -3584.915 -1.293 -0.751 -0.525 -0.08 0.58 -0.81 0.03
1 3.43 343 2.983 -8.461 3.553 -10.498 -11.658 12.085 -690.000 -989.955 -3584.915 -2.039 -0.791 -0.465 -0.08 0.58 -0.81 0.03
1 3.44 344 3.261 -8.667 3.419 -12.756 2.228 8.453 -779.942 -959.975 -3539.944 -2.314 -0.589 -0.342 -0.09 0.58 -0.81 0.04
1 3.45 345 2.950 -8.552 3.251 -13.519 10.437 3.448 -779.942 -959.975 -3539.944 -1.999 -0.707 -0.187 -0.09 0.58 -0.81 0.04
1 3.46 346 2.433 -8.720 3.074 -14.557 13.916 -3.479 -749.961 -854.893 -3494.973 -1.475 -0.543 -0.022 -0.09 0.58 -0.81 0.04
1 3.47 347 1.930 -9.065 3.022 -12.543 12.482 -10.712 -794.932 -989.955 -3479.983 -0.943 -0.205 0.001 -0.09 0.58 -0.81 0.03
1 3.48 348 1.714 -8.931 2.964 -10.315 11.169 -11.719 -794.932 -989.955 -3479.983 -0.708 -0.341 0.046 -0.09 0.58 -0.81 0.03
1 3.49 349 1.652 -8.974 2.864 -10.193 11.292 -9.277 -779.942 -929.994 -3539.944 -0.628 -0.299 0.136 -0.09 0.58 -0.81 0.03
1 3.50 350 1.456 -8.873 2.935 -12.787 10.681 -4.852 -779.942 -929.994 -3539.944 -0.419 -0.403 0.052 -0.09 0.58 -0.81 0.03
1 3.51 351 1.609 -8.897 2.916 -15.808 10.162 0.122 -749.961 -929.994 -3569.924 -0.567 -0.383 0.055 -0.09 0.58 -0.81 0.03
1 3.52 352 1.982 -8.950 2.935 -17.883 9.003 4.334 -749.961 -929.994 -3569.924 -0.941 -0.337 0.017 -0.09 0.58 -0.81 0.03
1 3.53 353 2.351 -8.993 2.974 -15.289 9.308 2.747 -659.870 -944.984 -3479.983 -1.313 -0.301 -0.043 -0.09 0.59 -0.81 0.03
1 3.54 354 2.504 -9.012 3.089 -12.329 11.200 0.092 -839.903 -839.903 -3404.882 -1.462 -0.292 -0.193 -0.09 0.59 -0.8 0.03
1 3.55 355 2.691 -8.883 3.055 -9.949 12.360 -1.526 -704.991 -884.874 -3539.944 -1.641 -0.424 -0.171 -0.09 0.59 -0.8 0.03
1 3.56 356 2.514 -8.854 3.022 -8.972 13.977 -4.242 -674.860 -779.942 -3539.944 -1.454 -0.454 -0.145 -0.09 0.59 -0.8 0.02
1 3.57 357 2.619 -8.926 2.964 -9.430 16.205 -6.531 -674.860 -779.942 -3539.944 -1.546 -0.383 -0.094 -0.09 0.59 -0.8 0.02
1 3.58 358 2.538 -8.768 2.998 -10.834 19.196 -8.789 -599.909 -959.975 -3464.993 -1.450 -0.541 -0.136 -0.09 0.59 -0.8 0.02
1 3.59 359 1.992 -8.821 2.739 -12.268 24.231 -9.186 -599.909 -959.975 -3464.993 -0.888 -0.490 0.114 -0.08 0.59 -0.8 0.02
1 3.60 360 1.829 -8.830 2.662 -12.573 25.238 -7.935 -690.000 -914.854 -3509.963 -0.712 -0.481 0.181 -0.08 0.59 -0.8 0.02
1 3.61 361 1.633 -8.576 2.615 -12.634 24.780 -5.249 -734.971 -719.981 -3584.915 -0.507 -0.738 0.217 -0.08 0.59 -0.8 0.02
1 3.62 362 1.652 -8.576 2.514 -16.083 20.905 -2.197 -569.929 -734.971 -3419.872 -0.521 -0.745 0.291 -0.08 0.59 -0.8 0.01
1 3.63 363 1.777 -8.552 2.591 -20.355 18.799 -0.946 -659.870 -674.860 -3404.882 -0.646 -0.775 0.194 -0.08 0.59 -0.8 0.01
1 3.64 364 2.102 -8.725 2.639 -23.224 18.341 -0.671 -659.870 -674.860 -3404.882 -0.972 -0.610 0.122 -0.08 0.59 -0.8 0.01
1 3.65 365 2.212 -8.940 2.538 -22.705 21.149 0.214 -509.968 -794.932 -3449.853 -1.082 -0.403 0.194 -0.08 0.6 -0.8 0.01
1 3.66 366 2.476 -9.094 2.557 -18.311 26.520 1.007 -509.968 -794.932 -3449.853 -1.345 -0.257 0.148 -0.08 0.6 -0.8 0.01
1 3.67 367 2.322 -8.974 2.571 -16.602 31.281 0.824 -599.909 -884.874 -3284.960 -1.194 -0.384 0.112 -0.08 0.6 -0.8 0.01
1 3.68 368 2.174 -8.811 2.576 -17.426 35.523 -0.336 -659.870 -839.903 -3404.882 -1.048 -0.552 0.090 -0.08 0.6 -0.8 0.01
1 3.69 369 1.714 -8.777 2.500 -19.592 36.163 -1.892 -629.890 -704.991 -3389.892 -0.595 -0.596 0.133 -0.07 0.6 -0.8 0
1 3.70 370 1.628 -9.060 2.413 -24.017 34.424 -2.319 -569.929 -734.971 -3494.973 -0.514 -0.320 0.197 -0.07 0.6 -0.8 0
1 3.71 371 1.551 -9.165 2.399 -26.032 33.508 -2.167 -569.929 -734.971 -3494.973 -0.443 -0.223 0.183 0.07 -0.6 0.79 0
1 3.72 372 1.504 -9.295 2.437 -24.292 36.163 -1.862 -389.896 -869.883 -3404.882 -0.400 -0.103 0.115 0.07 -0.6 0.79 0
1 3.73 373 1.097 -9.405 2.241 -19.959 37.140 -0.519 -389.896 -869.883 -3404.882 0.000 -0.000 0.284 0.07 -0.61 0.79 0.01
1 3.74 374 0.963 -9.702 2.107 -24.475 33.997 1.312 -569.929 -779.942 -3419.872 0.124 0.289 0.396 0.06 -0.61 0.79 0.01
1 3.75 375 1.092 -10.128 2.222 -31.403 31.342 2.960 -389.896 -719.981 -3329.931 -0.019 0.707 0.254 0.06 -0.61 0.79 0.01
1 3.76 376 1.245 -10.592 2.322 -25.299 30.640 3.876 -359.916 -719.981 -3449.853 -0.203 1.147 0.073 0.06 -0.61 0.79 0.01
1 3.77 377 1.135 -10.559 2.155 -13.611 32.288 4.547 -389.896 -869.883 -3404.882 -0.109 1.105 0.214 0.06 -0.61 0.79 0.01
1 3.78 378 0.958 -10.152 2.145 -5.035 33.356 4.517 -389.896 -869.883 -3404.882 0.051 0.694 0.214 0.05 -0.61 0.79 0.01
1 3.79 379 0.809 -9.960 2.050 -4.181 32.074 3.784 -464.997 -794.932 -3224.999 0.181 0.500 0.308 0.05 -0.61 0.79 0.01
1 3.80 380 0.675 -9.888 1.939 -10.498 29.541 4.303 -464.997 -794.932 -3224.999 0.298 0.425 0.413 0.05 -0.61 0.79 0.02
1 3.81 381 0.910 -10.042 1.911 -13.611 25.696 3.113 -374.906 -629.890 -3284.960 0.045 0.573 0.428 0.05 -0.62 0.79 0.02
1 3.82 382 0.766 -10.157 1.863 -9.827 25.116 2.594 -434.867 -599.909 -3224.999 0.174 0.682 0.458 0.05 -0.62 0.79 0.02
1 3.83 383 0.761 -10.104 1.848 -7.172 25.726 2.808 -434.867 -599.909 -3224.999 0.166 0.624 0.458 0.05 -0.62 0.79 0.02
1 3.84 384 0.843 -10.118 1.954 -9.003 23.102 4.761 -329.935 -494.978 -3224.999 0.057 0.631 0.332 0.04 -0.62 0.79 0.02
1 3.85 385 0.900 -10.137 2.026 -8.087 20.935 5.768 -329.935 -494.978 -3224.999 -0.015 0.646 0.249 0.04 -0.62 0.78 0.02
1 3.86 386 1.049 -10.128 2.054 -4.730 19.379 6.561 -194.873 -539.948 -3314.940 -0.178 0.633 0.211 0.04 -0.62 0.78 0.02
1 3.87 387 1.140 -9.989 2.164 -0.824 18.738 5.493 -194.873 -539.948 -3314.940 -0.282 0.492 0.098 0.04 -0.62 0.78 0.02
1 3.88 388 0.867 -9.649 1.920 0.061 17.517 1.556 -374.906 -509.968 -3239.989 -0.020 0.152 0.344 0.04 -0.62 0.78 0.02
1 3.89 389 0.690 -9.850 1.915 -0.763 15.686 -1.404 -209.863 -599.909 -3194.869 0.150 0.353 0.350 0.04 -0.62 0.78 0.02
1 3.90 390 0.565 -9.941 2.112 -4.028 13.458 -2.075 -209.863 -599.909 -3194.869 0.271 0.443 0.154 0.04 -0.62 0.78 0.02
1 3.91 391 0.445 -10.219 2.241 -6.622 10.590 -1.770 -104.932 -524.958 -3224.999 0.387 0.719 0.016 0.04 -0.62 0.78 0.02
1 3.92 392 0.455 -10.252 2.389 -6.683 8.179 -1.831 -104.932 -524.958 -3224.999 0.374 0.750 -0.140 0.03 -0.62 0.78 0.02
1 3.93 393 0.350 -10.635 2.461 -6.226 6.195 -1.801 -254.984 -674.860 -3254.979 0.477 1.131 -0.219 0.03 -0.62 0.78 0.02
1 3.94 394 0.321 -10.501 2.480 -2.228 2.441 -1.556 -254.984 -674.860 -3254.979 0.506 0.996 -0.244 0.03 -0.62 0.78 0.02
1 3.95 395 0.397 -10.746 2.322 2.991 -2.197 -2.197 -224.854 -704.991 -3209.859 0.433 1.241 -0.084 0.03 -0.62 0.78 0.02
1 3.96 396 0.527 -10.214 2.437 14.710 -11.017 -0.793 -134.912 -599.909 -3119.917 0.309 0.711 -0.193 0.03 -0.62 0.78 0.02
1 3.97 397 0.776 -9.855 2.471 19.989 -16.632 -2.045 -134.912 -599.909 -3119.917 0.064 0.357 -0.209 0.04 -0.62 0.78 0.02
1 3.98 398 1.657 -9.410 2.227 11.566 -22.156 -3.540 -209.863 -599.909 -3224.999 -0.797 -0.075 0.086 0.04 -0.62 0.79 0.02
1 3.99 399 1.848 -9.304 2.184 11.536 -19.562 -4.181 -209.863 -599.909 -3224.999 -0.969 -0.175 0.143 0.04 -0.62 0.79 0.02
1 4.00 400 1.978 -9.041 2.236 10.223 -16.632 -2.991 -284.964 -674.860 -3149.898 -1.078 -0.433 0.106 0.04 -0.62 0.79 0.02
1 4.01 401 2.188 -9.237 2.193 1.495 -14.496 -1.160 -284.964 -674.860 -3149.898 -1.271 -0.232 0.160 0.04 -0.61 0.79 0.02
1 4.02 402 2.150 -9.706 2.337 -8.270 -10.193 0.244 -194.873 -704.991 -3209.859 -1.216 0.239 0.015 0.04 -0.61 0.79 0.02
1 4.03 403 1.844 -10.224 2.591 -12.238 -5.127 3.479 -179.883 -644.880 -3194.869 -0.897 0.754 -0.253 0.05 -0.62 0.79 0.02
1 4.04 404 1.590 -10.602 2.313 -8.057 -6.104 6.165 -179.883 -644.880 -3194.869 -0.637 1.128 0.007 0.05 -0.62 0.79 0.02
1 4.05 405 1.676 -10.592 2.447 -4.517 -7.294 9.674 -449.857 -704.991 -3209.859 -0.725 1.115 -0.139 0.05 -0.62 0.79 0.02
1 4.06 406 1.628 -10.358 2.725 -5.432 -6.317 12.939 -164.893 -734.971 -3134.908 -0.700 0.876 -0.430 0.05 -0.62 0.79 0.02
1 4.07 407 1.729 -10.463 2.725 -6.104 -6.165 14.313 -344.925 -659.870 -3164.888 -0.814 0.978 -0.437 0.05 -0.62 0.79 0.02
1 4.08 408 1.681 -10.473 2.557 -6.378 -6.042 13.886 -344.925 -659.870 -3164.888 -0.784 0.984 -0.278 0.05 -0.62 0.78 0.01
1 4.09 409 1.571 -10.362 2.988 -8.545 -6.561 12.268 -359.916 -599.909 -3224.999 -0.691 0.870 -0.717 0.05 -0.62 0.78 0.01
1 4.10 410 1.619 -10.267 3.256 -9.888 -5.371 11.993 -194.873 -734.971 -3134.908 -0.753 0.770 -0.998 0.05 -0.62 0.78 0.01
1 4.11 411 1.666 -10.228 3.453 -10.468 -2.655 14.130 -194.873 -734.971 -3134.908 -0.815 0.727 -1.207 0.05 -0.62 0.78 0.01
1 4.12 412 1.202 -9.951 3.524 -8.240 3.113 13.489 -329.935 -599.909 -3119.917 -0.387 0.440 -1.305 0.05 -0.62 0.78 0.01
1 4.13 413 1.116 -9.802 3.563 -5.188 4.089 13.550 -329.935 -599.909 -3119.917 -0.317 0.290 -1.343 0.05 -0.62 0.78 0.01
1 4.14 414 0.364 -9.132 3.400 7.751 6.104 13.397 -374.906 -779.942 -3104.927 0.415 -0.378 -1.166 0.04 -0.62 0.78 0.01
1 4.15 415 -0.081 -8.653 3.247 13.001 4.852 12.543 -374.906 -779.942 -3104.927 0.837 -0.853 -0.988 0.04 -0.62 0.78 0.01
1 4.16 416 -0.436 -8.433 3.079 12.817 2.777 10.345 -284.964 -674.860 -3224.999 1.168 -1.068 -0.790 0.04 -0.62 0.79 0.01
1 4.17 417 -0.613 -8.093 3.175 9.033 1.953 8.209 -359.916 -494.978 -3194.869 1.324 -1.403 -0.859 0.04 -0.62 0.79 0.01
1 4.18 418 -1.039 -7.925 2.629 6.409 3.265 5.310 -359.916 -494.978 -3194.869 1.734 -1.567 -0.294 0.04 -0.62 0.79 0
1 4.19 419 -1.312 -8.088 2.308 1.190 1.648 2.655 -89.941 -584.919 -3284.960 1.999 -1.402 0.039 0.04 -0.62 0.79 0
1 4.20 420 -1.738 -8.643 2.045 -12.054 -2.014 -2.167 -284.964 -569.929 -3194.869 2.420 -0.847 0.304 0.04 -0.62 0.79 0
1 4.21 421 -1.666 -9.448 2.246 -21.332 -8.820 -2.350 -284.964 -674.860 -3149.898 2.346 -0.047 0.082 0.04 -0.62 0.79 0
1 4.22 422 -1.168 -10.506 2.490 -27.344 -16.449 0.610 -284.964 -674.860 -3149.898 1.838 1.002 -0.195 0.04 -0.62 0.79 0
1 4.23 423 -0.278 -10.966 2.758 -17.822 -17.517 5.402 -119.922 -779.942 -3164.888 0.943 1.453 -0.501 0.04 -0.62 0.78 0
1 4.24 424 0.144 -10.583 2.514 10.712 -13.580 7.813 -269.974 -704.991 -3284.960 0.519 1.065 -0.274 0.04 -0.62 0.78 0
1 4.25 425 0.081 -9.457 2.322 35.126 -9.979 3.662 -269.974 -704.991 -3284.960 0.576 -0.054 -0.055 0.04 -0.62 0.78 0
1 4.26 426 -0.259 -9.199 2.409 17.304 -10.223 4.395 -344.925 -659.870 -3104.927 0.911 -0.301 -0.090 -0.04 0.62 -0.79 0
1 4.27 427 -0.498 -9.352 1.906 2.625 -10.620 8.545 -269.974 -779.942 -3209.859 1.144 -0.139 0.447 -0.04 0.61 -0.79 0
1 4.28 428 -1.106 -9.347 1.647 9.583 -13.245 15.228 -299.955 -734.971 -3209.859 1.718 -0.144 0.717 -0.04 0.61 -0.79 0
1 4.29 429 -1.144 -9.079 1.733 9.522 -19.836 18.616 -299.955 -734.971 -3209.859 1.728 -0.411 0.641 -0.04 0.61 -0.79 0.01
1 4.30 430 -0.881 -9.041 1.911 -0.397 -27.191 20.142 -344.925 -704.991 -3134.908 1.434 -0.449 0.470 -0.04 0.61 -0.79 0.01
1 4.31 431 -0.417 -9.467 1.930 -8.331 -30.487 22.339 -284.964 -794.932 -3194.869 0.939 -0.027 0.443 -0.04 0.61 -0.79 0.01
1 4.32 432 0.244 -9.783 1.733 -0.519 -27.924 21.881 -284.964 -794.932 -3194.869 0.249 0.284 0.624 -0.04 0.61 -0.79 0.02
1 4.33 433 0.522 -9.577 1.824 9.430 -22.217 17.944 -419.876 -509.968 -3209.859 -0.054 0.075 0.526 -0.04 0.61 -0.79 0.02
1 4.34 434 0.713 -9.252 1.647 15.472 -16.876 10.468 -329.935 -674.860 -3194.869 -0.265 -0.250 0.709 -0.05 0.61 -0.79 0.02
1 4.35 435 0.239 -8.969 1.398 15.503 -12.268 -3.998 -344.925 -884.874 -3104.927 0.204 -0.524 0.995 -0.05 0.61 -0.79 0.02
1 4.36 436 0.153 -8.816 1.298 16.480 -11.047 -10.254 -344.925 -884.874 -3104.927 0.303 -0.672 1.113 -0.05 0.61 -0.79 0.02
1 4.37 437 -0.383 -9.017 1.192 18.158 -12.634 -13.916 -374.906 -779.942 -3239.989 0.860 -0.465 1.238 -0.05 0.61 -0.79 0.02
1 4.38 438 -0.383 -9.031 1.101 15.076 -14.282 -14.282 -299.955 -659.870 -3164.888 0.881 -0.445 1.348 -0.05 0.61 -0.79 0.02
1 4.39 439 -0.555 -9.314 1.188 9.888 -16.327 -11.658 -299.955 -659.870 -3164.888 1.074 -0.158 1.274 -0.05 0.61 -0.79 0.02
1 4.40 440 -0.924 -9.611 1.044 7.477 -20.203 -4.974 -359.916 -749.961 -3014.986 1.457 0.141 1.422 -0.05 0.61 -0.79 0.02
1 4.41 441 -0.996 -9.673 1.212 9.735 -22.492 -1.129 -434.867 -719.981 -3149.898 1.537 0.204 1.256 -0.05 0.61 -0.79 0.02
1 4.42 442 -1.010 -9.405 1.302 14.526 -31.189 3.662 -269.974 -779.942 -3239.989 1.551 -0.061 1.177 -0.06 0.61 -0.79 0.03
1 4.43 443 -0.613 -9.113 1.513 12.665 -38.147 4.334 -269.974 -779.942 -3239.989 1.150 -0.350 0.978 -0.06 0.61 -0.79 0.03
1 4.44 444 -0.077 -9.218 1.619 8.026 -41.504 2.014 -389.896 -719.981 -3149.898 0.615 -0.243 0.881 -0.06 0.61 -0.79 0.03
1 4.45 445 0.479 -9.314 1.671 9.399 -39.703 0.153 -449.857 -884.874 -3164.888 0.069 -0.145 0.833 -0.06 0.61 -0.79 0.03
1 4.46 446 0.713 -9.386 1.571 12.665 -35.309 -2.228 -449.857 -884.874 -3164.888 -0.150 -0.070 0.941 -0.06 0.61 -0.79 0.04
1 4.47 447 0.737 -9.065 1.666 13.184 -30.792 -2.960 -464.997 -869.883 -3074.947 -0.156 -0.387 0.858 -0.07 0.61 -0.79 0.04
1 4.48 448 0.833 -9.017 1.820 12.756 -28.900 -2.411 -524.958 -809.922 -3359.911 -0.233 -0.430 0.717 -0.07 0.6 -0.79 0.04
1 4.49 449 1.178 -8.998 1.834 9.338 -26.611 -3.510 -524.958 -809.922 -3359.911 -0.560 -0.445 0.716 -0.07 0.6 -0.79 0.04
1 4.50 450 1.164 -9.400 1.911 5.005 -19.440 -6.165 -464.997 -794.932 -3119.917 -0.507 -0.036 0.653 -0.07 0.6 -0.79 0.04
1 4.51 451 1.216 -9.510 1.935 6.317 -16.174 -7.874 -419.876 -809.922 -3389.892 -0.537 0.077 0.632 -0.07 0.6 -0.79 0.04
1 4.52 452 1.197 -9.778 1.920 8.972 -13.702 -11.322 -539.948 -749.961 -3224.999 -0.494 0.348 0.652 -0.08 0.6 -0.79 0.04
1 4.53 453 1.025 -9.692 1.968 11.353 -12.207 -12.909 -539.948 -749.961 -3224.999 -0.295 0.267 0.614 -0.08 0.6 -0.79 0.04
1 4.54 454 1.087 -9.496 1.906 15.656 -16.022 -12.665 -659.870 -914.854 -3224.999 -0.330 0.076 0.689 -0.08 0.6 -0.79 0.04
1 4.55 455 1.192 -9.486 1.882 15.900 -15.900 -12.848 -629.890 -779.942 -3284.960 -0.408 0.073 0.729 -0.08 0.6 -0.79 0.04
1 4.56 456 1.202 -9.390 1.863 17.304 -13.702 -13.519 -629.890 -779.942 -3284.960 -0.390 -0.016 0.766 -0.08 0.6 -0.8 0.04
1 4.57 457 1.255 -9.103 1.657 22.064 -11.108 -15.198 -749.961 -884.874 -3164.888 -0.385 -0.286 1.014 -0.09 0.6 -0.8 0.04
1 4.58 458 0.915 -8.806 1.580 24.567 -9.369 -17.609 -704.991 -929.994 -3209.859 -0.014 -0.572 1.117 -0.09 0.6 -0.8 0.04
1 4.59 459 0.843 -8.562 1.729 23.895 -8.270 -19.379 -734.971 -914.854 -3374.901 0.089 -0.804 0.999 -0.09 0.59 -0.8 0.04
1 4.60 460 1.034 -8.730 3.376 11.353 -15.320 -16.846 -734.971 -914.854 -3374.901 -0.070 -0.625 -0.619 -0.09 0.59 -0.8 0.04
1 4.61 461 3.333 -10.851 4.113 -37.354 -49.713 4.059 -690.000 -914.854 -3404.882 -2.339 1.501 -1.353 -0.09 0.59 -0.8 0.04
1 4.62 462 7.240 -12.364 6.072 -65.369 7.355 34.515 -674.860 -929.994 -3284.960 -6.240 2.990 -3.395 -0.09 0.6 -0.8 0.04
1 4.63 463 4.113 -12.340 2.509 80.139 46.753 11.780 -674.860 -929.994 -3284.960 -3.157 2.930 0.053 -0.09 0.6 -0.79 0.04
1 4.64 464 0.244 -9.352 4.564 50.873 63.080 12.817 -779.942 -1004.945 -3209.859 0.635 0.000 -1.770 -0.09 0.59 -0.8 0.04
1 4.65 465 -0.632 -10.425 2.485 -42.389 29.846 15.411 -704.991 -854.893 -3104.927 1.467 1.084 0.359 -0.08 0.59 -0.8 0.04
1 4.66 466 -0.134 -11.584 1.805 -40.283 33.600 14.893 -509.968 -1019.936 -3404.882 0.924 2.219 0.975 -0.08 0.59 -0.8 0.04
1 4.67 467 -1.331 -11.066 3.500 12.848 54.382 9.857 -509.968 -1019.936 -3404.882 2.085 1.690 -0.752 -0.08 0.59 -0.8 0.04
1 4.68 468 -2.303 -11.248 4.674 15.411 30.151 15.595 -659.870 -869.883 -3299.950 3.022 1.879 -1.892 -0.07 0.59 -0.8 0.04
1 4.69 469 0.034 -13.384 5.129 -40.009 6.866 38.330 -629.890 -959.975 -3209.859 0.649 4.015 -2.335 -0.07 0.59 -0.8 0.04
1 4.70 470 0.129 -13.212 4.683 -6.561 38.910 30.640 -629.890 -959.975 -3209.859 0.502 3.826 -1.937 -0.07 0.6 -0.8 0.04
1 4.71 471 -2.782 -11.684 4.228 46.539 36.347 6.989 -614.899 -1019.936 -3329.931 3.309 2.300 -1.452 -0.06 0.6 -0.8 0.04
1 4.72 472 -2.873 -10.899 3.816 22.461 7.660 -5.585 -614.899 -1019.936 -3299.950 3.382 1.534 -0.975 -0.06 0.59 -0.8 0.04
1 4.73 473 -2.811 -11.019 3.213 10.132 -6.378 -16.815 -524.958 -1079.896 -3464.993 3.333 1.662 -0.345 -0.06 0.59 -0.8 0.04
1 4.74 474 -2.820 -11.119 3.261 28.656 -12.329 -18.250 -524.958 -1079.896 -3464.993 3.372 1.771 -0.372 -0.06 0.59 -0.8 0.04
1 4.75 475 -2.811 -10.109 3.381 40.527 -21.515 -16.113 -569.929 -929.994 -3284.960 3.395 0.777 -0.445 -0.06 0.59 -0.81 0.04
1 4.76 476 -1.973 -8.797 3.137 29.327 -42.389 -13.001 -509.968 -944.984 -3329.931 2.592 -0.515 -0.144 -0.07 0.59 -0.81 0.04
1 4.77 477 -0.891 -8.337 3.275 19.714 -52.155 -11.658 -509.968 -944.984 -3329.931 1.525 -0.958 -0.236 -0.07 0.58 -0.81 0.04
1 4.78 478 0.369 -8.217 3.749 12.817 -51.544 -11.627 -569.929 -1049.916 -3359.911 0.290 -1.066 -0.680 -0.07 0.58 -0.81 0.04
1 4.79 479 1.240 -7.987 3.998 5.768 -36.255 -12.604 -599.909 -1004.945 -3359.911 -0.510 -1.278 -0.889 -0.08 0.58 -0.81 0.04
1 4.80 480 1.432 -7.848 4.070 2.808 -26.032 -13.886 -614.899 -989.955 -3374.901 -0.662 -1.408 -0.947 -0.08 0.58 -0.81 0.04
1 4.81 481 1.389 -7.628 3.946 2.167 -20.020 -13.916 -614.899 -989.955 -3374.901 -0.582 -1.622 -0.810 -0.08 0.58 -0.81 0.04
1 4.82 482 1.255 -7.508 3.946 2.258 -16.174 -13.825 -614.899 -1214.958 -3299.950 -0.418 -1.738 -0.808 -0.08 0.58 -0.81 0.04
1 4.83 483 1.192 -7.269 3.840 -0.336 -16.785 -11.780 -690.000 -989.955 -3224.999 -0.328 -1.974 -0.700 -0.09 0.58 -0.81 0.04
1 4.84 484 1.178 -7.097 3.965 -8.637 -19.562 -4.028 -690.000 -989.955 -3224.999 -0.289 -2.144 -0.826 -0.09 0.58 -0.81 0.04
1 4.85 485 1.441 -7.336 4.133 -19.898 -20.416 0.854 -779.942 -1124.867 -3314.940 -0.535 -1.907 -1.004 -0.09 0.58 -0.81 0.04
1 4.86 486 1.982 -8.016 4.185 -32.837 -18.890 11.414 -704.991 -1229.949 -3419.872 -1.064 -1.247 -1.122 -0.09 0.58 -0.81 0.05
1 4.87 487 2.260 -8.782 4.176 -35.187 -15.167 14.679 -779.942 -929.994 -3389.892 -1.342 -0.494 -1.150 -0.09 0.58 -0.81 0.05
1 4.88 488 2.370 -9.309 3.931 -30.731 -12.756 17.578 -779.942 -929.994 -3389.892 -1.457 0.019 -0.947 -0.09 0.58 -0.81 0.05
1 4.89 489 2.528 -9.228 3.836 -15.747 -9.857 16.480 -779.942 -1124.867 -3239.989 -1.623 -0.073 -0.883 -0.09 0.58 -0.81 0.05
1 4.90 490 2.495 -9.022 3.697 -1.373 -6.622 11.353 -824.913 -929.994 -3284.960 -1.594 -0.283 -0.754 -0.09 0.58 -0.8 0.05
1 4.91 491 2.404 -8.710 3.534 5.707 -3.082 1.312 -824.913 -929.994 -3284.960 -1.502 -0.591 -0.583 -0.09 0.58 -0.8 0.05
1 4.92 492 2.126 -8.433 3.467 2.228 0.275 -4.852 -794.932 -1094.887 -3149.898 -1.213 -0.863 -0.502 -0.1 0.58 -0.81 0.05
1 4.93 493 1.729 -8.653 3.366 -3.479 2.075 -8.118 -794.932 -1094.887 -3149.898 -0.798 -0.638 -0.390 -0.1 0.58 -0.81 0.05
1 4.94 494 1.097 -8.830 3.496 -7.965 0.397 -9.003 -794.932 -1064.906 -3329.931 -0.128 -0.456 -0.519 -0.1 0.58 -0.81 0.05
1 4.95 495 0.972 -8.950 3.242 -4.791 -2.045 -8.453 -794.932 -1064.906 -3329.931 0.012 -0.337 -0.270 -0.1 0.58 -0.81 0.05
1 4.96 496 0.790 -8.907 3.208 -1.190 -6.042 -7.477 -779.942 -1004.945 -3284.960 0.209 -0.379 -0.238 -0.1 0.58 -0.81 0.05
1 4.97 497 1.001 -8.715 3.204 1.862 -11.231 -6.195 -674.860 -1004.945 -3239.989 0.012 -0.568 -0.230 -0.1 0.58 -0.81 0.05
1 4.98 498 1.461 -8.390 3.012 5.219 -16.357 -4.608 -674.860 -1004.945 -3239.989 -0.433 -0.890 -0.032 -0.1 0.58 -0.81 0.05
1 4.99 499 1.978 -8.184 2.983 4.059 -16.937 -2.136 -839.903 -1094.887 -3224.999 -0.933 -1.091 0.005 -0.1 0.58 -0.81 0.05
1 5.00 500 2.356 -7.901 2.768 -3.540 -12.054 1.129 -854.893 -959.975 -3359.911 -1.277 -1.366 0.231 -0.1 0.58 -0.81 0.05
1 5.01 501 2.552 -7.935 2.806 -6.470 -9.430 1.007 -869.883 -1169.988 -3299.950 -1.469 -1.334 0.186 -0.11 0.58 -0.81 0.05
1 5.02 502 2.586 -8.126 2.514 -15.595 -1.465 2.167 -869.883 -1169.988 -3299.950 -1.496 -1.147 0.462 -0.11 0.58 -0.81 0.05
1 5.03 503 2.576 -8.208 2.490 -19.470 2.228 2.350 -794.932 -1064.906 -3299.950 -1.482 -1.072 0.464 -0.11 0.58 -0.81 0.05
1 5.04 504 2.524 -8.394 2.586 -19.867 4.456 2.167 -779.942 -1049.916 -3239.989 -1.421 -0.893 0.342 -0.11 0.58 -0.8 0.05
1 5.05 505 2.284 -8.414 2.428 -19.806 6.226 2.502 -779.942 -1049.916 -3239.989 -1.175 -0.881 0.475 -0.11 0.58 -0.8 0.05
1 5.06 506 2.313 -8.801 2.452 -19.592 6.744 2.960 -869.883 -989.955 -3224.999 -1.199 -0.501 0.424 -0.11 0.58 -0.8 0.05
1 5.07 507 2.370 -8.777 2.346 -17.426 6.805 4.883 -869.883 -989.955 -3224.999 -1.253 -0.533 0.502 -0.11 0.59 -0.8 0.05
1 5.08 508 2.457 -8.514 2.375 -14.374 8.331 7.141 -824.913 -884.874 -3284.960 -1.339 -0.810 0.428 -0.11 0.59 -0.8 0.05
1 5.09 509 2.509 -8.346 2.399 -15.961 10.681 8.637 -824.913 -884.874 -3284.960 -1.395 -0.984 0.384 -0.11 0.59 -0.8 0.05
1 5.10 510 2.672 -8.198 2.236 -20.020 14.069 8.942 -779.942 -1049.916 -3314.940 -1.563 -1.140 0.524 -0.11 0.59 -0.8 0.05
1 5.11 511 2.495 -8.121 2.236 -22.827 18.372 9.338 -899.864 -959.975 -3164.888 -1.392 -1.225 0.498 -0.11 0.59 -0.8 0.05
1 5.12 512 2.375 -8.203 2.145 -27.405 25.757 8.270 -899.864 -959.975 -3164.888 -1.287 -1.154 0.559 -0.1 0.59 -0.8 0.05
1 5.13 513 1.992 -8.548 2.140 -29.144 28.504 8.667 -854.893 -1049.916 -3284.960 -0.919 -0.820 0.531 -0.1 0.59 -0.8 0.05
1 5.14 514 1.820 -8.701 2.073 -30.670 29.297 9.735 -854.893 -1049.916 -3284.960 -0.765 -0.679 0.562 -0.1 0.6 -0.8 0.04
1 5.15 515 1.638 -8.974 2.112 -32.074 29.724 11.810 -674.860 -1004.945 -3164.888 -0.600 -0.419 0.484 -0.1 0.6 -0.79 0.04
1 5.16 516 1.441 -9.280 2.246 -35.523 29.144 14.374 -704.991 -884.874 -3164.888 -0.450 -0.141 0.264 -0.1 0.6 -0.79 0.04
1 5.17 517 1.317 -9.309 2.428 -34.638 30.609 14.252 -749.961 -854.893 -3164.888 -0.351 -0.127 0.035 -0.09 0.6 -0.79 0.04
1 5.18 518 1.130 -9.515 2.184 -29.999 31.159 12.787 -779.942 -884.874 -3104.927 -0.191 0.065 0.238 -0.09 0.61 -0.79 0.04
1 5.19 519 0.982 -9.592 2.102 -25.482 30.396 12.909 -779.942 -884.874 -3104.927 -0.070 0.130 0.283 -0.09 0.61 -0.79 0.04
1 5.20 520 0.685 -9.577 2.284 -24.078 26.825 13.245 -674.860 -854.893 -3164.888 0.200 0.105 0.069 -0.09 0.61 -0.79 0.04
1 5.21 521 0.833 -9.673 2.217 -27.496 25.360 12.329 -674.860 -854.893 -3164.888 0.022 0.191 0.107 -0.08 0.61 -0.79 0.04
1 5.22 522 0.819 -9.884 2.289 -29.358 24.933 11.231 -599.909 -854.893 -3029.976 0.009 0.391 0.001 -0.08 0.61 -0.78 0.04
1 5.23 523 0.785 -9.841 2.198 -22.858 26.428 9.735 -599.909 -734.971 -3029.976 -0.005 0.327 0.020 -0.08 0.62 -0.78 0.04
1 5.24 524 0.603 -9.917 2.083 -20.111 25.543 7.965 -434.867 -749.961 -3014.986 0.155 0.395 0.107 -0.08 0.62 -0.78 0.03
1 5.25 525 0.699 -9.936 1.949 -22.095 22.553 4.608 -584.919 -869.883 -3014.986 0.041 0.407 0.216 -0.08 0.62 -0.78 0.03
1 5.26 526 0.809 -9.975 1.973 -25.238 20.264 1.892 -584.919 -869.883 -3014.986 -0.082 0.437 0.161 -0.07 0.62 -0.78 0.03
1 5.27 527 1.025 -10.228 2.131 -25.696 18.066 -0.366 -629.890 -884.874 -3059.957 -0.304 0.683 -0.032 -0.07 0.62 -0.78 0.03
1 5.28 528 1.159 -10.458 2.164 -22.736 16.113 -0.092 -629.890 -884.874 -3059.957 -0.440 0.905 -0.100 -0.07 0.62 -0.78 0.03
1 5.29 529 1.398 -10.559 2.184 -20.172 15.930 0.702 -584.919 -749.961 -3149.898 -0.680 0.999 -0.151 -0.07 0.63 -0.78 0.03
1 5.30 530 1.528 -10.650 2.117 -13.367 19.898 3.723 -524.958 -809.922 -2984.855 -0.819 1.079 -0.131 -0.07 0.63 -0.77 0.03
1 5.31 531 1.671 -10.635 2.026 -10.437 21.790 4.669 -434.867 -839.903 -2894.914 -0.974 1.061 -0.055 -0.07 0.63 -0.77 0.03
1 5.32 532 1.695 -10.540 1.915 -8.911 22.644 4.913 -464.997 -989.955 -2894.914 -1.011 0.962 0.045 -0.07 0.63 -0.77 0.03
1 5.33 533 1.561 -10.683 1.777 -9.216 24.292 4.669 -464.997 -989.955 -2894.914 -0.889 1.103 0.175 -0.07 0.63 -0.77 0.03
1 5.34 534 1.681 -10.702 1.872 -9.522 25.024 5.157 -539.948 -719.981 -2819.963 -1.022 1.120 0.071 -0.06 0.63 -0.77 0.03
1 5.35 535 1.595 -10.875 2.002 -7.965 28.381 5.859 -539.948 -719.981 -2819.963 -0.950 1.289 -0.068 -0.06 0.63 -0.77 0.02
1 5.36 536 1.312 -11.157 2.117 -7.202 31.677 4.028 -389.896 -674.860 -2819.963 -0.683 1.569 -0.190 -0.06 0.63 -0.77 0.02
1 5.37 537 0.771 -11.521 2.169 -3.204 33.081 -0.610 -449.857 -704.991 -2774.992 -0.168 1.929 -0.253 -0.06 0.63 -0.77 0.02
1 5.38 538 0.565 -11.449 2.318 -0.122 33.569 -1.434 -389.896 -749.961 -2939.885 0.031 1.858 -0.399 -0.05 0.63 -0.77 0.02
1 5.39 539 -0.335 -11.636 2.864 1.984 29.663 -8.209 -284.964 -839.903 -2939.885 0.929 2.046 -0.936 -0.05 0.63 -0.77 0.02
1 5.40 540 -0.790 -12.331 2.720 -1.404 21.637 -12.878 -284.964 -839.903 -2939.885 1.391 2.742 -0.786 -0.05 0.63 -0.77 0.02
1 5.41 541 -0.891 -12.455 2.490 4.334 11.231 -14.313 -359.916 -839.903 -2864.934 1.507 2.868 -0.554 -0.05 0.63 -0.77 0.01
1 5.42 542 -0.460 -11.871 2.519 25.818 0.336 -8.637 -359.916 -839.903 -2864.934 1.095 2.288 -0.567 -0.05 0.63 -0.77 0.01
1 5.43 543 0.043 -10.698 2.275 31.464 -4.852 -5.554 -449.857 -704.991 -2909.904 0.607 1.123 -0.287 -0.05 0.63 -0.78 0.01
1 5.44 544 0.235 -9.692 1.935 23.987 -8.148 -5.432 -389.896 -599.909 -2894.914 0.437 0.139 0.145 -0.05 0.63 -0.78 0.01
1 5.45 545 0.503 -9.328 1.987 18.494 -9.583 -3.937 -389.896 -794.932 -2864.934 0.176 -0.218 0.123 -0.05 0.62 -0.78 0.01
1 5.46 546 0.757 -9.070 2.150 2.441 -14.710 4.852 -419.876 -704.991 -2909.904 -0.074 -0.473 -0.024 -0.06 0.62 -0.78 0.01
1 5.47 547 1.121 -9.132 2.231 -5.493 -14.648 8.514 -419.876 -704.991 -2909.904 -0.441 -0.410 -0.104 -0.06 0.62 -0.78 0.01
1 5.48 548 1.207 -9.232 2.495 -9.308 -10.864 12.085 -389.896 -839.903 -2969.865 -0.532 -0.312 -0.376 -0.06 0.62 -0.78 0.02
1 5.49 549 0.924 -9.501 2.634 -7.263 -7.904 13.367 -389.896 -839.903 -2969.865 -0.260 -0.047 -0.524 -0.06 0.62 -0.78 0.02
1 5.50 550 0.613 -9.357 2.648 -3.723 -8.728 16.144 -449.857 -779.942 -2984.855 0.037 -0.192 -0.543 -0.06 0.62 -0.78 0.02
1 5.51 551 0.460 -9.323 2.811 -4.486 -11.078 18.524 -449.857 -629.890 -3029.976 0.172 -0.227 -0.707 -0.06 0.62 -0.78 0.02
1 5.52 552 0.450 -9.151 2.859 -8.484 -13.123 22.186 -344.925 -734.971 -2909.904 0.134 -0.404 -0.759 -0.06 0.62 -0.78 0.02
1 5.53 553 0.795 -8.969 2.864 -7.446 -13.794 21.301 -359.916 -719.981 -3014.986 -0.238 -0.588 -0.770 -0.06 0.62 -0.78 0.02
1 5.54 554 0.900 -8.773 3.022 -4.517 -13.306 18.799 -359.916 -719.981 -3014.986 -0.367 -0.787 -0.930 -0.06 0.62 -0.78 0.03
1 5.55 555 0.872 -8.505 3.074 -1.770 -10.681 14.526 -254.984 -869.883 -2939.885 -0.357 -1.055 -0.980 -0.06 0.62 -0.78 0.03
1 5.56 556 0.857 -8.452 3.237 -2.289 -6.256 9.888 -254.984 -869.883 -2939.885 -0.355 -1.107 -1.135 -0.06 0.62 -0.78 0.03
1 5.57 557 0.316 -8.548 3.486 -8.789 -1.831 1.740 -224.854 -704.991 -2909.904 0.180 -1.010 -1.378 -0.06 0.62 -0.78 0.03
1 5.58 558 -0.072 -8.849 3.366 -9.827 -0.244 -2.136 -344.925 -779.942 -2909.904 0.566 -0.708 -1.257 -0.06 0.62 -0.78 0.03
1 5.59 559 -0.599 -9.261 3.271 -1.343 -0.519 -5.554 -419.876 -734.971 -2954.875 1.097 -0.296 -1.159 -0.06 0.62 -0.78 0.03
1 5.60 560 -1.106 -9.414 3.074 5.066 -1.801 -6.348 -449.857 -809.922 -2909.904 1.606 -0.140 -0.952 -0.06 0.62 -0.78 0.03
1 5.61 561 -1.235 -9.299 3.041 7.080 -4.639 -5.463 -449.857 -809.922 -2909.904 1.735 -0.251 -0.900 -0.06 0.62 -0.78 0.03
1 5.62 562 -1.159 -9.122 2.653 7.721 -7.690 -3.052 -509.968 -749.961 -2894.914 1.656 -0.424 -0.493 -0.06 0.62 -0.78 0.03
1 5.63 563 -1.077 -9.256 2.485 7.965 -10.407 -0.488 -509.968 -749.961 -2894.914 1.569 -0.286 -0.307 -0.06 0.62 -0.78 0.03
1 5.64 564 -0.694 -9.462 2.457 0.061 -16.296 3.784 -359.916 -1019.936 -2864.934 1.179 -0.077 -0.265 -0.06 0.62 -0.78 0.03
1 5.65 565 -0.034 -9.759 2.380 -4.852 -19.104 5.981 -509.968 -599.909 -3074.947 0.510 0.221 -0.183 -0.06 0.62 -0.78 0.03
1 5.66 566 0.244 -9.793 2.299 -0.305 -15.991 6.500 -509.968 -599.909 -3074.947 0.225 0.253 -0.105 -0.06 0.62 -0.78 0.03
1 5.67 567 0.397 -9.448 2.337 13.336 -10.010 3.296 -389.896 -749.961 -2969.865 0.062 -0.090 -0.132 -0.06 0.62 -0.78 0.04
1 5.68 568 0.316 -9.343 2.389 8.392 -7.172 2.747 -389.896 -749.961 -2969.865 0.143 -0.190 -0.164 -0.06 0.62 -0.78 0.04
1 5.69 569 0.239 -9.338 2.385 -0.214 -3.082 2.533 -419.876 -659.870 -2984.855 0.219 -0.192 -0.148 -0.06 0.62 -0.78 0.04
1 5.70 570 -0.187 -9.659 2.136 -1.923 0.580 2.686 -419.876 -659.870 -2984.855 0.641 0.129 0.103 -0.06 0.62 -0.78 0.04
1 5.71 571 -1.063 -9.773 1.896 3.418 0.946 0.519 -584.919 -674.860 -2894.914 1.511 0.243 0.343 -0.06 0.62 -0.78 0.04
1 5.72 572 -1.561 -9.932 1.733 6.989 -4.913 -0.824 -434.867 -749.961 -2894.914 1.999 0.402 0.509 -0.06 0.62 -0.78 0.04
1 5.73 573 -1.757 -10.046 1.690 6.958 -14.282 0.732 -434.867 -749.961 -2894.914 2.186 0.518 0.559 -0.06 0.62 -0.78 0.04
1 5.74 574 -1.283 -9.888 1.911 6.195 -24.078 4.608 -509.968 -794.932 -3014.986 1.690 0.362 0.351 -0.06 0.62 -0.78 0.04
1 5.75 575 -0.742 -9.879 1.997 11.841 -25.665 6.409 -509.968 -794.932 -3014.986 1.138 0.353 0.272 -0.06 0.62 -0.78 0.04
1 5.76 576 -0.445 -9.553 2.011 18.646 -22.766 7.782 -509.968 -794.932 -2759.852 0.831 0.032 0.276 -0.06 0.62 -0.78 0.04
1 5.77 577 -0.158 -9.022 1.920 21.851 -19.257 8.209 -509.968 -794.932 -2759.852 0.534 -0.494 0.394 -0.06 0.61 -0.78 0.05
1 5.78 578 -0.091 -8.648 1.748 19.470 -15.900 5.341 -434.867 -719.981 -2969.865 0.459 -0.860 0.597 -0.06 0.61 -0.79 0.05
1 5.79 579 -0.220 -8.595 1.729 10.834 -11.810 0.519 -569.929 -734.971 -2879.924 0.587 -0.906 0.643 -0.06 0.61 -0.79 0.05
1 5.80 580 -0.436 -8.921 1.729 7.141 -10.468 -1.862 -569.929 -734.971 -2879.924 0.805 -0.576 0.660 -0.06 0.61 -0.79 0.05
1 5.81 581 -0.766 -9.026 1.614 5.402 -10.773 -4.150 -509.968 -794.932 -3044.966 1.140 -0.468 0.786 -0.06 0.61 -0.79 0.05
1 5.82 582 -1.063 -9.319 1.638 5.493 -13.397 -7.019 -539.948 -839.903 -2894.914 1.446 -0.173 0.771 -0.06 0.61 -0.79 0.05
1 5.83 583 -1.216 -9.304 1.614 6.409 -15.961 -5.524 -539.948 -869.883 -2894.914 1.604 -0.186 0.800 -0.07 0.61 -0.79 0.05
1 5.84 584 -1.379 -9.285 1.609 7.996 -19.470 -5.157 -539.948 -869.883 -2894.914 1.770 -0.204 0.810 -0.07 0.61 -0.79 0.05
1 5.85 585 -1.336 -9.208 1.489 8.362 -24.170 -5.188 -704.991 -929.994 -3134.908 1.730 -0.278 0.937 -0.07 0.61 -0.79 0.05
1 5.86 586 -0.972 -9.386 1.671 8.606 -31.647 -5.920 -464.997 -794.932 -2969.865 1.371 -0.099 0.761 -0.07 0.61 -0.79 0.06
1 5.87 587 -0.623 -9.443 1.791 9.186 -36.133 -6.744 -464.997 -794.932 -2969.865 1.031 -0.040 0.648 -0.07 0.61 -0.79 0.06
1 5.88 588 -0.072 -9.477 1.944 9.949 -38.269 -8.057 -524.958 -959.975 -2954.875 0.513 -0.000 0.512 -0.07 0.61 -0.79 0.06
1 5.89 589 0.096 -9.453 1.987 10.376 -39.215 -8.362 -524.958 -959.975 -2954.875 0.369 -0.021 0.479 -0.08 0.61 -0.79 0.06
1 5.90 590 0.239 -9.515 1.815 13.092 -40.619 -8.759 -674.860 -959.975 -2984.855 0.250 0.046 0.664 -0.08 0.61 -0.79 0.06
1 5.91 591 0.575 -9.582 1.796 13.763 -41.626 -7.263 -674.860 -959.975 -2984.855 -0.058 0.118 0.697 -0.08 0.61 -0.79 0.06
1 5.92 592 0.929 -9.457 1.896 16.022 -39.795 -7.721 -690.000 -794.932 -3074.947 -0.386 -0.001 0.610 -0.08 0.6 -0.79 0.07
1 5.93 593 1.125 -9.376 1.824 17.639 -36.499 -8.911 -734.971 -674.860 -2939.885 -0.552 -0.076 0.700 -0.09 0.6 -0.79 0.07
1 5.94 594 0.929 -9.462 1.762 18.402 -32.776 -11.047 -734.971 -674.860 -2939.885 -0.323 0.018 0.782 -0.09 0.6 -0.79 0.07
1 5.95 595 0.967 -9.534 1.944 15.564 -33.661 -12.360 -674.860 -809.922 -3029.976 -0.329 0.097 0.621 -0.09 0.6 -0.79 0.07
1 5.96 596 1.097 -9.941 1.982 14.862 -32.898 -11.780 -764.952 -719.981 -2969.865 -0.389 0.518 0.613 -0.1 0.6 -0.79 0.07
1 5.97 597 1.255 -10.142 1.949 17.822 -29.327 -9.247 -749.961 -1004.945 -3029.976 -0.515 0.725 0.662 -0.1 0.6 -0.79 0.07
1 5.98 598 1.259 -9.960 2.083 22.308 -25.330 -6.653 -749.961 -1004.945 -3029.976 -0.492 0.551 0.548 -0.1 0.6 -0.79 0.07
1 5.99 599 1.159 -10.090 2.093 24.811 -23.865 -4.547 -779.942 -959.975 -3104.927 -0.368 0.690 0.566 -0.1 0.59 -0.79 0.07
1 6.00 600 1.336 -9.740 2.088 27.222 -22.797 -3.967 -899.864 -1049.916 -3029.976 -0.526 0.351 0.600 -0.11 0.59 -0.79 0.07
1 6.01 601 1.556 -9.477 2.026 30.243 -20.081 -5.249 -899.864 -1049.916 -3029.976 -0.727 0.099 0.696 -0.11 0.59 -0.8 0.07
1 6.02 602 1.302 -9.347 1.815 31.342 -17.487 -7.446 -824.913 -1079.896 -3029.976 -0.452 -0.018 0.943 -0.11 0.59 -0.8 0.07
1 6.03 603 1.255 -9.237 1.791 31.769 -15.991 -6.378 -899.864 -1049.916 -3164.888 -0.357 -0.100 1.045 -0.11 0.59 -0.8 0.08
1 6.04 604 1.537 -8.979 1.877 29.785 -17.151 -3.662 -929.994 -1004.945 -3104.927 -0.620 -0.346 0.996 -0.11 0.58 -0.8 0.08
1 6.05 605 1.844 -8.974 1.963 27.741 -14.771 -0.366 -929.994 -1004.945 -3104.927 -0.909 -0.338 0.944 -0.11 0.58 -0.8 0.08
1 6.06 606 1.757 -8.787 1.724 29.327 -9.613 -0.061 -989.955 -1064.906 -3119.917 -0.809 -0.513 1.217 -0.12 0.58 -0.8 0.08
1 6.07 607 1.245 -8.873 1.566 30.426 -8.331 -0.641 -989.955 -1094.887 -3254.979 -0.284 -0.414 1.411 -0.12 0.58 -0.8 0.08
1 6.08 608 1.178 -8.916 1.413 22.766 -9.796 -2.380 -989.955 -1094.887 -3254.979 -0.208 -0.359 1.598 -0.12 0.58 -0.8 0.08
1 6.09 609 1.039 -8.988 1.408 25.391 -8.942 -6.744 -989.955 -1214.958 -3149.898 -0.059 -0.279 1.626 -0.12 0.58 -0.81 0.08
1 6.10 610 1.125 -9.601 3.352 16.632 -17.548 -4.761 -899.864 -1124.867 -3134.908 -0.129 0.344 -0.294 -0.12 0.57 -0.81 0.08
1 6.11 611 6.838 -13.207 7.078 -75.928 -44.891 32.318 -929.994 -1124.867 -3239.989 -5.819 3.948 -4.032 -0.12 0.57 -0.81 0.08
1 6.12 612 6.991 -13.202 5.502 -37.171 10.773 37.781 -929.994 -1124.867 -3239.989 -6.009 3.902 -2.574 -0.12 0.58 -0.8 0.08
1 6.13 613 4.712 -12.235 4.439 109.070 43.121 17.548 -989.955 -1259.929 -3224.999 -3.783 2.932 -1.500 -0.12 0.58 -0.8 0.08
1 6.14 614 1.801 -10.118 5.397 77.027 68.695 19.379 -914.854 -989.955 -2969.865 -0.920 0.866 -2.289 -0.12 0.57 -0.81 0.08
1 6.15 615 -0.728 -9.764 2.729 -20.020 55.023 20.935 -914.854 -989.955 -2969.865 1.549 0.534 0.460 -0.11 0.57 -0.81 0.08
1 6.16 616 -1.791 -10.190 2.959 -23.895 49.408 17.334 -929.994 -1079.896 -3209.859 2.550 0.944 0.198 -0.11 0.57 -0.81 0.08
1 6.17 617 -2.643 -10.027 4.549 -8.759 43.366 6.409 -989.955 -1139.857 -3254.979 3.338 0.761 -1.434 -0.1 0.58 -0.81 0.08
1 6.18 618 -2.615 -13.231 5.344 -42.145 17.151 16.419 -794.932 -1259.929 -3254.979 3.232 3.949 -2.260 -0.1 0.58 -0.81 0.08
1 6.19 619 -1.489 -14.002 5.358 -58.808 19.714 24.658 -794.932 -1259.929 -3254.979 2.070 4.696 -2.342 -0.09 0.58 -0.8 0.08
1 6.20 620 -1.528 -13.504 5.311 -4.303 29.694 2.319 -704.991 -1124.867 -3059.957 2.070 4.174 -2.360 -0.09 0.58 -0.8 0.08
1 6.21 621 -1.954 -12.795 5.464 40.955 31.159 -12.817 -929.994 -1229.949 -3164.888 2.488 3.471 -2.493 -0.09 0.58 -0.8 0.08
1 6.22 622 -2.682 -11.421 4.564 32.501 23.682 -17.792 -929.994 -1229.949 -3164.888 3.222 2.118 -1.531 -0.09 0.58 -0.81 0.08
1 6.23 623 -3.117 -10.185 3.160 39.398 -7.874 -25.848 -839.903 -1019.936 -3044.966 3.678 0.899 -0.080 -0.09 0.58 -0.81 0.07
1 6.24 624 -2.605 -9.486 3.165 48.279 -28.717 -21.607 -764.952 -944.984 -3194.869 3.204 0.220 -0.032 -0.09 0.58 -0.81 0.07
1 6.25 625 -0.991 -8.471 3.745 33.234 -46.753 -12.878 -839.903 -1214.958 -3119.917 1.646 -0.748 -0.486 -0.09 0.57 -0.81 0.07
1 6.26 626 -0.493 -8.366 3.955 27.313 -49.072 -9.369 -839.903 -1214.958 -3119.917 1.174 -0.836 -0.653 -0.1 0.57 -0.81 0.08
1 6.27 627 1.264 -7.647 3.706 27.405 -46.814 -1.862 -749.961 -1274.919 -3209.859 -0.554 -1.539 -0.369 -0.1 0.57 -0.81 0.08
1 6.28 628 2.021 -6.991 3.692 31.616 -36.438 -1.984 -944.984 -1214.958 -3224.999 -1.284 -2.180 -0.317 -0.1 0.56 -0.82 0.08
1 6.29 629 2.174 -6.010 3.577 25.757 -22.949 -2.563 -944.984 -1214.958 -3224.999 -1.416 -3.144 -0.161 -0.1 0.56 -0.82 0.08
1 6.30 630 2.342 -5.579 3.539 0.641 -8.331 -4.425 -824.913 -1124.867 -3314.940 -1.568 -3.562 -0.092 -0.1 0.56 -0.82 0.08
1 6.31 631 2.303 -5.847 3.567 -16.571 0.092 -3.021 -1004.945 -1154.998 -3164.888 -1.518 -3.290 -0.113 -0.11 0.56 -0.82 0.08
1 6.32 632 1.724 -6.603 3.735 -33.478 11.902 1.068 -929.994 -1199.968 -3314.940 -0.932 -2.552 -0.330 -0.11 0.56 -0.82 0.08
1 6.33 633 1.389 -7.082 3.831 -37.048 14.740 3.143 -929.994 -1199.968 -3314.940 -0.606 -2.091 -0.472 -0.11 0.56 -0.82 0.08
1 6.34 634 0.828 -8.323 3.812 -43.732 14.618 8.148 -929.994 -1199.968 -3284.960 -0.061 -0.872 -0.507 -0.1 0.57 -0.81 0.08
1 6.35 635 0.733 -8.840 3.955 -40.070 10.284 11.383 -854.893 -1229.949 -3164.888 0.017 -0.375 -0.706 -0.1 0.57 -0.81 0.08
1 6.36 636 0.857 -9.055 4.089 -29.053 4.150 12.878 -854.893 -1229.949 -3164.888 -0.128 -0.177 -0.884 -0.1 0.57 -0.81 0.08
1 6.37 637 1.207 -9.022 4.195 -13.062 0.244 12.604 -854.893 -1124.867 -3284.960 -0.496 -0.221 -1.016 -0.1 0.57 -0.81 0.08
1 6.38 638 1.499 -8.586 4.276 -3.174 0.092 8.026 -854.893 -1124.867 -3029.976 -0.801 -0.660 -1.103 -0.1 0.57 -0.81 0.08
1 6.39 639 1.595 -8.404 4.214 -8.209 1.556 3.113 -854.893 -1124.867 -3029.976 -0.903 -0.841 -1.037 -0.1 0.57 -0.81 0.08
1 6.40 640 1.374 -8.495 4.022 -18.189 2.197 -3.632 -854.893 -1304.900 -3239.989 -0.675 -0.752 -0.854 -0.1 0.57 -0.81 0.08
1 6.41 641 1.058 -8.849 3.917 -16.022 2.899 -7.751 -839.903 -1139.857 -3329.931 -0.347 -0.403 -0.765 -0.1 0.57 -0.81 0.08
1 6.42 642 0.910 -9.156 3.979 -8.514 2.686 -8.575 -854.893 -1124.867 -3134.908 -0.184 -0.099 -0.839 -0.1 0.57 -0.81 0.08
1 6.43 643 0.967 -8.912 3.879 -3.265 2.625 -8.789 -854.893 -1124.867 -3134.908 -0.228 -0.343 -0.740 -0.1 0.57 -0.81 0.08
1 6.44 644 0.852 -8.758 3.884 -3.326 1.282 -7.874 -824.913 -1124.867 -3164.888 -0.099 -0.494 -0.741 -0.1 0.57 -0.81 0.08
1 6.45 645 0.972 -8.792 3.620 -8.850 -1.007 -8.179 -914.854 -1259.929 -3254.979 -0.207 -0.458 -0.475 -0.1 0.57 -0.81 0.08
1 6.46 646 1.025 -8.715 3.462 -10.956 -2.380 -9.491 -914.854 -1259.929 -3254.979 -0.245 -0.535 -0.321 -0.1 0.57 -0.81 0.08
1 6.47 647 0.982 -8.519 3.261 -6.409 -3.448 -11.688 -914.854 -1064.906 -3014.986 -0.165 -0.734 -0.138 -0.1 0.57 -0.81 0.07
1 6.48 648 0.881 -8.447 3.146 -3.754 -4.608 -11.200 -869.883 -1169.988 -3044.966 -0.044 -0.806 -0.027 -0.11 0.57 -0.81 0.07
1 6.49 649 0.929 -8.112 2.974 -4.669 -5.920 -8.942 -929.994 -1124.867 -3029.976 -0.072 -1.140 0.143 -0.11 0.57 -0.81 0.07
1 6.50 650 1.053 -8.021 2.993 -10.010 -7.874 -5.981 -929.994 -1124.867 -3029.976 -0.181 -1.231 0.117 -0.11 0.57 -0.81 0.07
1 6.51 651 1.336 -8.184 2.998 -17.578 -7.660 -2.502 -839.903 -1064.906 -3119.917 -0.451 -1.073 0.097 -0.11 0.57 -0.81 0.07
1 6.52 652 1.724 -8.706 2.931 -25.757 -6.073 3.265 -869.883 -1094.887 -3224.999 -0.833 -0.559 0.137 -0.11 0.58 -0.81 0.07
1 6.53 653 2.073 -8.926 3.132 -25.635 -4.944 5.859 -869.883 -1094.887 -3224.999 -1.176 -0.349 -0.097 -0.11 0.58 -0.81 0.07
1 6.54 654 2.160 -9.161 3.079 -20.172 -3.021 6.989 -1004.945 -1079.896 -3029.976 -1.259 -0.125 -0.079 -0.11 0.58 -0.8 0.07
1 6.55 655 2.624 -9.146 3.036 -12.512 0.275 6.928 -764.952 -1064.906 -3074.947 -1.719 -0.155 -0.086 -0.11 0.58 -0.8 0.07
1 6.56 656 2.615 -8.844 2.825 -9.491 4.150 6.622 -1004.945 -1049.916 -3029.976 -1.706 -0.461 0.110 -0.11 0.58 -0.8 0.07
1 6.57 657 2.303 -8.552 2.643 -9.857 7.874 5.371 -1004.945 -1049.916 -3029.976 -1.392 -0.757 0.281 -0.11 0.58 -0.8 0.07
1 6.58 658 2.179 -8.490 2.763 -12.970 12.085 5.371 -1019.936 -1019.936 -3074.947 -1.267 -0.822 0.150 -0.11 0.58 -0.8 0.07
1 6.59 659 1.997 -8.380 2.682 -19.531 13.977 5.219 -929.994 -1154.998 -2909.904 -1.087 -0.938 0.214 -0.11 0.58 -0.8 0.07
1 6.60 660 1.891 -8.744 2.720 -23.987 17.090 5.585 -929.994 -1154.998 -2909.904 -0.985 -0.582 0.150 -0.11 0.58 -0.8 0.07
1 6.61 661 1.719 -8.768 2.691 -22.614 18.890 6.805 -899.864 -884.874 -3059.957 -0.817 -0.568 0.149 -0.11 0.59 -0.8 0.07
1 6.62 662 1.729 -8.691 2.691 -21.851 19.684 6.866 -869.883 -869.883 -3149.898 -0.846 -0.663 0.095 -0.11 0.59 -0.8 0.07
1 6.63 663 1.566 -8.912 2.634 -22.186 21.240 4.852 -944.984 -869.883 -3074.947 -0.694 -0.451 0.127 -0.11 0.59 -0.8 0.07
1 6.64 664 1.537 -8.983 2.571 -23.682 21.698 4.395 -944.984 -869.883 -3074.947 -0.674 -0.388 0.161 -0.11 0.59 -0.8 0.07
1 6.65 665 1.705 -9.242 2.605 -25.086 22.125 3.754 -794.932 -914.854 -3044.966 -0.850 -0.139 0.097 -0.1 0.59 -0.8 0.07
1 6.66 666 1.690 -9.180 2.404 -24.811 24.780 4.059 -899.864 -929.994 -2984.855 -0.842 -0.211 0.266 -0.1 0.59 -0.79 0.06
1 6.67 667 1.710 -9.457 2.442 -25.269 28.595 4.883 -899.864 -929.994 -2984.855 -0.870 0.056 0.195 -0.1 0.6 -0.79 0.06
1 6.68 668 1.551 -9.582 2.361 -24.048 32.074 4.913 -794.932 -869.883 -3044.966 -0.723 0.171 0.243 -0.1 0.6 -0.79 0.06
1 6.69 669 1.331 -9.711 2.370 -20.996 34.912 6.500 -869.883 -989.955 -2939.885 -0.530 0.281 0.175 -0.1 0.6 -0.79 0.06
1 6.70 670 1.322 -9.841 2.327 -17.700 35.339 7.538 -854.893 -809.922 -2804.973 -0.539 0.403 0.194 -0.09 0.6 -0.79 0.06
1 6.71 671 0.963 -9.625 2.308 -11.658 35.004 9.094 -854.893 -809.922 -2804.973 -0.201 0.180 0.193 -0.09 0.6 -0.79 0.06
1 6.72 672 0.929 -9.424 2.308 -5.920 34.638 10.834 -899.864 -854.893 -2774.992 -0.191 -0.025 0.183 -0.09 0.6 -0.79 0.06
1 6.73 673 0.781 -9.362 2.198 -4.822 32.440 11.200 -659.870 -749.961 -3014.986 -0.069 -0.091 0.290 -0.09 0.6 -0.79 0.06
1 6.74 674 0.733 -9.151 1.973 -8.209 27.191 11.719 -659.870 -749.961 -3014.986 -0.047 -0.304 0.511 -0.09 0.6 -0.79 0.05
1 6.75 675 0.958 -9.084 2.064 -9.613 24.963 10.925 -690.000 -914.854 -3044.966 -0.299 -0.375 0.412 -0.08 0.61 -0.79 0.05
1 6.76 676 1.077 -9.232 2.078 -14.282 24.658 8.026 -614.899 -644.880 -2894.914 -0.460 -0.236 0.372 -0.08 0.61 -0.79 0.05
1 6.77 677 1.259 -9.137 2.078 -15.198 25.543 6.439 -539.948 -749.961 -2969.865 -0.657 -0.338 0.352 -0.08 0.61 -0.79 0.05
1 6.78 678 1.106 -9.386 2.140 -15.900 28.687 5.402 -539.948 -749.961 -2969.865 -0.516 -0.095 0.269 -0.08 0.61 -0.79 0.05
1 6.79 679 1.077 -9.529 2.179 -16.632 30.670 4.608 -599.909 -809.922 -2804.973 -0.500 0.042 0.210 -0.08 0.61 -0.79 0.05
1 6.80 680 0.905 -9.754 2.179 -17.334 29.694 5.188 -674.860 -809.922 -2954.875 -0.340 0.262 0.189 -0.07 0.61 -0.79 0.05
1 6.81 681 0.967 -9.802 2.121 -16.907 29.572 5.676 -674.860 -809.922 -2954.875 -0.417 0.303 0.224 -0.07 0.61 -0.79 0.05
1 6.82 682 0.948 -10.022 2.184 -16.937 28.809 6.042 -614.899 -839.903 -2864.934 -0.412 0.517 0.140 -0.07 0.61 -0.79 0.05
1 6.83 683 0.991 -9.999 2.231 -16.327 29.144 6.439 -614.899 -839.903 -2864.934 -0.470 0.487 0.069 -0.07 0.61 -0.78 0.04
1 6.84 684 1.188 -10.099 2.198 -13.611 30.243 6.317 -449.857 -884.874 -2909.904 -0.695 0.576 0.063 -0.06 0.62 -0.78 0.04
1 6.85 685 1.288 -10.224 2.121 -12.268 30.243 5.402 -449.857 -884.874 -2909.904 -0.809 0.696 0.123 -0.06 0.62 -0.78 0.04
1 6.86 686 1.331 -10.291 2.179 -10.986 30.060 5.737 -464.997 -914.854 -3014.986 -0.864 0.759 0.051 -0.06 0.62 -0.78 0.04
1 6.87 687 1.504 -10.439 2.145 -9.247 30.457 5.127 -569.929 -734.971 -2954.875 -1.048 0.904 0.071 -0.06 0.62 -0.78 0.04
1 6.88 688 1.470 -10.377 2.093 -6.348 31.525 5.096 -569.929 -734.971 -2954.875 -1.024 0.838 0.112 -0.06 0.62 -0.78 0.04
1 6.89 689 1.633 -10.530 2.073 -5.737 31.952 3.540 -449.857 -809.922 -2849.943 -1.196 0.989 0.122 -0.06 0.62 -0.78 0.03
1 6.90 690 1.508 -10.635 2.021 -5.432 34.424 3.204 -449.857 -809.922 -2849.943 -1.083 1.093 0.169 -0.05 0.62 -0.78 0.03
1 6.91 691 1.197 -10.793 1.978 -2.441 38.452 1.709 -449.857 -779.942 -2774.992 -0.802 1.248 0.206 -0.05 0.62 -0.78 0.03
1 6.92 692 0.785 -10.793 1.700 0.275 36.865 1.953 -449.857 -779.942 -2774.992 -0.404 1.248 0.485 -0.05 0.62 -0.78 0.03
1 6.93 693 0.527 -10.698 1.762 3.235 34.943 0.763 -494.978 -659.870 -2954.875 -0.159 1.153 0.428 -0.05 0.62 -0.78 0.03
1 6.94 694 0.177 -10.770 1.566 5.157 30.823 -0.275 -269.974 -779.942 -2804.973 0.179 1.226 0.634 -0.04 0.62 -0.78 0.03
1 6.95 695 0.091 -10.693 1.719 5.249 26.917 -1.740 -269.974 -779.942 -2804.973 0.257 1.152 0.492 -0.04 0.62 -0.78 0.02
1 6.96 696 -0.086 -10.679 1.978 2.533 24.475 -5.341 -254.984 -794.932 -2939.885 0.429 1.139 0.241 -0.04 0.62 -0.78 0.02
1 6.97 697 -0.646 -11.009 2.002 -0.916 23.377 -8.545 -254.984 -794.932 -2939.885 0.988 1.471 0.221 -0.04 0.62 -0.78 0.02
1 6.98 698 -1.049 -11.373 1.872 -0.488 18.616 -8.331 -344.925 -734.971 -2849.943 1.395 1.835 0.354 -0.04 0.62 -0.78 0.02
1 6.99 699 -1.542 -11.397 2.236 4.517 8.362 -7.477 -329.935 -839.903 -2819.963 1.902 1.862 -0.002 -0.04 0.62 -0.78 0.02
1 7.00 700 -1.690 -11.488 2.495 -0.244 1.190 -12.299 -419.876 -629.890 -2879.924 2.062 1.955 -0.252 -0.04 0.62 -0.78 0.02
1 7.01 701 -1.877 -11.722 2.107 -4.761 -10.681 -14.771 -344.925 -779.942 -2849.943 2.270 2.190 0.135 -0.04 0.62 -0.78 0.02
1 7.02 702 -1.437 -11.655 1.767 4.242 -24.078 -10.834 -344.925 -779.942 -2849.943 1.856 2.124 0.471 -0.04 0.62 -0.78 0.02
1 7.03 703 -0.139 -10.980 1.575 13.886 -32.257 -7.446 -299.955 -704.991 -2909.904 0.582 1.452 0.673 -0.04 0.62 -0.78 0.02
1 7.04 704 1.044 -10.085 1.652 6.683 -33.081 -8.637 -299.955 -704.991 -2909.904 -0.577 0.562 0.616 -0.04 0.62 -0.78 0.02
1 7.05 705 1.121 -10.018 1.317 0.946 -29.327 -6.500 -344.925 -734.971 -2804.973 -0.627 0.498 0.959 -0.05 0.62 -0.78 0.02
1 7.06 706 1.518 -9.960 1.111 -4.272 -29.419 -0.122 -434.867 -674.860 -2864.934 -0.977 0.440 1.150 -0.05 0.62 -0.78 0.02
1 7.07 707 1.925 -9.793 1.484 -6.958 -29.511 3.754 -389.896 -794.932 -2789.982 -1.367 0.270 0.761 -0.05 0.62 -0.78 0.02
1 7.08 708 2.026 -9.793 2.064 -11.169 -26.306 6.805 -434.867 -839.903 -2864.934 -1.454 0.266 0.162 -0.06 0.62 -0.78 0.02
1 7.09 709 2.011 -9.711 2.394 -13.763 -21.729 8.118 -434.867 -839.903 -2864.934 -1.430 0.180 -0.189 -0.06 0.62 -0.78 0.02
1 7.10 710 1.796 -9.515 2.864 -13.367 -15.930 8.759 -584.919 -839.903 -2819.963 -1.209 -0.020 -0.678 -0.06 0.62 -0.78 0.03
1 7.11 711 1.595 -9.333 3.376 -10.956 -12.482 8.270 -584.919 -839.903 -2819.963 -1.005 -0.206 -1.207 -0.06 0.62 -0.78 0.03
1 7.12 712 1.374 -9.103 3.793 -10.529 -9.216 8.118 -389.896 -644.880 -2759.852 -0.782 -0.438 -1.634 -0.06 0.62 -0.78 0.03
1 7.13 713 0.934 -8.940 4.065 -9.918 -6.836 7.660 -524.958 -629.890 -2804.973 -0.344 -0.602 -1.913 -0.06 0.62 -0.78 0.03
1 7.14 714 0.737 -8.792 4.089 -9.277 -7.141 6.928 -464.997 -644.880 -2789.982 -0.152 -0.750 -1.935 -0.06 0.62 -0.78 0.03
1 7.15 715 0.742 -8.327 4.166 -3.021 -4.303 -0.061 -509.968 -749.961 -2819.963 -0.159 -1.214 -2.006 -0.06 0.62 -0.78 0.03
1 7.16 716 0.393 -8.260 3.893 6.622 4.028 -11.322 -509.968 -749.961 -2819.963 0.197 -1.277 -1.716 -0.06 0.62 -0.78 0.03
1 7.17 717 -0.364 -8.107 3.400 15.411 13.031 -20.996 -374.906 -809.922 -2879.924 0.972 -1.422 -1.192 -0.06 0.62 -0.78 0.03
1 7.18 718 -1.686 -8.011 2.725 7.355 12.512 -31.067 -374.906 -809.922 -2879.924 2.322 -1.508 -0.484 -0.06 0.62 -0.78 0.03
1 7.19 719 -2.131 -8.586 2.591 -13.947 2.075 -34.454 -359.916 -749.961 -2714.881 2.807 -0.926 -0.331 -0.06 0.62 -0.78 0.03
1 7.20 720 -1.949 -10.066 2.758 -34.943 -15.076 -29.297 -524.958 -704.991 -2804.973 2.696 0.549 -0.541 -0.07 0.62 -0.78 0.02
1 7.21 721 -1.824 -10.511 2.935 -34.302 -18.616 -24.201 -629.890 -509.968 -2774.992 2.596 0.985 -0.765 -0.07 0.62 -0.78 0.02
1 7.22 722 -0.852 -11.406 3.031 -2.594 -18.127 -1.923 -434.867 -644.880 -2894.914 1.651 1.875 -0.896 -0.07 0.62 -0.78 0.02
1 7.23 723 -0.632 -10.755 2.768 31.220 -12.573 11.414 -434.867 -644.880 -2894.914 1.434 1.226 -0.624 -0.07 0.62 -0.78 0.02
1 7.24 724 -0.565 -9.850 2.557 45.899 -10.071 16.754 -539.948 -719.981 -2759.852 1.353 0.332 -0.359 -0.07 0.62 -0.78 0.02
1 7.25 725 -0.536 -9.065 2.370 35.004 -12.939 15.930 -539.948 -719.981 -2759.852 1.293 -0.440 -0.106 -0.07 0.62 -0.78 0.03
1 7.26 726 -0.551 -8.648 1.915 9.003 -16.724 9.644 -599.909 -584.919 -2624.940 1.282 -0.848 0.395 -0.07 0.61 -0.79 0.03
1 7.27 727 -0.872 -8.710 1.781 5.035 -16.235 4.089 -449.857 -809.922 -2879.924 1.585 -0.782 0.547 -0.07 0.61 -0.79 0.03
1 7.28 728 -1.408 -8.959 1.796 9.460 -21.484 1.221 -569.929 -734.971 -2984.855 2.102 -0.531 0.546 -0.07 0.61 -0.79 0.03
1 7.29 729 -1.628 -9.199 1.978 5.951 -27.191 0.793 -524.958 -704.991 -2879.924 2.315 -0.290 0.372 -0.07 0.61 -0.79 0.04
1 7.30 730 -1.566 -9.611 1.968 0.458 -32.776 3.082 -524.958 -704.991 -2879.924 2.245 0.122 0.385 -0.07 0.61 -0.79 0.04
1 7.31 731 -1.010 -9.879 2.030 -0.610 -37.354 8.026 -599.909 -809.922 -2984.855 1.680 0.388 0.318 -0.07 0.61 -0.79 0.04
1 7.32 732 -0.532 -9.807 2.040 7.172 -38.300 11.139 -599.909 -809.922 -2984.855 1.189 0.315 0.306 -0.08 0.61 -0.79 0.04
1 7.33 733 0.153 -9.319 2.346 19.135 -33.966 7.507 -599.909 -884.874 -2954.875 0.493 -0.172 0.009 -0.08 0.61 -0.79 0.05
1 7.34 734 0.297 -9.074 2.227 18.982 -26.917 0.702 -674.860 -704.991 -2849.943 0.345 -0.411 0.151 -0.08 0.61 -0.79 0.05
1 7.35 735 0.086 -8.801 1.810 19.928 -17.883 -10.529 -629.890 -704.991 -2849.943 0.575 -0.669 0.621 -0.08 0.61 -0.79 0.05
1 7.36 736 -0.302 -8.667 1.518 25.543 -16.235 -16.754 -569.929 -659.870 -2909.904 0.985 -0.794 0.942 -0.08 0.61 -0.79 0.05
1 7.37 737 -0.455 -8.308 1.216 28.473 -18.005 -21.240 -569.929 -659.870 -2909.904 1.169 -1.141 1.281 -0.09 0.6 -0.79 0.05
1 7.38 738 -0.752 -8.370 1.226 22.858 -20.752 -21.942 -690.000 -644.880 -2894.914 1.505 -1.065 1.311 -0.09 0.6 -0.79 0.05
1 7.39 739 -1.020 -8.514 1.279 11.658 -23.438 -19.531 -690.000 -644.880 -2894.914 1.814 -0.911 1.288 -0.09 0.6 -0.79 0.05
1 7.40 740 -1.101 -9.184 1.044 -3.845 -29.968 -10.010 -629.890 -734.971 -2984.855 1.933 -0.234 1.534 -0.09 0.6 -0.79 0.05
1 7.41 741 -0.963 -9.769 1.135 -6.805 -35.156 -2.686 -779.942 -809.922 -2984.855 1.816 0.350 1.434 -0.09 0.6 -0.79 0.05
1 7.42 742 -0.594 -9.898 1.288 -2.716 -40.314 4.120 -779.942 -809.922 -2984.855 1.454 0.474 1.258 -0.1 0.6 -0.79 0.05
1 7.43 743 0.206 -9.596 1.642 6.714 -47.211 10.468 -974.965 -659.870 -2879.924 0.651 0.164 0.877 -0.1 0.6 -0.79 0.06
1 7.44 744 0.852 -9.505 1.762 9.735 -48.157 10.773 -974.965 -659.870 -2879.924 0.003 0.073 0.757 -0.1 0.6 -0.79 0.06
1 7.45 745 1.346 -9.338 1.939 10.742 -47.363 8.392 -869.883 -869.883 -3014.986 -0.487 -0.093 0.584 -0.1 0.6 -0.79 0.06
1 7.46 746 1.599 -9.357 1.858 10.773 -42.511 3.723 -869.883 -869.883 -3014.986 -0.729 -0.070 0.674 -0.11 0.6 -0.79 0.07
1 7.47 747 1.528 -9.199 1.748 13.916 -35.217 -0.946 -974.965 -704.991 -3104.927 -0.639 -0.224 0.793 -0.11 0.6 -0.79 0.07
1 7.48 748 1.015 -8.849 1.623 21.820 -28.107 -3.876 -1019.936 -914.854 -3014.986 -0.104 -0.568 0.932 -0.11 0.6 -0.79 0.07
1 7.49 749 0.915 -8.840 1.528 21.790 -28.656 -5.310 -1019.936 -914.854 -3014.986 0.018 -0.569 1.051 -0.11 0.6 -0.79 0.07
1 7.50 750 1.207 -9.137 1.532 11.108 -30.518 -4.944 -929.994 -854.893 -2984.855 -0.233 -0.257 1.087 -0.12 0.59 -0.79 0.07
1 7.51 751 1.413 -9.299 1.743 5.859 -30.060 -5.280 -929.994 -854.893 -2984.855 -0.417 -0.091 0.879 -0.12 0.59 -0.79 0.08
1 7.52 752 1.322 -9.438 1.820 8.942 -30.487 -6.866 -929.994 -884.874 -3134.908 -0.303 0.051 0.802 -0.12 0.59 -0.79 0.08
1 7.53 753 1.561 -9.347 1.935 18.494 -31.525 -7.660 -929.994 -884.874 -3134.908 -0.517 -0.035 0.695 -0.13 0.59 -0.79 0.08
1 7.54 754 2.164 -9.156 1.949 26.703 -31.006 -9.613 -929.994 -929.994 -2954.875 -1.091 -0.218 0.702 -0.13 0.59 -0.79 0.08
1 7.55 755 2.471 -8.524 2.021 34.943 -19.898 -14.862 -899.864 -734.971 -3059.957 -1.363 -0.836 0.663 -0.13 0.59 -0.79 0.08
1 7.56 756 2.227 -8.174 1.671 37.811 -13.458 -19.196 -899.864 -734.971 -3059.957 -1.079 -1.169 1.056 -0.13 0.59 -0.8 0.08
1 7.57 757 1.939 -7.882 1.298 33.661 -9.399 -21.668 -929.994 -854.893 -3059.957 -0.748 -1.441 1.478 -0.13 0.58 -0.8 0.08
1 7.58 758 1.676 -8.212 3.266 8.240 -8.972 -21.973 -1094.887 -794.932 -3074.947 -0.411 -1.075 -0.404 -0.14 0.58 -0.8 0.08
1 7.59 759 3.836 -10.588 4.851 -39.978 -35.584 -4.669 -1079.896 -959.975 -2954.875 -2.535 1.306 -1.988 -0.14 0.58 -0.8 0.08
1 7.60 760 9.319 -13.987 8.370 -132.355 -29.755 31.525 -1079.896 -959.975 -2954.875 -8.001 4.680 -5.600 -0.14 0.58 -0.8 0.08
1 7.61 761 8.404 -13.020 5.684 -59.967 50.263 30.579 -1109.877 -884.874 -3134.908 -7.132 3.652 -3.104 -0.14 0.59 -0.79 0.08
1 7.62 762 2.921 -11.181 3.975 155.854 100.220 -9.064 -1004.945 -854.893 -3059.957 -1.703 1.809 -1.383 -0.14 0.59 -0.79 0.08
1 7.63 763 -1.149 -9.299 3.769 5.310 95.063 5.737 -1004.945 -854.893 -3059.957 2.339 -0.008 -0.942 -0.13 0.58 -0.8 0.08
1 7.64 764 -1.719 -10.731 2.595 -111.817 49.988 14.008 -929.994 -1004.945 -3164.888 2.795 1.404 0.213 -0.12 0.59 -0.8 0.07
1 7.65 765 -1.863 -11.665 3.175 -94.208 54.413 8.728 -929.994 -1004.945 -3164.888 2.890 2.292 -0.505 -0.12 0.59 -0.79 0.07
1 7.66 766 -4.180 -14.308 4.334 -17.761 35.736 11.597 -944.984 -794.932 -3044.966 5.179 4.913 -1.732 -0.11 0.6 -0.79 0.06
1 7.67 767 -3.749 -14.423 4.769 -2.716 9.216 24.902 -944.984 -794.932 -3044.966 4.717 5.022 -2.177 -0.11 0.6 -0.79 0.06
1 7.68 768 -2.279 -13.255 4.994 -16.113 2.258 23.102 -944.984 -869.883 -2894.914 3.207 3.848 -2.408 -0.11 0.6 -0.79 0.07
1 7.69 769 -1.657 -13.173 4.789 -6.866 8.026 -0.824 -929.994 -779.942 -2849.943 2.557 3.758 -2.225 -0.11 0.6 -0.79 0.07
1 7.70 770 -1.398 -12.484 4.444 11.017 7.416 -8.881 -929.994 -779.942 -2849.943 2.293 3.064 -1.892 -0.11 0.6 -0.79 0.07
1 7.71 771 -1.389 -11.291 3.702 41.748 5.615 -16.937 -839.903 -794.932 -3074.947 2.292 1.876 -1.138 -0.11 0.6 -0.79 0.07
1 7.72 772 -2.366 -9.208 2.830 74.738 -12.573 -21.027 -899.864 -854.893 -3029.976 3.320 -0.161 -0.121 -0.11 0.59 -0.8 0.06
1 7.73 773 -1.748 -8.433 2.955 54.077 -41.412 -11.841 -944.984 -839.903 -2969.865 2.715 -0.905 -0.142 -0.11 0.59 -0.8 0.07
1 7.74 774 0.029 -8.026 3.218 20.691 -62.470 -2.380 -944.984 -839.903 -2969.865 0.952 -1.292 -0.343 -0.11 0.58 -0.8 0.07
1 7.75 775 1.767 -8.150 3.505 4.089 -60.761 6.409 -854.893 -734.971 -3059.957 -0.757 -1.160 -0.617 -0.12 0.58 -0.8 0.07
1 7.76 776 2.624 -7.973 3.668 11.414 -42.511 15.564 -1019.936 -839.903 -3194.869 -1.598 -1.333 -0.773 -0.12 0.58 -0.8 0.07
1 7.77 777 2.648 -6.838 3.587 22.797 -18.555 24.719 -1019.936 -839.903 -3194.869 -1.618 -2.460 -0.667 -0.12 0.58 -0.8 0.08
1 7.78 778 2.725 -6.086 3.309 13.184 -9.064 23.895 -914.854 -794.932 -3074.947 -1.712 -3.203 -0.354 -0.12 0.58 -0.8 0.08
1 7.79 779 2.624 -5.684 3.184 -7.813 5.920 13.641 -914.854 -869.883 -3119.917 -1.666 -3.602 -0.203 -0.12 0.58 -0.8 0.08
1 7.80 780 2.251 -5.813 3.256 -21.027 15.472 7.690 -869.883 -914.854 -3254.979 -1.313 -3.479 -0.287 -0.12 0.58 -0.8 0.08
1 7.81 781 1.590 -6.460 3.477 -39.337 18.402 2.289 -869.883 -914.854 -3254.979 -0.668 -2.844 -0.539 -0.12 0.58 -0.8 0.08
1 7.82 782 1.140 -7.628 3.371 -56.275 13.825 0.732 -839.903 -839.903 -3149.898 -0.227 -1.695 -0.493 -0.12 0.58 -0.8 0.08
1 7.83 783 1.192 -8.806 3.433 -57.800 7.233 1.373 -1019.936 -839.903 -3119.917 -0.285 -0.542 -0.635 -0.12 0.59 -0.8 0.08
1 7.84 784 1.465 -9.783 3.280 -25.696 4.700 4.517 -1019.936 -839.903 -3119.917 -0.560 0.414 -0.551 -0.12 0.59 -0.8 0.08
1 7.85 785 1.523 -9.204 3.314 0.183 5.554 8.087 -974.965 -854.893 -3104.927 -0.621 -0.177 -0.625 -0.12 0.59 -0.79 0.08
1 7.86 786 1.705 -8.299 3.271 7.904 4.639 8.606 -944.984 -869.883 -3074.947 -0.811 -1.083 -0.584 -0.12 0.59 -0.79 0.08
1 7.87 787 1.595 -7.738 3.108 -11.261 -0.305 -0.397 -869.883 -674.860 -2939.885 -0.713 -1.638 -0.396 -0.12 0.59 -0.8 0.08
1 7.88 788 1.542 -8.059 3.227 -25.757 -4.883 -9.583 -869.883 -674.860 -2939.885 -0.655 -1.322 -0.536 -0.12 0.59 -0.79 0.08
1 7.89 789 1.484 -8.667 3.060 -29.450 -8.026 -13.947 -824.913 -809.922 -2984.855 -0.578 -0.723 -0.407 -0.12 0.59 -0.79 0.08
1 7.90 790 1.623 -9.074 3.189 -21.088 -7.355 -13.031 -929.994 -809.922 -3029.976 -0.687 -0.323 -0.570 -0.12 0.59 -0.79 0.08
1 7.91 791 1.671 -9.065 3.060 -9.552 -4.517 -10.712 -929.994 -809.922 -3029.976 -0.708 -0.335 -0.461 -0.12 0.59 -0.79 0.08
1 7.92 792 1.489 -8.854 3.247 -5.493 -1.099 -5.188 -944.984 -674.860 -2894.914 -0.504 -0.545 -0.654 -0.12 0.59 -0.79 0.08
1 7.93 793 1.384 -8.677 3.208 -11.169 -0.336 -2.228 -899.864 -854.893 -2984.855 -0.384 -0.721 -0.616 -0.12 0.59 -0.79 0.08
1 7.94 794 1.475 -8.720 2.921 -17.181 -0.427 -0.336 -1094.887 -674.860 -3044.966 -0.461 -0.682 -0.350 -0.12 0.6 -0.79 0.07
1 7.95 795 1.504 -8.519 2.768 -16.357 -0.763 -0.427 -1094.887 -674.860 -3044.966 -0.485 -0.888 -0.216 -0.12 0.6 -0.79 0.07
1 7.96 796 1.446 -8.409 2.720 -15.930 -1.190 -1.404 -974.965 -629.890 -2954.875 -0.421 -1.002 -0.186 -0.12 0.6 -0.79 0.07
1 7.97 797 1.556 -8.466 2.792 -20.996 -3.113 -2.716 -989.955 -569.929 -3044.966 -0.523 -0.949 -0.278 -0.12 0.6 -0.79 0.07
1 7.98 798 1.642 -8.931 2.739 -28.015 -5.310 -2.563 -989.955 -569.929 -3044.966 -0.598 -0.491 -0.253 -0.12 0.6 -0.79 0.07
1 7.99 799 1.978 -9.419 2.758 -31.738 -2.930 -0.824 -1019.936 -749.961 -3014.986 -0.922 -0.011 -0.310 -0.12 0.6 -0.79 0.07
1 8.00 800 2.155 -9.649 2.763 -24.841 0.122 2.808 -899.864 -659.870 -2984.855 -1.089 0.209 -0.358 -0.13 0.6 -0.79 0.07
1 8.01 801 2.251 -9.505 2.686 -13.123 4.578 7.202 -1019.936 -674.860 -2939.885 -1.179 0.051 -0.338 -0.13 0.6 -0.78 0.07
1 8.02 802 2.370 -9.433 2.729 -10.681 5.859 8.057 -1019.936 -674.860 -2939.885 -1.303 -0.024 -0.393 -0.13 0.6 -0.78 0.07
1 8.03 803 2.255 -9.012 2.581 -8.545 8.392 5.127 -989.955 -674.860 -2969.865 -1.190 -0.447 -0.252 -0.13 0.6 -0.78 0.07
1 8.04 804 2.188 -8.921 2.528 -9.033 8.972 2.228 -899.864 -584.919 -3029.976 -1.122 -0.540 -0.207 -0.12 0.6 -0.78 0.07
1 8.05 805 1.925 -8.864 2.466 -11.231 9.613 -0.214 -899.864 -584.919 -3029.976 -0.853 -0.599 -0.153 -0.12 0.61 -0.78 0.07
1 8.06 806 1.714 -9.060 2.605 -15.228 10.895 -2.899 -1034.926 -779.942 -2984.855 -0.636 -0.405 -0.303 -0.12 0.61 -0.78 0.07
1 8.07 807 1.532 -9.237 2.528 -15.778 13.275 -1.190 -914.854 -599.909 -2939.885 -0.446 -0.230 -0.242 -0.12 0.61 -0.78 0.07
1 8.08 808 1.427 -9.376 2.447 -15.167 12.939 3.235 -929.994 -659.870 -2849.943 -0.339 -0.099 -0.193 -0.12 0.61 -0.78 0.07
1 8.09 809 1.322 -9.443 2.461 -14.954 12.909 4.517 -929.994 -659.870 -2849.943 -0.240 -0.036 -0.223 -0.12 0.61 -0.78 0.07
1 8.10 810 1.441 -9.491 2.413 -12.543 13.184 6.500 -869.883 -569.929 -2864.934 -0.368 0.007 -0.190 -0.12 0.61 -0.78 0.07
1 8.11 811 1.470 -9.395 2.428 -9.674 13.947 5.463 -869.883 -449.857 -2789.982 -0.406 -0.093 -0.216 -0.12 0.61 -0.78 0.07
1 8.12 812 1.484 -9.381 2.332 -7.874 14.343 3.204 -869.883 -449.857 -2789.982 -0.429 -0.110 -0.128 -0.12 0.61 -0.78 0.07
1 8.13 813 1.336 -9.266 2.356 -5.951 13.916 1.404 -914.854 -569.929 -2894.914 -0.285 -0.226 -0.156 -0.12 0.61 -0.78 0.07
1 8.14 814 0.986 -8.945 2.265 -5.310 12.848 -1.465 -839.903 -644.880 -2864.934 0.062 -0.548 -0.069 -0.12 0.61 -0.78 0.06
1 8.15 815 1.063 -8.979 2.059 -5.646 10.803 -1.556 -839.903 -644.880 -2864.934 -0.014 -0.515 0.135 -0.12 0.61 -0.78 0.06
1 8.16 816 1.130 -9.036 2.145 -7.446 10.864 -1.465 -854.893 -629.890 -2849.943 -0.080 -0.459 0.040 -0.12 0.61 -0.78 0.06
1 8.17 817 1.298 -9.151 1.887 -11.780 8.789 -0.946 -794.932 -494.978 -2939.885 -0.247 -0.346 0.290 -0.12 0.61 -0.78 0.06
1 8.18 818 1.379 -9.338 1.925 -15.472 8.179 1.709 -869.883 -599.909 -2969.865 -0.328 -0.163 0.235 -0.12 0.61 -0.78 0.06
1 8.19 819 1.575 -9.596 1.925 -17.975 8.575 4.547 -869.883 -599.909 -2969.865 -0.527 0.090 0.213 -0.12 0.61 -0.78 0.06
1 8.20 820 1.499 -9.893 2.217 -17.456 8.911 6.653 -734.971 -494.978 -2819.963 -0.455 0.381 -0.104 -0.12 0.62 -0.78 0.06
1 8.21 821 1.489 -10.128 2.265 -13.702 8.667 8.942 -899.864 -584.919 -2909.904 -0.453 0.610 -0.175 -0.12 0.62 -0.78 0.06
1 8.22 822 1.384 -10.133 2.322 -7.233 9.277 9.979 -899.864 -584.919 -2909.904 -0.359 0.609 -0.250 -0.11 0.62 -0.78 0.06
1 8.23 823 1.331 -9.879 2.078 3.021 10.803 11.047 -779.942 -389.896 -2774.992 -0.334 0.351 -0.014 -0.11 0.62 -0.78 0.06
1 8.24 824 1.461 -9.553 1.997 6.653 11.444 11.444 -824.913 -464.997 -2879.924 -0.480 0.026 0.077 -0.11 0.62 -0.78 0.06
1 8.25 825 1.393 -9.184 1.887 4.700 11.169 12.299 -690.000 -599.909 -2864.934 -0.429 -0.342 0.199 -0.11 0.62 -0.78 0.06
1 8.26 826 1.389 -9.103 1.944 -1.343 11.658 12.451 -690.000 -599.909 -2864.934 -0.442 -0.424 0.149 -0.11 0.62 -0.78 0.06
1 8.27 827 1.508 -9.208 1.824 -7.874 12.726 11.719 -824.913 -434.867 -2849.943 -0.579 -0.321 0.267 -0.11 0.62 -0.78 0.06
1 8.28 828 1.413 -9.553 2.021 -13.336 16.052 10.345 -749.961 -584.919 -2984.855 -0.499 0.020 0.059 -0.11 0.62 -0.78 0.06
1 8.29 829 1.528 -9.936 1.987 -12.024 16.846 9.888 -749.961 -584.919 -2984.855 -0.628 0.398 0.077 -0.11 0.62 -0.78 0.06
1 8.30 830 1.580 -10.252 1.973 -8.972 18.524 8.545 -779.942 -284.964 -2804.973 -0.696 0.710 0.076 -0.11 0.62 -0.78 0.06
1 8.31 831 1.403 -10.449 1.887 -0.580 19.470 9.094 -734.971 -644.880 -2639.930 -0.545 0.900 0.146 -0.1 0.62 -0.77 0.06
1 8.32 832 1.393 -10.511 1.848 5.341 19.501 10.040 -764.952 -524.958 -2894.914 -0.551 0.962 0.188 -0.1 0.62 -0.77 0.06
1 8.33 833 1.365 -10.391 1.690 10.254 19.135 10.773 -764.952 -524.958 -2894.914 -0.540 0.843 0.358 -0.1 0.62 -0.78 0.06
1 8.34 834 1.231 -10.094 1.662 13.519 19.043 10.620 -779.942 -314.945 -2849.943 -0.423 0.549 0.404 -0.1 0.62 -0.78 0.06
1 8.35 835 1.408 -9.946 1.422 13.825 18.189 9.094 -614.899 -494.978 -2864.934 -0.616 0.403 0.664 -0.1 0.62 -0.78 0.06
1 8.36 836 1.221 -9.553 1.456 12.299 16.510 6.836 -614.899 -494.978 -2864.934 -0.442 0.014 0.650 -0.1 0.62 -0.78 0.06
1 8.37 837 1.188 -9.706 1.609 9.430 15.381 6.409 -629.890 -509.968 -2849.943 -0.419 0.170 0.513 -0.09 0.62 -0.78 0.06
1 8.38 838 1.283 -9.730 1.676 1.312 14.740 5.920 -704.991 -464.997 -2984.855 -0.534 0.197 0.467 -0.09 0.62 -0.78 0.05
1 8.39 839 1.192 -9.908 1.671 -1.709 15.167 7.690 -704.991 -509.968 -2909.904 -0.453 0.373 0.472 -0.09 0.62 -0.78 0.05
1 8.40 840 1.269 -10.171 1.738 -1.373 15.656 9.125 -704.991 -509.968 -2909.904 -0.542 0.635 0.402 -0.09 0.62 -0.78 0.05
1 8.41 841 1.173 -10.152 1.743 -1.404 16.510 9.430 -509.968 -569.929 -2894.914 -0.460 0.614 0.395 -0.09 0.62 -0.78 0.05
1 8.42 842 0.972 -10.458 1.882 -4.517 18.433 7.141 -629.890 -539.948 -2984.855 -0.274 0.919 0.253 -0.09 0.62 -0.78 0.05
1 8.43 843 0.321 -10.655 2.179 -9.918 17.273 3.693 -629.890 -539.948 -2984.855 0.365 1.113 -0.052 -0.09 0.62 -0.78 0.05
1 8.44 844 -0.283 -11.191 2.519 -13.794 14.496 -0.641 -449.857 -389.896 -3059.957 0.959 1.646 -0.403 -0.09 0.62 -0.78 0.05
1 8.45 845 -0.948 -12.010 2.260 -19.867 2.014 -7.721 -674.860 -464.997 -2954.875 1.624 2.456 -0.184 -0.08 0.62 -0.78 0.05
1 8.46 846 -0.881 -12.335 2.160 -16.480 -4.700 -6.836 -524.958 -509.968 -2804.973 1.569 2.777 -0.108 -0.08 0.62 -0.78 0.05
1 8.47 847 -0.091 -12.259 1.590 6.836 -19.104 -3.082 -524.958 -509.968 -2804.973 0.791 2.700 0.454 -0.09 0.62 -0.78 0.05
1 8.48 848 1.173 -11.751 1.556 12.756 -20.783 -4.120 -614.899 -569.929 -2969.865 -0.461 2.196 0.501 -0.09 0.62 -0.78 0.05
1 8.49 849 1.494 -11.090 1.633 10.010 -16.022 -6.317 -690.000 -494.978 -2894.914 -0.768 1.540 0.443 -0.09 0.62 -0.78 0.05
1 8.50 850 1.077 -10.765 1.178 10.040 -11.536 -3.235 -690.000 -494.978 -2894.914 -0.336 1.219 0.912 -0.09 0.62 -0.78 0.05
1 8.51 851 1.015 -10.468 1.144 9.674 -15.686 1.587 -509.968 -449.857 -2819.963 -0.263 0.926 0.961 -0.09 0.62 -0.78 0.05
1 8.52 852 1.336 -10.056 1.824 -0.763 -21.790 9.308 -659.870 -419.876 -3014.986 -0.577 0.517 0.292 -0.09 0.62 -0.78 0.05
1 8.53 853 1.341 -10.090 1.982 -4.669 -21.362 9.857 -704.991 -659.870 -2954.875 -0.584 0.549 0.125 -0.09 0.62 -0.78 0.05
1 8.54 854 1.456 -10.228 2.193 -9.308 -19.653 12.054 -704.991 -659.870 -2954.875 -0.704 0.684 -0.101 -0.09 0.62 -0.78 0.06
1 8.55 855 1.547 -10.056 2.528 -6.561 -17.914 12.299 -569.929 -509.968 -2849.943 -0.800 0.508 -0.449 -0.1 0.62 -0.78 0.06
1 8.56 856 1.384 -10.075 2.998 -6.226 -16.174 12.787 -614.899 -419.876 -3044.966 -0.644 0.525 -0.925 -0.1 0.62 -0.78 0.06
1 8.57 857 1.231 -9.793 3.204 -9.918 -14.710 16.144 -614.899 -419.876 -3044.966 -0.499 0.241 -1.136 -0.1 0.62 -0.78 0.06
1 8.58 858 1.623 -9.615 3.448 -10.315 -14.130 21.027 -629.890 -434.867 -2879.924 -0.907 0.061 -1.388 -0.1 0.62 -0.78 0.06
1 8.59 859 1.762 -9.237 3.630 -7.172 -10.864 20.172 -629.890 -434.867 -2879.924 -1.065 -0.320 -1.576 -0.1 0.62 -0.78 0.06
1 8.60 860 1.480 -8.739 3.611 3.204 0.061 11.841 -599.909 -359.916 -2954.875 -0.814 -0.819 -1.551 -0.1 0.62 -0.78 0.07
1 8.61 861 0.838 -8.093 3.309 14.557 9.033 6.500 -599.909 -359.916 -2954.875 -0.180 -1.461 -1.225 -0.1 0.62 -0.78 0.07
1 8.62 862 0.077 -8.002 3.074 18.250 15.808 2.258 -704.991 -464.997 -2849.943 0.574 -1.545 -0.958 -0.09 0.62 -0.78 0.07
1 8.63 863 -0.814 -7.614 2.921 10.895 17.487 -2.991 -584.919 -524.958 -2939.885 1.459 -1.927 -0.777 -0.09 0.62 -0.78 0.06
1 8.64 864 -1.513 -7.834 2.777 -8.789 12.329 -10.590 -584.919 -524.958 -2939.885 2.160 -1.703 -0.618 -0.09 0.62 -0.78 0.06
1 8.65 865 -2.088 -8.634 2.294 -17.975 4.730 -15.015 -614.899 -494.978 -2969.865 2.745 -0.904 -0.140 -0.09 0.62 -0.78 0.06
1 8.66 866 -1.949 -9.467 2.351 -23.377 -4.883 -16.602 -614.899 -494.978 -2969.865 2.615 -0.074 -0.215 -0.09 0.62 -0.78 0.06
1 8.67 867 -1.106 -10.616 2.825 -23.865 -14.893 -6.531 -614.899 -374.906 -3014.986 1.783 1.062 -0.752 -0.09 0.62 -0.78 0.06
1 8.68 868 -0.283 -11.153 2.777 -8.331 -9.888 3.998 -614.899 -374.906 -3014.986 0.963 1.592 -0.733 -0.09 0.62 -0.77 0.06
1 8.69 869 -0.263 -10.530 2.543 22.858 -2.045 12.512 -569.929 -509.968 -2909.904 0.937 0.969 -0.499 -0.09 0.62 -0.77 0.06
1 8.70 870 -0.632 -9.563 2.217 44.800 -0.061 12.543 -659.870 -329.935 -3044.966 1.288 0.010 -0.128 -0.09 0.62 -0.78 0.06
1 8.71 871 -0.881 -8.859 2.255 36.560 -5.005 9.796 -659.870 -329.935 -3044.966 1.512 -0.680 -0.099 -0.09 0.62 -0.78 0.06
1 8.72 872 -0.838 -8.600 2.136 0.885 -13.458 8.026 -704.991 -509.968 -2984.855 1.448 -0.929 0.067 -0.09 0.62 -0.78 0.06
1 8.73 873 -0.728 -8.749 2.030 -6.042 -14.740 7.355 -704.991 -509.968 -2984.855 1.321 -0.780 0.183 -0.09 0.62 -0.78 0.07
1 8.74 874 -0.910 -9.079 1.992 -0.763 -14.130 7.141 -614.899 -419.876 -2939.885 1.488 -0.452 0.215 -0.09 0.62 -0.78 0.07
1 8.75 875 -1.365 -9.390 2.064 2.930 -16.571 6.683 -659.870 -449.857 -2939.885 1.913 -0.142 0.145 -0.09 0.62 -0.78 0.07
1 8.76 876 -1.494 -9.687 2.184 -2.991 -20.172 9.552 -749.961 -389.896 -2984.855 2.024 0.155 0.027 -0.09 0.62 -0.78 0.07
1 8.77 877 -1.212 -10.046 2.203 -8.484 -23.712 12.878 -614.899 -494.978 -3014.986 1.720 0.511 0.001 -0.09 0.62 -0.78 0.07
1 8.78 878 -0.761 -10.319 2.188 -8.240 -22.766 13.519 -614.899 -494.978 -3014.986 1.246 0.780 0.002 -0.09 0.62 -0.78 0.08
1 8.79 879 -0.632 -10.200 2.140 2.197 -18.494 10.834 -539.948 -449.857 -2939.885 1.096 0.657 0.040 -0.09 0.62 -0.78 0.08
1 8.80 880 -0.589 -9.568 2.117 24.628 -15.289 2.930 -539.948 -449.857 -2939.885 1.037 0.026 0.072 -0.09 0.62 -0.78 0.08
1 8.81 881 -0.532 -9.098 1.930 29.144 -17.029 -2.777 -734.971 -449.857 -2939.885 0.971 -0.437 0.291 -0.09 0.61 -0.78 0.08
1 8.82 882 -0.594 -8.859 1.877 23.560 -17.639 -10.284 -779.942 -434.867 -2909.904 1.044 -0.656 0.425 -0.09 0.61 -0.78 0.08
1 8.83 883 -0.378 -8.916 1.801 17.059 -16.052 -11.932 -690.000 -329.935 -3014.986 0.844 -0.591 0.532 -0.09 0.61 -0.78 0.08
1 8.84 884 -0.656 -9.017 1.834 10.529 -14.313 -9.644 -779.942 -509.968 -2954.875 1.139 -0.484 0.519 -0.1 0.61 -0.78 0.08
1 8.85 885 -0.848 -9.275 1.777 6.500 -12.695 -5.524 -779.942 -509.968 -2954.875 1.341 -0.222 0.589 -0.1 0.61 -0.78 0.08
1 8.86 886 -1.034 -9.496 1.786 3.113 -13.489 0.732 -734.971 -524.958 -3074.947 1.530 -0.000 0.584 -0.1 0.61 -0.78 0.08
1 8.87 887 -1.413 -9.544 1.801 1.953 -19.592 7.813 -734.971 -524.958 -3074.947 1.901 0.047 0.570 -0.1 0.61 -0.78 0.08
1 8.88 888 -1.336 -9.778 1.877 5.096 -25.971 9.155 -629.890 -509.968 -2984.855 1.807 0.281 0.492 -0.1 0.61 -0.78 0.09
1 8.89 889 -0.862 -9.793 1.954 11.017 -35.309 5.463 -659.870 -494.978 -2939.885 1.304 0.296 0.426 -0.1 0.61 -0.78 0.09
1 8.90 890 -0.699 -9.663 1.968 13.031 -36.743 4.120 -674.860 -359.916 -3059.957 1.138 0.170 0.425 -0.1 0.61 -0.78 0.09
1 8.91 891 -0.163 -9.553 2.035 20.294 -38.300 -0.183 -734.971 -524.958 -2864.934 0.608 0.066 0.379 -0.1 0.61 -0.78 0.09
1 8.92 892 -0.038 -9.443 2.160 22.522 -37.445 -2.258 -734.971 -524.958 -2864.934 0.495 -0.037 0.281 -0.1 0.6 -0.78 0.1
1 8.93 893 -0.057 -9.371 2.002 21.576 -34.882 -3.357 -794.932 -524.958 -2969.865 0.529 -0.101 0.469 -0.11 0.6 -0.79 0.1
1 8.94 894 -0.163 -9.304 1.848 23.163 -33.722 -3.265 -794.932 -524.958 -2969.865 0.649 -0.160 0.650 -0.11 0.6 -0.79 0.1
1 8.95 895 0.034 -9.261 1.858 25.208 -35.889 -2.991 -869.883 -494.978 -3074.947 0.468 -0.194 0.668 -0.11 0.6 -0.79 0.1
1 8.96 896 0.541 -8.993 1.968 24.994 -37.354 -2.869 -869.883 -599.909 -3119.917 -0.009 -0.444 0.620 -0.11 0.6 -0.79 0.1
1 8.97 897 0.824 -8.931 2.045 24.353 -37.354 -3.845 -854.893 -359.916 -3104.927 -0.270 -0.497 0.574 -0.11 0.59 -0.79 0.1
1 8.98 898 0.963 -9.108 2.016 20.966 -34.638 -7.172 -944.984 -524.958 -3014.986 -0.385 -0.310 0.631 -0.12 0.59 -0.79 0.11
1 8.99 899 1.159 -9.113 2.050 19.653 -34.241 -9.308 -944.984 -524.958 -3014.986 -0.552 -0.296 0.622 -0.12 0.59 -0.79 0.11
1 9.00 900 1.379 -9.223 2.409 20.783 -32.257 -11.902 -899.864 -584.919 -3239.989 -0.740 -0.177 0.287 -0.12 0.59 -0.79 0.11
1 9.01 901 1.312 -9.371 2.433 24.719 -28.412 -13.580 -899.864 -584.919 -3239.989 -0.636 -0.018 0.291 -0.12 0.59 -0.79 0.11
1 9.02 902 1.422 -9.386 2.246 28.687 -22.186 -13.031 -1019.936 -674.860 -3149.898 -0.709 0.009 0.511 -0.13 0.59 -0.79 0.11
1 9.03 903 1.307 -9.117 2.155 29.480 -18.402 -11.932 -944.984 -524.958 -3194.869 -0.559 -0.246 0.640 -0.13 0.58 -0.79 0.11
1 9.04 904 1.010 -8.983 1.791 26.367 -15.839 -11.292 -1064.906 -794.932 -3299.950 -0.201 -0.353 1.077 -0.13 0.58 -0.8 0.11
1 9.05 905 0.929 -9.003 1.561 22.125 -15.930 -9.552 -1034.926 -539.948 -3209.859 -0.094 -0.322 1.336 -0.13 0.58 -0.8 0.11
1 9.06 906 0.876 -8.873 1.322 16.693 -17.059 -8.270 -1034.926 -539.948 -3209.859 -0.019 -0.443 1.597 -0.13 0.58 -0.8 0.11
1 9.07 907 0.876 -8.897 1.379 11.841 -19.989 -6.836 -869.883 -674.860 -3194.869 0.001 -0.413 1.552 -0.13 0.58 -0.8 0.11
1 9.08 908 0.982 -9.031 1.279 9.888 -24.323 -7.874 -869.883 -674.860 -3194.869 -0.084 -0.276 1.656 -0.14 0.58 -0.8 0.11
1 9.09 909 1.298 -9.060 1.551 12.146 -26.611 -8.667 -1064.906 -719.981 -3374.901 -0.376 -0.244 1.386 -0.14 0.58 -0.8 0.11
1 9.10 910 1.551 -9.266 3.122 13.001 -30.548 -9.338 -1109.877 -629.890 -3134.908 -0.604 -0.034 -0.181 -0.14 0.57 -0.8 0.11
1 9.11 911 5.540 -12.216 6.101 -40.253 -51.972 13.001 -1034.926 -854.893 -3239.989 -4.537 2.921 -3.160 -0.14 0.57 -0.8 0.11
1 9.12 912 7.643 -11.660 7.231 -60.272 -14.191 23.407 -1244.939 -644.880 -3374.901 -6.643 2.340 -4.372 -0.15 0.58 -0.8 0.11
1 9.13 913 5.215 -10.856 3.429 79.651 42.267 10.254 -1244.939 -644.880 -3374.901 -4.244 1.519 -0.613 -0.15 0.58 -0.79 0.11
1 9.14 914 2.648 -10.075 3.151 154.175 49.317 10.742 -1199.968 -749.961 -3329.931 -1.710 0.788 -0.166 -0.14 0.57 -0.8 0.11
1 9.15 915 0.369 -8.481 4.659 42.145 51.666 10.559 -1199.968 -749.961 -3329.931 0.530 -0.745 -1.477 -0.14 0.56 -0.81 0.11
1 9.16 916 0.268 -10.070 2.519 -56.671 33.234 23.926 -1019.936 -599.909 -3374.901 0.592 0.854 0.699 -0.13 0.56 -0.81 0.11
1 9.17 917 0.263 -10.152 2.457 -23.560 44.098 26.581 -1004.945 -704.991 -3359.911 0.544 0.908 0.697 -0.13 0.57 -0.81 0.11
1 9.18 918 -1.279 -10.310 3.390 -6.439 46.417 17.792 -1004.945 -704.991 -3359.911 2.025 1.045 -0.285 -0.13 0.57 -0.8 0.11
1 9.19 919 -2.356 -11.947 4.204 -51.514 17.578 13.733 -1094.887 -524.958 -3374.901 3.011 2.663 -1.138 -0.12 0.57 -0.8 0.11
1 9.20 920 -1.834 -13.341 4.358 -64.179 11.108 10.376 -1094.887 -524.958 -3374.901 2.464 4.029 -1.370 -0.12 0.58 -0.8 0.11
1 9.21 921 -1.757 -13.595 4.089 -24.231 17.304 0.916 -869.883 -644.880 -3329.931 2.371 4.256 -1.181 -0.12 0.58 -0.8 0.11
1 9.22 922 -2.279 -12.853 3.678 32.959 15.289 -8.453 -869.883 -644.880 -3329.931 2.888 3.511 -0.779 -0.12 0.58 -0.8 0.11
1 9.23 923 -2.504 -11.411 3.457 51.788 -2.594 -15.259 -944.984 -749.961 -3329.931 3.123 2.090 -0.496 -0.12 0.58 -0.8 0.1
1 9.24 924 -2.251 -9.347 3.496 32.532 -11.414 -19.440 -899.864 -704.991 -3389.892 2.891 0.053 -0.456 -0.12 0.58 -0.8 0.1
1 9.25 925 -2.303 -9.304 3.180 20.752 -17.700 -17.365 -899.864 -704.991 -3389.892 2.964 0.029 -0.085 -0.12 0.57 -0.8 0.1
1 9.26 926 -2.078 -9.213 2.830 21.271 -38.330 -9.491 -1064.906 -794.932 -3404.882 2.761 -0.039 0.327 -0.12 0.57 -0.81 0.1
1 9.27 927 -1.245 -8.964 3.261 19.226 -53.742 -2.838 -1064.906 -794.932 -3404.882 1.939 -0.279 -0.079 -0.12 0.57 -0.81 0.11
1 9.28 928 -0.053 -8.739 3.682 12.909 -60.822 5.829 -974.965 -734.971 -3419.872 0.759 -0.495 -0.478 -0.12 0.57 -0.81 0.11
1 9.29 929 1.001 -8.576 3.917 9.125 -56.976 12.177 -974.965 -734.971 -3419.872 -0.282 -0.652 -0.697 -0.12 0.57 -0.81 0.11
1 9.30 930 1.719 -8.289 4.027 11.078 -50.903 15.533 -989.955 -674.860 -3329.931 -0.990 -0.933 -0.793 -0.13 0.56 -0.81 0.12
1 9.31 931 2.744 -7.331 3.951 18.311 -37.903 15.747 -1034.926 -704.991 -3419.872 -2.006 -1.883 -0.695 -0.13 0.56 -0.81 0.12
1 9.32 932 3.093 -6.670 4.018 13.977 -22.186 13.763 -1034.926 -704.991 -3419.872 -2.344 -2.532 -0.734 -0.13 0.56 -0.81 0.12
1 9.33 933 3.012 -6.321 3.812 -11.231 -2.319 13.580 -1169.988 -719.981 -3299.950 -2.282 -2.874 -0.501 -0.13 0.56 -0.81 0.12
1 9.34 934 2.988 -6.498 3.721 -28.839 3.082 10.101 -1169.988 -719.981 -3299.950 -2.275 -2.706 -0.431 -0.13 0.56 -0.81 0.12
1 9.35 935 2.768 -7.298 3.591 -36.896 7.721 3.204 -1079.896 -809.922 -3494.973 -2.068 -1.922 -0.344 -0.13 0.56 -0.81 0.12
1 9.36 936 2.849 -8.256 3.510 -38.880 11.353 -5.798 -1079.896 -809.922 -3494.973 -2.154 -0.982 -0.314 -0.13 0.57 -0.81 0.12
1 9.37 937 2.605 -8.658 3.539 -36.469 13.519 -12.634 -1064.906 -644.880 -3449.853 -1.887 -0.595 -0.389 -0.13 0.57 -0.8 0.12
1 9.38 938 2.327 -9.165 3.524 -23.102 17.883 -13.489 -1034.926 -629.890 -3389.892 -1.582 -0.099 -0.416 -0.13 0.57 -0.8 0.12
1 9.39 939 1.930 -9.165 3.290 -14.496 22.705 -7.568 -1034.926 -629.890 -3389.892 -1.158 -0.106 -0.210 -0.13 0.57 -0.8 0.12
1 9.40 940 1.279 -8.701 2.988 -15.564 24.445 0.305 -1004.945 -659.870 -3284.960 -0.490 -0.578 0.064 -0.13 0.57 -0.8 0.11
1 9.41 941 0.982 -8.758 2.859 -18.341 21.668 0.153 -1004.945 -659.870 -3284.960 -0.199 -0.528 0.174 -0.13 0.57 -0.8 0.11
1 9.42 942 0.977 -8.533 3.046 -29.205 9.064 -5.157 -1004.945 -659.870 -3419.872 -0.196 -0.763 -0.043 -0.13 0.57 -0.8 0.11
1 9.43 943 1.245 -8.720 3.137 -29.419 5.005 -12.360 -1004.945 -659.870 -3419.872 -0.455 -0.588 -0.172 -0.13 0.58 -0.8 0.11
1 9.44 944 1.446 -8.974 3.165 -23.468 3.662 -16.083 -1139.857 -719.981 -3299.950 -0.635 -0.343 -0.237 -0.13 0.58 -0.8 0.11
1 9.45 945 1.489 -8.998 3.261 -15.900 5.188 -15.442 -1109.877 -584.919 -3209.859 -0.651 -0.325 -0.359 -0.13 0.58 -0.8 0.1
1 9.46 946 1.781 -8.854 3.022 -15.900 6.226 -14.404 -1109.877 -584.919 -3209.859 -0.916 -0.472 -0.139 -0.13 0.58 -0.8 0.1
1 9.47 947 1.724 -8.730 2.950 -17.639 8.270 -12.726 -989.955 -569.929 -3224.999 -0.833 -0.600 -0.084 -0.13 0.58 -0.8 0.1
1 9.48 948 1.695 -8.715 2.849 -21.362 10.529 -10.223 -1034.926 -809.922 -3359.911 -0.760 -0.623 -0.027 -0.13 0.58 -0.8 0.1
1 9.49 949 1.690 -8.572 2.811 -23.529 12.604 -6.775 -1064.906 -494.978 -3299.950 -0.739 -0.773 -0.015 -0.13 0.58 -0.8 0.1
1 9.50 950 1.753 -8.682 2.696 -23.682 15.259 -3.662 -1064.906 -494.978 -3299.950 -0.791 -0.670 0.072 -0.13 0.58 -0.8 0.09
1 9.51 951 1.695 -8.615 2.662 -23.438 18.127 0.458 -1199.968 -599.909 -3299.950 -0.729 -0.745 0.077 -0.13 0.59 -0.79 0.09
1 9.52 952 1.777 -8.677 2.619 -23.804 20.874 5.188 -1229.949 -584.919 -3164.888 -0.813 -0.691 0.092 -0.13 0.59 -0.79 0.09
1 9.53 953 1.551 -8.691 2.677 -26.215 20.447 7.446 -1229.949 -584.919 -3164.888 -0.595 -0.686 0.006 -0.13 0.59 -0.79 0.09
1 9.54 954 1.647 -8.730 2.639 -30.274 19.714 9.155 -989.955 -419.876 -3194.869 -0.701 -0.657 0.013 -0.13 0.59 -0.79 0.09
1 9.55 955 1.714 -9.079 2.696 -32.532 19.318 11.719 -989.955 -449.857 -3404.882 -0.799 -0.332 -0.121 -0.12 0.59 -0.79 0.09
1 9.56 956 2.073 -9.108 2.639 -28.931 20.935 11.536 -944.984 -494.978 -3044.966 -1.175 -0.316 -0.103 -0.12 0.6 -0.79 0.09
1 9.57 957 2.016 -9.113 2.591 -24.201 23.956 9.430 -944.984 -494.978 -3044.966 -1.132 -0.321 -0.089 -0.12 0.6 -0.79 0.09
1 9.58 958 2.131 -8.993 2.720 -21.637 26.398 7.355 -929.994 -464.997 -3389.892 -1.259 -0.449 -0.245 -0.12 0.6 -0.79 0.08
1 9.59 959 2.117 -8.916 2.581 -22.003 28.961 5.829 -974.965 -509.968 -3209.859 -1.254 -0.533 -0.130 -0.12 0.6 -0.79 0.08
1 9.60 960 1.805 -9.079 2.495 -26.093 33.814 2.716 -974.965 -509.968 -3209.859 -0.950 -0.377 -0.068 -0.12 0.6 -0.79 0.08
1 9.61 961 1.499 -9.242 2.294 -28.870 35.278 2.716 -1004.945 -434.867 -3164.888 -0.651 -0.222 0.104 -0.12 0.6 -0.78 0.08
1 9.62 962 1.355 -9.510 2.026 -28.809 35.919 2.533 -824.913 -434.867 -3164.888 -0.517 0.037 0.339 -0.11 0.61 -0.78 0.08
1 9.63 963 1.173 -9.448 2.021 -22.522 35.095 2.350 -1034.926 -389.896 -3059.957 -0.357 -0.045 0.273 -0.11 0.61 -0.78 0.07
1 9.64 964 1.188 -9.357 1.872 -20.905 34.271 2.533 -1034.926 -389.896 -3059.957 -0.382 -0.143 0.394 -0.11 0.61 -0.78 0.07
1 9.65 965 1.154 -9.319 1.801 -22.125 34.363 2.441 -854.893 -359.916 -3164.888 -0.360 -0.189 0.439 -0.11 0.61 -0.78 0.07
1 9.66 966 1.125 -9.472 1.872 -25.360 35.095 1.556 -839.903 -329.935 -3149.898 -0.342 -0.044 0.338 -0.1 0.61 -0.78 0.07
1 9.67 967 0.876 -9.831 1.571 -25.971 37.323 1.038 -839.903 -329.935 -3149.898 -0.104 0.307 0.605 -0.1 0.62 -0.78 0.07
1 9.68 968 0.800 -9.903 1.551 -20.569 39.276 1.038 -749.961 -464.997 -3104.927 -0.038 0.370 0.589 -0.1 0.62 -0.78 0.06
1 9.69 969 0.374 -9.855 1.547 -13.519 40.924 1.923 -764.952 -374.906 -3149.898 0.376 0.314 0.562 -0.1 0.62 -0.78 0.06
1 9.70 970 0.220 -9.888 1.312 -10.864 38.452 2.625 -734.971 -419.876 -3119.917 0.496 0.337 0.762 -0.09 0.62 -0.78 0.06
1 9.71 971 0.125 -9.903 1.451 -14.710 34.638 2.899 -734.971 -419.876 -3119.917 0.573 0.347 0.607 -0.09 0.62 -0.78 0.06
1 9.72 972 0.153 -9.927 1.336 -15.472 34.241 2.350 -674.860 -389.896 -3209.859 0.526 0.365 0.700 -0.09 0.62 -0.78 0.06
1 9.73 973 -0.029 -10.104 1.264 -11.322 33.539 1.312 -734.971 -419.876 -3074.947 0.692 0.536 0.751 -0.09 0.62 -0.77 0.05
1 9.74 974 -0.139 -10.157 1.164 -6.653 30.884 2.563 -734.971 -419.876 -3074.947 0.786 0.585 0.836 -0.08 0.63 -0.77 0.05
1 9.75 975 -0.101 -9.912 1.432 -5.585 23.377 3.876 -614.899 -254.984 -3149.898 0.729 0.337 0.558 -0.08 0.63 -0.77 0.05
1 9.76 976 0.120 -9.879 1.341 -8.789 18.402 4.791 -674.860 -314.945 -3059.957 0.490 0.300 0.640 -0.08 0.63 -0.77 0.05
1 9.77 977 0.378 -9.807 1.173 -11.017 14.832 4.913 -524.958 -209.863 -3209.859 0.202 0.220 0.775 -0.08 0.63 -0.77 0.05
1 9.78 978 0.555 -9.860 1.374 -9.735 14.801 3.601 -524.958 -209.863 -3209.859 0.013 0.269 0.557 -0.08 0.63 -0.77 0.05
1 9.79 979 0.771 -9.845 1.508 -9.552 14.923 2.258 -629.890 -89.941 -3134.908 -0.211 0.251 0.407 -0.08 0.63 -0.77 0.05
1 9.80 980 0.833 -9.912 1.508 -11.566 14.954 0.732 -614.899 -254.984 -3014.986 -0.278 0.314 0.392 -0.08 0.63 -0.77 0.05
1 9.81 981 0.776 -10.037 1.532 -11.200 15.137 0.977 -614.899 -254.984 -3014.986 -0.223 0.435 0.351 -0.07 0.63 -0.77 0.05
1 9.82 982 1.125 -10.252 1.508 -10.986 14.984 1.801 -690.000 -254.984 -3014.986 -0.576 0.648 0.359 -0.07 0.63 -0.77 0.05
1 9.83 983 1.130 -10.353 1.781 -8.209 14.740 1.343 -524.958 -239.994 -3134.908 -0.583 0.745 0.069 -0.07 0.63 -0.77 0.05
1 9.84 984 1.221 -10.655 1.810 -3.754 14.893 4.211 -569.929 -89.941 -3029.976 -0.678 1.042 0.020 -0.07 0.63 -0.77 0.04
1 9.85 985 1.389 -10.746 1.877 -1.923 15.839 4.639 -569.929 -89.941 -3029.976 -0.855 1.133 -0.048 -0.07 0.63 -0.77 0.04
1 9.86 986 1.451 -10.664 1.762 5.493 18.402 5.463 -659.870 -299.955 -3074.947 -0.929 1.052 0.073 -0.07 0.63 -0.77 0.04
1 9.87 987 1.312 -10.688 1.619 8.179 19.318 4.181 -494.978 -314.945 -3134.908 -0.802 1.078 0.230 -0.07 0.63 -0.77 0.04
1 9.88 988 1.168 -10.516 1.666 9.918 20.050 3.876 -494.978 -314.945 -3134.908 -0.668 0.908 0.198 -0.07 0.63 -0.77 0.04
1 9.89 989 0.924 -10.410 2.050 9.857 21.729 2.502 -599.909 -164.893 -3029.976 -0.432 0.805 -0.168 -0.07 0.63 -0.77 0.04
1 9.90 990 0.302 -10.774 1.772 2.075 18.402 0.153 -449.857 -209.863 -3239.989 0.182 1.173 0.129 -0.06 0.63 -0.77 0.04
1 9.91 991 0.129 -11.119 2.121 -1.831 16.693 -1.038 -449.857 -209.863 -3239.989 0.349 1.519 -0.213 -0.06 0.63 -0.77 0.04
1 9.92 992 -0.589 -11.679 2.940 -8.179 16.022 -7.385 -509.968 -179.883 -3149.898 1.065 2.079 -1.033 -0.06 0.63 -0.77 0.04
1 9.93 993 -1.379 -12.838 2.696 -19.775 6.317 -13.855 -599.909 -359.916 -3059.957 1.866 3.235 -0.803 -0.06 0.63 -0.77 0.04
1 9.94 994 -1.259 -13.681 2.064 -10.162 -11.475 -9.155 -389.896 -254.984 -3224.999 1.766 4.074 -0.197 -0.06 0.63 -0.77 0.03
1 9.95 995 0.450 -12.814 2.011 22.553 -25.086 0.702 -389.896 -254.984 -3224.999 0.072 3.207 -0.148 -0.06 0.63 -0.77 0.03
1 9.96 996 1.959 -11.272 2.054 35.034 -24.384 -0.580 -524.958 -314.945 -3059.957 -1.431 1.674 -0.149 -0.06 0.63 -0.77 0.04
1 9.97 997 2.820 -9.730 1.891 18.494 -16.296 -4.547 -629.890 -239.994 -3164.888 -2.285 0.143 0.068 -0.07 0.63 -0.77 0.04
1 9.98 998 2.548 -9.745 1.614 1.343 -9.735 -2.380 -629.890 -239.994 -3164.888 -1.993 0.166 0.379 -0.07 0.63 -0.77 0.04
1 9.99 999 2.423 -9.855 2.035 -8.240 -6.561 4.608 -494.978 -209.863 -3239.989 -1.825 0.278 -0.045 -0.07 0.63 -0.77 0.04
