COL1	TIME	ACC_X	ACC_Y	ACC_Z	GYR_X	GYR_Y	GYR_Z	MAG_X	MAG_Y	MAG_Z	LACC_X	LACC_Y	LACC_Z	QUAT_X	QUAT_Y	QUAT_Z	QUAT_W
1 0.00 0 -0.158 -8.212 5.540 0.977 -0.275 1.770 -344.925 -1964.920 -4049.912 0.010 0.047 -0.123 -0.01 0.47 -0.88 0.03
1 0.01 1 -0.235 -8.188 5.483 0.336 -0.671 1.343 -269.974 -2039.871 -3929.990 0.086 0.024 -0.064 -0.01 0.47 -0.88 0.03
1 0.02 2 -0.249 -8.165 5.464 -0.336 -0.458 1.495 -164.893 -1799.877 -4109.873 0.099 0.001 -0.044 -0.01 0.47 -0.88 0.03
1 0.03 3 -0.172 -8.193 5.421 -1.312 -0.885 1.129 -164.893 -1799.877 -4109.873 0.022 0.030 0.000 -0.01 0.47 -0.88 0.03
1 0.04 4 -0.125 -8.184 5.449 -3.357 -1.038 0.641 -299.955 -1889.969 -4079.892 -0.027 0.020 -0.030 -0.01 0.47 -0.88 0.03
1 0.05 5 -0.120 -8.289 5.526 -3.448 -0.549 0.519 -299.955 -1889.969 -4079.892 -0.031 0.123 -0.109 -0.01 0.47 -0.88 0.03
1 0.06 6 -0.273 -8.447 5.569 -3.479 -0.092 1.099 -284.964 -2009.891 -4274.915 0.123 0.279 -0.156 -0.01 0.47 -0.88 0.03
1 0.07 7 -0.211 -8.404 5.492 -2.686 -0.061 1.434 -284.964 -2009.891 -4274.915 0.060 0.233 -0.083 -0.01 0.47 -0.88 0.03
1 0.08 8 -0.048 -8.390 5.545 -1.312 -0.336 1.221 -269.974 -2039.871 -4184.974 -0.104 0.218 -0.138 -0.01 0.47 -0.88 0.03
1 0.09 9 -0.105 -8.332 5.521 -0.427 -1.068 0.824 -269.974 -1919.949 -4049.912 -0.047 0.159 -0.115 -0.01 0.47 -0.88 0.03
1 0.10 10 -0.120 -8.270 5.545 -0.244 -0.610 0.549 -269.974 -1919.949 -4049.912 -0.033 0.097 -0.139 -0.01 0.47 -0.88 0.03
1 0.11 11 -0.177 -8.145 5.497 -0.122 -0.763 0.610 -269.974 -1889.969 -4109.873 0.026 -0.027 -0.091 -0.01 0.47 -0.88 0.03
1 0.12 12 -0.177 -8.203 5.483 -0.122 -0.610 1.251 -269.974 -1889.969 -4109.873 0.025 0.031 -0.076 -0.01 0.47 -0.88 0.03
1 0.13 13 -0.220 -8.203 5.416 -0.702 -0.641 1.221 -194.873 -1964.920 -4004.941 0.068 0.031 -0.009 -0.01 0.47 -0.88 0.03
1 0.14 14 -0.287 -8.179 5.488 -2.106 -0.610 1.068 -194.873 -1964.920 -4004.941 0.135 0.007 -0.080 -0.01 0.47 -0.88 0.03
1 0.15 15 -0.244 -8.260 5.603 -2.411 -0.336 1.465 -329.935 -2054.861 -4064.902 0.092 0.089 -0.195 -0.01 0.47 -0.88 0.03
1 0.16 16 -0.172 -8.232 5.430 -2.960 -0.671 1.099 -179.883 -1859.988 -4094.882 0.018 0.059 -0.024 -0.01 0.47 -0.88 0.03
1 0.17 17 -0.038 -8.236 5.588 -2.716 -0.946 1.892 -179.883 -1859.988 -4094.882 -0.116 0.063 -0.184 -0.01 0.47 -0.88 0.03
1 0.18 18 -0.254 -8.366 5.603 -1.251 -0.458 1.526 -284.964 -1829.858 -4094.882 0.099 0.190 -0.201 -0.01 0.47 -0.88 0.03
1 0.19 19 -0.077 -8.380 5.579 -0.549 -0.946 1.862 -284.964 -1829.858 -4094.882 -0.079 0.205 -0.177 -0.01 0.47 -0.88 0.03
1 0.20 20 -0.163 -8.337 5.607 -0.458 -0.427 1.648 -299.955 -1919.949 -4079.892 0.008 0.162 -0.205 -0.01 0.47 -0.88 0.03
1 0.21 21 -0.187 -8.246 5.478 0.244 -0.427 1.221 -299.955 -1919.949 -4079.892 0.032 0.071 -0.076 -0.01 0.47 -0.88 0.03
1 0.22 22 -0.129 -8.160 5.459 0.183 -0.916 1.129 -254.984 -1979.910 -4094.882 -0.025 -0.015 -0.056 -0.01 0.47 -0.88 0.03
1 0.23 23 -0.034 -8.251 5.416 -0.671 -0.549 0.763 -179.883 -1904.959 -4274.915 -0.120 0.076 -0.013 -0.01 0.47 -0.88 0.03
1 0.24 24 -0.096 -8.198 5.411 -0.732 -0.885 1.129 -179.883 -1904.959 -4274.915 -0.058 0.024 -0.008 -0.01 0.47 -0.88 0.03
1 0.25 25 -0.096 -8.323 5.569 -1.770 -0.702 0.824 -89.941 -1799.877 -4154.993 -0.057 0.148 -0.165 -0.01 0.47 -0.88 0.03
1 0.26 26 -0.096 -8.342 5.512 -1.678 -0.427 0.885 -254.984 -2054.861 -4169.983 -0.056 0.168 -0.108 -0.01 0.47 -0.88 0.03
1 0.27 27 -0.148 -8.476 5.564 -0.214 -0.610 1.221 -359.916 -1979.910 -4064.902 -0.003 0.302 -0.161 -0.01 0.47 -0.88 0.03
1 0.28 28 -0.192 -8.318 5.502 0.610 -0.458 0.671 -359.916 -1979.910 -4064.902 0.040 0.143 -0.099 -0.01 0.47 -0.88 0.03
1 0.29 29 -0.182 -8.332 5.564 1.373 -0.549 1.526 -194.873 -1964.920 -4109.873 0.030 0.160 -0.158 -0.01 0.47 -0.88 0.03
1 0.30 30 -0.158 -8.342 5.502 2.686 -0.336 1.099 -134.912 -2099.982 -4169.983 0.006 0.171 -0.093 -0.01 0.47 -0.88 0.03
1 0.31 31 -0.053 -8.030 5.488 2.869 -0.336 0.153 -134.912 -2099.982 -4169.983 -0.099 -0.137 -0.074 -0.01 0.47 -0.88 0.03
1 0.32 32 -0.158 -8.198 5.435 1.160 -0.397 0.336 -299.955 -1964.920 -4049.912 0.007 0.034 -0.016 -0.01 0.47 -0.88 0.03
1 0.33 33 -0.134 -8.064 5.488 0.458 -0.580 1.038 -254.984 -2099.982 -4064.902 -0.018 -0.096 -0.062 -0.01 0.47 -0.88 0.03
1 0.34 34 -0.019 -8.160 5.560 1.190 -0.946 0.671 -119.922 -2039.871 -3899.859 -0.132 0.001 -0.132 -0.01 0.47 -0.88 0.03
1 0.35 35 -0.120 -8.241 5.502 0.580 -0.549 0.244 -119.922 -2039.871 -3899.859 -0.030 0.084 -0.072 -0.01 0.47 -0.88 0.03
1 0.36 36 -0.062 -8.246 5.593 0.305 -0.244 0.671 -209.863 -2099.982 -4019.931 -0.087 0.090 -0.163 -0.01 0.47 -0.88 0.03
1 0.37 37 -0.105 -8.303 5.588 0.488 -0.305 0.244 -194.873 -2114.972 -4184.974 -0.044 0.147 -0.157 -0.01 0.47 -0.88 0.03
1 0.38 38 -0.110 -8.251 5.607 0.824 -0.641 -0.092 -194.873 -2114.972 -4184.974 -0.038 0.096 -0.174 -0.01 0.47 -0.88 0.03
1 0.39 39 -0.172 -8.308 5.497 0.916 -0.671 0.122 -119.922 -1919.949 -4049.912 0.024 0.155 -0.063 -0.01 0.47 -0.88 0.03
1 0.40 40 -0.148 -8.370 5.469 2.075 -0.763 1.160 -269.974 -1964.920 -4049.912 0.001 0.220 -0.028 -0.01 0.47 -0.88 0.03
1 0.41 41 -0.057 -8.256 5.445 2.319 -0.610 1.190 -179.883 -2099.982 -4094.882 -0.090 0.108 -0.001 -0.01 0.47 -0.88 0.03
1 0.42 42 -0.134 -8.236 5.473 1.312 -0.458 1.099 -179.883 -2099.982 -4094.882 -0.014 0.091 -0.026 -0.01 0.47 -0.88 0.03
1 0.43 43 -0.196 -8.121 5.531 1.343 -0.824 0.671 -164.893 -1964.920 -4079.892 0.048 -0.022 -0.081 -0.01 0.47 -0.88 0.03
1 0.44 44 -0.081 -8.117 5.598 0.610 -0.732 1.160 -269.974 -1919.949 -4049.912 -0.067 -0.025 -0.145 -0.01 0.47 -0.88 0.03
1 0.45 45 -0.101 -8.102 5.454 0.244 -0.732 0.702 -269.974 -1919.949 -4049.912 -0.047 -0.038 -0.000 -0.01 0.47 -0.88 0.03
1 0.46 46 -0.091 -8.088 5.425 0.885 -0.641 -0.153 -329.935 -2054.861 -4199.964 -0.056 -0.052 0.030 -0.01 0.47 -0.88 0.03
1 0.47 47 -0.134 -8.121 5.502 -0.092 -0.427 -0.153 -254.984 -2009.891 -4019.931 -0.012 -0.018 -0.046 -0.01 0.47 -0.88 0.03
1 0.48 48 -0.187 -8.198 5.478 -1.282 -0.580 0.793 -254.984 -2129.962 -4094.882 0.041 0.060 -0.021 -0.01 0.47 -0.88 0.03
1 0.49 49 -0.101 -8.097 5.459 -1.068 -0.671 1.312 -254.984 -2129.962 -4094.882 -0.045 -0.041 -0.002 -0.01 0.47 -0.88 0.03
1 0.50 50 -0.211 -8.251 5.521 -1.434 -0.488 0.885 -284.964 -2054.861 -4139.853 0.065 0.112 -0.064 -0.01 0.47 -0.88 0.03
1 0.51 51 -0.177 -8.289 5.469 -2.014 -0.824 1.434 -389.896 -1934.939 -4139.853 0.031 0.150 -0.011 -0.01 0.47 -0.88 0.03
1 0.52 52 -0.168 -8.217 5.459 -1.923 -0.916 1.251 -389.896 -1934.939 -4139.853 0.021 0.078 -0.002 -0.01 0.47 -0.88 0.03
1 0.53 53 -0.297 -8.270 5.545 -1.221 -2.106 1.434 -179.883 -2099.982 -4094.882 0.149 0.131 -0.089 -0.01 0.47 -0.88 0.03
1 0.54 54 -0.244 -8.279 5.588 -1.007 -1.862 0.977 -284.964 -1979.910 -4064.902 0.096 0.140 -0.132 -0.01 0.47 -0.88 0.03
1 0.55 55 -0.235 -8.279 5.593 -1.007 -1.801 0.793 -329.935 -1979.910 -4094.882 0.086 0.140 -0.137 -0.01 0.47 -0.88 0.03
1 0.56 56 -0.158 -8.303 5.536 0.031 -1.801 2.228 -329.935 -1979.910 -4094.882 0.009 0.165 -0.079 -0.01 0.47 -0.88 0.03
1 0.57 57 -0.120 -8.227 5.521 0.000 -1.740 2.075 -269.974 -2144.953 -4184.974 -0.029 0.088 -0.064 -0.01 0.47 -0.88 0.03
1 0.58 58 -0.163 -8.260 5.459 0.244 -2.167 1.953 -224.854 -2039.871 -4049.912 0.013 0.123 0.000 -0.01 0.47 -0.88 0.03
1 0.59 59 -0.235 -8.150 5.368 -0.793 -2.075 1.251 -224.854 -2039.871 -4049.912 0.085 0.014 0.092 -0.01 0.47 -0.88 0.03
1 0.60 60 -0.158 -8.054 5.397 -2.106 -1.312 1.099 -209.863 -1979.910 -3989.951 0.008 -0.082 0.063 -0.01 0.47 -0.88 0.03
1 0.61 61 -0.105 -8.227 5.464 -3.754 -1.495 1.099 -224.854 -2069.852 -4004.941 -0.044 0.089 -0.005 -0.01 0.47 -0.88 0.03
1 0.62 62 -0.086 -8.308 5.440 -5.066 -1.099 1.678 -269.974 -2039.871 -4154.993 -0.062 0.166 0.012 -0.01 0.47 -0.88 0.03
1 0.63 63 -0.244 -8.418 5.425 -4.578 -0.397 2.258 -269.974 -2039.871 -4154.993 0.095 0.273 0.021 -0.01 0.47 -0.88 0.03
1 0.64 64 -0.110 -8.222 5.497 -3.845 -1.617 1.801 -134.912 -2009.891 -4139.853 -0.041 0.073 -0.056 -0.01 0.47 -0.88 0.03
1 0.65 65 -0.225 -8.414 5.502 -2.289 -1.495 1.648 -224.854 -1994.900 -4049.912 0.074 0.262 -0.064 -0.01 0.47 -0.88 0.03
1 0.66 66 -0.163 -8.399 5.560 -0.977 -1.740 1.343 -224.854 -1994.900 -4049.912 0.011 0.246 -0.124 -0.01 0.47 -0.88 0.03
1 0.67 67 -0.206 -8.275 5.469 -0.397 -1.740 1.312 -269.974 -2039.871 -4184.974 0.055 0.122 -0.033 -0.01 0.47 -0.88 0.03
1 0.68 68 -0.115 -8.256 5.574 -0.092 -1.038 1.923 -299.955 -1889.969 -4154.993 -0.037 0.102 -0.138 -0.01 0.47 -0.88 0.03
1 0.69 69 -0.134 -8.217 5.445 -1.007 -0.854 1.282 -299.955 -1889.969 -4154.993 -0.017 0.064 -0.009 -0.01 0.47 -0.88 0.03
1 0.70 70 -0.187 -8.236 5.421 -2.441 -1.129 1.221 -209.863 -2009.891 -4139.853 0.036 0.083 0.014 -0.01 0.47 -0.88 0.03
1 0.71 71 -0.230 -8.193 5.430 -2.991 -0.763 1.404 -284.964 -1979.910 -4169.983 0.078 0.038 0.001 -0.01 0.47 -0.88 0.03
1 0.72 72 -0.196 -8.346 5.483 -3.845 -0.946 1.526 -299.955 -1964.920 -4109.873 0.044 0.188 -0.055 -0.01 0.47 -0.88 0.03
1 0.73 73 -0.196 -8.260 5.464 -3.540 -1.343 1.465 -299.955 -1964.920 -4109.873 0.044 0.099 -0.040 -0.01 0.47 -0.88 0.03
1 0.74 74 -0.187 -8.557 5.555 -3.082 -1.038 1.556 -254.984 -2129.962 -4169.983 0.034 0.394 -0.135 -0.01 0.47 -0.88 0.03
1 0.75 75 -0.239 -8.495 5.492 -1.862 -1.678 1.770 -284.964 -2099.982 -4094.882 0.086 0.329 -0.076 -0.01 0.47 -0.88 0.03
1 0.76 76 -0.158 -8.303 5.483 -0.214 -1.404 1.892 -284.964 -2099.982 -4094.882 0.004 0.136 -0.068 -0.01 0.47 -0.88 0.03
1 0.77 77 -0.177 -8.375 5.516 0.122 -1.129 1.831 -299.955 -1994.900 -4109.873 0.022 0.209 -0.101 -0.01 0.47 -0.88 0.03
1 0.78 78 -0.134 -8.236 5.502 -0.183 -1.526 1.862 -329.935 -1934.939 -4064.902 -0.021 0.071 -0.086 -0.01 0.47 -0.88 0.03
1 0.79 79 -0.096 -8.246 5.449 -0.580 -1.495 1.007 -224.854 -2114.972 -3974.960 -0.059 0.080 -0.033 -0.01 0.47 -0.88 0.03
1 0.80 80 -0.206 -8.208 5.339 -0.885 -0.885 0.763 -224.854 -2114.972 -3974.960 0.052 0.042 0.077 -0.01 0.47 -0.88 0.03
1 0.81 81 -0.187 -8.251 5.358 -1.099 -0.824 0.458 -344.925 -1919.949 -4154.993 0.033 0.085 0.058 -0.01 0.47 -0.88 0.03
1 0.82 82 -0.115 -8.284 5.583 -0.580 -0.946 1.953 -329.935 -2054.861 -4274.915 -0.040 0.118 -0.167 -0.01 0.47 -0.88 0.03
1 0.83 83 -0.139 -8.227 5.516 -0.488 -0.488 1.404 -329.935 -2054.861 -4274.915 -0.016 0.061 -0.100 -0.01 0.47 -0.88 0.03
1 0.84 84 -0.225 -8.251 5.536 -0.305 -0.427 1.526 -224.854 -1919.949 -4184.974 0.070 0.086 -0.118 -0.01 0.47 -0.88 0.03
1 0.85 85 -0.177 -8.169 5.521 -1.251 -0.732 1.373 -254.984 -2009.891 -4094.882 0.021 0.005 -0.103 -0.01 0.47 -0.88 0.03
1 0.86 86 -0.120 -8.313 5.545 -1.160 -0.824 0.946 -299.955 -1889.969 -4079.892 -0.036 0.149 -0.127 -0.01 0.47 -0.88 0.03
1 0.87 87 -0.057 -8.299 5.569 -0.305 -0.122 0.763 -299.955 -1889.969 -4079.892 -0.098 0.134 -0.151 -0.01 0.47 -0.88 0.03
1 0.88 88 -0.172 -8.303 5.660 0.061 -0.397 0.092 -374.906 -1964.920 -4184.974 0.017 0.139 -0.241 -0.01 0.47 -0.88 0.03
1 0.89 89 -0.239 -8.270 5.478 0.305 -0.580 0.702 -194.873 -2114.972 -4184.974 0.085 0.106 -0.059 -0.01 0.47 -0.88 0.03
1 0.90 90 -0.268 -8.351 5.560 1.038 -0.366 1.465 -194.873 -2114.972 -4184.974 0.114 0.188 -0.139 -0.01 0.47 -0.88 0.03
1 0.91 91 -0.125 -8.260 5.459 1.526 -0.519 1.831 -194.873 -1919.949 -4229.944 -0.032 0.099 -0.036 -0.01 0.47 -0.88 0.03
1 0.92 92 -0.024 -8.208 5.612 1.556 0.031 1.282 -299.955 -1994.900 -4109.873 -0.134 0.051 -0.183 -0.01 0.47 -0.88 0.03
1 0.93 93 -0.168 -8.174 5.598 0.732 -0.183 1.404 -434.867 -2009.891 -4139.853 0.009 0.019 -0.165 -0.01 0.47 -0.88 0.03
1 0.94 94 -0.172 -8.093 5.483 0.549 -0.702 0.610 -434.867 -2009.891 -4139.853 0.013 -0.060 -0.048 -0.01 0.47 -0.88 0.03
1 0.95 95 -0.134 -8.064 5.555 -0.122 -0.397 0.244 -134.912 -1979.910 -4094.882 -0.024 -0.088 -0.118 -0.01 0.47 -0.88 0.03
1 0.96 96 0.014 -8.174 5.670 -1.556 -0.153 0.458 -329.935 -1979.910 -4064.902 -0.172 0.023 -0.232 -0.01 0.47 -0.88 0.03
1 0.97 97 -0.077 -8.327 5.545 -1.953 0.702 0.305 -329.935 -1979.910 -4064.902 -0.081 0.176 -0.107 -0.01 0.47 -0.88 0.03
1 0.98 98 -0.062 -8.366 5.454 -1.526 1.160 0.763 -344.925 -1964.920 -4079.892 -0.095 0.215 -0.016 -0.01 0.47 -0.88 0.03
1 0.99 99 -0.105 -8.155 5.550 -1.038 0.122 0.946 -269.974 -1964.920 -4259.925 -0.052 0.003 -0.112 -0.01 0.47 -0.88 0.03
1 1.00 100 -0.057 -8.136 5.607 -0.366 0.549 0.458 -344.925 -2069.852 -3974.960 -0.100 -0.015 -0.169 -0.01 0.47 -0.88 0.03
1 1.01 101 -0.249 -8.141 5.531 -0.061 0.244 0.305 -344.925 -2069.852 -3974.960 0.092 -0.010 -0.092 -0.01 0.47 -0.88 0.03
1 1.02 102 -0.397 -8.313 5.531 -0.763 -0.458 0.336 -359.916 -2099.982 -4064.902 0.241 0.163 -0.091 -0.01 0.47 -0.88 0.03
1 1.03 103 -0.340 -8.150 5.483 -0.763 -0.214 0.519 -269.974 -2114.972 -4079.892 0.182 -0.000 -0.044 -0.01 0.47 -0.88 0.03
1 1.04 104 -0.206 -8.294 5.459 -1.007 -0.336 1.343 -269.974 -2114.972 -4079.892 0.046 0.143 -0.020 -0.01 0.47 -0.88 0.03
1 1.05 105 -0.057 -8.184 5.334 -2.472 -0.336 1.495 -179.883 -2054.861 -4244.935 -0.103 0.033 0.104 -0.01 0.47 -0.88 0.03
1 1.06 106 -0.182 -8.222 5.469 -3.143 -0.183 0.641 -209.863 -2009.891 -4094.882 0.020 0.068 -0.035 -0.01 0.47 -0.88 0.03
1 1.07 107 -0.187 -8.394 5.516 -2.869 -0.641 0.732 -209.863 -1829.858 -3989.951 0.025 0.239 -0.085 -0.01 0.47 -0.88 0.03
1 1.08 108 -0.072 -8.385 5.655 -1.617 -0.092 1.923 -209.863 -1829.858 -3989.951 -0.090 0.228 -0.225 -0.01 0.47 -0.88 0.03
1 1.09 109 -0.101 -8.346 5.531 -1.068 0.275 0.977 -254.984 -2009.891 -4064.902 -0.060 0.190 -0.101 -0.01 0.47 -0.88 0.03
1 1.10 110 -0.144 -8.265 5.488 0.519 1.221 0.916 -194.873 -1994.900 -4079.892 -0.017 0.109 -0.057 -0.01 0.47 -0.88 0.03
1 1.11 111 -0.254 -8.126 5.464 -0.824 -0.092 -0.061 -194.873 -1994.900 -4079.892 0.092 -0.029 -0.032 -0.01 0.47 -0.88 0.03
1 1.12 112 -0.259 -8.145 5.445 -1.404 -1.007 0.000 -119.922 -2069.852 -4154.993 0.097 -0.010 -0.014 -0.01 0.47 -0.88 0.03
1 1.13 113 -0.235 -8.361 5.435 -2.045 -0.031 0.244 -119.922 -2069.852 -4154.993 0.072 0.205 -0.004 -0.01 0.47 -0.88 0.03
1 1.14 114 -0.196 -8.299 5.512 -1.221 0.519 0.702 -284.964 -1979.910 -4064.902 0.033 0.141 -0.083 -0.01 0.47 -0.88 0.03
1 1.15 115 -0.225 -8.366 5.435 -1.495 0.793 0.549 -284.964 -1979.910 -4064.902 0.062 0.208 -0.007 -0.01 0.47 -0.88 0.03
1 1.16 116 -0.091 -8.303 5.531 -1.404 0.397 0.671 -329.935 -1934.939 -4244.935 -0.073 0.145 -0.104 -0.01 0.47 -0.88 0.03
1 1.17 117 -0.072 -8.394 5.425 -1.404 0.214 0.763 -329.935 -2099.982 -4094.882 -0.092 0.236 0.001 -0.01 0.47 -0.88 0.03
1 1.18 118 -0.081 -8.303 5.492 -0.977 0.763 0.824 -329.935 -2099.982 -4094.882 -0.082 0.144 -0.066 -0.01 0.47 -0.88 0.03
1 1.19 119 -0.077 -8.208 5.636 -0.549 0.732 0.305 -194.873 -2039.871 -4184.974 -0.087 0.048 -0.210 -0.01 0.47 -0.88 0.03
1 1.20 120 -0.239 -8.260 5.583 0.092 1.190 -0.214 -194.873 -2039.871 -4184.974 0.076 0.101 -0.157 -0.01 0.47 -0.88 0.03
1 1.21 121 -0.268 -8.260 5.454 -0.214 1.038 -0.183 -164.893 -2039.871 -4049.912 0.105 0.103 -0.025 -0.01 0.47 -0.88 0.03
1 1.22 122 -0.182 -8.251 5.406 -0.824 0.854 -0.275 -164.893 -2039.871 -4049.912 0.018 0.094 0.023 -0.01 0.47 -0.88 0.03
1 1.23 123 -0.067 -8.193 5.560 -1.740 1.312 -0.153 -254.984 -1934.939 -4019.931 -0.098 0.036 -0.130 -0.01 0.47 -0.88 0.03
1 1.24 124 -0.182 -8.308 5.435 -2.075 1.343 -0.366 -359.916 -2009.891 -4094.882 0.018 0.151 -0.007 -0.01 0.47 -0.88 0.03
1 1.25 125 -0.263 -8.414 5.607 -1.221 1.434 0.092 -359.916 -2009.891 -4094.882 0.100 0.255 -0.181 -0.01 0.47 -0.88 0.03
1 1.26 126 -0.163 -8.346 5.469 0.214 0.427 1.160 -254.984 -1979.910 -4094.882 -0.002 0.188 -0.042 -0.01 0.47 -0.88 0.03
1 1.27 127 -0.172 -8.203 5.488 1.434 0.885 0.549 -254.984 -1979.910 -4094.882 0.006 0.045 -0.060 -0.01 0.47 -0.88 0.03
1 1.28 128 -0.172 -8.184 5.536 1.495 1.129 0.488 -344.925 -1964.920 -4154.993 0.004 0.030 -0.102 -0.01 0.47 -0.88 0.03
1 1.29 129 -0.139 -8.054 5.454 0.641 0.000 0.244 -344.925 -1964.920 -4154.993 -0.030 -0.097 -0.017 -0.01 0.47 -0.88 0.03
1 1.30 130 -0.235 -8.212 5.488 -0.519 0.000 -0.336 -209.863 -2099.982 -4064.902 0.067 0.062 -0.048 -0.01 0.47 -0.88 0.03
1 1.31 131 -0.163 -8.150 5.521 -1.587 0.000 0.000 -194.873 -1919.949 -4049.912 -0.005 0.000 -0.081 -0.01 0.47 -0.88 0.03
1 1.32 132 -0.215 -8.346 5.507 -1.862 0.916 0.580 -194.873 -1919.949 -4049.912 0.048 0.196 -0.067 -0.01 0.47 -0.88 0.03
1 1.33 133 -0.235 -8.323 5.569 -2.014 0.946 1.099 -299.955 -1964.920 -4109.873 0.067 0.171 -0.131 -0.01 0.47 -0.88 0.03
1 1.34 134 -0.144 -8.212 5.492 -0.427 0.916 0.488 -299.955 -1964.920 -4109.873 -0.026 0.061 -0.056 -0.01 0.47 -0.88 0.03
1 1.35 135 -0.043 -8.227 5.521 -0.427 0.427 -0.183 -269.974 -2189.923 -4079.892 -0.127 0.075 -0.084 -0.01 0.47 -0.88 0.03
1 1.36 136 0.053 -8.232 5.545 0.153 0.061 0.153 -254.984 -1904.959 -4064.902 -0.222 0.080 -0.108 -0.01 0.47 -0.88 0.03
1 1.37 137 -0.105 -8.160 5.545 -1.038 0.336 -0.580 -209.863 -1979.910 -4064.902 -0.063 0.009 -0.107 -0.01 0.47 -0.88 0.03
1 1.38 138 -0.172 -8.299 5.411 -1.770 0.488 0.092 -269.974 -2069.852 -4049.912 0.005 0.148 0.027 -0.01 0.47 -0.88 0.03
1 1.39 139 -0.215 -8.279 5.454 -0.671 0.183 -0.183 -269.974 -2069.852 -4049.912 0.048 0.128 -0.017 -0.01 0.47 -0.88 0.03
1 1.40 140 -0.316 -8.375 5.387 -1.221 -0.031 0.641 -269.974 -2039.871 -4154.993 0.148 0.223 0.050 -0.01 0.47 -0.88 0.03
1 1.41 141 -0.321 -8.294 5.469 -1.862 -0.519 0.977 -269.974 -2039.871 -4154.993 0.151 0.142 -0.032 -0.01 0.47 -0.88 0.03
1 1.42 142 -0.177 -8.375 5.397 -1.953 -1.343 0.458 -254.984 -1934.939 -3989.951 0.006 0.223 0.039 -0.01 0.47 -0.88 0.03
1 1.43 143 -0.249 -8.260 5.440 -0.977 -1.129 1.160 -269.974 -2069.852 -4079.892 0.078 0.106 -0.006 -0.01 0.47 -0.88 0.03
1 1.44 144 -0.148 -8.303 5.488 -1.617 -1.251 0.641 -224.854 -1994.900 -4079.892 -0.023 0.149 -0.055 -0.01 0.47 -0.88 0.03
1 1.45 145 -0.192 -8.308 5.488 -1.678 -0.519 -0.153 -209.863 -1904.959 -4199.964 0.020 0.154 -0.055 -0.01 0.47 -0.88 0.03
1 1.46 146 -0.158 -8.370 5.512 -1.587 -0.641 1.068 -209.863 -1904.959 -4199.964 -0.013 0.216 -0.079 -0.01 0.47 -0.88 0.03
1 1.47 147 -0.129 -8.246 5.588 -1.282 -1.038 1.465 -299.955 -1964.920 -4079.892 -0.042 0.091 -0.156 -0.01 0.47 -0.88 0.03
1 1.48 148 -0.249 -8.447 5.540 0.031 -0.916 0.641 -299.955 -1964.920 -4079.892 0.077 0.292 -0.108 -0.01 0.47 -0.88 0.03
1 1.49 149 -0.153 -8.375 5.459 0.885 -0.366 0.977 -299.955 -2039.871 -4184.974 -0.018 0.220 -0.027 -0.01 0.47 -0.88 0.03
1 1.50 150 -0.196 -8.179 5.526 0.366 -0.977 1.007 -254.984 -1904.959 -4094.882 0.024 0.026 -0.091 -0.01 0.47 -0.88 0.03
1 1.51 151 -0.297 -8.112 5.550 -0.305 -0.519 0.763 -209.863 -1904.959 -4139.853 0.125 -0.041 -0.114 -0.01 0.47 -0.88 0.03
1 1.52 152 -0.192 -8.227 5.492 -0.793 -0.610 0.122 -224.854 -1964.920 -4079.892 0.019 0.075 -0.056 -0.01 0.47 -0.88 0.03
1 1.53 153 -0.354 -8.236 5.454 -1.373 -0.885 0.275 -224.854 -1964.920 -4079.892 0.182 0.084 -0.018 -0.01 0.47 -0.88 0.03
1 1.54 154 -0.378 -8.107 5.464 -1.862 -1.251 0.854 -194.873 -1994.900 -4049.912 0.204 -0.045 -0.028 -0.01 0.47 -0.88 0.03
1 1.55 155 -0.263 -8.217 5.430 -2.472 -1.221 1.129 -194.873 -1994.900 -4049.912 0.088 0.065 0.006 -0.01 0.47 -0.88 0.03
1 1.56 156 -0.081 -8.351 5.435 -2.838 -1.373 1.251 -329.935 -1979.910 -4199.964 -0.094 0.198 -0.001 -0.01 0.47 -0.88 0.03
1 1.57 157 -0.177 -8.337 5.564 -2.319 -1.648 1.221 -164.893 -1964.920 -4079.892 0.001 0.181 -0.133 -0.01 0.47 -0.88 0.03
1 1.58 158 -0.220 -8.308 5.507 -1.953 -2.045 0.549 -329.935 -1979.910 -4139.853 0.046 0.149 -0.081 -0.01 0.47 -0.88 0.03
1 1.59 159 -0.153 -8.409 5.722 -0.244 -2.197 0.916 -329.935 -1904.959 -4199.964 -0.019 0.249 -0.297 -0.01 0.47 -0.88 0.03
1 1.60 160 -0.177 -8.279 5.574 0.000 -1.343 1.221 -329.935 -1904.959 -4199.964 0.006 0.120 -0.148 -0.01 0.47 -0.88 0.03
1 1.61 161 -0.077 -8.284 5.540 0.580 -1.221 1.587 -224.854 -1889.969 -4079.892 -0.095 0.126 -0.113 -0.01 0.47 -0.88 0.03
1 1.62 162 -0.096 -8.222 5.507 0.458 -0.458 1.251 -224.854 -1889.969 -4079.892 -0.076 0.065 -0.078 -0.01 0.47 -0.88 0.03
1 1.63 163 -0.153 -8.313 5.531 -0.427 -1.038 0.153 -224.854 -2039.871 -4109.873 -0.019 0.157 -0.100 -0.01 0.47 -0.88 0.03
1 1.64 164 -0.215 -8.131 5.574 -1.556 -1.312 -0.214 -209.863 -1829.858 -4094.882 0.044 -0.025 -0.143 -0.01 0.47 -0.88 0.03
1 1.65 165 -0.263 -8.275 5.526 -1.434 -1.251 0.000 -224.854 -1994.900 -4079.892 0.094 0.118 -0.096 -0.01 0.47 -0.88 0.03
1 1.66 166 -0.182 -8.265 5.708 -0.366 -0.702 1.282 -269.974 -1964.920 -4154.993 0.012 0.109 -0.277 -0.01 0.47 -0.88 0.03
1 1.67 167 -0.096 -8.141 5.540 0.153 -0.031 0.885 -269.974 -1964.920 -4154.993 -0.074 -0.015 -0.109 -0.01 0.47 -0.88 0.03
1 1.68 168 -0.148 -8.088 5.636 0.610 0.916 1.526 -209.863 -1904.959 -4169.983 -0.022 -0.067 -0.203 -0.01 0.47 -0.88 0.03
1 1.69 169 -0.192 -8.145 5.631 -0.153 0.946 0.336 -209.863 -1904.959 -4169.983 0.019 -0.007 -0.196 -0.01 0.47 -0.88 0.03
1 1.70 170 -0.101 -8.117 5.622 -0.427 0.549 0.488 -224.854 -2069.852 -4184.974 -0.072 -0.035 -0.185 -0.01 0.47 -0.88 0.03
1 1.71 171 -0.196 -8.078 5.627 -1.282 0.214 0.214 -179.883 -2099.982 -3989.951 0.024 -0.072 -0.188 -0.01 0.47 -0.88 0.03
1 1.72 172 -0.125 -8.169 5.435 -3.510 0.000 -0.610 -224.854 -1964.920 -4049.912 -0.046 0.019 0.003 -0.01 0.47 -0.88 0.03
1 1.73 173 -0.048 -8.327 5.612 -4.761 -0.183 -0.366 -179.883 -1979.910 -4064.902 -0.120 0.174 -0.177 -0.01 0.47 -0.88 0.03
1 1.74 174 -0.215 -8.370 5.478 -5.157 0.854 -0.488 -179.883 -1979.910 -4064.902 0.049 0.214 -0.048 -0.01 0.47 -0.88 0.03
1 1.75 175 -0.297 -8.437 5.560 -3.235 0.885 0.610 -284.964 -2054.861 -4019.931 0.130 0.278 -0.134 -0.01 0.47 -0.88 0.03
1 1.76 176 -0.369 -8.409 5.536 0.244 -0.916 -0.122 -284.964 -2054.861 -4019.931 0.201 0.248 -0.112 -0.01 0.47 -0.88 0.03
1 1.77 177 -0.206 -8.198 5.368 0.854 -1.251 0.549 -194.873 -1994.900 -4049.912 0.037 0.037 0.056 -0.01 0.47 -0.88 0.03
1 1.78 178 -0.263 -8.208 5.330 0.305 -1.251 0.519 -224.854 -1919.949 -4154.993 0.095 0.048 0.096 -0.01 0.47 -0.88 0.03
1 1.79 179 -0.148 -8.117 5.526 -1.404 -1.190 0.488 -224.854 -1919.949 -4154.993 -0.019 -0.042 -0.099 -0.01 0.47 -0.88 0.03
1 1.80 180 -0.101 -8.351 5.483 -2.747 -0.946 0.061 -224.854 -1964.920 -4184.974 -0.066 0.192 -0.057 -0.01 0.47 -0.88 0.03
1 1.81 181 -0.254 -8.208 5.555 -2.197 -0.458 0.305 -224.854 -1964.920 -4184.974 0.088 0.046 -0.132 -0.01 0.47 -0.88 0.03
1 1.82 182 -0.158 -8.409 5.560 -1.465 -0.824 0.366 -179.883 -2054.861 -4199.964 -0.008 0.247 -0.137 -0.01 0.47 -0.88 0.03
1 1.83 183 -0.129 -8.437 5.646 1.068 -0.427 0.519 -179.883 -2054.861 -4199.964 -0.036 0.276 -0.224 -0.01 0.47 -0.88 0.03
1 1.84 184 -0.235 -8.361 5.545 1.862 0.244 0.397 -194.873 -2144.953 -4154.993 0.069 0.201 -0.120 -0.01 0.47 -0.88 0.03
1 1.85 185 -0.177 -8.212 5.588 0.916 0.610 -0.031 -254.984 -1934.939 -4064.902 0.012 0.055 -0.160 -0.01 0.47 -0.88 0.03
1 1.86 186 -0.297 -8.222 5.607 -0.854 1.038 0.336 -254.984 -1934.939 -4064.902 0.131 0.066 -0.177 -0.01 0.47 -0.88 0.03
1 1.87 187 -0.091 -8.342 5.488 1.099 0.580 -0.153 -344.925 -1994.900 -4259.925 -0.077 0.187 -0.055 -0.01 0.47 -0.88 0.03
1 1.88 188 -0.139 -8.275 5.655 3.265 0.305 -0.397 -344.925 -1994.900 -4259.925 -0.029 0.122 -0.219 -0.01 0.47 -0.88 0.03
1 1.89 189 -0.187 -8.222 5.598 4.089 0.824 -0.916 -209.863 -2054.861 -4139.853 0.020 0.074 -0.156 -0.01 0.47 -0.88 0.03
1 1.90 190 -0.144 -8.165 5.617 3.326 1.190 -0.977 -209.863 -2054.861 -4139.853 -0.022 0.021 -0.168 -0.01 0.47 -0.88 0.03
1 1.91 191 -0.268 -8.169 5.502 1.190 1.221 -0.061 -299.955 -2114.972 -4259.925 0.103 0.029 -0.048 -0.01 0.47 -0.88 0.03
1 1.92 192 -0.177 -8.121 5.435 -0.153 1.862 -0.336 -269.974 -1964.920 -4079.892 0.012 -0.016 0.023 -0 0.47 -0.88 0.03
1 1.93 193 -0.134 -8.193 5.516 -0.916 2.014 -0.732 -269.974 -1964.920 -4079.892 -0.032 0.057 -0.056 -0 0.47 -0.88 0.03
1 1.94 194 -0.172 -8.256 5.560 -2.655 1.343 -1.007 -134.912 -1934.939 -4139.853 0.009 0.118 -0.101 -0 0.47 -0.88 0.03
1 1.95 195 -0.249 -8.342 5.655 -2.075 1.984 -0.610 -134.912 -1934.939 -4139.853 0.086 0.203 -0.199 -0 0.47 -0.88 0.03
1 1.96 196 -0.244 -8.188 5.627 -1.984 3.021 -0.214 -224.854 -1994.900 -4079.892 0.080 0.049 -0.171 -0 0.47 -0.88 0.03
1 1.97 197 -0.321 -8.246 5.674 -2.136 3.143 -0.549 -224.854 -1994.900 -4079.892 0.156 0.106 -0.220 -0 0.47 -0.88 0.03
1 1.98 198 -0.369 -8.418 5.622 -1.404 2.838 -0.977 -374.906 -2114.972 -4289.905 0.202 0.277 -0.169 -0 0.47 -0.88 0.03
1 1.99 199 -0.445 -8.232 5.612 0.732 1.617 -0.488 -164.893 -1964.920 -4109.873 0.277 0.091 -0.159 -0 0.47 -0.88 0.03
1 2.00 200 -0.488 -8.227 5.588 2.167 1.953 -1.343 -164.893 -1964.920 -4109.873 0.318 0.087 -0.134 -0 0.47 -0.88 0.03
1 2.01 201 -0.479 -8.184 5.550 1.495 1.984 0.214 -329.935 -1979.910 -4019.931 0.307 0.046 -0.092 -0 0.47 -0.88 0.03
1 2.02 202 -0.421 -8.083 5.574 -0.427 1.251 2.106 -284.964 -2009.891 -4094.882 0.243 -0.051 -0.110 -0 0.47 -0.88 0.03
1 2.03 203 -0.292 -8.275 5.545 -1.190 1.556 0.580 -269.974 -2039.871 -4109.873 0.109 0.142 -0.081 -0 0.47 -0.88 0.03
1 2.04 204 -0.273 -8.179 5.718 -1.312 1.526 -0.244 -269.974 -2039.871 -4109.873 0.088 0.045 -0.254 -0 0.47 -0.88 0.03
1 2.05 205 -0.335 -8.409 5.617 -1.587 1.526 0.153 -209.863 -2099.982 -4169.983 0.150 0.275 -0.154 -0 0.47 -0.88 0.03
1 2.06 206 -0.230 -8.318 5.531 -0.824 3.204 0.092 -344.925 -1964.920 -4049.912 0.043 0.184 -0.068 -0 0.47 -0.88 0.03
1 2.07 207 -0.335 -8.232 5.636 -0.946 3.448 -0.580 -344.925 -1964.920 -4049.912 0.147 0.098 -0.173 -0 0.47 -0.88 0.03
1 2.08 208 -0.316 -8.251 5.526 -1.251 3.815 1.221 -179.883 -1904.959 -4244.935 0.126 0.117 -0.062 -0 0.47 -0.88 0.03
1 2.09 209 -0.306 -8.232 5.531 -1.160 4.150 0.610 -209.863 -2009.891 -4064.902 0.108 0.098 -0.068 -0 0.47 -0.88 0.03
1 2.10 210 -0.340 -8.361 5.627 -1.007 4.181 -0.031 -194.873 -2069.852 -4109.873 0.137 0.227 -0.164 -0 0.47 -0.88 0.02
1 2.11 211 -0.306 -8.222 5.507 0.153 4.242 -0.732 -194.873 -2069.852 -4109.873 0.100 0.088 -0.045 -0 0.47 -0.88 0.02
1 2.12 212 -0.378 -8.227 5.588 -0.458 4.700 -2.380 -209.863 -2129.962 -4064.902 0.170 0.093 -0.126 -0 0.47 -0.88 0.02
1 2.13 213 -0.374 -8.265 5.603 0.671 5.310 -3.387 -104.932 -2129.962 -3944.980 0.165 0.133 -0.138 -0 0.47 -0.88 0.02
1 2.14 214 -0.484 -8.227 5.473 1.648 7.050 -3.937 -104.932 -2129.962 -3944.980 0.274 0.096 -0.006 -0 0.47 -0.88 0.02
1 2.15 215 -0.532 -8.126 5.449 0.336 6.439 -2.686 -284.964 -1859.988 -4169.983 0.321 -0.002 0.021 0 0.47 -0.88 0.02
1 2.16 216 -0.460 -7.983 5.512 -4.211 6.653 -0.549 -209.863 -2054.861 -3989.951 0.240 -0.146 -0.042 0 0.47 -0.88 0.02
1 2.17 217 -0.273 -8.160 5.368 -6.073 9.125 -0.946 -44.971 -2039.871 -4109.873 0.046 0.029 0.098 0 0.47 -0.88 0.02
1 2.18 218 -0.484 -8.198 5.392 -4.700 10.498 -2.869 -44.971 -2039.871 -4109.873 0.251 0.063 0.067 0 0.47 -0.88 0.02
1 2.19 219 -0.895 -8.241 5.205 -1.160 9.247 -5.341 -119.922 -1964.920 -4109.873 0.657 0.103 0.249 0 0.47 -0.88 0.02
1 2.20 220 -1.322 -8.026 4.932 0.580 6.073 -7.416 -269.974 -1919.949 -4004.941 1.080 -0.113 0.521 0 0.47 -0.88 0.02
1 2.21 221 -1.408 -7.853 4.975 -3.296 3.937 -6.012 -269.974 -1919.949 -4004.941 1.163 -0.286 0.478 0 0.47 -0.88 0.02
1 2.22 222 -1.235 -7.858 4.951 -8.850 2.808 -2.655 -29.980 -1904.959 -4169.983 0.988 -0.283 0.498 0 0.47 -0.88 0.02
1 2.23 223 -1.077 -8.030 4.980 -12.909 4.456 0.610 -164.893 -2039.871 -4004.941 0.824 -0.117 0.460 0 0.47 -0.88 0.02
1 2.24 224 -1.058 -8.275 4.923 -15.381 4.028 0.793 -119.922 -2069.852 -4109.873 0.784 0.104 0.481 0.01 0.47 -0.88 0.02
1 2.25 225 -1.116 -8.323 4.865 -16.510 2.838 -0.305 -119.922 -2069.852 -4109.873 0.833 0.137 0.517 0.01 0.47 -0.88 0.02
1 2.26 226 -1.235 -8.509 4.803 -17.212 0.305 -0.641 -254.984 -2009.891 -4244.935 0.945 0.309 0.555 0.01 0.48 -0.88 0.02
1 2.27 227 -1.269 -8.514 4.994 -16.510 -0.916 -2.472 -179.883 -1979.910 -4064.902 0.974 0.298 0.339 0.01 0.48 -0.88 0.02
1 2.28 228 -1.164 -8.667 4.755 -12.665 -1.678 -1.221 -179.883 -1979.910 -4064.902 0.865 0.437 0.556 0.01 0.48 -0.88 0.02
1 2.29 229 -1.183 -8.576 5.004 -9.308 -2.075 0.275 -254.984 -2054.861 -4064.902 0.881 0.333 0.288 0.01 0.48 -0.88 0.02
1 2.30 230 -1.049 -8.519 4.994 -5.646 -2.808 2.441 -179.883 -1979.910 -4094.882 0.742 0.266 0.282 0.01 0.48 -0.88 0.02
1 2.31 231 -0.843 -8.265 4.961 -5.798 -2.686 2.106 -104.932 -1904.959 -4064.902 0.525 0.002 0.299 0.01 0.48 -0.88 0.02
1 2.32 232 -0.833 -8.155 5.062 -7.507 -1.495 0.397 -104.932 -1904.959 -4064.902 0.512 -0.113 0.190 0.01 0.48 -0.88 0.02
1 2.33 233 -0.876 -8.327 4.865 -10.559 -2.045 -0.336 -179.883 -1829.858 -4094.882 0.553 0.053 0.376 0.01 0.48 -0.88 0.02
1 2.34 234 -0.891 -8.275 4.999 -14.221 -2.319 0.092 -224.854 -1889.969 -4049.912 0.566 -0.009 0.227 0.01 0.48 -0.88 0.02
1 2.35 235 -0.757 -8.495 4.971 -19.135 -2.625 2.258 -224.854 -1889.969 -4049.912 0.430 0.199 0.236 0.01 0.48 -0.87 0.02
1 2.36 236 -0.522 -8.605 5.038 -20.081 -0.519 3.571 -194.873 -1964.920 -3974.960 0.191 0.294 0.145 0.01 0.49 -0.87 0.02
1 2.37 237 -0.555 -8.754 5.052 -18.707 0.671 4.883 -269.974 -1799.877 -4154.993 0.220 0.427 0.105 0.01 0.49 -0.87 0.02
1 2.38 238 -0.326 -8.897 5.071 -16.693 4.639 7.782 -164.893 -1964.920 -4004.941 -0.027 0.542 0.038 0.01 0.49 -0.87 0.02
1 2.39 239 -0.259 -8.931 5.076 -16.052 7.050 10.437 -164.893 -1964.920 -4004.941 -0.108 0.562 0.011 0.01 0.49 -0.87 0.02
1 2.40 240 -0.330 -8.730 5.153 -16.327 9.094 11.139 -89.941 -1919.949 -4079.892 -0.054 0.349 -0.087 0.01 0.49 -0.87 0.02
1 2.41 241 -0.383 -8.773 5.062 -16.876 10.284 12.360 -179.883 -1934.939 -4019.931 -0.023 0.380 -0.018 0.01 0.49 -0.87 0.02
1 2.42 242 -0.326 -8.983 5.157 -15.961 10.864 14.954 -179.883 -1934.939 -4019.931 -0.104 0.578 -0.137 0.01 0.49 -0.87 0.02
1 2.43 243 -0.441 -9.065 5.157 -12.390 9.918 15.533 -119.922 -1844.998 -3974.960 -0.014 0.648 -0.159 0.01 0.49 -0.87 0.02
1 2.44 244 -0.306 -9.146 5.196 -8.270 8.789 15.625 -224.854 -1844.998 -3929.990 -0.174 0.720 -0.215 0.01 0.5 -0.87 0.03
1 2.45 245 -0.330 -8.912 5.162 -3.265 6.287 14.862 -224.854 -1844.998 -3929.990 -0.176 0.479 -0.194 0.01 0.5 -0.87 0.03
1 2.46 246 -0.187 -8.773 5.133 -1.007 4.181 12.573 -119.922 -1919.949 -3929.990 -0.359 0.339 -0.173 0.02 0.5 -0.87 0.03
1 2.47 247 -0.134 -8.706 5.076 -1.770 4.456 13.184 -104.932 -1859.988 -4019.931 -0.428 0.272 -0.116 0.02 0.5 -0.87 0.03
1 2.48 248 -0.105 -8.773 5.143 -5.005 4.486 13.672 0.000 -1784.887 -3989.951 -0.473 0.339 -0.186 0.02 0.5 -0.87 0.03
1 2.49 249 -0.043 -8.816 5.373 -9.064 5.737 15.625 0.000 -1784.887 -3989.951 -0.553 0.379 -0.423 0.02 0.5 -0.87 0.03
1 2.50 250 -0.163 -9.175 5.387 -11.627 6.012 15.778 -104.932 -1709.936 -4169.983 -0.453 0.733 -0.449 0.02 0.5 -0.87 0.03
1 2.51 251 -0.024 -9.280 5.306 -7.660 4.730 14.740 -44.971 -1769.897 -4004.941 -0.613 0.832 -0.381 0.02 0.5 -0.87 0.03
1 2.52 252 0.000 -9.534 5.090 -1.465 2.747 12.543 -44.971 -1769.897 -4004.941 -0.655 1.081 -0.176 0.02 0.5 -0.87 0.03
1 2.53 253 0.196 -9.199 5.105 13.153 -1.770 8.057 0.000 -1829.858 -4019.931 -0.878 0.750 -0.186 0.02 0.5 -0.87 0.03
1 2.54 254 0.603 -8.974 4.880 19.470 -4.456 5.432 89.941 -1919.949 -4049.912 -1.285 0.536 0.059 0.02 0.5 -0.87 0.03
1 2.55 255 0.713 -8.595 4.870 20.599 -5.890 0.702 -44.971 -1889.969 -3929.990 -1.387 0.173 0.094 0.02 0.5 -0.87 0.03
1 2.56 256 0.785 -8.390 4.745 16.907 -5.524 -3.113 -44.971 -1889.969 -3929.990 -1.443 -0.019 0.245 0.02 0.49 -0.87 0.03
1 2.57 257 1.034 -8.327 4.439 11.536 -3.876 -4.089 -209.863 -1904.959 -4019.931 -1.672 -0.070 0.572 0.02 0.49 -0.87 0.03
1 2.58 258 1.188 -8.418 4.362 3.113 0.244 -2.869 14.990 -1919.949 -3974.960 -1.806 0.027 0.661 0.02 0.49 -0.87 0.03
1 2.59 259 1.322 -8.548 4.224 1.495 3.540 -4.547 14.990 -1919.949 -3974.960 -1.922 0.157 0.803 0.02 0.49 -0.87 0.03
1 2.60 260 1.302 -8.787 4.228 -4.730 10.284 -10.742 -104.932 -1859.988 -3944.980 -1.866 0.390 0.792 0.02 0.49 -0.87 0.03
1 2.61 261 0.996 -9.050 4.358 -9.003 14.404 -12.726 -134.912 -1859.988 -3915.000 -1.539 0.644 0.650 0.02 0.49 -0.87 0.03
1 2.62 262 0.608 -9.371 4.506 -10.254 18.005 -12.177 -44.971 -1889.969 -4109.873 -1.134 0.953 0.484 0.02 0.5 -0.87 0.02
1 2.63 263 0.244 -9.726 4.425 -7.996 18.738 -9.949 -44.971 -1889.969 -4109.873 -0.759 1.295 0.546 0.02 0.5 -0.87 0.02
1 2.64 264 0.177 -9.663 4.540 6.317 15.839 -6.409 -89.941 -1919.949 -4154.993 -0.687 1.224 0.417 0.02 0.5 -0.87 0.02
1 2.65 265 0.215 -9.419 4.473 17.883 12.512 -3.418 -59.961 -1859.988 -3944.980 -0.726 0.981 0.485 0.02 0.5 -0.87 0.02
1 2.66 266 0.713 -8.998 4.319 26.184 9.522 -4.425 -59.961 -1859.988 -3944.980 -1.223 0.567 0.651 0.02 0.5 -0.87 0.02
1 2.67 267 0.915 -8.481 4.334 28.626 9.460 -7.599 89.941 -1844.998 -4004.941 -1.419 0.065 0.663 0.02 0.49 -0.87 0.02
1 2.68 268 1.183 -8.102 4.338 21.179 14.893 -9.430 -44.971 -1724.926 -4109.873 -1.662 -0.278 0.720 0.02 0.49 -0.87 0.01
1 2.69 269 0.800 -8.093 4.118 13.641 19.318 -9.979 14.990 -1844.998 -4004.941 -1.266 -0.275 0.962 0.02 0.49 -0.87 0.01
1 2.70 270 0.646 -8.208 4.061 6.928 22.461 -9.888 14.990 -1844.998 -4004.941 -1.105 -0.154 1.030 0.02 0.49 -0.87 0.01
1 2.71 271 0.215 -8.509 4.032 3.326 22.461 -9.308 164.893 -1889.969 -4049.912 -0.670 0.149 1.062 0.02 0.49 -0.87 0.01
1 2.72 272 -0.148 -8.825 4.085 3.479 18.066 -7.477 29.980 -2054.861 -4019.931 -0.305 0.464 1.007 0.02 0.49 -0.87 0.01
1 2.73 273 -0.110 -8.844 4.104 6.470 13.733 -7.263 29.980 -2054.861 -4019.931 -0.345 0.482 0.985 0.02 0.49 -0.87 0.01
1 2.74 274 -0.081 -8.873 4.171 9.735 12.024 -5.341 -29.980 -1904.959 -3944.980 -0.373 0.510 0.918 0.02 0.49 -0.87 0
1 2.75 275 0.153 -8.830 4.042 13.031 13.214 -2.014 119.922 -2114.972 -4079.892 -0.607 0.476 1.061 0.02 0.49 -0.87 0
1 2.76 276 0.306 -8.773 4.032 14.710 15.106 -1.251 44.971 -1994.900 -4049.912 -0.763 0.425 1.081 0.03 0.49 -0.87 0
1 2.77 277 0.302 -8.672 3.931 13.245 18.005 -0.366 44.971 -1994.900 -4049.912 -0.763 0.331 1.192 0.03 0.49 -0.87 0
1 2.78 278 0.244 -8.634 3.879 10.101 20.508 1.282 59.961 -1934.939 -3989.951 -0.714 0.298 1.253 0.03 0.49 -0.87 0
1 2.79 279 0.014 -8.768 4.027 7.202 21.607 2.594 179.883 -1979.910 -3989.951 -0.496 0.435 1.108 -0.03 -0.49 0.87 0
1 2.80 280 0.005 -8.797 4.113 5.981 21.545 2.502 179.883 -1979.910 -3989.951 -0.501 0.465 1.023 -0.03 -0.49 0.87 0
1 2.81 281 0.158 -8.888 4.156 6.439 21.088 1.770 14.990 -2114.972 -4049.912 -0.670 0.557 0.980 -0.03 -0.49 0.87 0
1 2.82 282 -0.086 -8.864 4.171 6.561 21.179 0.153 0.000 -2009.891 -3989.951 -0.453 0.536 0.966 -0.03 -0.49 0.87 0
1 2.83 283 -0.302 -8.878 4.080 7.446 20.294 -0.824 164.893 -2069.852 -4079.892 -0.249 0.551 1.058 -0.03 -0.49 0.87 0
1 2.84 284 -0.369 -8.763 4.099 7.660 19.013 -2.014 164.893 -2069.852 -4079.892 -0.193 0.438 1.040 -0.04 -0.49 0.87 0
1 2.85 285 -0.388 -8.888 4.252 8.484 17.120 -2.014 179.883 -2099.982 -4064.902 -0.184 0.564 0.889 -0.04 -0.49 0.87 0.01
1 2.86 286 -0.105 -8.969 4.118 8.484 15.198 -1.038 209.863 -2009.891 -3989.951 -0.475 0.649 1.027 -0.04 -0.49 0.87 0.01
1 2.87 287 0.034 -8.940 4.137 8.484 12.970 -0.641 209.863 -2009.891 -3989.951 -0.620 0.622 1.011 -0.04 -0.49 0.87 0.01
1 2.88 288 0.407 -8.902 4.295 8.667 12.939 -0.763 134.912 -2054.861 -3915.000 -0.999 0.586 0.856 -0.04 -0.49 0.87 0.01
1 2.89 289 0.374 -8.912 4.401 9.003 12.817 -0.336 134.912 -2054.861 -3915.000 -0.968 0.598 0.754 -0.04 -0.49 0.87 0.01
1 2.90 290 0.469 -8.897 4.377 7.507 18.921 -3.052 359.916 -2099.982 -3989.951 -1.068 0.589 0.787 -0.04 -0.48 0.87 0.01
1 2.91 291 0.134 -9.055 4.238 7.233 23.132 -3.143 359.916 -2099.982 -3989.951 -0.734 0.749 0.928 -0.04 -0.48 0.87 0.01
1 2.92 292 -0.148 -9.170 4.061 7.599 25.665 -1.190 344.925 -1919.949 -4079.892 -0.461 0.865 1.106 -0.04 -0.48 0.87 0.01
1 2.93 293 -0.417 -9.208 3.917 11.475 19.959 1.648 209.863 -2009.891 -4094.882 -0.207 0.906 1.251 -0.04 -0.48 0.87 0.01
1 2.94 294 0.148 -8.677 3.821 16.144 6.195 2.869 209.863 -2009.891 -4094.882 -0.787 0.379 1.353 -0.05 -0.48 0.87 0.01
1 2.95 295 0.699 -8.442 4.147 11.688 1.831 -2.716 269.974 -2069.852 -4109.873 -1.343 0.151 1.038 -0.05 -0.48 0.87 0.02
1 2.96 296 0.809 -8.337 4.932 3.845 5.890 -11.444 269.974 -2069.852 -4109.873 -1.447 0.051 0.262 -0.05 -0.48 0.87 0.02
1 2.97 297 -0.819 -8.232 6.599 -19.165 17.395 -29.694 254.984 -2099.982 -4019.931 0.227 -0.059 -1.407 -0.04 -0.48 0.87 0.02
1 2.98 298 -2.471 -8.926 6.848 -37.995 20.935 -43.793 254.984 -2099.982 -4019.931 1.908 0.618 -1.680 -0.04 -0.48 0.87 0.02
1 2.99 299 -3.247 -9.912 6.398 -44.342 9.125 -46.478 389.896 -2054.861 -4064.902 2.728 1.569 -1.283 -0.04 -0.49 0.87 0.03
1 3.00 300 -2.050 -10.793 5.440 -23.407 -10.071 -32.684 464.847 -2204.914 -4139.853 1.584 2.416 -0.376 -0.04 -0.49 0.87 0.03
1 3.01 301 0.541 -8.926 4.214 27.130 -40.589 -22.064 464.847 -2204.914 -4139.853 -0.955 0.535 0.833 -0.04 -0.49 0.87 0.03
1 3.02 302 1.719 -7.245 4.142 35.004 -50.385 -25.665 269.974 -1889.969 -3854.889 -2.075 -1.134 0.928 -0.04 -0.49 0.87 0.03
1 3.03 303 1.949 -6.474 4.736 6.805 -45.746 -33.875 269.974 -1889.969 -3854.889 -2.226 -1.881 0.378 -0.03 -0.49 0.87 0.03
1 3.04 304 1.978 -7.576 4.999 -60.242 -35.553 -45.014 194.873 -2114.972 -4049.912 -2.092 -0.790 0.104 -0.02 -0.49 0.87 0.03
1 3.05 305 1.887 -8.854 5.832 -93.598 -33.020 -51.422 194.873 -2114.972 -4049.912 -1.906 0.436 -0.815 -0.02 -0.49 0.87 0.03
1 3.06 306 1.772 -10.530 6.163 -117.432 -31.952 -48.767 134.912 -2099.982 -3944.980 -1.684 2.039 -1.271 -0.02 -0.5 0.87 0.04
1 3.07 307 2.193 -12.575 6.091 -122.071 -33.844 -30.914 59.961 -2054.861 -4139.853 -2.022 3.996 -1.357 -0.01 -0.51 0.86 0.04
1 3.08 308 3.658 -13.456 5.713 -61.310 -35.736 4.028 59.961 -2054.861 -4139.853 -3.429 4.795 -1.133 -0.01 -0.52 0.86 0.04
1 3.09 309 3.994 -11.885 5.775 -7.294 -26.123 5.066 44.971 -1799.877 -3929.990 -3.737 3.172 -1.297 -0.01 -0.52 0.85 0.03
1 3.10 310 3.615 -10.415 6.364 22.644 -8.514 -4.822 44.971 -1799.877 -3929.990 -3.347 1.689 -1.912 -0 -0.52 0.85 0.03
1 3.11 311 2.308 -9.548 6.575 18.951 14.679 -13.214 -44.971 -1619.995 -3974.960 -2.026 0.835 -2.099 -0 -0.52 0.85 0.03
1 3.12 312 -0.239 -9.079 6.062 -4.669 43.823 -13.489 -59.961 -1754.907 -3839.898 0.531 0.387 -1.545 -0 -0.52 0.85 0.04
1 3.13 313 -1.805 -8.979 5.263 -8.850 44.068 -6.256 -104.932 -1784.887 -3944.980 2.082 0.283 -0.751 -0.01 -0.52 0.85 0.04
1 3.14 314 -2.859 -8.576 4.836 -1.953 33.386 -4.303 44.971 -1694.946 -3854.889 3.102 -0.121 -0.327 -0.01 -0.52 0.85 0.04
1 3.15 315 -3.237 -7.944 4.803 9.827 19.501 -6.195 44.971 -1694.946 -3854.889 3.445 -0.751 -0.287 -0.01 -0.52 0.85 0.04
1 3.16 316 -3.199 -6.838 4.750 10.529 2.808 -2.808 -44.971 -1724.926 -3899.859 3.379 -1.847 -0.215 -0.01 -0.52 0.85 0.04
1 3.17 317 -3.026 -6.240 4.640 2.838 -6.744 -0.488 -44.971 -1724.926 -3899.859 3.183 -2.435 -0.083 -0.01 -0.52 0.85 0.04
1 3.18 318 -2.911 -6.110 4.506 -5.737 -16.876 -2.441 44.971 -1769.897 -3674.856 3.061 -2.558 0.063 -0.01 -0.52 0.86 0.04
1 3.19 319 -2.662 -6.053 4.750 -19.653 -27.863 -13.886 119.922 -1769.897 -3899.859 2.851 -2.626 -0.202 -0.01 -0.52 0.85 0.04
1 3.20 320 -2.639 -6.493 4.793 -32.959 -33.875 -21.759 59.961 -1589.864 -3944.980 2.870 -2.200 -0.275 -0.01 -0.52 0.85 0.04
1 3.21 321 -2.409 -7.379 5.023 -52.155 -38.910 -22.156 44.971 -1574.874 -3794.928 2.695 -1.338 -0.556 -0 -0.52 0.85 0.04
1 3.22 322 -1.872 -8.476 5.205 -64.453 -40.894 -16.754 44.971 -1574.874 -3794.928 2.194 -0.275 -0.806 -0 -0.52 0.85 0.04
1 3.23 323 -1.585 -9.946 5.162 -50.263 -38.178 -7.172 44.971 -1799.877 -3824.908 1.937 1.156 -0.843 0 -0.53 0.85 0.03
1 3.24 324 -1.283 -10.573 5.196 -26.337 -34.973 -1.404 44.971 -1799.877 -3824.908 1.665 1.749 -0.949 0 -0.53 0.85 0.03
1 3.25 325 -1.159 -10.506 5.138 -0.885 -33.020 8.057 -29.980 -1634.985 -3915.000 1.568 1.662 -0.937 0.01 -0.53 0.84 0.03
1 3.26 326 -0.900 -9.807 5.124 20.477 -32.135 25.757 -59.961 -1589.864 -3629.885 1.322 0.966 -0.916 0.01 -0.53 0.84 0.03
1 3.27 327 -0.694 -9.156 4.971 24.567 -31.738 31.281 -254.984 -1679.956 -3704.986 1.100 0.328 -0.734 0.01 -0.53 0.85 0.02
1 3.28 328 -0.431 -8.830 4.832 25.787 -30.029 31.159 -209.863 -1634.985 -3704.986 0.807 0.019 -0.558 0.01 -0.53 0.85 0.02
1 3.29 329 -0.407 -8.332 4.640 27.344 -26.062 31.708 -209.863 -1634.985 -3704.986 0.755 -0.462 -0.329 0.01 -0.53 0.85 0.02
1 3.30 330 -0.508 -8.074 4.621 26.337 -22.797 33.844 -194.873 -1544.894 -3719.977 0.825 -0.702 -0.270 0.01 -0.53 0.85 0.01
1 3.31 331 -0.589 -7.532 4.506 15.503 -17.304 38.727 -194.873 -1544.894 -3719.977 0.868 -1.226 -0.118 0.01 -0.53 0.85 0.01
1 3.32 332 -0.891 -7.418 4.496 2.747 -16.602 37.048 -134.912 -1589.864 -3809.918 1.126 -1.327 -0.079 0.01 -0.52 0.85 0
1 3.33 333 -0.824 -7.580 4.525 -10.284 -18.616 32.654 -164.893 -1769.897 -3794.928 1.021 -1.161 -0.099 0.01 -0.52 0.85 0
1 3.34 334 -0.886 -8.117 4.496 -18.036 -23.621 25.696 -209.863 -1709.936 -3809.918 1.018 -0.639 -0.096 -0.01 0.52 -0.85 0
1 3.35 335 -0.666 -8.639 4.511 -16.327 -25.757 21.912 -284.964 -1679.956 -3839.898 0.774 -0.127 -0.131 -0.01 0.53 -0.85 0.01
1 3.36 336 -0.412 -8.974 4.683 -9.338 -25.665 17.242 -284.964 -1679.956 -3839.898 0.505 0.199 -0.320 -0.01 0.53 -0.85 0.01
1 3.37 337 -0.244 -8.998 4.650 0.458 -20.538 15.656 -284.964 -1679.956 -3809.918 0.327 0.219 -0.294 -0.01 0.53 -0.85 0.01
1 3.38 338 -0.302 -8.988 4.554 16.449 -11.475 13.977 -284.964 -1679.956 -3809.918 0.375 0.213 -0.191 -0.01 0.53 -0.85 0.01
1 3.39 339 -0.656 -8.811 4.228 23.743 -9.644 13.825 -284.964 -1754.907 -3734.967 0.717 0.046 0.155 -0.01 0.53 -0.85 0.02
1 3.40 340 -0.929 -8.385 3.812 27.496 -11.902 12.482 -179.883 -1589.864 -3764.947 0.975 -0.365 0.602 -0.01 0.52 -0.85 0.02
1 3.41 341 -0.986 -8.174 3.797 24.475 -22.797 6.775 -284.964 -1679.956 -3839.898 1.009 -0.539 0.688 -0.01 0.52 -0.85 0.02
1 3.42 342 -0.943 -8.208 3.994 19.104 -27.466 2.380 -434.867 -1634.985 -3734.967 0.969 -0.491 0.520 -0.01 0.52 -0.85 0.02
1 3.43 343 -0.651 -8.452 4.137 13.825 -28.412 1.160 -434.867 -1634.985 -3734.967 0.687 -0.235 0.399 -0.02 0.52 -0.85 0.02
1 3.44 344 -0.350 -8.634 4.128 11.719 -24.902 3.723 -119.922 -1499.923 -3824.908 0.398 -0.044 0.426 -0.02 0.52 -0.86 0.02
1 3.45 345 -0.345 -8.648 4.209 14.038 -20.599 6.073 -119.922 -1499.923 -3824.908 0.400 -0.021 0.360 -0.02 0.52 -0.86 0.03
1 3.46 346 -0.613 -8.485 4.070 20.935 -15.656 8.423 -284.964 -1709.936 -3884.869 0.670 -0.174 0.518 -0.02 0.52 -0.86 0.03
1 3.47 347 -0.709 -8.323 3.860 23.193 -15.381 8.026 -359.916 -1709.936 -3734.967 0.763 -0.324 0.753 -0.02 0.51 -0.86 0.03
1 3.48 348 -0.996 -8.188 3.769 21.362 -18.341 7.172 -359.916 -1784.887 -3839.898 1.042 -0.428 0.900 -0.02 0.51 -0.86 0.03
1 3.49 349 -0.900 -8.121 3.802 17.944 -22.095 6.775 -299.955 -1844.998 -3719.977 0.944 -0.482 0.891 -0.02 0.51 -0.86 0.03
1 3.50 350 -0.876 -8.303 3.840 13.733 -25.024 5.737 -299.955 -1844.998 -3719.977 0.921 -0.289 0.872 -0.02 0.51 -0.86 0.03
1 3.51 351 -0.824 -8.418 4.147 9.674 -25.848 5.280 -389.896 -1934.939 -3839.898 0.873 -0.167 0.579 -0.02 0.51 -0.86 0.04
1 3.52 352 -0.900 -8.428 4.305 7.721 -25.482 6.561 -389.896 -1934.939 -3839.898 0.955 -0.151 0.432 -0.02 0.51 -0.86 0.04
1 3.53 353 -0.852 -8.639 4.252 8.362 -24.201 7.416 -374.906 -1769.897 -3749.957 0.911 0.065 0.494 -0.03 0.51 -0.86 0.04
1 3.54 354 -0.804 -8.552 3.917 8.789 -24.414 8.240 -344.925 -1724.926 -3899.859 0.865 -0.016 0.838 -0.03 0.51 -0.86 0.04
1 3.55 355 -0.843 -8.552 4.070 9.674 -27.283 8.698 -344.925 -1724.926 -3899.859 0.904 -0.012 0.693 -0.03 0.51 -0.86 0.04
1 3.56 356 -0.450 -8.414 4.353 9.796 -31.464 8.698 -449.857 -1919.949 -4079.892 0.518 -0.139 0.432 -0.03 0.5 -0.86 0.04
1 3.57 357 0.110 -8.528 4.377 9.857 -31.799 6.042 -449.857 -1919.949 -4079.892 -0.033 -0.018 0.419 -0.03 0.5 -0.86 0.05
1 3.58 358 0.455 -8.476 4.587 11.078 -31.403 3.113 -524.958 -1769.897 -3899.859 -0.361 -0.064 0.220 -0.03 0.5 -0.86 0.05
1 3.59 359 0.599 -8.399 4.310 12.939 -28.412 2.716 -524.958 -1769.897 -3899.859 -0.483 -0.132 0.511 -0.04 0.5 -0.86 0.05
1 3.60 360 0.642 -8.361 4.468 8.698 -21.301 0.275 -494.978 -1964.920 -3794.928 -0.505 -0.162 0.368 -0.04 0.5 -0.86 0.05
1 3.61 361 0.541 -8.481 4.506 2.045 -15.533 -1.678 -584.919 -1979.910 -3734.967 -0.383 -0.035 0.341 -0.04 0.5 -0.86 0.05
1 3.62 362 0.316 -8.921 4.520 -1.160 -10.712 -3.662 -584.919 -1979.910 -3734.967 -0.140 0.408 0.331 -0.04 0.5 -0.86 0.05
1 3.63 363 -0.316 -9.184 4.362 -0.763 -6.928 -6.104 -749.961 -1964.920 -3854.889 0.522 0.669 0.483 -0.04 0.5 -0.86 0.05
1 3.64 364 -0.939 -9.520 4.224 1.129 -6.134 -5.676 -749.961 -1964.920 -3854.889 1.154 1.002 0.618 -0.04 0.5 -0.86 0.05
1 3.65 365 -1.350 -9.429 4.099 4.517 -7.782 -5.005 -690.000 -1859.988 -3809.918 1.571 0.909 0.740 -0.04 0.5 -0.86 0.05
1 3.66 366 -1.714 -9.419 4.022 3.601 -11.444 -4.089 -690.000 -1859.988 -3809.918 1.936 0.900 0.816 -0.04 0.5 -0.86 0.05
1 3.67 367 -1.911 -9.400 4.607 -3.906 -17.548 -0.031 -509.968 -1934.939 -3764.947 2.133 0.879 0.229 -0.04 0.5 -0.86 0.05
1 3.68 368 -0.924 -10.003 5.909 -14.191 -20.294 7.660 -659.870 -1904.959 -3915.000 1.145 1.477 -1.083 -0.04 0.5 -0.86 0.05
1 3.69 369 1.480 -10.961 7.068 -47.730 -22.980 27.435 -659.870 -1904.959 -3915.000 -1.258 2.426 -2.258 -0.05 0.5 -0.86 0.05
1 3.70 370 3.658 -12.244 8.035 -75.501 3.448 58.808 -584.919 -1934.939 -3884.869 -3.499 3.626 -3.373 -0.05 0.51 -0.86 0.06
1 3.71 371 1.872 -12.671 5.234 -16.724 30.487 45.014 -584.919 -1934.939 -3884.869 -1.796 4.007 -0.655 -0.04 0.51 -0.85 0.06
1 3.72 372 -0.915 -10.578 4.300 46.723 44.830 30.304 -434.867 -1859.988 -3734.967 0.914 1.915 0.282 -0.04 0.51 -0.85 0.06
1 3.73 373 -1.915 -8.112 4.185 54.474 39.429 30.884 -434.867 -1859.988 -3734.967 1.844 -0.512 0.468 -0.03 0.51 -0.86 0.06
1 3.74 374 -1.705 -6.800 4.851 -0.946 29.602 29.297 -629.890 -1769.897 -3794.928 1.555 -1.794 -0.143 -0.03 0.51 -0.86 0.07
1 3.75 375 -0.177 -7.825 6.733 -113.800 22.797 42.938 -704.991 -1799.877 -3749.957 -0.032 -0.783 -2.052 -0.03 0.51 -0.86 0.07
1 3.76 376 0.445 -9.299 6.891 -144.013 32.562 41.596 -704.991 -1799.877 -3749.957 -0.729 0.632 -2.326 -0.02 0.52 -0.85 0.07
1 3.77 377 -0.321 -10.980 6.699 -118.317 53.742 22.034 -659.870 -1829.858 -3764.947 -0.039 2.223 -2.314 -0.02 0.53 -0.85 0.07
1 3.78 378 -2.485 -11.296 5.909 -15.472 53.101 16.388 -464.997 -1754.907 -3734.967 2.000 2.414 -1.796 -0.01 0.54 -0.84 0.07
1 3.79 379 -2.993 -9.424 5.167 40.039 19.928 23.254 -464.997 -1559.884 -3734.967 2.454 0.544 -1.056 -0.01 0.54 -0.84 0.07
1 3.80 380 -2.011 -7.116 4.693 57.953 -19.989 19.409 -464.997 -1559.884 -3734.967 1.436 -1.731 -0.517 -0.01 0.54 -0.84 0.07
1 3.81 381 0.172 -5.756 4.688 34.027 -44.678 14.648 -524.958 -1574.874 -3599.905 -0.761 -3.052 -0.432 -0.01 0.53 -0.84 0.07
1 3.82 382 3.620 -6.096 5.756 -46.875 -26.764 17.731 -179.883 -1559.884 -3734.967 -4.198 -2.696 -1.465 -0.01 0.53 -0.84 0.07
1 3.83 383 4.745 -7.695 6.642 -92.713 11.536 26.611 -179.883 -1559.884 -3734.967 -5.322 -1.116 -2.390 -0.01 0.53 -0.84 0.07
1 3.84 384 3.912 -10.348 5.919 -92.957 60.089 32.410 -374.906 -1724.926 -3719.977 -4.555 1.431 -1.905 -0.01 0.54 -0.84 0.07
1 3.85 385 3.108 -10.760 5.531 -71.320 67.322 25.818 -374.906 -1724.926 -3719.977 -3.828 1.796 -1.635 -0 0.55 -0.83 0.07
1 3.86 386 0.043 -10.434 4.947 15.198 61.615 -16.235 -344.925 -1469.942 -3749.957 -0.813 1.456 -1.096 0 0.55 -0.83 0.07
1 3.87 387 -1.283 -9.936 4.956 48.767 42.786 -39.917 -344.925 -1469.942 -3749.957 0.512 0.970 -1.076 0 0.55 -0.83 0.07
1 3.88 388 -1.844 -9.132 4.956 53.650 27.435 -44.312 -254.984 -1589.864 -3554.934 1.109 0.192 -1.009 0 0.55 -0.84 0.06
1 3.89 389 -1.671 -8.294 4.803 48.401 20.020 -34.607 -359.916 -1484.933 -3659.866 0.976 -0.616 -0.783 0 0.54 -0.84 0.06
1 3.90 390 -0.934 -7.298 4.204 36.286 23.010 -16.602 -359.916 -1484.933 -3659.866 0.262 -1.583 -0.115 0.01 0.54 -0.84 0.06
1 3.91 391 -0.819 -6.714 3.998 21.393 21.362 -10.834 -224.854 -1544.894 -3644.875 0.155 -2.141 0.149 0.01 0.54 -0.84 0.05
1 3.92 392 -0.105 -7.015 4.401 -7.996 8.545 -9.522 -299.955 -1619.995 -3644.875 -0.553 -1.820 -0.212 0.01 0.53 -0.84 0.05
1 3.93 393 0.512 -7.532 4.741 -21.179 0.732 -13.367 -374.906 -1499.923 -3644.875 -1.160 -1.311 -0.567 0.01 0.54 -0.84 0.05
1 3.94 394 1.259 -8.265 4.908 -24.445 -0.031 -17.090 -374.906 -1499.923 -3644.875 -1.883 -0.592 -0.761 0.01 0.54 -0.84 0.05
1 3.95 395 1.575 -8.758 5.172 -16.419 6.928 -17.914 -164.893 -1544.894 -3749.957 -2.163 -0.112 -1.047 0.01 0.54 -0.84 0.05
1 3.96 396 1.231 -8.921 4.971 9.338 22.827 -12.360 -329.935 -1634.985 -3734.967 -1.784 0.044 -0.856 0.01 0.54 -0.84 0.04
1 3.97 397 0.742 -8.548 4.717 23.102 29.175 -7.935 -329.935 -1634.985 -3734.967 -1.274 -0.325 -0.590 0.01 0.54 -0.84 0.04
1 3.98 398 0.254 -8.050 4.511 27.863 28.839 -7.599 -224.854 -1649.975 -3599.905 -0.778 -0.809 -0.353 0.01 0.54 -0.84 0.04
1 3.99 399 -0.077 -7.757 4.358 25.024 24.292 -8.453 -284.964 -1559.884 -3584.915 -0.447 -1.082 -0.159 0.01 0.53 -0.84 0.04
1 4.00 400 0.278 -7.576 4.109 14.313 18.738 -7.965 -344.925 -1574.874 -3569.924 -0.801 -1.232 0.157 0.01 0.53 -0.85 0.04
1 4.01 401 0.776 -7.777 4.061 6.805 20.538 -6.622 -344.925 -1574.874 -3569.924 -1.300 -1.023 0.221 0.01 0.53 -0.85 0.03
1 4.02 402 1.159 -7.954 4.137 -1.007 27.039 -6.866 -374.906 -1619.995 -3644.875 -1.688 -0.842 0.150 0.01 0.53 -0.85 0.03
1 4.03 403 0.862 -8.241 4.190 -6.470 35.492 -6.775 -419.876 -1499.923 -3749.957 -1.389 -0.557 0.095 0.01 0.53 -0.85 0.03
1 4.04 404 -0.215 -8.859 4.118 -4.791 39.887 -4.334 -419.876 -1499.923 -3749.957 -0.315 0.056 0.157 0.01 0.53 -0.85 0.03
1 4.05 405 -0.804 -9.046 3.788 4.059 33.630 -2.319 -254.984 -1679.956 -3629.885 0.262 0.239 0.477 0.02 0.53 -0.85 0.03
1 4.06 406 -0.891 -8.907 3.635 14.496 23.438 -0.153 -224.854 -1619.995 -3644.875 0.331 0.100 0.628 0.02 0.53 -0.85 0.03
1 4.07 407 -0.364 -8.749 3.726 19.867 15.137 2.533 -194.873 -1694.946 -3599.905 -0.227 -0.040 0.570 0.02 0.53 -0.85 0.02
1 4.08 408 0.086 -8.576 3.764 14.160 16.083 5.127 -194.873 -1694.946 -3599.905 -0.689 -0.201 0.553 0.02 0.53 -0.85 0.02
1 4.09 409 -0.010 -8.476 3.745 8.270 19.623 8.820 -179.883 -1679.956 -3809.918 -0.607 -0.294 0.586 0.02 0.53 -0.85 0.02
1 4.10 410 -0.206 -8.706 3.668 6.928 21.668 13.886 -89.941 -1769.897 -3674.856 -0.432 -0.059 0.670 0.02 0.53 -0.85 0.02
1 4.11 411 -0.369 -8.734 3.567 12.390 17.761 18.250 -89.941 -1769.897 -3674.856 -0.300 -0.025 0.775 0.03 0.53 -0.85 0.02
1 4.12 412 -0.115 -8.686 3.797 17.090 12.451 18.311 -59.961 -1754.907 -3584.915 -0.587 -0.066 0.555 0.03 0.53 -0.85 0.02
1 4.13 413 0.354 -8.691 3.927 20.569 8.759 16.724 -119.922 -1724.926 -3644.875 -1.086 -0.050 0.442 0.03 0.53 -0.85 0.02
1 4.14 414 0.785 -8.907 4.094 21.179 12.756 12.512 -89.941 -1619.995 -3539.944 -1.557 0.193 0.324 0.03 0.52 -0.85 0.02
1 4.15 415 0.546 -8.998 4.439 22.980 17.975 7.965 -89.941 -1619.995 -3539.944 -1.330 0.299 0.005 0.03 0.52 -0.85 0.02
1 4.16 416 0.196 -9.151 4.324 26.093 22.522 5.951 -209.863 -1829.858 -3629.885 -0.993 0.468 0.149 0.03 0.52 -0.85 0.02
1 4.17 417 -0.426 -9.017 4.224 28.717 22.064 5.524 -14.990 -1919.949 -3749.957 -0.385 0.352 0.282 0.03 0.52 -0.85 0.02
1 4.18 418 -0.642 -8.591 4.133 28.961 15.900 3.723 -14.990 -1919.949 -3749.957 -0.186 -0.055 0.407 0.04 0.52 -0.86 0.02
1 4.19 419 -0.335 -7.858 4.075 19.775 5.829 -1.862 -14.990 -1799.877 -3599.905 -0.503 -0.769 0.498 0.04 0.52 -0.86 0.02
1 4.20 420 -0.067 -7.853 4.042 7.446 3.723 -4.059 0.000 -1709.936 -3734.967 -0.773 -0.758 0.560 0.04 0.51 -0.86 0.02
1 4.21 421 0.335 -8.155 4.018 -5.005 6.439 -3.235 0.000 -1709.936 -3734.967 -1.169 -0.450 0.598 0.04 0.51 -0.86 0.02
1 4.22 422 0.766 -8.811 4.276 -13.214 12.573 -3.235 29.980 -1754.907 -3509.963 -1.585 0.195 0.321 0.04 0.51 -0.86 0.02
1 4.23 423 0.771 -9.237 4.295 -11.444 15.350 -3.571 -29.980 -1859.988 -3659.866 -1.582 0.610 0.282 0.04 0.51 -0.86 0.02
1 4.24 424 0.895 -9.592 4.257 -5.005 15.381 -3.326 -14.990 -1994.900 -3674.856 -1.700 0.954 0.303 0.04 0.52 -0.86 0.02
1 4.25 425 0.776 -9.611 4.247 5.157 14.252 -3.845 -14.990 -1994.900 -3674.856 -1.573 0.969 0.304 0.04 0.52 -0.86 0.02
1 4.26 426 -0.374 -8.356 5.679 4.944 11.017 -23.224 29.980 -1859.988 -3629.885 -0.413 -0.285 -1.123 0.04 0.52 -0.86 0.01
1 4.27 427 -2.413 -7.619 5.890 -27.741 12.024 -58.075 134.912 -1859.988 -3629.885 1.653 -1.019 -1.323 0.04 0.52 -0.86 0.01
1 4.28 428 -3.692 -7.916 6.527 -72.998 -7.965 -82.703 134.912 -1859.988 -3629.885 2.987 -0.735 -1.975 0.04 0.52 -0.86 0.01
1 4.29 429 -0.737 -12.422 4.338 -81.238 -28.900 -74.402 -29.980 -1829.858 -3704.986 0.248 3.664 0.032 0.03 0.53 -0.85 0
1 4.30 430 0.541 -13.164 5.119 -45.654 -41.687 -40.039 0.000 -1754.907 -3479.983 -0.919 4.353 -0.845 -0.02 -0.53 0.85 0
1 4.31 431 0.895 -12.201 6.244 -5.829 -40.039 -27.863 -29.980 -1754.907 -3554.934 -1.198 3.367 -2.013 -0.02 -0.53 0.85 0
1 4.32 432 0.551 -10.607 6.757 -13.367 -40.863 -44.403 -29.980 -1754.907 -3554.934 -0.784 1.769 -2.529 -0.02 -0.53 0.85 0
1 4.33 433 0.575 -10.137 6.967 -47.882 -47.211 -48.676 -89.941 -1619.995 -3644.875 -0.715 1.285 -2.766 -0.01 -0.53 0.85 0
1 4.34 434 1.690 -12.422 6.517 -72.815 -43.396 -17.761 -224.854 -1724.926 -3599.905 -1.738 3.533 -2.390 -0.01 -0.54 0.84 0.01
1 4.35 435 2.734 -12.671 6.690 -45.868 -39.673 12.787 -224.854 -1724.926 -3599.905 -2.719 3.738 -2.660 -0 -0.54 0.84 0
1 4.36 436 4.664 -10.497 6.728 32.318 -14.648 22.034 -449.857 -1619.995 -3599.905 -4.640 1.526 -2.782 -0 0.55 -0.84 0
1 4.37 437 4.587 -8.591 6.465 65.644 16.968 13.641 -254.984 -1589.864 -3554.934 -4.586 -0.353 -2.459 -0 0.54 -0.84 0
1 4.38 438 3.304 -6.714 6.158 69.672 47.241 2.594 -374.906 -1649.975 -3569.924 -3.333 -2.187 -2.057 -0 0.54 -0.84 0
1 4.39 439 1.039 -5.627 5.694 52.674 68.451 -12.817 -374.906 -1649.975 -3569.924 -1.071 -3.223 -1.484 0 0.53 -0.85 0
1 4.40 440 -3.299 -4.741 4.367 14.557 75.592 -39.887 -434.867 -1679.956 -3554.934 3.244 -4.078 -0.093 -0.01 -0.53 0.85 0
1 4.41 441 -6.101 -4.875 3.572 -19.959 47.791 -61.127 -179.883 -1634.985 -3449.853 6.043 -3.929 0.732 -0.01 -0.53 0.85 0.01
1 4.42 442 -7.422 -5.545 2.849 -51.972 3.510 -79.468 -179.883 -1634.985 -3449.853 7.403 -3.266 1.441 -0.01 -0.53 0.85 0.01
1 4.43 443 -6.987 -7.106 2.911 -68.115 -39.185 -82.184 0.000 -1679.956 -3584.915 7.034 -1.732 1.322 -0.01 -0.53 0.85 0.02
1 4.44 444 -4.554 -9.189 3.931 -65.308 -77.271 -42.450 -89.941 -1799.877 -3464.993 4.758 0.267 0.116 -0 -0.54 0.84 0.02
1 4.45 445 -2.485 -10.003 4.846 -53.284 -79.743 -4.211 -224.854 -1619.995 -3539.944 2.761 1.043 -0.886 0 -0.55 0.84 0.02
1 4.46 446 -0.599 -10.860 5.464 -32.745 -67.505 21.881 -224.854 -1619.995 -3539.944 0.918 1.871 -1.573 0.01 -0.55 0.84 0.02
1 4.47 447 0.742 -10.947 5.646 -4.547 -54.169 35.309 -284.964 -1439.962 -3449.853 -0.420 1.941 -1.793 0.01 -0.55 0.83 0.01
1 4.48 448 1.772 -9.879 5.598 32.532 -37.445 29.022 -524.958 -1424.972 -3494.973 -1.468 0.874 -1.743 0.01 -0.55 0.83 0.01
1 4.49 449 1.805 -8.744 4.846 48.126 -26.154 18.829 -524.958 -1424.972 -3494.973 -1.521 -0.246 -0.954 0.02 -0.55 0.84 0
1 4.50 450 1.441 -7.633 4.195 47.516 -13.580 12.512 -284.964 -1439.962 -3449.853 -1.167 -1.330 -0.241 -0.02 0.55 -0.84 0
1 4.51 451 -0.311 -6.776 4.032 14.038 1.282 7.294 -419.876 -1499.923 -3494.973 0.585 -2.131 0.046 -0.02 0.54 -0.84 0
1 4.52 452 -1.781 -7.288 4.257 -17.700 -0.305 2.258 -614.899 -1514.913 -3509.963 2.047 -1.615 -0.170 -0.02 0.54 -0.84 0
1 4.53 453 -2.758 -8.581 4.621 -38.727 -14.160 0.244 -614.899 -1514.913 -3509.963 3.024 -0.337 -0.566 -0.02 0.54 -0.84 0.01
1 4.54 454 -2.591 -10.181 4.927 -30.945 -31.433 2.258 -299.955 -1619.995 -3464.993 2.847 1.241 -0.920 -0.02 0.54 -0.84 0.01
1 4.55 455 -0.800 -10.736 5.090 31.555 -35.156 18.982 -344.925 -1694.946 -3539.944 1.072 1.783 -1.114 -0.02 0.54 -0.84 0.01
1 4.56 456 0.067 -9.333 4.875 71.442 -20.874 32.166 -344.925 -1694.946 -3539.944 0.207 0.392 -0.872 -0.02 0.54 -0.84 0.01
1 4.57 457 0.283 -7.427 4.329 78.583 -3.540 39.002 -419.876 -1649.975 -3464.993 -0.031 -1.476 -0.240 -0.02 0.54 -0.84 0.01
1 4.58 458 -0.374 -5.469 3.998 24.963 8.728 33.356 -449.857 -1619.995 -3569.924 0.525 -3.345 0.284 -0.02 0.53 -0.85 0.02
1 4.59 459 -0.943 -6.034 3.975 -25.269 3.662 23.529 -494.978 -1544.894 -3539.944 1.048 -2.772 0.326 -0.02 0.53 -0.85 0.02
1 4.60 460 -1.130 -7.508 3.941 -55.054 -6.622 13.306 -494.978 -1544.894 -3539.944 1.206 -1.320 0.313 -0.02 0.53 -0.85 0.02
1 4.61 461 -1.192 -9.194 3.970 -49.500 -15.472 3.448 -464.997 -1634.985 -3584.915 1.261 0.331 0.210 -0.02 0.54 -0.84 0.02
1 4.62 462 -1.044 -10.099 4.219 -17.883 -23.102 -4.608 -389.896 -1634.985 -3509.963 1.114 1.208 -0.097 -0.02 0.54 -0.84 0.03
1 4.63 463 -0.723 -9.999 4.645 33.508 -26.611 -4.059 -389.896 -1634.985 -3509.963 0.811 1.103 -0.534 -0.02 0.54 -0.84 0.03
1 4.64 464 -0.613 -9.184 4.482 48.126 -24.445 -0.214 -374.906 -1769.897 -3419.872 0.725 0.306 -0.334 -0.02 0.54 -0.84 0.03
1 4.65 465 -0.522 -8.576 4.348 45.990 -20.386 2.777 -374.906 -1769.897 -3419.872 0.654 -0.272 -0.137 -0.03 0.53 -0.84 0.03
1 4.66 466 -0.474 -7.887 4.046 32.959 -13.977 4.700 -494.978 -1619.995 -3539.944 0.614 -0.902 0.286 -0.03 0.53 -0.85 0.03
1 4.67 467 -0.637 -7.963 3.903 22.858 -12.390 4.456 -494.978 -1619.995 -3539.944 0.775 -0.805 0.472 -0.03 0.53 -0.85 0.03
1 4.68 468 -0.790 -8.011 3.955 15.442 -12.421 3.387 -569.929 -1649.975 -3464.993 0.927 -0.743 0.448 -0.03 0.52 -0.85 0.03
1 4.69 469 -0.881 -8.059 4.056 10.742 -12.177 0.977 -374.906 -1799.877 -3494.973 1.017 -0.685 0.367 -0.03 0.52 -0.85 0.03
1 4.70 470 -1.173 -8.184 4.176 9.399 -11.536 -0.977 -374.906 -1799.877 -3494.973 1.310 -0.553 0.261 -0.03 0.52 -0.85 0.04
1 4.71 471 -1.542 -8.323 4.123 10.162 -13.794 -1.740 -584.919 -1829.858 -3374.901 1.680 -0.407 0.328 -0.03 0.52 -0.85 0.04
1 4.72 472 -1.513 -8.509 4.085 11.688 -20.691 -2.258 -704.991 -1694.946 -3539.944 1.655 -0.206 0.395 -0.03 0.52 -0.85 0.04
1 4.73 473 -1.480 -8.672 4.085 11.749 -23.651 -1.434 -584.919 -1679.956 -3584.915 1.626 -0.035 0.410 -0.03 0.52 -0.85 0.04
1 4.74 474 -0.943 -8.811 4.487 12.939 -27.588 1.129 -584.919 -1679.956 -3584.915 1.098 0.112 0.023 -0.03 0.52 -0.85 0.04
1 4.75 475 -0.589 -8.907 4.707 13.489 -26.489 2.106 -704.991 -1769.897 -3539.944 0.752 0.217 -0.180 -0.04 0.52 -0.85 0.04
1 4.76 476 -0.646 -9.146 4.607 16.510 -23.224 2.960 -629.890 -1889.969 -3464.993 0.819 0.467 -0.059 -0.04 0.52 -0.85 0.04
1 4.77 477 -0.685 -9.271 4.492 22.339 -22.553 3.296 -629.890 -1889.969 -3464.993 0.865 0.604 0.080 -0.04 0.52 -0.86 0.05
1 4.78 478 -0.699 -8.916 4.492 24.963 -26.428 5.249 -674.860 -1844.998 -3389.892 0.885 0.264 0.107 -0.04 0.51 -0.86 0.05
1 4.79 479 -0.311 -8.610 4.338 25.269 -31.342 4.944 -674.860 -1844.998 -3389.892 0.502 -0.027 0.289 -0.04 0.51 -0.86 0.05
1 4.80 480 0.493 -8.495 4.396 19.623 -34.363 -0.610 -629.890 -1769.897 -3674.856 -0.274 -0.108 0.292 -0.04 0.51 -0.86 0.05
1 4.81 481 0.589 -8.543 4.544 17.273 -30.792 -2.380 -629.890 -1769.897 -3674.856 -0.342 -0.047 0.166 -0.05 0.51 -0.86 0.05
1 4.82 482 0.354 -8.811 4.683 15.991 -23.193 -3.174 -734.971 -1754.907 -3479.983 -0.079 0.233 0.049 -0.05 0.51 -0.86 0.06
1 4.83 483 0.005 -8.969 4.286 12.451 -15.686 -1.648 -674.860 -1844.998 -3539.944 0.292 0.403 0.465 -0.05 0.51 -0.86 0.06
1 4.84 484 -1.044 -8.859 4.161 7.904 -11.536 4.272 -674.860 -1844.998 -3539.944 1.352 0.300 0.602 -0.05 0.5 -0.86 0.06
1 4.85 485 -1.125 -8.619 3.927 2.960 -13.702 4.364 -779.942 -1799.877 -3359.911 1.432 0.065 0.845 -0.05 0.5 -0.86 0.06
1 4.86 486 -1.125 -9.055 3.898 -0.244 -16.754 4.700 -779.942 -1799.877 -3359.911 1.426 0.501 0.875 -0.05 0.5 -0.86 0.06
1 4.87 487 -1.073 -9.117 4.075 -0.397 -17.639 5.707 -779.942 -1799.877 -3569.924 1.369 0.561 0.693 -0.05 0.5 -0.86 0.06
1 4.88 488 0.268 -9.237 5.670 -16.510 -16.968 18.555 -704.991 -1844.998 -3599.905 0.013 0.671 -0.917 -0.05 0.5 -0.86 0.06
1 4.89 489 2.830 -9.898 6.977 -60.730 -15.656 41.474 -794.932 -2009.891 -3629.885 -2.570 1.313 -2.258 -0.05 0.51 -0.86 0.07
1 4.90 490 4.204 -10.841 8.016 -93.354 3.479 63.751 -929.994 -1769.897 -3749.957 -3.998 2.204 -3.392 -0.05 0.51 -0.86 0.07
1 4.91 491 2.729 -12.058 5.378 -59.601 32.440 58.808 -929.994 -1769.897 -3749.957 -2.615 3.357 -0.870 -0.05 0.52 -0.85 0.07
1 4.92 492 -0.369 -10.319 4.089 25.360 42.633 32.013 -734.971 -1754.907 -3584.915 0.387 1.589 0.362 -0.05 0.52 -0.85 0.07
1 4.93 493 -0.369 -8.787 5.282 13.733 35.614 34.699 -734.971 -1754.907 -3584.915 0.311 0.067 -0.809 -0.04 0.52 -0.85 0.07
1 4.94 494 0.512 -7.939 6.364 -47.547 30.640 44.403 -854.893 -1694.946 -3494.973 -0.642 -0.765 -1.864 -0.04 0.52 -0.85 0.08
1 4.95 495 0.699 -9.065 6.441 -110.901 41.260 41.748 -614.899 -1754.907 -3479.983 -0.982 0.293 -2.081 -0.03 0.53 -0.85 0.08
1 4.96 496 -0.455 -9.841 6.034 -92.835 57.953 26.032 -614.899 -1754.907 -3479.983 0.092 0.999 -1.822 -0.03 0.53 -0.84 0.08
1 4.97 497 -2.145 -10.315 6.192 -54.505 67.017 15.106 -659.870 -1754.907 -3509.963 1.713 1.422 -2.096 -0.02 0.54 -0.84 0.08
1 4.98 498 -3.266 -10.401 6.129 -21.454 61.646 19.714 -659.870 -1754.907 -3509.963 2.772 1.481 -2.100 -0.02 0.54 -0.84 0.08
1 4.99 499 -3.687 -8.825 4.875 14.984 20.599 30.792 -524.958 -1619.995 -3419.872 3.129 -0.101 -0.869 -0.01 0.54 -0.84 0.07
1 5.00 500 -2.801 -7.418 4.286 29.816 -14.008 21.271 -524.958 -1619.995 -3419.872 2.184 -1.500 -0.268 -0.01 0.54 -0.84 0.08
1 5.01 501 -0.766 -6.661 4.185 27.191 -40.222 13.702 -434.867 -1634.985 -3329.931 0.099 -2.233 -0.124 -0.01 0.54 -0.84 0.08
1 5.02 502 2.643 -6.613 5.708 -31.006 -36.316 24.262 -449.857 -1574.874 -3464.993 -3.311 -2.254 -1.588 -0.01 0.54 -0.84 0.08
1 5.03 503 4.310 -7.657 6.694 -81.024 -8.179 35.248 -389.896 -1439.962 -3404.882 -4.982 -1.231 -2.622 -0.01 0.54 -0.84 0.08
1 5.04 504 4.688 -9.620 6.287 -102.722 24.262 37.293 -524.958 -1574.874 -3314.940 -5.393 0.685 -2.325 -0.01 0.55 -0.83 0.09
1 5.05 505 3.563 -11.172 5.674 -76.966 47.272 22.919 -524.958 -1574.874 -3314.940 -4.334 2.181 -1.852 -0.01 0.55 -0.83 0.09
1 5.06 506 1.781 -11.363 5.042 -13.489 54.474 -2.838 -434.867 -1589.864 -3404.882 -2.604 2.339 -1.311 -0.01 0.56 -0.83 0.09
1 5.07 507 -0.651 -10.123 4.755 63.660 43.701 -31.891 -434.867 -1589.864 -3404.882 -0.189 1.100 -1.025 -0 0.56 -0.83 0.08
1 5.08 508 -1.389 -8.988 4.894 69.824 33.875 -34.119 -359.916 -1364.861 -3374.901 0.562 -0.007 -1.093 -0 0.55 -0.83 0.08
1 5.09 509 -1.274 -8.035 4.836 55.023 26.276 -27.283 -434.867 -1334.880 -3449.853 0.473 -0.921 -0.940 -0 0.55 -0.83 0.07
1 5.10 510 -0.790 -7.365 4.496 32.410 18.402 -14.984 -344.925 -1379.851 -3239.989 0.020 -1.528 -0.451 0 0.54 -0.84 0.07
1 5.11 511 -0.297 -7.106 4.362 23.590 14.130 -11.475 -419.876 -1574.874 -3494.973 -0.464 -1.768 -0.276 0 0.54 -0.84 0.07
1 5.12 512 0.192 -7.322 4.631 13.092 8.942 -11.017 -419.876 -1574.874 -3494.973 -0.945 -1.541 -0.516 0 0.54 -0.84 0.07
1 5.13 513 0.599 -7.662 5.138 2.502 6.409 -10.925 -419.876 -1574.874 -3314.940 -1.341 -1.195 -1.009 0 0.54 -0.84 0.07
1 5.14 514 1.432 -8.538 5.550 -0.366 9.552 -8.545 -419.876 -1574.874 -3314.940 -2.154 -0.315 -1.410 0 0.54 -0.84 0.06
1 5.15 515 1.551 -8.950 5.670 10.803 18.463 -6.561 -434.867 -1559.884 -3449.853 -2.252 0.098 -1.522 0 0.54 -0.84 0.06
1 5.16 516 1.130 -8.878 5.339 41.931 31.677 -5.005 -209.863 -1679.956 -3374.901 -1.814 0.052 -1.135 0 0.53 -0.84 0.06
1 5.17 517 1.010 -8.691 5.196 52.612 33.844 -6.195 -299.955 -1619.995 -3359.911 -1.692 -0.102 -0.922 0.01 0.53 -0.85 0.06
1 5.18 518 -0.029 -7.279 4.669 63.019 24.231 -11.871 -284.964 -1589.864 -3404.882 -0.650 -1.472 -0.308 0.01 0.53 -0.85 0.05
1 5.19 519 -0.077 -6.517 4.477 51.056 12.085 -16.663 -284.964 -1589.864 -3404.882 -0.594 -2.192 -0.034 0.01 0.52 -0.85 0.05
1 5.20 520 0.488 -6.517 4.425 30.548 7.141 -19.745 -419.876 -1544.894 -3464.993 -1.142 -2.161 0.080 0.01 0.52 -0.85 0.05
1 5.21 521 1.106 -6.790 4.745 1.984 18.951 -17.578 -419.876 -1544.894 -3464.993 -1.738 -1.873 -0.207 0.01 0.52 -0.85 0.05
1 5.22 522 1.255 -7.805 4.999 -6.653 32.257 -13.825 -344.925 -1649.975 -3464.993 -1.873 -0.855 -0.454 0.01 0.52 -0.85 0.05
1 5.23 523 0.690 -8.557 5.028 -8.545 42.938 -10.803 -359.916 -1709.936 -3479.983 -1.301 -0.106 -0.487 0.01 0.52 -0.85 0.05
1 5.24 524 -0.369 -9.132 4.846 -0.244 45.654 -9.705 -344.925 -1844.998 -3494.973 -0.252 0.461 -0.322 0.01 0.52 -0.85 0.04
1 5.25 525 -0.963 -9.386 4.659 12.177 38.941 -10.223 -224.854 -1694.946 -3719.977 0.328 0.716 -0.133 0.01 0.52 -0.85 0.04
1 5.26 526 -1.068 -9.371 4.391 25.482 29.022 -8.820 -224.854 -1694.946 -3719.977 0.421 0.712 0.152 0.02 0.52 -0.85 0.04
1 5.27 527 -0.857 -9.184 4.439 35.004 21.332 -2.869 -209.863 -1709.936 -3479.983 0.199 0.543 0.137 0.02 0.52 -0.86 0.03
1 5.28 528 -0.503 -8.265 4.185 36.652 16.602 3.113 -209.863 -1709.936 -3479.983 -0.169 -0.352 0.435 0.02 0.51 -0.86 0.03
1 5.29 529 -0.230 -7.925 4.214 30.884 16.876 4.944 -329.935 -1784.887 -3449.853 -0.455 -0.666 0.451 0.02 0.51 -0.86 0.03
1 5.30 530 -0.034 -7.820 4.224 22.705 17.731 6.439 -224.854 -1694.946 -3419.872 -0.667 -0.748 0.483 0.02 0.51 -0.86 0.03
1 5.31 531 0.014 -7.973 4.238 17.639 17.700 7.294 -224.854 -1694.946 -3419.872 -0.732 -0.576 0.499 0.02 0.51 -0.86 0.03
1 5.32 532 0.316 -8.193 4.324 14.557 18.036 8.698 -134.912 -1829.858 -3584.915 -1.067 -0.330 0.453 0.03 0.51 -0.86 0.03
1 5.33 533 0.488 -8.174 4.449 14.374 17.487 7.446 -134.912 -1829.858 -3584.915 -1.255 -0.339 0.345 0.03 0.5 -0.86 0.03
1 5.34 534 0.584 -8.136 4.401 13.489 17.700 4.791 -104.932 -1784.887 -3449.853 -1.363 -0.366 0.410 0.03 0.5 -0.86 0.03
1 5.35 535 0.757 -8.256 4.607 12.329 18.524 2.930 -104.932 -1784.887 -3449.853 -1.543 -0.237 0.220 0.03 0.5 -0.86 0.03
1 5.36 536 0.565 -8.490 4.774 12.817 23.651 -0.305 -179.883 -1754.907 -3509.963 -1.357 0.006 0.067 0.03 0.5 -0.86 0.03
1 5.37 537 0.364 -8.691 4.765 15.289 26.001 -1.282 -119.922 -1724.926 -3464.993 -1.162 0.217 0.092 0.03 0.5 -0.86 0.03
1 5.38 538 0.196 -8.428 4.640 19.165 25.910 -1.251 -119.922 -1724.926 -3464.993 -1.001 -0.037 0.232 0.03 0.5 -0.86 0.03
1 5.39 539 -0.220 -7.892 4.224 19.562 23.254 -1.831 14.990 -1769.897 -3674.856 -0.602 -0.547 0.692 0.03 0.5 -0.87 0.02
1 5.40 540 -0.441 -7.863 4.109 13.489 21.820 -2.808 14.990 -1769.897 -3674.856 -0.391 -0.563 0.827 0.04 0.5 -0.87 0.02
1 5.41 541 -0.464 -7.820 3.975 4.425 20.416 -2.563 -119.922 -1919.949 -3494.973 -0.376 -0.599 0.971 0.04 0.5 -0.87 0.02
1 5.42 542 -0.752 -7.973 3.979 -2.899 19.379 -2.747 -119.922 -1919.949 -3494.973 -0.100 -0.445 0.966 0.04 0.5 -0.87 0.02
1 5.43 543 -0.881 -8.251 4.267 -11.749 15.625 -2.136 59.961 -1859.988 -3584.915 0.019 -0.171 0.670 0.04 0.5 -0.87 0.02
1 5.44 544 -0.852 -8.634 4.291 -14.404 12.970 -2.045 29.980 -1679.956 -3509.963 -0.019 0.202 0.627 0.04 0.5 -0.87 0.02
1 5.45 545 -0.666 -9.103 4.420 -13.031 9.094 0.092 29.980 -1679.956 -3509.963 -0.213 0.659 0.476 0.04 0.5 -0.87 0.02
1 5.46 546 -0.096 -9.386 4.008 -3.204 5.096 4.700 -59.961 -1934.939 -3554.934 -0.793 0.921 0.850 0.04 0.5 -0.86 0.02
1 5.47 547 0.340 -9.108 3.869 6.226 1.770 5.280 -59.961 -1934.939 -3554.934 -1.231 0.639 0.981 0.04 0.5 -0.86 0.02
1 5.48 548 0.546 -8.758 3.448 9.277 0.000 4.089 -59.961 -1829.858 -3554.934 -1.435 0.291 1.406 0.04 0.5 -0.86 0.02
1 5.49 549 0.800 -8.203 3.860 2.167 -2.136 -0.397 -59.961 -1829.858 -3554.934 -1.682 -0.263 0.998 0.04 0.5 -0.86 0.02
1 5.50 550 -0.057 -7.896 4.932 -16.205 1.434 -13.275 29.980 -1934.939 -3509.963 -0.808 -0.574 -0.081 0.04 0.5 -0.86 0.02
1 5.51 551 -3.457 -8.198 6.699 -76.264 4.059 -58.106 -44.971 -1844.998 -3539.944 2.624 -0.292 -1.877 0.04 0.5 -0.86 0.02
1 5.52 552 -4.061 -10.568 6.819 -105.652 -15.106 -68.176 -44.971 -1844.998 -3539.944 3.285 2.028 -2.075 0.04 0.51 -0.86 0.01
1 5.53 553 -0.824 -14.490 5.133 -61.676 -43.671 -36.804 0.000 -1679.956 -3479.983 0.240 5.800 -0.642 0.03 0.52 -0.85 0.01
1 5.54 554 0.278 -13.849 5.248 9.949 -61.707 -16.541 0.000 -1679.956 -3479.983 -0.787 5.125 -0.811 0.03 0.52 -0.85 0.01
1 5.55 555 2.121 -11.090 5.832 57.404 -62.134 -16.602 59.961 -1754.907 -3479.983 -2.566 2.384 -1.355 0.02 0.52 -0.85 0.01
1 5.56 556 1.829 -9.405 5.828 40.680 -52.490 -22.980 59.961 -1754.907 -3479.983 -2.207 0.738 -1.270 0.02 0.52 -0.86 0.01
1 5.57 557 1.499 -8.768 6.019 -10.773 -42.999 -21.545 -44.971 -1649.975 -3569.924 -1.810 0.120 -1.420 0.01 0.51 -0.86 0.01
1 5.58 558 1.542 -10.042 6.254 -61.432 -30.823 -16.541 -194.873 -1694.946 -3494.973 -1.781 1.381 -1.674 0.01 0.52 -0.86 0.01
1 5.59 559 2.442 -11.430 6.153 -62.744 -25.665 1.099 -194.873 -1694.946 -3494.973 -2.634 2.731 -1.646 0.01 0.52 -0.85 0.01
1 5.60 560 4.075 -11.244 6.096 -22.705 -15.625 26.764 -179.883 -1589.864 -3554.934 -4.250 2.470 -1.734 0 0.53 -0.85 0.01
1 5.61 561 4.271 -10.717 5.938 -1.892 -10.345 25.818 -179.883 -1589.864 -3554.934 -4.473 1.936 -1.591 0 0.53 -0.85 0.02
1 5.62 562 3.860 -8.543 5.957 40.772 7.996 2.594 -209.863 -1514.913 -3554.934 -4.080 -0.220 -1.575 0 0.53 -0.85 0.02
1 5.63 563 2.801 -7.236 6.134 43.152 26.001 -11.719 -209.863 -1514.913 -3554.934 -3.027 -1.498 -1.694 0 0.52 -0.85 0.02
1 5.64 564 0.795 -6.455 6.058 31.738 48.737 -20.325 -254.984 -1484.933 -3449.853 -0.998 -2.244 -1.549 0 0.52 -0.85 0.01
1 5.65 565 -1.805 -5.718 5.694 -1.099 68.054 -23.651 -269.974 -1649.975 -3464.993 1.605 -2.955 -1.134 0.01 0.52 -0.86 0.01
1 5.66 566 -5.334 -5.287 4.573 -23.804 57.648 -27.344 -269.974 -1649.975 -3464.993 5.120 -3.382 -0.007 0.01 0.52 -0.86 0.01
1 5.67 567 -6.632 -5.694 3.994 -37.781 30.579 -38.269 -164.893 -1649.975 -3494.973 6.410 -2.988 0.547 0.01 0.52 -0.86 0
1 5.68 568 -7.087 -6.479 3.611 -35.187 -17.120 -49.469 -179.883 -1679.956 -3449.853 6.871 -2.249 0.841 -0.01 -0.52 0.85 0
1 5.69 569 -6.508 -7.049 3.433 -30.945 -44.464 -41.992 -119.922 -1799.877 -3464.993 6.321 -1.701 0.977 -0.01 -0.52 0.85 0
1 5.70 570 -5.248 -7.212 3.711 -31.708 -68.787 -24.719 -119.922 -1799.877 -3464.993 5.098 -1.558 0.660 -0.01 -0.53 0.85 0
1 5.71 571 -3.749 -7.576 4.434 -37.018 -86.396 -7.965 -209.863 -1709.936 -3449.853 3.635 -1.216 -0.106 0.01 0.53 -0.85 0
1 5.72 572 -0.872 -9.386 5.785 -58.014 -92.163 -1.160 -209.863 -1634.985 -3404.882 0.794 0.570 -1.504 0 0.53 -0.85 0
1 5.73 573 1.130 -11.148 6.149 -51.270 -77.667 7.141 -209.863 -1634.985 -3404.882 -1.162 2.301 -1.933 -0 0.53 -0.85 0.01
1 5.74 574 2.370 -11.483 6.000 -15.411 -53.559 24.170 -269.974 -1544.894 -3464.993 -2.354 2.601 -1.858 -0.01 0.54 -0.84 0.01
1 5.75 575 2.198 -9.410 5.095 34.882 -14.648 38.513 -509.968 -1484.933 -3404.882 -2.195 0.522 -0.967 -0.01 0.54 -0.84 0.02
1 5.76 576 0.929 -7.767 4.382 33.905 -1.221 29.999 -419.876 -1349.871 -3539.944 -0.969 -1.097 -0.202 -0.01 0.54 -0.84 0.02
1 5.77 577 -0.704 -7.307 4.204 10.895 -1.923 14.282 -419.876 -1349.871 -3539.944 0.640 -1.535 0.020 -0.01 0.53 -0.85 0.03
1 5.78 578 -1.877 -8.198 4.147 -16.602 -15.595 3.052 -389.896 -1514.913 -3404.882 1.801 -0.641 0.084 -0.01 0.53 -0.85 0.03
1 5.79 579 -2.375 -9.745 4.463 -22.125 -34.241 -0.580 -359.916 -1439.962 -3479.983 2.304 0.893 -0.257 -0.01 0.53 -0.84 0.03
1 5.80 580 -1.350 -10.770 5.076 20.477 -47.424 10.590 -359.916 -1439.962 -3479.983 1.296 1.908 -0.892 -0.02 0.54 -0.84 0.03
1 5.81 581 -0.484 -9.773 4.927 53.803 -39.765 24.597 -539.948 -1514.913 -3449.853 0.450 0.920 -0.727 -0.02 0.53 -0.84 0.03
1 5.82 582 -0.105 -8.284 4.544 68.207 -27.130 36.041 -494.978 -1424.972 -3419.872 0.072 -0.539 -0.280 -0.02 0.53 -0.85 0.04
1 5.83 583 0.134 -6.316 4.008 39.795 -13.275 40.619 -494.978 -1574.874 -3419.872 -0.234 -2.420 0.432 -0.02 0.52 -0.85 0.04
1 5.84 584 0.096 -6.096 4.080 -0.671 -9.705 33.753 -494.978 -1574.874 -3419.872 -0.239 -2.618 0.402 -0.02 0.52 -0.85 0.05
1 5.85 585 0.048 -6.814 4.204 -34.790 -10.620 24.780 -464.997 -1559.884 -3509.963 -0.226 -1.905 0.266 -0.02 0.52 -0.85 0.05
1 5.86 586 -0.287 -8.193 4.089 -43.945 -14.069 14.587 -464.997 -1514.913 -3404.882 0.088 -0.552 0.329 -0.02 0.52 -0.85 0.05
1 5.87 587 -0.723 -9.271 3.912 -11.017 -25.543 0.610 -464.997 -1514.913 -3404.882 0.519 0.499 0.453 -0.02 0.53 -0.85 0.05
1 5.88 588 -1.092 -9.414 4.032 19.470 -33.386 -3.387 -434.867 -1559.884 -3449.853 0.897 0.629 0.307 -0.02 0.53 -0.85 0.05
1 5.89 589 -1.053 -8.830 4.171 34.241 -36.621 -0.519 -569.929 -1574.874 -3494.973 0.877 0.052 0.182 -0.02 0.53 -0.85 0.05
1 5.90 590 -0.685 -8.279 3.970 28.076 -33.692 7.568 -464.997 -1514.913 -3374.901 0.542 -0.455 0.472 -0.03 0.52 -0.85 0.06
1 5.91 591 -0.541 -8.232 3.850 19.318 -31.220 10.254 -464.997 -1514.913 -3374.901 0.406 -0.485 0.626 -0.03 0.52 -0.85 0.06
1 5.92 592 -0.522 -8.227 3.706 13.184 -31.220 9.918 -584.919 -1709.936 -3449.853 0.391 -0.478 0.793 -0.03 0.52 -0.85 0.06
1 5.93 593 -0.115 -8.208 3.797 10.864 -32.440 5.310 -539.948 -1634.985 -3479.983 -0.008 -0.490 0.717 -0.03 0.52 -0.85 0.06
1 5.94 594 -0.287 -8.284 3.888 12.817 -31.616 0.702 -539.948 -1634.985 -3479.983 0.182 -0.406 0.641 -0.03 0.52 -0.85 0.07
1 5.95 595 -0.306 -8.289 4.080 19.409 -26.062 -2.045 -599.909 -1619.995 -3539.944 0.222 -0.393 0.466 -0.04 0.52 -0.85 0.07
1 5.96 596 -0.637 -8.131 3.946 21.576 -23.102 -0.824 -524.958 -1574.874 -3494.973 0.573 -0.538 0.624 -0.04 0.52 -0.85 0.07
1 5.97 597 -0.804 -7.968 3.927 18.982 -23.316 -0.854 -599.909 -1649.975 -3464.993 0.772 -0.672 0.698 -0.04 0.51 -0.86 0.07
1 5.98 598 -0.800 -8.011 3.888 12.451 -23.651 -1.740 -599.909 -1649.975 -3464.993 0.781 -0.617 0.758 -0.04 0.51 -0.86 0.07
1 5.99 599 -0.809 -8.117 3.984 2.899 -24.353 -0.305 -659.870 -1754.907 -3554.934 0.805 -0.505 0.674 -0.04 0.51 -0.86 0.07
1 6.00 600 -0.800 -8.600 3.936 -7.141 -24.689 3.601 -690.000 -1679.956 -3509.963 0.806 -0.022 0.722 -0.04 0.51 -0.86 0.07
1 6.01 601 -0.804 -9.036 3.960 -13.611 -24.139 7.202 -690.000 -1679.956 -3509.963 0.816 0.406 0.683 -0.04 0.51 -0.86 0.07
1 6.02 602 -0.498 -9.812 4.372 -9.155 -26.428 11.383 -690.000 -1589.864 -3554.934 0.511 1.170 0.249 -0.05 0.51 -0.85 0.07
1 6.03 603 -0.306 -9.903 4.382 2.777 -29.999 10.773 -614.899 -1634.985 -3479.983 0.319 1.251 0.222 -0.05 0.51 -0.85 0.08
1 6.04 604 0.254 -9.587 4.487 22.583 -35.309 6.439 -854.893 -1619.995 -3539.944 -0.225 0.944 0.134 -0.05 0.51 -0.85 0.08
1 6.05 605 0.359 -9.285 4.568 27.405 -34.973 4.547 -854.893 -1619.995 -3539.944 -0.311 0.659 0.082 -0.05 0.51 -0.85 0.08
1 6.06 606 0.215 -8.734 4.492 36.072 -26.001 1.007 -659.870 -1439.962 -3509.963 -0.143 0.131 0.201 -0.05 0.51 -0.86 0.08
1 6.07 607 -0.139 -8.442 4.104 32.013 -16.663 2.594 -659.870 -1559.884 -3479.983 0.229 -0.135 0.635 -0.06 0.51 -0.86 0.08
1 6.08 608 -0.742 -8.184 4.013 21.942 -9.918 5.188 -659.870 -1559.884 -3479.983 0.839 -0.373 0.763 -0.06 0.5 -0.86 0.08
1 6.09 609 -1.370 -8.121 3.778 2.319 -12.878 6.928 -704.991 -1574.874 -3494.973 1.462 -0.423 1.020 -0.06 0.5 -0.86 0.09
1 6.10 610 -1.805 -8.380 4.362 -9.186 -22.522 7.904 -794.932 -1679.956 -3509.963 1.888 -0.162 0.440 -0.06 0.5 -0.86 0.09
1 6.11 611 -0.680 -9.065 5.507 -21.362 -28.870 10.010 -794.932 -1679.956 -3509.963 0.755 0.516 -0.716 -0.06 0.5 -0.86 0.09
1 6.12 612 2.648 -10.674 7.556 -68.299 -23.560 34.790 -974.965 -1769.897 -3539.944 -2.581 2.084 -2.840 -0.06 0.51 -0.86 0.09
1 6.13 613 4.334 -11.588 9.352 -99.030 0.641 62.836 -749.961 -1724.926 -3599.905 -4.309 2.943 -4.738 -0.06 0.51 -0.85 0.1
1 6.14 614 3.505 -12.762 6.867 -75.623 36.987 71.320 -914.854 -1709.936 -3584.915 -3.576 4.049 -2.381 -0.06 0.52 -0.85 0.1
1 6.15 615 1.030 -12.134 5.507 -14.526 62.317 57.587 -914.854 -1709.936 -3584.915 -1.222 3.382 -1.102 -0.05 0.52 -0.85 0.1
1 6.16 616 -2.533 -8.844 4.405 37.445 61.676 45.197 -839.903 -1484.933 -3449.853 2.225 0.094 -0.003 -0.04 0.52 -0.85 0.1
1 6.17 617 -3.261 -7.394 4.425 4.700 37.354 36.072 -690.000 -1514.913 -3509.963 2.848 -1.330 0.022 -0.04 0.52 -0.85 0.1
1 6.18 618 -2.820 -6.862 5.545 -53.467 15.900 20.630 -690.000 -1514.913 -3509.963 2.308 -1.846 -1.079 -0.03 0.52 -0.85 0.1
1 6.19 619 -2.284 -8.433 6.153 -96.405 18.189 1.129 -704.991 -1574.874 -3494.973 1.668 -0.342 -1.833 -0.03 0.53 -0.84 0.1
1 6.20 620 -2.753 -10.118 6.335 -90.546 29.877 -3.693 -629.890 -1349.871 -3494.973 2.113 1.288 -2.133 -0.03 0.53 -0.84 0.1
1 6.21 621 -3.304 -11.052 6.297 -66.925 26.184 7.629 -614.899 -1409.981 -3404.882 2.648 2.168 -2.213 -0.03 0.54 -0.84 0.1
1 6.22 622 -3.251 -10.679 5.435 -26.886 0.244 23.529 -614.899 -1409.981 -3404.882 2.567 1.760 -1.431 -0.02 0.54 -0.83 0.1
1 6.23 623 -2.193 -9.271 4.501 17.975 -38.208 25.879 -539.948 -1439.962 -3449.853 1.480 0.346 -0.516 -0.02 0.54 -0.83 0.1
1 6.24 624 1.135 -7.283 4.420 41.107 -78.583 17.822 -434.867 -1334.880 -3479.983 -1.856 -1.621 -0.391 -0.02 0.54 -0.83 0.11
1 6.25 625 4.013 -6.704 5.157 10.559 -79.010 22.858 -434.867 -1334.880 -3479.983 -4.713 -2.170 -1.059 -0.03 0.54 -0.83 0.11
1 6.26 626 6.426 -7.192 5.880 -38.056 -51.758 33.020 -614.899 -1409.981 -3479.983 -7.103 -1.667 -1.745 -0.03 0.54 -0.84 0.11
1 6.27 627 7.485 -9.003 5.909 -79.590 20.966 35.370 -629.890 -1469.942 -3464.993 -8.165 0.097 -1.876 -0.04 0.54 -0.83 0.12
1 6.28 628 5.785 -9.735 5.162 -55.542 62.317 20.691 -599.909 -1499.923 -3464.993 -6.528 0.787 -1.235 -0.03 0.55 -0.83 0.12
1 6.29 629 3.098 -9.754 4.875 -14.740 79.010 -4.059 -599.909 -1499.923 -3464.993 -3.902 0.781 -1.017 -0.03 0.55 -0.83 0.12
1 6.30 630 0.512 -9.716 4.889 11.658 75.226 -28.473 -614.899 -1214.958 -3299.950 -1.348 0.738 -1.050 -0.02 0.55 -0.83 0.11
1 6.31 631 -2.236 -10.013 4.985 11.108 53.284 -44.129 -569.929 -1079.896 -3314.940 1.406 1.039 -1.135 -0.02 0.55 -0.83 0.11
1 6.32 632 -2.763 -10.037 4.750 11.017 36.957 -30.518 -569.929 -1079.896 -3314.940 1.961 1.065 -0.890 -0.02 0.55 -0.83 0.1
1 6.33 633 -2.351 -9.534 4.238 26.672 23.438 -9.399 -509.968 -1289.910 -3299.950 1.573 0.565 -0.367 -0.02 0.55 -0.83 0.1
1 6.34 634 -0.843 -8.179 4.228 44.373 8.881 6.348 -569.929 -1304.900 -3389.892 0.050 -0.754 -0.277 -0.01 0.55 -0.83 0.1
1 6.35 635 0.225 -7.556 4.827 34.577 4.547 4.395 -524.958 -1304.900 -3359.911 -1.034 -1.348 -0.814 -0.01 0.54 -0.83 0.1
1 6.36 636 1.250 -7.734 5.234 13.916 6.317 -1.404 -524.958 -1304.900 -3359.911 -2.059 -1.148 -1.172 -0.01 0.54 -0.84 0.1
1 6.37 637 1.753 -8.126 5.176 -0.854 12.390 -9.003 -569.929 -1499.923 -3209.859 -2.549 -0.746 -1.091 -0.01 0.54 -0.84 0.09
1 6.38 638 1.092 -8.682 4.549 9.552 20.538 -18.555 -524.958 -1349.871 -3314.940 -1.863 -0.189 -0.455 -0.01 0.54 -0.84 0.09
1 6.39 639 0.546 -8.730 4.583 26.520 22.400 -18.738 -524.958 -1349.871 -3314.940 -1.288 -0.137 -0.476 -0.01 0.54 -0.84 0.09
1 6.40 640 -0.014 -8.303 4.616 35.339 21.851 -16.144 -374.906 -1349.871 -3389.892 -0.702 -0.550 -0.477 -0.01 0.54 -0.84 0.09
1 6.41 641 -0.532 -8.002 4.377 32.715 13.947 -12.451 -359.916 -1289.910 -3329.931 -0.155 -0.808 -0.140 -0.01 0.53 -0.84 0.08
1 6.42 642 -0.417 -7.729 4.209 31.830 8.148 -7.904 -494.978 -1349.871 -3464.993 -0.261 -1.059 0.075 -0.01 0.53 -0.84 0.08
1 6.43 643 0.120 -7.494 4.065 31.006 4.547 -3.265 -494.978 -1349.871 -3464.993 -0.792 -1.272 0.263 -0.01 0.53 -0.85 0.08
1 6.44 644 0.666 -7.073 4.152 24.262 5.859 -1.099 -524.958 -1499.923 -3539.944 -1.336 -1.674 0.218 -0.01 0.53 -0.85 0.08
1 6.45 645 1.197 -6.943 4.520 9.094 13.886 -1.160 -524.958 -1349.871 -3419.872 -1.870 -1.788 -0.122 -0.01 0.52 -0.85 0.08
1 6.46 646 1.097 -7.748 4.535 -12.177 27.802 -0.824 -524.958 -1349.871 -3419.872 -1.778 -0.980 -0.131 -0.01 0.52 -0.85 0.08
1 6.47 647 0.642 -8.346 4.477 -13.977 31.983 -0.671 -584.919 -1409.981 -3404.882 -1.339 -0.388 -0.088 -0.01 0.53 -0.85 0.08
1 6.48 648 0.517 -9.113 4.353 5.005 28.015 1.190 -389.896 -1439.962 -3584.915 -1.232 0.366 0.009 -0 0.53 -0.85 0.07
1 6.49 649 0.666 -9.050 4.238 14.191 25.604 1.007 -344.925 -1574.874 -3464.993 -1.389 0.310 0.134 -0 0.53 -0.85 0.07
1 6.50 650 0.771 -8.519 4.224 35.034 23.560 0.427 -344.925 -1574.874 -3464.993 -1.500 -0.205 0.181 -0 0.52 -0.85 0.07
1 6.51 651 0.891 -8.102 4.042 39.368 25.848 1.678 -419.876 -1349.871 -3419.872 -1.624 -0.597 0.410 0 0.52 -0.85 0.07
1 6.52 652 0.809 -7.954 4.042 35.278 30.396 4.944 -344.925 -1349.871 -3464.993 -1.552 -0.720 0.459 0 0.52 -0.85 0.07
1 6.53 653 0.426 -7.623 3.975 20.233 34.088 7.416 -344.925 -1349.871 -3464.993 -1.186 -1.027 0.567 0 0.52 -0.85 0.07
1 6.54 654 0.172 -7.858 3.884 12.726 34.180 7.690 -284.964 -1439.962 -3374.901 -0.964 -0.775 0.686 0.01 0.52 -0.85 0.07
1 6.55 655 -0.077 -8.097 3.845 8.057 31.983 7.568 -284.964 -1439.962 -3374.901 -0.748 -0.524 0.740 0.01 0.52 -0.85 0.07
1 6.56 656 -0.081 -8.543 4.075 7.294 28.076 6.317 -344.925 -1499.923 -3569.924 -0.797 -0.068 0.521 0.01 0.52 -0.85 0.06
1 6.57 657 0.163 -8.615 4.362 7.599 25.665 5.402 -344.925 -1499.923 -3569.924 -1.062 0.009 0.238 0.02 0.51 -0.85 0.06
1 6.58 658 0.263 -8.581 4.549 6.531 24.201 3.265 -329.935 -1514.913 -3509.963 -1.178 -0.020 0.057 0.02 0.51 -0.86 0.06
1 6.59 659 0.215 -8.797 4.568 7.263 25.787 0.641 -299.955 -1424.972 -3569.924 -1.142 0.199 0.044 0.02 0.51 -0.86 0.06
1 6.60 660 -0.412 -8.844 4.698 11.871 28.900 -5.920 -299.955 -1424.972 -3569.924 -0.523 0.252 -0.078 0.02 0.51 -0.86 0.06
1 6.61 661 -0.804 -8.921 4.487 14.618 28.259 -6.042 -89.941 -1379.851 -3539.944 -0.137 0.336 0.144 0.02 0.51 -0.86 0.06
1 6.62 662 -0.828 -8.835 4.276 14.984 25.391 -3.510 -89.941 -1379.851 -3539.944 -0.121 0.259 0.370 0.02 0.51 -0.86 0.06
1 6.63 663 -0.761 -8.509 4.171 9.705 18.097 -1.953 -209.863 -1589.864 -3509.963 -0.211 -0.050 0.501 0.03 0.51 -0.86 0.05
1 6.64 664 -0.350 -8.663 4.147 3.967 13.214 -3.265 -209.863 -1589.864 -3509.963 -0.629 0.107 0.531 0.03 0.51 -0.86 0.05
1 6.65 665 0.019 -8.964 4.224 1.587 9.705 -4.578 -104.932 -1514.913 -3704.986 -0.996 0.409 0.455 0.03 0.51 -0.86 0.05
1 6.66 666 0.172 -9.046 4.214 1.282 8.637 -5.402 -59.961 -1634.985 -3584.915 -1.142 0.488 0.462 0.03 0.51 -0.86 0.05
1 6.67 667 0.101 -9.194 4.113 5.188 8.881 -2.838 -59.961 -1634.985 -3584.915 -1.061 0.635 0.561 0.03 0.51 -0.86 0.05
1 6.68 668 0.010 -8.935 4.003 6.378 7.172 -1.953 -44.971 -1544.894 -3599.905 -0.964 0.377 0.674 0.03 0.51 -0.86 0.05
1 6.69 669 -0.110 -8.706 4.722 -1.892 2.777 -5.768 -44.971 -1544.894 -3599.905 -0.839 0.149 -0.040 0.03 0.51 -0.86 0.05
1 6.70 670 -0.852 -8.461 5.856 -22.430 1.312 -22.797 -44.971 -1469.942 -3539.944 -0.085 -0.098 -1.177 0.03 0.51 -0.86 0.05
1 6.71 671 -2.279 -9.572 6.814 -67.169 -2.411 -59.387 -179.883 -1484.933 -3704.986 1.426 0.964 -2.209 0.03 0.51 -0.86 0.04
1 6.72 672 -1.365 -11.660 6.038 -72.907 -12.268 -57.373 -44.971 -1619.995 -3674.856 0.596 2.995 -1.526 0.02 0.52 -0.85 0.04
1 6.73 673 0.235 -13.125 5.153 -43.091 -23.010 -29.907 -134.912 -1439.962 -3659.866 -0.924 4.409 -0.727 0.02 0.52 -0.85 0.03
1 6.74 674 1.489 -12.249 5.320 4.730 -33.112 -8.270 -134.912 -1439.962 -3659.866 -2.129 3.509 -0.933 0.02 0.53 -0.85 0.03
1 6.75 675 1.872 -9.563 5.938 31.098 -29.022 -25.818 -209.863 -1364.861 -3584.915 -2.478 0.832 -1.527 0.01 0.52 -0.85 0.03
1 6.76 676 1.350 -8.821 5.861 -2.991 -20.325 -34.332 -209.863 -1364.861 -3584.915 -1.906 0.111 -1.403 0.01 0.52 -0.85 0.03
1 6.77 677 1.063 -9.524 5.588 -43.915 -12.573 -22.186 -374.906 -1349.871 -3599.905 -1.557 0.818 -1.118 0.01 0.52 -0.85 0.03
1 6.78 678 1.475 -11.062 6.091 -61.493 -9.369 4.364 -434.867 -1484.933 -3734.967 -1.891 2.292 -1.736 0.01 0.53 -0.85 0.03
1 6.79 679 1.959 -11.287 6.493 -39.246 -5.310 14.801 -224.854 -1274.919 -3599.905 -2.378 2.480 -2.215 0 0.53 -0.85 0.03
1 6.80 680 2.476 -10.535 6.426 -2.594 2.380 17.273 -389.896 -1259.929 -3479.983 -2.913 1.710 -2.187 0 0.53 -0.85 0.03
1 6.81 681 2.734 -9.208 6.235 31.250 15.137 14.984 -389.896 -1259.929 -3479.983 -3.198 0.390 -1.986 0.01 0.53 -0.85 0.04
1 6.82 682 2.337 -7.595 5.880 48.706 31.830 7.263 -329.935 -1439.962 -3479.983 -2.830 -1.198 -1.582 0.01 0.53 -0.85 0.04
1 6.83 683 0.268 -5.842 5.646 42.877 56.275 -11.292 -329.935 -1439.962 -3479.983 -0.768 -2.912 -1.269 0.01 0.53 -0.85 0.03
1 6.84 684 -2.026 -5.200 4.990 24.231 65.918 -22.675 -179.883 -1514.913 -3479.983 1.511 -3.520 -0.548 0.01 0.52 -0.85 0.03
1 6.85 685 -5.464 -5.014 3.922 -14.313 48.828 -41.840 -194.873 -1304.900 -3599.905 4.933 -3.686 0.559 0.02 0.52 -0.85 0.02
1 6.86 686 -6.963 -5.507 3.376 -36.408 18.311 -58.624 -269.974 -1379.851 -3644.875 6.466 -3.209 1.076 0.02 0.52 -0.85 0.02
1 6.87 687 -7.422 -6.340 2.978 -46.692 -15.839 -67.993 -104.932 -1259.929 -3704.986 6.955 -2.403 1.424 0.02 0.52 -0.85 0.02
1 6.88 688 -6.991 -7.327 3.108 -47.119 -46.906 -61.341 -104.932 -1259.929 -3704.986 6.578 -1.449 1.234 0.02 0.53 -0.85 0.01
1 6.89 689 -5.459 -7.882 3.682 -45.990 -68.299 -37.018 -194.873 -1379.851 -3794.928 5.105 -0.927 0.597 0.01 0.53 -0.85 0.01
1 6.90 690 -2.543 -9.170 5.009 -50.995 -80.750 -2.625 -194.873 -1379.851 -3794.928 2.235 0.330 -0.790 0.01 0.53 -0.85 0.02
1 6.91 691 -0.268 -10.482 5.852 -46.906 -72.144 11.200 -224.854 -1424.972 -3644.875 -0.006 1.612 -1.695 0 0.54 -0.84 0.02
1 6.92 692 1.930 -11.177 6.201 -13.733 -47.302 22.278 -269.974 -1379.851 -3599.905 -2.162 2.257 -2.149 -0 0.54 -0.84 0.03
1 6.93 693 1.935 -10.971 5.799 6.226 -36.743 22.766 -284.964 -1169.988 -3509.963 -2.170 2.050 -1.749 -0.01 0.54 -0.84 0.03
1 6.94 694 1.389 -8.672 4.516 53.681 -10.162 22.430 -374.906 -1304.900 -3494.973 -1.642 -0.225 -0.414 -0.01 0.54 -0.84 0.03
1 6.95 695 0.292 -7.259 3.946 45.624 -1.251 14.648 -374.906 -1304.900 -3494.973 -0.562 -1.601 0.232 -0.01 0.54 -0.84 0.03
1 6.96 696 -1.350 -6.771 3.984 11.566 -2.594 7.080 -539.948 -1259.929 -3554.934 1.069 -2.064 0.248 -0.01 0.53 -0.85 0.04
1 6.97 697 -2.476 -8.677 4.334 -39.368 -22.095 7.477 -539.948 -1259.929 -3554.934 2.190 -0.156 -0.098 -0.01 0.53 -0.85 0.04
1 6.98 698 -1.805 -10.128 4.789 -37.567 -36.926 12.878 -389.896 -1334.880 -3554.934 1.515 1.275 -0.595 -0.01 0.53 -0.84 0.04
1 6.99 699 -0.718 -10.841 5.143 -3.693 -39.459 20.203 -389.896 -1364.861 -3584.915 0.420 1.965 -1.001 -0.01 0.54 -0.84 0.04
1 7.00 700 0.369 -9.472 5.205 49.072 -21.759 27.435 -524.958 -1199.968 -3539.944 -0.678 0.607 -1.038 -0.01 0.54 -0.84 0.05
1 7.01 701 0.359 -8.102 4.894 53.650 -6.409 29.572 -494.978 -1274.919 -3569.924 -0.695 -0.727 -0.654 -0.01 0.53 -0.84 0.05
1 7.02 702 -0.125 -7.121 4.535 32.745 2.716 28.626 -494.978 -1274.919 -3569.924 -0.242 -1.672 -0.222 -0.01 0.53 -0.85 0.05
1 7.03 703 -0.565 -6.900 4.214 3.540 1.160 23.316 -584.919 -1334.880 -3584.915 0.162 -1.871 0.138 -0.01 0.53 -0.85 0.05
1 7.04 704 -0.800 -7.825 4.080 -21.820 -10.284 8.118 -584.919 -1334.880 -3584.915 0.369 -0.947 0.270 -0.01 0.53 -0.85 0.05
1 7.05 705 -0.977 -8.801 4.128 -17.059 -17.487 -1.343 -419.876 -1424.972 -3599.905 0.538 0.019 0.198 -0.01 0.53 -0.85 0.06
1 7.06 706 -1.087 -9.256 4.233 -3.571 -24.780 -7.233 -344.925 -1379.851 -3719.977 0.654 0.462 0.069 -0.01 0.53 -0.85 0.06
1 7.07 707 -0.867 -9.314 4.429 13.123 -29.541 -4.700 -629.890 -1199.968 -3569.924 0.478 0.517 -0.127 -0.01 0.53 -0.85 0.06
1 7.08 708 -0.632 -9.199 4.568 18.066 -27.618 1.587 -584.919 -1334.880 -3734.967 0.264 0.412 -0.244 -0.01 0.53 -0.85 0.06
1 7.09 709 -0.445 -9.117 4.463 21.454 -23.529 6.500 -584.919 -1334.880 -3734.967 0.089 0.344 -0.110 -0.02 0.53 -0.85 0.06
1 7.10 710 -0.445 -8.677 4.434 24.323 -19.440 8.240 -449.857 -1304.900 -3599.905 0.094 -0.080 -0.049 -0.02 0.53 -0.85 0.06
1 7.11 711 -0.402 -8.461 4.243 24.902 -18.738 6.958 -449.857 -1304.900 -3599.905 0.054 -0.278 0.178 -0.02 0.52 -0.85 0.06
1 7.12 712 -0.431 -8.232 4.152 24.109 -19.318 0.671 -419.876 -1304.900 -3599.905 0.087 -0.490 0.304 -0.02 0.52 -0.85 0.06
1 7.13 713 -0.661 -8.193 4.195 22.827 -17.700 -2.045 -539.948 -1364.861 -3659.866 0.328 -0.512 0.295 -0.02 0.52 -0.85 0.07
1 7.14 714 -1.073 -8.179 4.338 21.301 -16.663 -3.143 -539.948 -1364.861 -3659.866 0.753 -0.510 0.183 -0.02 0.52 -0.85 0.07
1 7.15 715 -1.312 -8.212 4.238 20.569 -17.670 -0.793 -734.971 -1364.861 -3659.866 1.015 -0.445 0.344 -0.02 0.52 -0.85 0.07
1 7.16 716 -1.461 -8.251 4.319 20.996 -18.799 0.732 -734.971 -1364.861 -3659.866 1.169 -0.392 0.291 -0.02 0.51 -0.85 0.07
1 7.17 717 -1.528 -8.232 4.128 20.691 -20.599 2.899 -690.000 -1589.864 -3734.967 1.240 -0.396 0.512 -0.02 0.51 -0.86 0.07
1 7.18 718 -1.446 -8.208 4.089 17.639 -23.285 6.317 -690.000 -1589.864 -3734.967 1.161 -0.405 0.577 -0.03 0.51 -0.86 0.07
1 7.19 719 -1.121 -8.327 4.190 9.827 -28.839 9.338 -449.857 -1469.942 -3749.957 0.835 -0.274 0.498 -0.03 0.51 -0.86 0.07
1 7.20 720 -0.876 -8.485 4.262 4.120 -30.029 9.247 -569.929 -1649.975 -3794.928 0.592 -0.108 0.441 -0.03 0.51 -0.86 0.07
1 7.21 721 -0.781 -8.749 4.386 2.747 -30.151 9.430 -569.929 -1649.975 -3794.928 0.500 0.160 0.324 -0.03 0.51 -0.86 0.08
1 7.22 722 -0.230 -8.969 4.391 9.949 -28.748 9.918 -674.860 -1349.871 -3824.908 -0.039 0.386 0.331 -0.03 0.51 -0.86 0.08
1 7.23 723 -0.407 -9.022 4.429 16.296 -26.917 7.538 -674.860 -1349.871 -3824.908 0.147 0.446 0.307 -0.03 0.51 -0.86 0.08
1 7.24 724 -0.177 -8.907 4.382 20.172 -25.879 5.768 -659.870 -1439.962 -3764.947 -0.073 0.343 0.377 -0.03 0.51 -0.86 0.08
1 7.25 725 -0.024 -8.686 4.291 19.836 -24.933 5.524 -659.870 -1439.962 -3764.947 -0.214 0.137 0.493 -0.04 0.5 -0.86 0.08
1 7.26 726 -0.053 -8.653 4.305 13.428 -23.773 3.876 -734.971 -1484.933 -3809.918 -0.172 0.116 0.502 -0.04 0.5 -0.86 0.08
1 7.27 727 -0.010 -8.768 4.473 4.700 -21.668 0.427 -584.919 -1484.933 -3809.918 -0.200 0.239 0.349 -0.04 0.5 -0.86 0.09
1 7.28 728 -0.019 -8.983 4.415 4.608 -18.311 -1.923 -584.919 -1484.933 -3809.918 -0.173 0.457 0.413 -0.04 0.5 -0.86 0.09
1 7.29 729 -0.450 -9.376 4.367 8.453 -13.214 -4.028 -794.932 -1439.962 -3764.947 0.294 0.855 0.470 -0.04 0.5 -0.86 0.09
1 7.30 730 -0.867 -9.395 4.492 11.963 -11.444 -2.899 -794.932 -1439.962 -3764.947 0.724 0.878 0.354 -0.04 0.5 -0.86 0.09
1 7.31 731 -1.010 -9.443 4.602 15.106 -10.620 -1.312 -749.961 -1499.923 -3674.856 0.875 0.933 0.257 -0.04 0.5 -0.86 0.09
1 7.32 732 -1.264 -9.256 4.755 16.235 -11.444 1.862 -749.961 -1499.923 -3674.856 1.133 0.756 0.120 -0.04 0.5 -0.86 0.09
1 7.33 733 -0.991 -9.299 5.674 11.108 -13.550 8.301 -674.860 -1544.894 -3794.928 0.857 0.809 -0.782 -0.04 0.5 -0.86 0.09
1 7.34 734 1.422 -9.764 7.178 -32.074 -15.472 31.616 -704.991 -1544.894 -3674.856 -1.564 1.279 -2.276 -0.04 0.5 -0.86 0.09
1 7.35 735 2.595 -10.372 7.638 -56.702 -2.960 48.645 -704.991 -1544.894 -3674.856 -2.760 1.872 -2.763 -0.04 0.5 -0.86 0.09
1 7.36 736 0.991 -10.841 5.038 -0.427 23.285 37.781 -779.942 -1499.923 -3749.957 -1.279 2.279 -0.280 -0.04 0.51 -0.86 0.1
1 7.37 737 0.220 -10.339 4.798 23.041 29.266 31.250 -779.942 -1499.923 -3749.957 -0.572 1.786 -0.026 -0.04 0.51 -0.86 0.1
1 7.38 738 -1.001 -8.284 5.387 22.888 35.858 28.290 -704.991 -1469.942 -3794.928 0.588 -0.239 -0.568 -0.03 0.5 -0.86 0.1
1 7.39 739 -1.518 -7.743 5.440 -22.736 29.205 29.724 -704.991 -1469.942 -3794.928 1.039 -0.767 -0.604 -0.03 0.5 -0.86 0.1
1 7.40 740 -1.652 -8.121 5.105 -58.869 17.639 27.344 -794.932 -1514.913 -3764.947 1.110 -0.407 -0.308 -0.03 0.5 -0.86 0.1
1 7.41 741 -1.623 -8.710 5.713 -62.805 15.503 9.918 -734.971 -1514.913 -3704.986 1.030 0.142 -0.994 -0.02 0.51 -0.85 0.1
1 7.42 742 -1.973 -9.615 6.469 -53.131 23.926 3.662 -734.971 -1514.913 -3704.986 1.345 1.005 -1.832 -0.02 0.51 -0.85 0.1
1 7.43 743 -2.461 -10.185 6.469 -40.619 29.053 11.597 -659.870 -1439.962 -3839.898 1.810 1.538 -1.904 -0.02 0.52 -0.85 0.1
1 7.44 744 -2.988 -8.983 5.651 -5.646 8.118 22.400 -599.909 -1424.972 -3749.957 2.265 0.292 -1.180 -0.02 0.52 -0.85 0.1
1 7.45 745 -2.447 -7.537 4.827 23.956 -19.196 16.785 -584.919 -1364.861 -3809.918 1.695 -1.149 -0.353 -0.02 0.52 -0.85 0.1
1 7.46 746 -1.121 -6.330 4.578 33.630 -42.359 13.702 -584.919 -1364.861 -3809.918 0.352 -2.330 -0.057 -0.02 0.52 -0.85 0.1
1 7.47 747 0.790 -5.421 4.994 13.763 -51.026 21.149 -539.948 -1439.962 -3584.915 -1.547 -3.217 -0.427 -0.02 0.52 -0.85 0.11
1 7.48 748 3.907 -6.019 5.646 -56.641 -29.144 38.605 -584.919 -1289.910 -3659.866 -4.661 -2.612 -1.066 -0.02 0.52 -0.85 0.11
1 7.49 749 5.057 -7.274 6.211 -99.976 -0.824 44.342 -584.919 -1289.910 -3659.866 -5.833 -1.384 -1.684 -0.02 0.52 -0.85 0.11
1 7.50 750 5.368 -9.041 5.856 -111.298 25.971 43.701 -584.919 -1364.861 -3584.915 -6.158 0.332 -1.432 -0.02 0.52 -0.84 0.11
1 7.51 751 3.855 -10.516 5.047 -54.993 50.720 19.592 -599.909 -1274.919 -3749.957 -4.791 1.685 -0.902 -0.02 0.54 -0.84 0.12
1 7.52 752 2.145 -10.343 4.908 3.143 54.505 -7.111 -569.929 -1349.871 -3749.957 -3.131 1.490 -0.824 -0.01 0.54 -0.83 0.11
1 7.53 753 0.704 -9.864 5.023 35.736 53.955 -26.032 -569.929 -1349.871 -3749.957 -1.706 1.018 -0.928 -0.01 0.54 -0.83 0.11
1 7.54 754 -0.450 -9.366 5.229 31.738 50.720 -33.081 -494.978 -1124.867 -3794.928 -0.545 0.539 -1.091 -0.01 0.54 -0.84 0.11
1 7.55 755 -1.417 -9.208 4.937 10.773 45.929 -29.968 -434.867 -1139.857 -3704.986 0.438 0.394 -0.767 -0.01 0.54 -0.84 0.1
1 7.56 756 -1.901 -8.830 3.951 4.974 34.363 -18.982 -434.867 -1139.857 -3704.986 0.931 0.019 0.229 -0 0.54 -0.84 0.1
1 7.57 757 -1.628 -8.653 3.788 12.573 23.712 -13.275 -539.948 -1169.988 -3584.915 0.657 -0.157 0.393 -0 0.54 -0.84 0.09
1 7.58 758 -0.886 -8.490 4.353 13.580 12.085 -9.522 -344.925 -1304.900 -3794.928 -0.088 -0.315 -0.162 0 0.53 -0.84 0.09
1 7.59 759 0.541 -8.318 5.004 1.617 1.984 -9.003 -539.948 -1214.958 -3659.866 -1.505 -0.474 -0.782 0 0.53 -0.84 0.09
1 7.60 760 1.274 -8.821 5.272 -4.486 5.432 -13.153 -539.948 -1214.958 -3659.866 -2.215 0.030 -1.044 0 0.53 -0.84 0.09
1 7.61 761 1.580 -9.156 5.062 2.106 12.939 -17.670 -434.867 -1289.910 -3764.947 -2.491 0.363 -0.831 -0 0.53 -0.84 0.09
1 7.62 762 1.216 -9.103 4.899 18.311 22.339 -18.219 -464.997 -1214.958 -3659.866 -2.093 0.313 -0.656 -0 0.53 -0.84 0.08
1 7.63 763 0.397 -8.418 4.520 36.896 27.680 -16.449 -464.997 -1214.958 -3659.866 -1.248 -0.359 -0.246 -0 0.53 -0.84 0.08
1 7.64 764 -0.110 -8.097 4.434 36.865 25.757 -16.113 -284.964 -1364.861 -3629.885 -0.723 -0.658 -0.112 0 0.53 -0.85 0.08
1 7.65 765 -0.474 -7.576 4.315 29.785 20.203 -16.174 -389.896 -1214.958 -3659.866 -0.347 -1.157 0.058 0 0.53 -0.85 0.08
1 7.66 766 -0.244 -7.604 4.075 20.630 15.625 -13.245 -344.925 -1199.968 -3719.977 -0.556 -1.092 0.371 0 0.52 -0.85 0.07
1 7.67 767 0.378 -7.734 4.099 17.304 17.883 -8.392 -344.925 -1199.968 -3719.977 -1.172 -0.951 0.372 0 0.52 -0.85 0.07
1 7.68 768 0.881 -7.719 4.156 14.374 22.553 -3.143 -374.906 -1304.900 -3749.957 -1.677 -0.954 0.336 0.01 0.52 -0.85 0.07
1 7.69 769 1.097 -7.724 4.415 9.277 29.877 0.671 -269.974 -1274.919 -3854.889 -1.906 -0.940 0.093 0.01 0.52 -0.85 0.07
1 7.70 770 0.948 -7.868 4.252 -0.824 40.650 0.458 -269.974 -1274.919 -3854.889 -1.767 -0.790 0.265 0.01 0.52 -0.85 0.07
1 7.71 771 0.393 -8.495 4.166 -3.357 42.938 -0.763 -254.984 -1259.929 -3734.967 -1.226 -0.162 0.350 0.01 0.52 -0.85 0.06
1 7.72 772 0.000 -8.835 4.137 2.350 40.772 -0.366 -344.925 -1274.919 -3824.908 -0.849 0.175 0.371 0.01 0.52 -0.85 0.06
1 7.73 773 -0.230 -8.974 3.749 19.592 33.997 1.465 -254.984 -1259.929 -3764.947 -0.658 0.319 0.760 0.02 0.52 -0.85 0.06
1 7.74 774 -0.297 -8.777 3.682 27.252 28.900 3.510 -254.984 -1259.929 -3764.947 -0.611 0.135 0.849 0.02 0.52 -0.85 0.06
1 7.75 775 -0.211 -8.346 3.697 28.839 24.353 5.798 -164.893 -1424.972 -3899.859 -0.716 -0.278 0.864 0.02 0.52 -0.85 0.06
1 7.76 776 0.000 -8.035 3.730 23.468 21.423 8.148 -194.873 -1469.942 -3794.928 -0.946 -0.571 0.861 0.02 0.52 -0.86 0.06
1 7.77 777 0.287 -8.026 3.749 14.404 20.905 11.169 -194.873 -1469.942 -3794.928 -1.253 -0.566 0.864 0.02 0.51 -0.86 0.05
1 7.78 778 0.464 -8.447 4.056 3.235 25.513 12.726 -284.964 -1484.933 -3764.947 -1.456 -0.135 0.570 0.03 0.51 -0.86 0.05
1 7.79 779 0.369 -8.912 4.180 3.510 28.351 11.658 -269.974 -1469.942 -3719.977 -1.384 0.332 0.446 0.03 0.51 -0.86 0.05
1 7.80 780 0.201 -9.031 4.583 13.519 30.731 9.827 -119.922 -1544.894 -3899.859 -1.263 0.459 0.046 0.03 0.51 -0.86 0.05
1 7.81 781 0.005 -9.050 4.592 18.097 30.853 8.270 -119.922 -1544.894 -3899.859 -1.090 0.489 0.051 0.03 0.51 -0.86 0.05
1 7.82 782 -0.455 -8.667 4.789 25.147 31.250 2.228 -59.961 -1364.861 -3944.980 -0.650 0.122 -0.120 0.04 0.51 -0.86 0.05
1 7.83 783 -1.154 -8.653 4.813 23.468 30.243 -0.580 0.000 -1484.933 -3944.980 0.032 0.126 -0.115 0.04 0.51 -0.86 0.05
1 7.84 784 -1.432 -8.643 4.674 21.881 27.924 0.916 0.000 -1484.933 -3944.980 0.290 0.133 0.050 0.04 0.51 -0.86 0.05
1 7.85 785 -1.293 -8.581 4.391 22.308 20.691 5.585 -89.941 -1499.923 -3824.908 0.128 0.087 0.356 0.04 0.51 -0.86 0.05
1 7.86 786 -1.240 -8.284 3.970 21.729 15.625 5.554 14.990 -1499.923 -3899.859 0.052 -0.193 0.801 0.04 0.5 -0.86 0.05
1 7.87 787 -0.929 -7.968 3.721 15.381 11.017 3.479 14.990 -1499.923 -3899.859 -0.280 -0.492 1.075 0.05 0.5 -0.86 0.04
1 7.88 788 -0.555 -7.954 3.821 -4.242 1.587 -0.854 89.941 -1424.972 -3899.859 -0.671 -0.491 0.997 0.05 0.5 -0.86 0.04
1 7.89 789 -0.115 -8.380 4.065 -14.954 -1.221 -1.770 119.922 -1469.942 -3794.928 -1.108 -0.071 0.742 0.05 0.5 -0.86 0.04
1 7.90 790 0.287 -9.041 4.267 -19.348 -2.014 -3.479 59.961 -1754.907 -3915.000 -1.499 0.574 0.518 0.05 0.5 -0.86 0.04
1 7.91 791 0.584 -9.323 4.616 -17.609 -1.648 -3.448 59.961 -1754.907 -3915.000 -1.779 0.839 0.141 0.05 0.51 -0.86 0.04
1 7.92 792 -0.345 -8.955 5.947 -17.365 2.014 -16.632 44.971 -1619.995 -4004.941 -0.829 0.454 -1.214 0.05 0.51 -0.86 0.04
1 7.93 793 -2.208 -8.600 6.829 -33.753 1.282 -39.215 104.932 -1484.933 -3989.951 1.056 0.086 -2.115 0.04 0.51 -0.86 0.04
1 7.94 794 -3.438 -9.094 6.829 -60.456 -8.423 -62.653 104.932 -1484.933 -3989.951 2.333 0.554 -2.149 0.04 0.51 -0.86 0.04
1 7.95 795 -1.025 -11.967 5.100 -49.103 -30.426 -57.739 59.961 -1409.981 -4064.902 0.104 3.325 -0.571 0.04 0.52 -0.85 0.03
1 7.96 796 0.661 -11.981 4.583 -4.364 -38.605 -33.814 29.980 -1409.981 -3839.898 -1.489 3.306 -0.100 0.03 0.52 -0.85 0.03
1 7.97 797 1.274 -10.171 4.899 33.753 -40.894 -18.890 -14.990 -1274.919 -3929.990 -2.036 1.498 -0.401 0.03 0.52 -0.85 0.03
1 7.98 798 1.111 -8.514 5.133 27.161 -35.950 -23.743 -14.990 -1274.919 -3929.990 -1.818 -0.136 -0.583 0.03 0.52 -0.86 0.03
1 7.99 799 0.646 -7.848 5.243 -19.318 -32.135 -33.905 -44.971 -1379.851 -3794.928 -1.279 -0.792 -0.662 0.02 0.52 -0.86 0.03
1 8.00 800 0.661 -8.988 5.976 -83.374 -33.081 -32.684 -104.932 -1409.981 -3944.980 -1.215 0.326 -1.426 0.02 0.52 -0.86 0.03
1 8.01 801 1.307 -10.808 6.699 -105.866 -34.546 -20.966 -104.932 -1409.981 -3944.980 -1.785 2.095 -2.238 0.01 0.52 -0.85 0.02
1 8.02 802 2.322 -12.292 7.240 -103.150 -34.393 -2.716 -224.854 -1469.942 -3929.990 -2.743 3.510 -2.911 0.01 0.53 -0.85 0.02
1 8.03 803 3.802 -12.225 6.900 -23.254 -18.433 7.629 -224.854 -1379.851 -3824.908 -4.177 3.328 -2.808 0.01 0.54 -0.84 0.03
1 8.04 804 3.898 -10.382 6.196 54.505 1.495 1.465 -224.854 -1154.998 -3854.889 -4.272 1.484 -2.106 0 0.54 -0.84 0.03
1 8.05 805 3.290 -8.275 5.971 97.168 24.139 -8.087 -224.854 -1154.998 -3854.889 -3.666 -0.579 -1.787 0 0.54 -0.84 0.03
1 8.06 806 1.757 -6.067 6.000 90.424 47.089 -22.064 -329.935 -1259.929 -3764.947 -2.123 -2.720 -1.677 0.01 0.53 -0.85 0.03
1 8.07 807 -2.322 -4.247 5.449 15.839 63.996 -42.755 -389.896 -1364.861 -3839.898 1.968 -4.483 -1.012 0.01 0.52 -0.85 0.02
1 8.08 808 -4.875 -4.592 4.578 -47.058 44.190 -57.465 -389.896 -1364.861 -3839.898 4.530 -4.118 -0.101 0.01 0.52 -0.85 0.02
1 8.09 809 -6.144 -6.321 3.769 -81.543 7.568 -68.054 -284.964 -1289.910 -3944.980 5.837 -2.414 0.664 0.01 0.52 -0.85 0.01
1 8.10 810 -5.416 -8.677 3.606 -61.279 -38.574 -54.199 -254.984 -1364.861 -3944.980 5.224 -0.160 0.626 0.01 0.53 -0.85 0.01
1 8.11 811 -4.525 -9.070 3.816 -28.687 -45.014 -30.182 -269.974 -1304.900 -3854.889 4.405 0.198 0.345 0 0.54 -0.84 0.01
1 8.12 812 -3.448 -8.782 3.917 -8.118 -43.121 -9.064 -269.974 -1304.900 -3854.889 3.391 -0.104 0.216 -0 0.54 -0.84 0.01
1 8.13 813 -2.471 -8.179 4.343 -5.524 -45.654 9.125 -179.883 -1064.906 -3839.898 2.420 -0.711 -0.219 -0 0.54 -0.84 0.01
1 8.14 814 -1.528 -8.145 4.635 -28.381 -55.145 13.489 -329.935 -1094.887 -3944.980 1.471 -0.748 -0.518 -0 0.54 -0.84 0.01
1 8.15 815 -0.268 -9.170 4.621 -39.917 -61.615 2.686 -329.935 -1094.887 -3944.980 0.213 0.265 -0.530 -0.01 0.54 -0.84 0.02
1 8.16 816 0.915 -9.884 4.377 -30.914 -61.463 -4.334 -419.876 -1124.867 -3794.928 -0.945 0.958 -0.331 -0.01 0.54 -0.84 0.02
1 8.17 817 1.896 -10.123 4.904 -0.488 -41.992 4.486 -494.978 -1154.998 -3899.859 -1.844 1.169 -0.920 -0.02 0.54 -0.84 0.02
1 8.18 818 1.753 -9.453 5.066 2.625 -20.752 14.404 -359.916 -1019.936 -3764.947 -1.687 0.500 -1.080 -0.02 0.54 -0.84 0.03
1 8.19 819 0.536 -9.127 4.808 -5.463 -2.411 16.327 -359.916 -1019.936 -3764.947 -0.481 0.176 -0.819 -0.02 0.54 -0.84 0.03
1 8.20 820 -0.804 -9.242 4.291 -10.895 3.235 15.503 -539.948 -989.955 -3704.986 0.844 0.289 -0.306 -0.02 0.54 -0.84 0.03
1 8.21 821 -1.829 -9.663 4.013 -6.012 -5.005 16.693 -449.857 -1154.998 -3824.908 1.843 0.705 -0.039 -0.02 0.54 -0.84 0.03
1 8.22 822 -1.614 -9.754 4.013 16.113 -27.496 23.926 -449.857 -1154.998 -3824.908 1.597 0.794 -0.043 -0.02 0.55 -0.84 0.03
1 8.23 823 -0.800 -9.256 4.032 30.579 -33.600 27.618 -419.876 -1154.998 -3794.928 0.753 0.303 -0.047 -0.02 0.54 -0.84 0.03
1 8.24 824 0.330 -8.198 4.089 30.731 -27.191 28.687 -464.997 -1169.988 -3704.986 -0.425 -0.716 -0.018 -0.02 0.54 -0.84 0.04
1 8.25 825 0.397 -7.959 4.113 24.201 -22.461 29.724 -584.919 -1094.887 -3734.967 -0.513 -0.936 -0.001 -0.02 0.54 -0.84 0.04
1 8.26 826 0.177 -7.939 3.884 -3.693 -12.238 26.611 -584.919 -1094.887 -3734.967 -0.319 -0.947 0.247 -0.02 0.54 -0.84 0.05
1 8.27 827 0.024 -8.452 3.855 -17.792 -10.773 21.088 -629.890 -1049.916 -3854.889 -0.191 -0.438 0.267 -0.02 0.54 -0.84 0.05
1 8.28 828 -0.129 -9.007 3.903 -19.318 -11.597 14.435 -614.899 -1169.988 -3915.000 -0.055 0.107 0.194 -0.02 0.54 -0.84 0.05
1 8.29 829 -0.081 -9.702 3.816 3.418 -14.008 3.967 -614.899 -1169.988 -3915.000 -0.112 0.791 0.258 -0.02 0.54 -0.84 0.05
1 8.30 830 -0.292 -9.644 3.754 23.651 -15.808 -1.190 -494.978 -1154.998 -3899.859 0.102 0.732 0.317 -0.02 0.54 -0.84 0.05
1 8.31 831 -0.651 -9.213 3.663 37.293 -17.700 -3.967 -494.978 -1154.998 -3899.859 0.472 0.311 0.431 -0.02 0.54 -0.84 0.05
1 8.32 832 -1.030 -8.485 3.366 37.720 -21.973 -4.486 -569.929 -1004.945 -3749.957 0.881 -0.372 0.825 -0.03 0.53 -0.84 0.06
1 8.33 833 -1.173 -8.165 3.443 25.757 -24.933 -2.655 -569.929 -1004.945 -3749.957 1.039 -0.672 0.793 -0.03 0.53 -0.84 0.06
1 8.34 834 -1.192 -8.227 3.563 13.977 -26.886 0.153 -614.899 -1139.857 -3944.980 1.071 -0.595 0.703 -0.03 0.53 -0.85 0.06
1 8.35 835 -1.010 -8.409 3.673 7.233 -27.985 1.953 -674.860 -1049.916 -3899.859 0.899 -0.406 0.608 -0.03 0.53 -0.85 0.06
1 8.36 836 -0.699 -8.691 3.783 9.705 -28.442 3.601 -674.860 -1049.916 -3899.859 0.597 -0.120 0.506 -0.03 0.53 -0.85 0.06
1 8.37 837 -0.484 -8.557 3.907 18.005 -28.168 1.282 -629.890 -1199.968 -3929.990 0.392 -0.248 0.393 -0.03 0.53 -0.85 0.06
1 8.38 838 -0.417 -8.533 4.042 28.198 -27.618 -0.641 -629.890 -1199.968 -3929.990 0.338 -0.263 0.279 -0.03 0.53 -0.85 0.06
1 8.39 839 -0.603 -8.318 3.907 37.079 -24.231 -2.777 -599.909 -1349.871 -3899.859 0.559 -0.439 0.492 -0.04 0.52 -0.85 0.07
1 8.40 840 -0.843 -8.126 3.946 34.790 -22.186 -1.434 -599.909 -1349.871 -3899.859 0.814 -0.606 0.503 -0.04 0.52 -0.85 0.07
1 8.41 841 -0.723 -7.925 3.965 25.696 -20.691 1.404 -690.000 -1214.958 -3839.898 0.706 -0.784 0.528 -0.04 0.52 -0.85 0.07
1 8.42 842 -0.761 -8.203 3.975 12.848 -22.125 3.296 -764.952 -1334.880 -3944.980 0.751 -0.491 0.549 -0.04 0.52 -0.85 0.07
1 8.43 843 -0.498 -8.639 4.008 1.801 -23.926 5.035 -764.952 -1334.880 -3944.980 0.494 -0.048 0.528 -0.04 0.52 -0.85 0.07
1 8.44 844 -0.129 -9.338 4.439 -0.275 -28.687 7.629 -824.913 -1229.949 -3854.889 0.131 0.650 0.096 -0.04 0.52 -0.85 0.07
1 8.45 845 0.287 -9.419 4.664 7.446 -29.083 7.477 -824.913 -1229.949 -3854.889 -0.278 0.730 -0.132 -0.05 0.52 -0.85 0.07
1 8.46 846 0.536 -9.539 4.889 16.235 -26.795 7.355 -764.952 -1259.929 -3944.980 -0.517 0.853 -0.352 -0.05 0.52 -0.85 0.08
1 8.47 847 0.651 -9.098 4.712 30.365 -20.081 9.796 -674.860 -1274.919 -4004.941 -0.609 0.438 -0.124 -0.05 0.51 -0.85 0.08
1 8.48 848 0.498 -8.706 4.492 34.149 -10.986 11.993 -779.942 -1379.851 -3974.960 -0.452 0.068 0.138 -0.05 0.51 -0.85 0.08
1 8.49 849 0.029 -8.107 4.094 32.715 -3.052 13.641 -764.952 -1364.861 -3989.951 0.012 -0.506 0.581 -0.05 0.51 -0.86 0.08
1 8.50 850 -0.752 -7.868 3.596 24.475 2.991 13.092 -764.952 -1364.861 -3989.951 0.777 -0.724 1.119 -0.05 0.51 -0.86 0.08
1 8.51 851 -1.599 -7.738 3.386 1.038 2.472 13.580 -749.961 -1304.900 -4049.912 1.606 -0.837 1.358 -0.05 0.51 -0.86 0.08
1 8.52 852 -1.939 -7.949 3.457 -14.343 -3.571 12.177 -749.961 -1304.900 -4049.912 1.927 -0.622 1.295 -0.05 0.51 -0.86 0.08
1 8.53 853 -2.212 -8.725 3.745 -22.125 -11.322 11.322 -869.883 -1409.981 -3989.951 2.185 0.147 0.995 -0.05 0.51 -0.86 0.08
1 8.54 854 -2.026 -9.908 5.153 -17.609 -13.672 10.315 -749.961 -1424.972 -3929.990 1.958 1.295 -0.477 -0.05 0.51 -0.86 0.09
1 8.55 855 -0.886 -10.784 5.837 -17.365 -13.672 20.783 -764.952 -1514.913 -4139.853 0.805 2.159 -1.185 -0.05 0.51 -0.85 0.09
1 8.56 856 1.288 -11.344 6.421 -43.244 -16.724 47.699 -614.899 -1409.981 -4064.902 -1.394 2.705 -1.797 -0.05 0.51 -0.85 0.09
1 8.57 857 3.189 -11.205 8.112 -70.313 -10.101 75.226 -614.899 -1409.981 -4064.902 -3.357 2.531 -3.555 -0.05 0.52 -0.85 0.09
1 8.58 858 2.715 -11.636 6.019 -23.041 25.269 53.528 -839.903 -1259.929 -3915.000 -2.981 2.917 -1.553 -0.04 0.52 -0.85 0.1
1 8.59 859 -0.249 -10.693 5.406 32.257 50.385 29.572 -839.903 -1259.929 -3915.000 -0.111 1.952 -0.989 -0.04 0.52 -0.85 0.1
1 8.60 860 -1.235 -9.778 6.043 34.912 54.505 36.774 -944.984 -1259.929 -3884.869 0.800 1.054 -1.601 -0.04 0.52 -0.85 0.1
1 8.61 861 -1.015 -7.930 7.494 -54.962 24.109 57.587 -690.000 -1289.910 -3915.000 0.404 -0.764 -3.013 -0.03 0.52 -0.85 0.1
1 8.62 862 -0.220 -8.610 6.603 -87.250 12.238 41.382 -629.890 -1154.998 -3929.990 -0.478 -0.124 -2.213 -0.02 0.52 -0.84 0.11
1 8.63 863 -0.378 -9.730 5.655 -58.136 22.797 11.108 -434.867 -1139.857 -4019.931 -0.374 0.945 -1.378 -0.02 0.53 -0.84 0.11
1 8.64 864 -1.748 -10.037 5.627 -3.418 37.262 -0.610 -434.867 -1139.857 -4019.931 0.970 1.224 -1.411 -0.02 0.53 -0.84 0.1
1 8.65 865 -3.022 -9.295 5.718 24.323 33.386 11.078 -539.948 -1094.887 -3839.898 2.218 0.486 -1.497 -0.02 0.53 -0.84 0.1
1 8.66 866 -3.180 -7.025 5.282 -0.153 -4.700 23.834 -539.948 -1094.887 -3839.898 2.338 -1.766 -1.032 -0.01 0.53 -0.84 0.1
1 8.67 867 -2.284 -6.556 4.851 -32.471 -27.069 17.426 -494.978 -1154.998 -3899.859 1.392 -2.221 -0.582 -0.01 0.53 -0.84 0.1
1 8.68 868 0.785 -7.805 4.994 -66.284 -37.079 24.506 -494.978 -1079.896 -3899.859 -1.696 -1.011 -0.814 -0.01 0.54 -0.84 0.11
1 8.69 869 1.604 -8.270 5.334 -72.266 -32.318 30.853 -629.890 -1199.968 -4004.941 -2.524 -0.585 -1.238 -0.02 0.54 -0.83 0.11
1 8.70 870 3.735 -9.927 6.072 -72.876 -10.284 42.969 -419.876 -1079.896 -3854.889 -4.685 1.032 -2.070 -0.02 0.54 -0.83 0.11
1 8.71 871 4.166 -10.707 5.526 -50.659 -0.427 33.875 -419.876 -1079.896 -3854.889 -5.168 1.777 -1.616 -0.02 0.55 -0.83 0.12
1 8.72 872 4.046 -10.516 4.904 -7.263 1.343 11.597 -359.916 -1064.906 -3839.898 -5.087 1.566 -1.049 -0.01 0.55 -0.83 0.12
1 8.73 873 3.505 -9.113 4.688 54.596 10.162 -22.186 -359.916 -1064.906 -3839.898 -4.554 0.167 -0.826 -0.01 0.55 -0.83 0.12
1 8.74 874 2.768 -8.303 4.750 59.082 25.726 -33.875 -374.906 -929.994 -3824.908 -3.796 -0.617 -0.824 -0.01 0.55 -0.83 0.12
1 8.75 875 1.101 -7.959 5.062 34.149 46.234 -36.530 -599.909 -884.874 -3794.928 -2.083 -0.930 -1.052 -0.01 0.54 -0.83 0.11
1 8.76 876 -1.245 -8.394 4.913 -11.841 66.071 -23.316 -494.978 -1124.867 -3899.859 0.333 -0.467 -0.829 -0.01 0.54 -0.84 0.1
1 8.77 877 -2.715 -8.706 3.922 -19.775 60.364 -11.169 -494.978 -1079.896 -3794.928 1.790 -0.165 0.140 -0.01 0.54 -0.84 0.1
1 8.78 878 -3.232 -8.931 3.453 -9.003 37.354 -3.998 -494.978 -1079.896 -3794.928 2.274 0.050 0.579 -0 0.54 -0.83 0.09
1 8.79 879 -2.648 -8.701 3.409 10.132 4.700 -3.967 -509.968 -1094.887 -3884.869 1.661 -0.182 0.610 -0 0.54 -0.83 0.09
1 8.80 880 -0.148 -8.346 4.372 20.660 -29.511 -8.575 -509.968 -1094.887 -3884.869 -0.844 -0.529 -0.336 0 0.54 -0.83 0.09
1 8.81 881 1.379 -8.375 5.062 11.810 -29.114 -7.843 -509.968 -1094.887 -3809.918 -2.349 -0.488 -0.993 -0 0.54 -0.84 0.09
1 8.82 882 2.457 -8.811 5.186 4.669 -13.031 -4.303 -344.925 -1124.867 -3899.859 -3.387 -0.042 -1.088 -0 0.54 -0.84 0.09
1 8.83 883 2.413 -8.993 4.923 11.322 18.616 0.183 -494.978 -1004.945 -3899.859 -3.278 0.149 -0.789 -0.01 0.54 -0.84 0.09
1 8.84 884 1.561 -8.806 4.520 25.848 29.175 -1.862 -449.857 -1124.867 -3854.889 -2.413 -0.027 -0.364 -0.01 0.54 -0.84 0.09
1 8.85 885 0.680 -8.481 4.300 38.239 29.633 -7.385 -449.857 -1124.867 -3854.889 -1.525 -0.335 -0.103 -0 0.53 -0.84 0.09
1 8.86 886 -0.081 -7.930 4.008 44.190 23.071 -12.116 -569.929 -1049.916 -3929.990 -0.757 -0.861 0.242 -0 0.53 -0.84 0.09
1 8.87 887 -0.546 -7.619 3.764 41.870 14.130 -14.771 -569.929 -1049.916 -3929.990 -0.281 -1.144 0.546 -0 0.53 -0.84 0.08
1 8.88 888 -0.144 -7.087 3.946 26.672 7.782 -12.054 -434.867 -1139.857 -3915.000 -0.671 -1.650 0.417 -0 0.53 -0.85 0.08
1 8.89 889 0.239 -7.159 3.955 13.947 12.268 -6.714 -569.929 -1124.867 -3899.859 -1.042 -1.560 0.447 -0 0.52 -0.85 0.08
1 8.90 890 0.551 -7.394 4.013 2.869 21.729 -1.190 -569.929 -1124.867 -3899.859 -1.349 -1.314 0.413 -0 0.52 -0.85 0.08
1 8.91 891 0.187 -7.896 4.123 -7.721 32.654 5.554 -464.997 -1214.958 -4019.931 -1.016 -0.809 0.302 0 0.52 -0.85 0.08
1 8.92 892 -0.034 -8.461 4.109 -9.979 32.990 8.057 -464.997 -1214.958 -4019.931 -0.822 -0.248 0.302 0 0.52 -0.85 0.08
1 8.93 893 0.125 -8.916 4.061 -6.012 27.191 9.338 -359.916 -1094.887 -4019.931 -1.006 0.201 0.334 0.01 0.53 -0.85 0.08
1 8.94 894 0.340 -8.969 4.089 6.500 20.355 10.254 -359.916 -1094.887 -4019.931 -1.243 0.252 0.296 0.01 0.53 -0.85 0.08
1 8.95 895 0.982 -8.935 3.946 25.086 18.250 8.575 -299.955 -1154.998 -4004.941 -1.901 0.225 0.449 0.01 0.53 -0.85 0.07
1 8.96 896 1.092 -8.864 4.027 31.647 22.034 8.209 -464.997 -1064.906 -3884.869 -2.023 0.167 0.393 0.01 0.52 -0.85 0.07
1 8.97 897 0.603 -8.591 4.070 34.790 28.229 8.575 -464.997 -1064.906 -3884.869 -1.544 -0.087 0.386 0.01 0.52 -0.85 0.07
1 8.98 898 -0.182 -8.112 4.065 31.464 35.462 12.146 -329.935 -1259.929 -4064.902 -0.797 -0.520 0.471 0.02 0.52 -0.85 0.07
1 8.99 899 -0.723 -8.126 3.812 25.787 33.966 12.512 -329.935 -1259.929 -4064.902 -0.289 -0.483 0.759 0.02 0.52 -0.85 0.07
1 9.00 900 -0.776 -8.289 3.515 20.294 27.435 14.038 -119.922 -1229.949 -4004.941 -0.273 -0.303 1.081 0.02 0.51 -0.85 0.07
1 9.01 901 -0.632 -8.184 3.529 17.944 21.057 12.604 -119.922 -1229.949 -4004.941 -0.451 -0.394 1.084 0.02 0.51 -0.85 0.07
1 9.02 902 -0.326 -8.093 3.874 11.353 18.555 7.446 -284.964 -1169.988 -4139.853 -0.784 -0.474 0.755 0.03 0.51 -0.86 0.07
1 9.03 903 0.077 -8.246 4.477 5.463 23.560 2.960 -269.974 -1229.949 -4184.974 -1.204 -0.312 0.163 0.03 0.51 -0.86 0.07
1 9.04 904 -0.163 -8.610 4.635 -0.793 28.320 0.366 -269.974 -1229.949 -4184.974 -0.977 0.057 0.010 0.03 0.51 -0.86 0.07
1 9.05 905 -0.843 -9.074 4.152 -0.519 27.069 -2.838 -119.922 -1304.900 -4109.873 -0.320 0.519 0.484 0.03 0.51 -0.86 0.06
1 9.06 906 -0.953 -9.266 4.142 2.411 19.287 -2.991 -119.922 -1304.900 -4109.873 -0.220 0.708 0.487 0.03 0.51 -0.86 0.06
1 9.07 907 -0.713 -9.314 3.946 5.341 10.559 -3.784 -89.941 -1229.949 -4079.892 -0.465 0.755 0.680 0.03 0.51 -0.86 0.06
1 9.08 908 -0.134 -9.266 4.123 6.989 3.113 -5.432 -89.941 -1229.949 -4079.892 -1.041 0.707 0.504 0.03 0.51 -0.86 0.06
1 9.09 909 0.316 -9.098 4.152 7.141 1.556 -6.561 -14.990 -1274.919 -4049.912 -1.477 0.541 0.480 0.03 0.51 -0.86 0.06
1 9.10 910 0.642 -9.592 3.984 9.674 4.150 -6.042 -179.883 -1289.910 -4019.931 -1.784 1.034 0.654 0.03 0.51 -0.86 0.06
1 9.11 911 0.804 -9.405 4.252 16.296 6.256 -4.028 -179.883 -1289.910 -4019.931 -1.927 0.849 0.392 0.03 0.51 -0.86 0.06
1 9.12 912 0.306 -8.481 5.157 12.512 15.778 -10.803 -44.971 -1274.919 -4079.892 -1.398 -0.062 -0.481 0.03 0.51 -0.86 0.05
1 9.13 913 -0.512 -8.265 5.416 4.395 20.783 -19.348 -44.971 -1274.919 -4079.892 -0.559 -0.274 -0.728 0.03 0.51 -0.86 0.05
1 9.14 914 -3.596 -8.097 6.699 -40.802 21.576 -54.291 -164.893 -1274.919 -4079.892 2.557 -0.455 -2.028 0.03 0.51 -0.86 0.05
1 9.15 915 -4.099 -9.769 6.211 -64.026 8.087 -64.728 -164.893 -1274.919 -4079.892 3.117 1.178 -1.598 0.03 0.51 -0.86 0.04
1 9.16 916 -2.452 -11.880 4.884 -51.514 -17.456 -51.361 -14.990 -1274.919 -4154.993 1.553 3.236 -0.355 0.03 0.52 -0.85 0.04
1 9.17 917 0.335 -10.884 4.741 23.621 -51.148 -17.365 -14.990 -1304.900 -4154.993 -1.158 2.207 -0.262 0.03 0.52 -0.85 0.04
1 9.18 918 0.857 -8.964 5.392 49.317 -53.955 -23.071 -14.990 -1304.900 -4154.993 -1.618 0.291 -0.893 0.02 0.52 -0.85 0.04
1 9.19 919 0.637 -7.647 5.765 20.874 -45.807 -40.344 -44.971 -1154.998 -4004.941 -1.333 -0.995 -1.198 0.02 0.52 -0.86 0.04
1 9.20 920 0.268 -7.499 6.627 -67.261 -37.445 -47.974 -59.961 -1289.910 -3989.951 -0.769 -1.136 -2.019 0.01 0.51 -0.86 0.04
1 9.21 921 1.010 -9.788 6.369 -106.507 -32.593 -34.241 -209.863 -1214.958 -3989.951 -1.419 1.104 -1.845 0 0.52 -0.85 0.03
1 9.22 922 2.026 -11.718 6.149 -108.094 -35.248 -7.019 -209.863 -1214.958 -3989.951 -2.370 2.961 -1.762 -0 0.53 -0.85 0.03
1 9.23 923 3.587 -11.770 6.038 -67.780 -35.309 15.015 -269.974 -1349.871 -4049.912 -3.906 2.948 -1.784 -0 0.53 -0.85 0.04
1 9.24 924 4.650 -9.582 5.660 30.304 -10.895 14.862 -344.925 -1199.968 -3974.960 -4.971 0.728 -1.473 -0 0.54 -0.84 0.04
1 9.25 925 4.549 -7.877 5.454 62.317 13.275 -3.296 -344.925 -1199.968 -3974.960 -4.883 -0.966 -1.244 -0 0.53 -0.84 0.04
1 9.26 926 3.309 -6.436 5.555 58.777 39.093 -20.569 -359.916 -989.955 -4019.931 -3.649 -2.369 -1.266 -0 0.53 -0.85 0.04
1 9.27 927 -0.326 -5.449 5.435 14.099 69.641 -43.640 -449.857 -1124.867 -4049.912 0.040 -3.282 -0.994 -0 0.52 -0.85 0.03
1 9.28 928 -3.093 -5.560 4.793 -24.811 69.245 -57.800 -464.997 -1064.906 -3884.869 2.823 -3.170 -0.348 0 0.52 -0.85 0.03
1 9.29 929 -5.536 -6.005 4.271 -59.418 42.877 -74.585 -464.997 -1064.906 -3884.869 5.306 -2.749 0.127 0 0.52 -0.85 0.02
1 9.30 930 -6.613 -7.240 3.611 -80.750 5.188 -88.867 -329.935 -1139.857 -3915.000 6.447 -1.558 0.703 0 0.53 -0.85 0.01
1 9.31 931 -6.354 -8.653 3.390 -76.813 -27.588 -87.433 -284.964 -1064.906 -4019.931 6.266 -0.198 0.817 -0 0.53 -0.85 0.01
1 9.32 932 -4.540 -10.420 3.831 -44.037 -52.918 -46.967 -284.964 -1064.906 -4019.931 4.587 1.524 0.279 -0.01 0.54 -0.84 0.01
1 9.33 933 -3.141 -10.463 4.156 -14.740 -56.244 -6.531 -389.896 -1019.936 -3884.869 3.298 1.537 -0.115 -0.01 0.54 -0.84 0
1 9.34 934 -1.872 -9.927 4.726 8.301 -55.573 22.919 -344.925 -959.975 -3854.889 2.087 0.988 -0.715 -0.02 0.54 -0.84 0.01
1 9.35 935 0.249 -9.175 5.243 17.395 -55.390 29.877 -449.857 -959.975 -3794.928 -0.029 0.248 -1.207 -0.02 0.54 -0.84 0.01
1 9.36 936 1.662 -8.773 5.081 9.918 -49.774 21.332 -449.857 -959.975 -3794.928 -1.447 -0.143 -1.017 -0.03 0.54 -0.84 0.02
1 9.37 937 2.739 -8.624 4.860 -3.876 -37.293 17.914 -524.958 -854.893 -3929.990 -2.513 -0.283 -0.781 -0.03 0.54 -0.84 0.02
1 9.38 938 3.074 -8.447 4.559 -16.876 -15.381 18.616 -614.899 -944.984 -3839.898 -2.835 -0.462 -0.483 -0.03 0.54 -0.84 0.02
1 9.39 939 1.551 -8.524 4.243 -29.846 18.707 8.911 -614.899 -944.984 -3839.898 -1.310 -0.395 -0.188 -0.03 0.54 -0.84 0.03
1 9.40 940 -0.570 -9.280 4.429 -36.224 22.583 -2.625 -599.909 -959.975 -3794.928 0.805 0.346 -0.408 -0.03 0.54 -0.84 0.03
1 9.41 941 -2.203 -10.549 4.707 -33.295 12.116 -9.979 -614.899 -839.903 -3989.951 2.430 1.596 -0.729 -0.03 0.54 -0.84 0.02
1 9.42 942 -2.643 -11.684 4.568 5.035 -8.545 0.488 -614.899 -989.955 -3884.869 2.882 2.700 -0.661 -0.03 0.55 -0.84 0.02
1 9.43 943 -2.002 -10.966 4.281 42.481 -14.282 17.700 -614.899 -989.955 -3884.869 2.241 1.991 -0.352 -0.03 0.55 -0.84 0.02
1 9.44 944 -1.413 -9.304 3.850 65.277 -11.475 30.396 -584.919 -914.854 -3839.898 1.632 0.359 0.148 -0.03 0.54 -0.84 0.03
1 9.45 945 -0.924 -7.805 3.678 59.235 -7.629 33.051 -509.968 -944.984 -3764.947 1.102 -1.100 0.410 -0.03 0.54 -0.84 0.03
1 9.46 946 -0.699 -6.881 3.917 8.270 -7.080 27.557 -509.968 -944.984 -3764.947 0.832 -1.991 0.243 -0.03 0.54 -0.84 0.03
1 9.47 947 -0.321 -7.547 3.941 -25.879 -10.651 19.928 -629.890 -929.994 -3929.990 0.420 -1.314 0.245 -0.03 0.53 -0.84 0.04
1 9.48 948 -0.239 -8.648 4.061 -38.849 -15.228 12.116 -629.890 -1154.998 -3899.859 0.316 -0.224 0.102 -0.03 0.54 -0.84 0.04
1 9.49 949 -0.230 -9.936 4.243 -6.958 -15.625 2.075 -659.870 -914.854 -3915.000 0.295 1.024 -0.168 -0.03 0.54 -0.84 0.04
1 9.50 950 -0.670 -9.764 4.176 27.618 -15.717 -2.258 -659.870 -914.854 -3915.000 0.744 0.853 -0.098 -0.03 0.54 -0.84 0.04
1 9.51 951 -1.164 -9.127 4.180 49.011 -16.846 -3.082 -614.899 -914.854 -3839.898 1.249 0.238 -0.056 -0.03 0.54 -0.84 0.04
1 9.52 952 -1.350 -8.346 3.989 48.737 -18.951 -2.106 -690.000 -1019.936 -3734.967 1.443 -0.511 0.204 -0.03 0.53 -0.84 0.04
1 9.53 953 -1.619 -7.911 3.888 32.959 -20.508 0.000 -690.000 -1019.936 -3734.967 1.716 -0.917 0.366 -0.03 0.53 -0.85 0.04
1 9.54 954 -1.461 -8.160 3.821 5.463 -22.034 4.181 -584.919 -1094.887 -3915.000 1.560 -0.650 0.471 -0.03 0.53 -0.85 0.05
1 9.55 955 -1.202 -8.543 3.759 -2.563 -22.553 7.294 -524.958 -1124.867 -3899.859 1.299 -0.260 0.547 -0.04 0.53 -0.85 0.05
1 9.56 956 -0.900 -8.988 3.879 4.059 -24.139 7.294 -659.870 -1019.936 -3839.898 0.990 0.183 0.422 -0.04 0.53 -0.85 0.05
1 9.57 957 -0.934 -9.204 3.721 9.125 -24.872 6.165 -659.870 -1019.936 -3839.898 1.023 0.401 0.587 -0.04 0.53 -0.85 0.05
1 9.58 958 -0.809 -9.079 4.013 24.017 -26.947 3.510 -614.899 -1019.936 -3915.000 0.902 0.287 0.314 -0.04 0.53 -0.85 0.05
1 9.59 959 -0.704 -8.935 4.046 31.372 -28.137 2.472 -839.903 -944.984 -3809.918 0.804 0.159 0.314 -0.04 0.53 -0.85 0.06
1 9.60 960 -0.713 -8.528 3.979 36.957 -29.389 4.089 -839.903 -944.984 -3809.918 0.824 -0.226 0.424 -0.04 0.52 -0.85 0.06
1 9.61 961 -0.383 -8.227 4.156 40.039 -28.870 4.608 -764.952 -1094.887 -3944.980 0.502 -0.503 0.296 -0.04 0.52 -0.85 0.06
1 9.62 962 -0.397 -8.011 4.401 38.300 -25.604 6.531 -779.942 -884.874 -3899.859 0.527 -0.691 0.104 -0.05 0.52 -0.85 0.06
1 9.63 963 -0.493 -7.796 4.362 33.203 -21.637 7.660 -779.942 -884.874 -3899.859 0.630 -0.879 0.195 -0.05 0.52 -0.85 0.06
1 9.64 964 -0.752 -7.671 4.142 21.820 -21.820 9.460 -854.893 -1079.896 -4004.941 0.893 -0.958 0.501 -0.05 0.51 -0.86 0.07
1 9.65 965 -0.915 -7.791 4.018 14.465 -25.391 10.529 -839.903 -1094.887 -3884.869 1.060 -0.824 0.652 -0.05 0.51 -0.86 0.07
1 9.66 966 -0.824 -7.983 3.884 7.813 -29.205 9.979 -779.942 -1229.949 -3899.859 0.971 -0.622 0.804 -0.05 0.51 -0.86 0.07
1 9.67 967 -0.555 -8.275 4.003 1.160 -28.229 10.620 -779.942 -1229.949 -3899.859 0.708 -0.326 0.692 -0.05 0.51 -0.86 0.07
1 9.68 968 0.000 -8.543 4.156 -11.475 -22.858 16.052 -794.932 -1289.910 -3989.951 0.152 -0.060 0.535 -0.05 0.51 -0.86 0.07
1 9.69 969 -0.048 -8.964 4.319 -20.477 -20.294 17.181 -704.991 -1124.867 -3929.990 0.194 0.354 0.359 -0.05 0.51 -0.86 0.08
1 9.70 970 -0.048 -9.453 4.429 -23.560 -17.578 14.710 -704.991 -1124.867 -3929.990 0.185 0.828 0.223 -0.05 0.51 -0.86 0.08
1 9.71 971 -0.517 -10.185 4.295 -10.742 -12.909 6.622 -749.961 -1154.998 -4004.941 0.642 1.528 0.295 -0.06 0.51 -0.85 0.08
1 9.72 972 -1.178 -10.315 4.262 7.690 -10.101 2.899 -854.893 -1154.998 -3899.859 1.305 1.653 0.321 -0.06 0.51 -0.85 0.08
1 9.73 973 -1.393 -10.056 4.607 22.644 -12.268 4.242 -854.893 -1229.949 -3854.889 1.524 1.404 -0.007 -0.06 0.51 -0.85 0.08
1 9.74 974 -0.886 -9.778 5.660 23.285 -14.862 8.972 -854.893 -1229.949 -3854.889 1.020 1.143 -1.027 -0.06 0.51 -0.85 0.08
1 9.75 975 0.733 -10.013 6.551 -2.716 -16.846 22.064 -764.952 -1214.958 -3884.869 -0.602 1.392 -1.892 -0.06 0.51 -0.85 0.08
1 9.76 976 3.184 -10.817 7.777 -61.524 -6.866 58.014 -854.893 -1154.998 -3974.960 -3.079 2.186 -3.138 -0.06 0.51 -0.85 0.09
1 9.77 977 2.418 -11.172 5.358 -31.006 11.475 55.512 -854.893 -1154.998 -3974.960 -2.375 2.500 -0.793 -0.06 0.51 -0.85 0.09
1 9.78 978 0.450 -10.415 4.530 26.825 25.452 31.098 -989.955 -1064.906 -3704.986 -0.488 1.715 -0.020 -0.05 0.52 -0.85 0.09
1 9.79 979 -1.183 -8.514 4.372 43.335 29.602 23.987 -779.942 -1004.945 -4004.941 1.029 -0.142 0.219 -0.05 0.51 -0.85 0.1
1 9.80 980 -1.451 -7.609 4.291 -2.991 21.942 30.396 -794.932 -1259.929 -3915.000 1.238 -1.024 0.343 -0.04 0.51 -0.85 0.1
1 9.81 981 -1.116 -7.652 4.061 -55.847 9.827 33.630 -794.932 -1259.929 -3915.000 0.840 -0.990 0.552 -0.04 0.51 -0.85 0.1
1 9.82 982 -0.532 -8.260 4.511 -85.388 10.345 26.276 -734.971 -1064.906 -3915.000 0.206 -0.425 0.016 -0.04 0.52 -0.85 0.1
1 9.83 983 -1.116 -9.970 6.105 -92.957 36.530 6.989 -824.913 -1229.949 -3974.960 0.750 1.226 -1.695 -0.04 0.52 -0.85 0.1
1 9.84 984 -1.939 -11.229 6.761 -88.043 50.598 12.177 -824.913 -1229.949 -3974.960 1.541 2.425 -2.475 -0.04 0.53 -0.84 0.1
1 9.85 985 -3.093 -11.727 6.484 -69.367 41.840 28.870 -779.942 -1079.896 -3749.957 2.652 2.866 -2.321 -0.03 0.54 -0.84 0.1
1 9.86 986 -3.218 -10.066 5.263 -4.883 -6.226 26.825 -674.860 -929.994 -3794.928 2.657 1.138 -1.261 -0.03 0.54 -0.83 0.1
1 9.87 987 -1.896 -8.715 5.057 36.530 -35.095 14.984 -449.857 -854.893 -3794.928 1.313 -0.206 -1.043 -0.03 0.54 -0.83 0.1
1 9.88 988 0.086 -7.815 5.569 44.922 -46.570 17.944 -449.857 -854.893 -3794.928 -0.669 -1.077 -1.491 -0.03 0.54 -0.84 0.1
1 9.89 989 2.284 -7.350 6.244 17.517 -36.377 33.325 -659.870 -914.854 -3809.918 -2.865 -1.509 -2.096 -0.03 0.54 -0.84 0.1
