COL1	TIME	ACC_X	ACC_Y	ACC_Z	GYR_X	GYR_Y	GYR_Z	MAG_X	MAG_Y	MAG_Z	LACC_X	LACC_Y	LACC_Z	QUAT_X	QUAT_Y	QUAT_Z	QUAT_W
1 0.00 0 1.111 -9.477 2.624 -1.678 -3.265 1.587 -509.968 -569.929 -3509.963 -0.033 0.086 -0.036 -0.08 0.6 -0.79 0.01
1 0.01 1 1.082 -9.568 2.610 -1.038 -3.174 2.319 -434.867 -374.906 -3479.983 -0.005 0.176 -0.024 -0.08 0.6 -0.79 0.01
1 0.02 2 1.135 -9.505 2.672 -0.854 -2.991 2.380 -434.867 -374.906 -3479.983 -0.059 0.114 -0.087 -0.08 0.6 -0.79 0.01
1 0.03 3 1.255 -9.481 2.571 -1.221 -2.411 1.953 -494.978 -629.890 -3494.973 -0.179 0.090 0.013 -0.08 0.6 -0.79 0.01
1 0.04 4 1.183 -9.352 2.797 -1.495 -1.831 2.014 -494.978 -629.890 -3494.973 -0.107 -0.040 -0.213 -0.08 0.6 -0.79 0.01
1 0.05 5 1.073 -9.357 2.734 -2.472 -1.251 1.953 -389.896 -494.978 -3404.882 0.003 -0.035 -0.151 -0.08 0.6 -0.79 0.01
1 0.06 6 0.967 -9.366 2.653 -1.984 -1.129 1.434 -464.997 -494.978 -3449.853 0.108 -0.026 -0.070 -0.08 0.6 -0.79 0.01
1 0.07 7 0.939 -9.338 2.686 -1.129 -1.831 1.221 -464.997 -494.978 -3449.853 0.136 -0.055 -0.104 -0.08 0.6 -0.79 0.01
1 0.08 8 0.809 -9.568 2.763 -1.129 -3.845 0.946 -449.857 -539.948 -3539.944 0.265 0.176 -0.179 -0.08 0.6 -0.79 0.01
1 0.09 9 0.934 -9.477 2.610 -1.526 -4.364 0.916 -449.857 -539.948 -3539.944 0.140 0.084 -0.026 -0.08 0.6 -0.79 0.01
1 0.10 10 1.164 -9.462 2.624 -1.099 -3.448 0.977 -374.906 -584.919 -3464.993 -0.089 0.070 -0.041 -0.08 0.6 -0.79 0.01
1 0.11 11 1.044 -9.405 2.725 -1.282 -2.625 1.526 -374.906 -584.919 -3464.993 0.032 0.012 -0.143 -0.08 0.6 -0.79 0.01
1 0.12 12 1.183 -9.429 2.581 -0.793 -2.350 0.977 -299.955 -539.948 -3494.973 -0.107 0.037 0.001 -0.08 0.6 -0.79 0.01
1 0.13 13 1.178 -9.438 2.658 -1.251 -2.472 0.977 -374.906 -539.948 -3464.993 -0.100 0.046 -0.075 -0.08 0.6 -0.79 0.01
1 0.14 14 1.168 -9.410 2.538 -1.740 -2.808 0.427 -374.906 -539.948 -3464.993 -0.089 0.018 0.044 -0.08 0.6 -0.79 0.01
1 0.15 15 1.326 -9.587 2.701 -2.380 -1.404 0.000 -464.997 -599.909 -3374.901 -0.245 0.195 -0.120 -0.08 0.6 -0.79 0.01
1 0.16 16 1.264 -9.520 2.619 -1.953 -1.038 1.038 -539.948 -524.958 -3479.983 -0.178 0.127 -0.042 -0.08 0.6 -0.79 0.01
1 0.17 17 1.087 -9.548 2.677 -1.343 -1.404 -0.061 -494.978 -539.948 -3494.973 0.001 0.156 -0.100 -0.08 0.6 -0.79 0.01
1 0.18 18 1.039 -9.682 2.667 -0.427 -1.617 0.336 -494.978 -539.948 -3494.973 0.051 0.290 -0.091 -0.08 0.6 -0.79 0.01
1 0.19 19 1.101 -9.544 2.701 -0.305 -1.801 0.031 -374.906 -539.948 -3419.872 -0.011 0.152 -0.124 -0.08 0.6 -0.79 0.01
1 0.20 20 0.982 -9.587 2.538 -1.190 -2.808 0.397 -434.867 -494.978 -3329.931 0.110 0.195 0.040 -0.08 0.6 -0.79 0.01
1 0.21 21 1.001 -9.625 2.605 -1.434 -2.716 0.427 -434.867 -494.978 -3329.931 0.093 0.234 -0.027 -0.08 0.6 -0.79 0.01
1 0.22 22 1.053 -9.501 2.610 -1.526 -1.617 1.740 -419.876 -629.890 -3539.944 0.041 0.109 -0.033 -0.08 0.6 -0.79 0.01
1 0.23 23 1.068 -9.481 2.576 -0.793 -1.251 1.648 -419.876 -539.948 -3464.993 0.026 0.089 -0.001 -0.08 0.6 -0.79 0.01
1 0.24 24 1.164 -9.462 2.624 -1.495 -1.373 2.014 -434.867 -449.857 -3509.963 -0.071 0.070 -0.049 -0.08 0.6 -0.79 0.01
1 0.25 25 1.049 -9.433 2.567 -1.892 -1.862 2.472 -434.867 -449.857 -3509.963 0.043 0.041 0.009 -0.08 0.6 -0.79 0.01
1 0.26 26 1.092 -9.405 2.744 -0.946 -1.709 2.075 -464.997 -449.857 -3449.853 -0.003 0.012 -0.169 -0.08 0.6 -0.79 0.01
1 0.27 27 1.125 -9.601 2.567 -0.854 -1.251 2.350 -569.929 -509.968 -3539.944 -0.037 0.208 0.008 -0.08 0.6 -0.79 0.01
1 0.28 28 0.977 -9.630 2.634 -1.160 -1.190 2.106 -569.929 -509.968 -3539.944 0.111 0.237 -0.059 -0.08 0.6 -0.79 0.01
1 0.29 29 1.044 -9.630 2.571 -0.397 -0.916 1.007 -569.929 -509.968 -3314.940 0.043 0.237 0.003 -0.08 0.6 -0.79 0.01
1 0.30 30 1.121 -9.620 2.662 -0.366 -2.228 0.854 -509.968 -524.958 -3584.915 -0.034 0.227 -0.087 -0.08 0.6 -0.79 0.01
1 0.31 31 0.967 -9.639 2.701 -0.671 -2.258 0.763 -449.857 -434.867 -3419.872 0.120 0.247 -0.125 -0.08 0.6 -0.79 0.01
1 0.32 32 0.943 -9.486 2.619 -1.007 -2.502 0.977 -449.857 -434.867 -3419.872 0.144 0.094 -0.043 -0.08 0.6 -0.79 0.01
1 0.33 33 1.020 -9.381 2.610 -0.671 -2.197 1.770 -359.916 -569.929 -3509.963 0.067 -0.012 -0.034 -0.08 0.6 -0.79 0.01
1 0.34 34 1.020 -9.295 2.643 -1.190 -1.343 2.136 -374.906 -539.948 -3464.993 0.066 -0.098 -0.068 -0.08 0.6 -0.79 0.01
1 0.35 35 1.207 -9.218 2.600 -1.404 -1.495 3.143 -374.906 -539.948 -3464.993 -0.122 -0.175 -0.024 -0.08 0.6 -0.79 0.01
1 0.36 36 1.221 -9.309 2.615 -1.709 -1.465 3.143 -584.919 -599.909 -3554.934 -0.139 -0.084 -0.039 -0.08 0.6 -0.79 0.01
1 0.37 37 1.154 -9.410 2.610 -2.289 -0.824 2.289 -449.857 -584.919 -3464.993 -0.074 0.016 -0.035 -0.08 0.6 -0.79 0.01
1 0.38 38 1.235 -9.328 2.581 -3.052 0.061 1.862 -569.929 -584.919 -3389.892 -0.157 -0.067 -0.009 -0.08 0.6 -0.79 0.01
1 0.39 39 1.073 -9.582 2.567 -3.174 0.366 0.977 -569.929 -584.919 -3389.892 0.006 0.186 0.002 -0.08 0.6 -0.79 0.01
1 0.40 40 1.077 -9.563 2.552 -3.265 0.092 0.275 -419.876 -584.919 -3464.993 0.002 0.166 0.014 -0.08 0.6 -0.79 0.01
1 0.41 41 1.068 -9.596 2.476 -2.960 -0.244 0.397 -494.978 -629.890 -3494.973 0.012 0.199 0.087 -0.08 0.6 -0.79 0.01
1 0.42 42 1.116 -9.343 2.514 -1.495 0.610 0.366 -494.978 -629.890 -3494.973 -0.035 -0.055 0.046 -0.08 0.6 -0.79 0.01
1 0.43 43 1.082 -9.395 2.662 -1.312 0.183 0.061 -419.876 -584.919 -3419.872 -0.001 -0.003 -0.103 -0.08 0.6 -0.79 0.01
1 0.44 44 1.140 -9.343 2.543 -2.014 0.916 0.031 -389.896 -644.880 -3509.963 -0.058 -0.055 0.017 -0.08 0.6 -0.79 0.01
1 0.45 45 0.996 -9.477 2.562 -2.350 -0.977 -0.793 -389.896 -524.958 -3509.963 0.089 0.078 -0.005 -0.08 0.6 -0.79 0.01
1 0.46 46 1.030 -9.553 2.648 -1.953 -1.038 -0.092 -389.896 -524.958 -3509.963 0.058 0.155 -0.094 -0.08 0.6 -0.79 0.01
1 0.47 47 0.967 -9.615 2.571 -2.594 -0.793 -0.427 -224.854 -539.948 -3419.872 0.122 0.217 -0.019 -0.08 0.6 -0.79 0.01
1 0.48 48 0.963 -9.706 2.658 -2.563 -1.465 0.397 -374.906 -584.919 -3464.993 0.127 0.307 -0.108 -0.08 0.6 -0.79 0.01
1 0.49 49 0.986 -9.740 2.710 -1.556 -1.190 1.068 -374.906 -584.919 -3464.993 0.102 0.340 -0.161 -0.08 0.6 -0.79 0.01
1 0.50 50 1.135 -9.520 2.672 -1.343 -1.617 1.068 -464.997 -569.929 -3449.853 -0.048 0.120 -0.123 -0.08 0.6 -0.79 0.01
1 0.51 51 1.092 -9.510 2.509 -1.984 -1.129 1.007 -359.916 -644.880 -3374.901 -0.005 0.110 0.040 -0.08 0.6 -0.79 0.01
1 0.52 52 1.164 -9.438 2.610 -2.808 -0.153 0.854 -569.929 -539.948 -3419.872 -0.077 0.038 -0.063 -0.08 0.6 -0.79 0.01
1 0.53 53 1.101 -9.481 2.562 -2.258 -0.061 0.061 -569.929 -539.948 -3419.872 -0.015 0.080 -0.016 -0.08 0.6 -0.79 0.01
1 0.54 54 1.183 -9.615 2.457 -2.747 -1.007 0.427 -464.997 -644.880 -3479.983 -0.095 0.214 0.087 -0.08 0.6 -0.79 0.01
1 0.55 55 0.915 -9.682 2.567 -2.014 -0.732 0.580 -344.925 -509.968 -3464.993 0.175 0.281 -0.026 -0.08 0.6 -0.79 0.01
1 0.56 56 1.006 -9.802 2.571 -1.404 -0.763 0.397 -344.925 -509.968 -3464.993 0.083 0.400 -0.030 -0.08 0.6 -0.79 0.01
1 0.57 57 0.977 -9.635 2.548 -0.122 -0.732 0.641 -584.919 -494.978 -3404.882 0.111 0.232 -0.007 -0.08 0.6 -0.79 0.01
1 0.58 58 0.862 -9.544 2.504 0.061 -0.824 1.129 -494.978 -434.867 -3494.973 0.225 0.141 0.036 -0.08 0.6 -0.79 0.01
1 0.59 59 0.939 -9.553 2.586 -0.549 -1.587 1.740 -494.978 -434.867 -3494.973 0.147 0.151 -0.045 -0.08 0.6 -0.79 0.01
1 0.60 60 0.900 -9.352 2.528 -1.434 -0.977 1.221 -509.968 -494.978 -3374.901 0.182 -0.050 0.014 -0.08 0.6 -0.79 0.01
1 0.61 61 0.833 -9.405 2.514 -1.984 -0.885 1.373 -509.968 -524.958 -3329.931 0.248 0.002 0.029 -0.08 0.6 -0.79 0.01
1 0.62 62 0.900 -9.467 2.615 -2.319 -1.068 1.373 -599.909 -464.997 -3569.924 0.179 0.064 -0.072 -0.08 0.6 -0.79 0.01
1 0.63 63 0.910 -9.438 2.524 -2.502 -1.343 1.373 -599.909 -464.997 -3569.924 0.167 0.035 0.018 -0.08 0.6 -0.79 0.01
1 0.64 64 0.943 -9.563 2.504 -1.617 -2.014 1.587 -509.968 -524.958 -3404.882 0.132 0.159 0.035 -0.08 0.6 -0.79 0.01
1 0.65 65 1.034 -9.505 2.423 -1.312 -0.885 1.678 -584.919 -674.860 -3479.983 0.041 0.101 0.115 -0.08 0.6 -0.79 0.01
1 0.66 66 0.958 -9.328 2.576 -0.092 -1.160 1.770 -584.919 -674.860 -3479.983 0.117 -0.076 -0.039 -0.08 0.6 -0.79 0.01
1 0.67 67 1.053 -9.510 2.600 -0.458 -0.854 0.702 -494.978 -509.968 -3389.892 0.021 0.105 -0.063 -0.08 0.6 -0.79 0.01
1 0.68 68 1.049 -9.462 2.504 -0.671 -1.617 0.183 -509.968 -524.958 -3374.901 0.026 0.058 0.033 -0.08 0.6 -0.79 0.01
1 0.69 69 0.828 -9.529 2.538 -2.045 -1.556 0.031 -539.948 -644.880 -3374.901 0.247 0.125 -0.001 -0.08 0.6 -0.79 0.01
1 0.70 70 0.977 -9.524 2.619 -1.282 -1.709 0.519 -539.948 -644.880 -3374.901 0.099 0.119 -0.084 -0.08 0.6 -0.79 0.01
1 0.71 71 0.905 -9.472 2.519 -0.946 -1.526 0.275 -359.916 -569.929 -3584.915 0.170 0.067 0.017 -0.08 0.6 -0.79 0.01
1 0.72 72 0.867 -9.357 2.433 0.000 -1.495 0.671 -419.876 -434.867 -3314.940 0.207 -0.048 0.103 -0.08 0.6 -0.79 0.01
1 0.73 73 1.010 -9.395 2.557 -0.183 -1.984 0.763 -419.876 -434.867 -3314.940 0.063 -0.010 -0.021 -0.08 0.6 -0.79 0.01
1 0.74 74 1.053 -9.453 2.509 -1.434 -2.045 0.641 -374.906 -509.968 -3464.993 0.020 0.048 0.029 -0.08 0.6 -0.79 0.01
1 0.75 75 1.020 -9.477 2.619 -2.075 -1.556 0.458 -449.857 -659.870 -3464.993 0.055 0.072 -0.082 -0.08 0.6 -0.79 0.01
1 0.76 76 1.058 -9.520 2.567 -2.350 -2.014 0.793 -464.997 -449.857 -3479.983 0.018 0.115 -0.030 -0.08 0.6 -0.79 0.01
1 0.77 77 1.044 -9.606 2.629 -2.655 -1.953 0.854 -464.997 -449.857 -3479.983 0.032 0.201 -0.095 -0.08 0.6 -0.79 0.01
1 0.78 78 1.034 -9.620 2.519 -1.373 -1.312 0.183 -524.958 -509.968 -3494.973 0.042 0.215 0.014 -0.08 0.6 -0.79 0.01
1 0.79 79 0.963 -9.582 2.514 -0.671 -1.343 0.336 -464.997 -494.978 -3374.901 0.114 0.176 0.018 -0.08 0.6 -0.79 0.01
1 0.80 80 1.068 -9.467 2.552 -0.153 -1.587 0.092 -464.997 -494.978 -3374.901 0.008 0.061 -0.020 -0.08 0.6 -0.79 0.01
1 0.81 81 0.982 -9.477 2.576 -1.129 -1.434 0.885 -494.978 -464.997 -3314.940 0.095 0.071 -0.043 -0.08 0.6 -0.79 0.01
1 0.82 82 1.087 -9.457 2.552 -0.854 -0.854 1.190 -419.876 -509.968 -3464.993 -0.010 0.052 -0.020 -0.08 0.6 -0.79 0.01
1 0.83 83 1.044 -9.371 2.749 -0.702 -0.702 0.763 -464.997 -644.880 -3479.983 0.033 -0.034 -0.216 -0.08 0.6 -0.79 0.01
1 0.84 84 0.986 -9.366 2.571 0.031 -0.397 0.580 -464.997 -644.880 -3479.983 0.090 -0.039 -0.037 -0.08 0.6 -0.79 0.01
1 0.85 85 0.982 -9.529 2.624 -0.854 -0.885 0.122 -284.964 -569.929 -3509.963 0.094 0.124 -0.089 -0.08 0.6 -0.79 0.01
1 0.86 86 0.982 -9.577 2.591 -1.556 -2.136 0.061 -389.896 -599.909 -3479.983 0.094 0.172 -0.055 -0.08 0.6 -0.79 0.01
1 0.87 87 0.991 -9.644 2.524 -1.526 -1.556 0.366 -389.896 -599.909 -3479.983 0.084 0.239 0.011 -0.08 0.6 -0.79 0.01
1 0.88 88 1.183 -9.592 2.615 -0.366 -1.221 0.275 -539.948 -569.929 -3404.882 -0.107 0.186 -0.080 -0.08 0.6 -0.79 0.01
1 0.89 89 1.039 -9.429 2.586 0.122 -1.007 0.427 -539.948 -749.961 -3449.853 0.037 0.024 -0.050 -0.08 0.6 -0.79 0.01
1 0.90 90 1.168 -9.343 2.691 -0.153 -1.343 1.038 -299.955 -629.890 -3419.872 -0.092 -0.062 -0.154 -0.08 0.6 -0.79 0.01
1 0.91 91 1.173 -9.386 2.591 0.214 -0.793 0.916 -299.955 -629.890 -3419.872 -0.096 -0.018 -0.052 -0.08 0.6 -0.79 0.01
1 0.92 92 1.121 -9.357 2.634 -0.275 -0.336 1.221 -494.978 -584.919 -3494.973 -0.043 -0.047 -0.095 -0.08 0.6 -0.79 0.01
1 0.93 93 1.053 -9.390 2.509 -1.312 0.244 0.702 -674.860 -539.948 -3464.993 0.026 -0.013 0.030 -0.08 0.6 -0.79 0.01
1 0.94 94 1.221 -9.443 2.648 -2.838 0.824 1.678 -674.860 -539.948 -3464.993 -0.142 0.039 -0.109 -0.08 0.6 -0.79 0.01
1 0.95 95 1.221 -9.505 2.466 -2.899 0.183 1.923 -494.978 -464.997 -3419.872 -0.142 0.101 0.072 -0.08 0.6 -0.79 0.01
1 0.96 96 1.322 -9.223 2.634 -0.793 1.282 2.197 -464.997 -494.978 -3479.983 -0.244 -0.182 -0.100 -0.08 0.6 -0.79 0.01
1 0.97 97 1.437 -9.304 2.677 0.031 2.441 2.594 -329.935 -494.978 -3509.963 -0.360 -0.101 -0.141 -0.08 0.6 -0.79 0.01
1 0.98 98 1.288 -9.165 2.753 0.854 3.448 1.770 -329.935 -494.978 -3509.963 -0.213 -0.239 -0.215 -0.08 0.6 -0.79 0.01
1 0.99 99 1.140 -9.299 2.691 -0.397 3.326 1.221 -569.929 -509.968 -3359.911 -0.065 -0.104 -0.148 -0.08 0.6 -0.79 0.01
1 1.00 100 1.058 -9.433 2.653 -1.862 3.204 -0.488 -449.857 -584.919 -3314.940 0.017 0.031 -0.107 -0.08 0.6 -0.79 0.01
1 1.01 101 1.111 -9.764 2.672 -3.693 2.960 -1.678 -449.857 -584.919 -3314.940 -0.034 0.362 -0.127 -0.08 0.6 -0.79 0.01
1 1.02 102 1.116 -9.836 2.634 -3.448 1.373 -1.465 -374.906 -509.968 -3494.973 -0.036 0.433 -0.091 -0.08 0.6 -0.79 0.01
1 1.03 103 1.240 -9.711 2.562 -2.289 1.923 -2.289 -374.906 -509.968 -3494.973 -0.158 0.308 -0.023 -0.08 0.6 -0.79 0.01
1 1.04 104 1.331 -9.606 2.581 0.763 3.296 -0.183 -419.876 -464.997 -3464.993 -0.243 0.203 -0.044 -0.08 0.6 -0.79 0.01
1 1.05 105 1.226 -9.400 2.548 0.458 4.578 -0.793 -419.876 -464.997 -3464.993 -0.135 -0.002 -0.008 -0.08 0.6 -0.79 0.01
1 1.06 106 1.245 -9.304 2.729 -0.214 4.547 -0.092 -524.958 -584.919 -3494.973 -0.153 -0.097 -0.187 -0.08 0.6 -0.79 0.01
1 1.07 107 1.350 -9.381 2.682 -2.197 3.601 -0.885 -464.997 -569.929 -3479.983 -0.256 -0.019 -0.136 -0.08 0.6 -0.79 0.01
1 1.08 108 1.116 -9.606 2.619 -4.181 4.395 -0.702 -464.997 -569.929 -3479.983 -0.019 0.206 -0.075 -0.08 0.6 -0.79 0.01
1 1.09 109 1.259 -9.864 2.543 -3.418 4.150 0.092 -434.867 -524.958 -3449.853 -0.161 0.464 -0.001 -0.08 0.6 -0.79 0.01
1 1.10 110 1.159 -9.635 2.677 -1.770 5.035 0.854 -434.867 -524.958 -3449.853 -0.059 0.233 -0.139 -0.08 0.6 -0.79 0.01
1 1.11 111 1.149 -9.639 2.686 0.854 5.493 1.282 -389.896 -644.880 -3479.983 -0.054 0.238 -0.147 -0.08 0.6 -0.79 0.01
1 1.12 112 1.159 -9.510 2.610 0.946 5.310 1.801 -389.896 -644.880 -3479.983 -0.066 0.109 -0.066 -0.08 0.6 -0.79 0.01
1 1.13 113 0.963 -9.357 2.715 -0.061 4.303 1.434 -419.876 -539.948 -3494.973 0.128 -0.043 -0.167 -0.08 0.6 -0.79 0.01
1 1.14 114 1.116 -9.433 2.653 -1.312 3.784 1.495 -389.896 -569.929 -3449.853 -0.029 0.034 -0.103 -0.08 0.6 -0.79 0.01
1 1.15 115 1.178 -9.443 2.567 -2.319 4.150 1.465 -389.896 -569.929 -3449.853 -0.093 0.043 -0.016 -0.08 0.6 -0.79 0.01
1 1.16 116 1.101 -9.376 2.480 -2.075 4.822 1.495 -419.876 -464.997 -3494.973 -0.019 -0.024 0.069 -0.08 0.6 -0.79 0.01
1 1.17 117 1.231 -9.390 2.653 -0.641 6.073 2.167 -419.876 -464.997 -3494.973 -0.150 -0.011 -0.104 -0.08 0.6 -0.79 0.01
1 1.18 118 1.159 -9.338 2.701 0.732 6.287 2.075 -329.935 -524.958 -3449.853 -0.085 -0.063 -0.148 -0.08 0.6 -0.79 0.01
1 1.19 119 1.178 -9.390 2.605 -0.427 5.707 2.319 -329.935 -524.958 -3449.853 -0.108 -0.009 -0.048 -0.07 0.6 -0.79 0.01
1 1.20 120 1.077 -9.453 2.576 -1.526 6.226 1.526 -524.958 -584.919 -3464.993 -0.011 0.053 -0.018 -0.07 0.6 -0.79 0.01
1 1.21 121 1.082 -9.457 2.495 -2.228 5.341 1.373 -449.857 -539.948 -3359.911 -0.019 0.057 0.063 -0.07 0.6 -0.79 0.01
1 1.22 122 1.365 -9.510 2.538 -3.448 5.768 1.312 -449.857 -539.948 -3359.911 -0.304 0.109 0.019 -0.07 0.6 -0.79 0.01
1 1.23 123 1.331 -9.764 2.595 -1.801 7.935 1.221 -464.997 -524.958 -3479.983 -0.272 0.362 -0.041 -0.07 0.6 -0.79 0.01
1 1.24 124 1.331 -9.515 2.763 -0.336 9.430 0.549 -464.997 -524.958 -3479.983 -0.274 0.113 -0.209 -0.07 0.6 -0.79 0.01
1 1.25 125 1.322 -9.419 2.619 1.373 10.803 0.092 -539.948 -419.876 -3449.853 -0.265 0.017 -0.064 -0.07 0.6 -0.79 0.01
1 1.26 126 1.298 -9.304 2.701 0.946 10.986 -1.190 -299.955 -509.968 -3389.892 -0.243 -0.094 -0.133 -0.07 0.6 -0.79 0
1 1.27 127 1.355 -9.371 2.897 0.336 11.047 -1.556 -374.906 -539.948 -3494.973 -0.300 -0.026 -0.323 -0.07 0.6 -0.79 0
1 1.28 128 1.302 -9.486 2.825 -1.770 11.566 -2.045 -329.935 -569.929 -3404.882 -0.246 0.091 -0.245 -0.07 0.6 -0.79 0
1 1.29 129 1.255 -9.362 2.840 -1.617 12.634 -1.190 -329.935 -569.929 -3404.882 -0.196 -0.032 -0.257 -0.07 0.6 -0.79 0
1 1.30 130 1.302 -9.462 2.758 -0.061 14.252 -1.129 -329.935 -524.958 -3449.853 -0.244 0.069 -0.172 -0.07 0.6 -0.79 0
1 1.31 131 1.379 -9.414 2.797 1.556 14.282 -0.702 -329.935 -524.958 -3449.853 -0.321 0.022 -0.206 -0.07 0.6 -0.8 0
1 1.32 132 1.264 -9.438 2.907 1.740 14.587 -0.824 -464.997 -599.909 -3404.882 -0.207 0.048 -0.309 -0.07 0.6 -0.8 0
1 1.33 133 1.111 -9.467 2.797 0.763 14.404 -0.214 -449.857 -629.890 -3464.993 -0.059 0.080 -0.185 0.07 -0.6 0.8 0
1 1.34 134 1.015 -9.472 2.849 -0.275 14.435 0.641 -389.896 -449.857 -3479.983 0.033 0.086 -0.231 0.07 -0.6 0.8 0
1 1.35 135 1.135 -9.615 2.825 -0.397 14.801 1.251 -329.935 -524.958 -3584.915 -0.091 0.231 -0.202 0.06 -0.6 0.8 0
1 1.36 136 1.006 -9.568 2.758 0.031 14.893 1.953 -329.935 -524.958 -3584.915 0.032 0.184 -0.130 0.06 -0.6 0.8 0
1 1.37 137 0.852 -9.745 2.806 0.397 15.076 2.930 -449.857 -584.919 -3464.993 0.176 0.361 -0.173 0.06 -0.6 0.8 0
1 1.38 138 0.924 -9.644 2.825 1.648 16.632 4.486 -449.857 -584.919 -3464.993 0.094 0.261 -0.187 0.06 -0.6 0.8 0
1 1.39 139 0.991 -9.606 3.007 1.190 17.334 4.761 -344.925 -629.890 -3464.993 0.013 0.223 -0.362 0.06 -0.6 0.8 0
1 1.40 140 1.063 -9.477 2.873 1.740 16.846 5.402 -284.964 -599.909 -3254.979 -0.085 0.096 -0.213 0.06 -0.6 0.8 0.01
1 1.41 141 0.919 -9.453 2.864 0.916 16.052 5.432 -209.863 -569.929 -3374.901 0.046 0.073 -0.195 0.06 -0.6 0.8 0.01
1 1.42 142 1.030 -9.390 2.873 0.244 15.533 5.493 -269.974 -584.919 -3419.872 -0.077 0.011 -0.198 0.06 -0.6 0.8 0.01
1 1.43 143 0.910 -9.429 2.945 -0.580 15.320 5.341 -269.974 -584.919 -3419.872 0.029 0.049 -0.265 0.05 -0.6 0.8 0.01
1 1.44 144 0.876 -9.572 2.849 -0.122 16.693 5.981 -179.883 -524.958 -3449.853 0.049 0.193 -0.164 0.05 -0.6 0.8 0.01
1 1.45 145 0.924 -9.481 2.926 2.014 19.104 6.226 -179.883 -524.958 -3449.853 -0.013 0.102 -0.236 0.05 -0.6 0.8 0.01
1 1.46 146 0.986 -9.462 2.830 2.106 19.531 6.592 -284.964 -524.958 -3554.934 -0.091 0.084 -0.132 0.05 -0.6 0.8 0.01
1 1.47 147 0.986 -9.510 2.797 2.228 18.982 6.409 -209.863 -599.909 -3509.963 -0.107 0.133 -0.090 0.05 -0.6 0.8 0.01
1 1.48 148 0.919 -9.577 2.835 0.336 17.822 7.080 -224.854 -584.919 -3599.905 -0.070 0.201 -0.114 0.05 -0.6 0.8 0.01
1 1.49 149 0.891 -9.558 2.883 -0.610 17.883 6.744 -44.971 -584.919 -3389.892 -0.057 0.182 -0.157 0.05 -0.6 0.8 0.01
1 1.50 150 0.895 -9.769 2.787 -0.244 17.029 6.989 -44.971 -584.919 -3389.892 -0.078 0.392 -0.058 0.04 -0.6 0.8 0.01
1 1.51 151 0.891 -9.654 2.782 0.885 16.968 5.951 -164.893 -509.968 -3419.872 -0.088 0.277 -0.050 0.04 -0.6 0.8 0.01
1 1.52 152 0.642 -9.630 2.859 4.028 18.372 6.348 -164.893 -509.968 -3419.872 0.146 0.253 -0.121 0.04 -0.6 0.8 0.01
1 1.53 153 0.670 -9.481 2.763 4.913 17.883 6.775 -164.893 -659.870 -3494.973 0.100 0.106 -0.016 0.04 -0.6 0.8 0.01
1 1.54 154 0.584 -9.352 2.744 4.791 17.731 6.409 -134.912 -644.880 -3479.983 0.170 -0.021 0.015 0.04 -0.6 0.8 0.01
1 1.55 155 0.541 -9.189 2.777 5.798 13.977 6.531 44.971 -434.867 -3464.993 0.181 -0.180 0.004 0.04 -0.6 0.8 0.01
1 1.56 156 0.627 -9.295 2.868 5.005 13.123 6.378 29.980 -524.958 -3404.882 0.079 -0.073 -0.076 0.03 -0.6 0.8 0.01
1 1.57 157 0.532 -9.218 2.964 4.334 14.526 6.775 29.980 -524.958 -3404.882 0.162 -0.147 -0.161 0.03 -0.6 0.8 0.02
1 1.58 158 0.594 -9.386 2.931 3.876 16.754 7.507 -89.941 -389.896 -3464.993 0.083 0.023 -0.117 0.03 -0.6 0.8 0.02
1 1.59 159 0.565 -9.376 2.830 4.456 17.304 6.928 -89.941 -389.896 -3464.993 0.094 0.015 -0.007 0.03 -0.6 0.8 0.02
1 1.60 160 0.536 -9.438 2.768 5.035 16.113 6.317 -29.980 -449.857 -3449.853 0.106 0.079 0.064 0.03 -0.6 0.8 0.02
1 1.61 161 0.570 -9.592 2.859 3.998 14.710 5.676 -89.941 -584.919 -3359.911 0.057 0.234 -0.016 0.03 -0.6 0.8 0.02
1 1.62 162 0.704 -9.663 2.911 3.662 14.130 5.096 -59.961 -524.958 -3374.901 -0.104 0.309 -0.052 0.03 -0.59 0.8 0.02
1 1.63 163 0.704 -9.582 2.806 3.418 14.648 5.798 -14.990 -704.991 -3419.872 -0.117 0.229 0.061 0.02 -0.59 0.8 0.02
1 1.64 164 0.795 -9.572 2.993 4.791 15.503 6.683 -14.990 -704.991 -3419.872 -0.221 0.221 -0.118 0.02 -0.59 0.8 0.02
1 1.65 165 0.848 -9.424 2.888 4.852 16.357 6.928 14.990 -659.870 -3569.924 -0.288 0.075 -0.003 0.02 -0.59 0.8 0.02
1 1.66 166 0.666 -9.453 2.816 6.134 17.212 6.683 14.990 -659.870 -3569.924 -0.121 0.106 0.079 0.02 -0.59 0.8 0.02
1 1.67 167 0.608 -9.419 2.897 6.042 16.876 7.324 14.990 -509.968 -3539.944 -0.079 0.075 0.009 0.02 -0.59 0.8 0.02
1 1.68 168 0.364 -9.362 2.830 5.554 17.944 7.538 59.961 -674.860 -3449.853 0.149 0.020 0.087 0.02 -0.59 0.81 0.02
1 1.69 169 0.316 -9.433 2.720 4.395 16.998 7.813 59.961 -674.860 -3449.853 0.180 0.094 0.207 0.02 -0.59 0.81 0.02
1 1.70 170 0.302 -9.386 2.806 3.021 16.876 7.874 164.893 -509.968 -3539.944 0.158 0.049 0.137 0.01 -0.59 0.81 0.02
1 1.71 171 0.287 -9.544 2.787 2.350 16.754 8.362 164.893 -509.968 -3539.944 0.154 0.208 0.161 0.01 -0.59 0.81 0.02
1 1.72 172 0.335 -9.572 2.792 2.319 16.052 8.087 104.932 -599.909 -3374.901 0.087 0.237 0.160 0.01 -0.59 0.81 0.02
1 1.73 173 0.388 -9.424 2.734 2.106 16.052 7.141 104.932 -599.909 -3374.901 0.016 0.089 0.222 0.01 -0.59 0.81 0.02
1 1.74 174 0.244 -9.438 2.672 2.380 16.571 7.935 59.961 -674.860 -3374.901 0.144 0.104 0.289 0.01 -0.59 0.81 0.02
1 1.75 175 0.201 -9.505 2.739 3.174 16.327 7.690 59.961 -719.981 -3584.915 0.170 0.172 0.225 0.01 -0.59 0.81 0.02
1 1.76 176 0.206 -9.410 2.777 4.181 15.167 7.263 59.961 -719.981 -3584.915 0.148 0.077 0.192 0.01 -0.59 0.81 0.02
1 1.77 177 0.005 -9.443 2.859 4.028 13.580 7.935 134.912 -674.860 -3479.983 0.314 0.113 0.122 0 -0.59 0.81 0.02
1 1.78 178 0.148 -9.481 2.797 2.655 12.787 7.416 134.912 -674.860 -3479.983 0.153 0.152 0.190 0 -0.59 0.81 0.02
1 1.79 179 0.091 -9.457 2.864 2.014 13.184 6.958 224.854 -509.968 -3539.944 0.194 0.130 0.128 -0 -0.59 0.81 0.02
1 1.80 180 0.029 -9.491 2.768 2.594 12.726 6.592 224.854 -509.968 -3539.944 0.240 0.164 0.227 -0 -0.59 0.81 0.03
1 1.81 181 -0.062 -9.558 2.931 2.838 12.207 6.195 224.854 -629.890 -3464.993 0.315 0.232 0.068 -0 -0.59 0.81 0.03
1 1.82 182 -0.081 -9.524 2.897 4.761 11.169 4.913 224.854 -704.991 -3359.911 0.319 0.199 0.107 -0 -0.59 0.81 0.03
1 1.83 183 -0.168 -9.505 3.036 5.585 10.620 4.791 224.854 -704.991 -3359.911 0.391 0.182 -0.024 -0 -0.59 0.81 0.03
1 1.84 184 -0.091 -9.247 3.117 5.310 11.108 2.930 269.974 -779.942 -3569.924 0.290 -0.071 -0.087 -0.01 -0.59 0.81 0.03
1 1.85 185 0.120 -9.266 3.108 3.296 9.949 1.740 269.974 -779.942 -3569.924 0.070 -0.049 -0.069 -0.01 -0.59 0.81 0.03
1 1.86 186 0.211 -9.261 2.974 0.977 10.254 1.373 269.974 -779.942 -3569.924 -0.028 -0.052 0.071 -0.01 -0.59 0.81 0.03
1 1.87 187 0.383 -9.256 2.974 0.610 9.583 2.319 269.974 -779.942 -3569.924 -0.206 -0.056 0.074 -0.01 -0.59 0.81 0.03
1 1.88 188 0.383 -9.309 3.065 0.458 9.460 4.211 224.854 -779.942 -3494.973 -0.211 -0.003 -0.014 -0.01 -0.59 0.81 0.03
1 1.89 189 0.374 -9.558 2.902 1.862 10.681 4.395 344.925 -659.870 -3599.905 -0.209 0.247 0.151 -0.01 -0.59 0.81 0.03
1 1.90 190 0.206 -9.429 3.046 3.876 11.658 3.906 344.925 -659.870 -3599.905 -0.049 0.119 0.010 -0.01 -0.59 0.81 0.03
1 1.91 191 0.163 -9.505 3.041 4.669 11.871 3.845 374.906 -659.870 -3599.905 -0.015 0.197 0.021 -0.01 -0.59 0.81 0.03
1 1.92 192 0.048 -9.366 2.978 3.021 11.688 4.150 269.974 -629.890 -3569.924 0.079 0.063 0.098 -0.01 -0.59 0.81 0.03
1 1.93 193 0.000 -9.424 3.108 1.007 10.101 4.852 329.935 -674.860 -3479.983 0.116 0.122 -0.027 -0.02 -0.59 0.81 0.03
1 1.94 194 0.024 -9.386 3.012 0.946 9.125 5.463 329.935 -674.860 -3479.983 0.081 0.084 0.072 -0.02 -0.59 0.81 0.03
1 1.95 195 -0.187 -9.333 3.069 1.190 9.583 5.341 344.925 -659.870 -3569.924 0.280 0.032 0.017 -0.02 -0.59 0.81 0.03
1 1.96 196 -0.196 -9.357 3.103 3.143 7.782 5.402 284.964 -794.932 -3479.983 0.277 0.057 -0.013 -0.02 -0.58 0.81 0.03
1 1.97 197 -0.206 -9.362 3.026 3.479 7.263 4.852 284.964 -794.932 -3479.983 0.274 0.064 0.070 -0.02 -0.58 0.81 0.03
1 1.98 198 -0.316 -9.357 3.122 3.296 5.676 4.547 419.876 -779.942 -3599.905 0.372 0.061 -0.019 -0.02 -0.58 0.81 0.03
1 1.99 199 -0.340 -9.247 3.141 1.953 2.258 4.608 344.925 -779.942 -3419.872 0.375 -0.045 -0.027 -0.02 -0.58 0.81 0.03
1 2.00 200 -0.297 -9.352 3.012 0.793 1.282 4.639 359.916 -599.909 -3509.963 0.323 0.061 0.105 -0.02 -0.58 0.81 0.03
1 2.01 201 -0.273 -9.395 3.041 0.702 0.549 5.737 359.916 -599.909 -3509.963 0.289 0.105 0.078 -0.02 -0.58 0.81 0.03
1 2.02 202 -0.263 -9.424 3.151 0.580 -0.183 5.920 389.896 -719.981 -3449.853 0.270 0.134 -0.030 -0.02 -0.58 0.81 0.03
1 2.03 203 -0.172 -9.386 3.108 2.228 -0.580 5.768 284.964 -644.880 -3509.963 0.170 0.096 0.015 -0.02 -0.58 0.81 0.03
1 2.04 204 -0.306 -9.448 3.132 2.869 -0.031 5.920 284.964 -644.880 -3509.963 0.297 0.160 -0.005 -0.02 -0.58 0.81 0.03
1 2.05 205 -0.201 -9.481 3.199 2.625 -0.397 5.920 359.916 -794.932 -3479.983 0.183 0.196 -0.066 -0.02 -0.58 0.81 0.03
1 2.06 206 -0.235 -9.548 3.362 2.075 -1.251 4.639 389.896 -599.909 -3509.963 0.202 0.266 -0.219 -0.02 -0.58 0.81 0.03
1 2.07 207 -0.091 -9.592 3.323 2.258 -1.984 4.669 329.935 -674.860 -3404.882 0.052 0.311 -0.175 -0.02 -0.58 0.81 0.03
1 2.08 208 -0.062 -9.553 3.515 3.754 -1.221 4.364 329.935 -674.860 -3404.882 0.019 0.275 -0.361 -0.02 -0.58 0.81 0.03
1 2.09 209 -0.110 -9.572 3.563 4.364 -1.312 3.571 539.948 -674.860 -3479.983 0.062 0.297 -0.400 -0.03 -0.58 0.81 0.03
1 2.10 210 -0.259 -9.501 3.457 6.042 -1.251 3.052 419.876 -734.971 -3464.993 0.207 0.228 -0.285 -0.03 -0.58 0.81 0.03
1 2.11 211 -0.330 -9.515 3.371 6.256 -1.160 3.448 419.876 -734.971 -3464.993 0.275 0.247 -0.187 -0.03 -0.58 0.81 0.03
1 2.12 212 -0.546 -9.601 3.247 5.524 -2.289 4.395 419.876 -779.942 -3539.944 0.486 0.337 -0.051 -0.03 -0.58 0.81 0.03
1 2.13 213 -0.345 -9.524 3.256 5.066 -3.204 4.639 464.847 -749.961 -3554.934 0.279 0.264 -0.051 -0.03 -0.58 0.81 0.03
1 2.14 214 -0.158 -9.433 3.180 5.127 -2.502 6.683 374.906 -734.971 -3464.993 0.078 0.178 0.042 -0.03 -0.58 0.81 0.03
1 2.15 215 -0.010 -9.208 3.390 5.737 -1.740 7.965 374.906 -734.971 -3464.993 -0.079 -0.043 -0.160 -0.03 -0.58 0.81 0.03
1 2.16 216 -0.005 -9.151 3.194 5.798 -0.397 9.949 419.876 -854.893 -3599.905 -0.093 -0.097 0.047 -0.03 -0.58 0.82 0.03
1 2.17 217 -0.139 -9.137 3.213 5.341 0.977 9.979 359.916 -644.880 -3704.986 0.029 -0.108 0.038 -0.03 -0.58 0.82 0.03
1 2.18 218 -0.254 -9.328 3.275 3.906 0.793 11.108 359.916 -644.880 -3704.986 0.130 0.087 -0.016 -0.03 -0.58 0.82 0.03
1 2.19 219 -0.330 -9.357 3.299 3.143 0.458 9.857 464.847 -644.880 -3509.963 0.192 0.118 -0.033 -0.03 -0.58 0.82 0.03
1 2.20 220 -0.302 -9.457 3.299 3.082 -0.153 9.979 449.857 -809.922 -3419.872 0.149 0.221 -0.027 -0.03 -0.58 0.82 0.03
1 2.21 221 -0.479 -9.323 3.371 3.784 1.190 10.162 374.906 -779.942 -3644.875 0.297 0.092 -0.087 -0.03 -0.58 0.82 0.03
1 2.22 222 -0.354 -9.333 3.386 4.059 1.221 9.949 374.906 -779.942 -3644.875 0.156 0.104 -0.094 -0.03 -0.58 0.82 0.03
1 2.23 223 -0.479 -9.266 3.251 3.235 0.732 10.468 494.978 -809.922 -3494.973 0.266 0.040 0.047 -0.03 -0.58 0.82 0.03
1 2.24 224 -0.215 -9.161 3.242 3.967 0.000 10.529 419.876 -659.870 -3494.973 -0.013 -0.063 0.062 -0.03 -0.57 0.82 0.03
1 2.25 225 -0.374 -9.026 3.251 2.777 -1.068 9.613 419.876 -659.870 -3494.973 0.132 -0.194 0.059 -0.03 -0.57 0.82 0.03
1 2.26 226 -0.278 -9.208 3.256 0.916 -1.007 8.881 434.867 -674.860 -3479.983 0.024 -0.010 0.059 -0.03 -0.57 0.82 0.03
1 2.27 227 -0.311 -9.161 3.189 0.671 -1.251 8.362 524.958 -809.922 -3539.944 0.045 -0.056 0.130 -0.03 -0.57 0.82 0.03
1 2.28 228 -0.297 -9.256 3.151 3.479 -2.502 6.989 509.968 -719.981 -3584.915 0.011 0.042 0.173 -0.04 -0.57 0.82 0.02
1 2.29 229 -0.359 -9.161 3.390 4.578 -2.533 5.707 509.968 -719.981 -3584.915 0.066 -0.052 -0.061 -0.04 -0.57 0.82 0.02
1 2.30 230 -0.196 -9.046 3.376 5.066 -2.533 4.395 464.847 -749.961 -3629.885 -0.102 -0.164 -0.039 -0.04 -0.57 0.82 0.02
1 2.31 231 -0.287 -8.969 3.347 4.761 -1.495 2.716 434.867 -749.961 -3479.983 -0.014 -0.237 -0.001 -0.04 -0.57 0.82 0.02
1 2.32 232 -0.187 -8.912 3.227 3.845 -1.801 2.045 434.867 -749.961 -3479.983 -0.117 -0.292 0.127 -0.04 -0.57 0.82 0.02
1 2.33 233 -0.283 -9.041 3.395 1.831 -3.235 2.472 524.958 -659.870 -3539.944 -0.021 -0.160 -0.034 -0.04 -0.57 0.82 0.02
1 2.34 234 -0.254 -9.141 3.386 0.092 -3.235 1.282 389.896 -749.961 -3629.885 -0.050 -0.057 -0.018 -0.04 -0.57 0.82 0.02
1 2.35 235 -0.220 -9.448 3.386 -1.282 -3.601 0.458 389.896 -749.961 -3629.885 -0.083 0.251 -0.015 -0.04 -0.57 0.82 0.02
1 2.36 236 0.024 -9.606 3.587 -1.038 -3.510 -0.946 419.876 -959.975 -3494.973 -0.319 0.409 -0.216 -0.04 -0.57 0.82 0.02
1 2.37 237 -0.014 -9.582 3.563 0.458 -1.068 -1.556 524.958 -809.922 -3494.973 -0.274 0.385 -0.191 -0.04 -0.57 0.82 0.03
1 2.38 238 0.096 -9.491 3.419 2.075 1.160 -0.916 434.867 -749.961 -3584.915 -0.379 0.294 -0.045 -0.04 -0.57 0.82 0.03
1 2.39 239 -0.014 -9.261 3.328 2.930 2.991 0.153 434.867 -749.961 -3584.915 -0.264 0.066 0.050 -0.04 -0.57 0.82 0.03
1 2.40 240 -0.239 -9.146 3.414 3.204 2.594 0.580 494.978 -734.971 -3674.856 -0.038 -0.047 -0.031 -0.04 -0.57 0.82 0.03
1 2.41 241 -0.278 -9.175 3.457 2.136 1.190 -0.031 464.847 -794.932 -3659.866 0.001 -0.016 -0.068 -0.04 -0.57 0.82 0.03
1 2.42 242 -0.321 -9.189 3.644 0.854 0.305 -0.153 464.847 -794.932 -3659.866 0.044 0.000 -0.249 -0.04 -0.57 0.82 0.03
1 2.43 243 -0.330 -9.184 3.558 -2.472 0.977 0.732 494.978 -854.893 -3674.856 0.057 -0.002 -0.157 -0.04 -0.57 0.82 0.03
1 2.44 244 -0.239 -9.352 3.496 -1.740 1.404 1.160 449.857 -734.971 -3599.905 -0.035 0.165 -0.096 -0.04 -0.57 0.82 0.03
1 2.45 245 -0.359 -9.419 3.572 -0.732 1.831 2.655 419.876 -884.874 -3539.944 0.083 0.232 -0.173 -0.04 -0.57 0.82 0.03
1 2.46 246 -0.436 -9.414 3.472 1.221 0.793 3.662 419.876 -884.874 -3539.944 0.156 0.228 -0.071 -0.04 -0.57 0.82 0.03
1 2.47 247 -0.508 -9.347 3.390 3.052 -0.519 3.479 494.978 -734.971 -3569.924 0.223 0.162 0.014 -0.04 -0.57 0.82 0.03
1 2.48 248 -0.354 -9.156 3.500 2.228 -1.923 3.906 419.876 -809.922 -3539.944 0.065 -0.028 -0.091 -0.04 -0.57 0.82 0.03
1 2.49 249 -0.388 -9.189 3.409 1.434 -2.319 3.998 419.876 -809.922 -3539.944 0.093 0.008 0.005 -0.04 -0.57 0.82 0.03
1 2.50 250 -0.541 -9.060 3.510 -0.519 -2.686 4.120 659.870 -869.883 -3479.983 0.238 -0.119 -0.090 -0.04 -0.57 0.82 0.03
1 2.51 251 -0.407 -9.094 3.371 -1.709 -3.510 3.876 389.896 -794.932 -3584.915 0.099 -0.085 0.050 -0.04 -0.57 0.82 0.03
1 2.52 252 -0.388 -9.108 3.323 -2.472 -4.608 4.456 524.958 -884.874 -3569.924 0.077 -0.071 0.097 -0.04 -0.57 0.82 0.03
1 2.53 253 -0.666 -9.333 3.486 -1.953 -4.822 3.815 524.958 -884.874 -3569.924 0.351 0.154 -0.068 -0.04 -0.57 0.82 0.03
1 2.54 254 -0.484 -9.319 3.338 -1.160 -6.317 4.486 509.968 -749.961 -3659.866 0.165 0.139 0.079 -0.04 -0.57 0.82 0.03
1 2.55 255 -0.354 -9.366 3.472 0.641 -7.477 4.547 524.958 -734.971 -3674.856 0.033 0.187 -0.056 -0.04 -0.57 0.82 0.03
1 2.56 256 -0.383 -9.285 3.544 0.824 -6.928 4.334 524.958 -734.971 -3674.856 0.060 0.106 -0.127 -0.04 -0.57 0.82 0.03
1 2.57 257 -0.407 -9.252 3.587 0.031 -6.439 5.219 419.876 -854.893 -3494.973 0.082 0.074 -0.166 -0.04 -0.57 0.82 0.03
1 2.58 258 -0.287 -9.247 3.534 -1.709 -5.768 4.913 299.955 -929.994 -3569.924 -0.043 0.070 -0.110 -0.04 -0.57 0.82 0.03
1 2.59 259 -0.306 -9.184 3.505 -1.709 -6.287 4.120 389.896 -914.854 -3584.915 -0.026 0.008 -0.081 -0.04 -0.57 0.82 0.03
1 2.60 260 -0.168 -9.218 3.572 -2.350 -6.958 3.723 389.896 -914.854 -3584.915 -0.166 0.041 -0.149 -0.04 -0.57 0.82 0.02
1 2.61 261 -0.067 -9.189 3.635 -2.197 -6.470 2.991 419.876 -854.893 -3569.924 -0.265 0.013 -0.212 -0.04 -0.57 0.82 0.02
1 2.62 262 -0.134 -9.156 3.534 -0.793 -5.341 3.052 494.978 -809.922 -3569.924 -0.196 -0.021 -0.111 -0.04 -0.57 0.82 0.02
1 2.63 263 -0.187 -9.228 3.448 -0.427 -4.608 2.960 494.978 -809.922 -3569.924 -0.142 0.051 -0.024 -0.04 -0.57 0.82 0.02
1 2.64 264 -0.062 -9.314 3.539 -0.275 -4.364 2.441 494.978 -854.893 -3599.905 -0.266 0.138 -0.114 -0.04 -0.57 0.82 0.02
1 2.65 265 -0.192 -9.256 3.534 -0.580 -4.578 2.136 434.867 -869.883 -3584.915 -0.134 0.081 -0.106 -0.04 -0.57 0.82 0.02
1 2.66 266 -0.139 -9.242 3.500 -1.495 -4.730 2.045 434.867 -869.883 -3554.934 -0.185 0.067 -0.072 -0.04 -0.57 0.82 0.02
1 2.67 267 -0.144 -9.443 3.601 -1.160 -4.059 2.747 434.867 -869.883 -3554.934 -0.179 0.268 -0.173 -0.04 -0.57 0.82 0.02
1 2.68 268 -0.230 -9.376 3.558 -0.763 -3.479 3.784 494.978 -884.874 -3599.905 -0.092 0.201 -0.130 -0.04 -0.57 0.82 0.02
1 2.69 269 -0.215 -9.237 3.534 -0.214 -3.143 3.357 434.867 -749.961 -3659.866 -0.108 0.062 -0.105 -0.04 -0.57 0.82 0.02
1 2.70 270 -0.254 -9.343 3.639 0.244 -4.242 3.326 434.867 -749.961 -3659.866 -0.072 0.168 -0.209 -0.04 -0.57 0.82 0.02
1 2.71 271 -0.206 -9.357 3.529 0.122 -4.272 3.998 524.958 -884.874 -3749.957 -0.120 0.184 -0.096 -0.04 -0.57 0.82 0.02
1 2.72 272 -0.254 -9.275 3.338 -0.305 -3.967 4.334 449.857 -854.893 -3719.977 -0.076 0.103 0.098 -0.04 -0.57 0.82 0.02
1 2.73 273 -0.263 -9.184 3.520 -0.305 -3.815 4.272 494.978 -854.893 -3569.924 -0.068 0.013 -0.083 -0.04 -0.57 0.82 0.02
1 2.74 274 -0.311 -9.213 3.323 -0.061 -4.059 3.326 494.978 -854.893 -3569.924 -0.023 0.042 0.115 -0.04 -0.57 0.82 0.02
1 2.75 275 -0.383 -9.161 3.376 0.854 -5.157 2.960 389.896 -1019.936 -3704.986 0.049 -0.010 0.064 -0.04 -0.57 0.82 0.02
1 2.76 276 -0.445 -9.386 3.424 1.556 -6.134 2.106 539.948 -869.883 -3584.915 0.111 0.216 0.018 -0.04 -0.57 0.82 0.02
1 2.77 277 -0.575 -9.343 3.352 0.793 -6.775 2.014 539.948 -869.883 -3584.915 0.241 0.174 0.093 -0.04 -0.57 0.82 0.02
1 2.78 278 -0.441 -9.271 3.472 0.671 -8.179 2.197 449.857 -854.893 -3674.856 0.107 0.103 -0.024 -0.04 -0.57 0.82 0.02
1 2.79 279 -0.469 -9.352 3.237 1.190 -8.057 1.892 449.857 -854.893 -3674.856 0.136 0.185 0.213 -0.04 -0.57 0.82 0.02
1 2.80 280 -0.407 -9.285 3.491 0.366 -9.064 2.228 374.906 -884.874 -3539.944 0.078 0.120 -0.036 -0.04 -0.57 0.82 0.02
1 2.81 281 -0.311 -9.328 3.505 0.366 -8.331 2.625 374.906 -884.874 -3539.944 -0.016 0.164 -0.048 -0.04 -0.57 0.82 0.02
1 2.82 282 -0.244 -9.275 3.472 -0.183 -8.270 3.052 449.857 -884.874 -3539.944 -0.082 0.112 -0.013 -0.04 -0.57 0.82 0.02
1 2.83 283 -0.359 -9.252 3.515 0.427 -7.446 3.448 464.847 -914.854 -3479.983 0.035 0.088 -0.055 -0.03 -0.57 0.82 0.02
1 2.84 284 -0.393 -9.208 3.448 -0.153 -7.202 3.174 464.847 -914.854 -3479.983 0.069 0.046 0.015 -0.03 -0.57 0.82 0.02
1 2.85 285 -0.244 -9.175 3.477 -0.610 -6.958 3.387 374.906 -959.975 -3674.856 -0.078 0.014 -0.012 -0.03 -0.57 0.82 0.02
1 2.86 286 -0.311 -9.256 3.544 -0.641 -6.775 2.716 374.906 -959.975 -3674.856 -0.011 0.095 -0.077 -0.03 -0.57 0.82 0.02
1 2.87 287 -0.326 -9.414 3.496 -1.190 -6.958 2.533 539.948 -839.903 -3764.947 0.006 0.254 -0.028 -0.03 -0.57 0.82 0.02
1 2.88 288 -0.283 -9.347 3.591 -1.221 -7.111 2.594 539.948 -839.903 -3764.947 -0.036 0.187 -0.124 -0.03 -0.57 0.82 0.02
1 2.89 289 -0.335 -9.390 3.639 -0.885 -7.111 3.052 539.948 -869.883 -3584.915 0.018 0.230 -0.172 -0.03 -0.57 0.82 0.02
1 2.90 290 -0.268 -9.448 3.591 0.122 -6.500 2.777 269.974 -959.975 -3494.973 -0.048 0.288 -0.122 -0.03 -0.57 0.82 0.02
1 2.91 291 -0.259 -9.223 3.615 0.763 -5.280 2.350 269.974 -959.975 -3494.973 -0.057 0.064 -0.144 -0.03 -0.57 0.82 0.02
1 2.92 292 -0.359 -9.156 3.563 1.404 -4.944 2.747 509.968 -869.883 -3584.915 0.044 -0.002 -0.088 -0.03 -0.57 0.82 0.02
1 2.93 293 -0.345 -9.218 3.649 1.373 -5.371 2.289 509.968 -869.883 -3584.915 0.029 0.062 -0.170 -0.03 -0.57 0.82 0.02
1 2.94 294 -0.335 -9.228 3.587 0.366 -6.042 2.777 329.935 -869.883 -3629.885 0.020 0.074 -0.100 -0.03 -0.57 0.82 0.02
1 2.95 295 -0.330 -9.199 3.635 0.916 -6.012 2.563 329.935 -869.883 -3629.885 0.016 0.046 -0.146 -0.03 -0.57 0.82 0.02
1 2.96 296 -0.359 -9.290 3.635 0.122 -5.798 3.113 524.958 -884.874 -3599.905 0.045 0.138 -0.143 -0.03 -0.57 0.82 0.02
1 2.97 297 -0.369 -9.204 3.654 0.549 -5.310 3.082 299.955 -959.975 -3749.957 0.055 0.053 -0.159 -0.03 -0.57 0.82 0.02
1 2.98 298 -0.340 -9.247 3.673 1.251 -5.035 3.540 299.955 -959.975 -3749.957 0.025 0.098 -0.174 -0.03 -0.57 0.82 0.02
1 2.99 299 -0.321 -9.352 3.534 1.648 -5.035 3.418 389.896 -869.883 -3584.915 0.004 0.205 -0.031 -0.03 -0.57 0.82 0.02
1 3.00 300 -0.326 -9.299 3.481 1.221 -6.378 3.326 389.896 -869.883 -3584.915 0.008 0.154 0.026 -0.03 -0.57 0.82 0.02
1 3.01 301 -0.225 -9.156 3.558 0.702 -6.622 2.686 434.867 -839.903 -3584.915 -0.093 0.012 -0.048 -0.03 -0.57 0.82 0.02
1 3.02 302 -0.215 -9.199 3.558 0.732 -6.470 2.563 464.847 -719.981 -3659.866 -0.101 0.057 -0.041 -0.03 -0.57 0.82 0.02
1 3.03 303 -0.182 -9.122 3.611 0.946 -5.554 2.106 359.916 -794.932 -3584.915 -0.133 -0.018 -0.091 -0.03 -0.57 0.82 0.02
1 3.04 304 -0.057 -9.137 3.601 1.251 -5.096 2.319 434.867 -869.883 -3764.947 -0.256 -0.002 -0.077 -0.03 -0.57 0.82 0.02
1 3.05 305 -0.120 -9.247 3.582 1.160 -5.035 1.678 434.867 -869.883 -3764.947 -0.192 0.109 -0.053 -0.03 -0.56 0.82 0.02
1 3.06 306 -0.235 -9.271 3.754 0.763 -4.120 1.801 359.916 -869.883 -3509.963 -0.074 0.135 -0.222 -0.03 -0.56 0.82 0.02
1 3.07 307 -0.235 -9.252 3.702 0.977 -4.181 2.167 359.916 -869.883 -3509.963 -0.072 0.117 -0.166 -0.03 -0.56 0.82 0.02
1 3.08 308 -0.196 -9.156 3.658 1.923 -3.754 1.648 299.955 -809.922 -3824.908 -0.109 0.023 -0.119 -0.03 -0.56 0.82 0.02
1 3.09 309 -0.091 -9.189 3.625 1.831 -2.625 1.801 224.854 -929.994 -3719.977 -0.212 0.059 -0.077 -0.03 -0.56 0.83 0.02
1 3.10 310 -0.215 -9.180 3.749 1.617 -2.594 1.251 449.857 -959.975 -3674.856 -0.085 0.051 -0.197 -0.03 -0.56 0.83 0.02
1 3.11 311 -0.139 -9.165 3.658 1.495 -2.380 0.946 464.847 -989.955 -3584.915 -0.160 0.039 -0.102 -0.03 -0.56 0.83 0.02
1 3.12 312 -0.101 -9.151 3.591 1.099 -1.556 0.946 464.847 -989.955 -3584.915 -0.196 0.026 -0.030 -0.03 -0.56 0.83 0.02
1 3.13 313 -0.273 -9.213 3.702 0.519 -2.106 1.099 359.916 -794.932 -3659.866 -0.021 0.089 -0.137 -0.03 -0.56 0.83 0.02
1 3.14 314 -0.321 -9.371 3.687 0.366 -3.143 0.824 359.916 -794.932 -3659.866 0.028 0.248 -0.120 -0.03 -0.56 0.83 0.02
1 3.15 315 -0.306 -9.252 3.620 0.824 -2.808 1.007 329.935 -914.854 -3764.947 0.016 0.129 -0.051 -0.03 -0.56 0.83 0.02
1 3.16 316 -0.345 -9.232 3.649 2.228 -1.587 1.099 299.955 -809.922 -3569.924 0.057 0.113 -0.073 -0.03 -0.56 0.83 0.02
1 3.17 317 -0.493 -9.218 3.615 2.380 -1.251 0.916 389.896 -914.854 -3659.866 0.206 0.100 -0.035 -0.03 -0.56 0.83 0.02
1 3.18 318 -0.254 -9.232 3.563 3.387 -1.740 0.702 269.974 -1049.916 -3719.977 -0.034 0.116 0.022 -0.03 -0.56 0.83 0.02
1 3.19 319 -0.263 -9.103 3.711 3.540 -2.350 1.221 269.974 -1049.916 -3719.977 -0.023 -0.011 -0.120 -0.03 -0.56 0.83 0.02
1 3.20 320 -0.268 -8.993 3.553 1.190 -1.404 0.366 284.964 -1094.887 -3764.947 -0.018 -0.119 0.044 -0.03 -0.56 0.83 0.02
1 3.21 321 -0.254 -9.094 3.649 0.000 -1.587 0.763 284.964 -1094.887 -3764.947 -0.031 -0.017 -0.049 -0.03 -0.56 0.83 0.02
1 3.22 322 -0.359 -9.079 3.587 -0.916 -2.014 0.854 284.964 -794.932 -3734.967 0.075 -0.031 0.015 -0.03 -0.56 0.83 0.02
1 3.23 323 -0.335 -9.280 3.658 -0.305 -1.465 0.885 194.873 -1049.916 -3644.875 0.052 0.171 -0.056 -0.03 -0.56 0.83 0.02
1 3.24 324 -0.378 -9.189 3.816 -0.732 -2.380 0.793 254.984 -869.883 -3659.866 0.096 0.080 -0.214 -0.03 -0.56 0.83 0.02
1 3.25 325 -0.321 -9.333 3.769 -1.312 -2.441 1.190 269.974 -929.994 -3539.944 0.039 0.224 -0.165 -0.03 -0.56 0.83 0.02
1 3.26 326 -0.311 -9.228 3.668 -1.923 -3.052 1.129 269.974 -929.994 -3539.944 0.031 0.118 -0.065 -0.03 -0.56 0.83 0.02
1 3.27 327 -0.244 -9.146 3.697 -1.740 -2.258 0.488 329.935 -944.984 -3734.967 -0.036 0.036 -0.095 -0.03 -0.56 0.83 0.02
1 3.28 328 -0.378 -9.232 3.644 0.732 -1.190 1.373 329.935 -944.984 -3734.967 0.099 0.123 -0.042 -0.03 -0.56 0.83 0.02
1 3.29 329 -0.369 -9.232 3.620 1.984 -0.671 1.526 344.925 -929.994 -3794.928 0.090 0.123 -0.017 -0.03 -0.56 0.83 0.02
1 3.30 330 -0.374 -9.189 3.615 1.678 -1.343 1.404 329.935 -839.903 -3734.967 0.094 0.081 -0.009 -0.03 -0.56 0.83 0.02
1 3.31 331 -0.196 -9.275 3.625 0.244 -2.045 0.519 344.925 -959.975 -3599.905 -0.085 0.171 -0.011 -0.03 -0.56 0.83 0.02
1 3.32 332 -0.220 -9.232 3.716 -1.984 -2.014 0.702 419.876 -1049.916 -3719.977 -0.060 0.128 -0.101 -0.03 -0.56 0.83 0.02
1 3.33 333 -0.163 -9.295 3.730 -2.350 -0.977 0.549 419.876 -1049.916 -3719.977 -0.116 0.190 -0.116 -0.03 -0.56 0.83 0.02
1 3.34 334 -0.235 -9.194 3.649 -1.678 -0.183 -0.214 419.876 -1079.896 -3674.856 -0.043 0.089 -0.035 -0.03 -0.56 0.83 0.02
1 3.35 335 -0.249 -9.189 3.740 0.000 0.763 -0.122 419.876 -1079.896 -3674.856 -0.026 0.084 -0.127 -0.03 -0.56 0.83 0.02
1 3.36 336 -0.426 -9.314 3.702 2.075 0.519 -0.214 284.964 -914.854 -3629.885 0.152 0.209 -0.086 -0.03 -0.56 0.83 0.02
1 3.37 337 -0.464 -9.098 3.654 2.014 -0.397 -0.641 359.916 -914.854 -3629.885 0.191 -0.005 -0.035 -0.03 -0.56 0.83 0.02
1 3.38 338 -0.436 -9.113 3.697 -0.519 -0.488 -0.549 344.925 -929.994 -3644.875 0.164 0.012 -0.071 -0.03 -0.56 0.83 0.02
1 3.39 339 -0.306 -9.237 3.663 -2.167 -0.671 -0.702 344.925 -929.994 -3599.905 0.036 0.137 -0.038 -0.03 -0.56 0.83 0.02
1 3.40 340 -0.321 -9.175 3.601 -2.777 -0.977 -0.488 344.925 -929.994 -3599.905 0.052 0.073 0.023 -0.03 -0.56 0.83 0.02
1 3.41 341 -0.254 -9.232 3.591 -2.960 -0.641 0.244 419.876 -884.874 -3794.928 -0.013 0.130 0.030 -0.03 -0.56 0.83 0.02
1 3.42 342 -0.345 -9.232 3.567 -1.465 -0.244 0.122 419.876 -884.874 -3794.928 0.079 0.129 0.051 -0.03 -0.56 0.83 0.02
1 3.43 343 -0.374 -9.295 3.649 -0.366 -0.244 0.092 344.925 -1079.896 -3644.875 0.108 0.191 -0.031 -0.03 -0.56 0.83 0.02
1 3.44 344 -0.292 -9.256 3.668 -0.153 -0.732 -0.183 284.964 -914.854 -3764.947 0.026 0.153 -0.050 -0.03 -0.56 0.83 0.02
1 3.45 345 -0.402 -9.184 3.673 -1.556 -1.007 0.000 284.964 -914.854 -3764.947 0.138 0.081 -0.054 -0.03 -0.56 0.83 0.02
1 3.46 346 -0.345 -9.285 3.702 -2.594 -0.885 0.092 329.935 -869.883 -3659.866 0.080 0.181 -0.084 -0.03 -0.56 0.83 0.02
1 3.47 347 -0.335 -9.122 3.726 -2.319 -0.793 0.580 329.935 -869.883 -3659.866 0.071 0.017 -0.110 -0.03 -0.56 0.83 0.02
1 3.48 348 -0.397 -9.084 3.572 -1.526 -0.061 0.336 494.978 -929.994 -3719.977 0.133 -0.021 0.043 -0.03 -0.56 0.83 0.02
1 3.49 349 -0.340 -9.079 3.716 -0.885 0.092 0.854 494.978 -929.994 -3719.977 0.074 -0.026 -0.101 -0.03 -0.56 0.83 0.02
1 3.50 350 -0.479 -9.151 3.658 -0.427 -0.916 1.129 299.955 -1004.945 -3599.905 0.212 0.046 -0.043 -0.03 -0.56 0.83 0.02
1 3.51 351 -0.402 -9.204 3.692 -1.587 -1.617 0.641 329.935 -914.854 -3659.866 0.134 0.099 -0.076 -0.03 -0.56 0.83 0.02
1 3.52 352 -0.364 -9.285 3.649 -2.136 -2.136 -0.061 329.935 -914.854 -3659.866 0.095 0.180 -0.033 -0.03 -0.56 0.83 0.02
1 3.53 353 -0.407 -9.338 3.577 -2.991 -1.648 0.397 419.876 -809.922 -3599.905 0.141 0.231 0.034 -0.03 -0.56 0.83 0.02
1 3.54 354 -0.321 -9.218 3.692 -3.174 -1.343 0.916 419.876 -809.922 -3599.905 0.055 0.110 -0.084 -0.03 -0.56 0.83 0.02
1 3.55 355 -0.460 -9.319 3.687 -1.190 -0.885 0.580 434.867 -839.903 -3734.967 0.194 0.210 -0.081 -0.03 -0.56 0.83 0.02
1 3.56 356 -0.345 -9.275 3.769 0.458 -0.397 0.122 434.867 -839.903 -3734.967 0.078 0.167 -0.162 -0.03 -0.56 0.83 0.02
1 3.57 357 -0.498 -9.184 3.601 0.549 -1.556 0.580 359.916 -944.984 -3659.866 0.232 0.077 0.008 -0.03 -0.56 0.83 0.02
1 3.58 358 -0.340 -9.256 3.726 -1.587 -2.899 0.183 299.955 -884.874 -3749.957 0.073 0.150 -0.115 -0.03 -0.56 0.83 0.02
1 3.59 359 -0.412 -9.299 3.692 -2.289 -3.052 0.244 299.955 -884.874 -3749.957 0.146 0.193 -0.081 -0.03 -0.56 0.83 0.02
1 3.60 360 -0.268 -9.266 3.778 -2.441 -2.350 0.336 434.867 -1019.936 -3629.885 0.005 0.158 -0.170 -0.03 -0.56 0.83 0.02
1 3.61 361 -0.369 -9.242 3.793 -1.617 -1.678 0.641 434.867 -1019.936 -3629.885 0.107 0.134 -0.186 -0.03 -0.56 0.83 0.02
1 3.62 362 -0.350 -9.232 3.778 -0.580 -1.434 0.793 269.974 -929.994 -3674.856 0.087 0.124 -0.171 -0.03 -0.56 0.83 0.02
1 3.63 363 -0.421 -9.266 3.682 -0.397 -0.977 0.763 269.974 -929.994 -3674.856 0.158 0.158 -0.074 -0.03 -0.56 0.83 0.02
1 3.64 364 -0.369 -9.017 3.793 -0.458 -1.953 0.977 419.876 -959.975 -3599.905 0.104 -0.091 -0.184 -0.03 -0.56 0.83 0.02
1 3.65 365 -0.469 -9.165 3.702 -1.648 -2.747 1.373 224.854 -929.994 -3824.908 0.204 0.058 -0.091 -0.03 -0.56 0.83 0.02
1 3.66 366 -0.374 -9.156 3.826 -2.106 -3.418 1.190 224.854 -929.994 -3824.908 0.108 0.049 -0.215 -0.03 -0.56 0.83 0.02
1 3.67 367 -0.464 -9.261 3.778 -2.441 -2.716 1.526 374.906 -959.975 -3539.944 0.199 0.154 -0.168 -0.03 -0.56 0.83 0.02
1 3.68 368 -0.436 -9.232 3.793 -1.526 -2.411 1.160 254.984 -1064.906 -3584.915 0.169 0.125 -0.183 -0.03 -0.56 0.83 0.02
1 3.69 369 -0.493 -9.189 3.749 -0.702 -1.678 1.953 359.916 -989.955 -3659.866 0.226 0.082 -0.140 -0.03 -0.56 0.83 0.02
1 3.70 370 -0.407 -9.247 3.716 -0.458 -2.228 2.106 359.916 -989.955 -3659.866 0.138 0.140 -0.104 -0.03 -0.56 0.83 0.02
1 3.71 371 -0.441 -9.180 3.826 0.183 -1.953 2.167 284.964 -914.854 -3659.866 0.170 0.074 -0.213 -0.03 -0.56 0.83 0.02
1 3.72 372 -0.335 -9.213 3.869 0.580 -2.533 2.136 209.863 -869.883 -3659.866 0.063 0.109 -0.253 -0.03 -0.56 0.83 0.02
1 3.73 373 -0.254 -9.237 3.807 0.519 -1.923 1.343 209.863 -869.883 -3659.866 -0.020 0.135 -0.187 -0.03 -0.56 0.83 0.02
1 3.74 374 -0.421 -9.242 3.888 0.183 -2.441 1.068 134.912 -914.854 -3809.918 0.148 0.140 -0.265 -0.03 -0.56 0.83 0.02
1 3.75 375 -0.397 -9.180 3.941 1.068 -1.923 0.977 269.974 -1004.945 -3749.957 0.125 0.081 -0.312 -0.03 -0.56 0.83 0.02
1 3.76 376 -0.326 -9.285 3.836 2.655 -2.106 1.404 359.916 -944.984 -3584.915 0.053 0.188 -0.201 -0.03 -0.56 0.83 0.02
1 3.77 377 -0.488 -9.117 3.793 2.686 -1.587 1.740 359.916 -944.984 -3584.915 0.215 0.023 -0.152 -0.03 -0.56 0.83 0.02
1 3.78 378 -0.474 -9.060 3.850 3.540 -2.136 1.434 299.955 -884.874 -3644.875 0.199 -0.032 -0.203 -0.03 -0.56 0.83 0.02
1 3.79 379 -0.407 -9.036 3.769 3.693 -3.113 1.282 284.964 -989.955 -3584.915 0.131 -0.053 -0.114 -0.03 -0.56 0.83 0.02
1 3.80 380 -0.474 -9.256 3.831 2.472 -4.425 1.587 284.964 -989.955 -3584.915 0.198 0.171 -0.168 -0.03 -0.56 0.83 0.02
1 3.81 381 -0.354 -9.208 3.955 2.533 -5.188 1.251 269.974 -929.994 -3824.908 0.079 0.125 -0.286 -0.03 -0.56 0.83 0.02
1 3.82 382 -0.311 -9.457 3.903 4.211 -5.524 1.892 389.896 -1019.936 -3734.967 0.039 0.379 -0.221 -0.03 -0.56 0.83 0.02
1 3.83 383 -0.364 -9.180 3.874 5.493 -4.578 2.350 269.974 -1079.896 -3644.875 0.092 0.105 -0.184 -0.03 -0.56 0.83 0.02
1 3.84 384 -0.421 -9.261 3.912 6.287 -4.547 2.899 269.974 -1079.896 -3644.875 0.149 0.191 -0.211 -0.03 -0.56 0.83 0.02
1 3.85 385 -0.474 -9.132 3.812 6.775 -4.272 3.265 209.863 -914.854 -3629.885 0.201 0.066 -0.100 -0.03 -0.56 0.83 0.02
1 3.86 386 -0.474 -9.223 3.797 6.134 -5.310 3.021 164.893 -1124.867 -3719.977 0.199 0.162 -0.075 -0.03 -0.56 0.83 0.02
1 3.87 387 -0.393 -9.065 3.951 5.371 -6.226 3.876 164.893 -1124.867 -3719.977 0.115 0.008 -0.218 -0.03 -0.56 0.83 0.02
1 3.88 388 -0.292 -9.065 3.826 4.791 -6.653 3.052 359.916 -989.955 -3704.986 0.013 0.011 -0.084 -0.03 -0.56 0.83 0.02
1 3.89 389 -0.388 -9.247 3.874 4.334 -6.744 3.815 284.964 -1019.936 -3629.885 0.108 0.197 -0.123 -0.03 -0.55 0.83 0.02
1 3.90 390 -0.321 -9.252 3.884 4.364 -6.928 4.334 179.883 -1064.906 -3764.947 0.040 0.209 -0.116 -0.03 -0.55 0.83 0.02
1 3.91 391 -0.364 -9.232 3.879 4.822 -5.951 3.998 179.883 -1064.906 -3764.947 0.082 0.193 -0.103 -0.03 -0.55 0.83 0.02
1 3.92 392 -0.297 -9.204 3.816 5.066 -6.378 4.211 134.912 -1019.936 -3659.866 0.013 0.168 -0.032 -0.03 -0.55 0.83 0.02
1 3.93 393 -0.350 -9.108 3.769 6.042 -6.989 4.395 284.964 -1064.906 -3659.866 0.065 0.076 0.025 -0.03 -0.55 0.83 0.02
1 3.94 394 -0.321 -9.031 3.850 6.012 -8.453 5.157 284.964 -1064.906 -3659.866 0.034 0.004 -0.047 -0.03 -0.55 0.83 0.01
1 3.95 395 -0.268 -9.146 3.840 5.493 -8.637 5.707 269.974 -1004.945 -3824.908 -0.020 0.123 -0.028 -0.03 -0.55 0.83 0.01
1 3.96 396 -0.182 -9.089 3.860 5.371 -8.606 6.012 359.916 -1139.857 -3809.918 -0.108 0.070 -0.037 -0.03 -0.55 0.83 0.01
1 3.97 397 -0.182 -9.228 3.816 4.395 -8.728 5.615 164.893 -959.975 -3749.957 -0.111 0.216 0.023 -0.03 -0.55 0.83 0.01
1 3.98 398 -0.302 -9.204 3.773 3.632 -9.277 5.890 164.893 -959.975 -3749.957 0.007 0.195 0.073 -0.03 -0.55 0.83 0.01
1 3.99 399 -0.292 -9.228 3.687 3.815 -10.132 6.012 269.974 -1049.916 -3824.908 -0.004 0.221 0.165 -0.03 -0.55 0.83 0.01
1 4.00 400 -0.278 -9.180 3.596 4.242 -10.559 6.928 344.925 -1079.896 -3719.977 -0.020 0.176 0.262 -0.03 -0.55 0.83 0.01
1 4.01 401 -0.326 -9.213 3.793 4.852 -10.071 7.416 344.925 -1079.896 -3719.977 0.025 0.212 0.072 -0.02 -0.55 0.83 0.01
1 4.02 402 -0.235 -8.955 3.769 4.761 -9.796 7.477 269.974 -1004.945 -3644.875 -0.069 -0.043 0.103 -0.02 -0.55 0.84 0.01
1 4.03 403 -0.287 -9.117 3.836 3.448 -9.491 8.301 209.863 -1064.906 -3809.918 -0.020 0.123 0.044 -0.02 -0.55 0.84 0.01
1 4.04 404 -0.316 -9.055 3.788 0.732 -9.247 8.942 329.935 -1094.887 -3764.947 0.001 0.066 0.102 -0.02 -0.55 0.84 0.01
1 4.05 405 -0.402 -9.094 3.615 -0.366 -9.094 9.583 329.935 -1094.887 -3764.947 0.081 0.105 0.275 -0.02 -0.55 0.84 0.01
1 4.06 406 -0.306 -9.208 3.759 0.031 -8.575 9.491 269.974 -1154.998 -3599.905 -0.021 0.220 0.132 -0.02 -0.55 0.84 0.01
1 4.07 407 -0.369 -9.074 3.783 1.068 -8.331 9.308 299.955 -1049.916 -3794.928 0.036 0.086 0.109 -0.02 -0.55 0.84 0.01
1 4.08 408 -0.397 -8.998 3.836 1.190 -8.057 9.277 299.955 -1049.916 -3794.928 0.057 0.011 0.059 -0.02 -0.55 0.84 0
1 4.09 409 -0.388 -9.003 3.836 1.617 -8.881 8.026 179.883 -1019.936 -3734.967 0.041 0.018 0.062 -0.02 -0.55 0.84 0
1 4.10 410 -0.546 -9.170 3.874 -0.824 -9.003 7.996 209.863 -1214.958 -3809.918 0.194 0.187 0.027 -0.02 -0.55 0.84 0
1 4.11 411 -0.484 -9.347 3.840 -2.563 -9.613 7.751 209.863 -1214.958 -3809.918 0.126 0.365 0.062 -0.02 -0.55 0.84 0
1 4.12 412 -0.464 -9.400 3.965 -2.106 -9.125 7.355 194.873 -1049.916 -3854.889 0.097 0.415 -0.068 -0.02 -0.55 0.84 0
1 4.13 413 -0.187 -9.146 3.874 0.183 -10.895 8.118 299.955 -1154.998 -3794.928 -0.186 0.161 0.021 -0.02 -0.55 0.84 0
1 4.14 414 -0.192 -9.012 3.879 0.366 -10.620 9.766 224.854 -1124.867 -3719.977 -0.184 0.029 0.019 0.02 0.55 -0.84 0
1 4.15 415 -0.407 -8.873 4.022 -1.465 -5.371 6.470 224.854 -1124.867 -3719.977 0.027 -0.109 -0.122 0.02 0.55 -0.84 0
1 4.16 416 -0.733 -9.247 3.797 -0.153 -2.747 0.397 284.964 -1094.887 -3764.947 0.350 0.265 0.104 0.02 0.55 -0.84 0
1 4.17 417 -0.484 -9.424 3.840 -0.183 -11.963 6.775 194.873 -1154.998 -3749.957 0.101 0.442 0.061 0.02 0.55 -0.84 0
1 4.18 418 0.129 -9.323 3.831 0.305 -25.269 16.235 194.873 -1154.998 -3749.957 -0.514 0.342 0.071 0.02 0.55 -0.84 0
1 4.19 419 0.134 -9.453 4.128 -4.059 -15.350 19.775 254.984 -989.955 -3704.986 -0.529 0.472 -0.225 0.02 0.55 -0.84 0.01
1 4.20 420 -0.493 -9.347 4.200 -0.427 2.411 7.965 179.883 -1259.929 -3915.000 0.087 0.366 -0.300 0.02 0.55 -0.84 0.01
1 4.21 421 -0.800 -9.362 3.884 4.578 5.920 2.899 299.955 -1124.867 -3929.990 0.384 0.382 0.019 0.02 0.55 -0.84 0.01
1 4.22 422 -0.608 -9.170 3.716 4.700 -7.080 8.057 299.955 -1124.867 -3929.990 0.184 0.194 0.195 0.02 0.55 -0.84 0.01
1 4.23 423 -0.455 -9.218 3.606 -1.251 -17.548 15.961 194.873 -1004.945 -3749.957 0.022 0.245 0.310 0.02 0.55 -0.84 0.01
1 4.24 424 0.105 -9.218 3.567 -7.080 -19.318 18.463 269.974 -1124.867 -3899.859 -0.550 0.243 0.344 0.02 0.55 -0.84 0.01
1 4.25 425 0.709 -8.074 4.334 12.817 -24.109 14.404 269.974 -1124.867 -3899.859 -1.166 -0.905 -0.433 0.02 0.55 -0.84 0.01
1 4.26 426 0.292 -8.519 4.362 12.878 2.747 11.932 269.974 -1124.867 -3929.990 -0.746 -0.442 -0.422 0.02 0.55 -0.84 0.01
1 4.27 427 -0.187 -8.241 3.917 9.094 4.791 6.439 134.912 -1064.906 -3764.947 -0.276 -0.710 0.045 0.02 0.55 -0.84 0.01
1 4.28 428 -0.148 -8.686 3.759 6.958 -3.815 5.829 209.863 -1094.887 -3809.918 -0.321 -0.258 0.218 0.02 0.54 -0.84 0.01
1 4.29 429 -0.010 -8.538 3.874 0.519 -9.674 5.035 209.863 -1094.887 -3809.918 -0.461 -0.402 0.112 0.02 0.54 -0.84 0.01
1 4.30 430 0.254 -8.476 4.018 -5.280 -6.531 1.617 164.893 -1154.998 -3719.977 -0.721 -0.464 -0.031 0.02 0.54 -0.84 0.01
1 4.31 431 0.192 -8.710 3.931 -10.407 6.134 -1.373 284.964 -1094.887 -3884.869 -0.652 -0.233 0.049 0.02 0.54 -0.84 0.01
1 4.32 432 -0.014 -9.031 3.635 -6.683 8.209 -2.563 284.964 -1094.887 -3884.869 -0.441 0.082 0.333 0.02 0.55 -0.84 0.01
1 4.33 433 -0.321 -9.165 3.625 -0.702 4.730 -3.265 89.941 -1124.867 -3719.977 -0.131 0.211 0.333 0.02 0.55 -0.84 0.01
1 4.34 434 -0.359 -9.146 3.697 3.357 -0.458 -4.425 254.984 -1259.929 -3839.898 -0.082 0.191 0.259 0.02 0.55 -0.84 0.01
1 4.35 435 -0.326 -9.007 4.027 1.434 0.702 -5.524 209.863 -1064.906 -3884.869 -0.107 0.053 -0.068 0.02 0.55 -0.84 0.01
1 4.36 436 -0.110 -8.916 4.123 -1.740 4.089 -6.256 209.863 -1064.906 -3884.869 -0.314 -0.037 -0.162 0.02 0.55 -0.84 0.01
1 4.37 437 -0.081 -8.888 4.099 -5.280 8.423 -5.920 209.863 -1214.958 -3839.898 -0.333 -0.067 -0.140 0.02 0.55 -0.84 0.01
1 4.38 438 -0.474 -8.935 4.133 -8.301 12.390 -6.928 119.922 -1049.916 -3794.928 0.065 -0.022 -0.179 0.02 0.55 -0.84 0.01
1 4.39 439 -0.594 -9.041 4.133 -8.209 12.360 -9.186 119.922 -1049.916 -3794.928 0.189 0.079 -0.188 0.02 0.55 -0.84 0
1 4.40 440 -0.838 -9.089 4.056 -7.782 11.688 -8.850 269.974 -1049.916 -3974.960 0.444 0.117 -0.131 0.02 0.55 -0.84 0
1 4.41 441 -0.848 -9.065 4.137 -8.118 11.841 -9.155 254.984 -1094.887 -3809.918 0.457 0.089 -0.223 0.02 0.55 -0.84 0
1 4.42 442 -0.953 -9.127 4.013 -8.942 11.780 -8.026 254.984 -1019.936 -3764.947 0.565 0.147 -0.108 -0.02 -0.55 0.84 0
1 4.43 443 -0.809 -9.031 3.864 -8.514 10.895 -7.629 254.984 -1019.936 -3764.947 0.422 0.046 0.030 -0.02 -0.55 0.84 0
1 4.44 444 -0.867 -9.065 3.836 -7.690 10.529 -7.568 179.883 -989.955 -3809.918 0.481 0.075 0.047 -0.03 -0.55 0.84 0
1 4.45 445 -0.776 -9.050 3.936 -6.439 10.986 -7.294 104.932 -1214.958 -3915.000 0.391 0.057 -0.063 -0.03 -0.55 0.84 0
1 4.46 446 -0.862 -9.103 3.821 -5.066 9.735 -6.287 104.932 -1214.958 -3915.000 0.478 0.106 0.045 -0.03 -0.55 0.83 0
1 4.47 447 -0.895 -9.098 3.850 -5.402 7.813 -6.622 134.912 -914.854 -3839.898 0.511 0.099 0.010 -0.03 -0.55 0.83 0.01
1 4.48 448 -0.704 -9.299 3.946 -9.003 5.066 -6.561 224.854 -1049.916 -3599.905 0.325 0.293 -0.102 -0.03 -0.55 0.83 0.01
1 4.49 449 -0.824 -9.462 4.013 -11.383 8.087 -5.890 89.941 -1049.916 -3794.928 0.449 0.450 -0.181 -0.03 -0.55 0.83 0.01
1 4.50 450 -0.613 -9.343 3.879 -11.536 9.125 -5.280 89.941 -1049.916 -3794.928 0.240 0.324 -0.062 -0.03 -0.55 0.83 0.01
1 4.51 451 -0.666 -9.285 3.816 -9.369 7.507 -4.883 59.961 -944.984 -3884.869 0.293 0.261 -0.014 -0.03 -0.55 0.83 0.01
1 4.52 452 -0.555 -9.050 3.735 -5.768 3.052 -4.547 284.964 -1094.887 -3764.947 0.184 0.021 0.056 -0.03 -0.55 0.83 0.01
1 4.53 453 -0.397 -8.639 4.003 -2.319 2.014 -4.852 284.964 -1094.887 -3764.947 0.031 -0.393 -0.218 -0.03 -0.55 0.83 0.01
1 4.54 454 -0.340 -8.696 4.147 -1.740 5.829 -5.707 284.964 -1019.936 -3764.947 -0.022 -0.337 -0.363 -0.03 -0.55 0.83 0.01
1 4.55 455 -0.350 -8.734 4.080 -4.761 8.606 -6.226 284.964 -1019.936 -3764.947 -0.006 -0.298 -0.295 -0.03 -0.55 0.83 0.01
1 4.56 456 -0.330 -9.127 3.879 -11.414 7.629 -5.829 179.883 -989.955 -3659.866 -0.016 0.091 -0.102 -0.03 -0.55 0.83 0.01
1 4.57 457 -0.374 -9.194 3.721 -15.595 3.296 -6.439 179.883 -989.955 -3659.866 0.033 0.151 0.041 -0.03 -0.55 0.83 0.01
1 4.58 458 -0.091 -9.443 3.673 -16.968 1.709 -6.683 284.964 -1019.936 -3809.918 -0.242 0.391 0.067 -0.03 -0.56 0.83 0.01
1 4.59 459 0.306 -9.558 3.491 -15.778 1.801 -6.500 224.854 -1124.867 -3719.977 -0.628 0.496 0.225 -0.03 -0.56 0.83 0.01
1 4.60 460 0.555 -9.338 3.635 -8.301 7.996 -4.700 224.854 -1124.867 -3719.977 -0.865 0.266 0.060 -0.03 -0.56 0.83 0.02
1 4.61 461 0.579 -9.242 3.505 -3.235 11.200 -3.571 254.984 -989.955 -3734.967 -0.878 0.164 0.176 -0.03 -0.56 0.83 0.02
1 4.62 462 0.565 -9.060 3.567 -1.099 12.512 -3.448 254.984 -989.955 -3734.967 -0.857 -0.020 0.107 -0.03 -0.56 0.83 0.02
1 4.63 463 0.235 -8.821 3.572 -2.960 12.512 -3.357 254.984 -1019.936 -3704.986 -0.516 -0.262 0.098 -0.03 -0.56 0.83 0.02
1 4.64 464 0.101 -8.816 3.534 -6.317 10.986 -4.181 254.984 -1019.936 -3704.986 -0.378 -0.269 0.132 -0.03 -0.56 0.83 0.02
1 4.65 465 -0.125 -9.055 3.654 -8.575 10.864 -4.761 224.854 -1049.916 -3644.875 -0.149 -0.033 0.003 -0.03 -0.56 0.83 0.02
1 4.66 466 -0.168 -9.003 3.749 -9.338 11.902 -5.096 194.873 -929.994 -3674.856 -0.103 -0.090 -0.105 -0.03 -0.56 0.83 0.02
1 4.67 467 -0.268 -9.213 3.668 -10.071 12.939 -7.080 194.873 -929.994 -3674.856 0.002 0.116 -0.035 -0.03 -0.56 0.83 0.02
1 4.68 468 -0.235 -9.304 3.788 -9.155 11.810 -8.087 299.955 -959.975 -3749.957 -0.028 0.201 -0.167 -0.03 -0.56 0.83 0.02
1 4.69 469 -0.192 -9.338 3.773 -7.996 13.428 -7.690 299.955 -959.975 -3749.957 -0.065 0.230 -0.164 -0.03 -0.56 0.83 0.02
1 4.70 470 -0.077 -9.299 3.831 -8.270 19.348 -10.010 389.896 -944.984 -3704.986 -0.168 0.183 -0.242 -0.03 -0.56 0.83 0.03
1 4.71 471 -0.043 -9.256 3.745 -8.240 21.240 -10.376 389.896 -944.984 -3704.986 -0.196 0.136 -0.166 -0.03 -0.56 0.83 0.03
1 4.72 472 -0.105 -9.132 3.673 -7.324 19.745 -10.773 344.925 -854.893 -3794.928 -0.128 0.008 -0.104 -0.03 -0.56 0.83 0.03
1 4.73 473 0.115 -9.070 3.759 -6.378 18.036 -10.651 269.974 -959.975 -3854.889 -0.341 -0.058 -0.198 -0.04 -0.56 0.83 0.03
1 4.74 474 0.235 -9.060 3.697 -6.866 18.860 -11.292 269.974 -959.975 -3854.889 -0.453 -0.070 -0.143 -0.04 -0.56 0.82 0.03
1 4.75 475 0.508 -9.065 3.668 -7.263 23.438 -12.116 419.876 -1004.945 -3674.856 -0.716 -0.069 -0.122 -0.04 -0.56 0.82 0.03
1 4.76 476 0.488 -9.065 3.615 -6.836 25.787 -12.299 419.876 -1004.945 -3674.856 -0.687 -0.072 -0.078 -0.04 -0.56 0.82 0.04
1 4.77 477 0.402 -9.141 3.702 -5.859 28.687 -12.848 269.974 -959.975 -3539.944 -0.592 0.001 -0.172 -0.04 -0.56 0.82 0.04
1 4.78 478 0.263 -9.261 3.678 -5.096 30.579 -13.367 389.896 -914.854 -3764.947 -0.436 0.116 -0.161 -0.04 -0.56 0.82 0.04
1 4.79 479 0.551 -9.357 3.515 -5.768 29.297 -14.832 359.916 -1019.936 -3734.967 -0.716 0.209 -0.004 -0.04 -0.56 0.82 0.05
1 4.80 480 0.857 -9.395 3.467 -9.277 24.628 -18.372 344.925 -1004.945 -3539.944 -1.010 0.244 0.035 -0.04 -0.57 0.82 0.05
1 4.81 481 0.776 -9.472 3.649 -10.864 27.283 -17.029 344.925 -1004.945 -3539.944 -0.908 0.315 -0.161 -0.04 -0.57 0.82 0.05
1 4.82 482 0.503 -9.371 3.591 -6.531 37.781 -17.304 524.958 -959.975 -3644.875 -0.618 0.209 -0.116 -0.04 -0.57 0.82 0.05
1 4.83 483 0.201 -9.405 3.443 -3.632 42.542 -17.578 524.958 -959.975 -3644.875 -0.304 0.239 0.023 -0.04 -0.57 0.82 0.06
1 4.84 484 0.034 -9.223 3.443 -1.892 42.908 -18.311 254.984 -914.854 -3584.915 -0.129 0.054 0.017 -0.05 -0.57 0.82 0.06
1 4.85 485 -0.067 -9.299 3.496 -3.754 39.826 -18.646 359.916 -869.883 -3659.866 -0.016 0.129 -0.041 -0.05 -0.57 0.82 0.06
1 4.86 486 -0.086 -9.299 3.596 -6.928 41.199 -19.104 599.909 -929.994 -3599.905 0.010 0.127 -0.147 -0.05 -0.57 0.82 0.07
1 4.87 487 -0.474 -9.295 3.544 -8.026 45.929 -17.639 464.847 -1019.936 -3479.983 0.404 0.118 -0.104 -0.05 -0.57 0.82 0.07
1 4.88 488 -0.426 -9.242 3.433 -6.409 47.669 -16.541 464.847 -1019.936 -3479.983 0.355 0.062 -0.003 -0.05 -0.57 0.82 0.07
1 4.89 489 -0.661 -9.161 3.405 -4.211 48.798 -15.198 569.929 -1004.945 -3674.856 0.585 -0.022 0.018 -0.06 -0.57 0.82 0.08
1 4.90 490 -0.541 -8.950 3.347 -1.953 47.394 -14.526 569.929 -1004.945 -3674.856 0.458 -0.234 0.071 -0.06 -0.57 0.82 0.08
1 4.91 491 -0.527 -9.074 3.194 -2.106 46.692 -14.130 464.847 -869.883 -3509.963 0.436 -0.111 0.221 -0.06 -0.57 0.82 0.08
1 4.92 492 -0.517 -9.218 3.342 -2.869 47.821 -15.778 614.899 -719.981 -3509.963 0.415 0.031 0.067 -0.07 -0.57 0.82 0.09
1 4.93 493 -0.369 -9.429 3.405 -3.540 47.852 -16.022 599.909 -959.975 -3464.993 0.262 0.240 0.001 -0.07 -0.57 0.82 0.09
1 4.94 494 -0.460 -9.548 3.323 -2.563 47.394 -15.808 689.851 -869.883 -3509.963 0.349 0.358 0.078 -0.07 -0.57 0.82 0.09
1 4.95 495 -0.426 -9.668 3.299 -1.801 47.028 -15.228 689.851 -869.883 -3509.963 0.312 0.476 0.097 -0.07 -0.57 0.82 0.09
1 4.96 496 -0.359 -9.592 3.271 0.000 46.082 -15.045 779.942 -929.994 -3464.993 0.241 0.398 0.123 -0.08 -0.57 0.81 0.1
1 4.97 497 -0.469 -9.673 3.156 -0.854 44.983 -14.465 779.942 -929.994 -3464.993 0.348 0.479 0.236 -0.08 -0.57 0.81 0.1
1 4.98 498 -0.402 -9.644 3.180 -0.793 45.471 -12.817 704.991 -779.942 -3464.993 0.278 0.449 0.209 -0.08 -0.57 0.81 0.1
1 4.99 499 -0.450 -9.529 3.194 -0.275 44.251 -12.146 704.991 -929.994 -3494.973 0.319 0.334 0.192 -0.08 -0.57 0.81 0.11
1 5.00 500 -0.412 -9.668 3.381 0.580 44.098 -11.810 614.899 -749.961 -3374.901 0.266 0.472 0.002 -0.09 -0.57 0.81 0.11
1 5.01 501 -0.412 -9.520 3.390 0.763 43.488 -10.864 704.991 -779.942 -3389.892 0.258 0.324 -0.007 -0.09 -0.57 0.81 0.11
1 5.02 502 -0.450 -9.769 3.424 -0.092 42.816 -11.231 704.991 -779.942 -3389.892 0.289 0.573 -0.040 -0.09 -0.57 0.81 0.11
1 5.03 503 -0.393 -9.888 3.323 -2.533 42.481 -10.834 779.942 -809.922 -3419.872 0.225 0.692 0.059 -0.09 -0.56 0.81 0.12
1 5.04 504 -0.249 -9.773 3.204 -3.784 41.229 -10.834 779.942 -809.922 -3419.872 0.074 0.575 0.172 -0.09 -0.56 0.81 0.12
1 5.05 505 -0.225 -9.568 3.079 -2.533 40.894 -11.719 734.971 -794.932 -3404.882 0.044 0.366 0.289 -0.1 -0.56 0.81 0.12
1 5.06 506 -0.187 -9.419 3.046 -0.275 40.558 -12.512 1019.936 -794.932 -3449.853 0.001 0.215 0.316 -0.1 -0.56 0.81 0.12
1 5.07 507 -0.201 -9.189 3.093 2.136 41.535 -14.648 794.932 -719.981 -3374.901 0.012 -0.016 0.264 -0.1 -0.56 0.81 0.13
1 5.08 508 -0.340 -9.003 3.261 2.441 41.412 -15.137 929.994 -659.870 -3389.892 0.151 -0.202 0.098 -0.1 -0.56 0.81 0.13
1 5.09 509 -0.407 -8.983 3.266 0.854 41.809 -15.778 929.994 -659.870 -3389.892 0.219 -0.220 0.096 -0.1 -0.56 0.81 0.13
1 5.10 510 -0.670 -9.146 3.357 -1.434 41.931 -16.174 989.955 -749.961 -3194.869 0.482 -0.057 0.005 -0.11 -0.56 0.81 0.14
1 5.11 511 -0.704 -9.247 3.328 -2.808 40.711 -16.174 989.955 -749.961 -3194.869 0.515 0.043 0.031 -0.11 -0.56 0.81 0.14
1 5.12 512 -0.919 -9.400 3.223 -3.540 37.872 -15.045 824.913 -704.991 -3389.892 0.730 0.194 0.132 -0.11 -0.56 0.81 0.14
1 5.13 513 -0.785 -9.534 3.400 -2.167 36.682 -13.428 944.984 -794.932 -3329.931 0.593 0.326 -0.050 -0.11 -0.56 0.81 0.14
1 5.14 514 -0.584 -9.323 3.524 0.305 36.499 -12.787 914.854 -839.903 -3254.979 0.386 0.113 -0.181 -0.11 -0.56 0.81 0.15
1 5.15 515 -0.488 -9.175 3.376 0.580 35.553 -12.268 944.984 -674.860 -3299.950 0.288 -0.035 -0.032 -0.12 -0.56 0.81 0.15
1 5.16 516 -0.393 -9.204 3.496 0.183 35.278 -12.146 944.984 -674.860 -3299.950 0.190 -0.005 -0.150 -0.12 -0.56 0.81 0.15
1 5.17 517 -0.565 -9.141 3.390 -1.495 33.386 -11.902 929.994 -854.893 -3314.940 0.362 -0.067 -0.044 -0.12 -0.56 0.8 0.15
1 5.18 518 -0.455 -9.132 3.342 -1.923 32.166 -12.054 929.994 -854.893 -3314.940 0.251 -0.078 0.002 -0.12 -0.56 0.8 0.15
1 5.19 519 -0.498 -9.208 3.467 0.305 32.868 -12.665 1019.936 -524.958 -3254.979 0.294 -0.002 -0.124 -0.12 -0.56 0.8 0.16
1 5.20 520 -0.646 -9.314 3.328 -0.092 32.288 -12.909 1094.887 -794.932 -3224.999 0.442 0.104 0.014 -0.12 -0.56 0.8 0.16
1 5.21 521 -0.785 -9.304 3.414 -0.488 31.281 -11.810 1094.887 -794.932 -3224.999 0.581 0.095 -0.071 -0.12 -0.56 0.8 0.16
1 5.22 522 -0.613 -9.414 3.323 -3.235 27.802 -11.810 1019.936 -674.860 -3254.979 0.406 0.204 0.017 -0.13 -0.56 0.8 0.16
1 5.23 523 -0.541 -9.333 3.371 -3.601 25.696 -11.688 1019.936 -674.860 -3254.979 0.335 0.120 -0.036 -0.13 -0.56 0.8 0.16
1 5.24 524 -0.488 -9.208 3.352 -3.265 24.933 -10.956 1079.896 -584.919 -3209.859 0.284 -0.006 -0.021 -0.13 -0.56 0.8 0.16
1 5.25 525 -0.311 -9.223 3.366 -2.075 24.780 -10.101 1079.896 -584.919 -3209.859 0.108 0.007 -0.039 -0.13 -0.56 0.8 0.17
1 5.26 526 -0.364 -9.161 3.314 -0.793 23.712 -9.857 1154.848 -734.971 -3134.908 0.163 -0.056 0.012 -0.13 -0.56 0.8 0.17
1 5.27 527 -0.364 -9.247 3.347 -0.336 22.797 -10.162 1079.896 -734.971 -3284.960 0.164 0.030 -0.023 -0.13 -0.56 0.8 0.17
1 5.28 528 -0.330 -9.218 3.472 -1.038 22.675 -10.162 1079.896 -734.971 -3284.960 0.133 0.002 -0.146 -0.13 -0.56 0.8 0.17
1 5.29 529 -0.278 -9.443 3.491 -2.502 22.980 -10.223 1154.848 -659.870 -3134.908 0.086 0.226 -0.167 -0.13 -0.56 0.8 0.17
1 5.30 530 -0.311 -9.390 3.477 -2.777 23.010 -10.651 1154.848 -659.870 -3134.908 0.123 0.172 -0.155 -0.13 -0.56 0.8 0.17
1 5.31 531 -0.292 -9.443 3.553 -3.662 22.522 -11.322 1094.887 -944.984 -3149.898 0.108 0.224 -0.234 -0.13 -0.56 0.8 0.17
1 5.32 532 -0.283 -9.381 3.429 -4.822 21.851 -11.597 1094.887 -944.984 -3149.898 0.103 0.160 -0.114 -0.13 -0.56 0.8 0.18
1 5.33 533 -0.402 -9.261 3.333 -4.730 20.783 -11.108 1259.929 -734.971 -3284.960 0.229 0.038 -0.024 -0.14 -0.56 0.8 0.18
1 5.34 534 -0.220 -9.280 3.290 -4.211 19.013 -10.132 1109.877 -659.870 -3059.957 0.052 0.055 0.014 -0.14 -0.56 0.8 0.18
1 5.35 535 -0.139 -9.242 3.338 -3.876 19.898 -8.301 1109.877 -659.870 -3059.957 -0.025 0.015 -0.040 -0.14 -0.56 0.8 0.18
1 5.36 536 0.062 -9.314 3.381 -4.334 23.132 -7.080 1034.926 -659.870 -3209.859 -0.222 0.084 -0.091 -0.14 -0.56 0.8 0.18
1 5.37 537 0.220 -9.347 3.338 -4.517 25.482 -8.881 1034.926 -659.870 -3209.859 -0.378 0.115 -0.053 -0.14 -0.56 0.8 0.18
1 5.38 538 0.182 -9.472 3.275 -5.829 26.001 -11.536 1109.877 -659.870 -3104.927 -0.335 0.238 0.003 -0.14 -0.56 0.8 0.18
1 5.39 539 0.053 -9.496 3.357 -5.280 25.879 -13.367 1109.877 -659.870 -3104.927 -0.198 0.259 -0.086 -0.14 -0.56 0.8 0.18
1 5.40 540 0.034 -9.462 3.371 -6.439 25.269 -14.313 1199.968 -644.880 -3014.986 -0.169 0.223 -0.107 -0.14 -0.56 0.79 0.19
1 5.41 541 0.139 -9.319 3.189 -5.463 25.330 -14.618 1184.978 -704.991 -3104.927 -0.264 0.076 0.067 -0.14 -0.56 0.79 0.19
1 5.42 542 0.019 -9.065 3.266 -5.890 26.001 -15.686 1184.978 -704.991 -3104.927 -0.134 -0.180 -0.017 -0.14 -0.56 0.79 0.19
1 5.43 543 -0.053 -9.036 3.117 -5.310 25.299 -15.625 1109.877 -539.948 -3134.908 -0.050 -0.212 0.124 -0.14 -0.56 0.79 0.19
1 5.44 544 -0.029 -9.184 3.170 -3.784 24.323 -15.198 1199.968 -569.929 -2939.885 -0.051 -0.067 0.060 -0.14 -0.56 0.79 0.19
1 5.45 545 0.048 -9.237 3.347 -3.632 24.201 -14.618 1184.978 -629.890 -3029.976 -0.117 -0.016 -0.121 -0.14 -0.56 0.79 0.2
1 5.46 546 -0.043 -9.280 3.333 -5.524 25.452 -15.015 1184.978 -629.890 -3029.976 -0.015 0.025 -0.110 -0.14 -0.56 0.79 0.2
1 5.47 547 0.168 -9.410 3.323 -7.996 25.848 -15.564 1169.988 -749.961 -3044.966 -0.215 0.152 -0.107 -0.14 -0.56 0.79 0.2
1 5.48 548 0.206 -9.410 3.232 -9.003 26.733 -17.181 1229.949 -584.919 -3164.888 -0.242 0.149 -0.026 -0.15 -0.56 0.79 0.2
1 5.49 549 0.359 -9.472 3.184 -6.958 26.764 -18.066 1229.949 -584.919 -3164.888 -0.381 0.207 0.010 -0.15 -0.56 0.79 0.2
1 5.50 550 0.244 -9.338 3.323 -4.334 25.360 -18.616 1229.949 -584.919 -3059.957 -0.250 0.070 -0.138 -0.15 -0.56 0.79 0.2
1 5.51 551 0.120 -9.381 3.376 0.122 25.086 -18.646 1364.861 -704.991 -3029.976 -0.092 0.111 -0.197 -0.15 -0.56 0.79 0.21
1 5.52 552 0.029 -9.261 3.620 -1.099 23.956 -20.294 1154.848 -509.968 -2954.875 0.016 -0.008 -0.439 -0.15 -0.56 0.79 0.21
1 5.53 553 -0.168 -9.529 3.749 -4.120 21.668 -22.003 1154.848 -509.968 -2954.875 0.232 0.261 -0.566 -0.15 -0.56 0.79 0.21
1 5.54 554 -0.345 -9.611 3.649 -7.294 18.280 -23.285 1229.949 -509.968 -3029.976 0.430 0.342 -0.468 -0.15 -0.56 0.79 0.21
1 5.55 555 -0.527 -9.659 3.726 -8.301 14.496 -21.973 1274.919 -599.909 -2969.865 0.635 0.387 -0.552 -0.15 -0.56 0.78 0.21
1 5.56 556 -0.895 -9.467 3.706 -4.303 11.169 -19.806 1274.919 -599.909 -2969.865 1.024 0.194 -0.539 -0.15 -0.56 0.78 0.22
1 5.57 557 -1.135 -9.319 3.946 -1.434 9.644 -17.304 1394.991 -569.929 -2894.914 1.281 0.044 -0.782 -0.15 -0.56 0.78 0.22
1 5.58 558 -1.403 -9.022 3.773 -0.336 7.019 -13.275 1274.919 -569.929 -2939.885 1.571 -0.250 -0.603 -0.15 -0.56 0.78 0.22
1 5.59 559 -1.259 -8.787 3.869 -1.373 4.944 -11.841 1244.939 -494.978 -2939.885 1.432 -0.482 -0.693 -0.15 -0.56 0.78 0.22
1 5.60 560 -1.135 -8.768 3.611 -3.174 0.977 -11.414 1244.939 -494.978 -2939.885 1.312 -0.500 -0.430 -0.15 -0.56 0.78 0.22
1 5.61 561 -1.015 -8.744 3.769 -5.829 -3.204 -11.780 1274.919 -494.978 -2864.934 1.199 -0.524 -0.588 -0.15 -0.56 0.78 0.22
1 5.62 562 -0.666 -8.835 3.812 -7.294 -5.585 -10.498 1184.978 -539.948 -2849.943 0.860 -0.434 -0.634 -0.15 -0.56 0.78 0.22
1 5.63 563 -0.359 -8.945 3.678 -8.850 -3.906 -9.613 1184.978 -539.948 -2849.943 0.565 -0.325 -0.504 -0.14 -0.56 0.78 0.22
1 5.64 564 -0.196 -9.180 3.630 -8.331 -2.045 -9.338 1154.848 -464.997 -2984.855 0.414 -0.092 -0.463 -0.14 -0.56 0.78 0.22
1 5.65 565 -0.187 -9.410 3.567 -6.317 -2.991 -9.399 1229.949 -464.997 -2879.924 0.416 0.136 -0.407 -0.14 -0.56 0.78 0.22
1 5.66 566 0.120 -9.477 3.443 -3.693 -2.747 -8.820 1184.978 -434.867 -2879.924 0.136 0.201 -0.292 -0.14 -0.57 0.78 0.22
1 5.67 567 0.239 -9.304 3.467 -1.770 0.702 -7.843 1184.978 -434.867 -2879.924 0.029 0.028 -0.317 -0.14 -0.57 0.78 0.22
1 5.68 568 0.249 -9.165 3.678 0.427 6.165 -7.874 1169.988 -524.958 -2969.865 0.030 -0.110 -0.526 -0.14 -0.57 0.78 0.22
1 5.69 569 0.249 -9.007 3.721 3.204 7.568 -8.423 1109.877 -509.968 -2909.904 0.040 -0.265 -0.563 -0.14 -0.57 0.78 0.22
1 5.70 570 0.455 -8.801 3.855 6.042 -1.251 -16.357 1109.877 -509.968 -2909.904 -0.155 -0.467 -0.685 -0.14 -0.56 0.78 0.22
1 5.71 571 0.929 -8.878 3.984 1.068 -4.334 -20.447 1109.877 -509.968 -2909.904 -0.606 -0.384 -0.799 -0.14 -0.56 0.78 0.22
1 5.72 572 0.872 -8.969 3.635 -7.477 -4.181 -21.362 1139.857 -329.935 -2864.934 -0.478 -0.286 -0.436 -0.13 -0.56 0.78 0.22
1 5.73 573 0.790 -8.979 3.606 -7.385 -2.228 -21.057 1169.988 -374.906 -2969.865 -0.360 -0.276 -0.412 -0.13 -0.57 0.78 0.22
1 5.74 574 0.417 -8.667 3.271 -1.099 -1.984 -18.005 1169.988 -374.906 -2969.865 0.045 -0.587 -0.081 -0.13 -0.57 0.78 0.22
1 5.75 575 -0.139 -8.634 3.295 7.904 -3.174 -15.289 1109.877 -359.916 -2954.875 0.627 -0.618 -0.099 -0.13 -0.57 0.78 0.22
1 5.76 576 -0.488 -8.648 3.251 14.618 -5.646 -11.871 1199.968 -494.978 -2969.865 0.997 -0.597 -0.040 -0.13 -0.57 0.78 0.22
1 5.77 577 -0.848 -8.639 3.285 19.379 -9.460 -8.118 1199.968 -494.978 -2969.865 1.369 -0.597 -0.049 -0.13 -0.56 0.78 0.22
1 5.78 578 -0.656 -8.859 3.481 14.069 -14.557 -3.906 1169.988 -329.935 -2969.865 1.185 -0.366 -0.215 -0.13 -0.56 0.79 0.22
1 5.79 579 -0.536 -9.108 3.663 4.303 -14.435 -0.427 1004.945 -464.997 -2849.943 1.069 -0.107 -0.372 -0.12 -0.56 0.79 0.22
1 5.80 580 0.062 -9.496 3.390 -8.606 -6.683 2.136 1094.887 -449.857 -2819.963 0.470 0.284 -0.088 -0.12 -0.56 0.79 0.22
1 5.81 581 0.383 -9.797 3.213 -9.064 -2.045 2.716 1094.887 -449.857 -2819.963 0.146 0.582 0.078 -0.12 -0.56 0.79 0.22
1 5.82 582 0.651 -10.046 3.223 -2.930 1.556 2.991 1199.968 -329.935 -3014.986 -0.126 0.826 0.057 -0.12 -0.56 0.79 0.22
1 5.83 583 0.891 -10.018 2.969 5.463 3.387 2.289 1109.877 -434.867 -3029.976 -0.369 0.797 0.309 -0.12 -0.56 0.79 0.22
1 5.84 584 0.996 -10.066 3.271 10.712 3.021 -0.610 1109.877 -434.867 -3029.976 -0.476 0.848 0.016 -0.12 -0.56 0.79 0.22
1 5.85 585 1.240 -10.080 3.505 8.545 1.495 -5.310 1019.936 -449.857 -3014.986 -0.715 0.867 -0.205 -0.12 -0.56 0.79 0.22
1 5.86 586 1.298 -10.137 3.529 2.716 0.183 -7.507 1169.988 -494.978 -2894.914 -0.762 0.930 -0.216 -0.12 -0.56 0.79 0.22
1 5.87 587 1.393 -10.008 3.304 -4.425 2.106 -8.972 1169.988 -494.978 -2894.914 -0.841 0.804 0.016 -0.12 -0.56 0.79 0.22
1 5.88 588 1.341 -10.482 3.223 -9.674 8.667 -7.721 974.965 -539.948 -2804.973 -0.758 1.275 0.083 -0.12 -0.56 0.79 0.22
1 5.89 589 1.312 -10.372 3.093 -9.613 12.604 -6.836 1064.906 -374.906 -2969.865 -0.722 1.161 0.201 -0.12 -0.56 0.79 0.22
1 5.90 590 1.374 -10.286 2.892 -6.744 12.634 -6.348 1094.887 -494.978 -3044.966 -0.780 1.072 0.392 -0.12 -0.56 0.79 0.22
1 5.91 591 1.432 -9.960 2.916 -3.387 11.475 -4.639 1094.887 -494.978 -3044.966 -0.830 0.742 0.356 -0.12 -0.56 0.79 0.22
1 5.92 592 1.628 -9.553 3.084 2.747 9.552 -3.418 1064.906 -419.876 -2969.865 -1.018 0.334 0.184 -0.12 -0.56 0.79 0.22
1 5.93 593 1.810 -9.223 3.146 6.073 12.329 -1.343 1079.896 -464.997 -2954.875 -1.191 0.005 0.124 -0.12 -0.56 0.79 0.22
1 5.94 594 1.590 -8.983 3.189 7.446 16.815 0.244 1079.896 -464.997 -2954.875 -0.965 -0.231 0.088 -0.12 -0.56 0.79 0.22
1 5.95 595 1.101 -8.931 3.280 3.326 20.966 1.404 1064.906 -299.955 -2939.885 -0.478 -0.275 0.021 -0.12 -0.56 0.79 0.22
1 5.96 596 0.618 -9.036 3.333 0.000 21.851 1.526 1064.906 -329.935 -2969.865 -0.002 -0.168 -0.024 -0.12 -0.56 0.79 0.22
1 5.97 597 0.182 -9.333 3.376 -2.106 19.989 2.625 1139.857 -644.880 -3074.947 0.423 0.130 -0.063 -0.12 -0.56 0.79 0.22
1 5.98 598 0.053 -9.524 3.362 -1.190 16.998 3.906 1139.857 -644.880 -3074.947 0.537 0.321 -0.048 -0.12 -0.56 0.79 0.22
1 5.99 599 -0.350 -9.706 3.352 1.831 14.099 6.287 1199.968 -299.955 -2864.934 0.922 0.502 -0.037 -0.12 -0.56 0.79 0.22
1 6.00 600 -0.311 -9.534 3.342 6.531 10.162 8.789 1019.936 -419.876 -2969.865 0.862 0.330 -0.022 -0.12 -0.56 0.79 0.22
1 6.01 601 -0.215 -9.448 3.342 8.484 9.186 12.421 1019.936 -419.876 -2969.865 0.742 0.246 -0.014 -0.12 -0.56 0.79 0.22
1 6.02 602 0.000 -8.892 3.419 7.111 9.369 16.235 1184.978 -359.916 -2954.875 0.472 -0.303 -0.064 -0.13 -0.56 0.79 0.22
1 6.03 603 0.105 -8.648 3.314 4.852 7.263 15.656 1274.919 -419.876 -2939.885 0.336 -0.545 0.053 -0.13 -0.56 0.79 0.22
1 6.04 604 0.354 -8.562 3.467 1.434 3.632 13.702 1229.949 -584.919 -3029.976 0.061 -0.629 -0.091 -0.13 -0.56 0.79 0.22
1 6.05 605 0.579 -8.830 3.256 -3.937 -0.122 15.320 1229.949 -584.919 -3029.976 -0.185 -0.360 0.124 -0.13 -0.56 0.79 0.22
1 6.06 606 1.001 -8.825 3.084 -6.439 -4.303 19.074 1094.887 -374.906 -2864.934 -0.626 -0.367 0.293 -0.13 -0.56 0.79 0.22
1 6.07 607 0.843 -9.611 3.443 -6.775 -8.301 12.085 1199.968 -494.978 -2894.914 -0.487 0.415 -0.075 -0.13 -0.56 0.79 0.21
1 6.08 608 0.895 -10.626 3.199 -11.627 -1.678 8.331 1199.968 -494.978 -2894.914 -0.550 1.426 0.161 -0.13 -0.56 0.79 0.21
1 6.09 609 0.804 -11.368 2.983 -13.245 12.543 12.390 1229.949 -464.997 -2849.943 -0.480 2.156 0.343 -0.13 -0.56 0.79 0.21
1 6.10 610 0.560 -11.277 2.825 -8.118 12.695 13.458 1154.848 -389.896 -2879.924 -0.259 2.059 0.488 -0.13 -0.56 0.79 0.21
1 6.11 611 -0.067 -10.123 2.902 16.571 7.050 10.956 1259.929 -389.896 -2909.904 0.345 0.907 0.419 -0.13 -0.56 0.79 0.21
1 6.12 612 0.263 -9.395 2.993 24.475 3.113 5.066 1259.929 -389.896 -2909.904 -0.003 0.188 0.355 -0.13 -0.56 0.79 0.21
1 6.13 613 0.623 -9.007 3.113 18.860 -0.824 3.662 1199.968 -494.978 -2969.865 -0.368 -0.188 0.266 -0.13 -0.56 0.79 0.21
1 6.14 614 0.886 -8.739 3.371 4.364 1.160 7.111 1334.880 -464.997 -2984.855 -0.634 -0.448 0.030 -0.13 -0.56 0.79 0.21
1 6.15 615 0.426 -8.959 3.534 2.319 8.820 8.820 1334.880 -464.997 -2984.855 -0.178 -0.224 -0.123 -0.13 -0.56 0.79 0.21
1 6.16 616 -0.383 -8.792 3.558 6.439 15.533 9.277 1169.988 -449.857 -2864.934 0.604 -0.387 -0.131 -0.13 -0.55 0.79 0.21
1 6.17 617 -0.498 -8.878 3.390 6.928 14.801 9.033 1274.919 -569.929 -2894.914 0.696 -0.296 0.050 -0.13 -0.55 0.8 0.21
1 6.18 618 -0.445 -8.787 3.443 3.540 6.012 3.174 1244.939 -494.978 -3044.966 0.623 -0.383 0.008 -0.13 -0.55 0.8 0.21
1 6.19 619 0.077 -8.844 3.271 0.122 3.052 0.061 1244.939 -494.978 -3044.966 0.092 -0.324 0.186 -0.13 -0.55 0.8 0.21
1 6.20 620 0.402 -9.165 3.290 -1.007 3.326 -0.488 1334.880 -509.968 -3059.957 -0.235 -0.003 0.168 -0.13 -0.55 0.8 0.21
1 6.21 621 0.632 -9.347 3.314 1.129 4.120 2.838 1349.871 -494.978 -2819.963 -0.465 0.179 0.143 -0.13 -0.55 0.8 0.21
1 6.22 622 0.297 -9.376 3.572 6.866 7.019 4.791 1349.871 -494.978 -2819.963 -0.132 0.209 -0.112 -0.13 -0.55 0.8 0.21
1 6.23 623 0.034 -9.520 3.620 9.674 7.263 6.500 1244.939 -674.860 -2969.865 0.124 0.356 -0.150 -0.13 -0.55 0.8 0.21
1 6.24 624 -0.024 -9.218 3.529 12.543 3.754 6.744 1364.861 -584.919 -2774.992 0.158 0.066 -0.028 -0.13 -0.55 0.8 0.21
1 6.25 625 0.005 -9.012 3.577 10.864 3.052 6.836 1349.871 -494.978 -2894.914 0.117 -0.133 -0.058 -0.13 -0.55 0.8 0.21
1 6.26 626 -0.057 -8.931 3.505 7.233 4.028 5.554 1349.871 -494.978 -2894.914 0.169 -0.209 0.030 -0.13 -0.55 0.8 0.21
1 6.27 627 -0.086 -8.964 3.606 4.364 4.150 4.913 1304.900 -539.948 -2954.875 0.188 -0.171 -0.060 -0.13 -0.55 0.8 0.21
1 6.28 628 -0.048 -9.046 3.635 4.211 3.387 5.310 1364.861 -584.919 -2879.924 0.140 -0.087 -0.080 -0.14 -0.55 0.8 0.21
1 6.29 629 0.254 -9.094 3.520 5.005 -0.092 6.104 1364.861 -584.919 -2879.924 -0.171 -0.035 0.044 -0.14 -0.55 0.8 0.21
1 6.30 630 0.599 -9.223 3.500 4.242 -0.092 6.073 1409.981 -539.948 -2909.904 -0.523 0.097 0.072 -0.14 -0.55 0.8 0.21
1 6.31 631 0.656 -9.089 3.386 3.357 0.702 6.622 1409.981 -539.948 -2909.904 -0.586 -0.034 0.194 -0.14 -0.55 0.8 0.2
1 6.32 632 0.872 -9.184 3.405 2.563 2.594 4.181 1349.871 -644.880 -2969.865 -0.807 0.065 0.183 -0.13 -0.55 0.8 0.2
1 6.33 633 0.747 -9.333 3.453 2.991 4.822 2.899 1349.871 -644.880 -2969.865 -0.683 0.215 0.139 -0.13 -0.55 0.8 0.2
1 6.34 634 0.575 -9.261 3.395 5.096 7.355 2.594 1319.890 -569.929 -3014.986 -0.511 0.145 0.201 -0.13 -0.55 0.8 0.2
1 6.35 635 0.455 -9.319 3.309 7.538 8.209 2.441 1424.972 -719.981 -2939.885 -0.394 0.206 0.295 -0.13 -0.55 0.8 0.2
1 6.36 636 0.431 -9.184 3.295 7.996 8.453 2.625 1424.972 -719.981 -2939.885 -0.374 0.075 0.319 -0.14 -0.55 0.8 0.2
1 6.37 637 0.302 -9.156 3.333 5.920 7.324 2.533 1394.991 -569.929 -2969.865 -0.250 0.051 0.291 -0.14 -0.54 0.8 0.2
1 6.38 638 0.407 -9.117 3.347 2.625 7.538 2.563 1394.991 -569.929 -2969.865 -0.360 0.016 0.285 -0.14 -0.54 0.8 0.2
1 6.39 639 0.560 -9.117 3.486 -0.488 8.362 1.587 1244.939 -524.958 -2894.914 -0.522 0.017 0.151 -0.14 -0.54 0.8 0.2
1 6.40 640 0.527 -9.242 3.481 -0.854 9.552 0.549 1244.939 -524.958 -2894.914 -0.490 0.142 0.155 -0.14 -0.54 0.8 0.2
1 6.41 641 0.460 -9.386 3.529 -0.397 9.857 0.061 1349.871 -644.880 -2864.934 -0.424 0.285 0.107 -0.14 -0.54 0.8 0.2
1 6.42 642 0.297 -9.295 3.500 1.251 11.475 -0.580 1409.981 -659.870 -2954.875 -0.262 0.194 0.136 -0.14 -0.54 0.8 0.21
1 6.43 643 0.144 -9.165 3.491 3.143 10.834 -1.678 1409.981 -659.870 -2954.875 -0.111 0.066 0.148 -0.14 -0.54 0.8 0.21
1 6.44 644 0.110 -9.175 3.524 1.770 7.629 -2.258 1439.962 -659.870 -3059.957 -0.079 0.077 0.119 -0.14 -0.54 0.8 0.21
1 6.45 645 0.000 -9.151 3.635 -0.549 7.263 -2.563 1439.962 -659.870 -3059.957 0.031 0.055 0.013 -0.14 -0.54 0.8 0.21
1 6.46 646 0.129 -9.022 3.572 -3.265 7.965 -2.777 1274.919 -644.880 -2864.934 -0.097 -0.075 0.074 -0.14 -0.54 0.8 0.21
1 6.47 647 0.067 -9.098 3.630 -3.265 8.057 -1.465 1274.919 -644.880 -2864.934 -0.034 0.000 0.012 -0.14 -0.54 0.8 0.21
1 6.48 648 0.163 -9.184 3.510 -1.984 8.637 -0.488 1574.874 -524.958 -2894.914 -0.131 0.085 0.129 -0.14 -0.54 0.8 0.21
1 6.49 649 0.091 -9.108 3.318 -1.190 7.690 -0.519 1409.981 -629.890 -2909.904 -0.061 0.008 0.319 -0.14 -0.54 0.8 0.21
1 6.50 650 0.163 -9.218 3.266 0.275 6.317 0.305 1409.981 -629.890 -2909.904 -0.135 0.117 0.370 -0.14 -0.54 0.8 0.21
1 6.51 651 0.211 -9.668 3.477 -1.038 7.477 -1.770 1424.972 -719.981 -2894.914 -0.185 0.567 0.158 -0.14 -0.54 0.8 0.21
1 6.52 652 0.374 -9.673 3.639 -4.913 7.935 -3.296 1424.972 -719.981 -2894.914 -0.347 0.571 -0.007 -0.14 -0.54 0.8 0.21
1 6.53 653 0.421 -9.764 3.352 -6.348 6.775 -3.571 1469.942 -644.880 -2969.865 -0.388 0.656 0.264 -0.14 -0.54 0.8 0.21
1 6.54 654 0.235 -9.635 3.386 -4.547 6.439 -2.991 1469.942 -644.880 -2969.865 -0.197 0.523 0.222 -0.14 -0.54 0.8 0.21
1 6.55 655 0.259 -9.151 3.266 0.580 7.141 -0.244 1544.894 -644.880 -2819.963 -0.219 0.038 0.338 -0.14 -0.54 0.8 0.21
1 6.56 656 0.244 -8.878 3.218 1.801 7.202 0.732 1484.933 -539.948 -2804.973 -0.206 -0.235 0.387 -0.14 -0.54 0.8 0.21
1 6.57 657 0.211 -8.624 3.089 0.000 5.798 -0.153 1484.933 -539.948 -2804.973 -0.175 -0.488 0.518 -0.14 -0.54 0.8 0.21
1 6.58 658 0.431 -8.859 3.271 -6.744 2.869 -1.862 1334.880 -629.890 -2954.875 -0.395 -0.254 0.334 -0.14 -0.54 0.8 0.21
1 6.59 659 0.532 -8.921 3.247 -10.864 2.380 -2.625 1334.880 -629.890 -2954.875 -0.491 -0.195 0.351 -0.14 -0.54 0.8 0.21
1 6.60 660 0.675 -9.295 3.271 -10.651 2.747 -3.754 1424.972 -599.909 -2864.934 -0.620 0.167 0.297 -0.14 -0.55 0.8 0.21
1 6.61 661 0.594 -9.208 3.227 -8.820 2.808 -4.211 1424.972 -599.909 -2864.934 -0.529 0.075 0.326 -0.14 -0.55 0.8 0.21
1 6.62 662 0.522 -9.601 3.180 -1.587 3.540 -5.585 1574.874 -599.909 -2894.914 -0.446 0.465 0.365 -0.14 -0.55 0.8 0.21
1 6.63 663 0.536 -9.649 3.218 1.678 3.235 -6.836 1559.884 -629.890 -2909.904 -0.450 0.512 0.323 -0.14 -0.55 0.8 0.21
1 6.64 664 0.613 -9.946 3.314 1.129 0.153 -9.399 1559.884 -629.890 -2909.904 -0.512 0.809 0.228 -0.14 -0.55 0.8 0.21
1 6.65 665 0.532 -9.960 3.529 -1.007 -2.808 -9.369 1649.975 -569.929 -2789.982 -0.412 0.823 0.011 -0.14 -0.55 0.8 0.21
1 6.66 666 0.546 -9.845 3.496 0.183 -3.387 -7.904 1649.975 -569.929 -2789.982 -0.408 0.707 0.042 -0.14 -0.55 0.8 0.21
1 6.67 667 0.283 -9.577 3.390 5.005 -2.380 -4.883 1334.880 -779.942 -2909.904 -0.126 0.438 0.144 -0.14 -0.55 0.8 0.21
1 6.68 668 0.038 -9.103 3.266 11.139 -3.387 -2.686 1484.933 -539.948 -2849.943 0.138 -0.029 0.285 -0.14 -0.55 0.8 0.22
1 6.69 669 -0.014 -8.983 3.563 11.566 -6.470 -2.777 1484.933 -464.997 -2879.924 0.198 -0.143 0.004 -0.14 -0.55 0.8 0.22
1 6.70 670 0.053 -9.065 3.673 7.843 -9.186 -3.876 1394.991 -449.857 -2864.934 0.139 -0.055 -0.090 -0.14 -0.55 0.8 0.22
1 6.71 671 0.192 -9.165 3.716 2.502 -10.742 -3.632 1394.991 -449.857 -2864.934 0.011 0.050 -0.122 -0.13 -0.55 0.8 0.21
1 6.72 672 0.129 -9.309 3.711 -1.221 -10.712 -1.831 1469.942 -674.860 -2969.865 0.084 0.196 -0.114 -0.13 -0.55 0.8 0.21
1 6.73 673 0.225 -9.137 3.477 -0.275 -9.277 1.434 1469.942 -674.860 -2969.865 -0.004 0.023 0.120 -0.13 -0.55 0.8 0.21
1 6.74 674 0.187 -9.089 3.472 2.014 -9.918 2.258 1364.861 -509.968 -2984.855 0.040 -0.025 0.124 -0.13 -0.55 0.8 0.21
1 6.75 675 0.249 -9.046 3.682 3.204 -9.491 2.563 1424.972 -449.857 -2864.934 -0.019 -0.067 -0.085 -0.13 -0.55 0.8 0.21
1 6.76 676 0.340 -9.036 3.812 0.916 -9.918 1.862 1409.981 -539.948 -3029.976 -0.103 -0.073 -0.204 -0.13 -0.55 0.8 0.21
1 6.77 677 0.302 -8.988 3.778 -1.678 -8.209 1.678 1439.962 -539.948 -3029.976 -0.060 -0.119 -0.168 -0.13 -0.55 0.8 0.21
1 6.78 678 0.464 -9.103 3.826 -4.028 -8.087 1.495 1439.962 -539.948 -3029.976 -0.219 -0.005 -0.217 -0.13 -0.55 0.8 0.21
1 6.79 679 0.407 -9.156 3.783 -4.944 -6.592 1.465 1259.929 -539.948 -2984.855 -0.157 0.047 -0.177 -0.13 -0.55 0.8 0.21
1 6.80 680 0.464 -9.098 3.754 -2.289 -3.906 2.502 1259.929 -539.948 -2984.855 -0.211 -0.012 -0.152 -0.13 -0.55 0.8 0.21
1 6.81 681 0.340 -9.338 3.840 0.305 -2.747 2.930 1274.919 -599.909 -2864.934 -0.085 0.226 -0.241 -0.13 -0.55 0.8 0.21
1 6.82 682 0.153 -9.242 3.888 1.678 -0.824 2.625 1409.981 -509.968 -2909.904 0.101 0.131 -0.287 -0.13 -0.55 0.8 0.21
1 6.83 683 0.053 -9.199 3.946 -0.031 0.305 1.831 1469.942 -719.981 -2969.865 0.196 0.092 -0.335 -0.13 -0.55 0.8 0.21
1 6.84 684 -0.101 -9.141 3.907 -2.228 1.282 1.709 1349.871 -674.860 -2939.885 0.346 0.035 -0.295 -0.13 -0.55 0.8 0.21
1 6.85 685 0.077 -9.031 3.922 -4.211 1.740 2.136 1349.871 -674.860 -2939.885 0.165 -0.075 -0.309 -0.13 -0.55 0.8 0.21
1 6.86 686 -0.134 -9.046 3.917 -5.066 1.831 2.167 1409.981 -539.948 -2879.924 0.371 -0.062 -0.307 -0.13 -0.55 0.8 0.21
1 6.87 687 -0.019 -8.931 3.936 -4.578 2.167 1.740 1409.981 -539.948 -2879.924 0.251 -0.179 -0.330 -0.13 -0.55 0.8 0.21
1 6.88 688 0.057 -8.830 3.860 -2.716 3.143 1.007 1334.880 -539.948 -2984.855 0.170 -0.280 -0.256 -0.13 -0.55 0.8 0.21
1 6.89 689 0.053 -8.878 3.955 -2.411 2.777 0.916 1364.861 -629.890 -2804.973 0.171 -0.233 -0.352 -0.13 -0.55 0.8 0.21
1 6.90 690 0.057 -9.050 3.998 -3.387 3.754 0.366 1364.861 -734.971 -2909.904 0.162 -0.060 -0.393 -0.13 -0.55 0.8 0.21
1 6.91 691 0.000 -8.979 3.840 -5.035 3.082 0.366 1394.991 -839.903 -2969.865 0.216 -0.132 -0.236 -0.13 -0.55 0.8 0.21
1 6.92 692 -0.062 -9.204 3.812 -5.859 3.265 -0.580 1394.991 -839.903 -2969.865 0.276 0.091 -0.212 -0.13 -0.55 0.8 0.21
1 6.93 693 -0.034 -9.228 3.879 -5.554 3.448 0.000 1364.861 -629.890 -2909.904 0.245 0.113 -0.284 -0.13 -0.55 0.8 0.21
1 6.94 694 -0.129 -9.438 3.783 -3.174 4.334 0.671 1364.861 -629.890 -2909.904 0.338 0.322 -0.192 -0.13 -0.55 0.8 0.21
1 6.95 695 -0.139 -9.400 3.793 -1.984 3.204 0.885 1394.991 -569.929 -2969.865 0.343 0.283 -0.204 -0.13 -0.55 0.8 0.21
1 6.96 696 -0.062 -9.204 3.816 -2.258 3.143 1.343 1409.981 -629.890 -2909.904 0.261 0.086 -0.228 -0.13 -0.55 0.8 0.21
1 6.97 697 0.091 -9.089 3.812 -2.838 3.906 1.709 1409.981 -629.890 -2909.904 0.103 -0.029 -0.224 -0.13 -0.55 0.8 0.21
1 6.98 698 0.096 -9.050 3.893 -3.754 4.913 1.160 1439.962 -734.971 -2984.855 0.088 -0.068 -0.308 -0.13 -0.55 0.8 0.21
1 6.99 699 -0.038 -9.094 3.793 -4.211 4.547 0.580 1439.962 -734.971 -2984.855 0.218 -0.026 -0.210 -0.13 -0.55 0.8 0.21
1 7.00 700 -0.144 -9.242 3.864 -3.418 3.784 1.312 1469.942 -569.929 -2939.885 0.320 0.121 -0.284 -0.13 -0.55 0.8 0.21
1 7.01 701 -0.005 -9.165 3.783 -3.143 3.265 0.458 1469.942 -569.929 -2939.885 0.177 0.044 -0.204 -0.13 -0.55 0.8 0.21
1 7.02 702 -0.019 -9.299 3.884 -1.678 1.953 0.244 1409.981 -584.919 -2954.875 0.188 0.177 -0.306 -0.13 -0.55 0.8 0.21
1 7.03 703 0.034 -9.338 3.769 -0.885 2.441 1.526 1439.962 -584.919 -2804.973 0.133 0.216 -0.190 -0.13 -0.55 0.8 0.21
1 7.04 704 0.034 -9.414 3.745 -0.366 2.686 2.594 1424.972 -569.929 -2819.963 0.125 0.293 -0.165 -0.13 -0.55 0.8 0.21
1 7.05 705 -0.263 -9.280 3.587 -0.793 2.533 3.174 1469.942 -674.860 -2789.982 0.417 0.159 -0.006 -0.13 -0.55 0.8 0.21
1 7.06 706 -0.316 -9.347 3.730 0.183 1.892 4.181 1469.942 -674.860 -2789.982 0.460 0.227 -0.148 -0.13 -0.55 0.8 0.21
1 7.07 707 -0.302 -9.261 3.706 0.214 0.946 4.944 1439.962 -539.948 -2984.855 0.437 0.141 -0.122 -0.13 -0.55 0.8 0.21
1 7.08 708 -0.177 -9.271 3.529 0.519 0.763 6.226 1439.962 -539.948 -2984.855 0.302 0.151 0.057 -0.13 -0.55 0.8 0.2
1 7.09 709 -0.067 -8.964 3.567 -1.221 1.404 6.439 1439.962 -434.867 -2774.992 0.181 -0.155 0.020 -0.13 -0.55 0.8 0.2
1 7.10 710 0.038 -9.098 3.587 -3.784 2.045 6.439 1544.894 -569.929 -2894.914 0.065 -0.021 0.000 -0.13 -0.55 0.8 0.2
1 7.11 711 0.177 -9.184 3.563 -4.883 2.319 5.432 1544.894 -569.929 -2894.914 -0.084 0.064 0.021 -0.13 -0.55 0.8 0.2
1 7.12 712 0.321 -9.232 3.500 -6.104 1.801 4.517 1424.972 -719.981 -2789.982 -0.243 0.107 0.071 -0.13 -0.55 0.8 0.2
1 7.13 713 0.464 -9.151 3.429 -6.012 2.747 4.211 1424.972 -719.981 -2789.982 -0.391 0.022 0.135 -0.13 -0.55 0.8 0.2
1 7.14 714 0.469 -9.352 3.419 -4.608 4.059 3.143 1394.991 -524.958 -2759.852 -0.399 0.221 0.138 -0.13 -0.55 0.8 0.2
1 7.15 715 0.450 -9.319 3.338 -3.601 5.127 2.441 1394.991 -524.958 -2759.852 -0.383 0.185 0.213 -0.13 -0.55 0.8 0.2
1 7.16 716 0.436 -9.333 3.534 -2.380 5.280 1.312 1559.884 -704.991 -2804.973 -0.370 0.197 0.012 -0.13 -0.55 0.8 0.2
1 7.17 717 0.182 -9.357 3.424 -0.885 4.181 -0.641 1439.962 -584.919 -2774.992 -0.116 0.220 0.120 -0.14 -0.55 0.8 0.2
1 7.18 718 0.101 -9.170 3.534 -0.122 3.662 -0.366 1439.962 -584.919 -2774.992 -0.034 0.033 0.008 -0.14 -0.55 0.8 0.2
1 7.19 719 0.115 -9.180 3.577 0.092 3.052 -0.488 1499.923 -524.958 -2939.885 -0.048 0.042 -0.035 -0.14 -0.55 0.8 0.2
1 7.20 720 0.139 -9.199 3.515 -0.275 3.387 -0.183 1364.861 -464.997 -2909.904 -0.072 0.063 0.030 -0.14 -0.55 0.8 0.2
1 7.21 721 -0.014 -9.141 3.606 -1.648 3.418 -0.641 1349.871 -449.857 -2789.982 0.081 0.005 -0.061 -0.14 -0.55 0.8 0.2
1 7.22 722 0.043 -9.204 3.625 -3.662 2.777 -0.763 1349.871 -449.857 -2789.982 0.022 0.067 -0.082 -0.14 -0.55 0.8 0.2
1 7.23 723 0.187 -9.127 3.635 -5.737 2.655 -1.190 1574.874 -599.909 -2939.885 -0.120 -0.011 -0.096 -0.14 -0.55 0.8 0.2
1 7.24 724 0.345 -9.323 3.453 -6.744 3.754 -1.831 1544.894 -524.958 -2969.865 -0.276 0.182 0.079 -0.14 -0.55 0.8 0.2
1 7.25 725 0.369 -9.309 3.472 -7.019 4.272 -0.732 1544.894 -524.958 -2969.865 -0.298 0.165 0.052 -0.14 -0.55 0.8 0.2
1 7.26 726 0.460 -9.223 3.429 -5.371 4.761 -1.587 1424.972 -419.876 -2894.914 -0.386 0.075 0.086 -0.14 -0.55 0.8 0.2
1 7.27 727 0.211 -9.366 3.467 -3.448 5.798 -0.702 1469.942 -674.860 -2819.963 -0.131 0.213 0.034 -0.14 -0.55 0.8 0.21
1 7.28 728 0.153 -9.223 3.448 -1.648 5.493 -0.641 1439.962 -584.919 -2774.992 -0.073 0.068 0.049 -0.14 -0.55 0.8 0.21
1 7.29 729 0.053 -9.261 3.457 -1.251 4.517 -0.793 1439.962 -584.919 -2774.992 0.027 0.106 0.039 -0.14 -0.55 0.8 0.21
1 7.30 730 -0.086 -9.223 3.615 -1.404 3.967 -1.038 1484.933 -584.919 -2699.891 0.167 0.068 -0.120 -0.14 -0.55 0.8 0.21
1 7.31 731 -0.105 -9.323 3.534 -1.434 4.486 -0.610 1499.923 -599.909 -2939.885 0.184 0.169 -0.038 -0.14 -0.55 0.8 0.21
1 7.32 732 -0.244 -9.213 3.582 -2.502 3.326 0.031 1499.923 -599.909 -2939.885 0.322 0.058 -0.087 -0.14 -0.55 0.8 0.21
1 7.33 733 -0.292 -9.213 3.606 -3.082 2.472 -0.153 1424.972 -494.978 -2789.982 0.367 0.057 -0.112 -0.14 -0.55 0.8 0.21
1 7.34 734 -0.048 -9.208 3.567 -4.456 1.129 -0.519 1469.942 -524.958 -2819.963 0.119 0.051 -0.079 -0.14 -0.55 0.8 0.21
1 7.35 735 -0.096 -9.228 3.620 -5.463 0.671 -0.641 1469.942 -719.981 -2789.982 0.167 0.068 -0.136 -0.14 -0.55 0.8 0.21
1 7.36 736 0.158 -9.280 3.658 -5.646 -0.031 -1.160 1469.942 -719.981 -2789.982 -0.086 0.118 -0.181 -0.14 -0.55 0.8 0.21
1 7.37 737 0.081 -9.290 3.558 -5.402 0.824 -0.580 1499.923 -599.909 -2819.963 -0.006 0.126 -0.086 -0.14 -0.55 0.8 0.21
1 7.38 738 0.096 -9.319 3.625 -4.639 1.709 0.031 1514.913 -584.919 -2774.992 -0.019 0.153 -0.158 -0.14 -0.55 0.8 0.21
1 7.39 739 -0.019 -9.132 3.534 -2.228 1.923 0.305 1514.913 -584.919 -2774.992 0.096 -0.036 -0.071 -0.14 -0.55 0.8 0.21
1 7.40 740 -0.096 -9.314 3.663 -0.641 0.916 0.702 1484.933 -584.919 -2699.891 0.173 0.145 -0.203 -0.14 -0.55 0.8 0.21
1 7.41 741 -0.125 -9.218 3.682 -0.488 0.946 0.549 1499.923 -524.958 -2789.982 0.199 0.050 -0.220 -0.14 -0.55 0.8 0.21
1 7.42 742 -0.297 -9.151 3.678 -0.488 0.549 1.190 1469.942 -524.958 -2819.963 0.369 -0.016 -0.213 -0.14 -0.55 0.8 0.21
1 7.43 743 -0.187 -9.256 3.639 -4.059 0.732 1.373 1469.942 -524.958 -2819.963 0.256 0.089 -0.175 -0.14 -0.55 0.8 0.21
1 7.44 744 -0.139 -9.266 3.582 -4.669 1.343 2.136 1649.975 -524.958 -2759.852 0.205 0.098 -0.121 -0.14 -0.55 0.8 0.21
1 7.45 745 -0.062 -9.419 3.462 -4.730 0.946 1.862 1409.981 -584.919 -2804.973 0.124 0.249 -0.006 -0.14 -0.55 0.8 0.21
1 7.46 746 0.000 -9.366 3.491 -3.387 1.770 2.136 1409.981 -584.919 -2804.973 0.059 0.194 -0.040 -0.14 -0.55 0.8 0.21
1 7.47 747 -0.057 -9.333 3.587 -2.625 1.404 1.740 1424.972 -524.958 -2684.901 0.113 0.159 -0.140 -0.14 -0.55 0.8 0.21
1 7.48 748 -0.034 -9.362 3.443 -2.319 1.740 1.160 1409.981 -464.997 -2849.943 0.083 0.186 -0.001 -0.14 -0.55 0.8 0.21
1 7.49 749 -0.038 -9.223 3.453 -1.923 2.075 0.732 1574.874 -524.958 -2789.982 0.086 0.047 -0.012 -0.14 -0.55 0.8 0.21
1 7.50 750 -0.134 -9.175 3.496 -2.106 2.075 1.129 1574.874 -524.958 -2789.982 0.180 -0.002 -0.057 -0.14 -0.55 0.8 0.21
1 7.51 751 -0.086 -9.280 3.500 -1.862 1.678 0.519 1349.871 -494.978 -2759.852 0.129 0.103 -0.063 -0.14 -0.55 0.8 0.21
1 7.52 752 -0.168 -9.223 3.539 -2.136 1.831 0.214 1469.942 -494.978 -2864.934 0.209 0.045 -0.102 -0.14 -0.55 0.8 0.21
1 7.53 753 -0.187 -9.280 3.529 -1.160 1.495 -0.031 1469.942 -494.978 -2864.934 0.227 0.102 -0.094 -0.14 -0.55 0.8 0.21
1 7.54 754 -0.187 -9.271 3.510 -2.533 0.580 1.190 1424.972 -449.857 -2714.881 0.225 0.092 -0.075 -0.14 -0.55 0.8 0.21
1 7.55 755 -0.148 -9.347 3.529 -4.089 0.732 -0.092 1514.913 -434.867 -2624.940 0.184 0.169 -0.096 -0.14 -0.55 0.8 0.21
1 7.56 756 0.010 -9.247 3.591 -3.479 0.488 0.275 1469.942 -494.978 -2894.914 0.024 0.065 -0.166 -0.14 -0.55 0.8 0.21
1 7.57 757 -0.105 -9.252 3.520 -2.716 0.092 0.977 1469.942 -494.978 -2894.914 0.139 0.069 -0.097 -0.14 -0.55 0.79 0.21
1 7.58 758 -0.034 -9.343 3.457 -1.343 1.190 0.885 1439.962 -584.919 -2774.992 0.067 0.159 -0.036 -0.14 -0.55 0.79 0.21
1 7.59 759 -0.067 -9.184 3.534 -1.617 1.801 0.427 1499.923 -569.929 -2684.901 0.099 0.001 -0.113 -0.14 -0.55 0.79 0.21
1 7.60 760 0.019 -9.242 3.381 -2.594 0.977 0.458 1499.923 -569.929 -2684.901 0.012 0.058 0.039 -0.14 -0.55 0.79 0.21
1 7.61 761 0.072 -9.299 3.496 -3.662 0.214 0.946 1439.962 -464.997 -2774.992 -0.041 0.114 -0.079 -0.14 -0.55 0.79 0.21
1 7.62 762 0.048 -9.299 3.424 -3.632 0.763 0.549 1514.913 -584.919 -2729.872 -0.017 0.113 -0.011 -0.14 -0.55 0.79 0.21
1 7.63 763 0.029 -9.266 3.414 -3.174 0.793 -1.129 1514.913 -584.919 -2729.872 0.002 0.078 -0.006 -0.14 -0.55 0.79 0.21
1 7.64 764 -0.014 -9.156 3.429 -2.319 1.129 -0.793 1559.884 -539.948 -2774.992 0.049 -0.034 -0.026 -0.14 -0.55 0.79 0.21
1 7.65 765 -0.096 -9.304 3.424 -1.099 0.916 -0.671 1499.923 -569.929 -2894.914 0.132 0.114 -0.022 -0.14 -0.55 0.79 0.21
1 7.66 766 -0.129 -9.031 3.443 -1.831 0.977 -1.007 1604.854 -449.857 -2819.963 0.167 -0.160 -0.042 -0.14 -0.55 0.79 0.21
1 7.67 767 -0.101 -9.175 3.376 -2.472 -0.061 -1.160 1604.854 -449.857 -2819.963 0.140 -0.016 0.024 -0.14 -0.55 0.79 0.21
1 7.68 768 -0.072 -9.232 3.496 -3.204 0.031 -1.984 1589.864 -464.997 -2879.924 0.113 0.041 -0.097 -0.14 -0.55 0.79 0.21
1 7.69 769 -0.081 -9.280 3.529 -3.998 -0.458 -1.434 1469.942 -419.876 -2684.901 0.125 0.088 -0.133 -0.14 -0.55 0.79 0.21
1 7.70 770 0.010 -9.405 3.443 -3.418 -0.122 -1.953 1469.942 -419.876 -2684.901 0.037 0.211 -0.051 -0.14 -0.55 0.79 0.21
1 7.71 771 0.019 -9.424 3.515 -3.601 -0.031 -1.160 1649.975 -449.857 -2684.901 0.033 0.227 -0.130 -0.14 -0.55 0.79 0.21
1 7.72 772 -0.105 -9.429 3.405 -3.265 -0.824 -0.031 1364.861 -509.968 -2669.911 0.159 0.231 -0.023 -0.14 -0.55 0.79 0.21
1 7.73 773 -0.034 -9.433 3.477 -4.028 -2.197 -0.610 1604.854 -569.929 -2864.934 0.088 0.234 -0.099 -0.14 -0.55 0.79 0.21
1 7.74 774 0.163 -9.510 3.448 -3.723 -1.343 -0.732 1604.854 -569.929 -2864.934 -0.106 0.309 -0.075 -0.14 -0.55 0.79 0.21
1 7.75 775 0.239 -9.314 3.553 -2.991 -1.160 -0.488 1499.923 -449.857 -2789.982 -0.179 0.112 -0.183 -0.14 -0.55 0.79 0.21
1 7.76 776 0.153 -9.386 3.429 -1.190 0.305 0.000 1574.874 -449.857 -2714.881 -0.089 0.183 -0.061 -0.14 -0.56 0.79 0.21
1 7.77 777 0.024 -9.357 3.500 -0.763 0.244 0.549 1574.874 -449.857 -2714.881 0.042 0.154 -0.133 -0.14 -0.56 0.79 0.21
1 7.78 778 -0.019 -9.443 3.520 -0.854 -0.031 2.289 1394.991 -599.909 -2759.852 0.085 0.240 -0.151 -0.14 -0.56 0.79 0.21
1 7.79 779 -0.062 -9.371 3.582 -2.228 0.336 2.014 1499.923 -494.978 -2759.852 0.125 0.169 -0.213 -0.14 -0.56 0.79 0.21
1 7.80 780 -0.081 -9.414 3.433 -4.425 0.671 0.732 1544.894 -524.958 -2639.930 0.143 0.211 -0.065 -0.14 -0.56 0.79 0.21
1 7.81 781 -0.110 -9.453 3.481 -3.387 0.671 1.282 1544.894 -524.958 -2639.930 0.170 0.248 -0.117 -0.14 -0.56 0.79 0.21
1 7.82 782 -0.048 -9.438 3.438 -2.991 0.427 1.678 1424.972 -599.909 -2714.881 0.106 0.233 -0.077 -0.14 -0.56 0.79 0.21
1 7.83 783 0.053 -9.314 3.429 -0.702 -0.366 2.106 1544.894 -494.978 -2819.963 0.004 0.108 -0.070 -0.14 -0.56 0.79 0.21
1 7.84 784 0.010 -9.252 3.486 -0.214 -0.092 1.831 1544.894 -494.978 -2819.963 0.047 0.045 -0.127 -0.14 -0.56 0.79 0.21
1 7.85 785 0.053 -9.237 3.472 -0.580 -0.671 2.167 1424.972 -449.857 -2759.852 0.004 0.031 -0.112 -0.14 -0.56 0.79 0.21
1 7.86 786 0.043 -9.333 3.424 -1.190 0.366 2.319 1424.972 -449.857 -2789.982 0.011 0.127 -0.063 -0.14 -0.56 0.79 0.21
1 7.87 787 0.105 -9.266 3.500 -1.373 0.793 2.228 1499.923 -524.958 -2789.982 -0.054 0.060 -0.140 -0.14 -0.56 0.79 0.21
1 7.88 788 -0.038 -9.208 3.381 -1.984 0.275 3.326 1499.923 -524.958 -2789.982 0.086 0.003 -0.020 -0.14 -0.56 0.79 0.21
1 7.89 789 0.024 -9.261 3.342 -3.479 0.031 1.404 1559.884 -509.968 -2729.872 0.021 0.055 0.016 -0.14 -0.56 0.79 0.21
1 7.90 790 -0.029 -9.170 3.328 -3.143 0.000 1.831 1514.913 -509.968 -2774.992 0.072 -0.038 0.027 -0.14 -0.56 0.79 0.21
1 7.91 791 -0.038 -9.295 3.314 -2.228 0.214 1.190 1514.913 -509.968 -2774.992 0.079 0.086 0.038 -0.14 -0.56 0.79 0.21
1 7.92 792 -0.067 -9.165 3.266 -1.526 -0.122 0.793 1499.923 -524.958 -2789.982 0.106 -0.044 0.084 -0.14 -0.56 0.79 0.21
1 7.93 793 0.010 -9.223 3.338 -1.648 0.580 0.977 1589.864 -464.997 -2804.973 0.029 0.013 0.011 -0.14 -0.56 0.79 0.21
1 7.94 794 0.144 -9.213 3.266 -2.716 0.916 -0.031 1394.991 -599.909 -2789.982 -0.104 0.002 0.081 -0.14 -0.56 0.79 0.21
1 7.95 795 0.139 -9.252 3.271 -4.059 0.549 -1.007 1394.991 -599.909 -2789.982 -0.097 0.039 0.072 -0.14 -0.56 0.79 0.21
1 7.96 796 0.163 -9.395 3.333 -3.174 1.190 -0.305 1469.942 -494.978 -2714.881 -0.119 0.182 0.006 -0.14 -0.56 0.79 0.21
1 7.97 797 0.249 -9.275 3.409 -2.747 1.709 -0.671 1499.923 -524.958 -2684.901 -0.203 0.060 -0.075 -0.14 -0.56 0.79 0.21
1 7.98 798 0.192 -9.252 3.242 -2.258 2.594 -2.747 1499.923 -524.958 -2684.901 -0.142 0.036 0.091 -0.14 -0.56 0.79 0.21
1 7.99 799 0.148 -9.424 3.242 -1.068 2.533 -2.319 1439.962 -464.997 -2729.872 -0.094 0.207 0.088 -0.14 -0.56 0.79 0.21
1 8.00 800 -0.048 -9.323 3.314 -0.153 2.075 -2.533 1484.933 -464.997 -2804.973 0.110 0.106 0.015 -0.14 -0.56 0.79 0.21
1 8.01 801 -0.096 -9.419 3.433 -0.092 0.977 -1.709 1544.894 -419.876 -2609.950 0.161 0.202 -0.104 -0.14 -0.56 0.79 0.21
1 8.02 802 -0.053 -9.395 3.323 -1.892 1.160 -1.801 1544.894 -419.876 -2609.950 0.120 0.179 0.007 -0.14 -0.56 0.79 0.21
1 8.03 803 -0.034 -9.290 3.443 -2.655 0.702 -1.862 1469.942 -449.857 -2714.881 0.103 0.073 -0.114 -0.14 -0.56 0.79 0.21
1 8.04 804 0.177 -9.371 3.414 -3.113 1.129 -1.160 1499.923 -494.978 -2759.852 -0.105 0.153 -0.088 -0.14 -0.56 0.79 0.21
1 8.05 805 0.010 -9.381 3.275 -2.350 1.740 -0.275 1499.923 -494.978 -2759.852 0.065 0.162 0.048 -0.14 -0.56 0.79 0.21
1 8.06 806 -0.010 -9.366 3.376 -1.648 1.678 0.214 1604.854 -419.876 -2714.881 0.085 0.147 -0.055 -0.14 -0.56 0.79 0.21
1 8.07 807 0.005 -9.410 3.462 -0.488 1.495 1.221 1604.854 -419.876 -2714.881 0.070 0.189 -0.143 -0.14 -0.56 0.79 0.21
1 8.08 808 -0.010 -9.362 3.429 -1.770 0.916 1.068 1499.923 -449.857 -2714.881 0.081 0.142 -0.108 -0.14 -0.56 0.79 0.21
1 8.09 809 -0.067 -9.371 3.529 -2.563 1.556 1.923 1499.923 -449.857 -2714.881 0.136 0.151 -0.209 -0.14 -0.56 0.79 0.21
1 8.10 810 -0.081 -9.395 3.438 -3.082 1.404 1.862 1424.972 -494.978 -2759.852 0.147 0.174 -0.120 -0.14 -0.56 0.79 0.21
1 8.11 811 -0.177 -9.338 3.395 -3.815 0.824 1.648 1514.913 -509.968 -2774.992 0.240 0.116 -0.080 -0.14 -0.56 0.79 0.21
1 8.12 812 -0.105 -9.204 3.371 -4.120 -0.397 2.686 1514.913 -509.968 -2774.992 0.165 -0.020 -0.059 -0.14 -0.56 0.79 0.21
1 8.13 813 -0.014 -9.252 3.342 -2.960 -0.671 2.563 1439.962 -464.997 -2669.911 0.072 0.027 -0.034 -0.14 -0.56 0.79 0.21
1 8.14 814 -0.101 -9.285 3.314 -2.380 -0.946 2.747 1439.962 -464.997 -2669.911 0.155 0.060 -0.008 -0.14 -0.56 0.79 0.21
1 8.15 815 0.000 -9.237 3.457 -0.793 -1.495 2.441 1394.991 -494.978 -2789.982 0.048 0.011 -0.154 -0.14 -0.56 0.79 0.21
1 8.16 816 -0.077 -9.328 3.405 -1.404 -1.190 3.082 1394.991 -494.978 -2789.982 0.122 0.102 -0.100 -0.14 -0.56 0.79 0.21
1 8.17 817 -0.091 -9.299 3.366 -1.770 -1.556 2.411 1514.913 -464.997 -2804.973 0.134 0.073 -0.062 -0.14 -0.56 0.79 0.21
1 8.18 818 -0.110 -9.333 3.390 -2.411 -1.526 2.686 1499.923 -494.978 -2714.881 0.151 0.106 -0.087 -0.14 -0.56 0.79 0.21
1 8.19 819 -0.110 -9.333 3.429 -2.472 -0.671 2.899 1499.923 -494.978 -2714.881 0.148 0.106 -0.127 -0.14 -0.56 0.79 0.21
1 8.20 820 -0.172 -9.429 3.505 -1.862 0.214 1.862 1469.942 -449.857 -2714.881 0.207 0.201 -0.206 -0.14 -0.56 0.79 0.21
1 8.21 821 -0.144 -9.347 3.491 -0.946 1.495 0.946 1469.942 -449.857 -2714.881 0.176 0.120 -0.191 -0.14 -0.56 0.79 0.21
1 8.22 822 0.062 -9.299 3.515 -0.732 2.716 -0.031 1499.923 -569.929 -2639.930 -0.033 0.072 -0.214 -0.14 -0.56 0.79 0.21
1 8.23 823 0.096 -9.232 3.477 -0.580 2.838 -1.251 1499.923 -569.929 -2639.930 -0.066 0.006 -0.174 -0.14 -0.56 0.79 0.21
1 8.24 824 0.172 -9.170 3.462 -1.007 2.716 -1.617 1484.933 -314.945 -2774.992 -0.140 -0.056 -0.158 -0.14 -0.56 0.79 0.21
1 8.25 825 0.096 -9.237 3.390 -1.495 3.357 -2.319 1514.913 -389.896 -2774.992 -0.060 0.011 -0.085 -0.14 -0.56 0.79 0.21
1 8.26 826 0.115 -9.180 3.457 -1.373 2.045 -2.625 1514.913 -389.896 -2774.992 -0.077 -0.046 -0.153 -0.14 -0.56 0.79 0.21
1 8.27 827 -0.034 -9.256 3.390 -0.092 1.740 -2.441 1634.985 -434.867 -2774.992 0.076 0.031 -0.085 -0.14 -0.56 0.79 0.21
1 8.28 828 -0.005 -9.390 3.309 0.854 1.556 -1.862 1634.985 -434.867 -2774.992 0.051 0.165 -0.003 -0.14 -0.56 0.79 0.21
1 8.29 829 -0.105 -9.189 3.414 0.732 2.075 -2.136 1589.864 -359.916 -2699.891 0.156 -0.034 -0.102 -0.14 -0.56 0.79 0.21
1 8.30 830 0.091 -9.424 3.405 0.488 2.533 -2.411 1589.864 -359.916 -2699.891 -0.038 0.202 -0.090 -0.14 -0.56 0.79 0.21
1 8.31 831 -0.019 -9.362 3.280 -0.092 2.380 -1.343 1439.962 -464.997 -2699.891 0.074 0.140 0.037 -0.14 -0.56 0.79 0.21
1 8.32 832 -0.101 -9.376 3.237 -0.916 1.923 -0.763 1499.923 -494.978 -2639.930 0.157 0.155 0.081 -0.14 -0.56 0.79 0.21
1 8.33 833 -0.086 -9.371 3.409 -1.892 0.580 -0.977 1499.923 -494.978 -2639.930 0.143 0.150 -0.092 -0.14 -0.56 0.79 0.21
1 8.34 834 -0.168 -9.462 3.295 -2.533 -0.031 -1.221 1484.933 -659.870 -2669.911 0.226 0.240 0.021 -0.14 -0.56 0.79 0.21
1 8.35 835 -0.048 -9.381 3.304 -2.319 0.000 -1.129 1484.933 -659.870 -2669.911 0.109 0.158 0.009 -0.14 -0.56 0.79 0.21
1 8.36 836 0.067 -9.333 3.266 -2.106 0.763 -0.824 1499.923 -494.978 -2639.930 -0.003 0.109 0.043 -0.14 -0.56 0.79 0.21
1 8.37 837 0.072 -9.405 3.333 -2.045 1.221 -0.122 1499.923 -494.978 -2639.930 -0.006 0.180 -0.026 -0.14 -0.56 0.79 0.21
1 8.38 838 0.201 -9.328 3.333 -1.404 1.190 -0.732 1514.913 -509.968 -2624.940 -0.133 0.103 -0.028 -0.14 -0.56 0.79 0.21
1 8.39 839 0.139 -9.376 3.366 -1.740 1.007 -0.885 1514.913 -389.896 -2669.911 -0.068 0.150 -0.062 -0.14 -0.56 0.79 0.21
1 8.40 840 0.048 -9.395 3.295 -1.709 1.495 -0.793 1514.913 -389.896 -2669.911 0.025 0.169 0.008 -0.14 -0.56 0.79 0.21
1 8.41 841 0.177 -9.362 3.266 -0.854 1.221 -0.641 1514.913 -509.968 -2669.911 -0.103 0.135 0.036 -0.15 -0.56 0.79 0.21
1 8.42 842 0.201 -9.256 3.256 -0.427 2.045 -0.458 1514.913 -509.968 -2669.911 -0.124 0.029 0.045 -0.15 -0.56 0.79 0.21
1 8.43 843 0.302 -9.371 3.328 -0.519 1.709 -0.519 1469.942 -449.857 -2684.901 -0.224 0.145 -0.026 -0.15 -0.56 0.79 0.21
1 8.44 844 0.019 -9.462 3.424 0.427 2.106 -0.793 1514.913 -539.948 -2699.891 0.063 0.236 -0.120 -0.15 -0.56 0.79 0.21
1 8.45 845 -0.014 -9.347 3.304 0.427 2.716 -1.190 1409.981 -464.997 -2879.924 0.098 0.122 0.002 -0.14 -0.56 0.79 0.21
1 8.46 846 -0.110 -9.386 3.299 -0.092 1.556 -1.434 1394.991 -494.978 -2714.881 0.194 0.161 0.009 -0.14 -0.56 0.79 0.21
1 8.47 847 0.014 -9.343 3.438 -0.702 2.350 -1.038 1394.991 -494.978 -2714.881 0.071 0.119 -0.129 -0.14 -0.56 0.79 0.21
1 8.48 848 -0.057 -9.462 3.438 -0.732 2.289 -0.702 1559.884 -434.867 -2594.959 0.143 0.239 -0.128 -0.14 -0.56 0.79 0.21
1 8.49 849 0.000 -9.448 3.424 -0.732 1.068 0.061 1559.884 -434.867 -2594.959 0.085 0.225 -0.112 -0.15 -0.56 0.79 0.21
1 8.50 850 -0.067 -9.366 3.386 -0.366 0.854 0.153 1439.962 -389.896 -2669.911 0.151 0.143 -0.074 -0.15 -0.56 0.79 0.21
1 8.51 851 0.081 -9.295 3.500 -0.427 0.977 0.183 1499.923 -449.857 -2639.930 0.004 0.072 -0.186 -0.15 -0.56 0.79 0.21
1 8.52 852 0.024 -9.275 3.405 0.061 1.434 0.732 1499.923 -449.857 -2609.950 0.061 0.054 -0.089 -0.15 -0.56 0.79 0.21
1 8.53 853 0.148 -9.280 3.386 -0.549 1.892 0.977 1649.975 -494.978 -2684.901 -0.065 0.059 -0.068 -0.15 -0.56 0.79 0.21
1 8.54 854 0.034 -9.184 3.424 0.153 1.892 1.099 1649.975 -494.978 -2684.901 0.049 -0.036 -0.105 -0.15 -0.56 0.79 0.21
1 8.55 855 0.005 -9.266 3.453 0.092 1.923 1.251 1499.923 -419.876 -2819.963 0.076 0.046 -0.131 -0.15 -0.56 0.79 0.21
1 8.56 856 0.153 -9.285 3.462 -0.092 1.648 1.099 1499.923 -419.876 -2819.963 -0.075 0.066 -0.138 -0.15 -0.56 0.79 0.21
1 8.57 857 0.081 -9.299 3.472 -0.366 1.678 1.007 1514.913 -434.867 -2669.911 -0.005 0.081 -0.146 -0.15 -0.56 0.79 0.21
1 8.58 858 -0.120 -9.405 3.390 -0.641 1.770 1.038 1589.864 -359.916 -2774.992 0.195 0.187 -0.063 -0.15 -0.56 0.79 0.21
1 8.59 859 -0.110 -9.319 3.534 -0.763 1.862 1.221 1574.874 -449.857 -2609.950 0.181 0.102 -0.205 -0.15 -0.56 0.79 0.21
1 8.60 860 0.010 -9.333 3.395 -0.793 1.709 0.854 1304.900 -539.948 -2669.911 0.059 0.116 -0.065 -0.15 -0.56 0.79 0.21
1 8.61 861 0.005 -9.366 3.443 -0.702 2.075 1.038 1304.900 -539.948 -2669.911 0.063 0.150 -0.111 -0.15 -0.56 0.79 0.21
1 8.62 862 0.029 -9.184 3.424 -0.580 1.526 1.495 1484.933 -389.896 -2624.940 0.037 -0.031 -0.092 -0.15 -0.56 0.79 0.21
1 8.63 863 0.024 -9.352 3.424 -1.465 1.312 0.885 1484.933 -389.896 -2624.940 0.040 0.137 -0.091 -0.15 -0.56 0.79 0.21
1 8.64 864 0.048 -9.271 3.362 -1.556 2.777 1.434 1589.864 -464.997 -2729.872 0.015 0.055 -0.029 -0.15 -0.56 0.79 0.21
1 8.65 865 0.081 -9.184 3.352 -1.801 3.418 1.740 1439.962 -314.945 -2624.940 -0.020 -0.031 -0.020 -0.15 -0.56 0.79 0.21
1 8.66 866 -0.077 -9.242 3.400 -1.312 2.686 1.465 1484.933 -539.948 -2774.992 0.133 0.025 -0.069 -0.15 -0.56 0.79 0.21
1 8.67 867 0.057 -9.285 3.261 -1.495 2.869 1.434 1664.965 -314.945 -2804.973 -0.004 0.068 0.069 -0.15 -0.56 0.79 0.21
1 8.68 868 0.034 -9.299 3.352 -1.770 2.594 0.336 1664.965 -314.945 -2804.973 0.018 0.082 -0.023 -0.15 -0.56 0.79 0.21
1 8.69 869 0.163 -9.343 3.429 -1.190 2.319 0.488 1574.874 -569.929 -2759.852 -0.112 0.125 -0.101 -0.15 -0.56 0.79 0.22
1 8.70 870 0.062 -9.194 3.357 -1.190 2.655 0.793 1574.874 -569.929 -2759.852 -0.012 -0.023 -0.029 -0.15 -0.56 0.79 0.22
1 8.71 871 0.024 -9.213 3.299 -1.221 1.984 0.244 1499.923 -419.876 -2639.930 0.026 -0.004 0.029 -0.15 -0.56 0.79 0.22
1 8.72 872 0.168 -9.060 3.333 -1.404 0.732 -0.092 1469.942 -449.857 -2714.881 -0.118 -0.158 -0.005 -0.15 -0.56 0.79 0.22
1 8.73 873 -0.120 -9.175 3.290 -1.343 -0.671 -0.061 1589.864 -314.945 -2774.992 0.172 -0.043 0.037 -0.15 -0.56 0.79 0.22
1 8.74 874 -0.024 -9.108 3.314 -1.617 -1.099 -0.183 1559.884 -434.867 -2624.940 0.076 -0.110 0.013 -0.15 -0.56 0.79 0.22
1 8.75 875 0.014 -9.390 3.510 -1.831 -1.465 -0.488 1559.884 -434.867 -2624.940 0.040 0.172 -0.184 -0.15 -0.56 0.79 0.22
1 8.76 876 -0.101 -9.395 3.529 -1.801 -2.075 -0.305 1604.854 -524.958 -2684.901 0.156 0.177 -0.204 -0.15 -0.56 0.79 0.22
1 8.77 877 -0.081 -9.371 3.443 -1.740 -3.510 -0.153 1604.854 -524.958 -2684.901 0.139 0.153 -0.119 -0.15 -0.56 0.79 0.22
1 8.78 878 -0.120 -9.501 3.390 -0.641 -3.082 1.129 1589.864 -464.997 -2774.992 0.178 0.282 -0.066 -0.15 -0.56 0.79 0.22
1 8.79 879 -0.134 -9.414 3.472 -0.488 -2.808 1.495 1574.874 -299.955 -2759.852 0.192 0.196 -0.147 -0.15 -0.56 0.79 0.22
1 8.80 880 -0.168 -9.290 3.376 -1.556 -3.967 2.228 1469.942 -599.909 -2609.950 0.223 0.072 -0.050 -0.15 -0.56 0.79 0.22
1 8.81 881 -0.115 -9.170 3.295 -2.045 -4.730 2.655 1514.913 -539.948 -2849.943 0.169 -0.048 0.030 -0.15 -0.56 0.79 0.21
1 8.82 882 -0.148 -9.386 3.323 -3.082 -5.463 3.021 1514.913 -539.948 -2849.943 0.202 0.167 0.000 -0.15 -0.56 0.79 0.21
1 8.83 883 0.091 -9.405 3.448 -3.448 -5.737 2.655 1484.933 -464.997 -2699.891 -0.039 0.185 -0.127 -0.15 -0.56 0.79 0.21
1 8.84 884 0.144 -9.338 3.548 -2.563 -5.920 3.632 1484.933 -464.997 -2699.891 -0.092 0.117 -0.230 -0.15 -0.56 0.79 0.21
1 8.85 885 -0.158 -9.496 3.405 -1.526 -5.524 3.418 1574.874 -494.978 -2759.852 0.209 0.274 -0.088 -0.15 -0.56 0.79 0.21
1 8.86 886 0.019 -9.295 3.376 -2.106 -5.402 3.845 1589.864 -434.867 -2594.959 0.030 0.073 -0.059 -0.15 -0.56 0.79 0.21
1 8.87 887 -0.110 -9.319 3.357 -1.221 -5.463 4.425 1589.864 -434.867 -2594.959 0.157 0.097 -0.041 -0.15 -0.56 0.79 0.21
1 8.88 888 -0.125 -9.026 3.390 -1.617 -7.416 5.157 1439.962 -389.896 -2699.891 0.165 -0.196 -0.076 -0.15 -0.56 0.79 0.21
1 8.89 889 0.000 -9.328 3.381 -1.404 -8.026 4.883 1439.962 -389.896 -2699.891 0.038 0.106 -0.066 -0.15 -0.56 0.79 0.21
1 8.90 890 0.029 -9.170 3.395 -1.862 -7.690 4.639 1364.861 -464.997 -2729.872 0.007 -0.052 -0.081 -0.15 -0.56 0.79 0.21
1 8.91 891 0.000 -9.213 3.342 -2.441 -8.087 3.235 1364.861 -464.997 -2729.872 0.035 -0.009 -0.029 -0.15 -0.56 0.79 0.21
1 8.92 892 0.077 -9.381 3.448 -3.357 -8.057 2.808 1574.874 -494.978 -2684.901 -0.042 0.157 -0.136 -0.14 -0.56 0.79 0.21
1 8.93 893 0.105 -9.252 3.400 -3.113 -7.416 2.472 1499.923 -524.958 -2759.852 -0.069 0.027 -0.091 -0.14 -0.56 0.79 0.21
1 8.94 894 0.048 -9.285 3.453 -1.709 -6.165 2.563 1499.923 -524.958 -2759.852 -0.009 0.060 -0.147 -0.14 -0.56 0.79 0.21
1 8.95 895 -0.057 -9.266 3.405 -1.099 -5.432 2.838 1469.942 -494.978 -2759.852 0.097 0.040 -0.100 -0.14 -0.56 0.79 0.21
1 8.96 896 0.000 -9.371 3.357 -1.678 -6.104 2.258 1469.942 -494.978 -2759.852 0.039 0.145 -0.052 -0.14 -0.56 0.79 0.21
1 8.97 897 0.067 -9.218 3.400 -1.892 -6.836 2.136 1514.913 -464.997 -2669.911 -0.027 -0.008 -0.096 -0.14 -0.56 0.79 0.21
1 8.98 898 0.062 -9.175 3.395 -3.265 -5.554 1.740 1514.913 -464.997 -2669.911 -0.020 -0.052 -0.092 -0.14 -0.56 0.79 0.21
1 8.99 899 0.364 -9.108 3.400 -4.028 -4.852 1.007 1544.894 -494.978 -2714.881 -0.319 -0.120 -0.100 -0.14 -0.56 0.79 0.21
1 9.00 900 0.263 -9.141 3.357 -3.540 -2.991 0.488 1424.972 -599.909 -2714.881 -0.214 -0.087 -0.060 -0.14 -0.56 0.79 0.21
1 9.01 901 0.168 -9.261 3.352 -2.838 -2.258 0.000 1424.972 -599.909 -2714.881 -0.115 0.031 -0.059 -0.14 -0.56 0.79 0.21
1 9.02 902 0.268 -9.247 3.400 -1.953 -1.923 -0.702 1439.962 -359.916 -2804.973 -0.212 0.016 -0.110 -0.14 -0.56 0.79 0.21
1 9.03 903 0.019 -9.247 3.400 -1.068 -2.594 -1.617 1484.933 -359.916 -2699.891 0.046 0.016 -0.110 -0.14 -0.56 0.79 0.21
1 9.04 904 0.163 -9.333 3.462 -0.885 -1.282 -1.953 1664.965 -434.867 -2624.940 -0.093 0.102 -0.172 -0.14 -0.56 0.79 0.21
1 9.05 905 -0.010 -9.347 3.534 -1.587 -1.129 -2.167 1664.965 -434.867 -2624.940 0.084 0.117 -0.243 -0.14 -0.56 0.79 0.21
1 9.06 906 0.134 -9.366 3.534 -3.357 -1.099 -2.197 1484.933 -464.997 -2774.992 -0.054 0.136 -0.243 -0.14 -0.56 0.79 0.21
1 9.07 907 -0.029 -9.319 3.496 -3.876 -1.495 -1.831 1799.877 -374.906 -2759.852 0.114 0.087 -0.207 -0.14 -0.56 0.79 0.21
1 9.08 908 0.115 -9.323 3.520 -2.472 -1.648 -1.740 1799.877 -374.906 -2759.852 -0.026 0.091 -0.234 -0.14 -0.56 0.79 0.21
1 9.09 909 0.220 -9.386 3.544 -1.770 -0.519 -0.732 1469.942 -449.857 -2714.881 -0.127 0.153 -0.260 -0.14 -0.56 0.79 0.21
1 9.10 910 0.072 -9.232 3.390 -1.892 0.793 -0.916 1559.884 -464.997 -2804.973 0.028 -0.000 -0.106 -0.14 -0.56 0.79 0.21
1 9.11 911 0.067 -9.113 3.515 -2.472 0.458 -0.397 1409.981 -434.867 -2699.891 0.034 -0.120 -0.232 -0.14 -0.56 0.79 0.21
1 9.12 912 0.014 -9.184 3.347 -3.754 1.038 -0.305 1409.981 -434.867 -2699.891 0.088 -0.049 -0.066 -0.14 -0.56 0.79 0.21
1 9.13 913 0.010 -9.242 3.314 -3.906 0.092 -0.824 1649.975 -524.958 -2684.901 0.094 0.007 -0.036 -0.14 -0.56 0.79 0.21
1 9.14 914 0.115 -9.285 3.371 -4.486 -0.702 -0.488 1649.975 -419.876 -2639.930 -0.010 0.049 -0.096 -0.14 -0.56 0.79 0.21
1 9.15 915 0.206 -9.410 3.251 -3.357 -0.244 -0.153 1649.975 -419.876 -2639.930 -0.099 0.172 0.020 -0.14 -0.56 0.79 0.21
1 9.16 916 0.249 -9.256 3.386 -1.678 0.366 -0.336 1484.933 -314.945 -2519.858 -0.141 0.017 -0.119 -0.14 -0.56 0.79 0.21
1 9.17 917 0.201 -9.429 3.304 -1.221 1.038 -0.671 1559.884 -434.867 -2729.872 -0.088 0.189 -0.039 -0.14 -0.56 0.79 0.21
1 9.18 918 0.239 -9.280 3.314 -1.312 0.946 -0.885 1499.923 -419.876 -2714.881 -0.124 0.041 -0.049 -0.14 -0.56 0.79 0.21
1 9.19 919 0.187 -9.453 3.381 -1.984 0.336 -1.038 1499.923 -419.876 -2714.881 -0.069 0.213 -0.116 -0.14 -0.56 0.79 0.21
1 9.20 920 0.172 -9.395 3.304 -1.862 0.336 -0.061 1409.981 -464.997 -2699.891 -0.052 0.155 -0.040 -0.14 -0.56 0.79 0.21
1 9.21 921 0.067 -9.338 3.295 -1.495 0.458 -0.336 1544.894 -494.978 -2789.982 0.054 0.097 -0.032 -0.14 -0.56 0.79 0.21
1 9.22 922 0.168 -9.280 3.165 -2.167 -0.061 -0.641 1544.894 -494.978 -2789.982 -0.045 0.040 0.096 -0.14 -0.56 0.79 0.21
1 9.23 923 0.297 -9.299 3.290 -2.502 0.275 -0.580 1589.864 -359.916 -2699.891 -0.173 0.058 -0.030 -0.14 -0.56 0.79 0.21
1 9.24 924 0.412 -9.343 3.342 -2.258 1.617 -0.580 1559.884 -434.867 -2879.924 -0.282 0.100 -0.088 -0.14 -0.56 0.79 0.21
1 9.25 925 0.278 -9.290 3.223 -2.014 1.984 -0.702 1394.991 -449.857 -2789.982 -0.145 0.047 0.031 -0.14 -0.56 0.79 0.21
1 9.26 926 0.263 -9.414 3.156 -1.923 2.441 -1.343 1394.991 -449.857 -2789.982 -0.127 0.170 0.095 -0.14 -0.56 0.79 0.21
1 9.27 927 0.268 -9.347 3.189 -0.977 1.495 -1.434 1559.884 -464.997 -2594.959 -0.129 0.103 0.060 -0.14 -0.56 0.79 0.21
1 9.28 928 0.345 -9.381 3.314 -0.488 1.099 -1.434 1484.933 -509.968 -2624.940 -0.202 0.136 -0.065 -0.14 -0.56 0.79 0.21
1 9.29 929 0.311 -9.395 3.218 -0.336 1.160 -1.312 1484.933 -509.968 -2624.940 -0.165 0.151 0.032 -0.14 -0.56 0.79 0.21
1 9.30 930 0.158 -9.376 3.409 -0.488 2.197 -0.977 1499.923 -449.857 -2714.881 -0.008 0.132 -0.160 -0.14 -0.56 0.79 0.21
1 9.31 931 0.211 -9.400 3.251 -0.610 1.923 -0.549 1589.864 -314.945 -2729.872 -0.059 0.156 -0.001 -0.14 -0.56 0.79 0.21
1 9.32 932 0.077 -9.333 3.165 -0.702 1.862 -0.824 1544.894 -374.906 -2639.930 0.077 0.090 0.087 -0.14 -0.56 0.79 0.21
1 9.33 933 -0.005 -9.295 3.295 -0.885 1.984 0.061 1544.894 -374.906 -2639.930 0.158 0.051 -0.042 -0.14 -0.56 0.79 0.21
1 9.34 934 -0.019 -9.347 3.146 -1.495 1.892 0.244 1484.933 -584.919 -2699.891 0.172 0.104 0.106 -0.14 -0.56 0.79 0.21
1 9.35 935 0.086 -9.223 3.213 -2.899 1.251 0.732 1439.962 -434.867 -2774.992 0.065 -0.021 0.037 -0.14 -0.56 0.79 0.21
1 9.36 936 0.101 -9.314 3.079 -3.113 0.946 0.214 1439.962 -434.867 -2774.992 0.051 0.069 0.168 -0.14 -0.56 0.79 0.21
1 9.37 937 0.148 -9.410 3.213 -2.930 1.831 0.702 1514.913 -464.997 -2624.940 0.003 0.163 0.030 -0.14 -0.56 0.79 0.21
1 9.38 938 0.153 -9.414 3.318 -2.197 1.648 0.702 1559.884 -464.997 -2699.891 -0.003 0.167 -0.079 -0.14 -0.56 0.79 0.21
1 9.39 939 0.153 -9.381 3.170 -1.801 1.495 0.244 1499.923 -419.876 -2684.901 -0.005 0.132 0.066 -0.14 -0.56 0.79 0.21
1 9.40 940 0.091 -9.309 3.232 -1.160 0.763 -0.671 1499.923 -419.876 -2684.901 0.058 0.059 0.002 -0.14 -0.56 0.79 0.21
1 9.41 941 -0.019 -9.381 3.256 -1.251 1.648 0.092 1574.874 -494.978 -2714.881 0.169 0.131 -0.022 -0.14 -0.56 0.79 0.21
1 9.42 942 -0.067 -9.309 3.232 -0.488 1.404 -0.336 1544.894 -299.955 -2609.950 0.216 0.059 0.002 -0.14 -0.56 0.79 0.21
1 9.43 943 -0.086 -9.304 3.362 -0.244 0.610 0.519 1544.894 -299.955 -2609.950 0.234 0.055 -0.127 -0.14 -0.56 0.79 0.21
1 9.44 944 0.014 -9.347 3.323 -1.251 -0.305 0.214 1484.933 -314.945 -2699.891 0.132 0.098 -0.087 -0.14 -0.56 0.79 0.21
1 9.45 945 -0.110 -9.381 3.333 -2.441 -0.488 -0.305 1589.864 -239.994 -2774.992 0.256 0.132 -0.097 -0.14 -0.56 0.79 0.21
1 9.46 946 -0.062 -9.347 3.184 -2.167 0.214 -0.244 1589.864 -239.994 -2774.992 0.208 0.098 0.051 -0.14 -0.56 0.79 0.21
1 9.47 947 0.101 -9.462 3.371 -2.625 0.671 -0.092 1499.923 -419.876 -2609.950 0.044 0.212 -0.139 -0.14 -0.56 0.79 0.21
1 9.48 948 0.196 -9.309 3.208 -1.770 1.099 -0.824 1409.981 -314.945 -2729.872 -0.052 0.058 0.022 -0.14 -0.56 0.79 0.21
1 9.49 949 0.072 -9.553 3.304 -1.434 1.160 -0.793 1499.923 -419.876 -2609.950 0.074 0.302 -0.075 -0.14 -0.56 0.79 0.21
1 9.50 950 0.230 -9.362 3.199 -2.167 1.160 -0.946 1499.923 -419.876 -2609.950 -0.083 0.110 0.029 -0.14 -0.56 0.79 0.21
1 9.51 951 0.201 -9.424 3.295 -1.770 1.099 -1.343 1424.972 -449.857 -2504.868 -0.052 0.172 -0.068 -0.14 -0.56 0.79 0.21
1 9.52 952 0.201 -9.328 3.156 -1.190 1.160 -0.549 1439.962 -509.968 -2699.891 -0.050 0.076 0.071 -0.14 -0.56 0.79 0.21
1 9.53 953 0.120 -9.362 3.208 -0.427 0.763 -0.488 1439.962 -509.968 -2699.891 0.033 0.109 0.017 -0.14 -0.56 0.79 0.21
1 9.54 954 0.110 -9.467 3.194 0.366 0.427 0.092 1574.874 -449.857 -2609.950 0.044 0.214 0.032 -0.14 -0.56 0.79 0.21
1 9.55 955 0.110 -9.328 3.189 0.366 0.214 -0.153 1484.933 -434.867 -2699.891 0.045 0.076 0.038 -0.14 -0.56 0.79 0.21
1 9.56 956 0.072 -9.309 3.275 -0.244 0.397 0.305 1544.894 -449.857 -2639.930 0.084 0.057 -0.047 -0.14 -0.56 0.79 0.22
1 9.57 957 0.110 -9.381 3.208 -1.312 0.885 0.336 1544.894 -449.857 -2639.930 0.045 0.130 0.021 -0.14 -0.56 0.79 0.22
1 9.58 958 0.168 -9.371 3.309 -1.526 1.495 0.549 1589.864 -314.945 -2774.992 -0.013 0.119 -0.081 -0.14 -0.56 0.79 0.22
1 9.59 959 -0.034 -9.314 3.218 -1.251 1.617 0.977 1514.913 -464.997 -2624.940 0.188 0.062 0.010 -0.14 -0.56 0.79 0.22
1 9.60 960 0.062 -9.410 3.122 -1.129 1.129 0.671 1514.913 -464.997 -2624.940 0.090 0.157 0.105 -0.14 -0.56 0.79 0.22
1 9.61 961 0.125 -9.256 3.251 -1.434 0.885 1.007 1334.880 -314.945 -2624.940 0.025 0.004 -0.025 -0.14 -0.56 0.79 0.22
1 9.62 962 0.225 -9.414 3.266 -1.801 0.885 1.007 1514.913 -434.867 -2549.989 -0.076 0.161 -0.041 -0.14 -0.56 0.79 0.22
1 9.63 963 0.259 -9.496 3.180 -2.258 1.434 1.190 1484.933 -389.896 -2594.959 -0.110 0.242 0.043 -0.14 -0.56 0.79 0.22
1 9.64 964 0.278 -9.381 3.218 -1.526 1.038 1.678 1484.933 -389.896 -2594.959 -0.131 0.127 0.003 -0.14 -0.56 0.79 0.22
1 9.65 965 0.211 -9.338 3.218 -1.007 0.854 1.221 1559.884 -509.968 -2624.940 -0.065 0.083 0.002 -0.14 -0.56 0.79 0.22
1 9.66 966 0.182 -9.376 3.323 -0.610 0.153 1.282 1394.991 -569.929 -2639.930 -0.037 0.121 -0.103 -0.14 -0.56 0.79 0.22
1 9.67 967 0.187 -9.271 3.184 -0.458 0.000 0.092 1394.991 -569.929 -2639.930 -0.042 0.016 0.036 -0.14 -0.56 0.79 0.22
1 9.68 968 0.077 -9.357 3.295 -0.702 0.000 0.061 1484.933 -389.896 -2729.872 0.071 0.102 -0.074 -0.14 -0.56 0.79 0.22
1 9.69 969 0.077 -9.481 3.295 -0.153 -0.031 -0.092 1514.913 -539.948 -2594.959 0.071 0.227 -0.073 -0.14 -0.56 0.79 0.22
1 9.70 970 0.148 -9.381 3.395 -0.092 0.000 -0.488 1334.880 -389.896 -2624.940 0.000 0.127 -0.173 -0.14 -0.56 0.79 0.22
1 9.71 971 0.129 -9.309 3.323 -0.458 0.122 -0.458 1334.880 -389.896 -2624.940 0.021 0.056 -0.099 -0.14 -0.56 0.79 0.22
1 9.72 972 0.263 -9.280 3.357 -0.824 0.244 -0.336 1544.894 -419.876 -2534.999 -0.112 0.028 -0.131 -0.14 -0.56 0.79 0.22
1 9.73 973 0.201 -9.319 3.414 -1.129 0.580 0.885 1439.962 -389.896 -2699.891 -0.048 0.066 -0.188 -0.14 -0.56 0.79 0.22
1 9.74 974 0.283 -9.299 3.237 -0.610 0.732 0.946 1439.962 -389.896 -2699.891 -0.129 0.047 -0.010 -0.14 -0.56 0.79 0.22
1 9.75 975 0.148 -9.362 3.362 -0.275 0.916 1.404 1469.942 -494.978 -2639.930 0.005 0.110 -0.134 -0.14 -0.56 0.79 0.22
1 9.76 976 0.201 -9.280 3.318 -0.336 0.366 1.160 1424.972 -299.955 -2609.950 -0.050 0.029 -0.088 -0.14 -0.56 0.79 0.22
1 9.77 977 0.096 -9.323 3.381 -1.099 1.068 0.702 1544.894 -449.857 -2684.901 0.056 0.072 -0.150 -0.14 -0.56 0.79 0.22
1 9.78 978 0.220 -9.462 3.266 -0.702 1.221 0.488 1544.894 -449.857 -2684.901 -0.069 0.212 -0.034 -0.14 -0.56 0.79 0.22
1 9.79 979 0.196 -9.534 3.424 -0.092 1.404 1.038 1544.894 -419.876 -2759.852 -0.045 0.284 -0.192 -0.14 -0.56 0.79 0.22
1 9.80 980 0.187 -9.338 3.242 0.183 1.617 0.946 1724.926 -329.935 -2639.930 -0.037 0.088 -0.008 -0.14 -0.56 0.79 0.22
1 9.81 981 0.081 -9.376 3.314 0.916 1.251 1.038 1724.926 -329.935 -2639.930 0.068 0.127 -0.078 -0.14 -0.56 0.79 0.22
1 9.82 982 0.072 -9.314 3.362 0.458 1.038 1.282 1514.913 -434.867 -2669.911 0.075 0.066 -0.123 -0.14 -0.56 0.79 0.22
1 9.83 983 0.096 -9.352 3.433 -0.854 0.824 0.977 1649.975 -374.906 -2714.881 0.048 0.106 -0.189 -0.14 -0.56 0.79 0.22
1 9.84 984 0.259 -9.285 3.342 -1.251 0.916 0.580 1649.975 -329.935 -2564.979 -0.116 0.039 -0.097 -0.15 -0.56 0.79 0.22
1 9.85 985 0.144 -9.228 3.218 -1.129 0.580 0.092 1649.975 -329.935 -2564.979 -0.001 -0.018 0.028 -0.15 -0.56 0.79 0.22
1 9.86 986 -0.053 -9.275 3.333 -1.190 0.580 0.244 1409.981 -389.896 -2594.959 0.195 0.030 -0.086 -0.15 -0.56 0.79 0.22
1 9.87 987 0.139 -9.333 3.295 -1.404 0.946 0.183 1544.894 -524.958 -2639.930 0.003 0.087 -0.048 -0.15 -0.56 0.79 0.22
1 9.88 988 0.086 -9.338 3.218 -1.495 0.275 0.214 1544.894 -524.958 -2639.930 0.055 0.092 0.029 -0.15 -0.56 0.79 0.22
1 9.89 989 0.096 -9.285 3.342 -0.122 0.000 0.397 1604.854 -299.955 -2609.950 0.045 0.040 -0.096 -0.15 -0.56 0.79 0.22
1 9.90 990 0.153 -9.338 3.256 0.092 -0.854 0.427 1604.854 -299.955 -2609.950 -0.013 0.092 -0.009 -0.15 -0.56 0.79 0.22
1 9.91 991 0.091 -9.290 3.299 -0.305 -1.038 0.366 1589.864 -464.997 -2699.891 0.049 0.045 -0.051 -0.15 -0.56 0.79 0.22
1 9.92 992 0.172 -9.295 3.338 -0.336 -1.160 -0.031 1589.864 -464.997 -2699.891 -0.032 0.050 -0.089 -0.15 -0.56 0.79 0.22
1 9.93 993 0.187 -9.357 3.318 -0.397 -0.458 -0.366 1514.913 -389.896 -2624.940 -0.045 0.112 -0.069 -0.15 -0.56 0.79 0.22
1 9.94 994 0.000 -9.486 3.357 -0.244 -0.671 0.214 1589.864 -509.968 -2699.891 0.142 0.242 -0.107 -0.15 -0.56 0.79 0.22
1 9.95 995 0.125 -9.323 3.165 0.183 -0.061 -0.549 1589.864 -509.968 -2699.891 0.018 0.079 0.085 -0.15 -0.56 0.79 0.22
1 9.96 996 -0.019 -9.376 3.304 0.366 -0.580 0.031 1484.933 -509.968 -2549.989 0.163 0.132 -0.052 -0.15 -0.56 0.79 0.22
1 9.97 997 0.053 -9.323 3.318 -0.031 -0.702 -0.824 1484.933 -509.968 -2549.989 0.092 0.080 -0.065 -0.15 -0.56 0.79 0.22
1 9.98 998 0.067 -9.237 3.338 -0.763 -0.916 0.336 1469.942 -494.978 -2684.901 0.079 -0.004 -0.080 -0.15 -0.56 0.79 0.22
1 9.99 999 0.182 -9.371 3.290 -1.556 -1.068 0.427 1469.942 -494.978 -2684.901 -0.036 0.130 -0.032 -0.15 -0.56 0.79 0.22
1 10.00 1000 0.125 -9.371 3.362 -2.319 -1.373 0.427 1574.874 -449.857 -2609.950 0.021 0.130 -0.104 -0.15 -0.56 0.79 0.22
1 10.01 1001 0.215 -9.424 3.438 -1.404 -1.587 0.244 1469.942 -224.854 -2684.901 -0.069 0.182 -0.181 -0.15 -0.56 0.79 0.22
1 10.02 1002 0.043 -9.314 3.333 -0.732 -0.549 1.190 1469.942 -224.854 -2684.901 0.104 0.072 -0.076 -0.15 -0.56 0.79 0.22
1 10.03 1003 0.144 -9.481 3.338 0.244 0.580 1.617 1589.864 -389.896 -2699.891 0.003 0.240 -0.080 -0.15 -0.56 0.79 0.22
1 10.04 1004 0.019 -9.438 3.414 -0.336 0.122 1.404 1589.864 -389.896 -2699.891 0.126 0.197 -0.156 -0.15 -0.56 0.79 0.22
1 10.05 1005 0.005 -9.366 3.347 -0.519 -0.885 1.892 1559.884 -509.968 -2624.940 0.140 0.125 -0.088 -0.15 -0.56 0.79 0.22
1 10.06 1006 0.096 -9.333 3.275 -0.214 -0.977 1.923 1559.884 -509.968 -2624.940 0.048 0.092 -0.016 -0.15 -0.56 0.79 0.22
1 10.07 1007 0.134 -9.208 3.419 -0.946 -0.732 1.343 1649.975 -569.929 -2609.950 0.009 -0.033 -0.160 -0.15 -0.56 0.79 0.22
1 10.08 1008 0.134 -9.357 3.371 -1.129 -1.129 1.678 1589.864 -464.997 -2594.959 0.009 0.116 -0.111 -0.15 -0.56 0.79 0.22
1 10.09 1009 0.163 -9.429 3.424 -0.793 -0.610 1.648 1589.864 -464.997 -2594.959 -0.021 0.188 -0.164 -0.15 -0.56 0.79 0.22
