COL1 TIME FRAME ACC_X	ACC_Y	ACC_Z	GYR_X	GYR_Y	GYR_Z	MAG_X	MAG_Y	MAG_Z	 LACC_X LACC_Y	LACC_Z	 QUAT_X	QUAT_Y	QUAT_Z	QUAT_W
1 0.00 0 -0.129 -8.428 5.153 0.012 0.007 0.007 -145.555 4043.766 860.739 0.222 0.019 -0.121 -0.49 -0.01 0 0.87
1 0.01 1 0.024 -8.394 5.148 -0.030 0.005 0.001 -85.594 3998.795 770.798 0.068 -0.013 -0.112 -0.49 -0.01 0 0.87
1 0.02 2 0.101 -8.572 5.153 -0.098 0.004 -0.002 19.337 4103.727 695.847 -0.011 0.163 -0.120 -0.49 -0.01 0 0.87
1 0.03 3 0.038 -8.495 5.042 -0.104 0.002 0.001 49.318 4133.707 830.759 0.052 0.083 -0.016 -0.49 -0.01 0 0.87
1 0.04 4 0.225 -8.490 4.985 -0.137 0.001 0.001 49.318 4133.707 830.759 -0.135 0.073 0.034 -0.49 -0.01 0 0.87
1 0.05 5 0.081 -8.648 5.071 -0.118 0.001 -0.005 4.347 4133.707 830.759 0.010 0.226 -0.061 -0.49 -0.01 0 0.87
1 0.06 6 0.230 -8.639 5.066 -0.088 -0.005 -0.014 4.347 4133.707 830.759 -0.138 0.213 -0.063 -0.49 -0.01 -0 0.87
1 0.07 7 0.215 -8.787 5.071 -0.013 -0.010 -0.017 49.318 4133.707 830.759 -0.121 0.359 -0.072 -0.49 -0.01 -0 0.87
1 0.08 8 0.110 -8.734 5.095 0.034 -0.013 -0.007 94.289 4178.828 845.749 -0.013 0.305 -0.097 -0.49 -0.01 -0 0.87
1 0.09 9 0.182 -8.672 5.018 0.092 -0.022 -0.001 94.289 4178.828 845.749 -0.083 0.244 -0.018 -0.49 -0.01 -0 0.87
1 0.10 10 -0.014 -8.653 5.129 0.116 -0.027 -0.003 -25.483 4208.808 755.808 0.117 0.234 -0.114 -0.49 -0.01 -0 0.87
1 0.11 11 -0.005 -8.524 5.042 0.110 -0.024 0.010 -25.483 4208.808 755.808 0.109 0.111 -0.018 -0.49 -0.01 -0 0.87
1 0.12 12 -0.115 -8.418 5.057 0.100 -0.018 0.003 -25.483 4133.707 860.739 0.219 0.011 -0.023 -0.49 -0.01 -0 0.87
1 0.13 13 -0.062 -8.342 4.951 0.061 -0.015 0.010 -25.483 4133.707 860.739 0.167 -0.061 0.090 -0.49 -0.01 -0 0.87
1 0.14 14 -0.134 -8.279 5.042 0.007 -0.015 0.022 -25.483 4208.808 680.856 0.238 -0.121 0.004 -0.49 -0.01 -0 0.87
1 0.15 15 -0.057 -8.323 5.033 -0.075 -0.015 0.014 214.360 4148.697 770.798 0.160 -0.077 0.015 -0.49 -0.01 -0 0.87
1 0.16 16 0.053 -8.418 4.985 -0.123 -0.007 0.025 214.360 4148.697 770.798 0.048 0.017 0.059 -0.49 -0.01 0 0.87
1 0.17 17 0.239 -8.619 5.071 -0.121 -0.006 0.030 4.347 4043.766 785.788 -0.142 0.208 -0.043 -0.49 -0.01 0 0.87
1 0.18 18 0.206 -8.940 5.196 -0.089 -0.010 0.028 4.347 4043.766 785.788 -0.110 0.525 -0.175 -0.49 -0.01 0 0.87
1 0.19 19 0.335 -8.677 5.277 -0.040 0.001 0.028 -25.483 4013.785 680.856 -0.240 0.258 -0.262 -0.49 -0.01 0 0.87
1 0.20 20 0.359 -8.686 5.411 -0.029 0.003 0.034 -25.483 4013.785 680.856 -0.265 0.267 -0.397 -0.49 -0.01 0 0.87
1 0.21 21 0.287 -8.667 5.320 -0.001 0.014 0.031 -25.483 4208.808 890.870 -0.193 0.248 -0.306 -0.49 -0.01 0 0.87
1 0.22 22 0.187 -8.418 5.191 0.022 0.016 0.013 -25.483 4133.707 785.788 -0.094 0.000 -0.174 -0.49 -0.01 -0 0.87
1 0.23 23 0.230 -8.390 5.119 0.035 0.013 0.010 -25.483 4133.707 785.788 -0.137 -0.026 -0.099 -0.49 -0.01 -0 0.87
1 0.24 24 0.081 -8.318 4.947 0.047 0.004 0.001 -55.464 4028.775 875.729 0.011 -0.092 0.084 -0.49 -0.01 -0 0.87
1 0.25 25 -0.081 -8.323 4.927 0.044 -0.010 -0.010 -55.464 4028.775 875.729 0.175 -0.085 0.107 -0.49 -0.01 -0 0.87
1 0.26 26 -0.192 -8.356 4.918 0.010 -0.036 -0.013 94.289 4028.775 770.798 0.286 -0.049 0.120 -0.49 -0.01 -0 0.87
1 0.27 27 -0.182 -8.528 4.779 -0.022 -0.061 -0.020 94.289 4028.775 770.798 0.278 0.124 0.260 -0.49 -0.01 -0 0.87
1 0.28 28 -0.215 -8.667 4.875 -0.052 -0.078 -0.013 19.337 4073.746 725.827 0.314 0.261 0.162 -0.49 -0.01 -0 0.87
1 0.29 29 -0.129 -8.691 5.066 -0.071 -0.092 0.004 94.289 4073.746 800.778 0.231 0.282 -0.035 -0.49 -0.01 -0 0.87
1 0.30 30 -0.029 -8.945 5.095 -0.070 -0.085 0.016 94.289 4073.746 800.778 0.133 0.533 -0.068 -0.49 -0.01 -0 0.87
1 0.31 31 0.072 -8.907 5.253 -0.068 -0.055 0.023 -70.454 4163.837 785.788 0.035 0.492 -0.231 -0.49 -0.01 0 0.87
1 0.32 32 0.139 -8.787 5.191 -0.059 -0.024 0.047 19.337 4223.798 845.749 -0.032 0.367 -0.177 -0.49 -0.01 0 0.87
1 0.33 33 0.144 -8.639 5.129 -0.051 -0.010 0.056 -70.454 4043.766 755.808 -0.040 0.217 -0.118 -0.49 -0.01 0 0.87
1 0.34 34 0.168 -8.548 5.057 -0.042 0.002 0.048 -70.454 4043.766 755.808 -0.067 0.125 -0.048 -0.49 -0.01 0 0.87
1 0.35 35 0.225 -8.466 4.980 -0.014 -0.006 0.061 -100.584 4208.808 785.788 -0.127 0.042 0.026 -0.49 -0.01 0 0.87
1 0.36 36 0.268 -8.595 4.990 0.020 -0.026 0.051 64.308 4028.775 770.798 -0.173 0.171 0.017 -0.49 -0.01 0 0.87
1 0.37 37 0.354 -8.586 4.971 0.049 -0.036 0.039 64.308 4028.775 770.798 -0.262 0.162 0.037 -0.49 -0.01 0 0.87
1 0.38 38 0.220 -8.528 5.057 0.059 -0.044 0.029 -10.493 4103.727 725.827 -0.128 0.107 -0.045 -0.49 -0.01 0 0.87
1 0.39 39 0.287 -8.691 5.200 0.039 -0.034 0.018 49.318 4163.837 785.788 -0.192 0.277 -0.178 -0.49 -0.01 0 0.87
1 0.40 40 0.148 -8.509 5.282 0.019 -0.005 0.004 -10.493 4103.727 620.746 -0.051 0.097 -0.255 -0.49 -0.01 0 0.87
1 0.41 41 0.172 -8.624 5.076 -0.021 0.014 0.002 -10.493 4103.727 620.746 -0.075 0.214 -0.046 -0.49 -0.01 0 0.87
1 0.42 42 0.158 -8.442 5.220 -0.056 0.032 0.006 79.298 4133.707 710.837 -0.060 0.032 -0.190 -0.49 -0.01 0 0.87
1 0.43 43 0.086 -8.327 5.071 -0.082 0.053 0.004 49.318 4133.707 710.837 0.010 -0.085 -0.044 -0.49 -0.01 0 0.87
1 0.44 44 0.110 -8.509 5.009 -0.108 0.035 0.018 49.318 4133.707 710.837 -0.016 0.094 0.013 -0.49 -0.01 0 0.87
1 0.45 45 0.081 -8.356 4.990 -0.108 0.013 0.012 4.347 4238.789 785.788 0.010 -0.063 0.026 -0.49 -0.01 0 0.87
1 0.46 46 0.029 -8.524 5.009 -0.110 -0.027 0.015 124.269 4163.837 935.840 0.061 0.097 -0.007 -0.49 -0.01 0 0.87
1 0.47 47 -0.005 -8.591 4.994 -0.110 -0.038 0.013 4.347 4208.808 785.788 0.095 0.159 -0.000 -0.5 -0.01 0 0.87
1 0.48 48 -0.053 -8.605 4.951 -0.076 -0.059 0.013 4.347 4208.808 785.788 0.143 0.170 0.036 -0.5 -0.01 0 0.87
1 0.49 49 -0.005 -8.701 4.999 -0.033 -0.059 0.017 -70.454 4163.837 755.808 0.096 0.263 -0.016 -0.5 -0.01 0 0.87
1 0.50 50 0.010 -8.763 5.052 0.011 -0.045 0.002 4.347 4013.785 755.808 0.083 0.325 -0.070 -0.5 -0.01 0 0.87
1 0.51 51 0.057 -8.782 5.133 0.063 -0.026 0.028 4.347 4013.785 755.808 0.035 0.345 -0.149 -0.5 -0.01 0 0.87
1 0.52 52 -0.134 -8.610 5.081 0.061 -0.013 0.022 -55.464 4178.828 800.778 0.227 0.176 -0.090 -0.5 -0.01 0 0.87
1 0.53 53 -0.029 -8.414 4.999 0.043 -0.008 0.027 -55.464 4178.828 725.827 0.121 -0.016 -0.003 -0.5 -0.01 0 0.87
1 0.54 54 0.048 -8.447 5.081 -0.001 -0.026 0.009 -55.464 4103.727 800.778 0.041 0.022 -0.076 -0.49 -0.01 0 0.87
1 0.55 55 -0.005 -8.380 5.095 -0.034 -0.030 0.019 -55.464 4103.727 800.778 0.093 -0.045 -0.090 -0.49 -0.01 0 0.87
1 0.56 56 0.086 -8.423 5.009 -0.053 -0.029 0.015 -25.483 4133.707 785.788 0.002 -0.002 -0.004 -0.49 -0.01 0 0.87
1 0.57 57 0.057 -8.390 5.095 -0.070 -0.047 0.017 -25.483 4133.707 755.808 0.031 -0.038 -0.094 -0.49 -0.01 0 0.87
1 0.58 58 -0.048 -8.457 5.071 -0.081 -0.050 0.024 -25.483 4133.707 755.808 0.137 0.027 -0.074 -0.49 -0.01 0 0.87
1 0.59 59 0.172 -8.619 5.181 -0.088 -0.061 0.025 64.308 3998.795 725.827 -0.082 0.187 -0.189 -0.5 -0.01 0 0.87
1 0.60 60 0.345 -8.691 5.100 -0.087 -0.051 0.021 -55.464 4073.746 845.749 -0.253 0.256 -0.112 -0.5 -0.01 0 0.87
1 0.61 61 0.278 -8.768 5.172 -0.046 -0.033 0.025 79.298 4043.766 755.808 -0.183 0.327 -0.194 -0.5 -0.01 0 0.87
1 0.62 62 0.378 -8.624 4.971 -0.022 -0.008 0.034 79.298 4043.766 755.808 -0.283 0.183 0.006 -0.5 -0.01 0 0.87
1 0.63 63 0.158 -8.514 5.085 -0.006 0.003 0.042 -25.483 4013.785 755.808 -0.062 0.073 -0.108 -0.5 -0.01 0 0.87
1 0.64 64 0.211 -8.509 5.028 -0.011 0.011 0.030 4.347 4133.707 860.739 -0.117 0.069 -0.050 -0.5 -0.01 0 0.87
1 0.65 65 -0.134 -8.600 4.961 -0.019 0.007 0.039 4.347 4133.707 860.739 0.226 0.160 0.018 -0.5 -0.01 0 0.87
1 0.66 66 -0.172 -8.538 4.798 -0.009 -0.017 0.028 19.337 4028.775 725.827 0.260 0.097 0.180 -0.5 -0.01 0 0.87
1 0.67 67 -0.278 -8.485 4.827 -0.026 -0.043 0.028 -10.493 4103.727 845.749 0.364 0.044 0.151 -0.5 -0.01 0 0.87
1 0.68 68 -0.153 -8.562 4.827 -0.046 -0.091 0.014 79.298 4133.707 710.837 0.237 0.118 0.147 -0.5 -0.01 0 0.87
1 0.69 69 -0.081 -8.605 4.999 -0.049 -0.107 0.023 79.298 4133.707 710.837 0.167 0.159 -0.029 -0.5 -0.01 0 0.87
1 0.70 70 0.034 -8.600 5.047 -0.074 -0.099 0.020 -25.483 4208.808 755.808 0.054 0.152 -0.081 -0.5 -0.01 0 0.87
1 0.71 71 0.014 -8.572 4.956 -0.084 -0.080 0.016 139.259 4073.746 875.729 0.075 0.121 0.006 -0.5 -0.01 0 0.87
1 0.72 72 0.091 -8.552 5.042 -0.091 -0.052 0.024 139.259 4073.746 875.729 0.001 0.098 -0.086 -0.5 -0.01 0 0.87
1 0.73 73 0.235 -8.538 5.076 -0.092 -0.015 0.027 -55.464 4073.746 770.798 -0.142 0.081 -0.125 -0.5 -0.01 0 0.87
1 0.74 74 0.283 -8.548 5.109 -0.087 0.004 0.034 19.337 4148.697 800.778 -0.191 0.088 -0.164 -0.5 -0.01 0 0.87
1 0.75 75 0.244 -8.519 4.999 -0.062 0.018 0.035 19.337 4148.697 800.778 -0.152 0.056 -0.058 -0.5 -0.01 0 0.87
1 0.76 76 0.326 -8.691 4.951 -0.010 0.030 0.025 49.318 4133.707 890.870 -0.236 0.226 -0.015 -0.5 -0.01 0 0.87
1 0.77 77 0.283 -8.567 5.009 0.023 0.019 0.013 49.318 4163.837 785.788 -0.193 0.102 -0.071 -0.5 -0.01 0 0.87
1 0.78 78 0.263 -8.528 5.153 0.039 0.008 0.013 49.318 4133.707 860.739 -0.175 0.066 -0.211 -0.5 -0.01 0 0.87
1 0.79 79 0.278 -8.672 5.090 0.043 -0.002 0.009 49.318 4133.707 860.739 -0.188 0.212 -0.144 -0.5 -0.01 0 0.87
1 0.80 80 0.278 -8.653 5.057 0.024 -0.003 0.008 139.259 4148.697 620.746 -0.186 0.196 -0.107 -0.5 -0.01 0 0.87
1 0.81 81 0.220 -8.653 5.138 0.002 -0.004 -0.001 79.298 4133.707 785.788 -0.128 0.198 -0.185 -0.5 -0.01 0 0.87
1 0.82 82 0.086 -8.610 4.841 -0.008 0.009 -0.011 79.298 4133.707 785.788 0.007 0.155 0.114 -0.5 -0.01 0 0.87
1 0.83 83 0.067 -8.643 4.980 -0.019 0.022 -0.017 214.360 4028.775 920.850 0.028 0.189 -0.025 -0.5 -0.01 0 0.87
1 0.84 84 -0.029 -8.696 4.942 -0.025 0.032 -0.005 49.318 4163.837 710.837 0.123 0.241 0.012 -0.5 -0.01 0 0.87
1 0.85 85 0.072 -8.619 4.913 -0.030 0.028 -0.016 154.399 4163.837 830.759 0.021 0.164 0.040 -0.5 -0.01 0 0.87
1 0.86 86 -0.038 -8.682 4.927 -0.045 0.018 -0.005 154.399 4163.837 830.759 0.131 0.225 0.023 -0.5 -0.01 0 0.87
1 0.87 87 -0.053 -8.672 5.009 -0.055 0.010 0.002 -70.454 4013.785 830.759 0.144 0.213 -0.061 -0.5 -0.01 0 0.87
1 0.88 88 -0.081 -8.634 5.114 -0.055 -0.010 0.006 49.318 4163.837 710.837 0.172 0.173 -0.170 -0.5 -0.01 0 0.87
1 0.89 89 -0.110 -8.624 5.023 -0.063 -0.020 0.007 49.318 4163.837 710.837 0.199 0.162 -0.082 -0.5 -0.01 0 0.87
1 0.90 90 -0.259 -8.576 4.990 -0.052 -0.031 0.017 64.308 4223.798 920.850 0.346 0.111 -0.054 -0.5 -0.01 0 0.87
1 0.91 91 0.010 -8.533 5.090 -0.036 -0.044 0.027 64.308 4073.746 875.729 0.077 0.066 -0.157 -0.5 -0.01 0 0.87
1 0.92 92 0.125 -8.552 5.119 -0.007 -0.036 0.024 -55.464 4223.798 725.827 -0.039 0.085 -0.186 -0.5 -0.01 0 0.87
1 0.93 93 0.192 -8.533 5.109 0.004 -0.025 0.035 -55.464 4223.798 725.827 -0.106 0.067 -0.175 -0.5 -0.01 0 0.87
1 0.94 94 0.139 -8.639 5.052 -0.001 -0.010 0.027 49.318 4013.785 830.759 -0.053 0.174 -0.115 -0.5 -0.01 0 0.87
1 0.95 95 0.335 -8.505 5.114 -0.015 0.006 0.029 -70.454 4133.707 830.759 -0.250 0.040 -0.176 -0.5 -0.01 0 0.87
1 0.96 96 0.316 -8.476 4.990 -0.027 0.017 0.019 -70.454 4133.707 830.759 -0.230 0.012 -0.051 -0.5 -0.01 0 0.87
1 0.97 97 0.225 -8.418 5.066 -0.044 0.024 0.012 79.298 4043.766 785.788 -0.139 -0.045 -0.127 -0.5 -0.01 0 0.87
1 0.98 98 0.134 -8.605 4.994 -0.043 0.007 0.003 94.289 4148.697 845.749 -0.049 0.140 -0.057 -0.5 -0.01 0 0.87
1 0.99 99 0.034 -8.471 4.951 -0.034 -0.008 -0.003 4.347 4208.808 710.837 0.053 0.005 -0.016 -0.5 -0.01 0 0.87
1 1.00 100 0.005 -8.686 4.932 -0.018 -0.031 0.004 4.347 4208.808 710.837 0.083 0.220 0.002 -0.5 -0.01 0 0.87
1 1.01 101 -0.043 -8.739 4.956 0.006 -0.039 -0.004 124.269 4043.766 860.739 0.131 0.272 -0.023 -0.5 -0.01 0 0.87
1 1.02 102 -0.101 -8.811 4.870 0.028 -0.036 -0.006 4.347 4013.785 755.808 0.190 0.345 0.065 -0.5 -0.01 0 0.87
1 1.03 103 -0.125 -8.830 4.889 0.040 -0.034 0.006 4.347 4013.785 755.808 0.215 0.365 0.049 -0.5 -0.01 0 0.87
1 1.04 104 -0.187 -8.730 4.932 0.041 -0.034 0.020 -55.464 4073.746 800.778 0.277 0.267 0.008 -0.5 -0.01 0 0.87
1 1.05 105 -0.038 -8.730 4.865 0.036 -0.042 0.021 4.347 4163.837 890.870 0.127 0.271 0.082 -0.5 -0.01 0 0.87
1 1.06 106 0.115 -8.600 4.951 0.032 -0.054 0.036 64.308 4148.697 875.729 -0.028 0.143 -0.001 -0.5 -0.01 0 0.87
1 1.07 107 0.077 -8.624 4.870 0.011 -0.054 0.037 64.308 4148.697 875.729 0.011 0.168 0.083 -0.5 -0.01 0 0.87
1 1.08 108 0.244 -8.572 4.942 -0.012 -0.056 0.039 49.318 4133.707 860.739 -0.156 0.116 0.012 -0.5 -0.01 0 0.87
1 1.09 109 0.244 -8.595 4.966 -0.031 -0.041 0.045 64.308 4178.828 875.729 -0.155 0.140 -0.012 -0.5 -0.01 0 0.87
1 1.10 110 0.359 -8.528 4.956 -0.027 -0.001 0.037 64.308 4178.828 875.729 -0.270 0.072 -0.004 -0.5 -0.01 0 0.87
1 1.11 111 0.584 -8.605 4.918 -0.032 0.016 0.029 -55.464 4028.775 800.778 -0.494 0.148 0.034 -0.5 -0.01 0 0.87
1 1.12 112 0.316 -8.576 4.975 -0.022 0.051 0.014 19.337 4178.828 845.749 -0.225 0.118 -0.027 -0.5 -0.01 0 0.87
1 1.13 113 0.364 -8.624 5.090 -0.017 0.049 0.001 4.347 4163.837 830.759 -0.274 0.166 -0.142 -0.5 -0.01 0 0.87
1 1.14 114 0.316 -8.591 4.994 -0.019 0.048 -0.016 4.347 4163.837 830.759 -0.226 0.132 -0.046 -0.5 -0.01 0 0.87
1 1.15 115 0.254 -8.600 4.990 -0.017 0.035 -0.019 -10.493 4253.779 845.749 -0.162 0.142 -0.041 -0.5 -0.01 0 0.87
1 1.16 116 0.163 -8.552 4.956 -0.016 0.020 -0.028 -10.493 4148.697 875.729 -0.069 0.094 -0.008 -0.5 -0.01 0 0.87
1 1.17 117 0.182 -8.591 4.999 -0.008 0.006 -0.022 -10.493 4148.697 875.729 -0.086 0.132 -0.051 -0.5 -0.01 0 0.87
1 1.18 118 -0.019 -8.471 4.985 -0.018 0.010 -0.015 4.347 4238.789 710.837 0.117 0.013 -0.037 -0.5 -0.01 0 0.87
1 1.19 119 -0.048 -8.370 4.860 -0.030 0.007 -0.019 4.347 4238.789 710.837 0.147 -0.088 0.088 -0.5 -0.01 0 0.87
1 1.20 120 -0.235 -8.466 4.841 -0.045 -0.007 0.004 -55.464 4073.746 845.749 0.334 0.006 0.105 -0.5 -0.01 0 0.87
1 1.21 121 -0.215 -8.576 4.851 -0.039 -0.007 -0.002 -55.464 4073.746 845.749 0.313 0.115 0.093 -0.5 -0.01 0 0.87
1 1.22 122 -0.230 -8.667 4.880 -0.044 -0.016 0.011 79.298 4163.837 785.788 0.325 0.205 0.063 -0.5 -0.01 0 0.87
1 1.23 123 -0.287 -8.643 4.942 -0.056 -0.028 0.022 -115.575 4178.828 875.729 0.380 0.180 -0.002 -0.5 -0.01 0 0.87
1 1.24 124 -0.168 -8.653 4.966 -0.048 -0.050 0.037 -115.575 4178.828 875.729 0.257 0.187 -0.030 -0.5 -0.01 0 0.87
1 1.25 125 -0.153 -8.667 5.066 -0.036 -0.056 0.044 -85.594 4028.775 800.778 0.240 0.200 -0.133 -0.5 -0.01 0 0.87
1 1.26 126 -0.024 -8.706 4.942 -0.007 -0.061 0.049 -85.594 4028.775 800.778 0.109 0.237 -0.010 -0.5 -0.01 0 0.87
1 1.27 127 0.273 -8.806 5.052 0.048 -0.058 0.052 -10.493 4223.798 770.798 -0.191 0.339 -0.119 -0.5 -0.01 0 0.87
1 1.28 128 0.340 -8.859 5.157 0.074 -0.040 0.042 -10.493 4223.798 770.798 -0.258 0.394 -0.219 -0.5 -0.01 0 0.87
1 1.29 129 0.340 -8.844 5.100 0.096 -0.026 0.031 49.318 4283.759 785.788 -0.257 0.384 -0.154 -0.5 -0.01 0 0.87
1 1.30 130 0.493 -8.586 5.062 0.087 -0.006 0.033 -25.483 4088.736 890.870 -0.410 0.131 -0.108 -0.5 -0.01 0 0.87
1 1.31 131 0.589 -8.552 5.014 0.053 0.009 0.027 -25.483 4088.736 890.870 -0.505 0.101 -0.053 -0.5 -0.01 0 0.87
1 1.32 132 0.445 -8.414 5.109 0.020 0.012 0.017 4.347 4283.759 785.788 -0.360 -0.034 -0.142 -0.5 -0.01 0 0.87
1 1.33 133 0.225 -8.452 4.966 -0.012 0.019 0.003 4.347 4283.759 785.788 -0.138 0.006 0.005 -0.5 -0.01 0 0.87
1 1.34 134 0.206 -8.552 5.009 -0.061 0.008 0.007 -100.584 4043.766 935.840 -0.117 0.107 -0.039 -0.5 -0.01 0 0.87
1 1.35 135 0.120 -8.447 4.985 -0.095 -0.002 0.011 -100.584 4043.766 935.840 -0.030 -0.001 -0.019 -0.5 -0.01 0 0.87
1 1.36 136 -0.029 -8.557 4.985 -0.129 -0.005 -0.001 64.308 4103.727 845.749 0.118 0.105 -0.025 -0.5 -0.01 0 0.87
1 1.37 137 -0.057 -8.682 4.904 -0.141 -0.021 -0.001 19.337 4073.746 725.827 0.147 0.224 0.047 -0.5 -0.01 0 0.87
1 1.38 138 -0.211 -8.816 4.942 -0.130 -0.038 -0.004 19.337 4073.746 725.827 0.300 0.353 -0.001 -0.5 -0.01 0 0.87
1 1.39 139 -0.148 -8.816 4.942 -0.072 -0.040 0.012 -10.493 4103.727 770.798 0.239 0.348 -0.009 -0.5 -0.01 0 0.87
1 1.40 140 -0.067 -8.897 5.028 -0.019 -0.047 0.019 -10.493 4103.727 770.798 0.158 0.426 -0.101 -0.5 -0.01 0 0.87
1 1.41 141 -0.077 -8.849 5.071 0.040 -0.039 0.021 -100.584 4163.837 860.739 0.167 0.377 -0.146 -0.5 -0.01 0 0.87
1 1.42 142 0.072 -8.744 5.215 0.075 -0.023 0.040 19.337 4148.697 875.729 0.018 0.276 -0.282 -0.5 -0.01 0 0.87
1 1.43 143 0.053 -8.696 5.076 0.075 -0.025 0.037 19.337 4028.775 845.749 0.034 0.232 -0.136 -0.5 -0.01 0 0.87
1 1.44 144 0.287 -8.672 5.138 0.067 -0.030 0.036 -10.493 4418.821 725.827 -0.202 0.212 -0.192 -0.5 -0.01 0 0.87
1 1.45 145 0.192 -8.629 4.999 0.047 -0.020 0.052 -10.493 4418.821 725.827 -0.107 0.173 -0.047 -0.5 -0.01 0 0.87
1 1.46 146 0.249 -8.648 5.143 0.038 -0.012 0.042 -55.464 4103.727 725.827 -0.166 0.195 -0.186 -0.5 -0.01 0 0.87
1 1.47 147 0.263 -8.567 4.999 0.027 -0.015 0.044 -55.464 4103.727 725.827 -0.182 0.116 -0.037 -0.5 -0.01 0 0.87
1 1.48 148 0.168 -8.562 5.052 0.007 -0.012 0.037 64.308 4073.746 845.749 -0.086 0.113 -0.087 -0.5 -0.01 0 0.87
1 1.49 149 0.364 -8.648 5.277 -0.029 0.015 0.028 49.318 4088.736 785.788 -0.285 0.201 -0.309 -0.5 -0.01 0 0.87
1 1.50 150 0.235 -8.629 5.239 -0.056 0.028 0.027 -10.493 4178.828 695.847 -0.156 0.182 -0.271 -0.5 -0.01 0 0.87
1 1.51 151 0.120 -8.682 5.133 -0.070 0.045 0.023 -160.545 4073.746 800.778 -0.043 0.233 -0.168 -0.5 -0.01 0 0.87
1 1.52 152 0.172 -8.643 5.153 -0.091 0.062 0.021 -160.545 4073.746 800.778 -0.098 0.193 -0.191 -0.5 -0.01 0 0.87
1 1.53 153 0.134 -8.552 5.109 -0.091 0.051 0.011 79.298 4238.789 755.808 -0.062 0.099 -0.152 -0.5 -0.01 0 0.87
1 1.54 154 0.148 -8.615 4.990 -0.054 0.050 0.015 79.298 4238.789 755.808 -0.078 0.159 -0.037 -0.5 -0.01 0 0.87
1 1.55 155 0.072 -8.490 5.018 -0.015 0.049 0.010 79.298 4133.707 860.739 -0.004 0.032 -0.068 -0.5 -0.01 0 0.87
1 1.56 156 -0.024 -8.466 5.234 0.057 0.036 0.009 19.337 4073.746 770.798 0.087 0.011 -0.280 -0.5 -0 0 0.87
1 1.57 157 0.086 -8.600 5.191 0.070 0.029 0.003 -175.536 4208.808 860.739 -0.025 0.148 -0.231 -0.5 -0 0 0.87
1 1.58 158 0.024 -8.500 5.172 0.069 0.020 0.007 124.269 4133.707 830.759 0.036 0.052 -0.204 -0.5 -0 0 0.87
1 1.59 159 0.129 -8.437 5.071 0.075 0.002 0.014 124.269 4133.707 830.759 -0.071 -0.006 -0.096 -0.5 -0 0 0.87
1 1.60 160 0.043 -8.495 4.990 0.078 -0.012 0.009 64.308 4028.775 800.778 0.014 0.056 -0.008 -0.5 -0 0 0.87
1 1.61 161 -0.034 -8.505 5.081 0.116 -0.036 0.009 64.308 4028.775 800.778 0.090 0.070 -0.091 -0.5 -0 0 0.87
1 1.62 162 0.029 -8.754 5.038 0.115 -0.044 0.010 -10.493 4223.798 845.749 0.029 0.324 -0.039 -0.49 -0 0 0.87
1 1.63 163 -0.115 -8.648 5.105 0.113 -0.038 0.000 4.347 4163.837 755.808 0.174 0.225 -0.096 -0.49 -0 0 0.87
1 1.64 164 0.005 -8.648 5.186 0.098 -0.012 0.001 -10.493 4103.727 770.798 0.057 0.235 -0.160 -0.49 -0 0 0.87
1 1.65 165 0.038 -8.686 5.148 0.075 0.019 0.012 -25.483 4208.808 755.808 0.024 0.278 -0.114 -0.49 -0 0 0.87
1 1.66 166 0.215 -8.524 5.176 0.046 0.028 0.006 -25.483 4208.808 755.808 -0.155 0.119 -0.136 -0.49 -0 0 0.87
1 1.67 167 0.139 -8.394 5.172 0.020 0.038 0.014 -55.464 4148.697 770.798 -0.079 -0.007 -0.127 -0.49 -0 0 0.87
1 1.68 168 0.120 -8.332 4.985 -0.022 0.025 0.017 -55.464 4148.697 770.798 -0.062 -0.068 0.062 -0.49 -0 0 0.87
1 1.69 169 0.148 -8.356 5.009 -0.018 0.014 0.040 94.289 4223.798 845.749 -0.092 -0.044 0.039 -0.49 -0 0 0.87
1 1.70 170 0.014 -8.452 5.004 -0.010 -0.009 0.035 124.269 4133.707 755.808 0.039 0.052 0.044 -0.49 -0 0 0.87
1 1.71 171 0.235 -8.595 5.105 0.030 -0.026 0.038 -10.493 4223.798 620.746 -0.182 0.196 -0.056 -0.49 -0 0 0.87
1 1.72 172 0.139 -8.543 5.057 0.039 -0.030 0.034 -70.454 4163.837 785.788 -0.086 0.146 -0.004 -0.49 -0 0 0.87
1 1.73 173 0.101 -8.734 5.133 0.051 -0.019 0.040 -70.454 4163.837 785.788 -0.047 0.340 -0.076 -0.49 -0 0 0.87
1 1.74 174 0.139 -8.581 5.057 0.057 -0.001 0.031 49.318 4088.736 710.837 -0.087 0.190 0.005 -0.49 -0 0 0.87
1 1.75 175 0.091 -8.725 5.090 0.066 0.001 0.029 49.318 4088.736 710.837 -0.040 0.336 -0.024 -0.49 -0 0 0.87
1 1.76 176 -0.115 -8.528 5.186 0.077 0.001 0.013 -25.483 4208.808 755.808 0.164 0.143 -0.114 -0.49 -0 0 0.87
1 1.77 177 -0.192 -8.385 5.071 0.055 0.006 -0.005 -25.483 4043.766 710.837 0.241 0.004 0.008 -0.49 -0 0 0.87
1 1.78 178 -0.072 -8.222 5.162 0.017 -0.002 0.006 4.347 4313.740 785.788 0.119 -0.154 -0.074 -0.49 -0 0 0.87
1 1.79 179 -0.024 -8.342 5.009 -0.003 -0.010 0.007 64.308 4223.798 695.847 0.070 -0.032 0.082 -0.49 -0 0 0.87
1 1.80 180 -0.091 -8.409 5.066 -0.028 -0.037 0.018 64.308 4223.798 695.847 0.136 0.035 0.024 -0.49 -0 0 0.87
1 1.81 181 0.010 -8.634 5.004 -0.033 -0.052 0.032 -55.464 4148.697 770.798 0.035 0.260 0.086 -0.49 -0 0 0.87
1 1.82 182 0.139 -8.538 5.109 -0.042 -0.066 0.042 -55.464 4148.697 770.798 -0.094 0.163 -0.021 -0.49 -0 0 0.87
1 1.83 183 0.187 -8.476 5.138 -0.045 -0.074 0.053 49.318 4163.837 710.837 -0.142 0.099 -0.052 -0.49 -0 0 0.87
1 1.84 184 0.254 -8.581 5.287 -0.044 -0.059 0.051 94.289 4223.798 725.827 -0.208 0.203 -0.203 -0.49 -0 0 0.87
1 1.85 185 0.306 -8.505 5.220 -0.027 -0.039 0.047 94.289 4223.798 725.827 -0.261 0.125 -0.138 -0.49 -0 0 0.87
1 1.86 186 0.168 -8.414 5.205 -0.004 0.005 0.050 -115.575 4178.828 695.847 -0.123 0.035 -0.123 -0.49 -0 0 0.87
1 1.87 187 0.225 -8.418 5.215 0.010 0.048 0.030 -115.575 4178.828 695.847 -0.183 0.041 -0.130 -0.49 -0 0 0.87
1 1.88 188 0.225 -8.442 5.071 0.034 0.059 0.017 -145.555 4133.707 785.788 -0.185 0.066 0.016 -0.49 -0 0 0.87
1 1.89 189 0.187 -8.356 4.951 0.051 0.061 0.007 -145.555 4133.707 785.788 -0.149 -0.018 0.140 -0.49 -0 0 0.87
1 1.90 190 0.048 -8.476 4.994 0.036 0.034 0.001 49.318 4088.736 755.808 -0.012 0.105 0.101 -0.49 -0 0 0.87
1 1.91 191 0.034 -8.452 5.224 0.034 0.005 -0.005 -10.493 4223.798 620.746 0.001 0.083 -0.124 -0.49 -0 0 0.87
1 1.92 192 -0.014 -8.524 5.109 0.021 -0.018 -0.017 -10.493 4223.798 620.746 0.050 0.158 -0.006 -0.49 -0 0 0.87
1 1.93 193 0.043 -8.442 5.047 -0.001 -0.045 -0.004 -55.464 4148.697 770.798 -0.004 0.079 0.062 -0.49 -0 0 0.87
1 1.94 194 0.072 -8.543 5.176 -0.030 -0.036 0.007 -55.464 4148.697 770.798 -0.030 0.180 -0.067 -0.49 -0 0 0.87
1 1.95 195 0.062 -8.557 5.181 -0.067 -0.017 0.014 -85.594 4148.697 695.847 -0.021 0.194 -0.074 -0.49 -0 0 0.87
1 1.96 196 -0.086 -8.600 5.167 -0.089 -0.012 0.026 -85.594 4148.697 695.847 0.128 0.234 -0.063 -0.49 -0 0 0.87
1 1.97 197 -0.048 -8.552 5.076 -0.090 0.008 0.035 -25.483 4013.785 860.739 0.087 0.183 0.022 -0.49 -0 0 0.87
1 1.98 198 -0.005 -8.533 5.148 -0.066 0.011 0.045 244.341 4223.798 800.778 0.041 0.161 -0.055 -0.49 -0 0 0.87
1 1.99 199 0.024 -8.648 5.081 -0.043 0.013 0.042 244.341 4223.798 800.778 0.009 0.273 0.008 -0.49 -0 0 0.87
1 2.00 200 0.034 -8.686 5.172 -0.038 0.009 0.023 -70.454 4088.736 860.739 -0.007 0.308 -0.088 -0.49 -0 0 0.87
1 2.01 201 0.139 -8.710 5.157 -0.022 0.001 0.027 -70.454 4088.736 860.739 -0.113 0.331 -0.075 -0.49 -0 0 0.87
1 2.02 202 0.086 -8.634 5.224 -0.003 -0.015 0.005 -25.483 4208.808 680.856 -0.060 0.254 -0.143 -0.49 -0 0 0.87
1 2.03 203 0.048 -8.648 5.263 -0.018 0.002 0.007 -25.483 4208.808 680.856 -0.022 0.269 -0.181 -0.49 -0 0 0.87
1 2.04 204 0.139 -8.562 5.229 -0.002 -0.004 -0.003 49.318 4133.707 710.837 -0.111 0.183 -0.147 -0.49 -0 0 0.87
1 2.05 205 0.043 -8.610 5.181 -0.005 -0.005 0.001 -25.483 4088.736 755.808 -0.015 0.231 -0.098 -0.49 -0 0 0.87
1 2.06 206 0.148 -8.509 5.287 -0.019 0.008 0.002 -25.483 4088.736 755.808 -0.119 0.131 -0.203 -0.49 -0 0 0.87
1 2.07 207 0.053 -8.457 5.224 -0.037 0.010 0.015 -70.454 4208.808 785.788 -0.023 0.079 -0.140 -0.49 -0 0 0.87
1 2.08 208 -0.034 -8.346 5.162 -0.072 0.019 0.026 4.347 4133.707 710.837 0.061 -0.033 -0.080 -0.49 -0 -0 0.87
1 2.09 209 -0.168 -8.351 5.148 -0.101 0.011 0.044 4.347 4283.759 710.837 0.192 -0.030 -0.069 -0.49 -0 -0 0.87
1 2.10 210 -0.125 -8.275 4.951 -0.115 0.012 0.043 4.347 4283.759 710.837 0.144 -0.110 0.121 -0.49 -0 0 0.87
1 2.11 211 -0.034 -8.481 5.148 -0.094 -0.001 0.054 -100.584 4163.837 890.870 0.049 0.091 -0.082 -0.49 -0 -0 0.87
1 2.12 212 -0.014 -8.414 5.172 -0.054 -0.013 0.048 49.318 4043.766 785.788 0.026 0.021 -0.111 -0.49 -0 0 0.87
1 2.13 213 -0.081 -8.409 5.186 -0.036 -0.019 0.046 49.318 4043.766 785.788 0.090 0.015 -0.128 -0.49 -0 0 0.87
1 2.14 214 -0.091 -8.500 5.167 -0.008 -0.010 0.045 19.337 4103.727 800.778 0.097 0.105 -0.111 -0.49 -0 0 0.87
1 2.15 215 -0.005 -8.509 5.229 0.016 -0.010 0.025 49.318 4208.808 755.808 0.006 0.117 -0.169 -0.49 -0 0 0.87
1 2.16 216 0.014 -8.447 5.258 0.000 0.011 0.017 -25.483 4133.707 755.808 -0.015 0.056 -0.195 -0.49 -0 0 0.87
1 2.17 217 -0.005 -8.524 5.224 -0.016 0.014 0.007 -25.483 4133.707 755.808 0.004 0.135 -0.159 -0.49 -0 0 0.87
1 2.18 218 0.010 -8.308 5.172 -0.016 0.023 -0.002 79.298 4043.766 755.808 -0.011 -0.080 -0.105 -0.49 -0 0 0.87
1 2.19 219 -0.038 -8.447 5.181 -0.010 0.007 -0.003 4.347 4133.707 635.736 0.037 0.059 -0.113 -0.49 -0 0 0.87
1 2.20 220 -0.096 -8.342 5.047 -0.017 -0.017 0.007 4.347 4133.707 635.736 0.095 -0.046 0.022 -0.49 -0 0 0.87
1 2.21 221 -0.101 -8.533 5.085 -0.041 -0.031 0.002 -10.493 4178.828 665.866 0.100 0.146 -0.016 -0.49 -0 0 0.87
1 2.22 222 0.081 -8.686 5.023 -0.051 -0.045 0.027 124.269 4043.766 890.870 -0.081 0.297 0.042 -0.49 -0 0 0.87
1 2.23 223 0.024 -8.710 5.071 -0.042 -0.047 0.035 -70.454 4088.736 710.837 -0.023 0.319 -0.009 -0.49 -0 0 0.87
1 2.24 224 0.192 -8.792 5.124 -0.020 -0.040 0.036 -70.454 4088.736 710.837 -0.190 0.400 -0.063 -0.49 -0 0 0.87
1 2.25 225 -0.062 -8.864 5.129 0.013 -0.019 0.046 19.337 4103.727 770.798 0.064 0.471 -0.068 -0.49 -0 0 0.87
1 2.26 226 0.043 -8.888 5.234 0.031 -0.012 0.056 -70.454 4283.759 785.788 -0.044 0.496 -0.172 -0.49 -0 0 0.87
1 2.27 227 0.014 -8.667 5.263 0.015 0.024 0.056 -70.454 4283.759 785.788 -0.019 0.277 -0.198 -0.49 -0 0 0.87
1 2.28 228 -0.077 -8.686 5.066 0.002 0.058 0.052 49.318 4238.789 755.808 0.069 0.298 -0.000 -0.49 -0 0 0.87
1 2.29 229 0.077 -8.567 5.038 -0.021 0.060 0.042 19.337 4103.727 725.827 -0.090 0.179 0.030 -0.49 0 0 0.87
1 2.30 230 -0.072 -8.682 5.076 -0.018 0.074 0.039 49.318 4208.808 635.736 0.047 0.293 -0.010 -0.49 0 0 0.87
1 2.31 231 -0.057 -8.562 5.014 -0.014 0.061 0.035 49.318 4208.808 635.736 0.027 0.173 0.052 -0.49 0 0 0.87
1 2.32 232 0.019 -8.634 4.942 -0.011 0.024 0.027 -10.493 4103.727 845.749 -0.054 0.244 0.123 -0.49 0 0 0.87
1 2.33 233 -0.024 -8.533 5.004 0.017 -0.003 0.027 -55.464 4028.775 770.798 -0.012 0.144 0.061 -0.49 0 0 0.87
1 2.34 234 0.168 -8.533 5.157 0.035 -0.023 0.038 -55.464 4028.775 770.798 -0.205 0.145 -0.091 -0.49 0 0 0.87
1 2.35 235 0.067 -8.658 5.205 0.032 -0.020 0.039 94.289 4178.828 725.827 -0.105 0.271 -0.136 -0.49 0 0 0.87
1 2.36 236 0.244 -8.725 5.253 0.020 -0.006 0.046 -70.454 4133.707 605.755 -0.282 0.340 -0.180 -0.49 0 0 0.87
1 2.37 237 0.201 -8.648 5.205 0.004 0.027 0.055 4.347 4163.837 755.808 -0.243 0.267 -0.126 -0.49 0 0 0.87
1 2.38 238 0.268 -8.433 5.119 -0.004 0.050 0.055 4.347 4163.837 755.808 -0.314 0.053 -0.038 -0.49 0 0 0.87
1 2.39 239 0.172 -8.548 5.157 0.003 0.075 0.061 139.259 4148.697 770.798 -0.223 0.168 -0.075 -0.49 0 0 0.87
1 2.40 240 0.158 -8.457 5.071 0.011 0.089 0.042 124.269 4163.837 680.856 -0.214 0.078 0.012 -0.49 0 0 0.87
1 2.41 241 0.110 -8.476 5.095 0.006 0.094 0.039 124.269 4163.837 680.856 -0.171 0.098 -0.010 -0.49 0 0 0.87
1 2.42 242 0.010 -8.471 5.014 -0.015 0.076 0.018 4.347 4088.736 755.808 -0.076 0.095 0.073 -0.49 0 0 0.87
1 2.43 243 0.072 -8.351 4.999 -0.051 0.055 0.013 -10.493 4148.697 800.778 -0.142 -0.024 0.088 -0.49 0 0 0.87
1 2.44 244 0.072 -8.500 5.124 -0.069 0.033 0.003 64.308 4178.828 875.729 -0.146 0.121 -0.042 -0.49 0 -0 0.87
1 2.45 245 -0.101 -8.576 4.994 -0.078 0.021 -0.013 64.308 4178.828 875.729 0.027 0.195 0.084 -0.49 0 -0 0.87
1 2.46 246 -0.215 -8.576 5.129 -0.077 0.009 -0.004 4.347 4238.789 710.837 0.142 0.192 -0.055 -0.49 0 -0 0.87
1 2.47 247 -0.125 -8.677 5.062 -0.037 0.011 0.010 -55.464 4103.727 665.866 0.051 0.290 0.008 -0.49 0 -0 0.87
1 2.48 248 -0.177 -8.725 5.081 -0.007 0.020 0.013 -55.464 4103.727 665.866 0.103 0.337 -0.013 -0.49 0 -0 0.87
1 2.49 249 -0.086 -8.586 5.133 0.038 0.016 0.027 -70.454 4088.736 635.736 0.010 0.199 -0.065 -0.49 0 -0 0.87
1 2.50 250 -0.182 -8.538 5.071 0.032 0.027 0.030 -70.454 4043.766 635.736 0.102 0.152 -0.000 -0.49 0.01 -0 0.87
1 2.51 251 -0.043 -8.404 5.033 0.014 0.041 0.052 -70.454 4043.766 635.736 -0.040 0.020 0.042 -0.49 0.01 -0 0.87
1 2.52 252 -0.158 -8.394 5.038 -0.060 0.060 0.043 64.308 4223.798 800.778 0.064 0.012 0.038 -0.49 0.01 -0 0.87
1 2.53 253 -0.187 -8.457 5.009 -0.077 0.050 0.053 94.289 4103.727 545.794 0.087 0.072 0.063 -0.49 0.01 -0 0.87
1 2.54 254 -0.201 -8.581 4.994 -0.058 0.024 0.053 -25.483 4088.736 755.808 0.095 0.194 0.073 -0.49 0.01 -0 0.87
1 2.55 255 -0.158 -8.710 5.062 -0.035 0.021 0.043 -25.483 4088.736 755.808 0.047 0.321 0.002 -0.49 0.01 -0 0.87
1 2.56 256 -0.163 -8.653 5.119 -0.021 0.028 0.031 139.259 4148.697 695.847 0.047 0.262 -0.057 -0.49 0.01 -0 0.87
1 2.57 257 0.038 -8.667 5.076 -0.046 0.039 0.034 -25.483 4208.808 830.759 -0.156 0.276 -0.015 -0.49 0.01 -0 0.87
1 2.58 258 -0.101 -8.672 5.090 -0.079 0.043 0.036 -25.483 4208.808 830.759 -0.020 0.280 -0.031 -0.49 0.01 -0 0.87
1 2.59 259 -0.196 -8.634 5.186 -0.074 0.003 0.029 19.337 4223.798 800.778 0.070 0.236 -0.136 -0.49 0.01 -0 0.87
1 2.60 260 -0.196 -8.586 5.311 -0.053 -0.030 0.039 -70.454 4088.736 710.837 0.068 0.186 -0.264 -0.49 0.01 -0 0.87
1 2.61 261 -0.168 -8.672 5.109 -0.014 -0.036 0.042 94.289 4103.727 770.798 0.037 0.271 -0.065 -0.49 0.01 -0 0.87
1 2.62 262 -0.115 -8.605 5.052 -0.004 -0.020 0.040 94.289 4103.727 770.798 -0.017 0.204 -0.007 -0.49 0.01 -0 0.87
1 2.63 263 -0.235 -8.567 5.186 -0.026 0.009 0.042 19.337 4178.828 725.827 0.101 0.166 -0.141 -0.49 0.01 -0 0.87
1 2.64 264 -0.249 -8.672 5.148 -0.030 0.040 0.053 -25.483 4088.736 890.870 0.110 0.271 -0.103 -0.49 0.01 -0 0.87
1 2.65 265 -0.263 -8.653 5.100 -0.026 0.056 0.058 -25.483 4088.736 890.870 0.119 0.252 -0.056 -0.49 0.01 -0 0.87
1 2.66 266 -0.393 -8.720 4.980 0.007 0.038 0.062 4.347 4133.707 785.788 0.234 0.318 0.063 -0.49 0.01 -0 0.87
1 2.67 267 -0.259 -8.725 5.105 0.025 0.014 0.064 19.337 4178.828 770.798 0.093 0.324 -0.061 -0.49 0.01 -0 0.87
1 2.68 268 -0.225 -8.739 5.167 0.034 0.004 0.057 -10.493 4028.775 725.827 0.054 0.340 -0.120 -0.49 0.01 -0 0.87
1 2.69 269 -0.163 -8.773 5.224 0.034 0.020 0.062 -10.493 4028.775 725.827 -0.013 0.376 -0.174 -0.49 0.01 -0 0.87
1 2.70 270 -0.086 -8.615 5.229 0.016 0.027 0.056 19.337 4073.746 695.847 -0.095 0.221 -0.175 -0.49 0.01 -0 0.87
1 2.71 271 -0.120 -8.519 5.296 -0.005 0.055 0.051 139.259 4253.779 695.847 -0.066 0.127 -0.239 -0.49 0.01 -0 0.87
1 2.72 272 -0.120 -8.375 5.334 -0.019 0.055 0.056 139.259 4253.779 695.847 -0.072 -0.016 -0.275 -0.49 0.01 -0 0.87
1 2.73 273 -0.172 -8.461 5.234 -0.026 0.068 0.062 94.289 4343.720 800.778 -0.025 0.071 -0.174 -0.49 0.01 -0 0.87
1 2.74 274 -0.110 -8.351 4.951 -0.020 0.068 0.058 124.269 4208.808 785.788 -0.100 -0.038 0.109 -0.49 0.01 0 0.87
1 2.75 275 -0.115 -8.303 4.913 -0.006 0.065 0.061 79.298 4283.759 755.808 -0.101 -0.086 0.148 -0.49 0.01 0 0.87
1 2.76 276 -0.029 -8.356 4.927 0.035 0.067 0.062 79.298 4283.759 755.808 -0.193 -0.032 0.135 -0.49 0.01 0 0.87
1 2.77 277 0.010 -8.414 4.990 0.068 0.086 0.047 49.318 4208.808 830.759 -0.237 0.028 0.077 -0.49 0.01 0 0.87
1 2.78 278 -0.196 -8.442 5.033 0.055 0.109 0.043 4.347 4163.837 830.759 -0.037 0.060 0.039 -0.49 0.01 -0 0.87
1 2.79 279 -0.340 -8.476 4.999 0.050 0.108 0.042 4.347 4163.837 830.759 0.100 0.096 0.077 -0.49 0.01 -0 0.87
1 2.80 280 -0.259 -8.476 5.076 0.034 0.084 0.029 -55.464 4148.697 665.866 0.010 0.099 0.005 -0.49 0.01 -0 0.87
1 2.81 281 -0.263 -8.519 5.038 0.003 0.071 0.012 -145.555 4208.808 785.788 0.004 0.146 0.048 -0.49 0.02 -0 0.87
1 2.82 282 -0.321 -8.370 5.047 -0.029 0.080 0.013 94.289 4103.727 665.866 0.057 -0.002 0.039 -0.49 0.02 -0 0.87
1 2.83 283 -0.445 -8.227 4.918 -0.060 0.065 0.013 94.289 4103.727 665.866 0.178 -0.147 0.167 -0.49 0.02 -0 0.87
1 2.84 284 -0.532 -8.270 4.975 -0.072 0.055 0.002 154.399 4283.759 785.788 0.260 -0.106 0.106 -0.49 0.02 -0 0.87
1 2.85 285 -0.589 -8.337 4.956 -0.070 0.036 0.013 -55.464 4103.727 695.847 0.313 -0.041 0.120 -0.49 0.02 -0 0.87
1 2.86 286 -0.584 -8.485 4.841 -0.057 -0.012 0.012 -55.464 4103.727 695.847 0.304 0.105 0.231 -0.49 0.02 -0 0.87
1 2.87 287 -0.627 -8.514 4.813 -0.048 -0.025 0.034 49.318 4043.766 785.788 0.345 0.131 0.255 -0.49 0.02 -0 0.87
1 2.88 288 -0.484 -8.500 4.904 -0.058 -0.043 0.038 19.337 4223.798 725.827 0.195 0.113 0.158 -0.49 0.02 -0 0.87
1 2.89 289 -0.503 -8.701 5.129 -0.043 -0.039 0.058 -55.464 4253.779 845.749 0.211 0.312 -0.072 -0.49 0.02 -0 0.87
1 2.90 290 -0.464 -8.715 5.105 -0.063 -0.014 0.068 -55.464 4253.779 845.749 0.169 0.324 -0.051 -0.49 0.02 -0 0.87
1 2.91 291 -0.488 -8.835 5.167 -0.061 -0.028 0.054 -25.483 4088.736 830.759 0.188 0.442 -0.117 -0.49 0.02 -0 0.87
1 2.92 292 -0.450 -8.672 5.243 -0.108 -0.026 0.055 4.347 4163.837 710.837 0.145 0.276 -0.198 -0.49 0.02 -0 0.87
1 2.93 293 -0.407 -8.629 5.306 -0.136 -0.035 0.042 4.347 4163.837 710.837 0.099 0.229 -0.267 -0.49 0.02 -0 0.87
1 2.94 294 -0.292 -8.548 5.186 -0.189 -0.023 0.045 -10.493 4148.697 845.749 -0.018 0.143 -0.155 -0.49 0.02 -0 0.87
1 2.95 295 -0.311 -8.533 5.133 -0.219 0.001 0.035 -10.493 4148.697 845.749 -0.001 0.123 -0.113 -0.49 0.02 -0 0.87
1 2.96 296 -0.302 -8.543 5.066 -0.231 -0.004 0.035 19.337 4298.750 800.778 -0.015 0.115 -0.076 -0.49 0.02 -0 0.87
1 2.97 297 -0.134 -8.691 5.114 -0.224 0.020 0.029 19.337 4298.750 800.778 -0.184 0.254 -0.139 -0.5 0.02 -0 0.87
1 2.98 298 -0.158 -8.615 4.999 -0.208 0.032 0.026 79.298 4043.766 710.837 -0.162 0.169 -0.039 -0.5 0.02 -0 0.87
1 2.99 299 -0.287 -8.576 5.004 -0.190 0.046 0.030 79.298 4133.707 890.870 -0.035 0.122 -0.058 -0.5 0.02 -0 0.87
1 3.00 300 -0.268 -8.615 4.971 -0.147 0.045 0.038 79.298 4133.707 890.870 -0.058 0.153 -0.037 -0.5 0.02 -0 0.87
1 3.01 301 -0.225 -8.567 4.966 -0.108 0.026 0.032 154.399 4238.789 860.739 -0.106 0.100 -0.042 -0.5 0.02 -0 0.87
1 3.02 302 -0.211 -8.811 5.076 -0.062 0.008 0.035 154.399 4238.789 860.739 -0.123 0.340 -0.160 -0.5 0.02 -0 0.87
1 3.03 303 -0.359 -8.816 5.243 -0.001 0.013 0.027 4.347 4043.766 830.759 0.023 0.342 -0.332 -0.5 0.02 -0 0.87
1 3.04 304 -0.532 -8.835 5.229 0.023 0.034 0.013 4.347 4043.766 830.759 0.193 0.363 -0.315 -0.5 0.02 -0 0.87
1 3.05 305 -0.508 -8.710 5.406 0.007 0.043 0.019 94.289 4178.828 920.850 0.167 0.241 -0.488 -0.5 0.02 -0 0.87
1 3.06 306 -0.503 -8.777 5.454 -0.028 0.070 0.011 64.308 4223.798 875.729 0.158 0.310 -0.533 -0.5 0.02 -0 0.87
1 3.07 307 -0.546 -8.557 5.392 -0.083 0.109 0.013 64.308 4223.798 875.729 0.196 0.090 -0.470 -0.5 0.02 -0 0.87
1 3.08 308 -0.354 -8.294 5.229 -0.206 0.128 -0.007 124.269 4208.808 860.739 -0.002 -0.176 -0.312 -0.5 0.02 -0 0.87
1 3.09 309 -0.388 -8.346 5.167 -0.276 0.126 -0.008 124.269 4208.808 860.739 0.026 -0.129 -0.260 -0.5 0.02 -0 0.87
1 3.10 310 -0.364 -8.375 5.033 -0.267 0.102 0.000 94.289 4178.828 845.749 -0.007 -0.120 -0.161 -0.5 0.02 -0 0.87
1 3.11 311 -0.412 -8.466 4.889 -0.214 0.112 0.007 94.289 4178.828 845.749 0.036 -0.039 -0.035 -0.5 0.02 -0 0.86
1 3.12 312 -0.402 -8.370 4.779 -0.169 0.113 0.023 259.331 4043.766 785.788 0.022 -0.142 0.061 -0.5 0.02 -0 0.86
1 3.13 313 -0.259 -8.447 4.698 -0.114 0.091 0.005 94.289 4253.779 800.778 -0.128 -0.071 0.133 -0.5 0.02 -0 0.86
1 3.14 314 -0.306 -8.615 4.650 -0.039 0.093 0.001 94.289 4253.779 800.778 -0.082 0.093 0.174 -0.5 0.02 -0 0.86
1 3.15 315 -0.393 -8.825 4.587 0.044 0.094 -0.017 -55.464 4148.697 950.831 0.001 0.303 0.235 -0.5 0.02 -0 0.86
1 3.16 316 -0.354 -8.830 4.635 0.076 0.107 -0.022 -55.464 4148.697 950.831 -0.038 0.309 0.190 -0.5 0.03 -0 0.86
1 3.17 317 -0.579 -8.916 4.573 0.117 0.107 -0.028 229.351 4088.736 830.759 0.185 0.398 0.256 -0.5 0.03 -0 0.86
1 3.18 318 -0.651 -9.151 4.449 0.164 0.110 -0.034 -85.594 4103.727 845.749 0.252 0.641 0.395 -0.5 0.03 -0 0.86
1 3.19 319 -0.752 -8.806 4.334 0.164 0.116 -0.029 -10.493 4073.746 845.749 0.349 0.302 0.520 -0.5 0.03 -0.01 0.86
1 3.20 320 -0.723 -8.792 4.334 0.140 0.093 -0.023 -85.594 4178.828 920.850 0.315 0.293 0.529 -0.5 0.03 -0.01 0.86
1 3.21 321 -0.800 -8.485 4.429 0.088 0.085 -0.022 -85.594 4178.828 920.850 0.387 -0.009 0.440 -0.5 0.03 -0.01 0.87
1 3.22 322 -0.929 -8.476 4.549 0.002 0.048 0.017 4.347 4043.766 830.759 0.512 -0.016 0.324 -0.5 0.03 -0.01 0.87
1 3.23 323 -0.752 -8.481 4.559 -0.072 0.036 0.040 4.347 4043.766 830.759 0.329 -0.011 0.315 -0.5 0.03 -0.01 0.87
1 3.24 324 -0.699 -8.519 4.559 -0.188 0.041 0.081 94.289 4178.828 875.729 0.260 0.020 0.300 -0.5 0.03 -0.01 0.86
1 3.25 325 -0.694 -8.586 4.444 -0.217 0.020 0.093 94.289 4178.828 875.729 0.245 0.078 0.400 -0.5 0.03 -0.01 0.86
1 3.26 326 -0.560 -8.710 4.468 -0.207 -0.006 0.105 -70.454 4208.808 830.759 0.102 0.194 0.359 -0.5 0.03 -0.01 0.86
1 3.27 327 -0.498 -8.974 4.391 -0.145 -0.030 0.108 4.347 4208.808 860.739 0.032 0.449 0.420 -0.5 0.03 -0.01 0.86
1 3.28 328 -0.532 -9.074 4.487 -0.064 -0.036 0.087 4.347 4208.808 860.739 0.060 0.543 0.313 -0.5 0.03 -0.01 0.86
1 3.29 329 -0.699 -9.252 4.611 0.003 -0.029 0.060 79.298 4133.707 860.739 0.223 0.717 0.182 -0.5 0.03 -0.01 0.86
1 3.30 330 -0.709 -9.472 4.769 0.061 -0.031 0.021 79.298 4133.707 860.739 0.229 0.937 0.023 -0.5 0.03 -0 0.86
1 3.31 331 -0.919 -9.184 4.985 0.083 -0.035 -0.003 229.351 4043.766 830.759 0.439 0.651 -0.190 -0.5 0.03 -0 0.86
1 3.32 332 -0.900 -9.156 4.846 0.062 -0.052 -0.032 -25.483 4133.707 860.739 0.420 0.629 -0.040 -0.5 0.03 -0 0.86
1 3.33 333 -0.915 -8.912 4.851 0.035 -0.079 -0.056 139.259 4028.775 845.749 0.437 0.387 -0.041 -0.5 0.03 -0 0.86
1 3.34 334 -0.967 -8.907 4.836 0.006 -0.116 -0.074 64.308 4028.775 800.778 0.495 0.383 -0.024 -0.5 0.03 -0 0.86
1 3.35 335 -0.967 -8.888 4.607 0.011 -0.141 -0.087 64.308 4028.775 800.778 0.503 0.364 0.207 -0.5 0.03 -0 0.86
1 3.36 336 -1.101 -8.892 4.564 0.035 -0.187 -0.076 -55.464 4298.750 875.729 0.646 0.369 0.251 -0.5 0.03 -0 0.86
1 3.37 337 -1.020 -8.806 4.482 0.061 -0.287 -0.015 -55.464 4298.750 875.729 0.574 0.284 0.335 -0.5 0.03 -0 0.86
1 3.38 338 -0.958 -8.696 4.410 0.067 -0.352 0.023 4.347 4163.837 890.870 0.520 0.175 0.411 -0.5 0.03 -0 0.86
1 3.39 339 -0.948 -8.715 4.477 0.094 -0.376 0.076 4.347 4208.808 860.739 0.519 0.196 0.348 -0.5 0.03 -0 0.86
1 3.40 340 -0.824 -8.461 4.473 0.120 -0.364 0.130 -10.493 4103.727 875.729 0.407 -0.050 0.367 -0.5 0.03 -0 0.86
1 3.41 341 -0.986 -8.490 4.338 0.104 -0.368 0.158 19.337 4103.727 800.778 0.572 -0.016 0.510 -0.5 0.02 -0 0.86
1 3.42 342 -0.991 -8.672 4.291 0.082 -0.371 0.157 19.337 4103.727 800.778 0.577 0.170 0.565 -0.5 0.02 0 0.86
1 3.43 343 -0.958 -8.533 4.228 0.058 -0.381 0.176 169.390 4073.746 800.778 0.543 0.033 0.631 -0.5 0.02 0 0.86
1 3.44 344 -0.828 -8.816 4.281 0.084 -0.381 0.167 169.390 4073.746 800.778 0.412 0.318 0.582 -0.5 0.02 0 0.86
1 3.45 345 -0.876 -8.945 4.358 0.103 -0.384 0.150 169.390 4073.746 845.749 0.460 0.449 0.510 -0.5 0.02 0.01 0.87
1 3.46 346 -0.661 -9.017 4.449 0.086 -0.378 0.162 79.298 4133.707 830.759 0.247 0.524 0.424 -0.5 0.02 0.01 0.87
1 3.47 347 -0.508 -9.117 4.707 0.006 -0.316 0.181 124.269 4088.736 785.788 0.096 0.629 0.173 -0.5 0.02 0.01 0.87
1 3.48 348 -0.436 -9.046 4.985 -0.034 -0.266 0.207 79.298 4163.837 755.808 0.023 0.556 -0.106 -0.5 0.02 0.01 0.87
1 3.49 349 -0.263 -8.950 4.937 -0.095 -0.238 0.218 79.298 4163.837 755.808 -0.153 0.459 -0.062 -0.5 0.02 0.01 0.87
1 3.50 350 -0.421 -8.854 4.908 -0.128 -0.231 0.216 139.259 4073.746 725.827 -0.000 0.360 -0.040 -0.5 0.02 0.01 0.86
1 3.51 351 -0.335 -8.854 4.741 -0.139 -0.233 0.210 139.259 4073.746 725.827 -0.091 0.355 0.119 -0.5 0.02 0.01 0.86
1 3.52 352 -0.350 -8.519 4.573 -0.132 -0.225 0.191 139.259 4073.746 950.831 -0.082 0.014 0.277 -0.5 0.02 0.02 0.86
1 3.53 353 -0.302 -8.399 4.516 -0.108 -0.224 0.160 154.399 4163.837 710.837 -0.134 -0.111 0.325 -0.5 0.02 0.02 0.86
1 3.54 354 -0.493 -8.323 4.597 -0.072 -0.219 0.133 214.360 4028.775 980.811 0.054 -0.195 0.230 -0.5 0.01 0.02 0.86
1 3.55 355 -0.508 -8.375 4.573 -0.040 -0.218 0.098 169.390 4103.727 770.798 0.068 -0.144 0.251 -0.5 0.01 0.02 0.86
1 3.56 356 -0.589 -8.562 4.520 0.020 -0.242 0.075 169.390 4103.727 770.798 0.151 0.043 0.303 -0.5 0.01 0.02 0.86
1 3.57 357 -0.493 -8.500 4.654 0.075 -0.244 0.062 334.282 4133.707 635.736 0.058 -0.018 0.172 -0.5 0.01 0.02 0.86
1 3.58 358 -0.704 -8.696 4.611 0.099 -0.235 0.043 334.732 4134.756 636.335 0.274 0.182 0.222 -0.5 0.01 0.02 0.86
1 3.59 359 -0.670 -8.744 4.664 0.111 -0.244 0.023 304.751 4134.756 756.257 0.247 0.234 0.177 -0.5 0.01 0.02 0.86
1 3.60 360 -0.646 -8.686 4.851 0.099 -0.242 0.000 334.732 4164.737 831.358 0.231 0.181 -0.000 -0.5 0.01 0.02 0.86
1 3.61 361 -0.699 -8.734 4.908 0.071 -0.234 -0.019 334.732 4164.737 831.358 0.292 0.233 -0.050 -0.5 0.01 0.02 0.86
1 3.62 362 -0.441 -8.806 5.215 0.036 -0.222 -0.020 169.689 4149.747 771.248 0.054 0.311 -0.345 -0.5 0.01 0.02 0.86
1 3.63 363 -0.383 -8.854 5.382 0.030 -0.214 -0.016 169.689 4149.747 771.248 0.007 0.361 -0.507 -0.5 0.01 0.03 0.86
1 3.64 364 -0.230 -8.854 5.435 -0.009 -0.238 0.008 184.680 4134.756 711.287 -0.135 0.364 -0.554 -0.5 0.01 0.03 0.87
1 3.65 365 -0.125 -8.945 5.569 -0.101 -0.230 0.044 184.680 4134.756 711.287 -0.231 0.456 -0.686 -0.5 0.01 0.03 0.87
1 3.66 366 0.101 -8.912 5.497 -0.292 -0.210 0.085 244.791 4149.747 696.296 -0.448 0.419 -0.620 -0.5 0.01 0.03 0.86
1 3.67 367 0.158 -8.935 5.200 -0.339 -0.168 0.124 154.699 4089.786 786.238 -0.499 0.434 -0.338 -0.5 0 0.03 0.86
1 3.68 368 -0.125 -8.763 5.200 -0.233 -0.105 0.154 214.660 4149.747 666.316 -0.214 0.238 -0.379 -0.5 0 0.03 0.86
1 3.69 369 -0.158 -8.691 5.129 -0.169 -0.094 0.144 244.791 3999.844 666.316 -0.184 0.160 -0.319 -0.5 0 0.03 0.86
1 3.70 370 -0.536 -8.792 5.258 0.003 -0.105 0.127 244.791 3999.844 666.316 0.188 0.259 -0.451 -0.5 0 0.03 0.86
1 3.71 371 -0.670 -8.849 5.220 0.075 -0.108 0.108 19.787 4179.727 771.248 0.317 0.319 -0.407 -0.5 0 0.03 0.86
1 3.72 372 -0.776 -8.935 5.191 0.110 -0.121 0.085 19.787 4179.727 771.248 0.418 0.411 -0.369 -0.5 0 0.03 0.86
1 3.73 373 -0.785 -8.897 5.129 0.116 -0.118 0.065 319.742 4149.747 696.296 0.424 0.379 -0.296 -0.5 0 0.03 0.86
1 3.74 374 -0.728 -8.840 4.894 0.114 -0.120 0.044 259.781 4014.834 786.238 0.364 0.328 -0.050 -0.5 0 0.03 0.86
1 3.75 375 -0.503 -8.801 4.626 0.143 -0.125 0.046 259.781 4014.834 786.238 0.139 0.295 0.228 -0.5 0 0.03 0.86
1 3.76 376 -0.201 -8.505 4.271 0.227 -0.141 0.052 214.660 4104.776 621.345 -0.161 0.012 0.606 -0.5 0 0.03 0.86
1 3.77 377 -0.268 -8.418 4.070 0.284 -0.170 0.076 214.660 4104.776 621.345 -0.090 -0.065 0.824 -0.5 0 0.03 0.87
1 3.78 378 -0.239 -8.318 3.951 0.323 -0.203 0.094 244.791 3924.743 771.248 -0.116 -0.154 0.963 -0.5 0 0.03 0.87
1 3.79 379 -0.369 -8.169 3.788 0.366 -0.239 0.119 244.791 3924.743 771.248 0.015 -0.289 1.148 -0.5 0 0.03 0.87
1 3.80 380 -0.421 -8.246 3.702 0.382 -0.261 0.150 184.680 4044.815 756.257 0.069 -0.199 1.258 -0.5 0 0.03 0.87
1 3.81 381 -0.848 -8.337 3.615 0.386 -0.328 0.161 229.650 4044.815 756.257 0.495 -0.093 1.370 -0.5 0 0.04 0.87
1 3.82 382 -0.953 -8.514 3.783 0.369 -0.365 0.148 229.650 4044.815 756.257 0.600 0.099 1.226 -0.49 -0 0.04 0.87
1 3.83 383 -0.819 -8.667 3.836 0.275 -0.403 0.119 244.791 4224.848 846.349 0.471 0.277 1.216 -0.49 -0 0.04 0.87
1 3.84 384 -0.785 -8.725 3.783 0.174 -0.403 0.121 244.791 4224.848 846.349 0.443 0.342 1.282 -0.49 -0 0.04 0.87
1 3.85 385 -0.661 -8.782 3.687 0.083 -0.385 0.105 289.761 3999.844 546.244 0.324 0.403 1.384 -0.49 -0 0.04 0.87
1 3.86 386 -0.718 -8.878 3.663 0.021 -0.345 0.110 289.761 3999.844 546.244 0.388 0.497 1.406 -0.49 -0 0.04 0.87
1 3.87 387 -0.613 -8.931 3.922 -0.005 -0.331 0.100 244.791 4074.795 591.215 0.286 0.546 1.141 -0.49 -0.01 0.04 0.87
1 3.88 388 -0.474 -8.988 4.094 -0.031 -0.267 0.103 304.751 4239.838 531.254 0.152 0.599 0.962 -0.49 -0.01 0.04 0.87
1 3.89 389 -0.445 -8.902 4.233 -0.077 -0.242 0.085 304.751 4239.838 531.254 0.127 0.508 0.815 -0.49 -0.01 0.05 0.87
1 3.90 390 -0.378 -8.979 4.856 -0.092 -0.191 0.089 229.650 4134.756 456.303 0.064 0.579 0.183 -0.49 -0.01 0.05 0.87
1 3.91 391 -0.493 -8.543 6.077 -0.090 -0.066 0.104 349.722 4074.795 666.316 0.179 0.133 -1.054 -0.49 -0.01 0.05 0.87
1 3.92 392 -0.637 -8.533 6.469 -0.199 0.009 0.111 229.650 4089.786 606.355 0.316 0.122 -1.450 -0.49 -0.01 0.05 0.87
1 3.93 393 -0.503 -8.725 6.402 -0.442 0.055 0.113 229.650 4089.786 606.355 0.171 0.308 -1.394 -0.49 -0.01 0.05 0.87
1 3.94 394 0.206 -9.007 5.885 -0.707 0.039 0.120 304.751 4134.756 456.303 -0.549 0.571 -0.910 -0.5 -0.01 0.05 0.87
1 3.95 395 1.025 -9.481 5.378 -0.819 -0.010 0.115 259.781 4014.834 636.335 -1.374 1.016 -0.452 -0.5 -0.01 0.05 0.87
1 3.96 396 2.131 -9.773 4.592 -0.528 -0.006 0.068 259.781 4014.834 636.335 -2.487 1.275 0.275 -0.5 -0.01 0.05 0.86
1 3.97 397 1.906 -9.778 4.329 -0.075 0.123 0.077 289.761 4149.747 591.215 -2.267 1.255 0.494 -0.5 -0.01 0.05 0.86
1 3.98 398 0.900 -9.319 4.200 0.616 0.226 0.103 379.703 4089.786 711.287 -1.278 0.799 0.629 -0.5 -0.01 0.05 0.86
1 3.99 399 0.297 -9.055 4.382 0.859 0.159 0.092 334.732 4014.834 456.303 -0.681 0.562 0.493 -0.5 -0.01 0.05 0.86
1 4.00 400 -0.153 -8.509 4.607 0.929 0.097 0.060 334.732 4014.834 456.303 -0.236 0.052 0.330 -0.5 -0 0.05 0.87
1 4.01 401 -0.570 -8.270 4.731 0.827 0.072 0.018 289.761 4224.848 621.345 0.176 -0.148 0.271 -0.49 -0 0.05 0.87
1 4.02 402 -0.905 -7.983 4.846 0.586 0.067 -0.011 334.732 4044.815 606.355 0.507 -0.401 0.213 -0.49 -0 0.05 0.87
1 4.03 403 -1.398 -7.877 4.836 0.235 0.081 -0.034 334.732 4044.815 606.355 0.995 -0.483 0.261 -0.49 -0 0.05 0.87
1 4.04 404 -1.729 -7.983 4.832 0.090 0.087 -0.029 394.693 4104.776 546.244 1.319 -0.364 0.288 -0.49 -0 0.05 0.87
1 4.05 405 -2.399 -7.944 4.808 -0.079 0.016 0.023 349.722 4179.727 546.244 1.966 -0.394 0.323 -0.49 -0 0.05 0.87
1 4.06 406 -2.366 -7.959 4.616 -0.145 -0.036 0.028 229.650 4014.834 456.303 1.917 -0.384 0.507 -0.49 -0 0.05 0.87
1 4.07 407 -2.212 -7.767 4.501 -0.404 -0.209 0.085 229.650 4014.834 456.303 1.750 -0.587 0.602 -0.49 0 0.05 0.87
1 4.08 408 -1.935 -7.825 4.525 -0.544 -0.293 0.140 169.689 4104.776 516.264 1.462 -0.548 0.546 -0.49 0 0.05 0.87
1 4.09 409 -1.504 -7.810 4.741 -0.620 -0.336 0.207 154.699 4209.857 456.303 1.021 -0.586 0.291 -0.49 0 0.05 0.87
1 4.10 410 -0.915 -8.150 4.784 -0.636 -0.336 0.277 154.699 4209.857 456.303 0.422 -0.271 0.204 -0.5 -0 0.05 0.87
1 4.11 411 -0.335 -8.629 5.095 -0.559 -0.306 0.281 244.791 4149.747 486.283 -0.168 0.181 -0.153 -0.5 -0 0.05 0.87
1 4.12 412 0.804 -9.472 5.775 -0.264 -0.158 0.306 244.791 4074.795 591.215 -1.324 0.985 -0.902 -0.5 -0 0.06 0.86
1 4.13 413 1.058 -9.644 5.842 -0.152 -0.100 0.327 319.742 3999.844 546.244 -1.595 1.151 -0.982 -0.5 -0 0.06 0.86
1 4.14 414 1.810 -9.491 6.144 0.063 0.083 0.351 319.742 3999.844 546.244 -2.372 0.999 -1.284 -0.5 -0 0.06 0.86
1 4.15 415 1.801 -9.094 6.134 0.037 0.188 0.334 424.673 4029.825 516.264 -2.393 0.607 -1.269 -0.5 0 0.06 0.86
1 4.16 416 1.441 -8.414 6.206 0.012 0.249 0.317 379.703 4044.815 576.225 -2.067 -0.069 -1.338 -0.5 0 0.06 0.86
1 4.17 417 1.073 -7.997 5.794 0.021 0.234 0.234 379.703 4044.815 576.225 -1.714 -0.479 -0.917 -0.5 0 0.06 0.86
1 4.18 418 0.469 -7.930 5.421 0.174 0.113 0.081 469.644 4074.795 666.316 -1.121 -0.539 -0.533 -0.5 0 0.06 0.86
1 4.19 419 0.019 -7.935 5.258 0.301 0.041 -0.001 379.703 3939.733 636.335 -0.674 -0.524 -0.353 -0.5 0 0.06 0.86
1 4.20 420 -0.532 -8.155 5.033 0.362 -0.094 -0.094 319.742 4074.795 411.332 -0.110 -0.272 -0.072 -0.5 0 0.06 0.87
1 4.21 421 -0.809 -8.366 4.942 0.364 -0.160 -0.130 319.742 4074.795 411.332 0.182 -0.045 0.050 -0.5 0 0.06 0.87
1 4.22 422 -1.159 -8.581 5.282 0.324 -0.228 -0.168 559.735 4029.825 441.312 0.549 0.187 -0.262 -0.49 0 0.06 0.87
1 4.23 423 -1.235 -8.591 5.646 0.252 -0.267 -0.178 379.703 4089.786 351.221 0.645 0.210 -0.600 -0.49 0 0.06 0.87
1 4.24 424 -1.283 -8.663 5.928 0.092 -0.288 -0.182 379.703 4089.786 351.221 0.714 0.293 -0.862 -0.49 0 0.06 0.87
1 4.25 425 -0.986 -8.346 6.484 -0.200 -0.286 -0.140 334.732 4089.786 351.221 0.438 -0.019 -1.408 -0.49 0 0.06 0.87
1 4.26 426 -0.618 -8.380 6.431 -0.388 -0.278 -0.076 424.673 4104.776 366.361 0.088 0.012 -1.358 -0.49 -0 0.06 0.87
1 4.27 427 -0.038 -8.495 6.374 -0.520 -0.243 0.042 334.732 4044.815 501.273 -0.460 0.101 -1.340 -0.49 -0 0.06 0.87
1 4.28 428 0.196 -8.466 6.034 -0.528 -0.194 0.104 334.732 4044.815 501.273 -0.685 0.055 -1.029 -0.49 -0 0.06 0.87
1 4.29 429 0.321 -8.576 5.895 -0.462 -0.162 0.141 214.660 3999.844 546.244 -0.804 0.147 -0.920 -0.5 -0 0.06 0.87
1 4.30 430 0.302 -8.370 5.861 -0.345 -0.143 0.129 379.703 3939.733 456.303 -0.782 -0.075 -0.912 -0.5 -0.01 0.06 0.87
1 4.31 431 0.479 -8.481 5.923 -0.193 -0.151 0.109 379.703 3939.733 456.303 -0.956 0.027 -0.990 -0.5 -0.01 0.06 0.86
1 4.32 432 0.651 -8.485 6.038 0.036 -0.146 0.061 214.660 4179.727 546.244 -1.122 0.029 -1.108 -0.5 -0.01 0.06 0.86
1 4.33 433 0.790 -8.509 6.129 0.148 -0.113 0.042 319.742 4074.795 486.283 -1.251 0.057 -1.190 -0.5 -0.01 0.06 0.87
1 4.34 434 0.886 -8.409 5.885 0.223 -0.043 0.006 319.742 4074.795 486.283 -1.334 -0.033 -0.929 -0.5 -0.01 0.06 0.87
1 4.35 435 0.646 -8.385 5.531 0.306 0.045 0.004 244.791 4029.825 441.312 -1.074 -0.030 -0.526 -0.49 -0.01 0.06 0.87
1 4.36 436 0.460 -8.141 5.459 0.389 0.040 -0.029 409.683 4014.834 456.303 -0.880 -0.257 -0.425 -0.49 -0.01 0.06 0.87
1 4.37 437 0.397 -7.954 5.713 0.455 -0.010 -0.074 289.761 3954.724 411.332 -0.808 -0.423 -0.644 -0.49 -0.01 0.06 0.87
1 4.38 438 0.680 -8.212 5.809 0.450 -0.039 -0.108 289.761 3954.724 411.332 -1.077 -0.141 -0.700 -0.49 -0.01 0.06 0.87
1 4.39 439 0.800 -8.165 5.871 0.337 -0.095 -0.162 319.742 4179.727 546.244 -1.177 -0.167 -0.725 -0.49 -0.01 0.06 0.87
1 4.40 440 0.397 -8.710 6.029 0.078 -0.120 -0.203 394.693 4074.795 441.312 -0.749 0.395 -0.855 -0.49 -0.01 0.06 0.87
1 4.41 441 -0.005 -8.605 5.861 -0.026 -0.121 -0.205 394.693 4074.795 441.312 -0.319 0.297 -0.673 -0.48 -0.01 0.05 0.87
1 4.42 442 -0.254 -8.332 5.459 -0.120 -0.194 -0.228 319.742 4179.727 366.361 -0.019 0.025 -0.267 -0.48 -0.01 0.05 0.87
1 4.43 443 -0.139 -8.107 5.263 -0.197 -0.278 -0.225 334.732 4044.815 351.221 -0.107 -0.205 -0.077 -0.48 -0.01 0.05 0.87
1 4.44 444 -0.177 -8.284 5.306 -0.225 -0.320 -0.203 304.751 4014.834 381.352 -0.039 -0.036 -0.132 -0.49 -0.02 0.05 0.87
1 4.45 445 -0.254 -8.572 5.435 -0.163 -0.280 -0.179 304.751 4014.834 381.352 0.067 0.243 -0.274 -0.49 -0.02 0.05 0.87
1 4.46 446 -0.168 -8.864 5.521 -0.015 -0.215 -0.155 304.751 4134.756 321.241 0.005 0.530 -0.367 -0.49 -0.02 0.05 0.87
1 4.47 447 -0.129 -9.074 5.761 0.272 -0.142 -0.112 289.761 4074.795 366.361 -0.014 0.743 -0.602 -0.49 -0.02 0.05 0.87
1 4.48 448 0.158 -8.868 5.928 0.403 -0.133 -0.057 289.761 4074.795 366.361 -0.285 0.548 -0.751 -0.49 -0.02 0.05 0.87
1 4.49 449 0.646 -8.442 6.187 0.437 -0.087 0.006 319.742 4224.848 411.332 -0.751 0.163 -0.944 -0.48 -0.02 0.05 0.87
1 4.50 450 0.852 -8.485 6.278 0.399 -0.070 0.022 304.751 4014.834 351.221 -0.949 0.229 -0.999 -0.48 -0.02 0.05 0.88
1 4.51 451 1.159 -7.997 6.216 0.300 0.006 0.069 379.703 4164.737 381.352 -1.250 -0.238 -0.904 -0.48 -0.02 0.05 0.88
1 4.52 452 1.010 -7.643 5.861 0.207 0.051 0.084 379.703 4164.737 381.352 -1.098 -0.575 -0.523 -0.48 -0.02 0.05 0.88
1 4.53 453 1.006 -7.485 5.402 0.080 0.071 0.074 260.081 4165.936 201.469 -1.093 -0.721 -0.045 -0.48 -0.02 0.05 0.88
1 4.54 454 0.881 -7.485 4.741 -0.011 0.048 0.016 305.051 4015.884 321.541 -0.968 -0.716 0.624 -0.48 -0.02 0.05 0.88
1 4.55 455 0.862 -7.590 4.367 0.050 0.029 -0.007 305.051 4015.884 321.541 -0.945 -0.610 0.999 -0.48 -0.02 0.05 0.88
1 4.56 456 1.073 -7.815 4.554 0.209 0.030 -0.062 245.090 4000.894 231.599 -1.144 -0.377 0.824 -0.47 -0.02 0.05 0.88
1 4.57 457 1.159 -8.035 4.626 0.268 0.037 -0.081 290.061 4180.926 156.498 -1.218 -0.147 0.768 -0.47 -0.02 0.05 0.88
1 4.58 458 1.623 -8.078 4.899 0.419 0.092 -0.085 215.110 4075.845 186.479 -1.669 -0.088 0.518 -0.47 -0.02 0.05 0.88
1 4.59 459 1.599 -7.978 5.004 0.455 0.191 -0.081 215.110 4075.845 186.479 -1.633 -0.169 0.443 -0.47 -0.02 0.05 0.88
1 4.60 460 1.551 -7.872 5.229 0.394 0.295 -0.101 410.133 4045.864 201.469 -1.576 -0.254 0.248 -0.47 -0.02 0.05 0.88
1 4.61 461 1.331 -7.791 5.167 0.263 0.379 -0.141 260.081 4015.884 -8.245 -1.352 -0.317 0.337 -0.47 -0.02 0.05 0.88
1 4.62 462 1.216 -7.384 4.741 0.052 0.505 -0.221 260.081 4015.884 -8.245 -1.234 -0.713 0.780 -0.47 -0.02 0.04 0.88
1 4.63 463 1.015 -7.432 4.487 -0.027 0.583 -0.267 305.051 4165.936 246.589 -1.031 -0.660 1.041 -0.47 -0.02 0.04 0.88
1 4.64 464 0.412 -7.331 4.022 -0.012 0.602 -0.316 185.129 4090.985 201.469 -0.440 -0.762 1.504 -0.47 -0.02 0.04 0.88
1 4.65 465 0.263 -7.245 3.975 0.027 0.517 -0.339 125.019 3970.913 246.589 -0.297 -0.847 1.553 -0.47 -0.02 0.03 0.88
1 4.66 466 0.230 -7.307 4.027 0.009 0.424 -0.341 125.019 3970.913 246.589 -0.262 -0.783 1.503 -0.47 -0.01 0.03 0.88
1 4.67 467 0.302 -7.604 4.458 -0.074 0.374 -0.319 245.090 4180.926 186.479 -0.330 -0.486 1.072 -0.47 -0.01 0.03 0.88
1 4.68 468 0.225 -7.781 5.272 -0.199 0.291 -0.297 140.009 3955.923 231.599 -0.249 -0.312 0.253 -0.47 -0.01 0.03 0.88
1 4.69 469 0.254 -8.294 7.255 -0.381 0.195 -0.314 140.009 3955.923 231.599 -0.269 0.191 -1.742 -0.47 -0.01 0.03 0.88
1 4.70 470 -0.053 -9.070 8.054 -0.689 0.076 -0.373 140.009 4105.975 231.599 0.051 0.955 -2.559 -0.47 -0.01 0.02 0.88
1 4.71 471 -0.445 -10.104 7.350 -1.088 0.119 -0.448 80.048 4135.956 321.541 0.494 1.918 -1.963 -0.47 -0.01 0.02 0.88
1 4.72 472 -0.800 -9.941 6.034 -1.026 0.243 -0.452 154.999 4135.956 201.469 0.874 1.705 -0.723 -0.48 -0.01 0.02 0.88
1 4.73 473 -1.125 -9.366 5.028 -0.768 0.290 -0.430 154.999 4135.956 201.469 1.220 1.087 0.213 -0.48 -0.01 0.02 0.88
1 4.74 474 -0.862 -8.912 4.702 -0.382 0.212 -0.411 169.989 4150.946 441.462 0.970 0.601 0.490 -0.48 -0.01 0.01 0.87
1 4.75 475 -0.517 -8.653 4.722 -0.003 0.055 -0.396 125.019 4135.956 276.570 0.639 0.328 0.447 -0.49 -0.01 0.01 0.87
1 4.76 476 0.479 -8.256 5.665 0.239 -0.059 -0.344 125.019 4135.956 276.570 -0.335 -0.068 -0.495 -0.49 -0.01 0.01 0.87
1 4.77 477 0.872 -8.184 6.254 0.228 0.025 -0.286 50.067 4210.907 351.521 -0.701 -0.129 -1.066 -0.48 -0.01 0.01 0.87
1 4.78 478 0.790 -8.212 6.096 0.125 0.165 -0.226 50.067 4210.907 351.521 -0.594 -0.086 -0.886 -0.48 -0.02 0.01 0.88
1 4.79 479 -0.034 -8.131 5.593 -0.001 0.348 -0.138 -99.835 4090.985 351.521 0.250 -0.148 -0.354 -0.48 -0.02 0.01 0.88
1 4.80 480 -0.493 -8.188 5.018 -0.026 0.315 -0.128 -99.835 4090.985 351.521 0.703 -0.088 0.225 -0.48 -0.01 0 0.88
1 4.81 481 -0.690 -8.208 4.774 0.027 0.197 -0.148 20.087 3955.923 366.511 0.892 -0.069 0.470 -0.48 -0.01 0 0.88
1 4.82 482 -1.082 -8.236 4.841 0.137 0.116 -0.174 80.048 4015.884 351.521 1.281 -0.038 0.406 -0.48 -0.01 0 0.88
1 4.83 483 -1.188 -8.026 5.129 0.243 0.107 -0.164 80.048 4015.884 351.521 1.385 -0.242 0.130 -0.48 -0.01 0 0.88
1 4.84 484 -1.154 -7.810 5.866 0.263 0.182 -0.099 -54.864 4150.946 366.511 1.348 -0.445 -0.588 -0.48 -0.01 0 0.88
1 4.85 485 -0.919 -8.006 6.177 0.197 0.230 -0.019 -54.864 4150.946 366.511 1.103 -0.234 -0.876 -0.48 -0.01 -0 0.88
1 4.86 486 0.038 -8.466 6.431 -0.043 0.201 0.073 50.067 4045.864 321.541 0.107 0.248 -1.094 -0.48 -0.01 -0 0.88
1 4.87 487 0.795 -8.873 6.091 -0.244 0.180 0.109 50.067 4045.864 321.541 -0.667 0.655 -0.755 -0.48 -0.01 -0 0.88
1 4.88 488 1.293 -9.026 5.579 -0.352 0.150 0.115 -99.835 4090.985 276.570 -1.180 0.797 -0.259 -0.48 -0.01 -0 0.88
1 4.89 489 1.571 -8.935 5.167 -0.365 0.140 0.139 -69.854 4240.887 321.541 -1.466 0.689 0.128 -0.48 -0.01 -0 0.88
1 4.90 490 1.250 -8.720 4.870 -0.264 0.135 0.140 -69.854 4240.887 321.541 -1.151 0.457 0.398 -0.48 -0.01 -0 0.88
1 4.91 491 0.843 -8.452 4.760 0.002 0.069 0.123 65.058 4075.845 411.482 -0.751 0.177 0.490 -0.48 -0 -0 0.88
1 4.92 492 0.570 -8.126 5.200 0.148 0.011 0.102 65.058 4075.845 411.482 -0.483 -0.152 0.044 -0.48 -0 -0 0.88
1 4.93 493 0.206 -8.165 5.464 0.205 0.031 0.058 -69.854 4135.956 351.521 -0.125 -0.099 -0.196 -0.48 -0 -0 0.88
1 4.94 494 0.153 -8.150 5.593 0.168 0.067 0.043 -69.854 4135.956 351.521 -0.076 -0.103 -0.309 -0.48 -0 -0 0.88
1 4.95 495 -0.129 -8.179 5.344 -0.024 0.181 -0.018 140.009 4150.946 411.482 0.200 -0.068 -0.050 -0.48 -0 -0 0.88
1 4.96 496 -0.455 -8.552 5.038 -0.092 0.170 -0.056 -24.734 4240.887 426.472 0.518 0.305 0.255 -0.48 -0 -0 0.88
1 4.97 497 -0.685 -8.912 4.654 -0.078 0.117 -0.089 -24.734 4240.887 426.472 0.742 0.659 0.631 -0.48 -0 -0 0.88
1 4.98 498 -0.666 -9.515 4.544 0.093 0.019 -0.049 -84.845 4075.845 261.580 0.719 1.258 0.734 -0.48 -0 -0 0.88
1 4.99 499 -0.690 -9.659 4.535 0.248 -0.020 0.035 -84.845 4075.845 261.580 0.741 1.401 0.742 -0.48 -0 -0 0.88
1 5.00 500 -0.742 -9.122 4.626 0.344 -0.088 0.191 -54.864 4030.874 366.511 0.778 0.880 0.675 -0.48 -0 -0 0.88
1 5.01 501 -0.618 -9.012 4.602 0.332 -0.109 0.238 -54.864 4030.874 366.511 0.637 0.781 0.717 -0.48 -0 -0 0.88
1 5.02 502 -0.484 -8.691 5.071 0.185 -0.145 0.354 -84.845 4150.946 291.560 0.483 0.470 0.263 -0.48 0 0 0.88
1 5.03 503 -0.364 -8.581 5.243 0.052 -0.125 0.379 -99.835 4135.956 351.521 0.340 0.365 0.099 -0.48 0 0 0.88
1 5.04 504 -0.081 -8.572 5.363 -0.092 -0.083 0.380 -99.835 4135.956 351.521 0.033 0.356 -0.021 -0.48 0 0 0.88
1 5.05 505 -0.057 -8.619 5.234 -0.218 -0.075 0.329 65.058 4180.926 231.599 -0.015 0.399 0.100 -0.48 0 0 0.88
1 5.06 506 0.134 -8.931 5.354 -0.227 -0.072 0.298 65.058 4180.926 231.599 -0.229 0.701 -0.034 -0.48 0 0.01 0.88
1 5.07 507 0.445 -9.184 5.555 -0.201 -0.080 0.260 5.097 4045.864 276.570 -0.558 0.944 -0.252 -0.48 0 0.01 0.88
1 5.08 508 0.666 -9.213 5.789 -0.140 -0.057 0.208 -9.744 4075.845 336.531 -0.802 0.955 -0.515 -0.48 0 0.01 0.88
1 5.09 509 0.651 -8.988 5.866 -0.108 -0.037 0.174 169.989 4075.845 366.511 -0.796 0.725 -0.600 -0.48 0 0.01 0.88
1 5.10 510 0.589 -8.725 6.187 -0.131 -0.055 0.120 50.067 4090.985 321.541 -0.741 0.457 -0.927 -0.48 0 0.01 0.88
1 5.11 511 0.785 -8.404 6.196 -0.231 -0.079 0.062 50.067 4090.985 321.541 -0.939 0.132 -0.944 -0.48 0 0.01 0.88
1 5.12 512 0.757 -8.145 6.206 -0.452 -0.118 -0.018 -9.744 4225.897 411.482 -0.902 -0.135 -0.967 -0.48 0 0.01 0.88
1 5.13 513 1.025 -8.026 6.091 -0.567 -0.112 -0.051 -9.744 4225.897 411.482 -1.158 -0.270 -0.875 -0.48 0 0.01 0.88
1 5.14 514 0.943 -8.050 5.986 -0.597 -0.097 -0.073 80.048 4135.956 426.472 -1.060 -0.266 -0.802 -0.49 0 0.01 0.87
1 5.15 515 0.848 -7.877 5.813 -0.537 -0.051 -0.092 50.067 4135.956 381.501 -0.929 -0.483 -0.700 -0.49 -0 0.01 0.87
1 5.16 516 0.512 -7.734 5.502 -0.497 -0.018 -0.116 154.999 4045.864 426.472 -0.577 -0.646 -0.421 -0.49 -0 0.01 0.87
1 5.17 517 0.311 -7.470 4.990 -0.477 0.005 -0.146 5.097 4015.884 381.501 -0.361 -0.927 0.062 -0.49 -0 0.01 0.87
1 5.18 518 0.177 -7.571 4.798 -0.416 0.015 -0.148 5.097 4015.884 381.501 -0.213 -0.844 0.224 -0.49 -0 0.01 0.87
1 5.19 519 -0.043 -7.590 4.592 -0.290 0.020 -0.153 50.067 3970.913 456.603 0.020 -0.840 0.405 -0.5 -0 0.01 0.87
1 5.20 520 -0.460 -8.117 4.549 -0.022 0.051 -0.151 50.067 3970.913 456.603 0.447 -0.323 0.432 -0.5 -0 0.01 0.87
1 5.21 521 -0.613 -8.442 4.578 0.202 0.070 -0.149 5.097 4045.864 531.554 0.608 -0.000 0.399 -0.5 -0 0.01 0.87
1 5.22 522 -0.742 -8.476 4.784 0.404 0.085 -0.152 -24.734 4135.956 501.573 0.742 0.040 0.203 -0.5 -0 0 0.87
1 5.23 523 -0.977 -8.610 4.947 0.474 0.121 -0.129 95.038 4180.926 441.462 0.980 0.210 0.101 -0.49 -0 0 0.87
1 5.24 524 -0.910 -8.562 5.038 0.377 0.123 -0.117 -9.744 4180.926 441.462 0.909 0.182 0.044 -0.49 -0 0 0.87
1 5.25 525 -0.991 -8.552 5.033 0.245 0.129 -0.085 -9.744 4180.926 441.462 0.986 0.188 0.074 -0.49 -0 0 0.87
1 5.26 526 -0.857 -8.600 5.090 0.163 0.095 -0.036 50.067 4015.884 426.472 0.845 0.246 0.033 -0.49 -0 0 0.87
1 5.27 527 -0.804 -8.653 5.047 0.106 0.051 0.054 50.067 4015.884 426.472 0.784 0.306 0.088 -0.49 0 0 0.87
1 5.28 528 -0.800 -9.003 4.741 0.061 0.012 0.125 65.058 4075.845 336.531 0.768 0.660 0.402 -0.49 0 0 0.87
1 5.29 529 -0.848 -8.902 4.860 -0.020 -0.035 0.168 -54.864 4075.845 411.482 0.801 0.563 0.287 -0.49 0 0 0.87
1 5.30 530 -0.469 -8.864 5.157 -0.172 -0.072 0.201 5.097 3970.913 381.501 0.391 0.517 -0.022 -0.49 0 0 0.87
1 5.31 531 -0.388 -9.031 5.196 -0.238 -0.042 0.219 95.038 4150.946 411.482 0.293 0.676 -0.076 -0.49 0 0 0.87
1 5.32 532 -0.326 -9.180 5.311 -0.269 0.013 0.208 95.038 4150.946 411.482 0.214 0.813 -0.209 -0.49 0 0.01 0.87
1 5.33 533 -0.129 -9.462 5.354 -0.295 0.087 0.194 65.058 4030.874 441.462 0.000 1.083 -0.273 -0.49 0 0.01 0.87
1 5.34 534 -0.158 -9.678 5.334 -0.291 0.128 0.168 65.058 4030.874 441.462 0.011 1.286 -0.275 -0.49 0.01 0.01 0.87
1 5.35 535 0.005 -10.161 5.454 -0.150 0.168 0.133 -9.744 4105.975 441.462 -0.170 1.758 -0.415 -0.49 0.01 0.01 0.87
1 5.36 536 -0.278 -9.912 5.368 0.056 0.193 0.097 -9.744 3955.923 411.482 0.096 1.502 -0.342 -0.49 0.01 0.01 0.87
1 5.37 537 -0.441 -9.266 4.990 0.287 0.204 0.044 80.048 4165.936 456.603 0.228 0.866 0.053 -0.49 0.01 0.01 0.87
1 5.38 538 -0.546 -9.228 4.956 0.374 0.182 0.005 65.058 4105.975 441.462 0.321 0.840 0.108 -0.49 0.01 0.01 0.87
1 5.39 539 -0.527 -8.835 4.880 0.428 0.189 -0.037 65.058 4105.975 441.462 0.293 0.464 0.210 -0.49 0.01 0 0.87
1 5.40 540 -0.627 -8.777 4.736 0.500 0.197 -0.078 215.110 4075.845 366.511 0.386 0.425 0.385 -0.49 0.01 0 0.87
1 5.41 541 -0.804 -8.600 4.712 0.567 0.180 -0.083 215.110 4075.845 366.511 0.558 0.270 0.444 -0.49 0.01 0 0.87
1 5.42 542 -0.924 -8.495 4.564 0.584 0.162 -0.078 80.048 4210.907 381.501 0.672 0.189 0.631 -0.48 0.01 0 0.87
1 5.43 543 -1.006 -8.380 4.659 0.557 0.153 -0.068 -24.734 4135.956 381.501 0.749 0.099 0.575 -0.48 0.01 0 0.88
1 5.44 544 -1.116 -8.097 4.798 0.437 0.124 -0.068 50.067 4135.956 381.501 0.846 -0.137 0.508 -0.48 0.02 0 0.88
1 5.45 545 -1.025 -7.973 4.674 0.381 0.129 -0.055 154.999 4210.907 246.589 0.748 -0.243 0.661 -0.48 0.02 0 0.88
1 5.46 546 -1.221 -7.523 4.463 0.150 0.084 -0.068 154.999 4210.907 246.589 0.939 -0.681 0.890 -0.48 0.02 0 0.88
1 5.47 547 -1.188 -7.408 4.401 -0.017 0.035 -0.096 5.097 4045.864 246.589 0.901 -0.792 0.958 -0.48 0.02 -0 0.88
1 5.48 548 -1.250 -7.508 4.080 -0.141 0.004 -0.104 5.097 4045.864 246.589 0.969 -0.693 1.277 -0.48 0.02 -0 0.88
1 5.49 549 -1.197 -7.734 3.994 -0.176 -0.070 -0.108 -114.825 4105.975 291.560 0.925 -0.475 1.353 -0.48 0.02 -0 0.88
1 5.50 550 -1.288 -7.829 4.147 -0.113 -0.133 -0.101 20.087 4000.894 261.580 1.027 -0.387 1.188 -0.48 0.02 -0 0.88
1 5.51 551 -1.298 -7.963 4.180 -0.056 -0.207 -0.077 20.087 4000.894 261.580 1.045 -0.260 1.144 -0.48 0.02 -0 0.88
1 5.52 552 -0.996 -8.093 4.540 -0.025 -0.284 -0.031 65.058 4030.874 291.560 0.760 -0.141 0.770 -0.48 0.01 -0 0.88
1 5.53 553 -0.977 -8.126 4.654 -0.056 -0.324 -0.005 65.058 4030.874 291.560 0.751 -0.111 0.651 -0.48 0.01 -0 0.88
1 5.54 554 -0.766 -7.901 4.860 -0.120 -0.349 0.025 -54.864 4105.975 186.479 0.550 -0.340 0.438 -0.48 0.01 -0 0.88
1 5.55 555 -0.747 -7.887 5.085 -0.173 -0.335 0.052 -54.864 4105.975 186.479 0.541 -0.361 0.203 -0.48 0.01 0 0.88
1 5.56 556 -0.474 -7.848 4.923 -0.241 -0.323 0.079 50.067 4135.956 351.521 0.275 -0.407 0.354 -0.48 0.01 0 0.88
1 5.57 557 -0.335 -8.155 4.851 -0.291 -0.329 0.091 -9.744 4180.926 291.560 0.144 -0.110 0.411 -0.48 0.01 0 0.88
1 5.58 558 -0.038 -8.519 4.712 -0.306 -0.336 0.103 -9.744 4180.926 291.560 -0.146 0.241 0.530 -0.48 0.01 0 0.88
1 5.59 559 0.101 -8.955 5.124 -0.170 -0.311 0.101 -54.864 4075.845 411.482 -0.269 0.649 0.076 -0.48 0.01 0 0.87
1 5.60 560 0.196 -9.060 5.531 -0.053 -0.263 0.085 -54.864 4075.845 411.482 -0.356 0.748 -0.342 -0.49 0.01 0.01 0.87
1 5.61 561 0.316 -8.988 5.799 0.000 -0.176 0.087 -99.835 4240.887 321.541 -0.468 0.675 -0.612 -0.49 0.01 0.01 0.87
1 5.62 562 0.369 -8.878 6.115 -0.048 -0.084 0.087 -99.835 4240.887 321.541 -0.515 0.565 -0.927 -0.49 0.01 0.01 0.87
1 5.63 563 0.340 -8.677 6.278 -0.199 0.025 0.105 80.048 4045.864 426.472 -0.488 0.362 -1.092 -0.49 0.01 0.01 0.87
1 5.64 564 0.632 -8.519 6.144 -0.360 0.165 0.116 65.058 4105.975 231.599 -0.789 0.196 -0.971 -0.49 0.01 0.01 0.87
1 5.65 565 0.723 -8.366 6.010 -0.402 0.214 0.136 65.058 4105.975 231.599 -0.889 0.032 -0.856 -0.49 0.01 0.01 0.87
1 5.66 566 0.541 -8.246 5.627 -0.376 0.256 0.168 80.048 4165.936 351.521 -0.720 -0.102 -0.496 -0.49 0.01 0.01 0.87
1 5.67 567 -0.067 -8.308 4.980 -0.268 0.237 0.210 20.087 3955.923 411.482 -0.148 -0.065 0.108 -0.49 0.01 0.01 0.87
1 5.68 568 -0.493 -8.270 4.616 -0.194 0.197 0.213 -159.796 4030.874 411.482 0.254 -0.113 0.455 -0.49 0.01 0.01 0.87
1 5.69 569 -0.766 -8.442 4.463 -0.117 0.099 0.188 -160.246 4032.223 412.082 0.504 0.052 0.594 -0.49 0.01 0.01 0.87
1 5.70 570 -1.106 -8.701 4.449 -0.025 0.014 0.146 4.647 4047.213 382.101 0.824 0.306 0.600 -0.49 0.01 0.01 0.87
1 5.71 571 -1.422 -8.916 4.611 0.148 -0.125 0.055 79.598 4137.305 382.101 1.125 0.520 0.434 -0.49 0.01 0.01 0.87
1 5.72 572 -1.791 -9.228 4.698 0.215 -0.229 -0.019 79.598 4137.305 382.101 1.485 0.836 0.355 -0.49 0.01 0.01 0.87
1 5.73 573 -1.690 -9.275 4.899 0.256 -0.327 -0.068 229.650 4137.305 382.101 1.384 0.891 0.165 -0.49 0.01 0.01 0.87
1 5.74 574 -1.312 -9.290 5.133 0.316 -0.400 -0.091 49.618 4092.184 382.101 1.026 0.925 -0.035 -0.49 0.01 0.01 0.87
1 5.75 575 -0.967 -9.084 5.133 0.321 -0.398 -0.078 79.598 4212.256 322.140 0.703 0.734 -0.011 -0.49 0.01 0.01 0.87
1 5.76 576 -0.723 -8.816 5.004 0.280 -0.360 -0.032 79.598 4212.256 322.140 0.476 0.479 0.141 -0.49 0.01 0.01 0.87
1 5.77 577 -0.579 -8.356 4.980 0.169 -0.333 0.006 139.709 4002.243 337.130 0.347 0.030 0.183 -0.49 0.01 0.01 0.87
1 5.78 578 -0.599 -8.088 4.769 0.018 -0.338 0.044 94.738 4107.174 262.179 0.377 -0.232 0.404 -0.49 0.01 0.01 0.87
1 5.79 579 -0.656 -7.839 4.659 -0.202 -0.361 0.093 94.738 4107.174 262.179 0.444 -0.482 0.514 -0.49 0.01 0.01 0.87
1 5.80 580 -0.752 -7.853 4.587 -0.300 -0.369 0.137 -145.105 4092.184 247.189 0.547 -0.475 0.574 -0.49 0 0.01 0.87
1 5.81 581 -0.977 -8.016 4.583 -0.324 -0.379 0.181 -100.135 4092.184 322.140 0.778 -0.339 0.536 -0.49 0 0.02 0.87
1 5.82 582 -0.939 -7.992 4.659 -0.241 -0.361 0.213 124.719 4092.184 277.169 0.737 -0.376 0.437 -0.49 0 0.02 0.87
1 5.83 583 -1.283 -8.165 5.196 -0.117 -0.330 0.226 124.719 4092.184 277.169 1.076 -0.213 -0.114 -0.49 0 0.02 0.87
1 5.84 584 -1.264 -8.165 5.665 0.022 -0.278 0.255 19.637 3957.272 292.160 1.046 -0.214 -0.587 -0.49 0 0.02 0.87
1 5.85 585 -1.082 -8.179 6.067 0.036 -0.242 0.281 94.738 4077.194 292.160 0.848 -0.195 -0.982 -0.49 0 0.02 0.87
1 5.86 586 -0.043 -8.701 6.283 -0.231 -0.186 0.258 94.738 4077.194 292.160 -0.207 0.332 -1.190 -0.49 0 0.02 0.87
1 5.87 587 0.881 -9.070 6.211 -0.395 -0.186 0.220 -25.184 4137.305 322.140 -1.145 0.698 -1.123 -0.49 0 0.02 0.87
1 5.88 588 2.035 -9.587 5.866 -0.323 -0.140 0.178 79.598 4047.213 172.088 -2.314 1.185 -0.828 -0.49 0 0.03 0.87
1 5.89 589 2.260 -9.601 5.694 -0.242 -0.076 0.165 139.709 4152.295 367.111 -2.546 1.189 -0.675 -0.49 0 0.03 0.87
1 5.90 590 1.901 -8.926 5.196 -0.020 0.160 0.137 139.709 4152.295 367.111 -2.200 0.509 -0.185 -0.49 0 0.03 0.87
1 5.91 591 1.470 -8.260 4.645 0.039 0.221 0.129 -25.184 4092.184 322.140 -1.778 -0.156 0.366 -0.49 0 0.03 0.87
1 5.92 592 0.972 -7.671 4.410 0.025 0.193 0.097 139.709 4032.223 337.130 -1.284 -0.743 0.603 -0.49 0 0.03 0.87
1 5.93 593 0.268 -7.561 4.195 0.015 0.116 0.014 139.709 4032.223 337.130 -0.583 -0.852 0.820 -0.49 0 0.03 0.87
1 5.94 594 -0.211 -7.987 4.214 0.154 0.059 -0.023 184.680 4047.213 322.140 -0.112 -0.425 0.803 -0.49 0 0.03 0.87
1 5.95 595 -0.814 -8.318 4.468 0.431 0.030 -0.064 4.647 4092.184 247.189 0.491 -0.090 0.557 -0.49 0 0.02 0.87
1 5.96 596 -1.465 -8.806 4.994 0.897 -0.025 -0.108 4.647 4092.184 382.101 1.147 0.442 0.103 -0.49 0.01 0.02 0.87
1 5.97 597 -1.705 -8.797 5.598 1.023 -0.095 -0.114 4.647 4092.184 382.101 1.389 0.474 -0.433 -0.49 0.01 0.02 0.87
1 5.98 598 -2.002 -8.605 6.072 0.935 -0.159 -0.116 94.738 4152.295 262.179 1.689 0.330 -0.831 -0.48 0.01 0.02 0.88
1 5.99 599 -2.054 -8.232 6.129 0.624 -0.209 -0.097 169.689 4107.174 262.179 1.746 -0.001 -0.822 -0.48 0.01 0.02 0.88
1 6.00 600 -1.571 -7.710 5.430 -0.056 -0.315 -0.072 169.689 4107.174 262.179 1.273 -0.497 -0.082 -0.48 0 0.02 0.88
1 6.01 601 -1.178 -7.643 5.100 -0.449 -0.412 -0.039 214.660 3957.272 112.127 0.888 -0.558 0.259 -0.48 0 0.02 0.88
1 6.02 602 -0.632 -7.978 5.081 -0.624 -0.408 0.023 4.647 3972.262 97.137 0.355 -0.237 0.256 -0.48 0 0.02 0.88
1 6.03 603 0.110 -8.064 5.272 -0.617 -0.227 0.132 -55.164 4077.194 337.130 -0.366 -0.206 -0.020 -0.48 0 0.03 0.88
1 6.04 604 0.713 -8.366 5.287 -0.606 -0.065 0.160 -55.164 4077.194 337.130 -0.969 0.070 -0.076 -0.48 0 0.03 0.87
1 6.05 605 1.355 -8.696 5.713 -0.582 0.125 0.171 94.738 4077.194 157.098 -1.616 0.374 -0.543 -0.49 0 0.03 0.87
1 6.06 606 1.762 -8.993 5.933 -0.508 0.293 0.188 64.608 4077.194 112.127 -2.032 0.648 -0.802 -0.49 0 0.03 0.87
1 6.07 607 1.762 -8.859 6.168 -0.395 0.395 0.215 64.608 4077.194 112.127 -2.053 0.494 -1.071 -0.49 0 0.03 0.87
1 6.08 608 1.226 -8.394 6.278 -0.292 0.446 0.197 154.699 4167.285 247.189 -1.551 0.014 -1.207 -0.49 0 0.03 0.87
1 6.09 609 0.690 -8.141 5.995 -0.232 0.363 0.165 184.680 3942.282 382.101 -1.049 -0.251 -0.947 -0.49 0.01 0.03 0.87
1 6.10 610 0.273 -7.791 5.641 -0.081 0.244 0.086 184.680 3942.282 382.101 -0.650 -0.607 -0.604 -0.49 0.01 0.02 0.87
1 6.11 611 -0.091 -7.906 5.282 0.304 0.078 -0.014 4.647 4047.213 172.088 -0.302 -0.485 -0.234 -0.49 0.01 0.02 0.87
1 6.12 612 -0.551 -8.074 5.287 0.569 0.019 -0.070 64.608 4107.174 187.078 0.160 -0.298 -0.207 -0.49 0.01 0.02 0.87
1 6.13 613 -0.977 -8.323 5.373 0.750 -0.018 -0.094 319.742 4077.194 367.111 0.592 -0.020 -0.244 -0.49 0.01 0.02 0.87
1 6.14 614 -1.346 -8.816 5.435 0.818 -0.095 -0.107 320.191 4078.693 367.561 0.966 0.510 -0.248 -0.49 0.01 0.02 0.87
1 6.15 615 -1.690 -9.079 5.818 0.734 -0.156 -0.076 215.110 4003.742 292.609 1.317 0.811 -0.570 -0.48 0.01 0.02 0.88
1 6.16 616 -1.532 -9.098 5.900 0.533 -0.148 -0.048 185.129 4093.683 247.639 1.169 0.867 -0.594 -0.48 0.01 0.02 0.88
1 6.17 617 -1.245 -8.730 5.847 0.259 -0.135 -0.015 185.129 4093.683 247.639 0.893 0.526 -0.497 -0.48 0.01 0.02 0.88
1 6.18 618 -0.330 -8.241 5.564 -0.134 -0.121 0.050 5.097 4093.683 142.557 -0.013 0.058 -0.183 -0.47 0.01 0.02 0.88
1 6.19 619 0.067 -7.973 5.382 -0.309 -0.046 0.111 125.168 4048.712 247.639 -0.411 -0.217 -0.012 -0.48 0.01 0.02 0.88
1 6.20 620 0.388 -8.064 5.263 -0.373 0.023 0.165 65.208 4078.693 157.547 -0.737 -0.140 0.086 -0.48 0.01 0.02 0.88
1 6.21 621 0.287 -8.117 5.440 -0.351 0.082 0.192 65.208 4078.693 157.547 -0.645 -0.103 -0.116 -0.48 0.01 0.02 0.88
1 6.22 622 0.144 -8.040 5.550 -0.298 0.088 0.179 170.139 4108.673 187.678 -0.514 -0.194 -0.248 -0.48 0.01 0.02 0.88
1 6.23 623 0.407 -8.016 5.842 -0.190 0.100 0.144 125.168 4093.683 142.557 -0.789 -0.228 -0.558 -0.48 0.01 0.02 0.88
1 6.24 624 0.551 -8.083 5.952 -0.122 0.121 0.101 125.168 4093.683 142.557 -0.942 -0.168 -0.679 -0.48 0.01 0.02 0.88
1 6.25 625 0.800 -8.097 6.029 0.031 0.128 0.021 245.090 4003.742 292.609 -1.199 -0.155 -0.759 -0.48 0.01 0.02 0.88
1 6.26 626 0.848 -8.030 6.168 0.107 0.150 -0.002 320.191 4108.673 112.577 -1.246 -0.216 -0.888 -0.48 0.01 0.02 0.88
1 6.27 627 0.579 -8.232 6.287 0.168 0.141 -0.010 140.159 4078.693 187.678 -0.974 -0.006 -0.993 -0.48 0.01 0.02 0.88
1 6.28 628 0.532 -8.595 6.206 0.206 0.136 -0.010 140.159 4078.693 187.678 -0.924 0.371 -0.892 -0.48 0.01 0.02 0.88
1 6.29 629 0.445 -8.600 6.402 0.241 0.126 -0.010 170.139 4183.774 232.648 -0.836 0.388 -1.068 -0.48 0.01 0.02 0.88
1 6.30 630 0.278 -8.634 6.259 0.318 0.074 0.028 125.168 4093.683 97.586 -0.667 0.437 -0.901 -0.48 0.01 0.02 0.88
1 6.31 631 -0.048 -8.198 5.938 0.289 0.039 0.037 125.168 4093.683 97.586 -0.343 0.017 -0.556 -0.47 0.01 0.02 0.88
1 6.32 632 -0.426 -7.475 5.737 0.006 -0.059 0.018 5.097 4093.683 277.619 0.037 -0.677 -0.312 -0.47 0.01 0.02 0.88
1 6.33 633 -0.560 -7.298 5.641 -0.133 -0.084 0.009 155.149 4018.732 172.538 0.173 -0.854 -0.215 -0.47 0.01 0.02 0.88
1 6.34 634 -0.354 -7.489 5.416 -0.452 -0.187 -0.058 95.188 4003.742 112.577 -0.025 -0.674 -0.008 -0.47 0.01 0.02 0.88
1 6.35 635 -0.024 -7.872 5.358 -0.454 -0.173 -0.092 95.188 4003.742 112.577 -0.342 -0.311 0.021 -0.47 0.01 0.02 0.88
1 6.36 636 0.311 -8.026 5.224 -0.316 -0.120 -0.118 215.110 4078.693 262.629 -0.660 -0.176 0.128 -0.48 0.01 0.02 0.88
1 6.37 637 0.742 -8.562 5.406 0.021 0.039 -0.120 5.097 4018.732 172.538 -1.073 0.348 -0.071 -0.48 0.01 0.02 0.88
1 6.38 638 1.039 -8.619 5.679 0.254 0.124 -0.102 5.097 4018.732 172.538 -1.353 0.404 -0.346 -0.48 0.01 0.02 0.88
1 6.39 639 0.948 -8.868 5.923 0.418 0.192 -0.085 20.087 4183.774 187.678 -1.251 0.662 -0.575 -0.48 0.01 0.02 0.88
1 6.40 640 0.843 -8.725 6.335 0.429 0.209 -0.091 80.198 3898.660 202.668 -1.135 0.560 -0.924 -0.47 0.01 0.01 0.88
1 6.41 641 0.666 -8.567 6.364 0.315 0.173 -0.109 95.188 3958.771 7.645 -0.961 0.422 -0.923 -0.47 0.01 0.01 0.88
1 6.42 642 0.445 -8.471 6.192 0.199 0.112 -0.148 95.188 3958.771 7.645 -0.732 0.342 -0.725 -0.47 0.01 0.01 0.88
1 6.43 643 0.302 -8.457 5.947 0.117 0.042 -0.180 5.097 4018.732 67.606 -0.576 0.338 -0.465 -0.47 0.01 0.01 0.88
1 6.44 644 0.110 -8.097 5.402 0.013 -0.046 -0.256 125.168 4048.712 142.557 -0.368 -0.015 0.090 -0.47 0.01 0.01 0.88
1 6.45 645 0.077 -7.944 5.129 -0.100 -0.110 -0.281 125.168 4048.712 142.557 -0.312 -0.166 0.368 -0.47 0.01 0.01 0.88
1 6.46 646 -0.034 -7.839 4.913 -0.233 -0.136 -0.283 5.097 4168.634 -52.166 -0.174 -0.275 0.579 -0.47 0.01 0.01 0.88
1 6.47 647 -0.220 -7.542 4.904 -0.395 -0.126 -0.258 -24.584 4244.785 22.635 0.067 -0.599 0.550 -0.47 0.01 0.01 0.88
1 6.48 648 -0.120 -7.743 5.042 -0.409 -0.107 -0.256 50.217 4094.732 202.668 -0.010 -0.417 0.383 -0.47 0.01 0 0.88
1 6.49 649 0.235 -8.045 5.148 -0.326 -0.080 -0.239 50.217 4094.732 202.668 -0.341 -0.134 0.251 -0.47 0 0 0.88
1 6.50 650 0.220 -8.217 5.607 -0.151 -0.071 -0.201 95.188 4109.723 82.746 -0.304 0.026 -0.229 -0.47 0 0 0.88
1 6.51 651 0.374 -8.509 6.081 0.042 -0.045 -0.125 215.260 4079.742 232.648 -0.438 0.314 -0.708 -0.48 0 0 0.88
1 6.52 652 0.163 -8.648 6.637 0.169 -0.027 -0.039 215.260 4079.742 232.648 -0.215 0.459 -1.254 -0.47 0 0 0.88
1 6.53 653 0.034 -8.447 6.699 0.086 -0.045 -0.004 -69.705 4169.684 172.688 -0.079 0.269 -1.299 -0.47 0 0 0.88
1 6.54 654 -0.364 -8.337 6.388 -0.074 -0.063 0.015 -69.705 4169.684 172.688 0.322 0.166 -0.978 -0.47 0 0 0.88
1 6.55 655 -0.661 -8.236 5.842 -0.185 -0.140 0.012 -84.695 4154.693 82.746 0.621 0.065 -0.433 -0.47 0 0 0.88
1 6.56 656 -0.690 -8.380 5.430 -0.135 -0.221 -0.010 -84.695 4154.693 82.746 0.653 0.203 -0.029 -0.47 0 0 0.88
1 6.57 657 -0.517 -8.246 5.282 -0.041 -0.303 -0.025 -54.714 4034.771 112.727 0.489 0.064 0.113 -0.47 0 0 0.88
1 6.58 658 -0.302 -8.088 5.018 0.053 -0.327 -0.030 125.168 4049.762 142.707 0.287 -0.094 0.376 -0.47 -0 0 0.88
1 6.59 659 0.254 -7.743 4.702 0.075 -0.284 -0.019 125.168 4049.762 142.707 -0.254 -0.436 0.697 -0.47 -0 0 0.88
1 6.60 660 0.431 -7.700 4.784 0.064 -0.200 0.013 65.208 4004.791 187.678 -0.415 -0.475 0.620 -0.47 -0 0 0.88
1 6.61 661 0.532 -7.820 4.932 0.115 -0.114 0.039 65.208 4004.791 187.678 -0.503 -0.353 0.476 -0.47 -0 0 0.88
1 6.62 662 0.627 -8.179 5.430 0.268 -0.061 0.120 5.247 4139.703 202.668 -0.589 0.020 -0.002 -0.47 -0 0 0.88
1 6.63 663 0.771 -8.433 5.809 0.348 -0.013 0.170 5.247 4139.703 202.668 -0.735 0.288 -0.358 -0.47 -0 0.01 0.88
1 6.64 664 0.790 -8.533 6.129 0.355 0.018 0.201 -54.714 4184.674 112.727 -0.761 0.407 -0.652 -0.47 -0 0.01 0.88
1 6.65 665 0.881 -8.686 6.019 0.295 0.060 0.209 50.217 4049.762 172.688 -0.862 0.579 -0.515 -0.47 -0 0.01 0.88
1 6.66 666 0.733 -8.557 5.852 0.200 0.067 0.179 50.217 4049.762 172.688 -0.725 0.464 -0.326 -0.47 -0 0.01 0.88
1 6.67 667 0.690 -8.121 5.459 0.124 0.084 0.127 -24.584 4169.684 97.736 -0.692 0.038 0.081 -0.47 -0 0.01 0.88
1 6.68 668 0.388 -7.935 4.985 0.092 0.080 0.097 -24.584 4169.684 97.736 -0.398 -0.143 0.565 -0.47 -0 0.01 0.88
1 6.69 669 0.297 -7.619 4.530 -0.010 -0.014 0.056 -54.714 4004.791 7.645 -0.318 -0.452 1.029 -0.47 -0 0.01 0.89
1 6.70 670 0.508 -7.494 4.530 -0.106 -0.070 0.026 -54.714 4004.791 7.645 -0.529 -0.580 1.024 -0.47 -0 0.01 0.89
1 6.71 671 0.656 -7.556 4.520 -0.189 -0.053 -0.002 5.247 4139.703 67.756 -0.674 -0.523 1.026 -0.47 -0 0.01 0.88
1 6.72 672 0.838 -7.973 4.458 -0.259 0.027 -0.017 -99.685 4019.781 142.707 -0.849 -0.118 1.072 -0.47 -0 0.01 0.88
1 6.73 673 0.781 -8.102 4.147 -0.253 0.116 -0.035 -99.685 4019.781 142.707 -0.786 -0.004 1.361 -0.47 -0 0.01 0.88
1 6.74 674 0.589 -8.323 4.166 -0.138 0.170 -0.068 -69.705 4049.762 -7.195 -0.591 0.202 1.319 -0.47 -0 0.01 0.88
1 6.75 675 0.364 -8.423 4.324 -0.060 0.150 -0.091 -69.705 4049.762 -7.195 -0.364 0.290 1.144 -0.47 -0 0 0.88
1 6.76 676 0.412 -8.256 4.779 -0.031 0.071 -0.128 20.237 4079.742 112.727 -0.403 0.110 0.669 -0.47 -0 0 0.88
1 6.77 677 0.441 -8.313 5.076 -0.035 0.061 -0.128 20.237 4079.742 112.727 -0.423 0.163 0.367 -0.47 -0 0 0.88
1 6.78 678 0.517 -8.682 5.785 -0.091 0.048 -0.120 20.237 4109.723 157.697 -0.490 0.530 -0.345 -0.47 -0 0 0.88
1 6.79 679 0.843 -9.074 6.201 -0.175 0.026 -0.105 -144.656 4214.654 97.736 -0.806 0.918 -0.768 -0.47 -0 0 0.88
1 6.80 680 1.053 -9.544 6.398 -0.280 0.046 -0.080 -144.656 4214.654 97.736 -1.009 1.379 -0.978 -0.47 -0 -0 0.88
1 6.81 681 0.996 -9.606 6.297 -0.429 0.169 -0.035 5.247 4169.684 142.707 -0.949 1.428 -0.898 -0.47 -0 -0 0.88
1 6.82 682 0.441 -9.352 6.110 -0.492 0.229 -0.047 5.247 4169.684 142.707 -0.397 1.156 -0.739 -0.48 -0 -0 0.88
1 6.83 683 -0.292 -9.151 5.761 -0.558 0.213 -0.088 95.188 4109.723 157.697 0.329 0.933 -0.422 -0.48 -0 -0 0.88
1 6.84 684 -1.221 -8.897 5.330 -0.662 0.058 -0.159 155.149 4094.732 97.736 1.252 0.628 -0.071 -0.48 0 -0 0.88
1 6.85 685 -1.398 -8.528 5.186 -0.715 -0.054 -0.209 -69.705 4244.785 202.668 1.432 0.228 0.023 -0.48 0 -0 0.88
1 6.86 686 -1.039 -8.284 5.090 -0.638 -0.158 -0.242 -54.714 4079.742 187.678 1.082 -0.048 0.068 -0.49 0 -0 0.87
1 6.87 687 -0.426 -8.112 5.229 -0.458 -0.175 -0.260 -54.714 4079.742 187.678 0.486 -0.247 -0.113 -0.49 -0 -0.01 0.87
1 6.88 688 0.335 -8.145 5.454 -0.125 -0.051 -0.218 65.208 4079.742 262.779 -0.254 -0.230 -0.366 -0.49 -0 -0.01 0.87
1 6.89 689 0.666 -8.064 5.469 0.028 0.029 -0.178 65.208 4079.742 262.779 -0.565 -0.316 -0.389 -0.49 -0 -0.01 0.87
1 6.90 690 0.915 -8.021 5.799 0.120 0.059 -0.142 5.247 4094.732 247.639 -0.797 -0.357 -0.715 -0.49 -0 -0.01 0.87
1 6.91 691 0.757 -8.203 5.708 0.107 0.037 -0.088 -84.695 4109.723 232.648 -0.616 -0.158 -0.597 -0.49 -0 -0.01 0.87
1 6.92 692 0.599 -8.500 5.641 0.093 -0.023 -0.054 -69.705 4094.732 202.668 -0.447 0.148 -0.517 -0.49 -0 -0.01 0.87
1 6.93 693 0.321 -8.730 5.502 0.125 -0.061 -0.047 -189.626 4229.794 337.730 -0.160 0.384 -0.367 -0.49 -0 -0.01 0.87
1 6.94 694 0.134 -8.974 5.512 0.162 -0.067 -0.046 -189.626 4229.794 337.730 0.035 0.636 -0.364 -0.49 -0 -0.01 0.87
1 6.95 695 -0.115 -9.084 5.124 0.221 -0.039 -0.038 -84.695 4034.771 262.779 0.290 0.755 0.038 -0.49 -0 -0.01 0.87
1 6.96 696 -0.048 -8.490 4.927 0.344 0.022 -0.040 -84.695 4034.771 262.779 0.226 0.172 0.251 -0.49 -0 -0.01 0.87
1 6.97 697 -0.024 -8.193 5.114 0.336 0.044 -0.037 50.217 4049.762 202.668 0.203 -0.110 0.088 -0.48 -0 -0.01 0.87
1 6.98 698 -0.077 -7.796 5.196 0.242 0.044 -0.022 -189.626 4109.723 292.759 0.255 -0.492 0.031 -0.48 -0 -0.01 0.88
1 6.99 699 -0.139 -7.777 5.598 0.019 -0.007 0.014 -234.597 4184.674 157.697 0.313 -0.490 -0.338 -0.48 -0 -0.01 0.88
1 7.00 700 -0.105 -7.882 5.737 -0.111 -0.031 0.042 -144.656 3974.661 247.639 0.277 -0.383 -0.474 -0.48 -0 -0.01 0.88
1 7.01 701 -0.163 -8.117 5.780 -0.215 -0.040 0.045 -144.656 3974.661 247.639 0.331 -0.152 -0.522 -0.48 -0 -0.01 0.88
1 7.02 702 0.000 -8.318 5.866 -0.281 -0.023 0.035 -159.646 3884.719 157.697 0.165 0.041 -0.621 -0.48 -0 -0.01 0.88
1 7.03 703 0.139 -8.615 5.684 -0.248 -0.007 0.020 -159.646 3884.719 157.697 0.023 0.328 -0.455 -0.48 -0 -0.01 0.88
1 7.04 704 -0.014 -8.825 5.358 -0.146 -0.013 0.001 5.247 4049.762 202.668 0.174 0.528 -0.146 -0.48 -0 -0.01 0.88
1 7.05 705 -0.125 -8.825 5.220 -0.006 -0.002 0.019 -189.626 4184.674 232.648 0.284 0.522 -0.017 -0.48 -0 -0.01 0.87
1 7.06 706 -0.096 -8.883 5.014 0.146 -0.017 0.032 -159.646 4259.775 187.678 0.250 0.580 0.190 -0.48 -0 -0.01 0.87
1 7.07 707 -0.072 -8.907 5.052 0.216 -0.032 0.034 -144.656 4139.703 352.720 0.224 0.611 0.163 -0.48 -0 -0.01 0.88
1 7.08 708 0.024 -9.007 5.320 0.249 -0.003 0.048 -144.806 4140.752 353.020 0.125 0.721 -0.090 -0.48 -0 -0.01 0.88
1 7.09 709 0.019 -9.108 5.243 0.251 0.032 0.060 -69.854 4050.811 353.020 0.126 0.833 0.004 -0.48 -0 -0.01 0.88
1 7.10 710 0.096 -9.060 5.334 0.214 0.048 0.067 -69.854 4050.811 353.020 0.042 0.795 -0.070 -0.48 -0 -0.01 0.88
1 7.11 711 0.153 -8.998 5.301 0.140 0.060 0.070 -189.776 4080.792 263.079 -0.022 0.741 -0.024 -0.48 -0 -0.01 0.88
1 7.12 712 0.048 -8.816 5.358 0.110 0.043 0.052 -54.864 4080.792 263.079 0.076 0.565 -0.071 -0.48 -0 -0.01 0.88
1 7.13 713 -0.125 -8.466 5.301 0.079 0.040 0.028 -159.796 4185.723 188.127 0.236 0.225 0.001 -0.48 -0 -0.01 0.88
1 7.14 714 0.005 -8.361 5.176 0.028 0.034 0.012 -54.864 4080.792 188.127 0.102 0.122 0.130 -0.48 -0 -0.01 0.88
1 7.15 715 -0.014 -8.117 5.172 -0.050 0.023 -0.004 -54.864 4080.792 188.127 0.119 -0.121 0.136 -0.48 0 -0.01 0.88
1 7.16 716 0.043 -8.346 5.167 -0.129 0.018 -0.001 -159.796 4230.694 113.026 0.060 0.107 0.137 -0.48 0 -0.01 0.88
1 7.17 717 0.048 -8.107 5.277 -0.201 0.026 -0.010 -159.796 4230.694 113.026 0.055 -0.140 0.017 -0.48 0 -0.01 0.88
1 7.18 718 0.096 -8.174 5.253 -0.225 0.037 -0.015 -69.854 4050.811 143.157 0.007 -0.081 0.027 -0.48 0 -0.01 0.88
1 7.19 719 0.120 -8.390 5.397 -0.183 0.041 -0.031 -174.786 4095.782 68.056 -0.016 0.125 -0.132 -0.48 0 -0.01 0.88
1 7.20 720 0.144 -8.576 5.464 -0.092 0.056 -0.039 -24.884 4050.811 98.036 -0.039 0.298 -0.219 -0.48 0 -0.01 0.88
1 7.21 721 0.177 -8.385 5.406 -0.042 0.067 -0.046 -309.848 4035.821 113.026 -0.072 0.105 -0.165 -0.48 0 -0.01 0.88
1 7.22 722 0.268 -8.370 5.368 0.035 0.066 -0.061 -309.848 4035.821 113.026 -0.160 0.092 -0.125 -0.48 0 -0.01 0.88
1 7.23 723 0.393 -8.184 5.358 0.084 0.074 -0.072 4.947 4050.811 278.069 -0.282 -0.091 -0.110 -0.48 0 -0.01 0.88
1 7.24 724 0.187 -8.035 5.301 0.161 0.105 -0.087 4.947 4050.811 278.069 -0.073 -0.234 -0.043 -0.48 0 -0.02 0.88
1 7.25 725 0.273 -8.107 5.330 0.204 0.122 -0.122 -144.806 4140.752 323.040 -0.156 -0.154 -0.059 -0.48 0 -0.02 0.88
1 7.26 726 0.105 -8.069 5.277 0.186 0.132 -0.137 -219.907 4170.733 278.069 0.015 -0.182 0.010 -0.48 0 -0.02 0.88
1 7.27 727 0.024 -8.241 5.229 0.159 0.135 -0.137 -219.907 4170.733 278.069 0.101 0.001 0.074 -0.48 0 -0.02 0.88
1 7.28 728 -0.096 -8.208 5.258 0.083 0.097 -0.138 -114.825 4110.772 158.147 0.227 -0.016 0.070 -0.48 0 -0.02 0.88
1 7.29 729 -0.158 -8.265 5.397 0.039 0.071 -0.111 -114.825 4110.772 158.147 0.293 0.045 -0.062 -0.48 0 -0.02 0.88
1 7.30 730 -0.230 -8.380 5.397 0.009 0.056 -0.096 -114.825 4005.690 38.075 0.368 0.163 -0.059 -0.48 0 -0.02 0.88
1 7.31 731 -0.201 -8.562 5.646 -0.020 0.047 -0.061 -114.825 4005.690 38.075 0.340 0.346 -0.306 -0.48 0 -0.02 0.88
1 7.32 732 -0.321 -8.595 5.569 -0.045 0.076 -0.005 -159.796 4185.723 158.147 0.459 0.380 -0.229 -0.48 0 -0.02 0.88
1 7.33 733 -0.278 -8.658 5.588 -0.065 0.079 0.023 -99.835 4170.733 278.069 0.411 0.441 -0.249 -0.48 0 -0.02 0.88
1 7.34 734 -0.283 -8.639 5.516 -0.063 0.089 0.038 -99.835 4170.733 278.069 0.409 0.420 -0.180 -0.48 0 -0.02 0.88
1 7.35 735 -0.168 -8.720 5.349 0.012 0.082 0.060 -219.907 4140.752 143.157 0.275 0.498 -0.017 -0.48 0.01 -0.02 0.88
1 7.36 736 -0.182 -8.528 5.521 0.059 0.091 0.058 -219.907 4140.752 143.157 0.279 0.308 -0.187 -0.48 0.01 -0.02 0.88
1 7.37 737 -0.244 -8.428 5.454 0.081 0.100 0.061 -54.864 4230.694 113.026 0.331 0.211 -0.114 -0.48 0.01 -0.02 0.88
1 7.38 738 -0.302 -8.289 5.459 0.094 0.086 0.052 -54.864 4230.694 113.026 0.378 0.077 -0.111 -0.48 0.01 -0.02 0.88
1 7.39 739 -0.254 -8.198 5.378 0.087 0.083 0.043 -309.848 4155.743 188.127 0.319 -0.008 -0.021 -0.48 0.01 -0.02 0.88
1 7.40 740 -0.081 -8.179 5.392 0.061 0.055 0.035 -99.835 4170.733 143.157 0.138 -0.023 -0.028 -0.48 0.01 -0.02 0.88
1 7.41 741 -0.081 -8.107 5.315 0.056 0.057 0.013 -99.835 4170.733 143.157 0.132 -0.090 0.055 -0.48 0.01 -0.02 0.88
1 7.42 742 0.115 -8.222 5.430 0.072 0.047 0.011 -144.806 4140.752 143.157 -0.069 0.028 -0.054 -0.47 0.01 -0.02 0.88
1 7.43 743 0.091 -8.390 5.449 0.075 0.033 -0.008 -189.776 4110.772 188.127 -0.050 0.204 -0.061 -0.47 0.01 -0.02 0.88
1 7.44 744 -0.048 -8.318 5.555 0.069 0.034 -0.010 -279.868 4215.704 98.036 0.088 0.136 -0.160 -0.47 0.01 -0.02 0.88
1 7.45 745 0.120 -8.332 5.334 0.029 0.026 -0.017 -279.868 4215.704 98.036 -0.080 0.154 0.066 -0.47 0.01 -0.02 0.88
1 7.46 746 0.067 -8.356 5.440 0.001 -0.007 -0.029 -174.786 4140.752 23.085 -0.026 0.180 -0.037 -0.47 0.01 -0.02 0.88
1 7.47 747 0.177 -8.308 5.315 -0.032 -0.023 -0.034 -174.786 4095.782 203.118 -0.133 0.133 0.088 -0.47 0.01 -0.02 0.88
1 7.48 748 0.220 -8.299 5.425 -0.052 -0.024 -0.026 -174.786 4095.782 203.118 -0.172 0.122 -0.023 -0.47 0.01 -0.02 0.88
1 7.49 749 0.163 -8.346 5.349 -0.041 -0.005 -0.027 -144.806 4215.704 68.056 -0.109 0.168 0.051 -0.47 0.01 -0.02 0.88
1 7.50 750 0.105 -8.327 5.363 -0.006 0.023 -0.016 -279.868 4050.811 98.036 -0.047 0.147 0.032 -0.47 0.01 -0.03 0.88
1 7.51 751 0.148 -8.284 5.411 0.035 0.038 -0.004 -234.897 4005.690 113.026 -0.090 0.104 -0.015 -0.47 0.01 -0.03 0.88
1 7.52 752 0.101 -8.394 5.459 0.045 0.050 0.014 -234.897 4005.690 113.026 -0.043 0.216 -0.059 -0.47 0.01 -0.03 0.88
1 7.53 753 -0.019 -8.174 5.339 0.045 0.066 0.009 -25.034 3947.378 -51.716 0.074 -0.001 0.065 -0.47 0.01 -0.03 0.88
1 7.54 754 -0.129 -8.270 5.430 0.034 0.064 0.002 -220.057 4142.401 98.186 0.180 0.097 -0.022 -0.47 0.01 -0.03 0.88
1 7.55 755 -0.125 -8.385 5.411 0.029 0.068 -0.002 -220.057 4142.401 98.186 0.171 0.214 -0.000 -0.47 0.01 -0.03 0.88
1 7.56 756 -0.115 -8.519 5.354 0.046 0.064 -0.004 -145.105 4022.330 248.238 0.159 0.350 0.060 -0.47 0.01 -0.03 0.88
1 7.57 757 -0.153 -8.605 5.421 0.069 0.043 0.006 -100.135 4097.431 -51.716 0.192 0.441 0.000 -0.47 0.01 -0.03 0.88
1 7.58 758 -0.268 -8.528 5.291 0.080 0.031 -0.005 -100.135 4097.431 173.137 0.303 0.368 0.134 -0.47 0.01 -0.03 0.88
1 7.59 759 -0.225 -8.552 5.382 0.075 0.013 -0.006 -100.135 4097.431 173.137 0.257 0.395 0.049 -0.47 0.01 -0.03 0.88
1 7.60 760 -0.034 -8.524 5.526 0.081 0.002 -0.010 -115.125 3932.388 8.245 0.064 0.370 -0.089 -0.47 0.01 -0.03 0.88
1 7.61 761 0.005 -8.318 5.502 0.039 0.010 -0.010 -115.125 4082.291 38.225 0.025 0.168 -0.060 -0.47 0.01 -0.03 0.88
1 7.62 762 0.067 -8.260 5.339 0.003 -0.016 -0.004 -115.125 4082.291 38.225 -0.037 0.112 0.106 -0.47 0.01 -0.03 0.88
1 7.63 763 -0.014 -8.088 5.378 -0.019 -0.021 -0.010 -235.047 4187.372 8.245 0.046 -0.059 0.069 -0.47 0.01 -0.03 0.88
1 7.64 764 0.077 -8.112 5.354 -0.025 -0.023 0.008 -190.076 4082.291 113.176 -0.043 -0.036 0.092 -0.47 0.01 -0.03 0.88
1 7.65 765 -0.034 -8.035 5.368 -0.019 -0.014 -0.006 -235.047 4112.421 8.245 0.067 -0.113 0.077 -0.47 0.01 -0.03 0.88
1 7.66 766 -0.038 -7.944 5.334 -0.019 -0.014 -0.009 -235.047 4112.421 8.245 0.072 -0.203 0.111 -0.47 0.01 -0.03 0.88
1 7.67 767 0.000 -7.834 5.387 -0.017 -0.008 -0.012 -145.105 4172.382 143.157 0.035 -0.313 0.059 -0.47 0.01 -0.03 0.88
1 7.68 768 0.125 -8.040 5.382 -0.019 0.013 -0.022 -175.086 4097.431 68.206 -0.089 -0.107 0.064 -0.47 0.01 -0.03 0.88
1 7.69 769 -0.091 -8.193 5.516 -0.035 0.022 -0.023 -175.086 4097.431 68.206 0.128 0.046 -0.070 -0.47 0.01 -0.03 0.88
1 7.70 770 0.014 -8.366 5.560 -0.026 0.026 -0.034 -160.096 4112.421 38.225 0.023 0.218 -0.113 -0.47 0.01 -0.03 0.88
1 7.71 771 -0.048 -8.524 5.497 -0.026 0.020 -0.045 4.797 4052.310 203.118 0.086 0.376 -0.052 -0.47 0.01 -0.03 0.88
1 7.72 772 0.034 -8.409 5.526 0.004 0.005 -0.056 -190.076 4157.392 8.245 0.010 0.260 -0.082 -0.47 0.01 -0.03 0.88
1 7.73 773 0.000 -8.327 5.311 0.022 0.018 -0.062 -190.076 4157.392 8.245 0.046 0.180 0.135 -0.47 0.01 -0.03 0.88
1 7.74 774 0.048 -8.284 5.258 0.034 0.027 -0.051 -250.037 4142.401 68.206 0.002 0.138 0.190 -0.47 0.01 -0.03 0.88
1 7.75 775 -0.038 -8.126 5.229 0.048 0.023 -0.044 -100.135 4172.382 -6.596 0.090 -0.018 0.221 -0.47 0.01 -0.03 0.88
1 7.76 776 -0.019 -8.145 5.306 0.072 0.011 -0.024 -100.135 4172.382 -6.596 0.073 0.003 0.148 -0.47 0.01 -0.03 0.88
1 7.77 777 -0.091 -8.275 5.349 0.081 -0.017 -0.019 -250.037 4217.353 173.137 0.146 0.136 0.110 -0.47 0.01 -0.03 0.88
1 7.78 778 -0.230 -8.256 5.387 0.066 -0.047 -0.016 -190.076 3887.417 233.248 0.286 0.121 0.079 -0.47 0.01 -0.03 0.88
1 7.79 779 -0.273 -8.433 5.631 0.003 -0.050 -0.018 -175.086 3977.359 143.157 0.333 0.304 -0.158 -0.47 0.01 -0.03 0.88
1 7.80 780 -0.421 -8.399 5.483 -0.019 -0.059 -0.008 -175.086 3977.359 143.157 0.483 0.271 -0.009 -0.47 0.01 -0.03 0.88
1 7.81 781 -0.306 -8.366 5.631 -0.029 -0.066 -0.006 -265.027 4187.372 83.196 0.368 0.236 -0.159 -0.47 0.01 -0.03 0.88
1 7.82 782 -0.062 -8.380 5.598 -0.025 -0.059 0.003 -190.076 4112.421 83.196 0.125 0.250 -0.126 -0.47 0.01 -0.03 0.88
1 7.83 783 0.029 -8.471 5.603 -0.052 -0.033 0.005 -190.076 4112.421 83.196 0.035 0.340 -0.132 -0.47 0.01 -0.03 0.88
1 7.84 784 0.249 -8.323 5.454 -0.079 -0.001 0.044 -265.027 4112.421 83.196 -0.185 0.190 0.014 -0.47 0.01 -0.03 0.88
1 7.85 785 0.374 -8.457 5.670 -0.083 0.012 0.060 -235.047 3962.369 38.225 -0.310 0.322 -0.205 -0.47 0.01 -0.03 0.88
1 7.86 786 0.326 -8.351 5.473 -0.063 0.023 0.082 -235.047 3962.369 38.225 -0.265 0.213 -0.014 -0.47 0.01 -0.03 0.88
1 7.87 787 0.445 -8.509 5.646 -0.028 0.031 0.087 -100.135 4217.353 -81.697 -0.395 0.367 -0.192 -0.47 0.01 -0.03 0.88
1 7.88 788 0.393 -8.485 5.627 -0.018 0.032 0.084 -325.138 4097.431 173.137 -0.347 0.343 -0.174 -0.47 0.01 -0.03 0.88
1 7.89 789 0.249 -8.595 5.770 -0.038 0.037 0.066 -250.037 4172.382 143.157 -0.208 0.453 -0.318 -0.47 0.01 -0.03 0.88
1 7.90 790 0.196 -8.514 5.689 -0.035 0.031 0.050 -250.037 4172.382 143.157 -0.159 0.371 -0.237 -0.47 0.01 -0.03 0.88
1 7.91 791 0.105 -8.418 5.670 -0.005 0.031 0.028 -175.086 3977.359 173.137 -0.072 0.274 -0.218 -0.47 0.01 -0.03 0.88
1 7.92 792 -0.043 -8.351 5.689 0.030 0.037 -0.004 -265.027 4232.343 -21.586 0.074 0.208 -0.237 -0.47 0.01 -0.03 0.88
1 7.93 793 0.029 -8.275 5.555 0.048 0.039 -0.020 -265.027 4232.343 -21.586 0.001 0.133 -0.100 -0.47 0.02 -0.03 0.88
1 7.94 794 -0.249 -8.088 5.550 0.069 0.043 -0.043 -265.027 3932.388 233.248 0.277 -0.046 -0.084 -0.47 0.02 -0.03 0.88
1 7.95 795 -0.374 -8.165 5.646 0.056 0.017 -0.050 -235.047 4187.372 8.245 0.401 0.035 -0.173 -0.47 0.02 -0.03 0.88
1 7.96 796 -0.378 -8.174 5.502 0.038 -0.003 -0.054 -160.096 4082.291 83.196 0.407 0.049 -0.023 -0.47 0.02 -0.03 0.88
1 7.97 797 -0.287 -8.217 5.545 0.033 -0.036 -0.053 -160.096 4082.291 83.196 0.318 0.095 -0.062 -0.47 0.02 -0.03 0.88
1 7.98 798 -0.359 -8.083 5.636 0.010 -0.056 -0.030 -160.096 4082.291 83.196 0.392 -0.037 -0.149 -0.47 0.02 -0.03 0.88
1 7.99 799 -0.326 -8.117 5.483 -0.001 -0.085 -0.012 -100.135 4172.382 98.186 0.362 -0.001 0.007 -0.47 0.02 -0.03 0.88
1 8.00 800 -0.158 -8.136 5.516 -0.015 -0.103 0.003 -100.135 4172.382 98.186 0.197 0.019 -0.025 -0.47 0.02 -0.03 0.88
1 8.01 801 -0.067 -8.097 5.612 -0.039 -0.105 0.040 -160.096 4007.339 38.225 0.110 -0.020 -0.122 -0.47 0.01 -0.03 0.88
1 8.02 802 0.067 -8.102 5.593 -0.043 -0.085 0.058 -190.076 4082.291 83.196 -0.023 -0.016 -0.104 -0.47 0.01 -0.03 0.88
1 8.03 803 0.110 -8.141 5.646 -0.028 -0.072 0.056 -220.057 4217.353 173.137 -0.065 0.022 -0.158 -0.47 0.01 -0.03 0.88
1 8.04 804 0.091 -7.949 5.598 0.006 -0.056 0.063 -220.057 4217.353 173.137 -0.047 -0.169 -0.109 -0.47 0.01 -0.03 0.88
1 8.05 805 0.345 -8.165 5.641 0.045 -0.030 0.064 -280.018 4022.330 143.157 -0.302 0.048 -0.149 -0.47 0.01 -0.03 0.88
1 8.06 806 0.259 -8.093 5.861 0.058 0.008 0.051 -115.125 3962.369 158.147 -0.217 -0.020 -0.364 -0.47 0.01 -0.03 0.88
1 8.07 807 0.101 -8.150 5.876 0.050 0.012 0.035 -115.125 3962.369 158.147 -0.062 0.042 -0.371 -0.47 0.01 -0.03 0.88
1 8.08 808 0.134 -8.136 5.871 0.026 0.012 0.025 -175.086 4142.401 23.235 -0.099 0.036 -0.354 -0.47 0.01 -0.03 0.88
1 8.09 809 0.302 -8.284 5.871 0.008 0.031 0.023 -175.086 4097.431 98.186 -0.269 0.187 -0.350 -0.47 0.01 -0.03 0.88
1 8.10 810 0.187 -8.246 5.617 -0.013 0.039 0.014 -190.076 4187.372 233.248 -0.155 0.151 -0.094 -0.47 0.01 -0.03 0.88
1 8.11 811 0.163 -8.251 5.512 -0.020 0.047 0.018 -190.076 4187.372 233.248 -0.133 0.156 0.012 -0.47 0.01 -0.03 0.88
1 8.12 812 0.067 -8.246 5.574 -0.030 0.039 0.026 -10.043 4082.291 113.176 -0.041 0.151 -0.051 -0.47 0.02 -0.03 0.88
1 8.13 813 0.057 -8.179 5.397 -0.020 0.012 0.042 -220.057 4097.431 173.137 -0.035 0.083 0.126 -0.47 0.02 -0.03 0.88
1 8.14 814 -0.115 -8.136 5.473 -0.005 -0.018 0.037 -220.057 4097.431 173.137 0.135 0.039 0.048 -0.47 0.02 -0.03 0.88
1 8.15 815 -0.115 -8.232 5.411 0.011 -0.051 0.032 -220.057 4292.304 -6.596 0.132 0.135 0.110 -0.47 0.02 -0.03 0.88
1 8.16 816 -0.259 -8.227 5.612 0.017 -0.064 0.040 -175.086 4217.353 23.235 0.274 0.132 -0.088 -0.47 0.02 -0.03 0.88
1 8.17 817 -0.268 -8.203 5.579 0.005 -0.080 0.040 -235.047 4262.323 83.196 0.282 0.110 -0.053 -0.47 0.02 -0.03 0.88
1 8.18 818 -0.297 -8.241 5.756 -0.003 -0.071 0.038 -235.047 4262.323 83.196 0.309 0.149 -0.228 -0.47 0.02 -0.03 0.88
1 8.19 819 -0.211 -8.327 5.818 -0.010 -0.060 0.030 -25.034 4022.330 143.157 0.222 0.236 -0.289 -0.47 0.02 -0.03 0.88
1 8.20 820 0.043 -8.160 5.842 -0.029 -0.045 0.025 -190.076 4112.421 38.225 -0.033 0.069 -0.312 -0.47 0.02 -0.03 0.88
1 8.21 821 0.211 -8.303 5.746 -0.035 -0.034 0.020 -190.076 4112.421 38.225 -0.201 0.212 -0.217 -0.47 0.02 -0.03 0.88
1 8.22 822 0.105 -8.284 5.651 -0.042 -0.037 0.023 -160.096 4112.421 38.225 -0.096 0.194 -0.121 -0.47 0.02 -0.03 0.88
1 8.23 823 0.330 -8.260 5.603 -0.041 -0.028 0.004 -85.145 4112.421 188.127 -0.316 0.167 -0.076 -0.47 0.01 -0.03 0.88
1 8.24 824 0.445 -8.251 5.512 -0.027 -0.030 0.009 -160.096 4157.392 158.147 -0.428 0.157 0.014 -0.47 0.01 -0.03 0.88
1 8.25 825 0.388 -8.236 5.560 -0.021 -0.025 0.009 -160.096 4157.392 158.147 -0.367 0.142 -0.034 -0.47 0.01 -0.03 0.88
1 8.26 826 0.503 -8.150 5.674 -0.006 -0.019 -0.001 -265.027 4082.291 83.196 -0.479 0.056 -0.149 -0.47 0.01 -0.03 0.88
1 8.27 827 0.273 -8.342 5.655 0.017 -0.014 -0.009 -100.135 4022.330 143.157 -0.244 0.249 -0.129 -0.47 0.01 -0.03 0.88
1 8.28 828 0.163 -8.260 5.799 0.032 -0.004 -0.028 -100.135 4022.330 143.157 -0.130 0.169 -0.270 -0.47 0.01 -0.03 0.88
1 8.29 829 0.019 -8.294 5.847 0.030 0.000 -0.038 -235.047 4037.320 38.225 0.019 0.205 -0.314 -0.47 0.01 -0.03 0.88
1 8.30 830 -0.038 -8.437 5.722 0.017 -0.002 -0.061 -340.128 4112.421 158.147 0.083 0.355 -0.181 -0.47 0.01 -0.03 0.88
1 8.31 831 -0.081 -8.414 5.799 0.014 0.006 -0.062 -175.086 4097.431 173.137 0.130 0.333 -0.255 -0.47 0.01 -0.03 0.88
1 8.32 832 -0.062 -8.299 5.976 -0.001 -0.005 -0.079 -175.086 4097.431 173.137 0.115 0.219 -0.431 -0.47 0.01 -0.03 0.88
1 8.33 833 -0.158 -8.260 5.923 0.007 -0.007 -0.092 -100.135 4097.431 68.206 0.215 0.182 -0.375 -0.47 0.01 -0.03 0.88
1 8.34 834 -0.182 -8.351 5.923 0.009 -0.005 -0.080 -190.076 4037.320 8.245 0.244 0.276 -0.372 -0.47 0.01 -0.03 0.88
1 8.35 835 0.034 -8.241 5.890 -0.002 -0.022 -0.074 -190.076 4037.320 8.245 0.033 0.167 -0.336 -0.47 0.01 -0.03 0.88
1 8.36 836 -0.134 -8.284 5.928 0.005 -0.035 -0.069 -145.105 4172.382 323.189 0.205 0.212 -0.372 -0.47 0.01 -0.03 0.88
1 8.37 837 -0.053 -8.184 5.885 0.014 -0.050 -0.055 -145.105 4172.382 323.189 0.129 0.113 -0.326 -0.46 0.01 -0.03 0.88
1 8.38 838 0.024 -8.083 5.785 0.041 -0.063 -0.026 -220.057 4052.310 -6.596 0.062 0.018 -0.218 -0.46 0.01 -0.03 0.88
1 8.39 839 0.144 -8.121 5.722 0.062 -0.055 -0.013 -220.057 4052.310 -6.596 -0.053 0.060 -0.150 -0.46 0.01 -0.03 0.88
1 8.40 840 0.000 -7.987 5.727 0.087 -0.046 -0.014 -190.076 4082.291 83.196 0.095 -0.069 -0.148 -0.46 0.01 -0.03 0.89
1 8.41 841 -0.081 -7.906 5.732 0.113 -0.043 -0.018 -115.125 4157.392 -66.707 0.180 -0.144 -0.144 -0.46 0.01 -0.03 0.89
1 8.42 842 0.091 -7.944 5.765 0.120 -0.050 -0.020 -115.125 4157.392 -66.707 0.010 -0.099 -0.167 -0.46 0.01 -0.03 0.89
1 8.43 843 0.014 -7.839 5.813 0.124 -0.043 -0.034 -250.037 4172.382 -6.596 0.090 -0.196 -0.204 -0.46 0.01 -0.03 0.89
1 8.44 844 0.014 -7.963 5.928 0.107 -0.031 -0.022 -250.037 4172.382 -6.596 0.093 -0.064 -0.307 -0.46 0.01 -0.03 0.89
1 8.45 845 -0.129 -7.963 5.904 0.091 -0.022 -0.026 -220.057 4097.431 23.235 0.241 -0.049 -0.262 -0.46 0.01 -0.03 0.89
1 8.46 846 0.096 -8.093 5.928 0.051 -0.017 -0.018 -220.057 4097.431 23.235 0.017 0.087 -0.277 -0.46 0.01 -0.03 0.89
1 8.47 847 -0.014 -8.208 5.828 0.044 -0.012 -0.019 -340.128 4082.291 8.245 0.129 0.206 -0.171 -0.46 0.01 -0.04 0.89
1 8.48 848 -0.014 -8.313 5.919 0.027 -0.022 -0.003 -220.057 4052.310 68.206 0.130 0.315 -0.257 -0.46 0.01 -0.04 0.89
1 8.49 849 0.139 -8.246 5.751 0.042 -0.007 0.013 -220.057 4052.310 68.206 -0.023 0.250 -0.086 -0.46 0.01 -0.04 0.89
1 8.50 850 0.029 -8.370 5.809 0.083 -0.004 0.028 -385.099 4082.291 113.176 0.086 0.378 -0.139 -0.46 0.01 -0.04 0.89
1 8.51 851 0.105 -8.270 5.751 0.097 -0.010 0.040 -385.099 4082.291 113.176 0.008 0.282 -0.075 -0.46 0.01 -0.04 0.89
1 8.52 852 -0.024 -8.069 5.651 0.080 -0.022 0.052 -310.148 4112.421 83.196 0.132 0.091 0.041 -0.46 0.01 -0.04 0.89
1 8.53 853 -0.105 -7.872 5.593 0.074 -0.023 0.037 -310.148 4112.421 83.196 0.212 -0.100 0.104 -0.46 0.01 -0.04 0.89
1 8.54 854 -0.187 -7.877 5.478 0.025 -0.027 0.046 -160.096 4232.343 -66.707 0.289 -0.093 0.224 -0.46 0.01 -0.04 0.89
1 8.55 855 -0.254 -7.954 5.607 0.009 -0.039 0.046 -235.047 4082.291 113.176 0.353 -0.015 0.096 -0.46 0.01 -0.04 0.89
1 8.56 856 -0.311 -7.911 5.488 0.013 -0.045 0.048 -235.047 4082.291 113.176 0.406 -0.057 0.217 -0.46 0.01 -0.03 0.89
1 8.57 857 -0.244 -7.920 5.459 0.011 -0.062 0.034 -160.096 4112.421 -21.586 0.336 -0.047 0.247 -0.46 0.01 -0.03 0.89
1 8.58 858 -0.101 -8.112 5.564 0.014 -0.067 0.045 -160.096 4112.421 -21.586 0.191 0.145 0.142 -0.46 0.01 -0.03 0.89
1 8.59 859 -0.014 -8.212 5.612 0.006 -0.073 0.046 -280.018 4292.304 68.206 0.103 0.246 0.095 -0.46 0.01 -0.03 0.89
1 8.60 860 0.043 -8.131 5.483 0.009 -0.064 0.065 -265.027 4037.320 83.196 0.044 0.166 0.225 -0.46 0.01 -0.03 0.89
1 8.61 861 0.340 -8.126 5.603 -0.003 -0.074 0.070 -340.128 4112.421 -66.707 -0.254 0.161 0.106 -0.46 0.01 -0.03 0.89
1 8.62 862 0.369 -8.117 5.492 -0.020 -0.074 0.079 -175.086 4097.431 -111.677 -0.283 0.151 0.216 -0.46 0.01 -0.03 0.89
1 8.63 863 0.522 -8.030 5.464 -0.049 -0.060 0.072 -175.086 4097.431 -111.677 -0.435 0.063 0.242 -0.46 0.01 -0.03 0.89
1 8.64 864 0.421 -8.093 5.497 -0.074 -0.058 0.063 -175.086 4052.310 68.206 -0.334 0.123 0.205 -0.46 0.01 -0.03 0.89
1 8.65 865 0.412 -8.059 5.579 -0.091 -0.059 0.045 -175.086 4052.310 68.206 -0.323 0.086 0.118 -0.46 0.01 -0.03 0.89
1 8.66 866 0.565 -8.050 5.641 -0.108 -0.060 0.031 -340.128 4082.291 -96.687 -0.474 0.072 0.050 -0.46 0.01 -0.03 0.89
1 8.67 867 0.359 -8.160 5.569 -0.113 -0.027 0.015 -250.037 4052.310 143.157 -0.261 0.172 0.108 -0.46 0.01 -0.03 0.89
1 8.68 868 0.278 -8.169 5.684 -0.098 -0.019 -0.006 -145.105 4097.431 -51.716 -0.177 0.176 -0.015 -0.46 0.01 -0.03 0.89
1 8.69 869 0.125 -8.346 5.679 -0.069 -0.001 -0.029 -220.057 4172.382 -51.716 -0.021 0.349 -0.017 -0.46 0.01 -0.03 0.89
1 8.70 870 0.311 -8.452 5.737 -0.035 -0.005 -0.030 -220.057 4172.382 -51.716 -0.205 0.451 -0.078 -0.46 0.01 -0.03 0.89
1 8.71 871 0.086 -8.538 5.804 0.002 0.006 -0.037 -145.105 4097.431 -6.596 0.023 0.536 -0.147 -0.46 0.01 -0.03 0.89
1 8.72 872 0.014 -8.572 5.823 0.007 -0.017 -0.025 -145.105 4097.431 -6.596 0.098 0.570 -0.165 -0.46 0.01 -0.03 0.89
1 8.73 873 0.010 -8.466 5.655 -0.018 -0.029 -0.014 -220.057 4022.330 -51.716 0.105 0.465 0.002 -0.46 0.01 -0.03 0.89
1 8.74 874 0.048 -8.505 5.651 -0.028 -0.078 0.006 -325.138 4022.330 173.137 0.071 0.501 0.003 -0.46 0.01 -0.03 0.89
1 8.75 875 0.139 -8.361 5.727 -0.035 -0.087 0.005 -280.018 4172.382 98.186 -0.017 0.355 -0.076 -0.46 0.01 -0.03 0.89
1 8.76 876 0.249 -8.318 5.674 -0.045 -0.098 0.031 -250.037 4052.310 173.137 -0.124 0.310 -0.026 -0.46 0.01 -0.03 0.89
1 8.77 877 0.211 -8.203 5.742 -0.046 -0.103 0.045 -250.037 4052.310 173.137 -0.082 0.194 -0.096 -0.46 0.01 -0.03 0.89
1 8.78 878 0.144 -8.064 5.732 -0.062 -0.097 0.045 -220.057 4097.431 98.186 -0.012 0.053 -0.089 -0.46 0.01 -0.03 0.89
1 8.79 879 0.225 -8.150 5.746 -0.076 -0.074 0.059 -220.057 4097.431 98.186 -0.092 0.137 -0.106 -0.46 0.01 -0.03 0.89
1 8.80 880 0.306 -8.040 5.761 -0.081 -0.064 0.048 -265.027 4112.421 38.225 -0.173 0.024 -0.124 -0.46 0.01 -0.03 0.89
1 8.81 881 0.402 -7.978 5.751 -0.080 -0.053 0.053 -85.145 4112.421 -21.586 -0.268 -0.041 -0.119 -0.46 0.01 -0.03 0.89
1 8.82 882 0.426 -8.083 5.569 -0.073 -0.036 0.032 -220.057 4142.401 68.206 -0.291 0.059 0.056 -0.46 0.01 -0.03 0.89
1 8.83 883 0.555 -8.131 5.588 -0.068 -0.025 0.051 -220.057 4172.382 -6.596 -0.419 0.104 0.032 -0.46 0.01 -0.03 0.89
1 8.84 884 0.527 -8.150 5.531 -0.032 -0.014 0.042 -220.057 4172.382 -6.596 -0.390 0.121 0.087 -0.46 0.01 -0.03 0.89
1 8.85 885 0.551 -8.193 5.694 0.019 -0.012 0.039 -265.027 4157.392 38.225 -0.413 0.164 -0.077 -0.46 0.01 -0.03 0.89
1 8.86 886 0.498 -8.141 5.564 0.052 -0.001 0.032 -265.027 4157.392 38.225 -0.360 0.113 0.055 -0.46 0.01 -0.03 0.89
1 8.87 887 0.374 -8.026 5.641 0.054 -0.022 0.009 -85.145 4037.320 38.225 -0.235 0.001 -0.017 -0.46 0.01 -0.03 0.89
1 8.88 888 0.359 -7.983 5.727 0.015 -0.029 0.007 -325.138 4172.382 -6.596 -0.218 -0.038 -0.098 -0.46 0.01 -0.03 0.89
1 8.89 889 0.201 -8.093 5.679 -0.028 -0.044 -0.007 -175.086 4142.401 173.137 -0.055 0.075 -0.046 -0.46 0.01 -0.03 0.89
1 8.90 890 0.239 -7.935 5.612 -0.059 -0.053 -0.006 -220.057 3977.359 -51.716 -0.090 -0.084 0.020 -0.46 0.01 -0.03 0.89
1 8.91 891 0.187 -7.978 5.492 -0.059 -0.062 -0.006 -220.057 3977.359 -51.716 -0.033 -0.043 0.137 -0.46 0.01 -0.03 0.89
1 8.92 892 0.172 -8.011 5.603 -0.064 -0.070 -0.011 -70.154 4097.431 143.157 -0.015 -0.011 0.023 -0.46 0.01 -0.03 0.89
1 8.93 893 0.053 -8.026 5.373 -0.063 -0.076 0.006 -70.154 4097.431 143.157 0.108 0.001 0.250 -0.46 0.01 -0.03 0.89
1 8.94 894 0.225 -8.145 5.402 -0.062 -0.073 0.020 -175.086 4142.401 173.137 -0.062 0.118 0.217 -0.46 0.01 -0.03 0.89
1 8.95 895 0.254 -8.054 5.459 -0.049 -0.071 0.038 -175.086 4247.333 23.235 -0.088 0.024 0.155 -0.46 0.01 -0.03 0.89
1 8.96 896 0.441 -8.375 5.440 0.007 -0.061 0.059 -280.018 4052.310 98.186 -0.272 0.341 0.169 -0.46 0.01 -0.03 0.89
1 8.97 897 0.235 -8.198 5.483 0.014 -0.055 0.072 -265.027 4232.343 8.245 -0.066 0.164 0.126 -0.46 0.01 -0.03 0.89
1 8.98 898 0.187 -8.375 5.612 0.022 -0.063 0.075 -265.027 4232.343 8.245 -0.019 0.342 -0.001 -0.46 0.01 -0.03 0.89
1 8.99 899 0.283 -8.356 5.761 0.015 -0.063 0.066 -145.105 4052.310 23.235 -0.116 0.324 -0.149 -0.46 0.01 -0.03 0.89
1 9.00 900 0.278 -8.366 5.761 0.002 -0.059 0.050 -145.105 4052.310 23.235 -0.112 0.335 -0.147 -0.46 0.01 -0.03 0.89
1 9.01 901 0.230 -8.351 5.823 -0.019 -0.044 0.027 -310.148 4037.320 -21.586 -0.063 0.321 -0.208 -0.46 0.01 -0.03 0.89
1 9.02 902 0.259 -8.236 5.651 -0.055 -0.038 0.002 -235.047 4112.421 -66.707 -0.091 0.206 -0.036 -0.46 0.01 -0.03 0.89
1 9.03 903 0.374 -8.236 5.579 -0.092 -0.055 -0.005 -235.047 4112.421 -66.707 -0.203 0.204 0.034 -0.46 0.01 -0.03 0.89
1 9.04 904 0.230 -8.198 5.440 -0.077 -0.053 -0.017 -235.047 4082.291 113.176 -0.051 0.158 0.161 -0.46 0.01 -0.03 0.89
1 9.05 905 0.335 -8.217 5.507 -0.059 -0.049 -0.023 -235.047 4082.291 113.176 -0.153 0.174 0.089 -0.46 0.01 -0.03 0.89
1 9.06 906 0.239 -8.174 5.617 -0.052 -0.049 -0.011 -250.037 4097.431 -6.596 -0.052 0.128 -0.025 -0.46 0.01 -0.03 0.89
1 9.07 907 0.230 -8.102 5.497 -0.048 -0.045 -0.017 -250.037 4097.431 -6.596 -0.039 0.055 0.092 -0.46 0.01 -0.03 0.89
1 9.08 908 0.153 -8.112 5.339 -0.049 -0.066 -0.005 -190.076 4112.421 38.225 0.042 0.063 0.247 -0.46 0.01 -0.03 0.89
1 9.09 909 0.096 -7.997 5.488 -0.052 -0.066 0.001 -235.047 4037.320 38.225 0.103 -0.055 0.096 -0.46 0 -0.03 0.89
1 9.10 910 0.014 -7.896 5.397 -0.059 -0.062 -0.002 -235.047 4037.320 38.225 0.188 -0.158 0.183 -0.46 0 -0.03 0.89
1 9.11 911 0.086 -7.839 5.378 -0.054 -0.055 0.010 -145.105 4172.382 23.235 0.119 -0.219 0.197 -0.46 0 -0.03 0.89
1 9.12 912 0.043 -7.959 5.512 -0.053 -0.070 0.005 -145.105 4172.382 23.235 0.163 -0.101 0.060 -0.46 0 -0.03 0.89
1 9.13 913 0.268 -8.217 5.593 -0.063 -0.084 -0.002 -115.125 4037.320 188.127 -0.059 0.156 -0.024 -0.46 0 -0.03 0.88
1 9.14 914 0.220 -8.303 5.440 -0.075 -0.074 0.009 -115.125 4037.320 188.127 -0.008 0.240 0.126 -0.46 0 -0.03 0.88
1 9.15 915 0.383 -8.409 5.607 -0.064 -0.066 0.005 -220.057 4052.310 -6.596 -0.168 0.342 -0.047 -0.47 0 -0.03 0.88
1 9.16 916 0.292 -8.457 5.612 -0.065 -0.026 0.035 -85.145 4037.320 -66.707 -0.074 0.387 -0.056 -0.47 0 -0.03 0.88
1 9.17 917 0.239 -8.399 5.502 -0.076 -0.022 0.041 -85.145 4037.320 -66.707 -0.021 0.326 0.049 -0.47 0 -0.03 0.88
1 9.18 918 0.168 -8.428 5.459 -0.085 -0.030 0.050 -145.105 4052.310 23.235 0.048 0.348 0.082 -0.47 0 -0.03 0.88
1 9.19 919 0.168 -8.308 5.545 -0.087 -0.026 0.060 -145.105 4052.310 23.235 0.045 0.224 -0.010 -0.47 0 -0.03 0.88
1 9.20 920 0.101 -8.275 5.531 -0.097 -0.039 0.059 -190.076 4112.421 -21.586 0.109 0.186 -0.002 -0.47 0 -0.03 0.88
1 9.21 921 -0.029 -8.256 5.502 -0.112 -0.058 0.046 -190.076 4112.421 -21.586 0.236 0.162 0.020 -0.47 0 -0.03 0.88
1 9.22 922 0.067 -8.457 5.521 -0.111 -0.063 0.042 -115.125 4157.392 263.229 0.138 0.359 -0.006 -0.47 0 -0.03 0.88
1 9.23 923 -0.019 -8.514 5.349 -0.075 -0.076 0.036 -190.076 3962.369 38.225 0.224 0.411 0.159 -0.47 0 -0.03 0.88
1 9.24 924 0.120 -8.447 5.358 -0.054 -0.069 0.036 -190.076 3962.369 38.225 0.085 0.339 0.143 -0.47 0 -0.03 0.88
1 9.25 925 0.163 -8.533 5.449 -0.002 -0.067 0.041 -265.027 4157.392 113.176 0.041 0.422 0.047 -0.47 0 -0.03 0.88
1 9.26 926 0.235 -8.423 5.531 0.006 -0.086 0.046 -220.057 4142.401 23.235 -0.030 0.311 -0.036 -0.47 0 -0.03 0.88
1 9.27 927 0.321 -8.284 5.540 0.021 -0.092 0.043 -235.047 4082.291 38.225 -0.114 0.173 -0.044 -0.47 0 -0.03 0.88
1 9.28 928 0.239 -8.150 5.607 -0.022 -0.089 0.048 -235.047 4082.291 38.225 -0.030 0.040 -0.110 -0.47 0 -0.03 0.88
1 9.29 929 0.311 -8.117 5.469 -0.048 -0.088 0.038 -235.047 4082.291 -21.586 -0.100 0.006 0.027 -0.47 0 -0.03 0.88
1 9.30 930 0.321 -8.131 5.502 -0.081 -0.097 0.026 -265.027 4082.291 83.196 -0.106 0.018 -0.009 -0.47 0 -0.03 0.88
1 9.31 931 0.397 -8.394 5.301 -0.107 -0.078 0.021 -265.027 4082.291 83.196 -0.179 0.278 0.187 -0.47 0 -0.03 0.88
1 9.32 932 0.321 -8.284 5.311 -0.094 -0.065 0.014 -115.125 4232.343 158.147 -0.099 0.164 0.171 -0.47 0 -0.03 0.88
1 9.33 933 0.273 -8.481 5.220 -0.071 -0.063 0.010 -190.076 4007.339 83.196 -0.043 0.352 0.249 -0.47 0 -0.03 0.88
1 9.34 934 0.326 -8.323 5.301 -0.039 -0.049 0.011 -85.145 4082.291 83.196 -0.093 0.190 0.163 -0.47 0 -0.03 0.88
1 9.35 935 0.292 -8.375 5.215 -0.044 -0.058 0.008 -85.145 4082.291 83.196 -0.057 0.241 0.246 -0.47 0 -0.03 0.88
1 9.36 936 0.201 -8.313 5.191 -0.043 -0.068 0.013 -265.027 4082.291 113.176 0.036 0.176 0.266 -0.47 0 -0.03 0.88
1 9.37 937 0.115 -8.466 5.196 -0.030 -0.071 0.011 -250.037 4172.382 143.157 0.125 0.327 0.257 -0.47 0 -0.03 0.88
1 9.38 938 0.148 -8.404 5.282 -0.013 -0.083 0.019 -250.037 4172.382 143.157 0.094 0.263 0.168 -0.47 -0 -0.03 0.88
1 9.39 939 0.120 -8.519 5.334 -0.022 -0.082 0.016 -235.047 4157.392 83.196 0.125 0.377 0.114 -0.47 -0 -0.03 0.88
1 9.40 940 0.105 -8.586 5.392 -0.030 -0.076 0.023 -55.014 4037.320 8.245 0.144 0.441 0.052 -0.47 -0 -0.03 0.88
1 9.41 941 0.134 -8.629 5.392 -0.036 -0.068 0.031 -265.027 4157.392 8.245 0.117 0.482 0.049 -0.47 -0 -0.03 0.88
1 9.42 942 0.215 -8.663 5.277 -0.044 -0.073 0.034 -265.027 4157.392 8.245 0.036 0.513 0.161 -0.47 -0 -0.03 0.88
1 9.43 943 0.292 -8.600 5.234 -0.044 -0.077 0.046 -190.076 4007.339 83.196 -0.040 0.448 0.199 -0.47 -0 -0.03 0.88
1 9.44 944 0.311 -8.557 5.325 -0.052 -0.079 0.042 -145.105 4097.431 68.206 -0.059 0.402 0.104 -0.47 -0 -0.02 0.88
1 9.45 945 0.306 -8.562 5.263 -0.065 -0.084 0.058 -145.105 4097.431 68.206 -0.053 0.404 0.161 -0.47 -0 -0.02 0.88
1 9.46 946 0.153 -8.663 5.301 -0.072 -0.090 0.061 -85.145 4157.392 83.196 0.101 0.501 0.117 -0.47 -0 -0.02 0.88
1 9.47 947 0.254 -8.452 5.378 -0.096 -0.091 0.056 -175.086 4097.431 23.235 0.001 0.286 0.035 -0.47 -0 -0.02 0.88
1 9.48 948 0.206 -8.481 5.392 -0.135 -0.071 0.052 -145.105 4217.353 143.157 0.049 0.305 0.006 -0.47 -0 -0.02 0.88
1 9.49 949 0.249 -8.509 5.464 -0.126 -0.081 0.051 -145.105 4217.353 143.157 0.006 0.327 -0.076 -0.47 -0 -0.02 0.88
1 9.50 950 0.273 -8.485 5.301 -0.121 -0.069 0.034 -115.125 4187.372 38.225 -0.018 0.298 0.078 -0.47 -0 -0.02 0.88
1 9.51 951 0.239 -8.366 5.248 -0.116 -0.067 0.023 -265.027 4157.392 158.147 0.017 0.172 0.122 -0.48 -0 -0.02 0.88
1 9.52 952 0.292 -8.366 5.320 -0.074 -0.060 0.000 -265.027 4157.392 158.147 -0.034 0.168 0.043 -0.48 -0 -0.02 0.88
1 9.53 953 0.364 -8.179 5.430 -0.062 -0.052 -0.017 -190.076 4082.291 233.248 -0.102 -0.022 -0.072 -0.48 -0 -0.02 0.88
1 9.54 954 0.316 -8.217 5.243 -0.051 -0.060 -0.027 -115.125 4187.372 158.147 -0.051 0.013 0.111 -0.48 -0 -0.02 0.88
1 9.55 955 0.350 -8.256 5.392 -0.040 -0.059 -0.039 -85.145 4112.421 188.127 -0.072 0.049 -0.043 -0.48 -0 -0.02 0.88
1 9.56 956 0.493 -8.370 5.497 -0.046 -0.064 -0.033 -85.145 4112.421 188.127 -0.209 0.163 -0.150 -0.48 -0 -0.02 0.88
1 9.57 957 0.460 -8.461 5.363 -0.034 -0.052 -0.036 -280.018 4142.401 98.186 -0.169 0.253 -0.018 -0.48 -0 -0.02 0.88
1 9.58 958 0.584 -8.481 5.545 -0.036 -0.042 -0.022 -265.027 4262.323 188.127 -0.286 0.271 -0.201 -0.48 -0 -0.02 0.88
1 9.59 959 0.527 -8.528 5.473 -0.030 -0.013 -0.025 -265.027 4262.323 188.127 -0.224 0.318 -0.131 -0.48 -0.01 -0.02 0.88
1 9.60 960 0.393 -8.505 5.531 -0.016 0.027 -0.011 -145.105 4172.382 143.157 -0.086 0.293 -0.190 -0.48 -0.01 -0.02 0.88
1 9.61 961 0.484 -8.332 5.402 -0.013 0.036 -0.005 -250.037 4097.431 248.238 -0.176 0.121 -0.061 -0.48 -0.01 -0.02 0.88
1 9.62 962 0.431 -8.375 5.469 -0.027 0.046 0.006 -265.027 4037.320 158.147 -0.124 0.164 -0.128 -0.48 -0 -0.02 0.88
1 9.63 963 0.335 -8.437 5.368 -0.049 0.048 0.014 -265.027 4037.320 158.147 -0.030 0.226 -0.028 -0.48 -0 -0.02 0.88
1 9.64 964 0.273 -8.097 5.325 -0.068 0.048 0.009 -145.105 4052.310 278.219 0.029 -0.116 0.013 -0.48 -0 -0.02 0.88
1 9.65 965 0.354 -8.069 5.473 -0.093 0.048 -0.008 -220.057 4217.353 23.235 -0.055 -0.147 -0.139 -0.48 -0 -0.02 0.88
1 9.66 966 0.230 -8.337 5.478 -0.102 0.047 -0.011 -220.057 4217.353 23.235 0.068 0.119 -0.148 -0.48 -0 -0.02 0.88
1 9.67 967 0.287 -8.332 5.368 -0.103 0.032 -0.037 -220.057 3977.359 98.186 0.009 0.110 -0.043 -0.48 -0 -0.03 0.88
1 9.68 968 0.153 -8.471 5.454 -0.075 0.035 -0.044 -160.096 4157.392 83.196 0.143 0.246 -0.135 -0.48 -0 -0.03 0.88
1 9.69 969 0.215 -8.476 5.512 -0.050 0.024 -0.051 -160.096 4157.392 83.196 0.082 0.248 -0.197 -0.48 -0 -0.03 0.88
1 9.70 970 0.426 -8.418 5.464 -0.013 0.017 -0.039 -145.105 4172.382 23.235 -0.125 0.188 -0.152 -0.48 -0 -0.03 0.88
1 9.71 971 0.469 -8.528 5.464 0.022 0.018 -0.030 -250.037 4142.401 98.186 -0.165 0.299 -0.151 -0.48 -0 -0.03 0.88
1 9.72 972 0.546 -8.514 5.363 0.056 0.025 -0.035 -235.047 4112.421 188.127 -0.240 0.287 -0.047 -0.48 -0 -0.03 0.88
1 9.73 973 0.541 -8.490 5.536 0.059 0.025 -0.014 -235.047 4112.421 188.127 -0.232 0.266 -0.215 -0.48 -0 -0.03 0.88
1 9.74 974 0.594 -8.500 5.459 0.056 0.024 -0.017 -235.047 4157.392 233.248 -0.283 0.280 -0.131 -0.48 -0 -0.03 0.88
1 9.75 975 0.522 -8.294 5.492 0.035 0.013 -0.018 -160.096 4112.421 158.147 -0.209 0.078 -0.159 -0.48 -0 -0.03 0.88
1 9.76 976 0.273 -8.303 5.492 -0.018 0.003 -0.019 -160.096 4112.421 158.147 0.042 0.091 -0.155 -0.48 -0 -0.03 0.88
1 9.77 977 0.412 -8.227 5.392 -0.077 -0.019 -0.048 -220.057 4052.310 98.186 -0.091 0.014 -0.055 -0.48 -0 -0.03 0.88
1 9.78 978 0.369 -8.150 5.406 -0.118 -0.021 -0.046 -340.128 3962.369 83.196 -0.043 -0.066 -0.074 -0.48 -0 -0.03 0.88
1 9.79 979 0.340 -8.361 5.536 -0.103 0.005 -0.042 -160.096 4007.339 158.147 -0.009 0.141 -0.210 -0.48 -0 -0.03 0.88
1 9.80 980 0.412 -8.351 5.425 -0.075 0.034 -0.050 -160.096 4007.339 158.147 -0.078 0.128 -0.105 -0.48 -0 -0.03 0.88
1 9.81 981 0.402 -8.414 5.382 -0.040 0.036 -0.044 -145.105 4097.431 173.137 -0.066 0.188 -0.066 -0.48 -0 -0.03 0.88
1 9.82 982 0.508 -8.375 5.253 0.047 0.031 -0.036 -220.057 4142.401 173.137 -0.170 0.149 0.063 -0.48 -0 -0.03 0.88
1 9.83 983 0.555 -8.442 5.402 0.070 0.045 -0.028 -220.057 4142.401 173.137 -0.215 0.218 -0.083 -0.48 -0 -0.03 0.88
1 9.84 984 0.498 -8.308 5.411 0.087 0.038 -0.026 -235.047 4157.392 188.127 -0.155 0.093 -0.079 -0.48 -0 -0.03 0.88
1 9.85 985 0.503 -8.370 5.397 0.063 0.043 -0.007 -280.018 4097.431 23.235 -0.159 0.160 -0.057 -0.48 -0 -0.03 0.88
1 9.86 986 0.407 -8.260 5.469 0.060 0.025 -0.014 -310.148 4007.339 158.147 -0.063 0.054 -0.123 -0.48 -0 -0.03 0.88
1 9.87 987 0.508 -8.318 5.421 0.050 0.039 -0.013 -310.148 4007.339 158.147 -0.162 0.115 -0.070 -0.48 -0 -0.03 0.88
1 9.88 988 0.393 -8.303 5.344 0.031 0.014 -0.019 -385.099 4082.291 263.229 -0.047 0.103 0.011 -0.48 -0 -0.03 0.88
1 9.89 989 0.326 -8.275 5.277 0.001 -0.004 -0.041 -355.119 4172.382 98.186 0.022 0.076 0.081 -0.48 -0 -0.03 0.88
1 9.90 990 0.412 -8.356 5.301 -0.025 -0.012 -0.037 -355.119 4172.382 98.186 -0.062 0.159 0.058 -0.48 -0 -0.03 0.88
1 9.91 991 0.340 -8.342 5.306 -0.056 -0.015 -0.062 -310.148 4157.392 38.225 0.013 0.144 0.052 -0.48 -0 -0.03 0.88
1 9.92 992 0.359 -8.289 5.392 -0.058 -0.007 -0.066 -220.057 3902.408 98.186 0.005 0.087 -0.040 -0.48 -0 -0.03 0.88
1 9.93 993 0.522 -8.366 5.469 -0.054 -0.004 -0.048 -175.086 4052.310 -6.596 -0.154 0.162 -0.120 -0.48 -0 -0.03 0.88
1 9.94 994 0.412 -8.500 5.416 -0.037 0.016 -0.041 -175.086 4052.310 -6.596 -0.039 0.295 -0.069 -0.48 -0 -0.03 0.88
1 9.95 995 0.421 -8.437 5.454 -0.026 0.026 -0.031 -325.138 4142.401 248.238 -0.046 0.232 -0.109 -0.48 -0 -0.03 0.88
1 9.96 996 0.393 -8.370 5.459 0.011 0.022 -0.002 -280.018 4172.382 -6.596 -0.016 0.165 -0.114 -0.48 -0 -0.03 0.88
1 9.97 997 0.374 -8.279 5.397 0.044 0.033 0.000 -280.018 4172.382 -6.596 0.004 0.076 -0.049 -0.48 -0 -0.03 0.88
1 9.98 998 0.479 -8.241 5.497 0.046 0.023 0.010 -145.105 4052.310 143.157 -0.102 0.040 -0.146 -0.48 -0 -0.04 0.88
1 9.99 999 0.192 -8.270 5.358 0.042 0.007 0.005 -265.027 4232.343 113.176 0.183 0.075 0.003 -0.48 -0 -0.04 0.88
1 10.00 1000 0.249 -8.174 5.334 0.027 -0.001 0.004 -160.096 4082.291 233.248 0.124 -0.018 0.031 -0.48 -0 -0.04 0.88
1 10.01 1001 0.340 -8.160 5.311 0.002 -0.015 -0.010 -160.096 4082.291 233.248 0.033 -0.031 0.058 -0.48 -0 -0.04 0.88
1 10.02 1002 0.230 -8.193 5.282 -0.029 -0.020 -0.007 -415.080 4037.320 113.176 0.145 0.003 0.087 -0.48 -0 -0.04 0.88
1 10.03 1003 0.287 -8.169 5.421 -0.044 -0.028 -0.025 -235.047 4187.372 188.127 0.089 -0.021 -0.053 -0.48 -0 -0.04 0.88
1 10.04 1004 0.215 -8.390 5.378 -0.046 -0.019 -0.021 -235.047 4187.372 188.127 0.164 0.198 -0.012 -0.48 -0 -0.04 0.88
1 10.05 1005 0.249 -8.461 5.449 -0.035 -0.023 -0.026 -250.037 4052.310 98.186 0.132 0.268 -0.086 -0.48 -0 -0.04 0.88
1 10.06 1006 0.326 -8.418 5.560 -0.052 -0.028 -0.018 -325.138 4052.310 173.137 0.059 0.223 -0.200 -0.48 -0 -0.04 0.88
1 10.07 1007 0.397 -8.337 5.545 -0.064 -0.030 -0.027 -145.105 4052.310 248.238 -0.011 0.140 -0.189 -0.48 -0 -0.04 0.88
1 10.08 1008 0.421 -8.346 5.473 -0.070 -0.023 -0.016 -145.105 4052.310 248.238 -0.031 0.147 -0.120 -0.48 -0 -0.04 0.88
1 10.09 1009 0.397 -8.251 5.569 -0.077 -0.023 -0.012 -235.047 4157.392 113.176 -0.005 0.049 -0.219 -0.48 -0 -0.04 0.88
1 10.10 1010 0.431 -8.256 5.373 -0.078 -0.031 -0.013 -250.037 4172.382 203.118 -0.036 0.051 -0.027 -0.48 -0 -0.04 0.88
1 10.11 1011 0.397 -8.308 5.392 -0.044 -0.053 -0.022 -250.037 4172.382 203.118 -0.000 0.101 -0.050 -0.48 -0 -0.04 0.88
1 10.12 1012 0.388 -8.466 5.277 -0.017 -0.068 -0.013 -220.057 4142.401 173.137 0.013 0.258 0.062 -0.48 -0 -0.04 0.88
1 10.13 1013 0.292 -8.548 5.469 0.013 -0.068 -0.014 -220.057 4142.401 173.137 0.113 0.339 -0.131 -0.48 -0 -0.04 0.88
1 10.14 1014 0.374 -8.490 5.421 0.045 -0.048 -0.009 -235.047 4037.320 188.127 0.039 0.284 -0.080 -0.48 -0 -0.04 0.88
1 10.15 1015 0.407 -8.552 5.502 0.041 -0.041 0.003 -235.047 4037.320 188.127 0.009 0.348 -0.158 -0.48 -0 -0.04 0.88
1 10.16 1016 0.431 -8.505 5.670 0.023 -0.037 0.010 -400.089 4052.310 98.186 -0.014 0.303 -0.322 -0.48 -0 -0.04 0.88
1 10.17 1017 0.479 -8.581 5.560 0.012 -0.012 0.025 -280.018 4022.330 143.157 -0.062 0.382 -0.208 -0.48 -0 -0.04 0.88
1 10.18 1018 0.402 -8.442 5.473 -0.003 0.010 0.036 -280.018 4022.330 143.157 0.014 0.244 -0.120 -0.48 -0 -0.04 0.88
1 10.19 1019 0.417 -8.380 5.459 -0.003 -0.002 0.039 -355.119 4097.431 278.219 -0.003 0.183 -0.104 -0.48 -0 -0.04 0.88
1 10.20 1020 0.393 -8.323 5.521 -0.005 -0.008 0.046 -355.119 4097.431 278.219 0.018 0.126 -0.165 -0.48 -0 -0.04 0.88
1 10.21 1021 0.397 -8.155 5.488 -0.032 -0.034 0.048 -250.037 4097.431 203.118 0.010 -0.041 -0.131 -0.48 -0 -0.04 0.88
1 10.22 1022 0.426 -8.198 5.478 -0.074 -0.034 0.028 -250.037 4097.431 203.118 -0.021 0.001 -0.122 -0.48 -0 -0.04 0.88
1 10.23 1023 0.450 -8.270 5.579 -0.088 -0.043 0.035 -325.138 4052.310 143.157 -0.045 0.070 -0.227 -0.48 -0 -0.04 0.88
1 10.24 1024 0.508 -8.241 5.421 -0.100 -0.044 0.029 -250.037 4292.304 68.206 -0.102 0.038 -0.074 -0.48 -0 -0.04 0.88
1 10.25 1025 0.402 -8.279 5.449 -0.089 -0.041 0.018 -250.037 4292.304 68.206 0.004 0.073 -0.108 -0.48 -0 -0.04 0.88
1 10.26 1026 0.378 -8.160 5.593 -0.042 -0.011 0.026 -250.037 4022.330 248.238 0.028 -0.049 -0.255 -0.48 -0 -0.04 0.88
1 10.27 1027 0.402 -8.471 5.560 -0.006 -0.012 0.014 -250.037 4022.330 248.238 0.003 0.261 -0.223 -0.48 -0 -0.04 0.88
1 10.28 1028 0.421 -8.370 5.469 0.043 -0.004 0.034 -265.027 4187.372 158.147 -0.018 0.163 -0.128 -0.48 -0 -0.04 0.88
1 10.29 1029 0.421 -8.457 5.435 0.059 0.006 0.039 -265.027 4187.372 158.147 -0.020 0.253 -0.090 -0.48 -0 -0.04 0.88
1 10.30 1030 0.431 -8.318 5.492 0.076 -0.002 0.043 -235.047 4112.421 158.147 -0.032 0.118 -0.141 -0.48 -0 -0.04 0.88
1 10.31 1031 0.292 -8.222 5.358 0.074 -0.011 0.047 -310.148 4232.343 38.225 0.105 0.026 -0.000 -0.48 -0 -0.04 0.88
1 10.32 1032 0.326 -8.289 5.382 0.053 -0.027 0.036 -310.148 4232.343 38.225 0.069 0.097 -0.018 -0.48 -0 -0.04 0.88
1 10.33 1033 0.249 -8.188 5.358 -0.001 -0.055 0.039 -280.018 4097.431 203.118 0.145 -0.001 0.010 -0.48 -0 -0.04 0.88
1 10.34 1034 0.350 -8.155 5.378 -0.028 -0.067 0.034 -280.018 4097.431 203.118 0.044 -0.033 -0.008 -0.48 -0 -0.03 0.88
1 10.35 1035 0.187 -8.256 5.430 -0.051 -0.079 0.027 -310.148 4112.421 233.248 0.207 0.067 -0.060 -0.48 -0 -0.03 0.88
1 10.36 1036 0.201 -8.346 5.531 -0.062 -0.073 0.020 -235.047 4232.343 263.229 0.194 0.156 -0.165 -0.48 -0 -0.03 0.88
1 10.37 1037 0.350 -8.323 5.583 -0.051 -0.059 0.017 -220.057 4217.353 98.186 0.046 0.130 -0.221 -0.48 -0 -0.03 0.88
1 10.38 1038 0.474 -8.375 5.555 -0.042 -0.045 0.026 -145.105 4142.401 98.186 -0.078 0.181 -0.194 -0.48 -0 -0.03 0.88
1 10.39 1039 0.393 -8.342 5.502 -0.025 -0.042 0.020 -145.105 4142.401 98.186 0.004 0.147 -0.142 -0.48 -0 -0.03 0.88
1 10.40 1040 0.532 -8.418 5.598 0.018 -0.044 0.036 -250.037 4022.330 203.118 -0.134 0.224 -0.237 -0.48 -0 -0.03 0.88
1 10.41 1041 0.651 -8.390 5.411 0.039 -0.047 0.045 -250.037 4022.330 203.118 -0.254 0.197 -0.048 -0.48 -0.01 -0.03 0.88
1 10.42 1042 0.522 -8.404 5.473 0.063 -0.047 0.047 -355.119 4217.353 98.186 -0.124 0.214 -0.106 -0.48 -0.01 -0.03 0.88
1 10.43 1043 0.570 -8.303 5.425 0.059 -0.042 0.049 -235.047 4082.291 188.127 -0.170 0.120 -0.048 -0.47 -0.01 -0.03 0.88
1 10.44 1044 0.498 -8.198 5.363 0.027 -0.050 0.053 -265.027 4352.265 158.147 -0.099 0.018 0.019 -0.47 -0.01 -0.03 0.88
1 10.45 1045 0.503 -8.203 5.358 0.015 -0.058 0.059 -280.018 4172.382 248.238 -0.104 0.025 0.027 -0.47 -0.01 -0.03 0.88
1 10.46 1046 0.316 -8.155 5.392 -0.001 -0.051 0.039 -280.018 4172.382 248.238 0.083 -0.022 -0.005 -0.47 -0.01 -0.03 0.88
1 10.47 1047 0.302 -8.323 5.430 -0.005 -0.056 0.043 -220.057 4097.281 143.157 0.097 0.147 -0.042 -0.47 -0.01 -0.03 0.88
1 10.48 1048 0.292 -8.356 5.435 -0.006 -0.054 0.032 -220.057 4097.281 143.157 0.107 0.181 -0.046 -0.47 -0.01 -0.03 0.88
1 10.49 1049 0.244 -8.414 5.430 -0.008 -0.046 0.045 -145.105 4172.382 23.235 0.155 0.238 -0.041 -0.47 -0.01 -0.03 0.88
1 10.50 1050 0.340 -8.361 5.478 -0.017 -0.046 0.043 -265.027 4112.271 188.127 0.057 0.186 -0.088 -0.47 -0.01 -0.03 0.88
1 10.51 1051 0.431 -8.208 5.392 -0.018 -0.044 0.042 -114.975 4007.339 158.147 -0.036 0.032 -0.003 -0.47 -0.01 -0.03 0.88
1 10.52 1052 0.326 -8.217 5.449 -0.028 -0.046 0.040 -114.975 4037.320 113.176 0.069 0.041 -0.061 -0.47 -0.01 -0.03 0.88
1 10.53 1053 0.192 -8.342 5.387 -0.025 -0.030 0.048 -114.975 4037.320 113.176 0.201 0.165 0.001 -0.47 -0.01 -0.03 0.88
1 10.54 1054 0.498 -8.270 5.502 -0.017 -0.050 0.048 -250.037 4052.310 98.186 -0.107 0.093 -0.115 -0.47 -0.01 -0.03 0.88
1 10.55 1055 0.436 -8.414 5.411 0.004 -0.068 0.039 -250.037 4052.310 98.186 -0.045 0.237 -0.023 -0.47 -0.01 -0.03 0.88
