COL1	TIME	ACC_X	ACC_Y	ACC_Z	GYR_X	GYR_Y	GYR_Z	MAG_X	MAG_Y	MAG_Z	LACC_X	LACC_Y	LACC_Z	QUAT_X	QUAT_Y	QUAT_Z	QUAT_W
1 0.00 0 0.661 -9.539 2.504 -0.030 -0.019 0.013 -434.867 599.909 2279.865 -0.068 0.086 0.012 -0.61 0.03 -0.09 0.79
1 0.01 1 0.642 -9.505 2.595 -0.031 -0.015 0.017 -509.968 419.876 2249.884 -0.049 0.052 -0.079 -0.61 0.03 -0.09 0.79
1 0.02 2 0.589 -9.515 2.600 -0.034 -0.011 0.018 -509.968 569.929 2354.966 0.004 0.062 -0.084 -0.61 0.03 -0.09 0.79
1 0.03 3 0.546 -9.639 2.639 -0.039 -0.015 0.010 -509.968 569.929 2354.966 0.047 0.187 -0.122 -0.61 0.03 -0.09 0.79
1 0.04 4 0.642 -9.424 2.653 -0.032 -0.027 0.017 -524.958 539.948 2264.875 -0.049 -0.029 -0.135 -0.61 0.03 -0.09 0.79
1 0.05 5 0.723 -9.582 2.567 -0.030 -0.022 0.017 -524.958 539.948 2264.875 -0.130 0.130 -0.048 -0.61 0.03 -0.09 0.79
1 0.06 6 0.608 -9.635 2.648 -0.024 -0.022 0.012 -374.906 539.948 2219.904 -0.016 0.182 -0.129 -0.61 0.03 -0.09 0.79
1 0.07 7 0.661 -9.524 2.571 -0.025 -0.026 0.017 -269.974 509.968 2219.904 -0.068 0.072 -0.052 -0.61 0.03 -0.09 0.79
1 0.08 8 0.546 -9.568 2.610 -0.026 -0.014 0.024 -344.925 509.968 2159.943 0.047 0.116 -0.090 -0.61 0.03 -0.09 0.79
1 0.09 9 0.723 -9.548 2.701 -0.026 -0.016 0.021 -374.906 509.968 2159.943 -0.131 0.097 -0.180 -0.61 0.03 -0.09 0.79
1 0.10 10 0.618 -9.515 2.658 -0.037 -0.019 0.028 -374.906 509.968 2159.943 -0.025 0.063 -0.136 -0.61 0.03 -0.09 0.79
1 0.11 11 0.623 -9.577 2.595 -0.027 -0.027 0.019 -434.867 494.978 2204.914 -0.030 0.126 -0.073 -0.61 0.03 -0.09 0.79
1 0.12 12 0.599 -9.644 2.629 -0.018 -0.032 0.015 -434.867 494.978 2204.914 -0.006 0.193 -0.107 -0.61 0.03 -0.09 0.79
1 0.13 13 0.594 -9.659 2.600 -0.014 -0.020 0.026 -374.906 509.968 2159.943 -0.001 0.207 -0.078 -0.61 0.03 -0.09 0.79
1 0.14 14 0.460 -9.553 2.524 -0.022 -0.025 0.020 -464.997 449.857 2249.884 0.134 0.102 -0.001 -0.61 0.03 -0.09 0.79
1 0.15 15 0.599 -9.592 2.543 -0.015 -0.017 0.023 -569.929 509.968 2219.904 -0.005 0.141 -0.019 -0.61 0.03 -0.09 0.79
1 0.16 16 0.603 -9.659 2.476 -0.012 -0.027 0.021 -419.876 809.922 2084.992 -0.010 0.208 0.048 -0.61 0.03 -0.09 0.79
1 0.17 17 0.637 -9.687 2.471 -0.021 -0.023 0.018 -419.876 809.922 2084.992 -0.044 0.236 0.052 -0.61 0.03 -0.09 0.79
1 0.18 18 0.565 -9.520 2.548 -0.030 -0.024 0.019 -344.925 584.919 2189.923 0.028 0.069 -0.025 -0.61 0.03 -0.09 0.79
1 0.19 19 0.737 -9.630 2.686 -0.031 -0.030 0.025 -344.925 584.919 2189.923 -0.144 0.179 -0.164 -0.61 0.03 -0.09 0.79
1 0.20 20 0.690 -9.615 2.461 -0.013 -0.011 0.015 -524.958 539.948 2339.976 -0.095 0.165 0.062 -0.61 0.03 -0.09 0.79
1 0.21 21 0.584 -9.620 2.605 -0.002 -0.010 0.019 -539.948 419.876 2204.914 0.010 0.169 -0.082 -0.61 0.03 -0.09 0.79
1 0.22 22 0.570 -9.568 2.471 -0.010 -0.021 0.010 -539.948 419.876 2204.914 0.025 0.117 0.052 -0.61 0.03 -0.09 0.79
1 0.23 23 0.579 -9.568 2.610 -0.011 -0.019 0.023 -509.968 569.929 2129.962 0.015 0.117 -0.086 -0.61 0.03 -0.09 0.79
1 0.24 24 0.417 -9.534 2.509 -0.017 -0.021 0.024 -509.968 569.929 2129.962 0.178 0.083 0.014 -0.61 0.03 -0.09 0.79
1 0.25 25 0.532 -9.592 2.624 -0.031 -0.013 0.015 -359.916 494.978 2204.914 0.062 0.141 -0.101 -0.61 0.03 -0.09 0.79
1 0.26 26 0.579 -9.534 2.586 -0.020 -0.022 0.014 -359.916 494.978 2204.914 0.014 0.083 -0.062 -0.61 0.03 -0.09 0.79
1 0.27 27 0.560 -9.659 2.629 -0.023 -0.025 0.013 -524.958 434.867 2219.904 0.033 0.208 -0.105 -0.61 0.03 -0.09 0.79
1 0.28 28 0.666 -9.520 2.538 -0.026 -0.017 0.027 -254.984 494.978 2249.884 -0.072 0.069 -0.014 -0.61 0.03 -0.09 0.79
1 0.29 29 0.718 -9.659 2.653 -0.030 -0.014 0.022 -254.984 494.978 2249.884 -0.125 0.208 -0.129 -0.61 0.03 -0.09 0.79
1 0.30 30 0.551 -9.534 2.433 -0.025 -0.025 0.031 -419.876 464.847 2339.976 0.043 0.084 0.092 -0.61 0.03 -0.09 0.79
1 0.31 31 0.675 -9.596 2.485 -0.022 -0.029 0.027 -419.876 464.847 2339.976 -0.082 0.146 0.039 -0.61 0.03 -0.09 0.79
1 0.32 32 0.512 -9.544 2.576 -0.032 -0.023 0.018 -284.964 569.929 2249.884 0.081 0.093 -0.052 -0.61 0.03 -0.09 0.79
1 0.33 33 0.551 -9.505 2.552 -0.029 -0.020 0.020 -284.964 569.929 2249.884 0.043 0.055 -0.028 -0.61 0.03 -0.09 0.79
1 0.34 34 0.690 -9.577 2.567 -0.030 -0.022 0.019 -524.958 509.968 2189.923 -0.096 0.126 -0.042 -0.61 0.03 -0.09 0.79
1 0.35 35 0.436 -9.438 2.624 -0.029 -0.022 0.025 -464.997 599.909 2174.933 0.158 -0.012 -0.099 -0.61 0.03 -0.09 0.79
1 0.36 36 0.599 -9.453 2.552 -0.020 -0.014 0.011 -464.997 599.909 2174.933 -0.004 0.002 -0.027 -0.61 0.03 -0.09 0.79
1 0.37 37 0.599 -9.520 2.662 -0.033 -0.012 0.020 -329.935 494.978 2129.962 -0.005 0.069 -0.137 -0.61 0.03 -0.09 0.79
1 0.38 38 0.575 -9.505 2.576 -0.034 -0.014 0.021 -329.935 494.978 2129.962 0.019 0.055 -0.050 -0.61 0.03 -0.09 0.79
1 0.39 39 0.632 -9.524 2.610 -0.032 -0.007 0.017 -434.867 644.880 2324.985 -0.038 0.074 -0.084 -0.61 0.03 -0.09 0.79
1 0.40 40 0.560 -9.582 2.500 -0.029 -0.013 0.023 -434.867 644.880 2324.985 0.033 0.132 0.027 -0.61 0.03 -0.09 0.79
1 0.41 41 0.570 -9.592 2.533 -0.034 -0.010 0.007 -419.876 389.896 2264.875 0.024 0.141 -0.007 -0.61 0.03 -0.09 0.79
1 0.42 42 0.503 -9.515 2.461 -0.036 -0.012 0.011 -509.968 449.857 2324.985 0.090 0.065 0.065 -0.61 0.03 -0.09 0.79
1 0.43 43 0.522 -9.582 2.552 -0.023 -0.014 0.019 -509.968 449.857 2324.985 0.071 0.132 -0.025 -0.61 0.03 -0.09 0.79
1 0.44 44 0.536 -9.491 2.524 -0.025 -0.018 0.027 -419.876 584.919 2369.956 0.056 0.041 0.003 -0.61 0.03 -0.09 0.79
1 0.45 45 0.613 -9.491 2.634 -0.028 -0.020 0.015 -419.876 584.919 2369.956 -0.021 0.041 -0.107 -0.61 0.03 -0.09 0.79
1 0.46 46 0.623 -9.606 2.557 -0.027 -0.015 0.027 -494.978 434.867 2159.943 -0.031 0.156 -0.031 -0.61 0.03 -0.09 0.79
1 0.47 47 0.690 -9.558 2.552 -0.034 -0.018 0.010 -494.978 434.867 2159.943 -0.097 0.108 -0.026 -0.61 0.03 -0.09 0.79
1 0.48 48 0.656 -9.596 2.595 -0.032 -0.023 0.029 -329.935 494.978 2129.962 -0.064 0.146 -0.070 -0.61 0.03 -0.09 0.79
1 0.49 49 0.632 -9.548 2.576 -0.030 -0.022 0.018 -389.896 644.880 2204.914 -0.040 0.098 -0.050 -0.61 0.03 -0.09 0.79
1 0.50 50 0.651 -9.582 2.605 -0.034 -0.034 0.015 -389.896 644.880 2204.914 -0.059 0.132 -0.079 -0.61 0.03 -0.09 0.79
1 0.51 51 0.694 -9.644 2.543 -0.028 -0.020 0.018 -389.896 494.978 2174.933 -0.103 0.194 -0.017 -0.61 0.03 -0.09 0.79
1 0.52 52 0.623 -9.539 2.457 -0.035 -0.025 0.019 -449.857 509.968 2264.875 -0.030 0.088 0.069 -0.61 0.03 -0.09 0.79
1 0.53 53 0.551 -9.625 2.576 -0.035 -0.014 0.022 -449.857 434.867 2219.904 0.042 0.174 -0.051 -0.61 0.03 -0.09 0.79
1 0.54 54 0.618 -9.558 2.452 -0.030 -0.007 0.014 -449.857 434.867 2219.904 -0.025 0.107 0.073 -0.61 0.03 -0.09 0.79
1 0.55 55 0.570 -9.615 2.504 -0.034 -0.012 0.016 -434.867 449.857 2129.962 0.023 0.165 0.020 -0.61 0.03 -0.09 0.79
1 0.56 56 0.555 -9.606 2.495 -0.035 -0.018 0.017 -494.978 434.867 2114.972 0.037 0.155 0.029 -0.61 0.03 -0.09 0.79
1 0.57 57 0.575 -9.520 2.490 -0.037 -0.018 0.010 -494.978 434.867 2114.972 0.018 0.069 0.034 -0.61 0.03 -0.09 0.79
1 0.58 58 0.560 -9.577 2.495 -0.044 -0.014 0.011 -389.896 569.929 2279.865 0.032 0.126 0.029 -0.61 0.03 -0.09 0.79
1 0.59 59 0.661 -9.587 2.485 -0.037 -0.022 0.015 -434.867 524.958 2324.985 -0.068 0.135 0.036 -0.61 0.03 -0.09 0.79
1 0.60 60 0.584 -9.620 2.457 -0.030 -0.019 0.020 -389.896 599.909 2384.946 0.009 0.168 0.063 -0.61 0.03 -0.09 0.79
1 0.61 61 0.570 -9.481 2.423 -0.029 -0.028 0.031 -389.896 599.909 2384.946 0.023 0.029 0.096 -0.61 0.03 -0.09 0.79
1 0.62 62 0.608 -9.568 2.428 -0.028 -0.026 0.012 -494.978 629.890 2189.923 -0.015 0.115 0.091 -0.61 0.03 -0.09 0.79
1 0.63 63 0.728 -9.577 2.571 -0.036 -0.020 0.020 -419.876 434.867 2294.855 -0.135 0.125 -0.053 -0.61 0.03 -0.09 0.79
1 0.64 64 0.618 -9.620 2.490 -0.046 -0.025 0.014 -419.876 434.867 2294.855 -0.025 0.168 0.028 -0.61 0.03 -0.09 0.79
1 0.65 65 0.589 -9.601 2.500 -0.029 -0.020 0.013 -509.968 494.978 2099.982 0.003 0.148 0.017 -0.61 0.03 -0.09 0.79
1 0.66 66 0.642 -9.548 2.490 -0.040 -0.015 0.021 -389.896 524.958 2324.985 -0.049 0.095 0.026 -0.61 0.03 -0.09 0.79
1 0.67 67 0.522 -9.630 2.452 -0.035 -0.018 0.011 -584.919 374.906 2174.933 0.070 0.176 0.061 -0.61 0.03 -0.09 0.79
1 0.68 68 0.536 -9.716 2.504 -0.046 -0.025 0.016 -584.919 374.906 2174.933 0.056 0.262 0.007 -0.61 0.03 -0.09 0.79
1 0.69 69 0.565 -9.668 2.356 -0.038 -0.023 0.012 -389.896 599.909 2204.914 0.027 0.213 0.153 -0.61 0.03 -0.09 0.79
1 0.70 70 0.522 -9.611 2.409 -0.032 -0.019 0.015 -434.867 599.909 2174.933 0.070 0.156 0.099 -0.61 0.03 -0.09 0.79
1 0.71 71 0.584 -9.659 2.485 -0.038 -0.019 0.027 -434.867 599.909 2174.933 0.008 0.203 0.022 -0.61 0.03 -0.09 0.79
1 0.72 72 0.608 -9.592 2.538 -0.041 -0.021 0.017 -434.867 569.929 2099.982 -0.016 0.136 -0.032 -0.61 0.03 -0.09 0.79
1 0.73 73 0.584 -9.563 2.490 -0.052 -0.028 0.014 -374.906 629.890 2159.943 0.007 0.107 0.015 -0.61 0.03 -0.09 0.79
1 0.74 74 0.522 -9.606 2.447 -0.048 -0.016 0.019 -329.935 599.909 2279.865 0.070 0.148 0.052 -0.61 0.03 -0.09 0.79
1 0.75 75 0.522 -9.635 2.375 -0.044 -0.023 0.018 -329.935 599.909 2279.865 0.069 0.176 0.121 -0.61 0.03 -0.09 0.79
1 0.76 76 0.517 -9.596 2.413 -0.031 -0.035 0.023 -464.997 494.978 2204.914 0.074 0.137 0.080 -0.61 0.03 -0.09 0.79
1 0.77 77 0.589 -9.558 2.519 -0.036 -0.034 0.029 -449.857 509.968 2189.923 0.001 0.099 -0.026 -0.61 0.03 -0.09 0.79
1 0.78 78 0.642 -9.563 2.457 -0.052 -0.037 0.020 -449.857 509.968 2189.923 -0.052 0.103 0.034 -0.61 0.03 -0.09 0.79
1 0.79 79 0.618 -9.630 2.399 -0.047 -0.037 0.026 -449.857 584.919 2219.904 -0.028 0.169 0.087 -0.61 0.03 -0.09 0.79
1 0.80 80 0.522 -9.544 2.452 -0.046 -0.035 0.017 -524.958 464.847 2369.956 0.068 0.082 0.031 -0.61 0.03 -0.09 0.79
1 0.81 81 0.565 -9.639 2.490 -0.047 -0.042 0.026 -419.876 389.896 2339.976 0.026 0.176 -0.013 -0.61 0.03 -0.09 0.79
1 0.82 82 0.618 -9.750 2.437 -0.038 -0.044 0.021 -419.876 389.896 2339.976 -0.028 0.286 0.037 -0.61 0.03 -0.09 0.79
1 0.83 83 0.579 -9.625 2.351 -0.045 -0.043 0.023 -359.916 599.909 2279.865 0.011 0.160 0.121 -0.61 0.03 -0.09 0.79
1 0.84 84 0.623 -9.572 2.437 -0.031 -0.037 0.029 -464.997 569.929 2249.884 -0.033 0.107 0.031 -0.61 0.03 -0.09 0.79
1 0.85 85 0.536 -9.687 2.308 -0.030 -0.035 0.019 -464.997 569.929 2249.884 0.053 0.221 0.159 -0.61 0.03 -0.09 0.79
1 0.86 86 0.579 -9.510 2.394 -0.029 -0.030 0.026 -344.925 464.847 2219.904 0.010 0.044 0.072 -0.61 0.03 -0.09 0.79
1 0.87 87 0.517 -9.639 2.433 -0.028 -0.026 0.022 -449.857 464.847 2339.976 0.072 0.173 0.033 -0.61 0.03 -0.09 0.79
1 0.88 88 0.479 -9.592 2.466 -0.037 -0.032 0.023 -344.925 464.847 2114.972 0.110 0.125 -0.001 -0.61 0.03 -0.09 0.79
1 0.89 89 0.575 -9.611 2.356 -0.043 -0.030 0.017 -344.925 464.847 2114.972 0.014 0.143 0.107 -0.61 0.03 -0.09 0.79
1 0.90 90 0.532 -9.668 2.476 -0.041 -0.036 0.022 -359.916 644.880 2279.865 0.057 0.200 -0.017 -0.61 0.03 -0.09 0.79
1 0.91 91 0.579 -9.678 2.361 -0.039 -0.037 0.022 -344.925 359.916 2264.875 0.009 0.209 0.096 -0.61 0.03 -0.09 0.79
1 0.92 92 0.637 -9.630 2.404 -0.028 -0.038 0.012 -344.925 359.916 2264.875 -0.048 0.161 0.051 -0.61 0.03 -0.09 0.79
1 0.93 93 0.819 -9.592 2.394 -0.034 -0.028 0.025 -434.867 494.978 2354.966 -0.230 0.122 0.060 -0.61 0.03 -0.09 0.79
1 0.94 94 0.498 -9.635 2.389 -0.032 -0.036 0.016 -419.876 434.867 2189.923 0.091 0.165 0.063 -0.61 0.03 -0.09 0.79
1 0.95 95 0.613 -9.457 2.413 -0.042 -0.030 0.018 -419.876 434.867 2189.923 -0.023 -0.012 0.039 -0.61 0.03 -0.09 0.79
1 0.96 96 0.599 -9.764 2.466 -0.037 -0.030 0.007 -389.896 599.909 2204.914 -0.008 0.293 -0.018 -0.61 0.03 -0.09 0.79
1 0.97 97 0.651 -9.553 2.356 -0.036 -0.037 0.023 -254.984 419.876 2354.966 -0.061 0.082 0.091 -0.61 0.03 -0.09 0.79
1 0.98 98 0.680 -9.563 2.375 -0.021 -0.031 0.015 -494.978 539.948 2219.904 -0.090 0.091 0.070 -0.61 0.03 -0.09 0.79
1 0.99 99 0.618 -9.577 2.332 -0.028 -0.030 0.019 -494.978 539.948 2219.904 -0.027 0.106 0.114 -0.61 0.03 -0.09 0.79
1 1.00 100 0.666 -9.644 2.361 -0.021 -0.027 0.015 -539.948 569.929 2279.865 -0.075 0.173 0.084 -0.61 0.03 -0.09 0.79
1 1.01 101 0.551 -9.625 2.452 -0.035 -0.020 0.011 -569.929 659.870 2294.855 0.040 0.153 -0.007 -0.61 0.03 -0.09 0.79
1 1.02 102 0.589 -9.668 2.428 -0.028 -0.023 0.013 -569.929 659.870 2294.855 0.002 0.196 0.016 -0.61 0.03 -0.09 0.79
1 1.03 103 0.713 -9.548 2.471 -0.032 -0.026 0.013 -569.929 509.968 2264.875 -0.122 0.076 -0.028 -0.61 0.03 -0.09 0.79
1 1.04 104 0.608 -9.625 2.375 -0.026 -0.017 0.021 -374.906 464.847 2189.923 -0.016 0.153 0.067 -0.61 0.03 -0.09 0.79
1 1.05 105 0.469 -9.572 2.418 -0.022 -0.017 0.023 -209.863 524.958 2354.966 0.123 0.100 0.023 -0.61 0.03 -0.09 0.79
1 1.06 106 0.594 -9.587 2.428 -0.024 -0.016 0.016 -209.863 524.958 2354.966 -0.002 0.114 0.013 -0.61 0.03 -0.09 0.79
1 1.07 107 0.546 -9.639 2.380 -0.022 -0.023 0.010 -464.997 524.958 2354.966 0.046 0.167 0.061 -0.61 0.03 -0.09 0.79
1 1.08 108 0.632 -9.668 2.342 -0.023 -0.010 0.022 -374.906 539.948 2294.855 -0.041 0.195 0.099 -0.61 0.03 -0.09 0.79
1 1.09 109 0.532 -9.673 2.442 -0.033 -0.024 0.018 -374.906 539.948 2294.855 0.060 0.200 -0.003 -0.61 0.03 -0.09 0.79
1 1.10 110 0.555 -9.596 2.409 -0.031 -0.021 0.017 -434.867 494.978 2174.933 0.036 0.123 0.030 -0.61 0.03 -0.09 0.79
1 1.11 111 0.646 -9.716 2.346 -0.020 -0.027 0.020 -434.867 524.958 2324.985 -0.056 0.243 0.092 -0.61 0.03 -0.09 0.79
1 1.12 112 0.584 -9.659 2.346 -0.019 -0.020 0.022 -419.876 464.847 2339.976 0.007 0.185 0.091 -0.61 0.03 -0.09 0.79
1 1.13 113 0.603 -9.678 2.437 -0.015 -0.015 0.017 -419.876 464.847 2339.976 -0.013 0.204 -0.001 -0.61 0.03 -0.09 0.79
1 1.14 114 0.584 -9.668 2.351 -0.017 -0.019 0.018 -419.876 509.968 2264.875 0.006 0.194 0.085 -0.61 0.03 -0.09 0.79
1 1.15 115 0.584 -9.582 2.389 -0.024 -0.018 0.017 -374.906 509.968 2219.904 0.006 0.108 0.046 -0.61 0.03 -0.09 0.79
1 1.16 116 0.469 -9.582 2.437 -0.024 -0.019 0.019 -374.906 509.968 2219.904 0.121 0.108 -0.003 -0.61 0.03 -0.09 0.78
1 1.17 117 0.527 -9.611 2.346 -0.019 -0.017 0.019 -509.968 419.876 2279.865 0.063 0.136 0.088 -0.61 0.03 -0.09 0.78
1 1.18 118 0.627 -9.587 2.418 -0.021 -0.016 0.007 -389.896 449.857 2174.933 -0.038 0.112 0.015 -0.61 0.03 -0.09 0.78
1 1.19 119 0.488 -9.706 2.457 -0.025 -0.020 0.020 -584.919 524.958 2279.865 0.101 0.232 -0.024 -0.61 0.03 -0.09 0.78
1 1.20 120 0.599 -9.524 2.356 -0.018 -0.018 0.019 -584.919 524.958 2279.865 -0.010 0.049 0.076 -0.61 0.03 -0.09 0.78
1 1.21 121 0.503 -9.577 2.284 -0.021 -0.020 0.017 -389.896 329.935 2324.985 0.085 0.102 0.148 -0.61 0.03 -0.09 0.78
1 1.22 122 0.551 -9.568 2.413 -0.017 -0.018 0.020 -389.896 644.880 2129.962 0.037 0.092 0.017 -0.61 0.03 -0.09 0.78
1 1.23 123 0.522 -9.721 2.409 -0.007 -0.023 0.020 -389.896 644.880 2129.962 0.066 0.245 0.022 -0.61 0.03 -0.09 0.78
1 1.24 124 0.565 -9.592 2.514 -0.013 -0.031 0.020 -344.925 359.916 2264.875 0.022 0.116 -0.084 -0.61 0.03 -0.09 0.78
1 1.25 125 0.603 -9.620 2.433 -0.021 -0.021 0.020 -344.925 464.847 2369.956 -0.017 0.144 -0.003 -0.61 0.03 -0.09 0.78
1 1.26 126 0.661 -9.553 2.375 -0.021 -0.032 0.025 -494.978 434.867 2339.976 -0.074 0.077 0.054 -0.61 0.03 -0.09 0.78
1 1.27 127 0.642 -9.682 2.413 -0.017 -0.027 0.020 -494.978 434.867 2339.976 -0.055 0.206 0.016 -0.61 0.03 -0.09 0.78
1 1.28 128 0.704 -9.625 2.476 -0.015 -0.022 0.028 -434.867 524.958 2384.946 -0.117 0.149 -0.047 -0.61 0.03 -0.09 0.78
1 1.29 129 0.570 -9.678 2.380 -0.006 -0.027 0.017 -269.974 434.867 2369.956 0.017 0.201 0.048 -0.61 0.03 -0.09 0.78
1 1.30 130 0.555 -9.644 2.418 -0.012 -0.026 0.018 -269.974 434.867 2369.956 0.031 0.168 0.009 -0.61 0.03 -0.09 0.78
1 1.31 131 0.670 -9.678 2.500 -0.015 -0.025 0.023 -494.978 539.948 2339.976 -0.084 0.201 -0.073 -0.61 0.03 -0.09 0.78
1 1.32 132 0.532 -9.601 2.361 -0.022 -0.021 0.025 -389.896 449.857 2324.985 0.056 0.124 0.066 -0.61 0.03 -0.09 0.78
1 1.33 133 0.584 -9.496 2.538 -0.013 -0.030 0.020 -509.968 569.929 2279.865 0.003 0.019 -0.112 -0.61 0.03 -0.09 0.78
1 1.34 134 0.603 -9.524 2.222 -0.024 -0.024 0.013 -509.968 569.929 2279.865 -0.016 0.048 0.204 -0.61 0.03 -0.09 0.78
1 1.35 135 0.565 -9.582 2.457 -0.016 -0.017 0.017 -329.935 419.876 2354.966 0.023 0.105 -0.032 -0.61 0.03 -0.09 0.78
1 1.36 136 0.666 -9.601 2.342 -0.017 -0.020 0.017 -434.867 494.978 2249.884 -0.078 0.124 0.082 -0.61 0.03 -0.09 0.78
1 1.37 137 0.704 -9.544 2.284 -0.010 -0.022 0.016 -434.867 494.978 2249.884 -0.116 0.066 0.139 -0.61 0.03 -0.09 0.78
1 1.38 138 0.747 -9.630 2.322 -0.018 -0.031 0.017 -389.896 419.876 2324.985 -0.158 0.152 0.100 -0.61 0.03 -0.09 0.78
1 1.39 139 0.575 -9.611 2.385 -0.014 -0.031 0.015 -389.896 419.876 2324.985 0.015 0.133 0.037 -0.61 0.03 -0.09 0.78
1 1.40 140 0.776 -9.625 2.380 -0.011 -0.022 0.025 -419.876 539.948 2339.976 -0.186 0.147 0.040 -0.61 0.03 -0.09 0.78
1 1.41 141 0.718 -9.639 2.294 -0.017 -0.023 0.021 -419.876 539.948 2339.976 -0.128 0.161 0.126 -0.61 0.03 -0.09 0.78
1 1.42 142 0.651 -9.630 2.409 -0.012 -0.016 0.018 -464.997 524.958 2204.914 -0.060 0.151 0.010 -0.61 0.03 -0.09 0.78
1 1.43 143 0.833 -9.649 2.342 -0.014 -0.023 0.018 -509.968 494.978 2249.884 -0.242 0.170 0.076 -0.61 0.03 -0.09 0.78
1 1.44 144 0.651 -9.501 2.308 -0.024 -0.018 0.013 -509.968 494.978 2249.884 -0.059 0.022 0.109 -0.61 0.03 -0.09 0.78
1 1.45 145 0.560 -9.587 2.385 -0.014 -0.008 0.014 -359.916 494.978 2204.914 0.032 0.108 0.032 -0.61 0.03 -0.09 0.78
1 1.46 146 0.570 -9.572 2.409 -0.018 -0.012 0.009 -359.916 494.978 2204.914 0.024 0.093 0.007 -0.61 0.03 -0.09 0.78
1 1.47 147 0.589 -9.611 2.375 -0.015 -0.005 0.018 -599.909 434.867 2159.943 0.004 0.131 0.039 -0.61 0.03 -0.09 0.78
1 1.48 148 0.623 -9.692 2.423 -0.020 -0.010 0.013 -599.909 434.867 2159.943 -0.029 0.213 -0.009 -0.61 0.03 -0.09 0.78
1 1.49 149 0.646 -9.520 2.327 -0.034 -0.014 0.017 -329.935 449.857 2324.985 -0.053 0.040 0.086 -0.61 0.03 -0.09 0.78
1 1.50 150 0.661 -9.505 2.447 -0.020 -0.017 0.023 -449.857 434.867 2339.976 -0.067 0.026 -0.034 -0.61 0.03 -0.09 0.78
1 1.51 151 0.589 -9.611 2.370 -0.028 -0.018 0.021 -449.857 434.867 2339.976 0.005 0.131 0.042 -0.61 0.03 -0.09 0.78
1 1.52 152 0.656 -9.678 2.351 -0.021 -0.015 0.009 -374.906 539.948 2369.956 -0.062 0.198 0.060 -0.61 0.03 -0.09 0.78
1 1.53 153 0.623 -9.668 2.327 -0.020 -0.020 0.021 -374.906 539.948 2369.956 -0.028 0.188 0.084 -0.61 0.03 -0.09 0.78
1 1.54 154 0.570 -9.592 2.428 -0.020 -0.013 0.018 -359.916 524.958 2204.914 0.025 0.111 -0.018 -0.61 0.03 -0.09 0.78
1 1.55 155 0.560 -9.687 2.418 -0.021 -0.012 0.014 -359.916 524.958 2204.914 0.035 0.207 -0.008 -0.61 0.03 -0.09 0.78
1 1.56 156 0.646 -9.659 2.337 -0.021 -0.015 0.015 -524.958 464.847 2339.976 -0.052 0.178 0.073 -0.61 0.03 -0.09 0.78
1 1.57 157 0.618 -9.659 2.423 -0.023 -0.010 0.022 -449.857 539.948 2339.976 -0.023 0.178 -0.014 -0.61 0.03 -0.09 0.78
1 1.58 158 0.541 -9.630 2.294 -0.015 -0.004 0.006 -449.857 539.948 2339.976 0.054 0.149 0.115 -0.61 0.03 -0.09 0.78
1 1.59 159 0.517 -9.673 2.433 -0.006 -0.010 0.010 -374.906 584.919 2159.943 0.078 0.192 -0.025 -0.61 0.03 -0.09 0.78
1 1.60 160 0.527 -9.548 2.428 -0.020 -0.013 0.017 -374.906 584.919 2159.943 0.068 0.067 -0.020 -0.61 0.03 -0.09 0.78
1 1.61 161 0.594 -9.625 2.428 -0.008 -0.017 0.016 -449.857 629.890 2219.904 0.000 0.144 -0.020 -0.61 0.03 -0.09 0.78
1 1.62 162 0.690 -9.568 2.423 -0.018 -0.019 0.019 -494.978 584.919 2264.875 -0.096 0.087 -0.015 -0.61 0.03 -0.09 0.78
1 1.63 163 0.737 -9.635 2.394 -0.028 -0.005 0.009 -419.876 389.896 2264.875 -0.143 0.154 0.014 -0.61 0.03 -0.09 0.78
1 1.64 164 0.637 -9.668 2.404 -0.018 0.001 0.020 -464.997 449.857 2324.985 -0.042 0.187 0.004 -0.61 0.03 -0.09 0.78
1 1.65 165 0.642 -9.706 2.394 -0.023 0.003 0.002 -464.997 449.857 2324.985 -0.046 0.225 0.013 -0.61 0.03 -0.09 0.78
1 1.66 166 0.541 -9.668 2.385 -0.013 -0.005 0.015 -374.906 464.847 2294.855 0.054 0.187 0.022 -0.61 0.03 -0.09 0.78
1 1.67 167 0.637 -9.558 2.480 -0.005 -0.022 0.017 -374.906 464.847 2294.855 -0.041 0.077 -0.074 -0.61 0.03 -0.09 0.78
1 1.68 168 0.503 -9.620 2.361 -0.006 -0.030 0.015 -359.916 644.880 2249.884 0.092 0.139 0.046 -0.61 0.03 -0.09 0.78
1 1.69 169 0.493 -9.620 2.461 -0.015 -0.010 0.012 -434.867 419.876 2384.946 0.102 0.139 -0.055 -0.61 0.03 -0.09 0.78
1 1.70 170 0.565 -9.524 2.404 -0.013 -0.012 0.013 -494.978 464.847 2414.927 0.030 0.043 0.002 -0.61 0.03 -0.09 0.78
1 1.71 171 0.627 -9.553 2.423 -0.011 -0.021 0.017 -374.906 509.968 2159.943 -0.032 0.072 -0.017 -0.61 0.03 -0.09 0.78
1 1.72 172 0.589 -9.702 2.437 -0.019 -0.022 0.018 -374.906 509.968 2159.943 0.006 0.220 -0.032 -0.61 0.03 -0.09 0.78
1 1.73 173 0.555 -9.769 2.514 -0.014 -0.028 0.017 -344.925 434.867 2294.855 0.039 0.287 -0.109 -0.61 0.03 -0.09 0.78
1 1.74 174 0.685 -9.644 2.409 0.013 -0.027 0.014 -344.925 434.867 2294.855 -0.090 0.163 -0.004 -0.61 0.03 -0.09 0.78
1 1.75 175 0.709 -9.635 2.380 0.005 -0.023 0.025 -434.867 374.906 2204.914 -0.114 0.153 0.026 -0.61 0.03 -0.09 0.78
1 1.76 176 0.699 -9.568 2.433 0.002 -0.021 0.026 -374.906 434.867 2219.904 -0.105 0.087 -0.024 -0.61 0.03 -0.09 0.78
1 1.77 177 0.613 -9.524 2.370 -0.002 -0.003 0.026 -419.876 464.847 2339.976 -0.018 0.044 0.039 -0.61 0.03 -0.09 0.78
1 1.78 178 0.632 -9.644 2.504 -0.019 -0.007 0.014 -389.896 419.876 2204.914 -0.036 0.164 -0.094 -0.61 0.03 -0.09 0.78
1 1.79 179 0.651 -9.659 2.337 -0.028 -0.021 0.020 -389.896 419.876 2204.914 -0.055 0.178 0.073 -0.61 0.03 -0.09 0.78
1 1.80 180 0.436 -9.505 2.466 -0.024 -0.019 0.011 -389.896 524.958 2279.865 0.160 0.025 -0.056 -0.61 0.03 -0.09 0.78
1 1.81 181 0.608 -9.563 2.361 -0.005 -0.014 0.021 -389.896 524.958 2279.865 -0.013 0.082 0.049 -0.61 0.03 -0.09 0.78
1 1.82 182 0.579 -9.644 2.413 0.003 -0.015 0.024 -344.925 434.867 2414.927 0.016 0.164 -0.004 -0.61 0.03 -0.09 0.78
1 1.83 183 0.637 -9.524 2.361 -0.010 -0.015 0.027 -269.974 389.896 2474.888 -0.042 0.044 0.049 -0.61 0.03 -0.09 0.78
1 1.84 184 0.551 -9.587 2.418 -0.011 -0.018 0.020 -389.896 524.958 2324.985 0.045 0.106 -0.010 -0.61 0.03 -0.09 0.78
1 1.85 185 0.694 -9.572 2.452 -0.011 -0.014 0.021 -434.867 644.880 2279.865 -0.099 0.092 -0.043 -0.61 0.03 -0.09 0.78
1 1.86 186 0.618 -9.644 2.342 -0.004 -0.019 0.010 -434.867 644.880 2279.865 -0.022 0.163 0.066 -0.61 0.03 -0.09 0.78
1 1.87 187 0.536 -9.534 2.380 -0.012 -0.021 0.014 -359.916 449.857 2174.933 0.059 0.053 0.027 -0.61 0.03 -0.09 0.78
1 1.88 188 0.603 -9.577 2.528 -0.003 -0.004 0.010 -359.916 449.857 2174.933 -0.008 0.096 -0.122 -0.61 0.03 -0.09 0.78
1 1.89 189 0.599 -9.630 2.289 -0.014 -0.014 0.018 -434.867 524.958 2384.946 -0.003 0.149 0.117 -0.61 0.03 -0.09 0.78
1 1.90 190 0.728 -9.558 2.452 -0.003 -0.009 0.023 -299.955 389.896 2189.923 -0.132 0.077 -0.045 -0.61 0.03 -0.09 0.78
1 1.91 191 0.651 -9.553 2.356 -0.020 -0.005 0.011 -419.876 539.948 2189.923 -0.054 0.072 0.049 -0.61 0.03 -0.09 0.78
1 1.92 192 0.637 -9.577 2.351 -0.012 0.003 0.012 -419.876 659.870 2219.904 -0.039 0.096 0.054 -0.61 0.03 -0.09 0.78
1 1.93 193 0.584 -9.587 2.476 -0.017 -0.006 0.019 -419.876 659.870 2219.904 0.013 0.105 -0.071 -0.61 0.03 -0.09 0.78
1 1.94 194 0.541 -9.529 2.519 -0.014 -0.001 0.013 -329.935 449.857 2249.884 0.056 0.048 -0.114 -0.61 0.03 -0.09 0.78
1 1.95 195 0.637 -9.682 2.380 -0.007 0.001 0.028 -329.935 449.857 2249.884 -0.040 0.201 0.025 -0.61 0.03 -0.09 0.78
1 1.96 196 0.498 -9.601 2.342 -0.013 -0.005 0.010 -494.978 659.870 2264.875 0.099 0.119 0.062 -0.61 0.03 -0.09 0.78
1 1.97 197 0.685 -9.539 2.356 -0.008 -0.001 0.007 -449.857 584.919 2264.875 -0.087 0.057 0.048 -0.61 0.03 -0.09 0.78
1 1.98 198 0.666 -9.563 2.404 -0.010 -0.006 0.010 -464.997 419.876 2279.865 -0.068 0.081 -0.002 -0.61 0.03 -0.09 0.78
1 1.99 199 0.589 -9.687 2.433 -0.018 -0.002 0.015 -509.968 449.857 2279.865 0.008 0.205 -0.031 -0.61 0.03 -0.09 0.78
1 2.00 200 0.623 -9.697 2.394 -0.020 -0.004 0.016 -509.968 449.857 2279.865 -0.025 0.215 0.008 -0.61 0.03 -0.09 0.78
1 2.01 201 0.670 -9.635 2.413 -0.022 -0.003 0.024 -449.857 464.847 2219.904 -0.073 0.152 -0.012 -0.61 0.03 -0.09 0.78
1 2.02 202 0.623 -9.668 2.275 -0.009 0.011 0.014 -449.857 464.847 2219.904 -0.026 0.186 0.127 -0.61 0.03 -0.09 0.78
1 2.03 203 0.517 -9.740 2.428 -0.001 0.005 0.011 -389.896 644.880 2279.865 0.080 0.257 -0.027 -0.61 0.03 -0.09 0.78
1 2.04 204 0.661 -9.568 2.466 -0.006 0.011 0.016 -359.916 449.857 2324.985 -0.064 0.085 -0.064 -0.61 0.03 -0.09 0.78
1 2.05 205 0.646 -9.678 2.380 -0.006 0.003 0.013 -359.916 449.857 2324.985 -0.050 0.195 0.022 -0.61 0.03 -0.09 0.78
1 2.06 206 0.579 -9.510 2.466 -0.005 0.001 0.020 -539.948 449.857 2249.884 0.016 0.028 -0.063 -0.61 0.03 -0.09 0.78
1 2.07 207 0.589 -9.419 2.409 -0.004 -0.006 0.016 -539.948 449.857 2249.884 0.006 -0.063 -0.005 -0.61 0.03 -0.09 0.78
1 2.08 208 0.522 -9.625 2.442 0.008 -0.006 0.014 -419.876 359.916 2114.972 0.073 0.143 -0.038 -0.61 0.03 -0.09 0.78
1 2.09 209 0.479 -9.577 2.433 0.002 -0.006 0.017 -419.876 359.916 2114.972 0.116 0.096 -0.027 -0.61 0.03 -0.09 0.78
1 2.10 210 0.570 -9.592 2.509 -0.001 -0.024 0.023 -254.984 494.978 2279.865 0.024 0.110 -0.104 -0.61 0.03 -0.09 0.78
1 2.11 211 0.570 -9.568 2.504 0.011 -0.017 0.015 -374.906 434.867 2264.875 0.023 0.086 -0.098 -0.61 0.03 -0.09 0.78
1 2.12 212 0.565 -9.582 2.380 0.002 -0.012 0.022 -374.906 434.867 2264.875 0.027 0.101 0.028 -0.61 0.03 -0.09 0.78
1 2.13 213 0.570 -9.654 2.524 0.000 -0.010 0.023 -344.925 659.870 2219.904 0.023 0.173 -0.115 -0.61 0.03 -0.09 0.78
1 2.14 214 0.608 -9.491 2.581 0.009 -0.011 0.013 -344.925 659.870 2219.904 -0.016 0.010 -0.171 -0.61 0.03 -0.09 0.78
1 2.15 215 0.551 -9.615 2.418 0.011 -0.023 0.022 -389.896 329.935 2174.933 0.041 0.136 -0.005 -0.61 0.03 -0.09 0.78
1 2.16 216 0.570 -9.563 2.548 -0.001 -0.022 0.021 -389.896 329.935 2174.933 0.022 0.083 -0.133 -0.61 0.03 -0.09 0.78
1 2.17 217 0.680 -9.635 2.509 0.009 -0.015 0.019 -449.857 509.968 2294.855 -0.088 0.155 -0.094 -0.61 0.03 -0.09 0.78
1 2.18 218 0.632 -9.534 2.375 0.001 -0.010 0.018 -434.867 449.857 2204.914 -0.040 0.055 0.042 -0.61 0.03 -0.09 0.78
1 2.19 219 0.603 -9.659 2.504 -0.007 -0.011 0.023 -434.867 449.857 2204.914 -0.011 0.180 -0.086 -0.61 0.03 -0.09 0.78
1 2.20 220 0.608 -9.558 2.576 -0.001 0.000 0.017 -389.896 494.978 2249.884 -0.016 0.081 -0.154 -0.61 0.03 -0.09 0.78
1 2.21 221 0.661 -9.682 2.366 0.003 0.001 0.027 -389.896 494.978 2249.884 -0.069 0.206 0.059 -0.61 0.03 -0.09 0.78
1 2.22 222 0.469 -9.644 2.452 0.009 -0.001 0.012 -494.978 509.968 2189.923 0.122 0.168 -0.024 -0.61 0.03 -0.09 0.78
1 2.23 223 0.565 -9.639 2.528 0.012 0.006 0.014 -494.978 509.968 2189.923 0.026 0.164 -0.098 -0.61 0.03 -0.09 0.78
1 2.24 224 0.527 -9.601 2.519 0.017 -0.006 0.021 -434.867 569.929 2279.865 0.064 0.126 -0.085 -0.61 0.03 -0.09 0.78
1 2.25 225 0.565 -9.582 2.442 0.007 -0.004 0.017 -419.876 434.867 2264.875 0.025 0.108 -0.005 -0.61 0.03 -0.09 0.79
1 2.26 226 0.536 -9.548 2.533 0.004 -0.012 0.018 -419.876 434.867 2264.875 0.053 0.075 -0.093 -0.61 0.03 -0.09 0.79
1 2.27 227 0.690 -9.405 2.548 0.012 -0.008 0.015 -374.906 509.968 2189.923 -0.100 -0.068 -0.106 -0.61 0.03 -0.09 0.79
1 2.28 228 0.627 -9.592 2.389 0.018 -0.019 0.021 -374.906 509.968 2084.992 -0.038 0.121 0.059 -0.61 0.03 -0.09 0.79
1 2.29 229 0.690 -9.606 2.586 0.021 -0.004 0.019 -419.876 584.919 2264.875 -0.099 0.136 -0.135 -0.61 0.03 -0.09 0.79
1 2.30 230 0.594 -9.630 2.452 0.022 -0.013 0.014 -419.876 584.919 2264.875 -0.003 0.161 0.003 -0.61 0.03 -0.09 0.79
1 2.31 231 0.613 -9.601 2.495 0.011 -0.010 0.007 -419.876 464.847 2219.904 -0.023 0.133 -0.037 -0.61 0.03 -0.09 0.79
1 2.32 232 0.594 -9.548 2.509 0.024 -0.009 0.006 -434.867 494.978 2174.933 -0.003 0.081 -0.048 -0.61 0.03 -0.09 0.79
1 2.33 233 0.575 -9.644 2.428 0.013 -0.011 0.013 -434.867 494.978 2174.933 0.016 0.178 0.037 -0.61 0.03 -0.09 0.79
1 2.34 234 0.517 -9.529 2.682 0.014 -0.010 0.013 -419.876 209.863 2339.976 0.074 0.063 -0.214 -0.61 0.03 -0.09 0.79
1 2.35 235 0.742 -9.572 2.533 0.015 -0.010 0.014 -494.978 509.968 2189.923 -0.152 0.108 -0.058 -0.61 0.03 -0.09 0.79
1 2.36 236 0.589 -9.505 2.471 0.011 -0.003 0.023 -494.978 509.968 2189.923 0.002 0.042 0.008 -0.61 0.03 -0.09 0.79
1 2.37 237 0.551 -9.620 2.447 0.016 -0.001 0.018 -494.978 509.968 2189.923 0.039 0.158 0.034 -0.61 0.03 -0.09 0.79
1 2.38 238 0.603 -9.491 2.552 0.025 -0.003 0.011 -434.867 644.880 2174.933 -0.013 0.030 -0.068 -0.61 0.03 -0.09 0.79
1 2.39 239 0.541 -9.654 2.442 0.028 0.001 0.014 -494.978 584.919 2159.943 0.049 0.194 0.047 -0.61 0.03 -0.09 0.79
1 2.40 240 0.474 -9.563 2.533 0.026 -0.010 0.005 -494.978 584.919 2159.943 0.116 0.104 -0.040 -0.61 0.03 -0.09 0.79
1 2.41 241 0.694 -9.697 2.538 0.030 -0.007 0.017 -359.916 599.909 2279.865 -0.105 0.239 -0.041 -0.61 0.03 -0.09 0.79
1 2.42 242 0.694 -9.453 2.552 0.031 -0.006 0.010 -374.906 389.896 2189.923 -0.105 -0.003 -0.047 -0.61 0.03 -0.09 0.79
1 2.43 243 0.603 -9.615 2.504 0.036 -0.010 0.023 -464.997 449.857 2099.982 -0.013 0.161 0.005 -0.61 0.03 -0.09 0.79
1 2.44 244 0.503 -9.711 2.648 0.029 -0.004 0.017 -464.997 449.857 2099.982 0.087 0.258 -0.134 -0.61 0.03 -0.09 0.79
1 2.45 245 0.493 -9.582 2.452 0.030 -0.010 0.011 -434.867 719.981 2129.962 0.096 0.129 0.066 -0.61 0.03 -0.09 0.79
1 2.46 246 0.536 -9.702 2.528 0.023 -0.013 0.018 -449.857 434.867 2159.943 0.053 0.250 -0.007 -0.61 0.03 -0.09 0.79
1 2.47 247 0.675 -9.601 2.447 0.022 -0.008 0.021 -449.857 434.867 2159.943 -0.086 0.150 0.078 -0.61 0.03 -0.09 0.79
1 2.48 248 0.579 -9.639 2.538 0.015 -0.010 0.006 -419.876 584.919 2114.972 0.010 0.190 -0.009 -0.61 0.03 -0.09 0.79
1 2.49 249 0.608 -9.601 2.753 0.016 -0.006 0.026 -434.867 494.978 2204.914 -0.018 0.152 -0.222 -0.61 0.03 -0.09 0.79
1 2.50 250 0.824 -9.539 2.615 0.007 -0.011 0.023 -509.968 494.978 2174.933 -0.234 0.091 -0.077 -0.61 0.03 -0.09 0.79
1 2.51 251 0.699 -9.510 2.595 0.007 -0.007 0.012 -509.968 494.978 2174.933 -0.109 0.063 -0.056 -0.61 0.03 -0.09 0.79
1 2.52 252 0.589 -9.496 2.624 0.014 -0.002 0.013 -299.955 509.968 2219.904 0.001 0.050 -0.082 -0.61 0.03 -0.09 0.79
1 2.53 253 0.589 -9.505 2.629 0.006 -0.003 0.028 -359.916 644.880 2279.865 0.001 0.060 -0.084 -0.61 0.03 -0.09 0.79
1 2.54 254 0.589 -9.572 2.524 0.005 0.004 0.018 -359.916 644.880 2279.865 0.000 0.128 0.024 -0.61 0.03 -0.09 0.79
1 2.55 255 0.546 -9.448 2.615 0.006 -0.001 0.003 -374.906 509.968 2264.875 0.043 0.004 -0.064 -0.61 0.03 -0.09 0.79
1 2.56 256 0.541 -9.572 2.581 0.005 -0.009 0.014 -419.876 509.968 2219.904 0.048 0.129 -0.028 -0.61 0.03 -0.09 0.79
1 2.57 257 0.484 -9.505 2.634 -0.004 -0.024 0.019 -569.929 659.870 2219.904 0.104 0.063 -0.077 -0.61 0.03 -0.09 0.79
1 2.58 258 0.623 -9.548 2.581 0.002 -0.025 0.015 -569.929 659.870 2219.904 -0.035 0.106 -0.024 -0.61 0.03 -0.09 0.79
1 2.59 259 0.685 -9.486 2.610 -0.001 -0.023 0.015 -449.857 389.896 2219.904 -0.097 0.044 -0.051 -0.61 0.03 -0.09 0.79
1 2.60 260 0.579 -9.548 2.639 0.006 -0.006 0.020 -434.867 494.978 2174.933 0.009 0.107 -0.079 -0.61 0.03 -0.09 0.79
1 2.61 261 0.680 -9.520 2.571 0.010 -0.009 0.010 -434.867 494.978 2174.933 -0.092 0.079 -0.009 -0.61 0.03 -0.09 0.79
1 2.62 262 0.532 -9.639 2.567 -0.003 -0.026 0.025 -329.935 419.876 2069.852 0.057 0.199 -0.002 -0.61 0.03 -0.09 0.79
1 2.63 263 0.603 -9.630 2.605 0.002 -0.034 0.024 -389.896 524.958 2204.914 -0.015 0.190 -0.039 -0.61 0.03 -0.09 0.79
1 2.64 264 0.651 -9.491 2.653 0.010 -0.031 0.014 -389.896 419.876 2129.962 -0.064 0.052 -0.083 -0.61 0.03 -0.09 0.79
1 2.65 265 0.704 -9.558 2.662 0.012 -0.022 0.015 -389.896 419.876 2129.962 -0.116 0.120 -0.090 -0.61 0.03 -0.09 0.79
1 2.66 266 0.627 -9.649 2.538 0.008 -0.024 0.019 -434.867 494.978 2354.966 -0.039 0.212 0.038 -0.61 0.03 -0.09 0.79
1 2.67 267 0.579 -9.548 2.562 0.009 -0.020 0.015 -509.968 569.929 2174.933 0.010 0.112 0.017 -0.61 0.03 -0.09 0.79
1 2.68 268 0.613 -9.673 2.615 -0.003 -0.014 0.013 -509.968 569.929 2174.933 -0.024 0.237 -0.034 -0.61 0.03 -0.09 0.79
1 2.69 269 0.536 -9.620 2.682 -0.001 -0.015 0.016 -359.916 569.929 2129.962 0.053 0.184 -0.102 -0.61 0.03 -0.09 0.79
1 2.70 270 0.646 -9.539 2.739 0.001 -0.025 0.019 -344.925 584.919 2159.943 -0.058 0.103 -0.158 -0.61 0.03 -0.09 0.79
1 2.71 271 0.541 -9.553 2.595 0.015 -0.017 0.018 -344.925 584.919 2159.943 0.048 0.118 -0.012 -0.61 0.03 -0.09 0.79
1 2.72 272 0.632 -9.539 2.634 0.014 -0.015 0.019 -509.968 494.978 2174.933 -0.044 0.106 -0.044 -0.61 0.03 -0.09 0.79
1 2.73 273 0.623 -9.630 2.753 0.003 -0.022 0.017 -464.997 494.978 2204.914 -0.035 0.198 -0.160 -0.61 0.03 -0.09 0.79
1 2.74 274 0.560 -9.620 2.672 0.006 -0.015 0.020 -389.896 494.978 2204.914 0.029 0.189 -0.076 -0.61 0.03 -0.09 0.79
1 2.75 275 0.618 -9.481 2.600 0.005 -0.019 0.026 -389.896 494.978 2204.914 -0.030 0.051 -0.001 -0.61 0.03 -0.09 0.79
1 2.76 276 0.709 -9.620 2.662 0.011 -0.029 0.016 -389.896 599.909 2129.962 -0.121 0.190 -0.061 -0.61 0.03 -0.09 0.79
1 2.77 277 0.651 -9.553 2.662 0.013 -0.018 0.023 -299.955 539.948 2219.904 -0.062 0.124 -0.059 -0.61 0.03 -0.09 0.79
1 2.78 278 0.661 -9.596 2.586 0.014 -0.029 0.020 -299.955 539.948 2219.904 -0.072 0.168 0.020 -0.6 0.03 -0.09 0.79
1 2.79 279 0.579 -9.534 2.653 0.014 -0.017 0.010 -539.948 644.880 2279.865 0.011 0.107 -0.041 -0.6 0.03 -0.09 0.79
1 2.80 280 0.570 -9.611 2.662 0.007 -0.017 0.022 -344.925 629.890 2114.972 0.021 0.185 -0.047 -0.6 0.03 -0.09 0.79
1 2.81 281 0.632 -9.371 2.701 0.011 -0.013 0.017 -389.896 419.876 2204.914 -0.041 -0.054 -0.083 -0.6 0.03 -0.09 0.79
1 2.82 282 0.589 -9.520 2.696 0.010 -0.017 0.012 -389.896 419.876 2204.914 0.002 0.095 -0.075 -0.6 0.03 -0.09 0.79
1 2.83 283 0.603 -9.568 2.643 0.005 -0.020 0.019 -434.867 569.929 2174.933 -0.012 0.144 -0.020 -0.6 0.03 -0.09 0.79
1 2.84 284 0.488 -9.390 2.662 0.004 -0.021 0.015 -449.857 584.919 2159.943 0.103 -0.033 -0.036 -0.6 0.03 -0.09 0.79
1 2.85 285 0.532 -9.615 2.830 0.007 -0.022 0.014 -449.857 584.919 2159.943 0.060 0.193 -0.202 -0.6 0.03 -0.09 0.79
1 2.86 286 0.555 -9.501 2.691 -0.006 -0.015 0.018 -464.997 569.929 2249.884 0.035 0.079 -0.058 -0.6 0.03 -0.09 0.79
1 2.87 287 0.608 -9.491 2.528 -0.002 -0.019 0.010 -359.916 419.876 2099.982 -0.017 0.070 0.105 -0.6 0.03 -0.09 0.79
1 2.88 288 0.536 -9.433 2.701 -0.003 -0.019 0.017 -494.978 539.948 2084.992 0.055 0.012 -0.068 -0.6 0.03 -0.09 0.79
1 2.89 289 0.541 -9.477 2.667 -0.014 -0.026 0.025 -494.978 539.948 2084.992 0.050 0.056 -0.034 -0.6 0.03 -0.09 0.79
1 2.90 290 0.532 -9.433 2.758 -0.011 -0.020 0.023 -449.857 539.948 2084.992 0.059 0.013 -0.124 -0.6 0.03 -0.09 0.79
1 2.91 291 0.675 -9.615 2.792 0.001 -0.023 0.017 -494.978 629.890 2219.904 -0.085 0.195 -0.157 -0.6 0.03 -0.09 0.79
1 2.92 292 0.527 -9.481 2.773 0.011 -0.027 0.009 -494.978 629.890 2219.904 0.064 0.061 -0.137 -0.6 0.03 -0.09 0.79
1 2.93 293 0.555 -9.529 2.715 0.002 -0.022 0.024 -464.997 524.958 2204.914 0.036 0.110 -0.077 -0.6 0.03 -0.09 0.79
1 2.94 294 0.623 -9.467 2.586 0.002 -0.017 0.022 -524.958 539.948 2219.904 -0.031 0.048 0.056 -0.6 0.03 -0.09 0.79
1 2.95 295 0.584 -9.501 2.715 -0.005 -0.012 0.017 -449.857 464.847 2189.923 0.007 0.082 -0.072 -0.6 0.03 -0.09 0.79
1 2.96 296 0.675 -9.501 2.634 -0.003 -0.018 0.015 -449.857 464.847 2189.923 -0.084 0.082 0.010 -0.6 0.03 -0.09 0.79
1 2.97 297 0.579 -9.491 2.739 -0.008 -0.010 0.015 -434.867 449.857 2129.962 0.011 0.073 -0.096 -0.6 0.03 -0.09 0.79
1 2.98 298 0.503 -9.491 2.739 -0.008 -0.021 0.017 -539.948 599.909 2024.881 0.088 0.073 -0.094 -0.6 0.03 -0.09 0.79
1 2.99 299 0.618 -9.443 2.768 -0.007 -0.019 0.015 -539.948 599.909 2024.881 -0.027 0.025 -0.123 -0.6 0.03 -0.09 0.79
1 3.00 300 0.503 -9.625 2.710 -0.012 -0.025 0.022 -389.896 569.929 2174.933 0.087 0.207 -0.065 -0.6 0.03 -0.09 0.79
1 3.01 301 0.627 -9.443 2.725 -0.013 -0.023 0.016 -494.978 434.867 2039.871 -0.038 0.026 -0.078 -0.6 0.03 -0.09 0.79
1 3.02 302 0.608 -9.486 2.667 -0.006 -0.032 0.022 -419.876 539.948 2039.871 -0.019 0.069 -0.020 -0.6 0.03 -0.09 0.79
1 3.03 303 0.613 -9.520 2.725 -0.006 -0.029 0.025 -419.876 539.948 2039.871 -0.024 0.102 -0.078 -0.6 0.03 -0.09 0.79
1 3.04 304 0.661 -9.577 2.696 -0.009 -0.025 0.014 -464.997 449.857 1994.900 -0.072 0.160 -0.049 -0.6 0.03 -0.09 0.79
1 3.05 305 0.713 -9.429 2.691 -0.011 -0.032 0.002 -284.964 599.909 2024.881 -0.124 0.011 -0.044 -0.6 0.03 -0.09 0.79
1 3.06 306 0.613 -9.553 2.706 -0.025 -0.024 0.019 -284.964 599.909 2024.881 -0.023 0.136 -0.058 -0.6 0.03 -0.09 0.79
1 3.07 307 0.666 -9.510 2.634 -0.018 -0.019 0.016 -389.896 569.929 2099.982 -0.075 0.093 0.015 -0.6 0.03 -0.09 0.79
1 3.08 308 0.656 -9.501 2.816 -0.026 -0.009 0.022 -419.876 509.968 2084.992 -0.065 0.084 -0.167 -0.6 0.03 -0.09 0.79
1 3.09 309 0.603 -9.477 2.710 -0.029 -0.018 0.019 -449.857 704.991 2219.904 -0.012 0.060 -0.061 -0.6 0.03 -0.09 0.79
1 3.10 310 0.599 -9.520 2.686 -0.021 -0.010 0.018 -449.857 704.991 2219.904 -0.007 0.103 -0.037 -0.6 0.03 -0.09 0.79
1 3.11 311 0.632 -9.467 2.801 -0.023 -0.008 0.009 -329.935 674.860 2129.962 -0.040 0.051 -0.151 -0.6 0.03 -0.09 0.79
1 3.12 312 0.594 -9.548 2.653 -0.020 -0.003 0.017 -419.876 629.890 2219.904 -0.001 0.132 -0.002 -0.6 0.03 -0.09 0.79
1 3.13 313 0.656 -9.668 2.768 -0.011 -0.021 0.013 -419.876 629.890 2219.904 -0.063 0.252 -0.117 -0.6 0.03 -0.09 0.79
1 3.14 314 0.570 -9.505 2.682 -0.019 -0.016 0.012 -494.978 464.847 2159.943 0.022 0.090 -0.030 -0.6 0.03 -0.09 0.79
1 3.15 315 0.594 -9.539 2.682 -0.032 -0.009 0.014 -494.978 464.847 2159.943 -0.001 0.123 -0.030 -0.6 0.03 -0.09 0.79
1 3.16 316 0.589 -9.486 2.792 -0.027 -0.020 0.013 -374.906 539.948 2159.943 0.004 0.071 -0.139 -0.6 0.03 -0.09 0.79
1 3.17 317 0.536 -9.568 2.643 -0.038 -0.013 0.014 -374.906 539.948 2159.943 0.056 0.152 0.010 -0.6 0.03 -0.09 0.79
1 3.18 318 0.637 -9.601 2.710 -0.032 -0.011 0.021 -494.978 464.847 2084.992 -0.045 0.186 -0.057 -0.6 0.03 -0.09 0.79
1 3.19 319 0.666 -9.539 2.615 -0.027 -0.017 0.014 -359.916 524.958 2069.852 -0.073 0.124 0.039 -0.6 0.03 -0.09 0.79
1 3.20 320 0.541 -9.520 2.672 -0.034 -0.014 0.026 -359.916 524.958 2069.852 0.051 0.104 -0.018 -0.6 0.03 -0.09 0.79
1 3.21 321 0.618 -9.553 2.729 -0.035 -0.020 0.017 -434.867 644.880 2069.852 -0.025 0.138 -0.076 -0.6 0.03 -0.09 0.79
1 3.22 322 0.646 -9.448 2.662 -0.028 -0.012 0.020 -434.867 644.880 2069.852 -0.054 0.033 -0.008 -0.6 0.03 -0.09 0.79
1 3.23 323 0.599 -9.524 2.763 -0.027 -0.012 0.019 -434.867 644.880 1949.930 -0.006 0.109 -0.109 -0.6 0.03 -0.09 0.79
1 3.24 324 0.565 -9.510 2.768 -0.035 -0.010 0.010 -434.867 644.880 1949.930 0.027 0.095 -0.114 -0.6 0.03 -0.09 0.79
1 3.25 325 0.532 -9.548 2.662 -0.031 -0.003 0.022 -284.964 494.978 2129.962 0.061 0.133 -0.008 -0.6 0.03 -0.09 0.79
1 3.26 326 0.522 -9.481 2.629 -0.034 -0.003 0.019 -419.876 509.968 2084.992 0.071 0.067 0.026 -0.6 0.03 -0.09 0.79
1 3.27 327 0.709 -9.501 2.725 -0.047 -0.002 0.026 -419.876 509.968 2084.992 -0.117 0.085 -0.071 -0.6 0.03 -0.09 0.79
1 3.28 328 0.594 -9.510 2.624 -0.041 -0.004 0.027 -494.978 659.870 2114.972 -0.002 0.095 0.029 -0.6 0.03 -0.09 0.79
1 3.29 329 0.503 -9.501 2.729 -0.040 -0.007 0.016 -494.978 659.870 2114.972 0.088 0.085 -0.077 -0.6 0.03 -0.09 0.79
1 3.30 330 0.488 -9.467 2.749 -0.043 -0.022 0.019 -509.968 374.906 2204.914 0.101 0.051 -0.096 -0.6 0.03 -0.09 0.79
1 3.31 331 0.627 -9.577 2.753 -0.037 -0.021 0.021 -509.968 374.906 2204.914 -0.038 0.161 -0.100 -0.6 0.03 -0.09 0.79
1 3.32 332 0.575 -9.534 2.763 -0.032 -0.018 0.019 -434.867 524.958 2129.962 0.014 0.118 -0.110 -0.6 0.03 -0.09 0.79
1 3.33 333 0.560 -9.520 2.739 -0.038 -0.019 0.011 -254.984 569.929 2099.982 0.028 0.104 -0.086 -0.6 0.03 -0.09 0.79
1 3.34 334 0.464 -9.486 2.792 -0.027 -0.014 0.013 -254.984 569.929 2099.982 0.124 0.071 -0.139 -0.6 0.03 -0.09 0.79
1 3.35 335 0.479 -9.520 2.634 -0.043 -0.022 0.024 -449.857 434.867 2114.972 0.109 0.104 0.020 -0.6 0.03 -0.09 0.79
1 3.36 336 0.613 -9.534 2.701 -0.040 -0.031 0.025 -449.857 434.867 2114.972 -0.025 0.118 -0.048 -0.6 0.03 -0.09 0.79
1 3.37 337 0.646 -9.534 2.672 -0.043 -0.029 0.022 -419.876 464.847 2189.923 -0.059 0.118 -0.019 -0.6 0.03 -0.09 0.79
1 3.38 338 0.517 -9.553 2.600 -0.038 -0.031 0.028 -449.857 629.890 2264.875 0.071 0.137 0.052 -0.6 0.03 -0.09 0.79
1 3.39 339 0.670 -9.467 2.682 -0.046 -0.022 0.023 -359.916 524.958 2174.933 -0.083 0.051 -0.030 -0.6 0.03 -0.09 0.79
1 3.40 340 0.675 -9.467 2.720 -0.046 -0.023 0.027 -494.978 464.847 1964.920 -0.087 0.051 -0.068 -0.6 0.03 -0.09 0.79
1 3.41 341 0.584 -9.539 2.710 -0.042 -0.027 0.019 -494.978 464.847 1964.920 0.004 0.122 -0.060 -0.6 0.03 -0.09 0.79
1 3.42 342 0.642 -9.601 2.749 -0.050 -0.010 0.020 -434.867 569.929 2129.962 -0.054 0.184 -0.100 -0.6 0.03 -0.09 0.79
1 3.43 343 0.551 -9.510 2.639 -0.059 -0.004 0.013 -434.867 569.929 2129.962 0.037 0.093 0.010 -0.6 0.03 -0.09 0.79
1 3.44 344 0.627 -9.491 2.634 -0.042 -0.005 0.019 -494.978 539.948 2159.943 -0.040 0.073 0.012 -0.6 0.03 -0.09 0.79
1 3.45 345 0.536 -9.472 2.648 -0.046 -0.020 0.019 -359.916 674.860 2204.914 0.051 0.053 -0.005 -0.6 0.03 -0.09 0.79
1 3.46 346 0.493 -9.577 2.639 -0.037 -0.043 0.018 -419.876 584.919 2114.972 0.094 0.158 0.004 -0.6 0.03 -0.09 0.79
1 3.47 347 0.618 -9.453 2.691 -0.051 -0.037 0.022 -389.896 449.857 2204.914 -0.031 0.033 -0.051 -0.6 0.03 -0.09 0.79
1 3.48 348 0.632 -9.615 2.643 -0.048 -0.037 0.008 -389.896 449.857 2204.914 -0.045 0.195 -0.005 -0.6 0.03 -0.09 0.79
1 3.49 349 0.517 -9.491 2.639 -0.047 -0.027 0.023 -374.906 584.919 2219.904 0.071 0.070 -0.003 -0.6 0.03 -0.09 0.79
1 3.50 350 0.512 -9.539 2.672 -0.048 -0.013 0.018 -374.906 584.919 2219.904 0.076 0.118 -0.038 -0.6 0.03 -0.09 0.79
1 3.51 351 0.589 -9.587 2.591 -0.051 -0.016 0.024 -449.857 584.919 2159.943 -0.000 0.166 0.043 -0.6 0.03 -0.09 0.79
1 3.52 352 0.575 -9.644 2.615 -0.056 -0.034 0.030 -434.867 599.909 2099.982 0.013 0.221 0.013 -0.6 0.03 -0.09 0.79
1 3.53 353 0.632 -9.668 2.624 -0.041 -0.039 0.016 -374.906 464.847 2264.875 -0.045 0.244 0.001 -0.6 0.03 -0.09 0.79
1 3.54 354 0.795 -9.611 2.634 -0.044 -0.028 0.015 -464.997 524.958 2069.852 -0.207 0.186 -0.011 -0.6 0.03 -0.09 0.79
1 3.55 355 0.685 -9.558 2.634 -0.032 -0.025 0.014 -464.997 524.958 2069.852 -0.096 0.134 -0.011 -0.6 0.03 -0.09 0.79
1 3.56 356 0.661 -9.553 2.586 -0.031 -0.016 0.017 -359.916 494.978 2129.962 -0.072 0.129 0.036 -0.6 0.03 -0.09 0.79
1 3.57 357 0.618 -9.529 2.500 -0.044 -0.017 0.021 -359.916 494.978 2129.962 -0.028 0.105 0.122 -0.6 0.03 -0.09 0.79
1 3.58 358 0.579 -9.553 2.643 -0.041 -0.012 0.025 -329.935 569.929 2024.881 0.011 0.129 -0.022 -0.6 0.03 -0.09 0.79
1 3.59 359 0.613 -9.501 2.548 -0.061 -0.012 0.023 -434.867 569.929 2129.962 -0.023 0.075 0.072 -0.6 0.03 -0.09 0.79
1 3.60 360 0.522 -9.443 2.548 -0.040 -0.014 0.014 -434.867 569.929 2129.962 0.069 0.017 0.067 -0.6 0.03 -0.09 0.79
1 3.61 361 0.599 -9.419 2.600 -0.036 -0.013 0.028 -359.916 449.857 2249.884 -0.008 -0.007 0.014 -0.6 0.03 -0.09 0.79
1 3.62 362 0.555 -9.625 2.557 -0.044 -0.015 0.015 -359.916 449.857 2249.884 0.035 0.198 0.056 -0.6 0.03 -0.09 0.79
1 3.63 363 0.694 -9.534 2.677 -0.053 -0.014 0.015 -389.896 494.978 2249.884 -0.104 0.107 -0.064 -0.6 0.03 -0.09 0.79
1 3.64 364 0.479 -9.611 2.548 -0.046 -0.011 0.018 -389.896 494.978 2249.884 0.112 0.183 0.063 -0.6 0.03 -0.09 0.79
1 3.65 365 0.646 -9.515 2.624 -0.048 -0.023 0.019 -434.867 599.909 2129.962 -0.056 0.087 -0.016 -0.6 0.03 -0.09 0.79
1 3.66 366 0.594 -9.410 2.586 -0.044 -0.011 0.017 -344.925 509.968 2189.923 -0.004 -0.020 0.019 -0.61 0.03 -0.09 0.79
1 3.67 367 0.618 -9.496 2.720 -0.036 -0.015 0.012 -359.916 494.978 2129.962 -0.028 0.066 -0.118 -0.61 0.03 -0.09 0.79
1 3.68 368 0.670 -9.515 2.571 -0.038 -0.014 0.012 -374.906 539.948 2189.923 -0.080 0.085 0.031 -0.61 0.03 -0.09 0.79
1 3.69 369 0.608 -9.625 2.567 -0.038 -0.023 0.017 -374.906 539.948 2189.923 -0.018 0.195 0.035 -0.61 0.03 -0.09 0.79
1 3.70 370 0.517 -9.520 2.519 -0.059 -0.022 0.020 -464.997 674.860 2324.985 0.074 0.089 0.081 -0.61 0.03 -0.09 0.79
1 3.71 371 0.656 -9.496 2.557 -0.059 -0.018 0.015 -464.997 674.860 2324.985 -0.066 0.064 0.039 -0.61 0.03 -0.09 0.79
1 3.72 372 0.522 -9.620 2.514 -0.060 -0.008 0.022 -359.916 644.880 2279.865 0.069 0.188 0.078 -0.61 0.03 -0.09 0.79
1 3.73 373 0.646 -9.472 2.471 -0.061 -0.010 0.018 -374.906 434.867 2219.904 -0.056 0.038 0.118 -0.61 0.03 -0.09 0.79
1 3.74 374 0.560 -9.548 2.581 -0.049 -0.021 0.017 -359.916 449.857 2204.914 0.030 0.113 0.000 -0.61 0.03 -0.09 0.79
1 3.75 375 0.565 -9.639 2.567 -0.045 -0.017 0.010 -299.955 584.919 2114.972 0.025 0.203 0.012 -0.61 0.03 -0.09 0.79
1 3.76 376 0.570 -9.544 2.605 -0.056 -0.021 0.016 -299.955 584.919 2114.972 0.020 0.107 -0.028 -0.61 0.03 -0.09 0.79
1 3.77 377 0.522 -9.630 2.500 -0.058 -0.025 0.023 -464.997 569.929 2324.985 0.068 0.193 0.075 -0.61 0.03 -0.09 0.79
1 3.78 378 0.599 -9.553 2.552 -0.064 -0.027 0.020 -464.997 569.929 2324.985 -0.009 0.115 0.018 -0.61 0.03 -0.09 0.79
1 3.79 379 0.584 -9.659 2.485 -0.074 -0.035 0.022 -374.906 584.919 2189.923 0.005 0.219 0.081 -0.61 0.03 -0.09 0.79
1 3.80 380 0.484 -9.630 2.370 -0.070 -0.017 0.020 -344.925 659.870 2219.904 0.106 0.189 0.191 -0.61 0.03 -0.09 0.79
1 3.81 381 0.742 -9.548 2.452 -0.056 -0.011 0.027 -344.925 659.870 2219.904 -0.153 0.106 0.104 -0.61 0.03 -0.09 0.79
1 3.82 382 0.522 -9.496 2.433 -0.050 -0.014 0.018 -584.919 419.876 2249.884 0.067 0.052 0.117 -0.61 0.03 -0.09 0.79
1 3.83 383 0.579 -9.577 2.442 -0.061 -0.028 0.015 -584.919 419.876 2249.884 0.009 0.132 0.104 -0.61 0.03 -0.09 0.79
1 3.84 384 0.575 -9.572 2.519 -0.064 -0.018 0.015 -419.876 539.948 2339.976 0.014 0.126 0.023 -0.61 0.03 -0.09 0.79
1 3.85 385 0.666 -9.596 2.428 -0.069 -0.010 0.016 -419.876 539.948 2339.976 -0.078 0.149 0.110 -0.61 0.03 -0.09 0.79
1 3.86 386 0.608 -9.577 2.552 -0.060 -0.015 0.019 -509.968 419.876 2204.914 -0.020 0.129 -0.019 -0.61 0.03 -0.09 0.79
1 3.87 387 0.527 -9.606 2.543 -0.063 -0.011 0.030 -449.857 539.948 2294.855 0.061 0.156 -0.013 -0.61 0.03 -0.09 0.79
1 3.88 388 0.469 -9.611 2.447 -0.064 -0.015 0.026 -419.876 584.919 2339.976 0.118 0.159 0.075 -0.61 0.03 -0.09 0.79
1 3.89 389 0.623 -9.596 2.361 -0.071 -0.020 0.030 -494.978 464.847 2114.972 -0.037 0.143 0.156 -0.61 0.03 -0.09 0.79
1 3.90 390 0.503 -9.711 2.413 -0.063 -0.023 0.024 -494.978 464.847 2114.972 0.083 0.257 0.100 -0.61 0.03 -0.09 0.79
1 3.91 391 0.613 -9.692 2.562 -0.055 -0.019 0.021 -284.964 569.929 2324.985 -0.028 0.237 -0.053 -0.61 0.03 -0.09 0.79
1 3.92 392 0.551 -9.635 2.437 -0.067 -0.019 0.022 -284.964 569.929 2324.985 0.035 0.178 0.068 -0.61 0.03 -0.09 0.79
1 3.93 393 0.651 -9.601 2.442 -0.066 -0.017 0.014 -419.876 434.867 2264.875 -0.066 0.144 0.059 -0.61 0.03 -0.09 0.79
1 3.94 394 0.661 -9.620 2.504 -0.057 -0.021 0.021 -329.935 524.958 2204.914 -0.075 0.162 -0.007 -0.61 0.03 -0.09 0.79
1 3.95 395 0.536 -9.601 2.337 -0.064 -0.018 0.021 -329.935 524.958 2204.914 0.049 0.142 0.157 -0.61 0.03 -0.09 0.79
1 3.96 396 0.594 -9.524 2.428 -0.071 -0.020 0.025 -389.896 524.958 2279.865 -0.009 0.063 0.058 -0.61 0.03 -0.09 0.79
1 3.97 397 0.608 -9.644 2.308 -0.074 -0.019 0.026 -389.896 524.958 2279.865 -0.023 0.182 0.173 -0.61 0.03 -0.09 0.79
1 3.98 398 0.546 -9.721 2.533 -0.070 -0.017 0.019 -434.867 599.909 2249.884 0.039 0.257 -0.057 -0.61 0.03 -0.09 0.79
1 3.99 399 0.661 -9.678 2.418 -0.060 -0.025 0.024 -434.867 599.909 2249.884 -0.076 0.213 0.054 -0.61 0.03 -0.09 0.79
1 4.00 400 0.527 -9.572 2.327 -0.065 -0.020 0.018 -284.964 644.880 2324.985 0.058 0.106 0.142 -0.61 0.03 -0.09 0.79
1 4.01 401 0.512 -9.764 2.346 -0.060 -0.027 0.026 -494.978 389.896 2294.855 0.072 0.297 0.118 -0.61 0.03 -0.09 0.79
1 4.02 402 0.694 -9.673 2.418 -0.062 -0.026 0.034 -494.978 389.896 2294.855 -0.111 0.205 0.041 -0.61 0.03 -0.09 0.79
1 4.03 403 0.599 -9.572 2.418 -0.050 -0.032 0.021 -374.906 509.968 2294.855 -0.016 0.103 0.037 -0.61 0.03 -0.09 0.79
1 4.04 404 0.503 -9.716 2.519 -0.055 -0.034 0.020 -464.997 449.857 2324.985 0.079 0.245 -0.069 -0.61 0.03 -0.09 0.79
1 4.05 405 0.637 -9.601 2.437 -0.054 -0.028 0.026 -449.857 629.890 2219.904 -0.055 0.129 0.009 -0.61 0.03 -0.09 0.79
1 4.06 406 0.546 -9.682 2.366 -0.052 -0.031 0.022 -449.857 629.890 2219.904 0.036 0.210 0.077 -0.61 0.03 -0.09 0.79
1 4.07 407 0.613 -9.692 2.538 -0.063 -0.040 0.024 -464.997 449.857 2354.966 -0.031 0.218 -0.098 -0.61 0.03 -0.09 0.79
1 4.08 408 0.584 -9.611 2.413 -0.058 -0.029 0.025 -359.916 449.857 2354.966 -0.003 0.136 0.023 -0.61 0.03 -0.09 0.78
1 4.09 409 0.493 -9.678 2.433 -0.051 -0.034 0.022 -359.916 449.857 2354.966 0.088 0.202 0.001 -0.61 0.03 -0.09 0.78
1 4.10 410 0.632 -9.611 2.423 -0.034 -0.046 0.019 -419.876 434.867 2339.976 -0.051 0.135 0.007 -0.61 0.03 -0.09 0.78
1 4.11 411 0.560 -9.592 2.452 -0.031 -0.041 0.020 -464.997 329.935 2354.966 0.021 0.115 -0.024 -0.61 0.03 -0.09 0.78
1 4.12 412 0.589 -9.615 2.433 -0.023 -0.059 0.023 -434.867 494.978 2174.933 -0.008 0.139 -0.005 -0.61 0.03 -0.09 0.78
1 4.13 413 0.551 -9.515 2.495 -0.038 -0.046 0.028 -434.867 494.978 2174.933 0.030 0.038 -0.069 -0.61 0.03 -0.09 0.78
1 4.14 414 0.623 -9.635 2.356 -0.045 -0.054 0.015 -419.876 539.948 2189.923 -0.042 0.157 0.069 -0.61 0.03 -0.09 0.78
1 4.15 415 0.570 -9.668 2.418 -0.032 -0.051 0.019 -434.867 419.876 2324.985 0.011 0.190 0.004 -0.61 0.03 -0.09 0.78
1 4.16 416 0.613 -9.644 2.366 -0.028 -0.052 0.025 -434.867 419.876 2324.985 -0.032 0.166 0.055 -0.61 0.03 -0.09 0.78
1 4.17 417 0.551 -9.572 2.399 -0.039 -0.056 0.027 -389.896 419.876 2354.966 0.031 0.093 0.019 -0.61 0.03 -0.09 0.78
1 4.18 418 0.785 -9.592 2.346 -0.044 -0.050 0.023 -464.997 449.857 2249.884 -0.204 0.111 0.067 -0.61 0.03 -0.09 0.78
1 4.19 419 0.536 -9.649 2.346 -0.038 -0.051 0.022 -494.978 509.968 2189.923 0.046 0.168 0.066 -0.61 0.03 -0.09 0.78
1 4.20 420 0.651 -9.639 2.327 -0.038 -0.051 0.027 -494.978 509.968 2189.923 -0.068 0.158 0.083 -0.61 0.03 -0.09 0.78
1 4.21 421 0.666 -9.563 2.299 -0.031 -0.042 0.023 -359.916 569.929 2324.985 -0.082 0.081 0.109 -0.61 0.03 -0.09 0.78
1 4.22 422 0.575 -9.654 2.289 -0.031 -0.046 0.029 -299.955 539.948 2369.956 0.010 0.172 0.117 -0.61 0.03 -0.09 0.78
1 4.23 423 0.632 -9.615 2.351 -0.034 -0.056 0.021 -299.955 539.948 2369.956 -0.047 0.133 0.053 -0.61 0.03 -0.09 0.78
1 4.24 424 0.627 -9.639 2.251 -0.034 -0.047 0.013 -389.896 599.909 2324.985 -0.042 0.157 0.152 -0.61 0.03 -0.09 0.78
1 4.25 425 0.651 -9.663 2.423 -0.038 -0.045 0.021 -464.997 599.909 2174.933 -0.065 0.180 -0.024 -0.61 0.03 -0.09 0.78
1 4.26 426 0.675 -9.635 2.255 -0.040 -0.040 0.021 -434.867 569.929 2279.865 -0.089 0.150 0.142 -0.61 0.03 -0.09 0.78
1 4.27 427 0.584 -9.606 2.299 -0.040 -0.037 0.020 -434.867 569.929 2279.865 0.003 0.121 0.096 -0.61 0.03 -0.09 0.78
1 4.28 428 0.718 -9.596 2.404 -0.030 -0.036 0.027 -434.867 449.857 2384.946 -0.130 0.111 -0.011 -0.61 0.03 -0.09 0.78
1 4.29 429 0.623 -9.596 2.270 -0.041 -0.040 0.023 -359.916 494.978 2129.962 -0.034 0.111 0.123 -0.61 0.03 -0.09 0.78
1 4.30 430 0.646 -9.678 2.299 -0.047 -0.025 0.014 -359.916 494.978 2129.962 -0.058 0.192 0.092 -0.61 0.03 -0.09 0.78
1 4.31 431 0.680 -9.630 2.308 -0.047 -0.030 0.021 -389.896 569.929 2279.865 -0.091 0.143 0.079 -0.61 0.03 -0.09 0.78
1 4.32 432 0.690 -9.548 2.193 -0.024 -0.040 0.020 -389.896 494.978 2249.884 -0.099 0.061 0.189 -0.61 0.03 -0.09 0.78
1 4.33 433 0.651 -9.620 2.294 -0.039 -0.031 0.017 -374.906 464.847 2039.871 -0.060 0.132 0.087 -0.61 0.03 -0.09 0.78
1 4.34 434 0.608 -9.649 2.399 -0.037 -0.031 0.018 -374.906 464.847 2039.871 -0.017 0.160 -0.022 -0.61 0.03 -0.09 0.78
1 4.35 435 0.584 -9.606 2.251 -0.053 -0.034 0.018 -254.984 524.958 2429.917 0.007 0.117 0.126 -0.61 0.03 -0.09 0.78
1 4.36 436 0.555 -9.620 2.217 -0.043 -0.021 0.019 -374.906 509.968 2219.904 0.036 0.130 0.156 -0.61 0.03 -0.09 0.78
1 4.37 437 0.560 -9.548 2.107 -0.045 -0.028 0.026 -374.906 509.968 2219.904 0.031 0.058 0.264 -0.61 0.03 -0.09 0.78
1 4.38 438 0.718 -9.534 2.318 -0.051 -0.030 0.017 -389.896 374.906 2384.946 -0.127 0.043 0.052 -0.61 0.03 -0.09 0.78
1 4.39 439 0.508 -9.639 2.260 -0.055 -0.031 0.022 -464.997 569.929 2204.914 0.085 0.148 0.106 -0.62 0.03 -0.09 0.78
1 4.40 440 0.699 -9.730 2.251 -0.035 -0.039 0.019 -464.997 524.958 2459.897 -0.106 0.237 0.109 -0.62 0.03 -0.09 0.78
1 4.41 441 0.670 -9.668 2.179 -0.034 -0.023 0.016 -464.997 524.958 2459.897 -0.076 0.175 0.180 -0.62 0.03 -0.09 0.78
1 4.42 442 0.733 -9.635 2.279 -0.030 -0.013 0.018 -254.984 524.958 2204.914 -0.138 0.141 0.078 -0.62 0.03 -0.09 0.78
1 4.43 443 0.685 -9.692 2.284 -0.027 -0.018 0.024 -329.935 524.958 2279.865 -0.090 0.198 0.072 -0.62 0.03 -0.09 0.78
1 4.44 444 0.603 -9.548 2.342 -0.025 -0.009 0.013 -329.935 524.958 2279.865 -0.008 0.054 0.014 -0.62 0.03 -0.09 0.78
1 4.45 445 0.603 -9.635 2.236 -0.042 -0.021 0.017 -374.906 434.867 2264.875 -0.007 0.140 0.118 -0.62 0.03 -0.09 0.78
1 4.46 446 0.618 -9.620 2.284 -0.043 -0.011 0.005 -569.929 464.847 2219.904 -0.021 0.126 0.069 -0.62 0.03 -0.09 0.78
1 4.47 447 0.599 -9.745 2.337 -0.047 -0.020 0.019 -449.857 434.867 2414.927 -0.002 0.249 0.013 -0.62 0.03 -0.09 0.78
1 4.48 448 0.555 -9.740 2.241 -0.060 -0.020 0.019 -449.857 434.867 2414.927 0.041 0.244 0.106 -0.62 0.03 -0.09 0.78
1 4.49 449 0.603 -9.730 2.246 -0.032 -0.025 0.015 -269.974 539.948 2264.875 -0.007 0.234 0.098 -0.62 0.03 -0.09 0.78
1 4.50 450 0.575 -9.592 2.337 -0.039 -0.022 0.020 -374.906 584.919 2264.875 0.021 0.095 0.006 -0.62 0.03 -0.09 0.78
1 4.51 451 0.508 -9.721 2.275 -0.036 -0.016 0.012 -374.906 584.919 2264.875 0.089 0.224 0.068 -0.62 0.03 -0.09 0.78
1 4.52 452 0.555 -9.706 2.275 -0.030 -0.016 0.017 -464.997 524.958 2384.946 0.041 0.209 0.067 -0.62 0.03 -0.09 0.78
1 4.53 453 0.709 -9.697 2.327 -0.032 -0.021 0.016 -464.997 599.909 2174.933 -0.112 0.199 0.014 -0.62 0.03 -0.09 0.78
1 4.54 454 0.637 -9.654 2.246 -0.036 -0.022 0.023 -464.997 599.909 2174.933 -0.040 0.156 0.095 -0.62 0.03 -0.09 0.78
1 4.55 455 0.599 -9.793 2.193 -0.032 -0.011 0.021 -494.978 464.847 2414.927 -0.002 0.295 0.146 -0.62 0.03 -0.09 0.78
1 4.56 456 0.613 -9.659 2.145 -0.034 -0.019 0.027 -374.906 389.896 2264.875 -0.016 0.160 0.192 -0.62 0.03 -0.09 0.78
1 4.57 457 0.589 -9.644 2.375 -0.041 -0.017 0.023 -389.896 449.857 2354.966 0.008 0.145 -0.039 -0.62 0.03 -0.09 0.78
1 4.58 458 0.709 -9.697 2.255 -0.046 -0.019 0.015 -389.896 449.857 2354.966 -0.112 0.198 0.080 -0.62 0.03 -0.09 0.78
1 4.59 459 0.589 -9.615 2.246 -0.045 -0.017 0.021 -494.978 509.968 2339.976 0.008 0.116 0.089 -0.62 0.03 -0.09 0.78
1 4.60 460 0.565 -9.644 2.121 -0.032 -0.023 0.022 -434.867 569.929 2324.985 0.031 0.145 0.213 -0.62 0.03 -0.09 0.78
1 4.61 461 0.675 -9.644 2.299 -0.029 -0.026 0.019 -434.867 569.929 2324.985 -0.079 0.145 0.035 -0.62 0.03 -0.09 0.78
1 4.62 462 0.508 -9.620 2.299 -0.028 -0.031 0.022 -329.935 419.876 2429.917 0.088 0.120 0.033 -0.62 0.03 -0.09 0.78
1 4.63 463 0.608 -9.721 2.251 -0.030 -0.027 0.025 -359.916 374.906 2279.865 -0.012 0.221 0.080 -0.62 0.03 -0.09 0.78
1 4.64 464 0.656 -9.682 2.255 -0.034 -0.030 0.018 -269.974 434.867 2264.875 -0.060 0.182 0.075 -0.62 0.03 -0.09 0.78
1 4.65 465 0.651 -9.625 2.279 -0.031 -0.036 0.026 -269.974 434.867 2264.875 -0.055 0.125 0.050 -0.62 0.03 -0.09 0.78
1 4.66 466 0.551 -9.735 2.356 -0.042 -0.039 0.023 -449.857 434.867 2294.855 0.045 0.234 -0.028 -0.62 0.03 -0.09 0.78
1 4.67 467 0.627 -9.659 2.251 -0.025 -0.037 0.028 -434.867 569.929 2429.917 -0.032 0.157 0.076 -0.62 0.03 -0.09 0.78
1 4.68 468 0.651 -9.668 2.212 -0.022 -0.035 0.024 -434.867 569.929 2429.917 -0.055 0.167 0.113 -0.62 0.03 -0.09 0.78
1 4.69 469 0.608 -9.735 2.260 -0.021 -0.029 0.019 -344.925 539.948 2339.976 -0.011 0.233 0.063 -0.62 0.03 -0.09 0.78
1 4.70 470 0.594 -9.582 2.227 -0.018 -0.037 0.014 -374.906 539.948 2414.927 0.003 0.080 0.095 -0.62 0.03 -0.09 0.78
1 4.71 471 0.690 -9.639 2.184 -0.024 -0.039 0.010 -389.896 419.876 2249.884 -0.093 0.137 0.138 -0.62 0.03 -0.09 0.78
1 4.72 472 0.522 -9.711 2.222 -0.027 -0.032 0.027 -389.896 419.876 2249.884 0.075 0.209 0.099 -0.62 0.03 -0.09 0.78
1 4.73 473 0.575 -9.596 2.294 -0.018 -0.036 0.014 -299.955 584.919 2339.976 0.022 0.094 0.026 -0.62 0.03 -0.09 0.78
1 4.74 474 0.608 -9.649 2.255 -0.018 -0.023 0.025 -329.935 524.958 2324.985 -0.011 0.146 0.064 -0.62 0.03 -0.09 0.78
1 4.75 475 0.752 -9.558 2.246 -0.022 -0.015 0.023 -329.935 524.958 2324.985 -0.155 0.055 0.073 -0.62 0.03 -0.09 0.78
1 4.76 476 0.575 -9.697 2.265 -0.030 -0.023 0.024 -299.955 434.867 2339.976 0.024 0.194 0.052 -0.62 0.03 -0.09 0.78
1 4.77 477 0.627 -9.592 2.289 -0.031 -0.014 0.024 -494.978 509.968 2474.888 -0.029 0.088 0.027 -0.62 0.03 -0.09 0.78
1 4.78 478 0.560 -9.601 2.145 -0.028 -0.020 0.015 -449.857 464.847 2159.943 0.038 0.097 0.170 -0.62 0.03 -0.09 0.78
1 4.79 479 0.699 -9.682 2.231 -0.019 -0.013 0.013 -449.857 464.847 2159.943 -0.101 0.179 0.083 -0.62 0.03 -0.09 0.78
1 4.80 480 0.661 -9.692 2.241 -0.023 -0.010 0.015 -224.854 434.867 2219.904 -0.062 0.188 0.072 -0.62 0.03 -0.09 0.78
1 4.81 481 0.632 -9.745 2.198 -0.016 -0.011 0.011 -494.978 359.916 2264.875 -0.032 0.240 0.114 -0.62 0.03 -0.09 0.78
1 4.82 482 0.627 -9.639 2.265 -0.014 -0.002 0.006 -494.978 359.916 2264.875 -0.027 0.135 0.046 -0.62 0.03 -0.09 0.78
1 4.83 483 0.642 -9.740 2.193 -0.023 0.003 0.011 -254.984 494.978 2384.946 -0.041 0.235 0.117 -0.62 0.03 -0.09 0.78
1 4.84 484 0.656 -9.678 2.136 -0.016 0.002 0.019 -419.876 464.847 2264.875 -0.055 0.172 0.173 -0.62 0.03 -0.09 0.78
1 4.85 485 0.532 -9.659 2.198 -0.020 -0.003 0.014 -299.955 464.847 2294.855 0.069 0.153 0.110 -0.62 0.03 -0.09 0.78
1 4.86 486 0.632 -9.635 2.208 -0.018 0.005 0.011 -299.955 464.847 2294.855 -0.032 0.129 0.099 -0.62 0.03 -0.09 0.78
1 4.87 487 0.517 -9.572 2.217 -0.022 0.004 0.009 -284.964 569.929 2354.966 0.083 0.066 0.089 -0.62 0.03 -0.09 0.78
1 4.88 488 0.579 -9.706 2.203 -0.019 -0.002 0.013 -269.974 434.867 2219.904 0.021 0.200 0.102 -0.62 0.03 -0.09 0.78
1 4.89 489 0.512 -9.606 2.136 -0.025 0.000 0.015 -269.974 434.867 2219.904 0.088 0.100 0.168 -0.62 0.03 -0.09 0.78
1 4.90 490 0.546 -9.687 2.140 -0.015 -0.005 0.002 -449.857 584.919 2264.875 0.054 0.181 0.163 -0.62 0.03 -0.09 0.78
1 4.91 491 0.536 -9.587 2.117 -0.015 -0.011 0.016 -494.978 584.919 2294.855 0.063 0.080 0.184 -0.62 0.03 -0.09 0.78
1 4.92 492 0.536 -9.630 2.217 -0.012 -0.011 0.027 -374.906 509.968 2414.927 0.062 0.122 0.083 -0.62 0.03 -0.09 0.78
1 4.93 493 0.603 -9.702 2.208 -0.023 -0.024 0.021 -374.906 509.968 2414.927 -0.006 0.194 0.092 -0.62 0.03 -0.09 0.78
1 4.94 494 0.541 -9.711 2.337 -0.022 -0.025 0.022 -344.925 509.968 2294.855 0.056 0.203 -0.038 -0.62 0.03 -0.09 0.78
1 4.95 495 0.599 -9.654 2.160 -0.014 -0.021 0.019 -419.876 464.847 2414.927 -0.001 0.146 0.138 -0.62 0.03 -0.09 0.78
1 4.96 496 0.575 -9.639 2.246 -0.010 -0.028 0.023 -419.876 464.847 2414.927 0.023 0.131 0.050 -0.62 0.03 -0.09 0.78
1 4.97 497 0.594 -9.716 2.260 -0.001 -0.030 0.023 -374.906 539.948 2369.956 0.003 0.207 0.034 -0.62 0.03 -0.09 0.78
1 4.98 498 0.589 -9.673 2.184 -0.020 -0.033 0.020 -374.906 539.948 2369.956 0.007 0.164 0.111 -0.62 0.03 -0.09 0.78
1 4.99 499 0.637 -9.606 2.275 -0.024 -0.036 0.018 -299.955 434.867 2294.855 -0.041 0.097 0.019 -0.62 0.03 -0.09 0.78
1 5.00 500 0.575 -9.568 2.208 -0.022 -0.031 0.025 -299.955 434.867 2294.855 0.022 0.058 0.085 -0.62 0.03 -0.09 0.78
1 5.01 501 0.522 -9.687 2.327 -0.026 -0.028 0.017 -344.925 434.867 2219.904 0.074 0.178 -0.036 -0.62 0.03 -0.09 0.78
1 5.02 502 0.699 -9.582 2.255 -0.022 -0.035 0.023 -524.958 389.896 2264.875 -0.103 0.072 0.035 -0.62 0.03 -0.09 0.78
1 5.03 503 0.584 -9.673 2.275 -0.010 -0.039 0.018 -524.958 389.896 2264.875 0.013 0.163 0.016 -0.62 0.03 -0.09 0.78
1 5.04 504 0.690 -9.735 2.231 0.002 -0.039 0.011 -359.916 494.978 2384.946 -0.093 0.225 0.058 -0.62 0.03 -0.09 0.78
1 5.05 505 0.694 -9.654 2.289 -0.004 -0.028 0.024 -359.916 494.978 2384.946 -0.097 0.144 0.001 -0.62 0.03 -0.09 0.78
1 5.06 506 0.690 -9.635 2.346 -0.001 -0.033 0.023 -524.958 389.896 2339.976 -0.092 0.125 -0.055 -0.62 0.03 -0.09 0.78
1 5.07 507 0.603 -9.524 2.193 0.002 -0.039 0.017 -524.958 389.896 2339.976 -0.005 0.015 0.100 -0.62 0.03 -0.09 0.78
1 5.08 508 0.685 -9.553 2.208 -0.003 -0.035 0.006 -329.935 494.978 2324.985 -0.086 0.044 0.087 -0.62 0.03 -0.09 0.78
1 5.09 509 0.608 -9.716 2.332 -0.011 -0.027 0.028 -344.925 539.948 2294.855 -0.008 0.207 -0.038 -0.62 0.03 -0.09 0.78
1 5.10 510 0.718 -9.682 2.337 -0.005 -0.016 0.015 -344.925 539.948 2294.855 -0.118 0.174 -0.043 -0.62 0.03 -0.09 0.78
1 5.11 511 0.685 -9.611 2.337 -0.004 -0.018 0.010 -494.978 509.968 2444.907 -0.084 0.102 -0.044 -0.62 0.03 -0.09 0.78
1 5.12 512 0.666 -9.615 2.236 -0.007 -0.017 0.014 -494.978 509.968 2444.907 -0.064 0.106 0.056 -0.62 0.03 -0.09 0.78
1 5.13 513 0.579 -9.663 2.380 0.011 -0.013 0.013 -494.978 464.847 2264.875 0.023 0.155 -0.084 -0.62 0.03 -0.09 0.78
1 5.14 514 0.560 -9.568 2.131 0.018 -0.017 0.005 -494.978 464.847 2264.875 0.043 0.060 0.168 -0.62 0.03 -0.09 0.78
1 5.15 515 0.618 -9.659 2.208 0.008 -0.025 0.014 -284.964 449.857 2174.933 -0.014 0.152 0.093 -0.62 0.03 -0.09 0.78
1 5.16 516 0.642 -9.682 2.208 0.011 -0.010 0.017 -344.925 509.968 2414.927 -0.038 0.176 0.095 -0.62 0.03 -0.09 0.78
1 5.17 517 0.670 -9.673 2.255 0.009 -0.005 0.020 -344.925 509.968 2414.927 -0.066 0.167 0.048 -0.62 0.03 -0.09 0.78
1 5.18 518 0.594 -9.615 2.222 0.009 -0.005 0.016 -449.857 539.948 2339.976 0.011 0.109 0.082 -0.62 0.03 -0.09 0.78
1 5.19 519 0.603 -9.615 2.284 0.012 -0.016 0.016 -449.857 539.948 2339.976 0.001 0.110 0.023 -0.62 0.03 -0.09 0.78
1 5.20 520 0.627 -9.687 2.212 0.025 -0.033 0.013 -284.964 644.880 2249.884 -0.023 0.183 0.100 -0.62 0.03 -0.09 0.78
1 5.21 521 0.512 -9.596 2.389 0.013 -0.035 0.015 -284.964 644.880 2249.884 0.092 0.093 -0.074 -0.62 0.03 -0.09 0.78
1 5.22 522 0.560 -9.601 2.356 0.012 -0.030 0.015 -224.854 539.948 2339.976 0.044 0.098 -0.038 -0.62 0.03 -0.09 0.78
1 5.23 523 0.575 -9.529 2.289 0.012 -0.023 0.015 -254.984 419.876 2354.966 0.030 0.027 0.031 -0.62 0.03 -0.08 0.78
1 5.24 524 0.589 -9.706 2.442 0.013 -0.022 0.021 -254.984 419.876 2354.966 0.015 0.205 -0.119 -0.62 0.03 -0.08 0.78
1 5.25 525 0.503 -9.697 2.255 0.015 -0.023 0.019 -224.854 704.991 2369.956 0.102 0.196 0.070 -0.62 0.03 -0.08 0.78
1 5.26 526 0.594 -9.663 2.150 0.030 -0.030 0.023 -224.854 704.991 2369.956 0.010 0.163 0.177 -0.62 0.03 -0.08 0.78
1 5.27 527 0.627 -9.673 2.212 0.021 -0.039 0.015 -374.906 434.867 2264.875 -0.023 0.173 0.118 -0.62 0.03 -0.08 0.78
1 5.28 528 0.603 -9.726 2.308 0.027 -0.035 0.014 -389.896 494.978 2324.985 0.001 0.227 0.028 -0.62 0.03 -0.08 0.78
1 5.29 529 0.584 -9.654 2.346 0.022 -0.030 0.018 -359.916 599.909 2174.933 0.021 0.156 -0.007 -0.62 0.03 -0.08 0.78
1 5.30 530 0.675 -9.654 2.313 0.025 -0.014 0.022 -299.955 539.948 2294.855 -0.071 0.157 0.030 -0.62 0.03 -0.08 0.78
1 5.31 531 0.546 -9.606 2.337 0.017 -0.014 0.034 -299.955 539.948 2294.855 0.059 0.110 0.009 -0.62 0.03 -0.08 0.78
1 5.32 532 0.508 -9.697 2.342 0.004 -0.015 0.020 -419.876 539.948 2084.992 0.096 0.202 0.007 -0.62 0.03 -0.08 0.78
1 5.33 533 0.776 -9.673 2.332 0.010 -0.016 0.023 -419.876 539.948 2084.992 -0.173 0.178 0.019 -0.62 0.03 -0.08 0.78
1 5.34 534 0.579 -9.606 2.265 0.013 -0.019 0.021 -329.935 494.978 2249.884 0.023 0.112 0.088 -0.62 0.03 -0.08 0.78
1 5.35 535 0.623 -9.558 2.284 0.028 -0.024 0.023 -374.906 509.968 2264.875 -0.021 0.065 0.075 -0.62 0.03 -0.08 0.78
1 5.36 536 0.642 -9.654 2.275 0.023 -0.025 0.018 -299.955 509.968 2264.875 -0.040 0.162 0.088 -0.62 0.03 -0.08 0.78
1 5.37 537 0.623 -9.496 2.413 0.021 -0.018 0.028 -389.896 524.958 2324.985 -0.020 0.005 -0.048 -0.62 0.03 -0.08 0.78
1 5.38 538 0.599 -9.649 2.299 0.011 -0.031 0.024 -389.896 524.958 2324.985 0.003 0.159 0.070 -0.62 0.03 -0.08 0.78
1 5.39 539 0.704 -9.639 2.284 0.003 -0.019 0.020 -389.896 449.857 2324.985 -0.102 0.150 0.087 -0.62 0.03 -0.08 0.78
1 5.40 540 0.690 -9.491 2.356 0.017 -0.025 0.014 -389.896 449.857 2324.985 -0.088 0.002 0.017 -0.61 0.03 -0.08 0.78
1 5.41 541 0.570 -9.515 2.212 0.011 -0.019 0.022 -359.916 524.958 2354.966 0.033 0.026 0.163 -0.61 0.03 -0.08 0.78
1 5.42 542 0.680 -9.553 2.389 0.002 -0.028 0.026 -434.867 419.876 2429.917 -0.078 0.065 -0.012 -0.61 0.03 -0.08 0.78
1 5.43 543 0.603 -9.682 2.313 0.015 -0.011 0.009 -359.916 419.876 2324.985 -0.001 0.196 0.069 -0.61 0.03 -0.08 0.78
1 5.44 544 0.603 -9.711 2.351 0.018 -0.007 0.026 -329.935 449.857 2279.865 -0.001 0.225 0.034 -0.61 0.03 -0.08 0.78
1 5.45 545 0.642 -9.706 2.289 0.024 0.011 0.027 -329.935 449.857 2279.865 -0.039 0.221 0.100 -0.61 0.03 -0.08 0.78
1 5.46 546 0.699 -9.582 2.485 0.017 0.004 0.016 -434.867 524.958 2279.865 -0.097 0.097 -0.093 -0.61 0.03 -0.08 0.78
1 5.47 547 0.579 -9.630 2.370 0.012 0.003 0.020 -434.867 524.958 2279.865 0.023 0.146 0.025 -0.61 0.03 -0.08 0.78
1 5.48 548 0.680 -9.625 2.351 0.014 -0.004 0.021 -359.916 524.958 2324.985 -0.078 0.142 0.046 -0.61 0.03 -0.08 0.78
1 5.49 549 0.642 -9.673 2.380 -0.005 0.004 0.013 -329.935 524.958 2354.966 -0.040 0.190 0.020 -0.61 0.03 -0.08 0.78
1 5.50 550 0.642 -9.649 2.375 0.012 0.018 0.018 -209.863 569.929 2459.897 -0.040 0.167 0.027 -0.61 0.03 -0.08 0.78
1 5.51 551 0.723 -9.625 2.437 0.009 0.011 0.007 -374.906 629.890 2339.976 -0.121 0.144 -0.033 -0.61 0.03 -0.08 0.78
1 5.52 552 0.685 -9.448 2.428 -0.006 0.022 0.012 -374.906 629.890 2339.976 -0.082 -0.033 -0.020 -0.61 0.03 -0.08 0.78
1 5.53 553 0.713 -9.663 2.385 -0.006 0.009 0.018 -329.935 419.876 2174.933 -0.111 0.183 0.024 -0.61 0.03 -0.08 0.78
1 5.54 554 0.498 -9.635 2.356 -0.015 0.015 0.009 -329.935 419.876 2174.933 0.105 0.155 0.054 -0.61 0.03 -0.08 0.78
1 5.55 555 0.551 -9.668 2.433 -0.001 0.013 0.018 -374.906 434.867 2294.855 0.052 0.188 -0.022 -0.61 0.03 -0.08 0.78
1 5.56 556 0.646 -9.587 2.275 0.011 0.020 0.015 -464.997 494.978 2249.884 -0.044 0.107 0.137 -0.61 0.03 -0.08 0.78
1 5.57 557 0.560 -9.524 2.452 0.004 0.016 0.013 -299.955 464.847 2159.943 0.043 0.046 -0.036 -0.61 0.03 -0.08 0.78
1 5.58 558 0.536 -9.615 2.437 -0.003 0.013 0.017 -464.997 569.929 2384.946 0.067 0.138 -0.019 -0.61 0.03 -0.08 0.79
1 5.59 559 0.599 -9.587 2.404 -0.012 0.011 0.018 -464.997 569.929 2384.946 0.004 0.109 0.015 -0.61 0.03 -0.08 0.79
1 5.60 560 0.651 -9.572 2.442 -0.021 0.011 0.018 -434.867 524.958 2279.865 -0.049 0.095 -0.022 -0.61 0.03 -0.08 0.79
1 5.61 561 0.623 -9.577 2.495 -0.012 0.009 0.014 -434.867 524.958 2279.865 -0.021 0.100 -0.075 -0.61 0.03 -0.09 0.79
1 5.62 562 0.584 -9.582 2.413 -0.003 0.009 0.020 -344.925 464.847 2294.855 0.017 0.105 0.008 -0.61 0.03 -0.09 0.79
1 5.63 563 0.623 -9.553 2.409 -0.005 0.010 0.010 -269.974 389.896 2219.904 -0.022 0.076 0.014 -0.61 0.03 -0.09 0.79
1 5.64 564 0.718 -9.592 2.409 -0.008 0.018 0.014 -344.925 539.948 2339.976 -0.119 0.115 0.016 -0.61 0.03 -0.09 0.79
1 5.65 565 0.752 -9.544 2.380 -0.010 0.017 0.017 -434.867 569.929 2249.884 -0.153 0.067 0.046 -0.61 0.03 -0.09 0.79
1 5.66 566 0.570 -9.620 2.442 -0.002 0.014 0.010 -434.867 569.929 2249.884 0.030 0.144 -0.015 -0.61 0.03 -0.09 0.79
1 5.67 567 0.651 -9.644 2.461 -0.004 0.010 0.014 -299.955 584.919 2264.875 -0.052 0.169 -0.033 -0.61 0.03 -0.09 0.79
1 5.68 568 0.637 -9.663 2.375 -0.012 0.013 0.015 -299.955 584.919 2264.875 -0.037 0.188 0.055 -0.61 0.03 -0.09 0.79
1 5.69 569 0.627 -9.687 2.399 -0.010 0.025 0.012 -329.935 494.978 2354.966 -0.027 0.212 0.031 -0.61 0.03 -0.09 0.79
1 5.70 570 0.594 -9.649 2.394 -0.010 0.026 0.014 -524.958 509.968 2264.875 0.005 0.174 0.037 -0.61 0.03 -0.09 0.79
1 5.71 571 0.709 -9.668 2.342 -0.012 0.027 0.009 -524.958 509.968 2264.875 -0.110 0.194 0.090 -0.61 0.03 -0.09 0.79
1 5.72 572 0.666 -9.592 2.351 -0.011 0.025 0.010 -464.997 494.978 2354.966 -0.067 0.117 0.082 -0.61 0.03 -0.09 0.79
1 5.73 573 0.599 -9.625 2.366 -0.002 0.032 0.018 -464.997 494.978 2354.966 -0.000 0.151 0.068 -0.61 0.03 -0.09 0.79
1 5.74 574 0.680 -9.706 2.346 0.003 0.040 0.009 -359.916 569.929 2354.966 -0.083 0.233 0.088 -0.61 0.03 -0.09 0.79
1 5.75 575 0.666 -9.630 2.356 -0.004 0.046 0.018 -359.916 569.929 2354.966 -0.068 0.156 0.080 -0.61 0.03 -0.09 0.79
1 5.76 576 0.656 -9.697 2.471 -0.006 0.043 0.015 -389.896 494.978 2279.865 -0.059 0.224 -0.033 -0.61 0.03 -0.09 0.79
1 5.77 577 0.690 -9.635 2.389 -0.006 0.047 0.020 -509.968 449.857 2279.865 -0.094 0.162 0.050 -0.61 0.03 -0.09 0.79
1 5.78 578 0.560 -9.687 2.452 -0.007 0.032 0.016 -509.968 449.857 2279.865 0.034 0.215 -0.011 -0.61 0.03 -0.09 0.79
1 5.79 579 0.565 -9.673 2.308 -0.003 0.040 0.015 -389.896 449.857 2279.865 0.028 0.201 0.136 -0.61 0.03 -0.09 0.79
1 5.80 580 0.623 -9.539 2.514 0.012 0.021 0.014 -389.896 449.857 2279.865 -0.031 0.067 -0.069 -0.61 0.03 -0.09 0.79
1 5.81 581 0.627 -9.448 2.418 0.006 0.028 0.011 -359.916 494.978 2249.884 -0.037 -0.023 0.030 -0.61 0.03 -0.09 0.79
1 5.82 582 0.527 -9.520 2.519 0.001 0.021 0.009 -359.916 494.978 2249.884 0.063 0.049 -0.069 -0.61 0.03 -0.09 0.79
1 5.83 583 0.469 -9.596 2.490 0.019 0.012 0.012 -344.925 464.847 2294.855 0.120 0.127 -0.037 -0.61 0.03 -0.09 0.79
1 5.84 584 0.527 -9.592 2.490 0.022 0.003 0.021 -389.896 449.857 2249.884 0.062 0.123 -0.034 -0.61 0.03 -0.09 0.79
1 5.85 585 0.737 -9.702 2.428 0.020 0.000 0.018 -389.896 449.857 2249.884 -0.150 0.234 0.032 -0.61 0.03 -0.09 0.79
1 5.86 586 0.555 -9.568 2.490 0.032 0.001 0.021 -524.958 509.968 2189.923 0.032 0.101 -0.026 -0.61 0.03 -0.09 0.79
1 5.87 587 0.656 -9.548 2.457 0.035 -0.010 0.023 -449.857 659.870 2219.904 -0.069 0.084 0.017 -0.61 0.03 -0.09 0.79
1 5.88 588 0.646 -9.582 2.490 0.039 -0.001 0.021 -419.876 629.890 2219.904 -0.060 0.119 -0.012 -0.61 0.03 -0.09 0.79
1 5.89 589 0.608 -9.596 2.399 0.046 -0.011 0.015 -419.876 629.890 2219.904 -0.022 0.134 0.084 -0.61 0.03 -0.09 0.79
1 5.90 590 0.675 -9.706 2.428 0.036 -0.005 0.016 -359.916 419.876 2249.884 -0.088 0.246 0.060 -0.61 0.03 -0.09 0.79
1 5.91 591 0.694 -9.601 2.500 0.047 0.001 0.009 -434.867 494.978 2204.914 -0.108 0.141 -0.007 -0.61 0.03 -0.09 0.79
1 5.92 592 0.656 -9.606 2.418 0.032 0.004 0.013 -434.867 494.978 2204.914 -0.068 0.148 0.079 -0.61 0.03 -0.09 0.79
1 5.93 593 0.608 -9.697 2.500 0.021 0.005 0.015 -449.857 629.890 2264.875 -0.020 0.240 0.002 -0.61 0.03 -0.09 0.79
1 5.94 594 0.656 -9.611 2.591 0.036 0.012 0.019 -449.857 584.919 2294.855 -0.067 0.156 -0.081 -0.61 0.03 -0.09 0.79
1 5.95 595 0.637 -9.678 2.500 0.037 0.020 0.009 -494.978 434.867 2159.943 -0.049 0.224 0.015 -0.61 0.03 -0.09 0.79
1 5.96 596 0.781 -9.726 2.543 0.040 0.021 0.002 -494.978 434.867 2159.943 -0.192 0.273 -0.023 -0.61 0.03 -0.09 0.79
1 5.97 597 0.709 -9.663 2.576 0.041 0.035 0.010 -449.857 464.847 2264.875 -0.119 0.213 -0.051 -0.61 0.03 -0.09 0.79
1 5.98 598 0.766 -9.577 2.548 0.040 0.042 0.011 -419.876 509.968 2264.875 -0.177 0.128 -0.017 -0.61 0.03 -0.09 0.79
1 5.99 599 0.546 -9.443 2.538 0.033 0.046 0.005 -419.876 509.968 2264.875 0.044 -0.005 -0.002 -0.61 0.03 -0.09 0.79
1 6.00 600 0.594 -9.568 2.519 0.025 0.038 0.005 -524.958 434.867 2339.976 -0.004 0.121 0.022 -0.61 0.03 -0.09 0.79
1 6.01 601 0.608 -9.601 2.605 0.016 0.031 0.005 -509.968 569.929 2279.865 -0.020 0.157 -0.056 -0.61 0.03 -0.09 0.79
1 6.02 602 0.474 -9.596 2.548 0.023 0.029 0.012 -389.896 524.958 2324.985 0.113 0.153 0.004 -0.61 0.03 -0.09 0.79
1 6.03 603 0.632 -9.620 2.581 0.023 0.016 0.016 -389.896 524.958 2324.985 -0.046 0.177 -0.026 -0.61 0.03 -0.09 0.79
1 6.04 604 0.532 -9.635 2.624 0.037 0.026 0.013 -389.896 599.909 2099.982 0.055 0.193 -0.065 -0.61 0.03 -0.09 0.79
1 6.05 605 0.704 -9.438 2.533 0.037 0.016 0.012 -374.906 434.867 2219.904 -0.118 -0.002 0.031 -0.61 0.03 -0.09 0.79
1 6.06 606 0.594 -9.587 2.586 0.036 0.027 0.010 -374.906 434.867 2219.904 -0.007 0.148 -0.017 -0.61 0.03 -0.09 0.79
1 6.07 607 0.541 -9.467 2.648 0.026 0.048 -0.002 -419.876 629.890 2159.943 0.045 0.029 -0.075 -0.61 0.03 -0.09 0.79
1 6.08 608 0.546 -9.553 2.634 0.035 0.036 0.009 -464.997 569.929 2249.884 0.041 0.118 -0.051 -0.61 0.03 -0.09 0.79
1 6.09 609 0.570 -9.577 2.581 0.035 0.025 0.015 -524.958 659.870 2159.943 0.015 0.143 0.006 -0.61 0.03 -0.09 0.79
1 6.10 610 0.570 -9.553 2.543 0.025 0.012 0.011 -524.958 659.870 2159.943 0.014 0.120 0.049 -0.61 0.03 -0.09 0.79
1 6.11 611 0.517 -9.505 2.538 0.014 0.011 0.020 -464.997 494.978 2249.884 0.067 0.073 0.057 -0.61 0.03 -0.09 0.79
1 6.12 612 0.608 -9.505 2.586 0.002 0.007 0.010 -569.929 629.890 2159.943 -0.025 0.074 0.012 -0.61 0.03 -0.09 0.79
1 6.13 613 0.551 -9.596 2.562 0.003 0.019 0.017 -569.929 629.890 2159.943 0.032 0.165 0.038 -0.61 0.03 -0.09 0.79
1 6.14 614 0.594 -9.548 2.605 -0.004 0.010 0.022 -449.857 584.919 2339.976 -0.012 0.118 -0.003 -0.61 0.03 -0.09 0.79
1 6.15 615 0.493 -9.520 2.557 0.009 -0.009 0.004 -389.896 569.929 2249.884 0.087 0.090 0.046 -0.6 0.03 -0.09 0.79
1 6.16 616 0.651 -9.596 2.619 0.011 -0.011 0.015 -419.876 584.919 2114.972 -0.072 0.167 -0.013 -0.6 0.03 -0.09 0.79
1 6.17 617 0.608 -9.615 2.615 0.017 -0.011 0.015 -419.876 584.919 2114.972 -0.028 0.187 -0.006 -0.6 0.03 -0.09 0.79
1 6.18 618 0.637 -9.539 2.461 0.024 -0.016 0.015 -329.935 524.958 2324.985 -0.057 0.111 0.150 -0.6 0.03 -0.09 0.79
1 6.19 619 0.656 -9.481 2.600 0.025 -0.001 0.011 -374.906 464.847 2264.875 -0.076 0.055 0.015 -0.6 0.03 -0.09 0.79
1 6.20 620 0.690 -9.649 2.562 0.004 0.010 0.016 -374.906 464.847 2264.875 -0.110 0.223 0.056 -0.6 0.03 -0.09 0.79
1 6.21 621 0.675 -9.601 2.519 -0.002 0.021 0.014 -569.929 659.870 2264.875 -0.096 0.176 0.101 -0.6 0.03 -0.09 0.79
1 6.22 622 0.623 -9.486 2.643 -0.006 0.015 0.019 -449.857 464.847 2189.923 -0.044 0.061 -0.022 -0.6 0.03 -0.09 0.79
1 6.23 623 0.656 -9.596 2.667 -0.009 -0.003 0.022 -434.867 524.958 2129.962 -0.078 0.171 -0.045 -0.6 0.03 -0.09 0.79
1 6.24 624 0.517 -9.558 2.600 -0.004 -0.008 0.018 -434.867 524.958 2129.962 0.060 0.133 0.022 -0.6 0.03 -0.09 0.79
1 6.25 625 0.589 -9.625 2.610 0.011 0.004 0.019 -389.896 569.929 2129.962 -0.012 0.200 0.013 -0.6 0.03 -0.09 0.79
1 6.26 626 0.646 -9.592 2.629 0.001 -0.006 0.006 -539.948 494.978 2279.865 -0.070 0.167 -0.004 -0.6 0.03 -0.09 0.79
1 6.27 627 0.469 -9.601 2.639 -0.006 0.006 0.020 -539.948 494.978 2279.865 0.107 0.177 -0.012 -0.6 0.03 -0.09 0.79
1 6.28 628 0.685 -9.443 2.595 -0.007 0.004 0.017 -509.968 674.860 2129.962 -0.109 0.020 0.032 -0.6 0.03 -0.09 0.79
1 6.29 629 0.623 -9.477 2.634 -0.010 0.010 0.013 -449.857 629.890 2114.972 -0.048 0.053 -0.004 -0.6 0.04 -0.09 0.79
1 6.30 630 0.651 -9.711 2.696 -0.008 -0.006 0.014 -449.857 629.890 2114.972 -0.077 0.288 -0.066 -0.6 0.04 -0.09 0.79
1 6.31 631 0.589 -9.534 2.710 -0.006 -0.005 0.013 -344.925 629.890 2159.943 -0.013 0.111 -0.079 -0.6 0.04 -0.09 0.79
1 6.32 632 0.565 -9.462 2.782 0.006 0.003 0.012 -539.948 569.929 2279.865 0.011 0.040 -0.150 -0.6 0.04 -0.09 0.79
1 6.33 633 0.613 -9.620 2.710 -0.003 0.005 0.016 -434.867 569.929 2129.962 -0.037 0.198 -0.076 -0.6 0.04 -0.09 0.79
1 6.34 634 0.632 -9.472 2.677 -0.003 0.002 0.017 -434.867 569.929 2129.962 -0.056 0.050 -0.041 -0.6 0.04 -0.09 0.79
1 6.35 635 0.541 -9.534 2.667 -0.003 0.008 0.018 -389.896 599.909 2174.933 0.035 0.113 -0.030 -0.6 0.04 -0.09 0.79
1 6.36 636 0.493 -9.563 2.595 -0.003 0.003 0.000 -434.867 599.909 2204.914 0.082 0.142 0.043 -0.6 0.04 -0.09 0.79
1 6.37 637 0.579 -9.467 2.591 0.000 0.011 0.013 -434.867 599.909 2204.914 -0.004 0.047 0.049 -0.6 0.04 -0.1 0.79
1 6.38 638 0.560 -9.606 2.725 -0.004 0.004 0.015 -419.876 539.948 2189.923 0.015 0.187 -0.081 -0.6 0.04 -0.1 0.79
1 6.39 639 0.584 -9.534 2.686 0.000 0.014 0.021 -434.867 449.857 2324.985 -0.010 0.115 -0.042 -0.6 0.04 -0.1 0.79
1 6.40 640 0.666 -9.462 2.600 -0.003 0.011 0.011 -584.919 644.880 2129.962 -0.091 0.044 0.046 -0.6 0.04 -0.1 0.79
1 6.41 641 0.536 -9.453 2.662 -0.006 0.007 0.004 -584.919 644.880 2129.962 0.038 0.035 -0.015 -0.6 0.04 -0.1 0.79
1 6.42 642 0.421 -9.577 2.710 -0.007 0.006 0.017 -449.857 464.847 2189.923 0.152 0.159 -0.061 -0.6 0.04 -0.1 0.79
1 6.43 643 0.584 -9.649 2.806 -0.011 -0.003 0.017 -374.906 584.919 2189.923 -0.012 0.232 -0.156 -0.6 0.04 -0.1 0.79
1 6.44 644 0.541 -9.539 2.859 -0.006 -0.005 0.013 -374.906 584.919 2189.923 0.032 0.121 -0.209 -0.6 0.04 -0.1 0.79
1 6.45 645 0.584 -9.644 2.725 0.005 0.000 0.026 -599.909 629.890 2189.923 -0.012 0.227 -0.073 -0.6 0.04 -0.1 0.79
1 6.46 646 0.546 -9.553 2.686 0.007 0.001 0.020 -434.867 599.909 2069.852 0.025 0.137 -0.032 -0.6 0.04 -0.1 0.79
1 6.47 647 0.546 -9.534 2.648 -0.005 -0.004 0.015 -434.867 644.880 2174.933 0.025 0.118 0.008 -0.6 0.04 -0.1 0.79
1 6.48 648 0.666 -9.635 2.739 -0.009 -0.010 0.017 -434.867 644.880 2174.933 -0.095 0.219 -0.083 -0.6 0.04 -0.1 0.79
1 6.49 649 0.579 -9.558 2.701 -0.012 -0.006 0.014 -539.948 599.909 2354.966 -0.008 0.142 -0.044 -0.6 0.04 -0.1 0.79
1 6.50 650 0.589 -9.649 2.787 0.004 -0.005 0.022 -464.997 599.909 2174.933 -0.018 0.233 -0.130 -0.6 0.04 -0.1 0.79
1 6.51 651 0.579 -9.625 2.758 0.005 0.004 0.015 -464.997 599.909 2174.933 -0.009 0.210 -0.100 -0.6 0.04 -0.1 0.79
1 6.52 652 0.613 -9.481 2.662 0.007 0.002 0.018 -434.867 524.958 2174.933 -0.043 0.067 0.001 -0.6 0.04 -0.1 0.79
1 6.53 653 0.541 -9.601 2.634 0.017 -0.009 0.018 -329.935 599.909 2099.982 0.028 0.188 0.032 -0.6 0.04 -0.1 0.79
1 6.54 654 0.551 -9.577 2.686 0.008 -0.005 0.008 -449.857 629.890 2219.904 0.018 0.165 -0.018 -0.6 0.04 -0.1 0.79
1 6.55 655 0.637 -9.443 2.696 0.011 0.002 0.022 -449.857 629.890 2219.904 -0.069 0.031 -0.025 -0.6 0.04 -0.1 0.79
1 6.56 656 0.503 -9.611 2.586 0.010 -0.012 0.015 -389.896 449.857 2129.962 0.065 0.200 0.088 -0.6 0.04 -0.1 0.79
1 6.57 657 0.656 -9.424 2.753 0.004 0.001 0.019 -539.948 524.958 2174.933 -0.089 0.013 -0.077 -0.6 0.04 -0.1 0.79
1 6.58 658 0.522 -9.515 2.782 0.006 -0.003 0.009 -539.948 524.958 2174.933 0.044 0.105 -0.104 -0.6 0.04 -0.1 0.79
1 6.59 659 0.589 -9.496 2.686 0.006 -0.002 0.007 -494.978 464.847 2264.875 -0.022 0.087 -0.005 -0.6 0.04 -0.1 0.79
1 6.60 660 0.632 -9.529 2.653 0.010 0.001 0.021 -524.958 539.948 2114.972 -0.065 0.121 0.033 -0.6 0.04 -0.1 0.79
1 6.61 661 0.613 -9.539 2.610 0.008 -0.012 0.013 -464.997 569.929 2204.914 -0.046 0.132 0.078 -0.6 0.04 -0.1 0.79
1 6.62 662 0.608 -9.615 2.720 0.018 0.001 0.011 -464.997 569.929 2204.914 -0.041 0.209 -0.030 -0.6 0.04 -0.1 0.79
1 6.63 663 0.541 -9.524 2.667 0.014 -0.006 0.012 -509.968 599.909 2129.962 0.025 0.119 0.026 -0.6 0.04 -0.1 0.79
1 6.64 664 0.608 -9.529 2.634 0.011 -0.001 0.011 -464.997 524.958 2279.865 -0.041 0.125 0.062 -0.6 0.04 -0.1 0.79
1 6.65 665 0.589 -9.568 2.662 0.013 -0.004 0.021 -464.997 524.958 2279.865 -0.022 0.164 0.036 -0.6 0.04 -0.1 0.79
1 6.66 666 0.493 -9.510 2.720 0.009 -0.011 0.010 -524.958 539.948 2084.992 0.074 0.107 -0.019 -0.6 0.04 -0.1 0.79
1 6.67 667 0.618 -9.568 2.610 0.007 -0.007 0.016 -569.929 389.896 2114.972 -0.052 0.165 0.096 -0.6 0.04 -0.1 0.79
1 6.68 668 0.522 -9.505 2.773 0.007 -0.008 0.019 -494.978 659.870 2189.923 0.044 0.103 -0.067 -0.6 0.04 -0.1 0.79
1 6.69 669 0.522 -9.539 2.643 -0.006 -0.012 0.014 -494.978 659.870 2189.923 0.044 0.138 0.065 -0.6 0.04 -0.1 0.79
1 6.70 670 0.450 -9.486 2.567 0.003 -0.011 0.007 -524.958 509.968 2294.855 0.115 0.085 0.142 -0.6 0.04 -0.1 0.79
1 6.71 671 0.546 -9.505 2.696 0.000 -0.013 0.017 -374.906 539.948 2159.943 0.019 0.105 0.014 -0.6 0.04 -0.1 0.79
1 6.72 672 0.565 -9.644 2.677 0.000 -0.019 0.023 -374.906 539.948 2159.943 -0.000 0.243 0.033 -0.6 0.04 -0.1 0.79
1 6.73 673 0.642 -9.510 2.576 -0.008 -0.015 0.023 -434.867 569.929 2174.933 -0.076 0.109 0.134 -0.6 0.04 -0.1 0.79
1 6.74 674 0.599 -9.491 2.576 0.001 -0.009 0.014 -434.867 569.929 2174.933 -0.033 0.090 0.135 -0.6 0.04 -0.1 0.79
1 6.75 675 0.436 -9.620 2.581 0.006 -0.011 0.018 -359.916 524.958 2204.914 0.130 0.220 0.130 -0.6 0.04 -0.1 0.79
1 6.76 676 0.546 -9.520 2.600 -0.005 -0.005 0.019 -359.916 524.958 2204.914 0.019 0.119 0.112 -0.6 0.04 -0.1 0.79
1 6.77 677 0.565 -9.405 2.715 -0.005 -0.003 0.019 -389.896 494.978 2099.982 0.000 0.004 -0.004 -0.6 0.04 -0.1 0.79
1 6.78 678 0.575 -9.515 2.682 -0.001 -0.005 0.015 -389.896 644.880 2174.933 -0.010 0.115 0.031 -0.6 0.04 -0.1 0.79
1 6.79 679 0.656 -9.481 2.701 -0.017 0.002 0.009 -389.896 644.880 2174.933 -0.091 0.082 0.014 -0.6 0.04 -0.1 0.79
1 6.80 680 0.532 -9.534 2.720 -0.019 -0.002 0.018 -524.958 584.919 2219.904 0.033 0.134 -0.006 -0.6 0.04 -0.1 0.79
1 6.81 681 0.484 -9.596 2.773 -0.017 -0.018 0.017 -524.958 584.919 2219.904 0.081 0.197 -0.059 -0.6 0.04 -0.1 0.79
1 6.82 682 0.527 -9.606 2.686 -0.013 -0.009 0.012 -509.968 569.929 2174.933 0.038 0.206 0.028 -0.6 0.04 -0.1 0.79
1 6.83 683 0.555 -9.558 2.749 -0.008 -0.013 0.013 -509.968 569.929 2174.933 0.009 0.158 -0.035 -0.6 0.04 -0.1 0.79
1 6.84 684 0.469 -9.534 2.691 -0.014 -0.020 0.026 -464.997 644.880 2174.933 0.095 0.134 0.022 -0.6 0.04 -0.1 0.79
1 6.85 685 0.484 -9.429 2.777 -0.014 -0.012 0.022 -539.948 644.880 2174.933 0.080 0.029 -0.064 -0.6 0.04 -0.1 0.79
1 6.86 686 0.498 -9.515 2.710 -0.013 -0.024 0.013 -539.948 644.880 2174.933 0.065 0.115 0.003 -0.6 0.04 -0.1 0.79
1 6.87 687 0.546 -9.587 2.816 -0.027 -0.002 0.011 -374.906 734.971 2084.992 0.017 0.187 -0.102 -0.6 0.04 -0.1 0.79
1 6.88 688 0.479 -9.524 2.715 -0.007 -0.009 0.021 -374.906 734.971 2084.992 0.084 0.125 -0.002 -0.6 0.04 -0.1 0.79
1 6.89 689 0.584 -9.529 2.811 -0.018 -0.007 0.021 -509.968 569.929 2174.933 -0.022 0.129 -0.097 -0.6 0.04 -0.1 0.79
1 6.90 690 0.551 -9.572 2.749 -0.003 -0.014 0.016 -509.968 569.929 2174.933 0.011 0.172 -0.035 -0.6 0.04 -0.1 0.79
1 6.91 691 0.599 -9.572 2.701 0.002 -0.028 0.021 -374.906 584.919 2189.923 -0.037 0.173 0.014 -0.6 0.04 -0.1 0.79
1 6.92 692 0.527 -9.563 2.749 -0.005 -0.028 0.023 -344.925 629.890 2219.904 0.036 0.164 -0.032 -0.6 0.04 -0.1 0.79
1 6.93 693 0.508 -9.443 2.672 0.002 -0.012 0.023 -344.925 629.890 2219.904 0.054 0.044 0.046 -0.6 0.04 -0.1 0.79
1 6.94 694 0.522 -9.577 2.744 -0.015 0.002 0.016 -449.857 629.890 2009.891 0.040 0.179 -0.024 -0.6 0.04 -0.1 0.79
1 6.95 695 0.551 -9.606 2.706 -0.021 -0.004 0.020 -449.857 629.890 2009.891 0.012 0.208 0.014 -0.6 0.04 -0.1 0.79
1 6.96 696 0.560 -9.501 2.773 -0.020 -0.003 0.022 -374.906 389.896 2159.943 0.001 0.102 -0.054 -0.6 0.04 -0.1 0.79
1 6.97 697 0.508 -9.611 2.744 -0.011 -0.004 0.030 -374.906 389.896 2159.943 0.054 0.212 -0.026 -0.6 0.04 -0.1 0.79
1 6.98 698 0.575 -9.520 2.696 0.013 -0.020 0.032 -374.906 584.919 2219.904 -0.015 0.121 0.024 -0.6 0.04 -0.1 0.79
1 6.99 699 0.560 -9.558 2.816 0.030 -0.019 0.027 -599.909 629.890 2039.871 -0.002 0.160 -0.094 -0.6 0.04 -0.1 0.79
1 7.00 700 0.704 -9.577 2.758 0.025 -0.015 0.027 -599.909 629.890 2039.871 -0.146 0.180 -0.032 -0.6 0.04 -0.1 0.79
1 7.01 701 0.594 -9.539 2.720 0.018 0.003 0.029 -434.867 494.978 2174.933 -0.036 0.143 0.009 -0.6 0.04 -0.1 0.79
1 7.02 702 0.484 -9.534 2.816 0.021 0.011 0.026 -434.867 494.978 2174.933 0.074 0.139 -0.083 -0.6 0.04 -0.1 0.79
1 7.03 703 0.555 -9.481 2.734 0.013 0.005 0.018 -524.958 659.870 2084.992 0.000 0.087 0.001 -0.6 0.04 -0.1 0.79
1 7.04 704 0.690 -9.601 2.797 0.009 -0.003 0.034 -389.896 494.978 2069.852 -0.136 0.209 -0.056 -0.6 0.04 -0.1 0.79
1 7.05 705 0.608 -9.457 2.859 0.010 0.009 0.034 -464.997 569.929 2024.881 -0.056 0.065 -0.115 -0.6 0.04 -0.1 0.79
1 7.06 706 0.613 -9.429 2.825 0.030 0.027 0.028 -509.968 644.880 2069.852 -0.062 0.038 -0.079 -0.6 0.04 -0.1 0.79
1 7.07 707 0.546 -9.429 2.792 0.045 0.050 0.025 -509.968 644.880 2069.852 0.003 0.039 -0.040 -0.6 0.04 -0.1 0.79
1 7.08 708 0.498 -9.563 2.720 0.038 0.066 0.029 -509.968 599.909 2129.962 0.048 0.175 0.039 -0.6 0.04 -0.1 0.79
1 7.09 709 0.441 -9.515 2.744 0.034 0.069 0.018 -509.968 599.909 2129.962 0.103 0.129 0.020 -0.6 0.04 -0.1 0.79
1 7.10 710 0.426 -9.491 2.787 0.005 0.063 0.015 -464.997 674.860 2099.982 0.114 0.106 -0.018 -0.6 0.04 -0.1 0.79
1 7.11 711 0.326 -9.692 2.749 0.001 0.048 0.014 -524.958 629.890 2114.972 0.209 0.308 0.025 -0.6 0.04 -0.1 0.79
1 7.12 712 0.388 -9.730 2.729 0.024 0.039 0.021 -449.857 629.890 1964.920 0.144 0.347 0.046 -0.6 0.04 -0.1 0.79
1 7.13 713 0.306 -9.778 2.725 0.047 0.044 0.020 -434.867 749.961 2174.933 0.223 0.396 0.055 -0.6 0.04 -0.1 0.79
1 7.14 714 0.201 -9.721 2.715 0.067 0.037 0.009 -434.867 749.961 2174.933 0.325 0.339 0.069 -0.6 0.04 -0.1 0.8
1 7.15 715 0.302 -9.639 2.725 0.083 0.020 0.007 -494.978 704.991 2084.992 0.222 0.260 0.067 -0.6 0.04 -0.1 0.8
1 7.16 716 0.192 -9.682 2.931 0.091 0.002 0.013 -494.978 704.991 2084.992 0.330 0.305 -0.132 -0.6 0.04 -0.1 0.8
1 7.17 717 0.326 -9.563 2.653 0.073 -0.025 0.017 -509.968 569.929 2069.852 0.194 0.188 0.154 -0.6 0.04 -0.1 0.8
1 7.18 718 0.326 -9.568 2.686 0.065 -0.032 0.019 -389.896 599.909 2099.982 0.190 0.196 0.134 -0.6 0.04 -0.1 0.8
1 7.19 719 0.239 -9.572 2.710 0.066 -0.040 0.013 -329.935 569.929 2099.982 0.275 0.203 0.116 -0.6 0.04 -0.1 0.8
1 7.20 720 0.364 -9.433 2.787 0.062 -0.039 0.025 -524.958 509.968 2189.923 0.149 0.066 0.045 -0.59 0.04 -0.1 0.8
1 7.21 721 0.393 -9.443 2.734 0.050 -0.050 0.030 -524.958 509.968 2189.923 0.119 0.077 0.103 -0.59 0.04 -0.1 0.8
1 7.22 722 0.287 -9.558 2.773 0.047 -0.062 0.028 -509.968 719.981 2249.884 0.223 0.193 0.070 -0.59 0.04 -0.1 0.8
1 7.23 723 0.436 -9.491 2.792 0.038 -0.068 0.044 -509.968 719.981 2249.884 0.073 0.127 0.055 -0.59 0.04 -0.1 0.8
1 7.24 724 0.421 -9.515 2.844 0.025 -0.048 0.045 -539.948 674.860 1919.949 0.086 0.152 0.006 -0.59 0.04 -0.1 0.8
1 7.25 725 0.479 -9.462 2.854 0.024 -0.032 0.034 -434.867 674.860 2069.852 0.026 0.101 0.000 -0.59 0.04 -0.1 0.8
1 7.26 726 0.445 -9.414 2.888 0.030 -0.022 0.020 -464.997 569.929 2174.933 0.057 0.055 -0.026 -0.59 0.04 -0.1 0.8
1 7.27 727 0.335 -9.410 2.797 0.033 -0.014 0.018 -374.906 659.870 2159.943 0.166 0.051 0.069 -0.59 0.04 -0.1 0.8
1 7.28 728 0.412 -9.433 2.820 0.037 -0.021 0.009 -374.906 659.870 2159.943 0.088 0.077 0.050 -0.59 0.04 -0.1 0.8
1 7.29 729 0.172 -9.529 2.921 0.039 -0.029 0.005 -344.925 584.919 2159.943 0.327 0.174 -0.046 -0.59 0.04 -0.1 0.8
1 7.30 730 0.316 -9.548 2.801 0.038 -0.044 0.012 -344.925 584.919 2159.943 0.183 0.194 0.079 -0.59 0.04 -0.1 0.8
1 7.31 731 0.345 -9.692 2.768 0.047 -0.038 0.014 -359.916 569.929 2069.852 0.154 0.339 0.116 -0.59 0.04 -0.1 0.8
1 7.32 732 0.340 -9.572 2.792 0.046 -0.049 0.021 -449.857 539.948 2114.972 0.158 0.221 0.097 -0.59 0.04 -0.1 0.8
1 7.33 733 0.249 -9.539 2.777 0.044 -0.051 0.014 -464.997 644.880 2069.852 0.247 0.190 0.119 -0.59 0.04 -0.1 0.8
1 7.34 734 0.239 -9.510 2.859 0.053 -0.062 0.014 -464.997 569.929 2129.962 0.256 0.162 0.042 -0.59 0.04 -0.1 0.8
1 7.35 735 0.230 -9.548 2.782 0.062 -0.078 0.007 -464.997 569.929 2129.962 0.265 0.202 0.123 -0.59 0.04 -0.1 0.8
1 7.36 736 0.259 -9.548 2.749 0.057 -0.097 0.014 -509.968 569.929 1949.930 0.237 0.204 0.162 -0.59 0.04 -0.1 0.8
1 7.37 737 0.426 -9.601 2.864 0.056 -0.117 0.021 -509.968 569.929 1949.930 0.070 0.258 0.052 -0.59 0.04 -0.1 0.8
1 7.38 738 0.508 -9.544 2.835 0.057 -0.134 0.020 -464.997 719.981 1994.900 -0.010 0.202 0.086 -0.59 0.04 -0.1 0.8
1 7.39 739 0.421 -9.424 2.816 0.051 -0.128 0.020 -374.906 659.870 2114.972 0.078 0.084 0.110 -0.59 0.04 -0.1 0.8
1 7.40 740 0.623 -9.472 2.825 0.047 -0.116 0.038 -284.964 569.929 2069.852 -0.119 0.135 0.110 -0.59 0.04 -0.1 0.8
1 7.41 741 0.618 -9.429 2.873 0.046 -0.115 0.036 -389.896 644.880 2024.881 -0.113 0.094 0.066 -0.59 0.04 -0.1 0.8
1 7.42 742 0.512 -9.309 2.830 0.031 -0.098 0.040 -389.896 644.880 2024.881 -0.007 -0.025 0.113 -0.59 0.04 -0.09 0.8
1 7.43 743 0.570 -9.275 2.864 0.007 -0.092 0.036 -449.857 584.919 2039.871 -0.063 -0.058 0.082 -0.59 0.04 -0.09 0.8
1 7.44 744 0.642 -9.237 2.873 -0.011 -0.074 0.046 -449.857 584.919 2039.871 -0.134 -0.095 0.074 -0.59 0.04 -0.09 0.8
1 7.45 745 0.517 -9.280 2.998 -0.035 -0.066 0.040 -344.925 539.948 1964.920 -0.010 -0.052 -0.050 -0.59 0.04 -0.09 0.8
1 7.46 746 0.632 -9.505 2.950 -0.037 -0.058 0.044 -539.948 569.929 1949.930 -0.125 0.172 -0.004 -0.59 0.04 -0.09 0.8
1 7.47 747 0.512 -9.343 2.864 -0.022 -0.054 0.038 -539.948 569.929 1949.930 -0.006 0.009 0.081 -0.59 0.04 -0.09 0.8
1 7.48 748 0.627 -9.347 2.883 -0.002 -0.054 0.030 -449.857 584.919 2084.992 -0.120 0.014 0.061 -0.59 0.04 -0.09 0.8
1 7.49 749 0.632 -9.275 2.998 0.004 -0.056 0.042 -449.857 584.919 2084.992 -0.125 -0.058 -0.052 -0.59 0.04 -0.09 0.8
1 7.50 750 0.536 -9.299 2.926 -0.006 -0.054 0.031 -464.997 599.909 2069.852 -0.030 -0.033 0.022 -0.59 0.04 -0.09 0.8
1 7.51 751 0.594 -9.256 2.859 -0.011 -0.060 0.027 -464.997 599.909 2069.852 -0.087 -0.076 0.089 -0.59 0.04 -0.09 0.8
1 7.52 752 0.498 -9.395 2.854 -0.025 -0.066 0.041 -434.867 524.958 2024.881 0.008 0.063 0.094 -0.59 0.04 -0.09 0.8
1 7.53 753 0.498 -9.448 2.945 -0.022 -0.068 0.039 -359.916 494.978 1919.949 0.008 0.116 0.003 -0.59 0.04 -0.09 0.8
1 7.54 754 0.627 -9.592 2.935 -0.019 -0.071 0.032 -359.916 494.978 1919.949 -0.122 0.259 0.012 -0.59 0.04 -0.09 0.8
1 7.55 755 0.546 -9.524 2.892 0.022 -0.082 0.034 -434.867 719.981 1994.900 -0.040 0.192 0.055 -0.59 0.04 -0.09 0.8
1 7.56 756 0.579 -9.606 3.026 0.027 -0.078 0.039 -434.867 719.981 1994.900 -0.074 0.274 -0.077 -0.59 0.04 -0.09 0.8
1 7.57 757 0.498 -9.568 3.022 0.036 -0.074 0.038 -419.876 629.890 1859.988 0.008 0.237 -0.068 -0.59 0.04 -0.09 0.8
1 7.58 758 0.603 -9.505 2.868 0.015 -0.072 0.040 -419.876 629.890 1859.988 -0.097 0.176 0.089 -0.59 0.04 -0.09 0.8
1 7.59 759 0.560 -9.491 2.998 0.015 -0.056 0.030 -434.867 599.909 2024.881 -0.054 0.162 -0.038 -0.59 0.04 -0.09 0.8
1 7.60 760 0.599 -9.438 2.873 -0.003 -0.007 0.034 -299.955 659.870 2219.904 -0.092 0.110 0.089 -0.59 0.04 -0.09 0.8
1 7.61 761 0.551 -9.477 2.825 -0.013 -0.014 0.024 -299.955 659.870 2219.904 -0.045 0.149 0.138 -0.59 0.04 -0.09 0.8
1 7.62 762 0.493 -9.539 2.978 -0.023 0.001 0.022 -494.978 584.919 2084.992 0.014 0.211 -0.018 -0.59 0.04 -0.09 0.8
1 7.63 763 0.512 -9.477 2.854 -0.020 -0.005 0.021 -494.978 584.919 2084.992 -0.006 0.148 0.106 -0.59 0.04 -0.09 0.8
1 7.64 764 0.498 -9.477 2.868 -0.019 -0.001 0.023 -374.906 629.890 1964.920 0.009 0.148 0.091 -0.59 0.04 -0.09 0.8
1 7.65 765 0.469 -9.481 2.840 -0.014 -0.013 0.011 -374.906 629.890 1964.920 0.038 0.152 0.119 -0.59 0.04 -0.09 0.8
1 7.66 766 0.522 -9.520 2.897 -0.021 -0.024 0.012 -389.896 644.880 2024.881 -0.015 0.190 0.060 -0.59 0.04 -0.09 0.8
1 7.67 767 0.493 -9.477 2.883 -0.020 -0.025 0.021 -449.857 464.847 1904.959 0.014 0.147 0.074 -0.59 0.04 -0.09 0.8
1 7.68 768 0.455 -9.443 2.931 -0.025 -0.026 0.008 -449.857 464.847 1904.959 0.051 0.113 0.026 -0.59 0.04 -0.09 0.8
1 7.69 769 0.455 -9.410 2.955 -0.038 -0.013 0.018 -389.896 644.880 1949.930 0.051 0.080 0.001 -0.59 0.04 -0.09 0.8
1 7.70 770 0.498 -9.520 2.782 -0.019 -0.002 0.010 -464.997 644.880 1994.900 0.007 0.190 0.173 -0.59 0.04 -0.09 0.8
1 7.71 771 0.445 -9.453 2.974 -0.008 -0.015 -0.003 -359.916 599.909 2024.881 0.059 0.122 -0.019 -0.59 0.04 -0.09 0.8
1 7.72 772 0.364 -9.620 3.069 -0.009 -0.008 0.008 -359.916 599.909 2024.881 0.142 0.290 -0.114 -0.59 0.04 -0.09 0.8
1 7.73 773 0.306 -9.448 2.978 -0.010 -0.029 0.008 -569.929 629.890 2039.871 0.198 0.118 -0.023 -0.59 0.04 -0.09 0.8
1 7.74 774 0.445 -9.467 2.940 -0.009 -0.045 0.014 -494.978 704.991 2084.992 0.059 0.137 0.016 -0.59 0.04 -0.09 0.8
1 7.75 775 0.498 -9.501 3.041 0.006 -0.061 0.010 -494.978 704.991 2084.992 0.007 0.171 -0.083 -0.59 0.04 -0.09 0.8
1 7.76 776 0.532 -9.486 2.892 0.021 -0.068 0.010 -434.867 674.860 1994.900 -0.025 0.158 0.067 -0.59 0.04 -0.09 0.8
1 7.77 777 0.479 -9.390 2.907 -0.011 -0.075 0.015 -419.876 659.870 1964.920 0.030 0.064 0.059 -0.59 0.04 -0.09 0.8
1 7.78 778 0.522 -9.515 3.084 -0.030 -0.084 0.027 -389.896 749.961 1994.900 -0.012 0.188 -0.118 -0.59 0.03 -0.09 0.8
1 7.79 779 0.469 -9.457 3.050 -0.039 -0.087 0.012 -389.896 749.961 1994.900 0.043 0.131 -0.085 -0.59 0.03 -0.09 0.8
1 7.80 780 0.541 -9.673 3.012 -0.031 -0.097 0.028 -494.978 539.948 1934.939 -0.027 0.346 -0.048 -0.59 0.03 -0.09 0.8
1 7.81 781 0.642 -9.568 3.146 -0.021 -0.089 0.022 -284.964 644.880 1949.930 -0.126 0.241 -0.183 -0.59 0.03 -0.09 0.8
1 7.82 782 0.642 -9.548 3.170 -0.001 -0.061 0.021 -284.964 644.880 1949.930 -0.124 0.222 -0.206 -0.59 0.03 -0.09 0.8
1 7.83 783 0.699 -9.544 3.022 0.030 -0.059 0.020 -389.896 644.880 2024.881 -0.180 0.218 -0.056 -0.59 0.03 -0.09 0.8
1 7.84 784 0.613 -9.568 2.993 0.035 -0.086 0.030 -434.867 569.929 1994.900 -0.090 0.245 -0.018 -0.59 0.03 -0.09 0.8
1 7.85 785 0.551 -9.577 3.026 0.023 -0.106 0.017 -419.876 629.890 2114.972 -0.026 0.256 -0.048 -0.59 0.03 -0.09 0.8
1 7.86 786 0.623 -9.481 3.103 0.015 -0.135 0.018 -419.876 629.890 2114.972 -0.095 0.161 -0.120 -0.59 0.03 -0.09 0.8
1 7.87 787 0.570 -9.395 3.084 0.009 -0.128 0.032 -329.935 569.929 1994.900 -0.040 0.076 -0.099 -0.59 0.03 -0.09 0.8
1 7.88 788 0.699 -9.477 3.117 0.013 -0.125 0.031 -374.906 539.948 1904.959 -0.167 0.158 -0.130 -0.59 0.03 -0.09 0.8
1 7.89 789 0.656 -9.390 3.108 0.028 -0.115 0.040 -374.906 539.948 1904.959 -0.121 0.073 -0.118 -0.59 0.03 -0.09 0.8
1 7.90 790 0.809 -9.620 3.060 0.040 -0.110 0.060 -434.867 569.929 1919.949 -0.273 0.304 -0.066 -0.59 0.03 -0.09 0.8
1 7.91 791 0.781 -9.424 3.141 0.047 -0.109 0.053 -494.978 584.919 2039.871 -0.243 0.110 -0.142 -0.59 0.03 -0.09 0.8
1 7.92 792 0.742 -9.457 3.151 0.059 -0.084 0.049 -374.906 704.991 1964.920 -0.203 0.147 -0.140 -0.59 0.03 -0.09 0.8
1 7.93 793 0.862 -9.438 3.060 0.083 -0.090 0.053 -374.906 704.991 1964.920 -0.322 0.130 -0.041 -0.59 0.03 -0.09 0.8
1 7.94 794 0.852 -9.501 2.983 0.102 -0.088 0.051 -344.925 539.948 1829.858 -0.312 0.196 0.044 -0.59 0.03 -0.09 0.8
1 7.95 795 0.886 -9.486 3.204 0.091 -0.087 0.056 -269.974 629.890 1934.939 -0.344 0.184 -0.168 -0.59 0.03 -0.09 0.8
1 7.96 796 0.766 -9.410 3.194 0.063 -0.059 0.064 -269.974 629.890 1934.939 -0.223 0.111 -0.149 -0.59 0.03 -0.09 0.8
1 7.97 797 0.838 -9.520 3.242 0.032 -0.025 0.053 -344.925 509.968 1934.939 -0.296 0.223 -0.189 -0.59 0.03 -0.09 0.81
1 7.98 798 0.795 -9.587 3.194 0.018 0.005 0.047 -419.876 629.890 1904.959 -0.253 0.292 -0.136 -0.59 0.03 -0.09 0.81
1 7.99 799 0.642 -9.491 3.223 0.021 0.015 0.044 -389.896 569.929 1919.949 -0.103 0.198 -0.158 -0.59 0.03 -0.09 0.81
1 8.00 800 0.656 -9.433 3.223 0.030 0.019 0.030 -389.896 569.929 1919.949 -0.120 0.142 -0.154 -0.59 0.03 -0.09 0.81
1 8.01 801 0.666 -9.429 3.261 0.053 0.042 0.021 -344.925 629.890 1934.939 -0.131 0.139 -0.186 -0.59 0.03 -0.09 0.81
1 8.02 802 0.555 -9.290 3.218 0.068 0.031 0.009 -299.955 659.870 1754.907 -0.021 0.003 -0.135 -0.58 0.03 -0.09 0.81
1 8.03 803 0.584 -9.280 3.079 0.085 0.030 0.009 -299.955 659.870 1754.907 -0.050 -0.004 0.013 -0.58 0.03 -0.09 0.81
1 8.04 804 0.503 -9.381 3.117 0.075 0.016 -0.014 -419.876 629.890 1964.920 0.032 0.100 -0.017 -0.58 0.03 -0.09 0.81
1 8.05 805 0.532 -9.256 3.113 0.057 0.043 -0.015 -299.955 464.847 1934.939 0.003 -0.022 -0.003 -0.58 0.03 -0.09 0.81
1 8.06 806 0.560 -9.357 3.160 0.035 0.063 -0.017 -344.925 659.870 1934.939 -0.025 0.083 -0.038 -0.58 0.03 -0.09 0.81
1 8.07 807 0.354 -9.343 3.060 0.036 0.069 -0.027 -344.925 659.870 1934.939 0.182 0.071 0.068 -0.58 0.03 -0.09 0.81
1 8.08 808 0.230 -9.338 3.031 0.042 0.071 -0.019 -374.906 509.968 1904.959 0.306 0.067 0.102 -0.58 0.03 -0.09 0.81
1 8.09 809 0.230 -9.242 3.017 0.053 0.072 -0.026 -434.867 719.981 1919.949 0.304 -0.027 0.121 -0.58 0.03 -0.09 0.81
1 8.10 810 0.220 -9.304 2.993 0.054 0.063 -0.017 -434.867 719.981 1919.949 0.312 0.038 0.151 -0.58 0.03 -0.09 0.81
1 8.11 811 -0.005 -9.137 2.945 0.034 0.054 -0.028 -569.929 704.991 1859.988 0.536 -0.128 0.204 -0.58 0.03 -0.09 0.81
1 8.12 812 0.034 -9.309 2.998 0.004 0.028 -0.028 -434.867 599.909 1949.930 0.496 0.045 0.156 -0.58 0.03 -0.09 0.81
1 8.13 813 -0.034 -9.328 2.969 -0.015 -0.002 -0.022 -434.867 599.909 1949.930 0.561 0.065 0.186 -0.58 0.03 -0.09 0.81
1 8.14 814 0.019 -9.352 3.089 -0.045 -0.088 -0.015 -359.916 599.909 1919.949 0.506 0.088 0.064 -0.58 0.03 -0.09 0.81
1 8.15 815 0.048 -9.343 2.974 -0.035 -0.098 -0.017 -389.896 794.932 1874.979 0.478 0.078 0.177 -0.58 0.03 -0.09 0.81
1 8.16 816 0.091 -9.362 2.926 -0.011 -0.125 -0.018 -464.997 569.929 1814.868 0.437 0.096 0.222 -0.58 0.03 -0.09 0.81
1 8.17 817 0.139 -9.400 2.959 -0.015 -0.129 -0.004 -464.997 569.929 1814.868 0.390 0.134 0.188 -0.58 0.03 -0.09 0.81
1 8.18 818 0.235 -9.314 2.969 -0.032 -0.150 -0.018 -419.876 629.890 1859.988 0.297 0.048 0.177 -0.58 0.03 -0.09 0.81
1 8.19 819 0.407 -9.390 2.978 -0.055 -0.150 -0.017 -329.935 749.961 1814.868 0.128 0.124 0.165 -0.58 0.03 -0.09 0.81
1 8.20 820 0.522 -9.615 3.146 -0.071 -0.136 -0.016 -329.935 749.961 1814.868 0.018 0.348 -0.006 -0.58 0.03 -0.09 0.81
1 8.21 821 0.431 -9.515 3.098 -0.074 -0.102 -0.040 -509.968 674.860 1844.848 0.120 0.244 0.031 -0.58 0.03 -0.09 0.81
1 8.22 822 0.618 -9.692 3.204 -0.067 -0.076 -0.050 -374.906 584.919 1904.959 -0.061 0.420 -0.079 -0.58 0.03 -0.09 0.81
1 8.23 823 0.690 -9.400 3.170 -0.046 -0.056 -0.047 -464.997 524.958 1919.949 -0.126 0.127 -0.049 -0.58 0.03 -0.09 0.81
1 8.24 824 0.493 -9.352 3.093 -0.040 -0.050 -0.069 -464.997 524.958 1919.949 0.078 0.079 0.025 -0.58 0.03 -0.09 0.81
1 8.25 825 0.330 -9.424 3.141 -0.059 -0.052 -0.080 -374.906 584.919 1784.887 0.248 0.151 -0.024 -0.58 0.03 -0.09 0.81
1 8.26 826 0.460 -9.338 3.141 -0.069 -0.050 -0.097 -374.906 509.968 1859.988 0.126 0.064 -0.027 -0.58 0.03 -0.09 0.81
1 8.27 827 0.316 -9.496 3.079 -0.077 -0.055 -0.111 -374.906 509.968 1859.988 0.279 0.222 0.032 -0.58 0.03 -0.09 0.81
1 8.28 828 0.326 -9.477 3.146 -0.074 -0.076 -0.120 -389.896 599.909 1949.930 0.288 0.201 -0.044 -0.58 0.03 -0.09 0.81
1 8.29 829 0.335 -9.496 3.132 -0.052 -0.104 -0.120 -494.978 659.870 1859.988 0.289 0.219 -0.034 -0.58 0.03 -0.09 0.81
1 8.30 830 0.441 -9.304 3.074 -0.040 -0.125 -0.114 -464.997 719.981 1994.900 0.194 0.027 0.020 -0.58 0.03 -0.09 0.81
1 8.31 831 0.599 -9.304 3.050 -0.026 -0.131 -0.112 -464.997 719.981 1994.900 0.048 0.028 0.043 -0.58 0.03 -0.09 0.81
1 8.32 832 0.623 -9.376 3.050 -0.020 -0.118 -0.115 -524.958 659.870 1859.988 0.036 0.100 0.042 -0.58 0.03 -0.09 0.81
1 8.33 833 0.522 -9.309 3.108 -0.003 -0.113 -0.129 -614.899 599.909 1739.917 0.150 0.034 -0.016 -0.58 0.03 -0.09 0.81
1 8.34 834 0.460 -9.366 2.888 -0.006 -0.101 -0.135 -614.899 599.909 1739.917 0.225 0.092 0.205 -0.58 0.02 -0.09 0.81
1 8.35 835 0.474 -9.424 2.911 -0.019 -0.118 -0.144 -539.948 749.961 1919.949 0.224 0.151 0.181 -0.58 0.02 -0.09 0.81
1 8.36 836 0.421 -9.472 2.883 0.002 -0.160 -0.152 -299.955 659.870 1934.939 0.305 0.200 0.208 -0.58 0.02 -0.09 0.81
1 8.37 837 0.412 -9.414 2.864 0.007 -0.222 -0.145 -359.916 644.880 1874.979 0.330 0.144 0.227 -0.58 0.02 -0.09 0.81
1 8.38 838 0.555 -9.448 2.844 -0.006 -0.271 -0.137 -359.916 644.880 1874.979 0.202 0.178 0.244 -0.58 0.02 -0.09 0.81
1 8.39 839 0.661 -9.558 2.974 -0.020 -0.311 -0.120 -449.857 539.948 1829.858 0.115 0.289 0.112 -0.58 0.02 -0.09 0.81
1 8.40 840 0.886 -9.410 2.911 -0.019 -0.322 -0.093 -464.997 644.880 1844.848 -0.093 0.141 0.172 -0.59 0.02 -0.09 0.81
1 8.41 841 0.958 -9.424 2.873 -0.009 -0.318 -0.084 -464.997 644.880 1844.848 -0.147 0.156 0.207 -0.59 0.02 -0.09 0.81
1 8.42 842 1.130 -9.481 2.854 0.007 -0.319 -0.084 -434.867 524.958 1919.949 -0.303 0.214 0.224 -0.59 0.02 -0.09 0.81
1 8.43 843 1.235 -9.472 2.777 0.019 -0.289 -0.052 -389.896 569.929 1844.848 -0.376 0.207 0.297 -0.59 0.01 -0.09 0.81
1 8.44 844 1.269 -9.433 2.749 0.039 -0.275 -0.041 -569.929 659.870 1964.920 -0.394 0.169 0.326 -0.59 0.01 -0.09 0.81
1 8.45 845 1.346 -9.505 2.758 0.026 -0.255 -0.037 -569.929 659.870 1964.920 -0.456 0.243 0.316 -0.59 0.01 -0.09 0.81
1 8.46 846 1.365 -9.520 3.017 0.029 -0.222 -0.039 -494.978 704.991 1859.988 -0.462 0.258 0.057 -0.59 0.01 -0.09 0.81
1 8.47 847 1.331 -9.678 2.797 0.017 -0.200 -0.028 -359.916 524.958 1919.949 -0.415 0.418 0.278 -0.59 0.01 -0.09 0.81
1 8.48 848 1.283 -9.544 2.729 0.007 -0.180 0.000 -359.916 524.958 1919.949 -0.356 0.284 0.344 -0.59 0.01 -0.09 0.81
1 8.49 849 1.264 -9.323 2.643 0.042 -0.185 -0.017 -389.896 644.880 1919.949 -0.329 0.065 0.429 -0.59 0.01 -0.09 0.81
1 8.50 850 1.355 -9.343 2.662 0.071 -0.172 -0.020 -524.958 779.942 1904.959 -0.400 0.087 0.413 -0.59 0.01 -0.09 0.81
1 8.51 851 1.317 -9.314 2.595 0.074 -0.170 -0.009 -539.948 599.909 1739.917 -0.353 0.060 0.484 -0.59 0.01 -0.09 0.81
1 8.52 852 1.374 -9.252 2.624 0.078 -0.162 -0.001 -539.948 599.909 1739.917 -0.401 0.000 0.458 -0.59 0.01 -0.09 0.81
1 8.53 853 1.374 -9.127 2.701 0.056 -0.161 -0.001 -509.968 569.929 1844.848 -0.393 -0.123 0.385 -0.59 0.01 -0.09 0.81
1 8.54 854 1.523 -9.395 2.734 0.019 -0.151 -0.001 -494.978 539.948 1784.887 -0.533 0.147 0.353 -0.59 0 -0.09 0.81
1 8.55 855 1.590 -9.611 2.658 -0.021 -0.124 -0.017 -494.978 539.948 1784.887 -0.590 0.363 0.427 -0.59 0 -0.09 0.81
1 8.56 856 1.523 -9.572 2.648 -0.029 -0.088 0.003 -449.857 584.919 1934.939 -0.513 0.324 0.432 -0.59 0 -0.09 0.81
1 8.57 857 1.633 -9.687 2.615 -0.021 -0.096 -0.033 -449.857 584.919 1934.939 -0.616 0.438 0.461 -0.59 0 -0.09 0.81
1 8.58 858 1.619 -9.639 2.691 -0.050 -0.128 -0.051 -464.997 674.860 1874.979 -0.580 0.390 0.375 -0.59 0 -0.09 0.8
1 8.59 859 1.556 -9.611 2.662 -0.060 -0.111 -0.055 -464.997 674.860 1874.979 -0.505 0.360 0.397 -0.59 0 -0.09 0.8
1 8.60 860 1.628 -9.615 2.739 -0.048 -0.091 -0.048 -629.890 539.948 1934.939 -0.566 0.364 0.313 -0.59 0 -0.09 0.8
1 8.61 861 1.547 -9.941 2.672 -0.053 -0.049 -0.056 -539.948 749.961 1694.946 -0.474 0.688 0.374 -0.59 0 -0.09 0.8
1 8.62 862 1.542 -9.874 2.811 -0.068 0.019 -0.064 -539.948 749.961 1694.946 -0.458 0.621 0.229 -0.59 0 -0.1 0.8
1 8.63 863 1.422 -9.793 2.686 -0.074 0.019 -0.088 -614.899 719.981 1814.868 -0.328 0.538 0.347 -0.59 0 -0.1 0.8
1 8.64 864 1.336 -9.673 2.715 -0.027 -0.017 -0.095 -614.899 719.981 1814.868 -0.232 0.418 0.312 -0.59 0 -0.1 0.8
1 8.65 865 1.302 -9.606 2.782 -0.013 -0.065 -0.123 -629.890 779.942 1859.988 -0.176 0.351 0.237 -0.59 0 -0.1 0.8
1 8.66 866 1.336 -9.410 2.849 -0.007 -0.081 -0.118 -629.890 779.942 1859.988 -0.196 0.156 0.168 -0.59 0 -0.1 0.8
1 8.67 867 1.513 -9.405 2.686 -0.031 -0.101 -0.105 -434.867 674.860 1844.848 -0.359 0.152 0.329 -0.59 -0 -0.1 0.8
1 8.68 868 1.480 -9.218 2.739 -0.012 -0.101 -0.105 -584.919 569.929 1844.848 -0.312 -0.034 0.272 -0.59 -0 -0.1 0.8
1 8.69 869 1.542 -9.228 2.605 0.006 -0.080 -0.082 -584.919 569.929 1844.848 -0.360 -0.024 0.404 -0.59 -0 -0.1 0.8
1 8.70 870 1.662 -9.055 2.634 -0.028 -0.054 -0.075 -584.919 674.860 1874.979 -0.467 -0.195 0.375 -0.59 -0 -0.1 0.8
1 8.71 871 1.614 -9.165 2.615 -0.033 -0.064 -0.075 -584.919 674.860 1874.979 -0.407 -0.084 0.392 -0.59 -0 -0.1 0.8
1 8.72 872 1.690 -9.132 2.576 -0.064 -0.054 -0.039 -690.000 599.909 1874.979 -0.461 -0.117 0.421 -0.59 -0 -0.1 0.8
1 8.73 873 1.844 -9.070 2.691 -0.050 -0.047 -0.034 -690.000 599.909 1874.979 -0.605 -0.180 0.301 -0.59 -0 -0.1 0.8
1 8.74 874 1.786 -9.113 2.715 -0.076 -0.033 -0.031 -584.919 599.909 1844.848 -0.538 -0.137 0.272 -0.59 -0 -0.1 0.8
1 8.75 875 1.829 -9.156 2.639 -0.069 0.008 -0.018 -539.948 644.880 1694.946 -0.573 -0.095 0.343 -0.59 -0 -0.1 0.8
1 8.76 876 1.834 -9.180 2.763 -0.056 0.056 -0.018 -539.948 644.880 1694.946 -0.570 -0.072 0.213 -0.59 -0 -0.11 0.8
1 8.77 877 1.743 -9.505 2.524 -0.041 0.111 -0.024 -569.929 704.991 1934.939 -0.474 0.254 0.448 -0.59 -0 -0.11 0.8
1 8.78 878 1.810 -9.635 2.557 -0.021 0.132 -0.028 -569.929 704.991 1934.939 -0.536 0.382 0.411 -0.59 -0 -0.11 0.8
1 8.79 879 1.724 -9.740 2.557 0.014 0.141 -0.027 -614.899 569.929 1814.868 -0.446 0.487 0.409 -0.59 -0 -0.11 0.8
1 8.80 880 1.604 -9.750 2.672 0.058 0.170 -0.031 -524.958 539.948 1754.907 -0.322 0.499 0.298 -0.59 -0 -0.11 0.8
1 8.81 881 1.748 -9.898 2.615 0.063 0.184 -0.031 -584.919 599.909 1874.979 -0.464 0.650 0.362 -0.59 -0 -0.11 0.8
1 8.82 882 1.566 -9.884 2.562 0.082 0.198 -0.026 -599.909 509.968 1904.959 -0.281 0.637 0.420 -0.59 0 -0.11 0.8
1 8.83 883 1.360 -10.046 2.615 0.105 0.194 -0.019 -599.909 509.968 1904.959 -0.076 0.802 0.374 -0.59 0 -0.11 0.8
1 8.84 884 1.365 -9.826 2.571 0.119 0.189 -0.009 -614.899 599.909 1739.917 -0.082 0.584 0.426 -0.59 0 -0.11 0.8
1 8.85 885 1.240 -9.682 2.514 0.109 0.167 0.003 -614.899 599.909 1739.917 0.039 0.443 0.493 -0.59 0 -0.11 0.8
1 8.86 886 1.259 -9.438 2.480 0.121 0.120 0.004 -584.919 524.958 1694.946 0.017 0.202 0.535 -0.59 0 -0.12 0.8
1 8.87 887 1.341 -9.491 2.423 0.090 0.046 -0.002 -569.929 734.971 1784.887 -0.069 0.259 0.609 -0.59 0 -0.12 0.8
1 8.88 888 1.331 -9.486 2.557 0.066 0.006 0.009 -599.909 539.948 1859.988 -0.059 0.256 0.479 -0.59 0 -0.12 0.8
1 8.89 889 1.638 -9.390 2.437 0.038 -0.020 0.014 -659.870 569.929 1844.848 -0.365 0.161 0.601 -0.59 0.01 -0.12 0.8
1 8.90 890 1.642 -9.319 2.337 0.013 -0.031 0.008 -659.870 569.929 1844.848 -0.366 0.089 0.701 -0.59 0.01 -0.12 0.8
1 8.91 891 1.757 -9.453 2.528 0.026 -0.025 0.011 -674.860 779.942 1784.887 -0.478 0.223 0.508 -0.59 0.01 -0.12 0.8
1 8.92 892 1.781 -9.539 2.696 0.064 0.015 0.010 -674.860 779.942 1784.887 -0.498 0.310 0.340 -0.59 0.01 -0.12 0.8
1 8.93 893 2.006 -9.457 2.696 0.100 0.044 0.015 -674.860 629.890 1784.887 -0.720 0.230 0.343 -0.59 0.01 -0.12 0.8
1 8.94 894 1.891 -9.314 2.648 0.145 0.093 0.028 -599.909 704.991 1859.988 -0.600 0.092 0.406 -0.59 0.01 -0.12 0.8
1 8.95 895 1.853 -9.266 2.571 0.154 0.101 0.032 -704.991 629.890 1754.907 -0.561 0.048 0.494 -0.59 0.01 -0.12 0.8
1 8.96 896 1.733 -9.127 2.490 0.174 0.096 0.040 -690.000 719.981 1694.946 -0.442 -0.087 0.588 -0.59 0.01 -0.12 0.8
1 8.97 897 1.719 -9.098 2.418 0.166 0.103 0.051 -690.000 719.981 1694.946 -0.429 -0.112 0.673 -0.59 0.01 -0.12 0.8
1 8.98 898 1.743 -9.170 2.442 0.146 0.120 0.056 -659.870 719.981 1694.946 -0.455 -0.036 0.661 -0.58 0.01 -0.12 0.8
1 8.99 899 1.733 -9.218 2.476 0.117 0.129 0.079 -659.870 719.981 1694.946 -0.450 0.015 0.638 -0.58 0.01 -0.12 0.8
1 9.00 900 1.671 -9.242 2.524 0.123 0.151 0.098 -599.909 659.870 1829.858 -0.393 0.041 0.599 -0.58 0.01 -0.12 0.8
1 9.01 901 1.710 -9.271 2.571 0.113 0.179 0.100 -614.899 674.860 1694.946 -0.438 0.072 0.561 -0.58 0.01 -0.12 0.8
1 9.02 902 1.599 -9.314 2.490 0.135 0.208 0.119 -734.971 674.860 1694.946 -0.348 0.119 0.660 -0.58 0.01 -0.13 0.8
1 9.03 903 1.451 -9.386 2.351 0.176 0.227 0.117 -749.961 659.870 1754.907 -0.211 0.193 0.810 -0.58 0.01 -0.13 0.8
1 9.04 904 1.341 -9.352 2.394 0.210 0.209 0.122 -749.961 659.870 1754.907 -0.114 0.162 0.781 -0.58 0.01 -0.13 0.8
1 9.05 905 1.135 -9.271 2.413 0.207 0.178 0.134 -629.890 659.870 1604.854 0.078 0.084 0.778 -0.58 0.02 -0.13 0.8
1 9.06 906 1.226 -9.299 2.318 0.153 0.127 0.135 -629.890 659.870 1604.854 -0.028 0.116 0.888 -0.58 0.02 -0.13 0.8
1 9.07 907 1.360 -9.501 2.327 0.127 0.103 0.150 -659.870 719.981 1694.946 -0.175 0.320 0.890 -0.58 0.02 -0.13 0.8
1 9.08 908 1.456 -9.419 2.442 0.088 0.091 0.141 -584.919 719.981 1589.864 -0.285 0.239 0.782 -0.58 0.02 -0.13 0.81
1 9.09 909 1.633 -9.639 2.428 0.075 0.085 0.135 -674.860 704.991 1649.975 -0.484 0.459 0.804 -0.58 0.02 -0.13 0.81
1 9.10 910 1.638 -9.668 2.514 0.097 0.105 0.144 -569.929 734.971 1649.975 -0.499 0.488 0.721 -0.58 0.02 -0.13 0.81
1 9.11 911 1.901 -9.721 2.452 0.117 0.123 0.132 -569.929 734.971 1649.975 -0.773 0.541 0.788 -0.58 0.02 -0.13 0.81
1 9.12 912 1.786 -9.754 2.485 0.133 0.138 0.136 -509.968 719.981 1589.864 -0.667 0.576 0.761 -0.58 0.02 -0.13 0.81
1 9.13 913 1.666 -9.615 2.442 0.154 0.153 0.128 -509.968 719.981 1589.864 -0.556 0.438 0.812 -0.58 0.02 -0.13 0.81
1 9.14 914 1.815 -9.908 2.294 0.186 0.180 0.121 -524.958 704.991 1604.854 -0.714 0.733 0.970 -0.58 0.02 -0.13 0.81
1 9.15 915 1.743 -9.917 2.457 0.174 0.174 0.121 -524.958 659.870 1679.956 -0.651 0.745 0.818 -0.58 0.02 -0.13 0.81
1 9.16 916 1.628 -9.563 2.461 0.170 0.202 0.110 -690.000 719.981 1589.864 -0.555 0.395 0.832 -0.58 0.03 -0.13 0.81
1 9.17 917 1.585 -9.563 2.346 0.195 0.184 0.086 -419.876 734.971 1724.926 -0.521 0.398 0.958 -0.58 0.03 -0.13 0.81
1 9.18 918 1.781 -9.692 2.279 0.211 0.146 0.074 -419.876 734.971 1724.926 -0.724 0.531 1.037 -0.57 0.03 -0.13 0.81
1 9.19 919 1.973 -9.773 2.284 0.201 0.141 0.065 -629.890 659.870 1499.923 -0.920 0.617 1.045 -0.57 0.03 -0.13 0.81
1 9.20 920 2.064 -9.730 2.437 0.153 0.182 0.036 -629.890 659.870 1499.923 -1.013 0.577 0.901 -0.57 0.03 -0.13 0.81
1 9.21 921 1.868 -9.903 2.193 0.168 0.302 0.015 -599.909 779.942 1529.903 -0.817 0.752 1.154 -0.57 0.03 -0.13 0.81
1 9.22 922 1.614 -9.841 2.217 0.233 0.338 0.023 -659.870 644.880 1769.897 -0.565 0.693 1.139 -0.57 0.03 -0.13 0.81
1 9.23 923 1.470 -9.754 2.385 0.279 0.312 0.011 -659.870 644.880 1769.897 -0.427 0.611 0.984 -0.57 0.03 -0.14 0.81
1 9.24 924 1.470 -9.721 3.275 0.240 0.340 -0.059 -599.909 704.991 1604.854 -0.436 0.590 0.131 -0.57 0.03 -0.14 0.81
1 9.25 925 1.063 -10.339 3.563 0.087 0.484 -0.192 -599.909 704.991 1604.854 -0.029 1.215 -0.137 -0.57 0.03 -0.14 0.81
1 9.26 926 0.306 -10.808 3.587 -0.167 0.480 -0.341 -629.890 734.971 1604.854 0.734 1.688 -0.154 -0.57 0.03 -0.14 0.81
1 9.27 927 -0.479 -10.851 2.749 -0.180 0.239 -0.360 -629.890 734.971 1604.854 1.535 1.729 0.674 -0.57 0.04 -0.14 0.81
1 9.28 928 -0.378 -10.870 2.423 0.378 -0.230 -0.309 -509.968 749.961 1514.913 1.458 1.749 0.995 -0.57 0.03 -0.15 0.81
1 9.29 929 0.187 -10.904 2.629 0.437 -0.447 -0.348 -734.971 674.860 1484.933 0.923 1.795 0.813 -0.57 0.03 -0.15 0.81
1 9.30 930 0.910 -10.928 2.897 0.103 -0.527 -0.357 -734.971 674.860 1484.933 0.240 1.837 0.579 -0.57 0.03 -0.15 0.81
1 9.31 931 1.484 -10.856 2.619 -0.329 -0.471 -0.299 -659.870 674.860 1559.884 -0.246 1.775 0.852 -0.57 0.03 -0.15 0.81
1 9.32 932 1.652 -10.602 2.366 -0.291 -0.456 -0.215 -659.870 674.860 1559.884 -0.376 1.515 1.076 -0.57 0.02 -0.15 0.81
1 9.33 933 1.772 -10.022 2.361 -0.097 -0.443 -0.125 -749.961 629.890 1469.942 -0.466 0.932 1.058 -0.57 0.02 -0.15 0.81
1 9.34 934 1.805 -9.405 2.504 0.093 -0.435 -0.059 -749.961 629.890 1469.942 -0.475 0.311 0.898 -0.57 0.02 -0.15 0.81
1 9.35 935 2.097 -8.993 2.701 0.178 -0.403 -0.032 -690.000 674.860 1484.933 -0.746 -0.098 0.700 -0.57 0.02 -0.15 0.81
1 9.36 936 2.050 -8.648 2.940 0.075 -0.295 -0.067 -629.890 734.971 1529.903 -0.678 -0.438 0.467 -0.57 0.02 -0.15 0.81
1 9.37 937 2.026 -8.787 3.089 -0.107 -0.244 -0.105 -629.890 734.971 1529.903 -0.633 -0.294 0.322 -0.57 0.02 -0.15 0.81
1 9.38 938 1.829 -9.299 3.256 -0.335 -0.218 -0.094 -824.913 779.942 1394.991 -0.395 0.214 0.124 -0.57 0.01 -0.15 0.81
1 9.39 939 1.710 -9.386 3.333 -0.333 -0.198 -0.047 -824.913 779.942 1394.991 -0.258 0.292 0.018 -0.57 0.01 -0.15 0.81
1 9.40 940 1.604 -9.448 3.534 -0.215 -0.162 -0.015 -690.000 794.932 1439.962 -0.141 0.346 -0.208 -0.57 0.01 -0.15 0.8
1 9.41 941 1.566 -9.462 3.869 -0.057 -0.061 0.020 -690.000 794.932 1439.962 -0.096 0.357 -0.557 -0.58 0.01 -0.15 0.8
1 9.42 942 1.403 -9.486 4.065 0.032 0.061 0.059 -749.961 704.991 1649.975 0.066 0.381 -0.752 -0.58 0.01 -0.15 0.8
1 9.43 943 1.173 -9.046 4.434 -0.043 0.187 0.129 -674.860 704.991 1574.874 0.288 -0.057 -1.111 -0.57 0.01 -0.15 0.8
1 9.44 944 0.991 -8.873 4.731 -0.185 0.187 0.167 -674.860 704.991 1574.874 0.456 -0.228 -1.399 -0.57 0.01 -0.15 0.8
1 9.45 945 0.833 -8.600 4.956 -0.316 0.135 0.178 -749.961 779.942 1499.923 0.593 -0.504 -1.622 -0.57 0.02 -0.15 0.8
1 9.46 946 0.833 -8.390 5.191 -0.418 0.042 0.144 -704.991 809.922 1574.874 0.553 -0.729 -1.878 -0.58 0.02 -0.15 0.8
1 9.47 947 0.876 -8.318 5.181 -0.395 -0.010 0.117 -749.961 734.971 1499.923 0.494 -0.809 -1.885 -0.58 0.02 -0.15 0.8
1 9.48 948 1.053 -8.442 5.191 -0.292 -0.023 0.086 -749.961 734.971 1499.923 0.306 -0.691 -1.908 -0.58 0.02 -0.15 0.8
1 9.49 949 1.207 -8.500 5.301 -0.185 0.025 0.081 -659.870 674.860 1559.884 0.144 -0.637 -2.023 -0.58 0.02 -0.15 0.8
1 9.50 950 1.279 -8.270 5.157 0.021 0.197 0.026 -764.952 839.903 1619.995 0.064 -0.866 -1.874 -0.58 0.02 -0.15 0.8
1 9.51 951 1.269 -7.925 4.664 0.175 0.346 0.017 -764.952 839.903 1619.995 0.067 -1.205 -1.364 -0.58 0.02 -0.15 0.8
1 9.52 952 0.924 -7.681 4.180 0.366 0.474 -0.074 -704.991 659.870 1604.854 0.392 -1.427 -0.810 -0.57 0.03 -0.15 0.81
1 9.53 953 0.881 -7.810 4.185 0.402 0.499 -0.112 -704.991 659.870 1604.854 0.428 -1.282 -0.771 -0.57 0.03 -0.16 0.81
1 9.54 954 0.608 -8.323 4.281 0.102 0.566 -0.151 -824.913 584.919 1529.903 0.693 -0.755 -0.826 -0.57 0.03 -0.16 0.81
1 9.55 955 0.527 -9.156 4.434 -0.141 0.644 -0.130 -824.913 584.919 1529.903 0.766 0.084 -0.960 -0.57 0.03 -0.16 0.81
1 9.56 956 0.397 -9.529 3.879 -0.314 0.709 -0.100 -704.991 779.942 1499.923 0.879 0.455 -0.404 -0.57 0.03 -0.16 0.81
1 9.57 957 0.354 -10.142 3.678 -0.224 0.606 -0.056 -914.854 794.932 1589.864 0.903 1.061 -0.214 -0.57 0.04 -0.16 0.81
1 9.58 958 0.330 -9.908 3.884 0.047 0.513 0.047 -914.854 794.932 1589.864 0.909 0.822 -0.426 -0.57 0.04 -0.17 0.81
1 9.59 959 0.421 -9.520 3.826 0.289 0.483 0.089 -854.893 779.942 1574.874 0.800 0.434 -0.361 -0.57 0.04 -0.17 0.81
1 9.60 960 0.053 -9.247 3.931 0.346 0.523 0.128 -674.860 779.942 1649.975 1.113 0.180 -0.401 -0.56 0.04 -0.17 0.81
1 9.61 961 -0.546 -8.859 3.419 0.098 0.552 0.278 -779.942 704.991 1394.991 1.676 -0.200 0.144 -0.56 0.05 -0.17 0.81
1 9.62 962 -0.934 -8.634 3.012 -0.038 0.452 0.346 -779.942 704.991 1394.991 2.013 -0.427 0.564 -0.56 0.05 -0.17 0.81
1 9.63 963 -1.044 -8.548 2.926 -0.111 0.297 0.368 -794.932 719.981 1559.884 2.069 -0.519 0.649 -0.56 0.05 -0.17 0.81
1 9.64 964 -1.020 -8.916 3.079 -0.141 0.240 0.464 -824.913 734.971 1424.972 1.992 -0.159 0.488 -0.56 0.06 -0.17 0.81
1 9.65 965 -1.082 -8.868 3.041 -0.072 0.142 0.486 -824.913 734.971 1424.972 1.995 -0.217 0.518 -0.56 0.06 -0.17 0.81
1 9.66 966 -0.963 -8.950 3.093 0.025 0.060 0.513 -854.893 779.942 1424.972 1.818 -0.144 0.458 -0.56 0.06 -0.17 0.81
1 9.67 967 -0.804 -9.017 3.213 0.027 -0.043 0.527 -704.991 659.870 1394.991 1.550 -0.085 0.342 -0.56 0.07 -0.16 0.81
1 9.68 968 -0.584 -8.897 3.189 0.010 -0.120 0.508 -764.952 794.932 1439.962 1.279 -0.208 0.368 -0.56 0.07 -0.16 0.81
1 9.69 969 -0.383 -8.773 3.065 0.026 -0.184 0.507 -764.952 794.932 1439.962 1.032 -0.336 0.492 -0.56 0.07 -0.16 0.81
1 9.70 970 -0.148 -8.701 3.031 0.098 -0.186 0.473 -690.000 749.961 1484.933 0.756 -0.410 0.528 -0.56 0.07 -0.16 0.81
1 9.71 971 -0.048 -8.543 3.060 0.217 -0.138 0.430 -599.909 854.893 1424.972 0.618 -0.566 0.509 -0.56 0.07 -0.16 0.81
1 9.72 972 -0.019 -8.327 2.734 0.304 -0.076 0.339 -599.909 854.893 1424.972 0.557 -0.777 0.852 -0.56 0.07 -0.15 0.81
1 9.73 973 -0.125 -8.251 2.629 0.278 -0.086 0.279 -690.000 749.961 1409.981 0.636 -0.846 0.981 -0.56 0.07 -0.15 0.81
1 9.74 974 -0.244 -8.318 2.528 0.200 -0.112 0.232 -749.961 704.991 1469.942 0.735 -0.770 1.106 -0.56 0.07 -0.15 0.81
1 9.75 975 -0.259 -8.409 2.552 0.103 -0.154 0.143 -524.958 704.991 1319.890 0.725 -0.667 1.115 -0.55 0.07 -0.15 0.82
1 9.76 976 -0.474 -8.346 2.567 0.033 -0.142 0.126 -524.958 704.991 1319.890 0.935 -0.727 1.108 -0.55 0.07 -0.15 0.82
1 9.77 977 -0.546 -8.533 2.576 -0.039 -0.149 0.129 -749.961 809.922 1319.890 1.002 -0.539 1.101 -0.55 0.07 -0.15 0.82
1 9.78 978 -0.436 -8.686 2.624 -0.097 -0.159 0.139 -599.909 704.991 1349.871 0.880 -0.390 1.045 -0.55 0.07 -0.15 0.82
1 9.79 979 -0.479 -8.672 2.600 -0.127 -0.192 0.159 -599.909 704.991 1349.871 0.911 -0.410 1.056 -0.56 0.07 -0.15 0.82
1 9.80 980 -0.512 -8.725 2.557 -0.099 -0.251 0.178 -569.929 734.971 1394.991 0.932 -0.364 1.084 -0.56 0.07 -0.15 0.82
1 9.81 981 -0.455 -8.648 2.394 -0.036 -0.303 0.194 -584.919 749.961 1439.962 0.863 -0.446 1.234 -0.56 0.07 -0.14 0.82
1 9.82 982 -0.397 -8.773 2.217 0.032 -0.390 0.168 -569.929 704.991 1469.942 0.784 -0.329 1.395 -0.56 0.07 -0.14 0.82
1 9.83 983 -0.484 -8.964 2.222 0.029 -0.448 0.168 -569.929 704.991 1469.942 0.864 -0.140 1.386 -0.56 0.07 -0.14 0.82
1 9.84 984 -0.383 -9.137 2.380 -0.028 -0.473 0.185 -629.890 704.991 1319.890 0.759 0.030 1.221 -0.56 0.07 -0.14 0.82
1 9.85 985 -0.259 -9.208 2.696 -0.117 -0.479 0.199 -599.909 809.922 1424.972 0.629 0.097 0.894 -0.56 0.07 -0.14 0.82
1 9.86 986 -0.182 -9.553 2.974 -0.205 -0.484 0.216 -599.909 809.922 1424.972 0.547 0.435 0.599 -0.56 0.07 -0.13 0.81
1 9.87 987 -0.077 -10.315 3.012 -0.248 -0.508 0.244 -464.997 644.880 1334.880 0.436 1.187 0.538 -0.56 0.07 -0.13 0.81
1 9.88 988 0.278 -10.679 3.165 -0.178 -0.508 0.283 -674.860 704.991 1349.871 0.075 1.542 0.360 -0.56 0.07 -0.13 0.81
1 9.89 989 0.455 -11.454 3.740 -0.083 -0.476 0.314 -509.968 719.981 1409.981 -0.118 2.306 -0.243 -0.56 0.07 -0.13 0.81
1 9.90 990 0.599 -11.363 3.711 -0.050 -0.464 0.315 -509.968 719.981 1409.981 -0.271 2.213 -0.219 -0.56 0.07 -0.12 0.81
1 9.91 991 0.915 -11.411 3.591 0.155 -0.398 0.269 -584.919 644.880 1379.851 -0.598 2.262 -0.095 -0.56 0.06 -0.12 0.81
1 9.92 992 0.919 -11.057 3.151 0.306 -0.301 0.228 -509.968 674.860 1409.981 -0.611 1.913 0.362 -0.56 0.06 -0.12 0.82
1 9.93 993 0.809 -10.904 2.835 0.367 -0.201 0.193 -509.968 674.860 1409.981 -0.509 1.770 0.706 -0.56 0.06 -0.12 0.82
1 9.94 994 0.651 -10.559 2.567 0.227 0.006 0.145 -494.978 779.942 1469.942 -0.360 1.437 1.004 -0.56 0.06 -0.12 0.82
1 9.95 995 0.335 -10.568 2.533 0.020 0.148 0.099 -434.867 749.961 1259.929 -0.054 1.456 1.061 -0.56 0.06 -0.12 0.82
1 9.96 996 -0.211 -11.181 3.467 -0.204 0.283 0.120 -524.958 629.890 1274.919 0.468 2.066 0.123 -0.56 0.07 -0.12 0.82
1 9.97 997 -0.268 -11.789 3.687 -0.260 0.249 0.158 -524.958 629.890 1274.919 0.506 2.667 -0.114 -0.56 0.07 -0.12 0.82
1 9.98 998 -0.077 -13.034 4.362 -0.425 -0.170 0.461 -494.978 704.991 1319.890 0.290 3.902 -0.813 -0.56 0.07 -0.12 0.82
1 9.99 999 0.838 -11.708 4.880 -0.601 -0.219 0.477 -464.997 719.981 1379.851 -0.656 2.561 -1.368 -0.56 0.07 -0.12 0.82
1 10.00 1000 1.489 -10.592 3.256 -0.193 0.003 0.328 -464.997 719.981 1379.851 -1.337 1.428 0.212 -0.56 0.07 -0.11 0.81
1 10.01 1001 1.858 -10.631 1.681 0.697 0.241 0.364 -449.857 734.971 1274.919 -1.734 1.468 1.793 -0.56 0.07 -0.11 0.82
1 10.02 1002 0.895 -9.864 2.251 0.734 0.562 0.478 -419.876 779.942 1349.871 -0.811 0.727 1.291 -0.56 0.07 -0.11 0.82
1 10.03 1003 -0.024 -9.299 2.868 -0.181 0.754 0.417 -419.876 779.942 1349.871 0.067 0.184 0.729 -0.56 0.07 -0.11 0.82
1 10.04 1004 -0.886 -9.271 3.117 -1.231 0.817 0.291 -419.876 704.991 1274.919 0.823 0.127 0.409 -0.56 0.08 -0.11 0.82
1 10.05 1005 -1.264 -9.783 2.682 -1.253 0.739 0.185 -374.906 704.991 1064.906 1.152 0.601 0.741 -0.56 0.09 -0.11 0.81
1 10.06 1006 -1.312 -10.324 2.720 -0.806 0.594 0.118 -389.896 644.880 1409.981 1.158 1.107 0.604 -0.57 0.09 -0.12 0.81
1 10.07 1007 -1.456 -10.626 3.520 -0.268 0.461 0.096 -389.896 644.880 1409.981 1.269 1.388 -0.255 -0.57 0.09 -0.12 0.81
1 10.08 1008 -1.235 -10.607 4.420 0.083 0.378 0.129 -329.935 674.860 1409.981 1.029 1.365 -1.167 -0.57 0.1 -0.12 0.81
1 10.09 1009 -0.795 -9.826 5.330 0.210 0.352 0.211 -359.916 749.961 1304.900 0.568 0.588 -2.066 -0.57 0.1 -0.12 0.81
1 10.10 1010 -0.766 -9.261 5.186 0.174 0.342 0.227 -359.916 749.961 1304.900 0.514 0.030 -1.905 -0.57 0.1 -0.12 0.81
1 10.11 1011 -0.919 -8.366 4.899 0.240 0.230 0.239 -254.984 569.929 1484.933 0.608 -0.847 -1.572 -0.57 0.1 -0.12 0.81
1 10.12 1012 -1.092 -7.858 4.779 0.303 0.091 0.250 -509.968 644.880 1334.880 0.751 -1.341 -1.418 -0.56 0.1 -0.12 0.81
1 10.13 1013 -1.130 -7.427 4.798 0.330 -0.106 0.300 -434.867 794.932 1409.981 0.763 -1.757 -1.398 -0.56 0.1 -0.12 0.81
1 10.14 1014 -0.737 -7.140 5.248 0.320 -0.319 0.373 -434.867 794.932 1409.981 0.343 -2.027 -1.806 -0.56 0.1 -0.11 0.81
1 10.15 1015 -0.441 -7.236 5.919 0.205 -0.403 0.431 -389.896 674.860 1439.962 0.026 -1.917 -2.441 -0.56 0.1 -0.11 0.82
1 10.16 1016 -0.350 -7.772 6.278 -0.165 -0.282 0.447 -389.896 839.903 1229.949 -0.088 -1.366 -2.765 -0.56 0.1 -0.11 0.82
1 10.17 1017 -0.656 -8.763 5.765 -0.472 -0.201 0.351 -389.896 839.903 1229.949 0.195 -0.367 -2.236 -0.56 0.1 -0.11 0.82
1 10.18 1018 -0.785 -10.085 4.860 -0.604 -0.283 0.234 -329.935 794.932 1304.900 0.301 0.952 -1.339 -0.56 0.1 -0.11 0.82
1 10.19 1019 -0.594 -11.143 3.520 0.090 -0.475 0.002 -209.863 794.932 1259.929 0.099 1.986 -0.064 -0.56 0.1 -0.1 0.82
1 10.20 1020 -0.445 -10.736 3.965 0.843 -0.438 -0.142 -329.935 719.981 1304.900 -0.031 1.589 -0.481 -0.56 0.1 -0.1 0.82
1 10.21 1021 -0.934 -9.405 4.295 1.140 -0.404 -0.246 -329.935 719.981 1304.900 0.484 0.287 -0.732 -0.56 0.1 -0.1 0.82
1 10.22 1022 -1.226 -8.294 4.353 0.958 -0.463 -0.343 -254.984 794.932 1304.900 0.810 -0.788 -0.695 -0.55 0.09 -0.1 0.82
1 10.23 1023 -1.159 -7.805 4.123 0.528 -0.587 -0.406 -299.955 704.991 1094.887 0.782 -1.247 -0.388 -0.55 0.09 -0.1 0.82
1 10.24 1024 -0.661 -7.619 3.227 -0.048 -0.930 -0.463 -299.955 704.991 1094.887 0.333 -1.418 0.549 -0.55 0.09 -0.1 0.83
1 10.25 1025 -0.129 -7.858 2.921 -0.109 -1.071 -0.407 -224.854 809.922 1094.887 -0.132 -1.179 0.861 -0.55 0.08 -0.1 0.83
1 10.26 1026 0.637 -7.690 2.528 0.240 -1.073 -0.293 -329.935 749.961 1154.848 -0.764 -1.349 1.254 -0.55 0.07 -0.1 0.83
1 10.27 1027 1.183 -7.681 2.864 0.399 -0.958 -0.215 -434.867 839.903 1079.896 -1.252 -1.348 0.945 -0.55 0.07 -0.1 0.83
1 10.28 1028 1.360 -7.719 2.643 0.385 -0.785 -0.167 -434.867 839.903 1079.896 -1.382 -1.296 1.200 -0.55 0.07 -0.1 0.83
1 10.29 1029 1.494 -7.647 2.686 0.248 -0.618 -0.118 -434.867 794.932 1229.949 -1.479 -1.354 1.187 -0.55 0.06 -0.1 0.83
1 10.30 1030 1.274 -7.772 2.883 0.089 -0.498 -0.089 -359.916 749.961 1079.896 -1.229 -1.222 1.009 -0.55 0.06 -0.09 0.83
1 10.31 1031 0.967 -8.093 2.734 -0.089 -0.349 -0.093 -359.916 749.961 1079.896 -0.898 -0.899 1.162 -0.55 0.06 -0.09 0.83
1 10.32 1032 0.608 -8.366 2.662 -0.069 -0.369 -0.123 -344.925 884.874 1094.887 -0.519 -0.628 1.230 -0.55 0.06 -0.09 0.83
