COL1	TIME	ACC_X	ACC_Y	ACC_Z	GYR_X	GYR_Y	GYR_Z	MAG_X	MAG_Y	MAG_Z	LACC_X	LACC_Y	LACC_Z	QUAT_X	QUAT_Y	QUAT_Z	QUAT_W
1 0.00 0 0.230 -9.682 2.179 -0.580 -1.099 0.793 -179.883 -569.929 -3194.869 0.008 0.131 0.002 -0.02 0.62 -0.78 0.01
1 0.01 1 0.225 -9.620 2.279 -0.336 -1.190 1.221 -89.941 -359.916 -3389.892 0.013 0.069 -0.098 -0.02 0.62 -0.78 0.01
1 0.02 2 0.235 -9.606 2.184 0.092 -0.854 1.282 -89.941 -509.968 -3419.872 0.004 0.055 -0.002 -0.02 0.62 -0.78 0.01
1 0.03 3 0.287 -9.601 2.136 -0.916 -1.648 1.099 -89.941 -509.968 -3419.872 -0.049 0.050 0.046 -0.02 0.62 -0.78 0.01
1 0.04 4 0.139 -9.611 2.260 -0.977 -1.587 1.129 -119.922 -539.948 -3314.940 0.099 0.060 -0.078 -0.02 0.62 -0.78 0.01
1 0.05 5 0.101 -9.663 2.217 -1.831 -1.678 0.916 -194.873 -584.919 -3284.960 0.137 0.112 -0.036 -0.02 0.62 -0.78 0.01
1 0.06 6 0.168 -9.726 2.198 -1.221 -1.282 1.587 -59.961 -419.876 -3404.882 0.069 0.174 -0.017 -0.02 0.62 -0.78 0.01
1 0.07 7 0.249 -9.678 2.241 -0.854 -1.740 0.763 -59.961 -419.876 -3404.882 -0.013 0.126 -0.061 -0.02 0.62 -0.78 0.01
1 0.08 8 0.158 -9.730 2.217 -0.671 -2.228 1.648 -89.941 -389.896 -3284.960 0.078 0.179 -0.037 -0.02 0.62 -0.78 0.01
1 0.09 9 0.014 -9.697 2.212 -0.153 -1.984 1.343 -44.971 -434.867 -3239.989 0.221 0.145 -0.032 -0.02 0.62 -0.78 0.01
1 0.10 10 0.335 -9.673 2.270 -0.427 -1.953 1.770 -44.971 -434.867 -3239.989 -0.102 0.121 -0.090 -0.02 0.62 -0.78 0.01
1 0.11 11 0.306 -9.601 2.155 -0.336 -2.411 1.984 -59.961 -329.935 -3374.901 -0.073 0.050 0.026 -0.02 0.62 -0.78 0.01
1 0.12 12 0.249 -9.630 2.279 -0.702 -2.228 1.923 -179.883 -494.978 -3374.901 -0.016 0.078 -0.099 -0.02 0.62 -0.78 0.01
1 0.13 13 0.239 -9.778 2.313 -0.244 -2.411 1.129 -119.922 -389.896 -3284.960 -0.006 0.227 -0.132 -0.02 0.62 -0.78 0.01
1 0.14 14 0.263 -9.630 2.227 -0.122 -2.014 0.854 -119.922 -389.896 -3284.960 -0.030 0.078 -0.046 -0.02 0.62 -0.78 0.01
1 0.15 15 0.120 -9.682 2.270 -1.282 -2.808 1.068 -224.854 -434.867 -3314.940 0.114 0.131 -0.088 -0.02 0.62 -0.78 0.01
1 0.16 16 0.239 -9.678 2.299 0.397 -2.533 1.129 -134.912 -374.906 -3224.999 -0.005 0.127 -0.117 -0.02 0.62 -0.78 0.01
1 0.17 17 0.201 -9.568 2.179 -0.153 -2.563 1.099 -134.912 -374.906 -3224.999 0.034 0.017 0.004 -0.02 0.62 -0.78 0.01
1 0.18 18 0.321 -9.582 2.174 -0.458 -2.594 1.343 -89.941 -464.997 -3284.960 -0.086 0.031 0.009 -0.02 0.62 -0.78 0.01
1 0.19 19 0.306 -9.582 2.203 -0.793 -2.655 1.678 -89.941 -464.997 -3284.960 -0.070 0.031 -0.020 -0.02 0.62 -0.78 0.01
1 0.20 20 0.235 -9.572 2.251 -1.038 -1.801 1.282 -119.922 -464.997 -3389.892 0.001 0.022 -0.068 -0.02 0.62 -0.78 0.01
1 0.21 21 0.335 -9.759 2.184 -1.343 -1.770 1.312 -119.922 -464.997 -3389.892 -0.099 0.208 -0.000 -0.02 0.62 -0.78 0.01
1 0.22 22 0.206 -9.659 2.294 -0.610 -2.014 1.678 -269.974 -584.919 -3314.940 0.031 0.108 -0.110 -0.02 0.62 -0.78 0.01
1 0.23 23 0.369 -9.678 2.246 -0.336 -2.075 1.373 -119.922 -584.919 -3389.892 -0.133 0.127 -0.062 -0.02 0.62 -0.78 0.01
1 0.24 24 0.311 -9.663 2.270 0.183 -1.678 1.343 -119.922 -584.919 -3389.892 -0.075 0.113 -0.085 -0.02 0.62 -0.78 0.01
1 0.25 25 0.254 -9.615 2.174 0.153 -1.831 1.831 -59.961 -569.929 -3449.853 -0.017 0.065 0.011 -0.02 0.62 -0.78 0.01
1 0.26 26 0.393 -9.611 2.356 -0.580 -1.556 1.923 -59.961 -569.929 -3449.853 -0.156 0.060 -0.171 -0.02 0.62 -0.78 0.01
1 0.27 27 0.278 -9.702 2.217 -0.916 -1.373 1.282 -164.893 -434.867 -3389.892 -0.041 0.152 -0.031 -0.02 0.62 -0.78 0.01
1 0.28 28 0.144 -9.615 2.112 -1.007 -0.641 0.946 -164.893 -434.867 -3389.892 0.094 0.065 0.074 -0.02 0.62 -0.78 0.01
1 0.29 29 0.220 -9.649 2.179 -1.617 -0.275 1.068 -104.932 -524.958 -3374.901 0.017 0.099 0.007 -0.02 0.62 -0.78 0.01
1 0.30 30 0.278 -9.563 2.150 -1.068 -0.061 0.702 -194.873 -389.896 -3239.989 -0.040 0.013 0.036 -0.02 0.62 -0.78 0.01
1 0.31 31 0.182 -9.711 2.241 -1.312 -0.702 0.977 -194.873 -389.896 -3239.989 0.055 0.161 -0.056 -0.02 0.62 -0.78 0.01
1 0.32 32 0.292 -9.596 2.160 -1.465 -1.343 0.854 -419.876 -434.867 -3389.892 -0.055 0.046 0.026 -0.02 0.62 -0.78 0.01
1 0.33 33 0.244 -9.572 2.260 -1.221 -0.916 1.434 -419.876 -434.867 -3389.892 -0.006 0.022 -0.075 -0.02 0.62 -0.78 0.01
1 0.34 34 0.283 -9.721 2.164 -1.038 -1.190 0.305 -119.922 -314.945 -3284.960 -0.045 0.171 0.021 -0.02 0.62 -0.78 0.01
1 0.35 35 0.268 -9.630 2.150 -0.732 -0.336 0.519 -119.922 -314.945 -3284.960 -0.030 0.080 0.035 -0.02 0.62 -0.78 0.01
1 0.36 36 0.292 -9.654 2.313 -0.824 -0.092 0.397 -119.922 -509.968 -3239.989 -0.053 0.104 -0.128 -0.02 0.62 -0.78 0.01
1 0.37 37 0.273 -9.568 2.208 -1.038 -0.916 0.549 -134.912 -524.958 -3254.979 -0.033 0.017 -0.023 -0.02 0.62 -0.78 0.01
1 0.38 38 0.196 -9.735 2.251 -0.824 -1.129 0.458 -134.912 -524.958 -3254.979 0.043 0.185 -0.065 -0.02 0.62 -0.78 0.01
1 0.39 39 0.153 -9.568 2.236 -0.763 -1.099 0.610 -119.922 -464.997 -3239.989 0.086 0.017 -0.051 -0.02 0.62 -0.78 0.01
1 0.40 40 0.172 -9.745 2.332 -0.977 -0.824 0.458 -119.922 -464.997 -3239.989 0.066 0.195 -0.147 -0.02 0.62 -0.78 0.01
1 0.41 41 0.249 -9.596 2.088 -0.885 -0.702 0.824 -119.922 -359.916 -3314.940 -0.011 0.046 0.098 -0.02 0.62 -0.78 0.01
1 0.42 42 0.249 -9.630 2.227 -0.946 0.061 1.007 -269.974 -659.870 -3314.940 -0.011 0.080 -0.041 -0.02 0.62 -0.78 0.01
1 0.43 43 0.211 -9.577 2.145 -1.251 -0.061 0.641 29.980 -449.857 -3254.979 0.028 0.027 0.041 -0.02 0.62 -0.78 0.01
1 0.44 44 0.359 -9.649 2.164 -1.190 0.092 0.610 -359.916 -419.876 -3329.931 -0.121 0.099 0.022 -0.02 0.62 -0.78 0.01
1 0.45 45 0.268 -9.721 2.117 -1.190 0.397 0.671 -359.916 -419.876 -3329.931 -0.030 0.171 0.069 -0.02 0.62 -0.78 0.01
1 0.46 46 0.206 -9.692 2.217 -1.740 0.305 -0.519 -134.912 -254.984 -3449.853 0.033 0.142 -0.033 -0.02 0.62 -0.78 0.01
1 0.47 47 0.306 -9.654 2.174 -0.916 0.366 0.793 -134.912 -254.984 -3449.853 -0.067 0.103 0.009 -0.02 0.62 -0.78 0.01
1 0.48 48 0.201 -9.687 2.188 -0.793 0.336 0.763 -44.971 -509.968 -3314.940 0.039 0.136 -0.006 -0.02 0.62 -0.78 0.01
1 0.49 49 0.244 -9.568 2.241 -0.763 -0.458 0.885 -59.961 -419.876 -3329.931 -0.003 0.017 -0.059 -0.02 0.62 -0.78 0.01
1 0.50 50 0.287 -9.692 2.299 -1.068 -0.183 -0.061 -14.990 -464.997 -3239.989 -0.046 0.141 -0.116 -0.02 0.62 -0.78 0.01
1 0.51 51 0.091 -9.673 2.241 -0.885 -0.305 0.946 -134.912 -494.978 -3329.931 0.151 0.122 -0.059 -0.02 0.62 -0.78 0.01
1 0.52 52 0.105 -9.711 2.136 -1.617 -0.458 1.190 -134.912 -494.978 -3329.931 0.137 0.160 0.047 -0.02 0.62 -0.78 0.01
1 0.53 53 0.206 -9.611 2.409 -1.923 -0.671 0.610 -29.980 -329.935 -3254.979 0.036 0.060 -0.227 -0.02 0.62 -0.78 0.01
1 0.54 54 0.225 -9.750 2.270 -1.160 -1.129 0.885 -29.980 -329.935 -3254.979 0.016 0.199 -0.088 -0.02 0.62 -0.78 0.01
1 0.55 55 0.201 -9.548 2.260 -1.099 -1.099 1.312 -119.922 -509.968 -3314.940 0.040 -0.002 -0.078 -0.02 0.62 -0.78 0.01
1 0.56 56 0.273 -9.663 2.275 -1.251 -0.946 1.099 -224.854 -509.968 -3164.888 -0.032 0.113 -0.092 -0.02 0.62 -0.78 0.01
1 0.57 57 0.263 -9.611 2.241 -1.129 -1.556 1.099 -134.912 -569.929 -3254.979 -0.023 0.060 -0.058 -0.02 0.62 -0.78 0.01
1 0.58 58 0.259 -9.582 2.184 -0.854 -1.617 1.617 -269.974 -434.867 -3389.892 -0.018 0.031 -0.001 -0.02 0.62 -0.78 0.01
1 0.59 59 0.206 -9.649 2.150 -1.587 -1.526 0.793 -269.974 -434.867 -3389.892 0.035 0.098 0.033 -0.02 0.62 -0.78 0.01
1 0.60 60 0.220 -9.630 2.184 -1.587 -1.587 1.373 -119.922 -359.916 -3389.892 0.020 0.079 -0.000 -0.02 0.62 -0.78 0.01
1 0.61 61 0.263 -9.577 2.169 -1.709 -1.129 1.282 -119.922 -359.916 -3389.892 -0.023 0.026 0.013 -0.02 0.62 -0.78 0.01
1 0.62 62 0.177 -9.649 2.217 -1.740 -0.732 1.160 -119.922 -434.867 -3359.911 0.063 0.098 -0.035 -0.02 0.62 -0.78 0.01
1 0.63 63 0.292 -9.606 2.169 -2.228 -1.160 1.099 -164.893 -509.968 -3389.892 -0.053 0.055 0.014 -0.02 0.62 -0.78 0.01
1 0.64 64 0.201 -9.635 2.169 -1.587 -0.763 1.404 -179.883 -299.955 -3299.950 0.038 0.084 0.013 -0.02 0.62 -0.78 0.01
1 0.65 65 0.249 -9.759 2.246 -1.404 -0.183 1.190 -119.922 -464.997 -3464.993 -0.009 0.208 -0.065 -0.02 0.62 -0.78 0.01
1 0.66 66 0.249 -9.649 2.169 -1.709 -0.214 1.099 -119.922 -464.997 -3464.993 -0.009 0.098 0.012 -0.02 0.62 -0.78 0.01
1 0.67 67 0.254 -9.582 2.227 -1.099 -0.366 0.397 -164.893 -359.916 -3209.859 -0.013 0.031 -0.047 -0.02 0.62 -0.78 0.01
1 0.68 68 0.177 -9.711 2.222 -1.465 -0.671 0.549 -164.893 -359.916 -3209.859 0.063 0.160 -0.042 -0.02 0.62 -0.78 0.01
1 0.69 69 0.273 -9.735 2.255 -1.373 -1.038 0.427 -194.873 -389.896 -3239.989 -0.033 0.184 -0.075 -0.02 0.62 -0.78 0.01
1 0.70 70 0.192 -9.611 2.299 -0.824 -0.580 0.610 -209.863 -494.978 -3254.979 0.048 0.059 -0.118 -0.02 0.62 -0.78 0.01
1 0.71 71 0.225 -9.654 2.370 -1.495 -0.885 0.397 -209.863 -674.860 -3224.999 0.015 0.103 -0.189 -0.02 0.62 -0.78 0.01
1 0.72 72 0.215 -9.515 2.208 -1.251 -0.916 0.702 0.000 -374.906 -3254.979 0.024 -0.036 -0.026 -0.02 0.62 -0.78 0.01
1 0.73 73 0.206 -9.692 2.308 -1.038 -1.282 0.122 0.000 -374.906 -3254.979 0.034 0.141 -0.125 -0.02 0.62 -0.78 0.01
1 0.74 74 0.225 -9.711 2.169 -1.251 -0.671 0.549 -134.912 -524.958 -3119.917 0.014 0.160 0.014 -0.02 0.62 -0.78 0.01
1 0.75 75 0.148 -9.539 2.289 -0.946 -1.160 1.251 -134.912 -524.958 -3119.917 0.090 -0.012 -0.106 -0.02 0.62 -0.78 0.01
1 0.76 76 0.297 -9.687 2.241 -1.801 -0.916 1.221 -104.932 -329.935 -3449.853 -0.058 0.137 -0.057 -0.02 0.62 -0.78 0.01
1 0.77 77 0.259 -9.654 2.208 -2.258 0.000 1.221 -104.932 -374.906 -3404.882 -0.019 0.103 -0.025 -0.02 0.62 -0.78 0.01
1 0.78 78 0.120 -9.730 2.284 -2.197 0.427 0.946 -164.893 -389.896 -3419.872 0.119 0.179 -0.104 -0.02 0.62 -0.78 0.01
1 0.79 79 0.335 -9.706 2.246 -1.160 -1.282 1.221 -164.893 -284.964 -3389.892 -0.097 0.155 -0.067 -0.02 0.62 -0.78 0.01
1 0.80 80 0.192 -9.793 2.179 -1.404 -0.824 1.221 -164.893 -284.964 -3389.892 0.046 0.241 0.000 -0.02 0.62 -0.78 0.01
1 0.81 81 0.196 -9.711 2.361 -0.824 -1.709 1.434 -179.883 -419.876 -3224.999 0.042 0.160 -0.181 -0.02 0.62 -0.78 0.01
1 0.82 82 0.196 -9.606 2.241 -1.251 -1.831 1.373 -179.883 -419.876 -3224.999 0.041 0.054 -0.063 -0.02 0.62 -0.78 0.01
1 0.83 83 0.302 -9.735 2.155 -1.526 -1.953 1.678 -29.980 -449.857 -3194.869 -0.064 0.183 0.023 -0.02 0.62 -0.78 0.01
1 0.84 84 0.168 -9.630 2.294 -1.312 -1.465 1.801 -179.883 -749.961 -3254.979 0.070 0.078 -0.116 -0.02 0.62 -0.78 0.01
1 0.85 85 0.215 -9.687 2.208 -1.099 -1.831 1.007 -179.883 -749.961 -3254.979 0.022 0.135 -0.030 -0.02 0.62 -0.78 0.01
1 0.86 86 0.273 -9.635 2.231 -1.343 -1.617 1.282 -164.893 -389.896 -3359.911 -0.035 0.083 -0.054 -0.02 0.62 -0.78 0.01
1 0.87 87 0.177 -9.706 2.265 -1.068 -0.885 1.160 -164.893 -389.896 -3359.911 0.061 0.155 -0.087 -0.02 0.62 -0.78 0.01
1 0.88 88 0.215 -9.673 2.284 -0.916 -1.526 1.007 -194.873 -389.896 -3239.989 0.023 0.121 -0.106 -0.02 0.62 -0.78 0.01
1 0.89 89 0.254 -9.539 2.251 -0.488 -1.343 1.007 -194.873 -389.896 -3239.989 -0.016 -0.013 -0.072 -0.02 0.62 -0.78 0.01
1 0.90 90 0.249 -9.606 2.236 -0.732 -1.373 1.282 -134.912 -419.876 -3329.931 -0.011 0.054 -0.057 -0.02 0.62 -0.78 0.01
1 0.91 91 0.220 -9.692 2.174 -1.343 -1.923 1.129 -164.893 -239.994 -3359.911 0.018 0.141 0.006 -0.02 0.62 -0.78 0.01
1 0.92 92 0.345 -9.553 2.145 -1.038 -1.465 1.068 -164.893 -239.994 -3359.911 -0.106 0.002 0.035 -0.02 0.62 -0.78 0.01
1 0.93 93 0.369 -9.630 2.169 -1.129 -1.526 0.519 -104.932 -419.876 -3299.950 -0.129 0.078 0.010 -0.02 0.62 -0.78 0.01
1 0.94 94 0.283 -9.606 2.222 -0.885 -2.502 1.038 -104.932 -419.876 -3299.950 -0.042 0.054 -0.042 -0.02 0.62 -0.78 0.01
1 0.95 95 0.268 -9.678 2.236 -1.129 -1.648 0.885 -119.922 -389.896 -3314.940 -0.027 0.126 -0.057 -0.02 0.62 -0.78 0.01
1 0.96 96 0.364 -9.663 2.279 -1.465 -0.793 1.648 -119.922 -389.896 -3314.940 -0.122 0.112 -0.100 -0.02 0.62 -0.78 0.01
1 0.97 97 0.244 -9.716 2.121 -0.702 -0.854 1.221 -254.984 -329.935 -3329.931 -0.002 0.164 0.058 -0.02 0.62 -0.78 0.01
1 0.98 98 0.330 -9.706 2.164 -0.305 -0.305 1.251 -59.961 -329.935 -3254.979 -0.088 0.155 0.014 -0.02 0.62 -0.78 0.01
1 0.99 99 0.268 -9.577 2.054 -0.763 -0.610 1.282 -59.961 -329.935 -3254.979 -0.025 0.026 0.124 -0.02 0.62 -0.78 0.01
1 1.00 100 0.345 -9.611 2.203 -1.129 -1.404 1.373 -119.922 -509.968 -3284.960 -0.101 0.059 -0.025 -0.02 0.62 -0.78 0.01
1 1.01 101 0.297 -9.702 2.174 -0.946 -1.404 1.282 -119.922 -509.968 -3284.960 -0.053 0.150 0.004 -0.02 0.62 -0.78 0.01
1 1.02 102 0.297 -9.577 2.236 -1.221 -0.641 0.702 -194.873 -434.867 -3359.911 -0.053 0.025 -0.059 -0.02 0.62 -0.78 0.01
1 1.03 103 0.249 -9.625 2.145 -1.221 -0.427 0.732 -194.873 -434.867 -3359.911 -0.004 0.073 0.032 -0.02 0.62 -0.78 0.01
1 1.04 104 0.196 -9.706 2.294 -1.251 -0.793 1.129 -194.873 -389.896 -3239.989 0.049 0.155 -0.116 -0.02 0.62 -0.78 0.01
1 1.05 105 0.139 -9.649 2.179 -0.763 -0.916 0.732 -254.984 -299.955 -3329.931 0.106 0.097 -0.000 -0.02 0.62 -0.78 0.01
1 1.06 106 0.287 -9.587 2.188 -1.160 -1.404 0.824 -254.984 -299.955 -3329.931 -0.042 0.035 -0.010 -0.02 0.62 -0.78 0.01
1 1.07 107 0.168 -9.572 2.083 -1.282 -1.373 0.824 -224.854 -389.896 -3239.989 0.078 0.021 0.095 -0.02 0.62 -0.78 0.01
1 1.08 108 0.139 -9.702 2.131 -1.373 -0.641 0.946 -164.893 -434.867 -3284.960 0.106 0.150 0.046 -0.02 0.62 -0.78 0.01
1 1.09 109 0.292 -9.730 2.193 -0.580 -0.275 0.946 -134.912 -494.978 -3254.979 -0.047 0.178 -0.016 -0.02 0.62 -0.78 0.01
1 1.10 110 0.182 -9.544 2.136 -0.610 -0.580 0.946 -134.912 -494.978 -3254.979 0.063 -0.008 0.041 -0.02 0.62 -0.78 0.01
1 1.11 111 0.139 -9.572 2.088 -1.526 -1.282 1.190 -224.854 -464.997 -3284.960 0.105 0.020 0.088 -0.02 0.62 -0.78 0.01
1 1.12 112 0.220 -9.754 2.150 -1.434 -1.648 1.099 -134.912 -374.906 -3329.931 0.023 0.202 0.025 -0.02 0.62 -0.78 0.01
1 1.13 113 0.120 -9.754 2.160 -1.740 -1.587 1.160 -134.912 -374.906 -3329.931 0.124 0.202 0.016 -0.02 0.62 -0.78 0.01
1 1.14 114 0.297 -9.726 2.140 -0.671 -1.404 0.854 -179.883 -494.978 -3254.979 -0.054 0.173 0.034 -0.02 0.62 -0.78 0.01
1 1.15 115 0.153 -9.601 2.193 -0.885 -1.343 1.160 -269.974 -389.896 -3104.927 0.090 0.048 -0.019 -0.02 0.62 -0.78 0.01
1 1.16 116 0.144 -9.730 2.155 -0.885 -1.770 1.007 -179.883 -449.857 -3329.931 0.099 0.178 0.019 -0.02 0.62 -0.78 0.01
1 1.17 117 0.268 -9.644 2.193 -1.251 -2.106 1.465 -179.883 -449.857 -3329.931 -0.025 0.091 -0.020 -0.02 0.62 -0.78 0.01
1 1.18 118 0.335 -9.592 2.231 -1.007 -2.167 0.946 -89.941 -434.867 -3314.940 -0.092 0.038 -0.059 -0.02 0.62 -0.78 0.01
1 1.19 119 0.249 -9.615 2.136 -0.702 -1.617 1.465 -119.922 -359.916 -3239.989 -0.007 0.062 0.036 -0.02 0.62 -0.78 0.01
1 1.20 120 0.340 -9.649 2.222 -0.641 -1.740 1.678 -119.922 -359.916 -3239.989 -0.097 0.096 -0.050 -0.02 0.62 -0.78 0.01
1 1.21 121 0.120 -9.630 2.069 -1.434 -1.190 1.190 -164.893 -464.997 -3239.989 0.123 0.077 0.103 -0.02 0.62 -0.78 0.01
1 1.22 122 0.311 -9.730 2.193 -0.916 -1.038 0.458 -134.912 -419.876 -3299.950 -0.068 0.177 -0.021 -0.02 0.62 -0.78 0.01
1 1.23 123 0.345 -9.759 2.241 -1.251 -0.793 0.977 -59.961 -374.906 -3329.931 -0.101 0.206 -0.069 -0.02 0.62 -0.78 0.01
1 1.24 124 0.354 -9.812 2.102 -1.282 0.458 1.068 -59.961 -374.906 -3329.931 -0.111 0.259 0.070 -0.02 0.62 -0.78 0.01
1 1.25 125 0.187 -9.778 2.193 -0.732 -0.427 0.854 -179.883 -329.935 -3329.931 0.057 0.225 -0.022 -0.02 0.62 -0.78 0.01
1 1.26 126 0.211 -9.802 2.107 -0.671 -0.580 0.061 -59.961 -449.857 -3299.950 0.034 0.249 0.064 -0.02 0.62 -0.78 0.01
1 1.27 127 0.254 -9.659 2.313 0.092 -1.221 0.946 -59.961 -449.857 -3299.950 -0.009 0.105 -0.142 -0.02 0.62 -0.78 0.01
1 1.28 128 0.196 -9.793 2.121 0.153 -0.885 0.519 0.000 -419.876 -3224.999 0.049 0.239 0.049 -0.02 0.62 -0.78 0.01
1 1.29 129 0.187 -9.812 2.140 0.824 -1.404 0.122 -119.922 -239.994 -3284.960 0.059 0.258 0.030 -0.02 0.62 -0.78 0.01
1 1.30 130 0.235 -9.673 2.279 1.373 -1.160 -1.038 -44.971 -509.968 -3209.859 0.013 0.120 -0.107 -0.02 0.62 -0.78 0.01
1 1.31 131 0.254 -9.711 2.279 1.434 -1.282 -0.305 -44.971 -509.968 -3209.859 -0.004 0.159 -0.104 -0.02 0.62 -0.78 0.01
1 1.32 132 0.187 -9.697 2.241 0.641 -1.831 -0.916 -134.912 -299.955 -3374.901 0.066 0.145 -0.062 -0.02 0.62 -0.78 0.01
1 1.33 133 0.306 -9.548 2.208 0.122 -2.075 -0.641 -164.893 -434.867 -3314.940 -0.047 -0.002 -0.024 -0.02 0.62 -0.78 0.01
1 1.34 134 0.297 -9.596 2.203 0.366 -1.984 -0.488 -164.893 -434.867 -3314.940 -0.035 0.046 -0.019 -0.02 0.62 -0.78 0.01
1 1.35 135 0.244 -9.663 2.193 0.427 -1.373 -0.793 -134.912 -329.935 -3329.931 0.020 0.114 -0.007 -0.02 0.62 -0.78 0.01
1 1.36 136 0.244 -9.855 2.327 1.099 -2.777 -0.366 -29.980 -419.876 -3254.979 0.023 0.306 -0.139 -0.02 0.62 -0.78 0.01
1 1.37 137 0.254 -9.855 2.265 1.770 -5.432 0.641 -209.863 -329.935 -3404.882 0.016 0.307 -0.074 -0.02 0.62 -0.78 0.01
1 1.38 138 0.369 -9.745 2.231 2.777 -6.531 1.221 -209.863 -329.935 -3404.882 -0.098 0.197 -0.037 -0.02 0.62 -0.78 0.01
1 1.39 139 0.493 -9.625 2.169 3.143 -6.470 0.916 -134.912 -494.978 -3254.979 -0.221 0.079 0.030 -0.02 0.62 -0.78 0.01
1 1.40 140 0.455 -9.405 2.241 0.549 -5.615 1.434 -179.883 -374.906 -3254.979 -0.176 -0.139 -0.033 -0.02 0.62 -0.78 0.01
1 1.41 141 0.441 -9.539 2.270 -0.061 -4.395 1.099 -179.883 -374.906 -3254.979 -0.159 -0.005 -0.060 -0.03 0.62 -0.78 0.01
1 1.42 142 0.450 -9.558 2.155 -0.214 -4.272 1.343 -134.912 -329.935 -3224.999 -0.167 0.015 0.056 -0.03 0.62 -0.78 0.01
1 1.43 143 0.378 -9.611 2.308 -0.580 -3.784 1.587 -164.893 -434.867 -3314.940 -0.093 0.068 -0.098 -0.03 0.62 -0.78 0.01
1 1.44 144 0.383 -9.692 2.356 1.221 -5.035 1.251 -134.912 -449.857 -3299.950 -0.096 0.149 -0.144 -0.03 0.62 -0.78 0.01
1 1.45 145 0.464 -9.663 2.313 2.838 -6.012 2.258 -134.912 -449.857 -3299.950 -0.176 0.121 -0.098 -0.03 0.62 -0.78 0.01
1 1.46 146 0.522 -9.630 2.327 3.632 -5.951 2.991 -209.863 -524.958 -3374.901 -0.233 0.089 -0.107 -0.03 0.62 -0.78 0.01
1 1.47 147 0.575 -9.587 2.279 2.441 -4.608 2.991 -134.912 -524.958 -3374.901 -0.285 0.047 -0.053 -0.03 0.62 -0.78 0.01
1 1.48 148 0.421 -9.515 2.409 0.610 -2.625 2.075 -134.912 -524.958 -3374.901 -0.131 -0.022 -0.173 -0.03 0.62 -0.78 0.01
1 1.49 149 0.522 -9.501 2.279 1.160 -1.862 2.197 -194.873 -539.948 -3314.940 -0.232 -0.036 -0.041 -0.03 0.62 -0.78 0.01
1 1.50 150 0.369 -9.596 2.227 1.740 -1.587 2.289 -269.974 -389.896 -3314.940 -0.079 0.061 0.015 -0.03 0.62 -0.78 0.01
1 1.51 151 0.397 -9.620 2.227 1.740 -2.380 1.434 -269.974 -389.896 -3314.940 -0.108 0.085 0.018 -0.03 0.62 -0.78 0.01
1 1.52 152 0.445 -9.572 2.246 1.129 -1.709 1.465 -134.912 -644.880 -3374.901 -0.155 0.038 0.002 -0.03 0.62 -0.78 0.01
1 1.53 153 0.369 -9.615 2.131 1.312 -1.404 0.824 -179.883 -449.857 -3374.901 -0.077 0.082 0.120 -0.03 0.62 -0.78 0.01
1 1.54 154 0.388 -9.611 2.227 1.801 -0.977 1.465 -59.961 -449.857 -3404.882 -0.095 0.078 0.026 -0.03 0.62 -0.78 0.01
1 1.55 155 0.374 -9.630 2.179 1.862 -0.061 1.526 -59.961 -449.857 -3404.882 -0.080 0.098 0.081 -0.03 0.62 -0.78 0.01
1 1.56 156 0.316 -9.520 2.246 0.549 -0.061 2.075 -179.883 -329.935 -3254.979 -0.023 -0.011 0.016 -0.03 0.62 -0.78 0.01
1 1.57 157 0.283 -9.510 2.198 0.671 -0.671 1.038 -134.912 -419.876 -3299.950 0.009 -0.020 0.065 -0.03 0.62 -0.78 0.01
1 1.58 158 0.292 -9.577 2.308 0.092 -0.336 1.923 -134.912 -419.876 -3299.950 -0.001 0.047 -0.044 -0.03 0.62 -0.78 0.01
1 1.59 159 0.263 -9.601 2.208 0.580 -0.641 1.770 -194.873 -464.997 -3314.940 0.027 0.071 0.057 -0.03 0.62 -0.78 0.01
1 1.60 160 0.201 -9.659 2.260 0.824 -0.671 2.380 -284.964 -494.978 -3299.950 0.088 0.128 0.005 -0.03 0.62 -0.78 0.01
1 1.61 161 0.125 -9.659 2.251 1.160 -1.282 1.740 -284.964 -449.857 -3404.882 0.163 0.129 0.016 -0.03 0.62 -0.78 0.01
1 1.62 162 0.134 -9.582 2.117 0.977 -2.106 1.984 -284.964 -449.857 -3404.882 0.152 0.052 0.152 -0.03 0.62 -0.78 0.01
1 1.63 163 0.297 -9.558 2.164 0.732 -2.899 2.380 -269.974 -434.867 -3359.911 -0.015 0.029 0.107 -0.03 0.62 -0.78 0.01
1 1.64 164 0.225 -9.659 2.150 0.397 -3.571 2.136 -104.932 -524.958 -3254.979 0.055 0.130 0.123 -0.03 0.62 -0.78 0.01
1 1.65 165 0.316 -9.630 2.370 0.671 -3.235 2.197 -104.932 -524.958 -3254.979 -0.037 0.101 -0.097 -0.03 0.62 -0.78 0.01
1 1.66 166 0.311 -9.625 2.212 -0.244 -3.326 2.747 -179.883 -449.857 -3329.931 -0.033 0.097 0.062 -0.03 0.62 -0.78 0.01
1 1.67 167 0.283 -9.754 2.313 0.000 -2.258 3.540 -224.854 -434.867 -3239.989 -0.006 0.226 -0.039 -0.03 0.62 -0.78 0.01
1 1.68 168 0.177 -9.644 2.389 0.763 -2.136 3.418 -44.971 -434.867 -3284.960 0.097 0.116 -0.114 -0.03 0.62 -0.78 0.01
1 1.69 169 0.182 -9.644 2.059 1.160 -2.502 2.991 -44.971 -434.867 -3284.960 0.089 0.116 0.218 -0.03 0.62 -0.78 0.01
1 1.70 170 0.254 -9.529 2.351 1.007 -2.472 3.235 -164.893 -539.948 -3314.940 0.012 0.002 -0.070 -0.03 0.62 -0.79 0.01
1 1.71 171 0.220 -9.644 2.342 1.129 -3.082 3.174 -254.984 -494.978 -3404.882 0.043 0.118 -0.058 -0.03 0.62 -0.79 0.01
1 1.72 172 0.364 -9.606 2.217 0.854 -3.082 3.662 -254.984 -494.978 -3404.882 -0.103 0.080 0.069 -0.03 0.62 -0.79 0.01
1 1.73 173 0.220 -9.606 2.241 0.854 -3.571 3.662 -194.873 -539.948 -3314.940 0.039 0.080 0.047 -0.03 0.62 -0.79 0.01
1 1.74 174 0.249 -9.611 2.270 0.854 -4.852 3.723 -134.912 -419.876 -3374.901 0.007 0.085 0.019 -0.03 0.62 -0.79 0.01
1 1.75 175 0.412 -9.635 2.332 0.702 -5.219 3.723 -254.984 -569.929 -3329.931 -0.159 0.109 -0.041 -0.03 0.62 -0.79 0.01
1 1.76 176 0.402 -9.577 2.284 0.092 -4.822 3.540 -254.984 -569.929 -3329.931 -0.152 0.052 0.009 -0.03 0.62 -0.79 0.01
1 1.77 177 0.517 -9.764 2.442 0.977 -3.387 3.265 -89.941 -359.916 -3359.911 -0.269 0.240 -0.146 -0.03 0.62 -0.79 0.02
1 1.78 178 0.311 -9.596 2.409 0.946 -3.235 3.632 -164.893 -509.968 -3359.911 -0.064 0.073 -0.110 -0.03 0.62 -0.79 0.02
1 1.79 179 0.426 -9.692 2.375 1.343 -1.740 3.418 -164.893 -509.968 -3359.911 -0.181 0.169 -0.073 -0.03 0.62 -0.79 0.02
1 1.80 180 0.326 -9.625 2.413 0.946 -1.129 3.326 -194.873 -464.997 -3359.911 -0.082 0.103 -0.109 -0.03 0.62 -0.79 0.02
1 1.81 181 0.402 -9.644 2.389 1.129 -0.732 3.510 -134.912 -494.978 -3404.882 -0.161 0.123 -0.083 -0.03 0.62 -0.79 0.02
1 1.82 182 0.249 -9.630 2.318 1.251 0.427 2.899 -224.854 -389.896 -3284.960 -0.011 0.109 -0.008 -0.03 0.62 -0.79 0.02
1 1.83 183 0.359 -9.750 2.394 2.075 0.641 2.563 -224.854 -389.896 -3284.960 -0.123 0.229 -0.083 -0.03 0.62 -0.79 0.02
1 1.84 184 0.206 -9.572 2.380 1.862 0.610 2.686 -224.854 -509.968 -3389.892 0.025 0.053 -0.061 -0.03 0.62 -0.79 0.02
1 1.85 185 0.244 -9.587 2.361 1.984 0.305 2.686 -179.883 -644.880 -3554.934 -0.017 0.069 -0.039 -0.03 0.62 -0.79 0.02
1 1.86 186 0.273 -9.491 2.375 1.740 0.092 1.617 -179.883 -644.880 -3554.934 -0.047 -0.026 -0.049 -0.03 0.62 -0.79 0.02
1 1.87 187 0.292 -9.601 2.251 1.923 -0.549 2.075 -134.912 -494.978 -3299.950 -0.066 0.085 0.079 -0.03 0.62 -0.79 0.02
1 1.88 188 0.316 -9.515 2.299 1.770 -0.305 2.594 -104.932 -419.876 -3329.931 -0.091 -0.001 0.034 -0.03 0.62 -0.79 0.02
1 1.89 189 0.335 -9.501 2.480 0.488 0.397 2.563 -164.893 -539.948 -3389.892 -0.112 -0.014 -0.145 -0.03 0.62 -0.79 0.02
1 1.90 190 0.225 -9.505 2.399 1.038 1.343 2.380 -164.893 -539.948 -3389.892 -0.005 -0.009 -0.062 -0.03 0.62 -0.79 0.02
1 1.91 191 0.254 -9.659 2.351 0.366 2.258 1.831 -209.863 -524.958 -3329.931 -0.035 0.144 -0.011 -0.03 0.62 -0.79 0.02
1 1.92 192 0.125 -9.687 2.370 0.305 2.167 2.167 -29.980 -569.929 -3374.901 0.091 0.174 -0.027 -0.03 0.62 -0.79 0.02
1 1.93 193 0.043 -9.678 2.533 1.556 1.953 1.953 -29.980 -569.929 -3374.901 0.170 0.165 -0.189 -0.03 0.62 -0.79 0.01
1 1.94 194 -0.101 -9.769 2.428 2.441 0.549 2.106 -194.873 -509.968 -3359.911 0.309 0.256 -0.080 -0.03 0.62 -0.79 0.01
1 1.95 195 0.010 -9.721 2.423 2.472 -0.885 2.625 -194.873 -509.968 -3359.911 0.195 0.209 -0.071 -0.02 0.62 -0.79 0.01
1 1.96 196 0.144 -9.601 2.356 2.899 -3.784 2.289 -29.980 -494.978 -3329.931 0.058 0.091 0.001 -0.02 0.62 -0.79 0.02
1 1.97 197 0.120 -9.706 2.452 2.289 -5.005 3.265 -29.980 -494.978 -3329.931 0.079 0.198 -0.089 -0.02 0.62 -0.79 0.02
1 1.98 198 0.177 -9.639 2.485 0.977 -5.524 2.563 -104.932 -524.958 -3254.979 0.019 0.132 -0.118 -0.02 0.62 -0.79 0.02
1 1.99 199 0.326 -9.659 2.524 1.343 -6.592 3.662 -134.912 -329.935 -3299.950 -0.132 0.152 -0.152 -0.03 0.62 -0.79 0.02
1 2.00 200 0.402 -9.740 2.557 1.434 -6.531 3.662 -134.912 -329.935 -3299.950 -0.209 0.234 -0.182 -0.03 0.61 -0.79 0.02
1 2.01 201 0.345 -9.745 2.509 2.655 -5.951 4.211 -119.922 -389.896 -3494.973 -0.153 0.240 -0.130 -0.03 0.61 -0.79 0.02
1 2.02 202 0.431 -9.697 2.485 3.754 -5.310 3.723 -119.922 -389.896 -3494.973 -0.240 0.193 -0.101 -0.03 0.61 -0.79 0.02
1 2.03 203 0.546 -9.620 2.581 4.791 -6.683 3.662 -134.912 -449.857 -3299.950 -0.355 0.118 -0.190 -0.03 0.61 -0.79 0.02
1 2.04 204 0.532 -9.568 2.615 6.439 -5.737 3.967 -134.912 -449.857 -3299.950 -0.341 0.068 -0.215 -0.03 0.61 -0.79 0.02
1 2.05 205 0.603 -9.462 2.533 6.195 -4.272 4.334 -134.912 -599.909 -3254.979 -0.413 -0.035 -0.123 -0.03 0.61 -0.79 0.02
1 2.06 206 0.512 -9.553 2.591 6.134 -4.150 4.089 -134.912 -494.978 -3374.901 -0.322 0.059 -0.169 -0.03 0.61 -0.79 0.02
1 2.07 207 0.340 -9.510 2.662 5.310 -4.028 4.486 -134.912 -494.978 -3374.901 -0.151 0.021 -0.221 -0.03 0.61 -0.79 0.02
1 2.08 208 0.469 -9.644 2.552 5.493 -4.211 4.517 -254.984 -449.857 -3449.853 -0.283 0.158 -0.101 -0.03 0.61 -0.79 0.02
1 2.09 209 0.345 -9.515 2.557 5.615 -3.906 5.096 -254.984 -449.857 -3449.853 -0.161 0.031 -0.097 -0.03 0.61 -0.79 0.02
1 2.10 210 0.316 -9.615 2.562 5.859 -4.517 5.798 -179.883 -599.909 -3329.931 -0.136 0.134 -0.091 -0.03 0.61 -0.79 0.02
1 2.11 211 0.374 -9.510 2.586 5.402 -5.157 6.989 -179.883 -599.909 -3329.931 -0.198 0.031 -0.106 -0.03 0.61 -0.79 0.02
1 2.12 212 0.431 -9.510 2.485 5.249 -5.371 6.653 -104.932 -494.978 -3404.882 -0.260 0.033 0.003 -0.03 0.61 -0.79 0.02
1 2.13 213 0.479 -9.577 2.437 5.463 -5.310 7.141 -164.893 -464.997 -3419.872 -0.312 0.102 0.060 -0.03 0.61 -0.79 0.02
1 2.14 214 0.397 -9.582 2.519 5.585 -3.937 7.141 -164.893 -464.997 -3419.872 -0.241 0.111 -0.007 -0.03 0.61 -0.79 0.02
1 2.15 215 0.455 -9.692 2.423 5.219 -1.984 8.209 -254.984 -449.857 -3254.979 -0.305 0.223 0.097 -0.03 0.61 -0.79 0.02
1 2.16 216 0.369 -9.778 2.452 4.974 -1.343 8.301 -254.984 -449.857 -3254.979 -0.225 0.311 0.076 -0.03 0.61 -0.79 0.02
1 2.17 217 0.225 -9.673 2.466 5.920 -1.160 9.094 -299.955 -464.997 -3419.872 -0.091 0.208 0.070 -0.03 0.61 -0.79 0.02
1 2.18 218 0.215 -9.548 2.279 7.538 -1.221 10.498 -29.980 -494.978 -3374.901 -0.092 0.085 0.265 -0.03 0.61 -0.79 0.02
1 2.19 219 0.321 -9.448 2.327 7.965 -2.136 10.437 -224.854 -509.968 -3494.973 -0.209 -0.013 0.227 -0.03 0.61 -0.79 0.02
1 2.20 220 0.460 -9.515 2.409 8.087 -2.838 10.437 0.000 -524.958 -3404.882 -0.360 0.057 0.156 -0.02 0.61 -0.79 0.02
1 2.21 221 0.412 -9.410 2.337 5.432 -0.641 10.223 0.000 -524.958 -3404.882 -0.333 -0.043 0.248 -0.02 0.61 -0.79 0.02
1 2.22 222 0.522 -9.405 2.361 3.571 0.671 11.017 -104.932 -494.978 -3449.853 -0.455 -0.046 0.231 -0.02 0.61 -0.79 0.03
1 2.23 223 0.584 -9.510 2.538 1.770 2.625 10.986 -104.932 -494.978 -3449.853 -0.529 0.060 0.058 -0.02 0.61 -0.79 0.03
1 2.24 224 0.417 -9.721 2.667 0.793 6.134 11.475 -194.873 -539.948 -3419.872 -0.374 0.272 -0.069 -0.02 0.61 -0.79 0.03
1 2.25 225 0.153 -9.702 2.686 1.465 10.345 10.803 -269.974 -584.919 -3599.905 -0.126 0.253 -0.086 -0.02 0.61 -0.79 0.03
1 2.26 226 0.125 -9.769 2.567 4.303 10.284 10.040 -254.984 -569.929 -3329.931 -0.114 0.321 0.036 -0.02 0.61 -0.8 0.03
1 2.27 227 0.067 -9.802 2.533 5.981 9.430 9.705 -119.922 -509.968 -3494.973 -0.074 0.355 0.074 -0.02 0.61 -0.8 0.03
1 2.28 228 0.000 -9.572 2.615 5.981 11.353 8.698 -119.922 -509.968 -3494.973 -0.039 0.130 0.010 -0.02 0.6 -0.8 0.03
1 2.29 229 0.029 -9.496 2.524 6.592 11.597 9.857 -44.971 -704.991 -3419.872 -0.084 0.056 0.110 -0.02 0.6 -0.8 0.03
1 2.30 230 -0.110 -9.381 2.457 3.784 13.397 9.064 -44.971 -704.991 -3419.872 0.038 -0.056 0.185 -0.01 0.6 -0.8 0.03
1 2.31 231 -0.163 -9.381 2.485 1.678 14.282 9.491 -89.941 -629.890 -3569.924 0.072 -0.055 0.162 -0.01 0.6 -0.8 0.02
1 2.32 232 -0.292 -9.362 2.356 1.129 14.374 6.683 -59.961 -599.909 -3479.983 0.184 -0.073 0.292 -0.01 0.6 -0.8 0.02
1 2.33 233 -0.316 -9.285 2.375 1.892 13.947 5.646 -29.980 -644.880 -3404.882 0.191 -0.150 0.272 -0.01 0.6 -0.8 0.02
1 2.34 234 -0.460 -9.156 2.418 1.160 14.465 4.395 14.990 -584.919 -3569.924 0.320 -0.278 0.231 -0.01 0.6 -0.8 0.02
1 2.35 235 -0.618 -9.156 2.270 0.458 13.977 3.174 14.990 -584.919 -3569.924 0.465 -0.278 0.380 -0.01 0.6 -0.8 0.02
1 2.36 236 -0.704 -9.261 2.169 -2.258 11.353 1.923 -89.941 -539.948 -3569.924 0.527 -0.173 0.476 -0.01 0.6 -0.8 0.02
1 2.37 237 -0.690 -9.314 2.275 -3.113 9.430 1.923 -89.941 -539.948 -3569.924 0.503 -0.122 0.365 -0 0.6 -0.8 0.02
1 2.38 238 -0.757 -9.505 2.246 -2.350 7.111 3.204 -44.971 -704.991 -3539.944 0.561 0.068 0.389 -0 0.6 -0.8 0.02
1 2.39 239 -0.575 -9.505 2.332 -0.854 3.937 3.845 14.990 -704.991 -3314.940 0.368 0.067 0.298 -0 0.6 -0.8 0.02
1 2.40 240 -0.426 -9.687 2.662 0.336 -0.397 3.937 164.893 -464.997 -3314.940 0.211 0.248 -0.036 -0 0.6 -0.8 0.02
1 2.41 241 -0.311 -9.620 2.619 0.977 -0.488 3.998 119.922 -584.919 -3494.973 0.089 0.181 0.007 -0 0.6 -0.8 0.02
1 2.42 242 -0.168 -9.864 2.706 2.350 -0.458 3.510 119.922 -584.919 -3494.973 -0.060 0.426 -0.078 -0 0.6 -0.8 0.02
1 2.43 243 -0.192 -9.654 2.777 3.235 2.563 3.784 14.990 -584.919 -3359.911 -0.043 0.218 -0.141 -0 0.6 -0.8 0.02
1 2.44 244 -0.144 -9.845 2.734 2.747 6.042 2.930 14.990 -584.919 -3359.911 -0.095 0.411 -0.093 0 0.6 -0.8 0.02
1 2.45 245 -0.139 -9.807 2.672 1.617 10.223 2.838 29.980 -599.909 -3479.983 -0.104 0.374 -0.026 0 0.6 -0.8 0.02
1 2.46 246 -0.201 -9.793 2.490 1.740 14.252 2.960 134.912 -599.909 -3509.963 -0.049 0.360 0.158 0 0.6 -0.8 0.02
1 2.47 247 -0.436 -9.745 2.409 1.831 20.142 3.784 14.990 -584.919 -3539.944 0.177 0.313 0.241 0 0.6 -0.8 0.02
1 2.48 248 -0.905 -9.807 2.102 -0.214 21.759 5.035 104.932 -569.929 -3449.853 0.634 0.376 0.549 0 0.6 -0.8 0.02
1 2.49 249 -1.135 -9.668 2.121 -1.221 17.853 6.805 104.932 -569.929 -3449.853 0.847 0.237 0.527 0.01 0.6 -0.8 0.02
1 2.50 250 -1.264 -9.682 1.949 -3.784 11.932 7.843 -119.922 -584.919 -3539.944 0.955 0.251 0.694 0.01 0.6 -0.8 0.02
1 2.51 251 -1.355 -9.740 1.911 -4.791 4.272 9.735 -119.922 -584.919 -3539.944 1.002 0.304 0.711 0.01 0.61 -0.8 0.02
1 2.52 252 -1.346 -9.754 1.801 -3.357 0.641 11.383 59.961 -869.883 -3479.983 0.971 0.316 0.810 0.01 0.61 -0.8 0.02
1 2.53 253 -1.360 -9.668 1.930 -1.556 -4.211 12.329 59.961 -674.860 -3299.950 0.963 0.228 0.671 0.01 0.61 -0.8 0.02
1 2.54 254 -1.317 -9.625 1.963 -0.305 -8.392 14.069 29.980 -599.909 -3404.882 0.897 0.184 0.631 0.01 0.61 -0.8 0.02
1 2.55 255 -1.154 -9.381 1.915 -1.495 -13.733 16.968 134.912 -644.880 -3554.934 0.712 -0.060 0.674 0.01 0.61 -0.79 0.02
1 2.56 256 -0.977 -9.462 1.992 -4.303 -16.144 16.785 134.912 -644.880 -3554.934 0.511 0.021 0.593 0.01 0.61 -0.79 0.02
1 2.57 257 -0.857 -9.429 2.198 -5.829 -17.212 16.144 134.912 -749.961 -3374.901 0.368 -0.014 0.379 0.01 0.61 -0.79 0.02
1 2.58 258 -0.589 -9.606 2.332 -6.134 -16.388 15.411 134.912 -749.961 -3374.901 0.063 0.160 0.226 0.01 0.61 -0.79 0.03
1 2.59 259 -0.402 -9.606 2.437 -4.547 -14.893 13.489 104.932 -569.929 -3404.882 -0.139 0.159 0.112 0.01 0.61 -0.79 0.03
1 2.60 260 -0.412 -9.424 2.457 -3.815 -11.505 12.512 44.971 -629.890 -3419.872 -0.141 -0.024 0.088 0.01 0.61 -0.79 0.03
1 2.61 261 -0.321 -9.410 2.457 -1.129 -8.057 11.017 44.971 -629.890 -3419.872 -0.243 -0.038 0.085 0.01 0.61 -0.79 0.03
1 2.62 262 -0.259 -9.328 2.437 -0.793 -1.678 7.843 -59.961 -719.981 -3554.934 -0.315 -0.119 0.104 0.01 0.61 -0.79 0.03
1 2.63 263 -0.393 -9.275 2.289 -0.427 0.244 6.226 -59.961 -719.981 -3554.934 -0.188 -0.172 0.252 0.01 0.61 -0.79 0.03
1 2.64 264 -0.589 -9.295 2.241 0.336 1.038 5.371 179.883 -599.909 -3479.983 0.002 -0.152 0.299 0.01 0.61 -0.79 0.03
1 2.65 265 -0.517 -9.151 2.284 0.214 -0.549 3.540 179.883 -599.909 -3479.983 -0.082 -0.295 0.255 0.02 0.61 -0.79 0.03
1 2.66 266 -0.503 -9.117 2.241 -0.427 -0.183 1.801 44.971 -584.919 -3569.924 -0.100 -0.329 0.298 0.02 0.61 -0.79 0.03
1 2.67 267 -0.469 -9.156 2.188 -2.289 0.763 0.061 44.971 -734.971 -3419.872 -0.133 -0.291 0.349 0.02 0.61 -0.79 0.03
1 2.68 268 -0.599 -9.156 2.380 -3.571 0.610 -0.519 44.971 -734.971 -3419.872 -0.002 -0.292 0.153 0.02 0.61 -0.79 0.03
1 2.69 269 -0.766 -9.223 2.097 -4.425 1.770 -1.404 59.961 -644.880 -3449.853 0.167 -0.227 0.430 0.02 0.61 -0.79 0.03
1 2.70 270 -0.982 -9.395 2.198 -5.585 -0.366 -1.648 29.980 -449.857 -3509.963 0.384 -0.056 0.322 0.02 0.61 -0.79 0.03
1 2.71 271 -0.867 -9.405 2.059 -5.615 -2.930 -0.458 134.912 -794.932 -3479.983 0.270 -0.049 0.452 0.02 0.61 -0.79 0.03
1 2.72 272 -0.713 -9.424 2.126 -6.287 -8.057 0.702 134.912 -794.932 -3479.983 0.118 -0.036 0.365 0.02 0.61 -0.79 0.03
1 2.73 273 -0.685 -9.548 2.255 -6.470 -9.125 1.282 14.990 -584.919 -3494.973 0.091 0.086 0.225 0.02 0.61 -0.79 0.03
1 2.74 274 -0.551 -9.649 2.193 -7.141 -7.568 1.068 89.941 -584.919 -3464.993 -0.041 0.184 0.276 0.02 0.61 -0.79 0.03
1 2.75 275 -0.397 -9.659 2.289 -6.287 -5.280 0.732 89.941 -584.919 -3464.993 -0.191 0.190 0.169 0.02 0.61 -0.79 0.03
1 2.76 276 -0.378 -9.682 2.174 -5.249 -0.580 -0.366 104.932 -524.958 -3404.882 -0.206 0.212 0.275 0.02 0.61 -0.79 0.03
1 2.77 277 -0.613 -9.745 2.064 -5.005 1.801 -0.366 104.932 -524.958 -3404.882 0.032 0.271 0.377 0.02 0.61 -0.79 0.03
1 2.78 278 -0.833 -9.682 2.117 -4.456 2.594 -0.916 119.922 -629.890 -3464.993 0.254 0.207 0.316 0.02 0.61 -0.79 0.03
1 2.79 279 -0.800 -9.702 1.992 -4.852 2.136 -2.106 119.922 -629.890 -3464.993 0.221 0.224 0.432 0.02 0.61 -0.79 0.03
1 2.80 280 -0.939 -9.639 2.006 -2.930 -1.801 -1.648 29.980 -599.909 -3374.901 0.362 0.157 0.400 0.02 0.61 -0.79 0.03
1 2.81 281 -0.848 -9.697 1.882 -2.869 -3.693 -2.289 119.922 -539.948 -3419.872 0.273 0.213 0.518 0.02 0.61 -0.79 0.03
1 2.82 282 -0.742 -9.659 1.834 -1.465 -5.280 -2.411 119.922 -539.948 -3419.872 0.172 0.173 0.560 0.02 0.61 -0.79 0.03
1 2.83 283 -0.469 -9.611 1.968 -0.916 -3.662 -2.991 -14.990 -629.890 -3359.911 -0.095 0.123 0.421 0.02 0.61 -0.79 0.03
1 2.84 284 -0.388 -9.501 1.959 -1.678 0.641 -2.716 89.941 -659.870 -3464.993 -0.170 0.012 0.427 0.02 0.61 -0.79 0.03
1 2.85 285 -0.613 -9.601 1.973 -3.540 0.946 -2.136 119.922 -509.968 -3464.993 0.061 0.111 0.408 0.02 0.62 -0.79 0.03
1 2.86 286 -0.766 -9.515 2.035 -5.219 0.763 -2.441 119.922 -509.968 -3464.993 0.218 0.023 0.340 0.02 0.62 -0.79 0.02
1 2.87 287 -0.584 -9.797 2.002 -4.425 -1.251 -3.693 119.922 -389.896 -3419.872 0.044 0.300 0.355 0.02 0.62 -0.79 0.02
1 2.88 288 -0.685 -9.888 1.973 -3.235 -0.214 -4.669 104.932 -599.909 -3299.950 0.151 0.389 0.375 0.02 0.62 -0.79 0.02
1 2.89 289 -0.694 -9.649 1.949 -1.740 1.404 -4.852 104.932 -599.909 -3299.950 0.167 0.147 0.392 0.02 0.62 -0.79 0.02
1 2.90 290 -0.728 -9.606 1.954 -0.732 2.441 -5.005 0.000 -524.958 -3374.901 0.208 0.103 0.383 0.02 0.62 -0.79 0.02
1 2.91 291 -0.575 -9.726 1.877 -3.296 3.082 -5.585 179.883 -644.880 -3329.931 0.062 0.221 0.455 0.02 0.62 -0.79 0.02
1 2.92 292 -0.680 -9.635 1.848 -4.822 2.594 -6.500 119.922 -539.948 -3419.872 0.174 0.128 0.478 0.02 0.62 -0.79 0.02
1 2.93 293 -0.690 -9.668 1.915 -6.287 1.740 -7.111 119.922 -539.948 -3419.872 0.192 0.159 0.401 0.02 0.62 -0.79 0.02
1 2.94 294 -0.771 -9.817 1.863 -6.104 2.289 -7.874 89.941 -629.890 -3419.872 0.282 0.304 0.442 0.02 0.62 -0.79 0.02
1 2.95 295 -0.833 -9.965 1.810 -3.784 2.686 -7.019 29.980 -569.929 -3479.983 0.364 0.446 0.473 0.02 0.62 -0.78 0.02
1 2.96 296 -0.685 -10.066 1.829 -0.458 1.099 -6.470 29.980 -569.929 -3479.983 0.224 0.544 0.446 0.02 0.62 -0.78 0.02
1 2.97 297 -0.733 -9.922 1.762 2.411 -0.519 -5.493 -44.971 -539.948 -3284.960 0.280 0.400 0.509 0.02 0.62 -0.78 0.02
1 2.98 298 -0.570 -9.869 1.891 5.005 -3.479 -5.249 134.912 -524.958 -3404.882 0.125 0.347 0.381 0.02 0.62 -0.78 0.02
1 2.99 299 -0.402 -9.659 1.863 8.331 -5.219 -7.233 119.922 -464.997 -3389.892 -0.033 0.137 0.416 0.02 0.62 -0.78 0.02
1 3.00 300 -0.340 -9.711 1.829 7.721 -4.517 -7.202 119.922 -464.997 -3389.892 -0.084 0.191 0.458 0.02 0.62 -0.79 0.02
1 3.01 301 -0.211 -9.611 1.863 8.820 -1.678 -7.324 119.922 -539.948 -3389.892 -0.200 0.092 0.433 0.01 0.62 -0.79 0.02
1 3.02 302 -0.239 -9.639 1.848 7.538 5.951 -6.989 14.990 -539.948 -3359.911 -0.145 0.125 0.467 0.01 0.62 -0.79 0.01
1 3.03 303 -0.311 -9.587 1.810 5.371 12.054 -7.294 14.990 -539.948 -3359.911 -0.063 0.073 0.512 0.01 0.62 -0.79 0.01
1 3.04 304 -0.527 -9.735 1.743 4.517 16.663 -8.667 119.922 -464.997 -3359.911 0.160 0.222 0.583 0.01 0.62 -0.79 0.01
1 3.05 305 -0.694 -9.869 1.848 1.343 20.020 -9.674 -59.961 -449.857 -3299.950 0.334 0.356 0.479 0.02 0.62 -0.79 0.01
1 3.06 306 -0.986 -10.209 1.781 -2.686 19.257 -11.658 -14.990 -434.867 -3359.911 0.633 0.695 0.542 0.02 0.62 -0.79 0.01
1 3.07 307 -1.255 -10.444 1.757 -3.143 16.052 -11.536 -14.990 -434.867 -3359.911 0.909 0.928 0.559 0.02 0.62 -0.79 0.01
1 3.08 308 -1.092 -10.540 1.642 -1.526 11.200 -10.437 164.893 -629.890 -3494.973 0.753 1.021 0.663 0.02 0.62 -0.79 0.01
1 3.09 309 -0.867 -10.635 1.710 3.906 6.195 -10.376 119.922 -584.919 -3359.911 0.546 1.114 0.587 0.02 0.62 -0.79 0
1 3.10 310 -0.953 -10.573 1.700 6.622 4.547 -9.674 119.922 -584.919 -3359.911 0.643 1.052 0.601 0.02 0.62 -0.79 0
1 3.11 311 -0.872 -10.631 1.537 7.965 2.533 -9.369 -44.971 -629.890 -3494.973 0.571 1.111 0.769 0.02 0.62 -0.79 0
1 3.12 312 -0.958 -10.597 1.575 8.331 -0.092 -8.270 104.932 -599.909 -3329.931 0.667 1.078 0.736 0.02 0.62 -0.79 0
1 3.13 313 -0.809 -10.712 2.050 5.493 -4.120 -4.334 29.980 -599.909 -3449.853 0.529 1.195 0.273 0.02 0.62 -0.79 0
1 3.14 314 -0.196 -11.153 2.227 -11.566 0.702 0.183 29.980 -599.909 -3449.853 -0.074 1.638 0.107 0.02 0.62 -0.79 0
1 3.15 315 -0.364 -11.358 1.753 -23.407 4.974 7.019 44.971 -539.948 -3419.872 0.097 1.842 0.572 0.02 0.62 -0.79 0
1 3.16 316 -0.527 -11.517 1.226 -4.883 -5.371 15.289 -134.912 -569.929 -3374.901 0.234 1.987 1.043 0.02 0.62 -0.78 0
1 3.17 317 -0.421 -11.483 1.374 4.761 -8.698 15.656 -134.912 -569.929 -3374.901 0.110 1.955 0.896 0.02 0.62 -0.78 0
1 3.18 318 0.024 -11.076 2.428 22.034 -5.676 10.925 -44.971 -434.867 -3419.872 -0.350 1.554 -0.133 0.02 0.62 -0.79 0
1 3.19 319 0.115 -10.813 2.490 21.820 5.249 9.918 0.000 -419.876 -3449.853 -0.454 1.300 -0.161 0.02 0.62 -0.79 0
1 3.20 320 -0.072 -10.386 2.184 16.724 20.020 5.981 104.932 -494.978 -3329.931 -0.283 0.881 0.176 0.02 0.62 -0.79 0
1 3.21 321 -0.828 -9.874 1.561 16.754 22.583 1.556 104.932 -494.978 -3329.931 0.459 0.376 0.823 0.02 0.61 -0.79 0
1 3.22 322 -1.207 -9.654 1.403 15.381 18.555 -1.984 134.912 -719.981 -3329.931 0.826 0.161 1.000 0.02 0.61 -0.79 0
1 3.23 323 -1.101 -9.524 1.437 14.862 9.766 -4.547 -44.971 -539.948 -3419.872 0.712 0.035 0.982 0.02 0.61 -0.79 0
1 3.24 324 -0.891 -9.730 2.054 10.132 -2.075 -2.991 -44.971 -539.948 -3419.872 0.498 0.248 0.390 0.02 0.61 -0.79 0
1 3.25 325 -0.603 -9.754 2.538 8.179 -5.035 -1.770 89.941 -509.968 -3389.892 0.212 0.275 -0.083 0.02 0.61 -0.79 0
1 3.26 326 -0.488 -9.692 2.753 6.653 -2.930 -4.730 -29.980 -749.961 -3554.934 0.101 0.215 -0.287 0.02 0.61 -0.79 0
1 3.27 327 -0.560 -9.841 2.864 8.270 1.038 -8.698 -29.980 -749.961 -3554.934 0.182 0.367 -0.385 0.02 0.61 -0.79 0
1 3.28 328 -0.551 -9.932 2.878 12.665 1.709 -12.726 44.971 -704.991 -3494.973 0.185 0.461 -0.384 0.02 0.61 -0.79 0
1 3.29 329 -0.718 -9.558 2.825 16.174 -0.336 -13.489 29.980 -494.978 -3299.950 0.369 0.092 -0.313 -0.02 -0.61 0.79 0
1 3.30 330 -0.627 -9.194 2.854 18.921 -3.021 -15.106 29.980 -674.860 -3374.901 0.297 -0.266 -0.317 -0.02 -0.61 0.79 0
1 3.31 331 -0.661 -8.849 3.012 17.181 -3.357 -13.977 29.980 -674.860 -3374.901 0.372 -0.596 -0.414 -0.02 -0.61 0.8 0
1 3.32 332 -0.776 -8.567 3.199 13.275 -1.709 -14.313 -44.971 -629.890 -3389.892 0.507 -0.871 -0.573 -0.02 -0.6 0.8 0
1 3.33 333 -0.757 -8.519 3.261 8.392 -3.418 -16.144 -14.990 -734.971 -3284.960 0.508 -0.913 -0.611 -0.02 -0.6 0.8 0
1 3.34 334 -0.752 -8.572 3.462 4.547 -5.768 -18.250 -14.990 -734.971 -3284.960 0.526 -0.856 -0.795 -0.02 -0.6 0.8 0
1 3.35 335 -0.503 -8.801 3.505 5.402 -4.639 -18.250 0.000 -869.883 -3404.882 0.303 -0.623 -0.824 -0.02 -0.6 0.8 0.01
1 3.36 336 -0.479 -8.825 3.371 8.423 -1.709 -17.090 0.000 -794.932 -3509.963 0.306 -0.595 -0.675 -0.02 -0.6 0.8 0.01
1 3.37 337 -0.484 -8.643 3.477 12.299 0.427 -13.489 -29.980 -644.880 -3509.963 0.336 -0.772 -0.762 -0.01 -0.6 0.8 0.01
1 3.38 338 -0.709 -8.418 3.563 14.893 1.953 -11.505 -29.980 -644.880 -3509.963 0.581 -0.991 -0.825 -0.01 -0.6 0.8 0.01
1 3.39 339 -0.790 -8.418 3.606 13.153 -0.397 -7.874 -119.922 -734.971 -3359.911 0.687 -0.974 -0.811 -0.01 -0.6 0.8 0.01
1 3.40 340 -0.800 -8.423 3.764 8.698 -4.059 -3.326 -164.893 -779.942 -3359.911 0.703 -0.962 -0.943 -0.01 -0.6 0.8 0.01
1 3.41 341 -0.809 -8.380 4.027 5.432 -8.118 1.404 -164.893 -779.942 -3359.911 0.713 -0.999 -1.186 -0.01 -0.6 0.8 0.01
1 3.42 342 -0.929 -8.509 3.951 2.380 -13.214 5.859 -179.883 -794.932 -3449.853 0.829 -0.864 -1.091 -0.01 -0.59 0.8 0.01
1 3.43 343 -0.603 -8.643 4.018 0.275 -19.348 11.353 -89.941 -704.991 -3494.973 0.495 -0.726 -1.145 -0.01 -0.59 0.8 0.01
1 3.44 344 -0.211 -8.763 4.176 -2.228 -22.949 12.360 -59.961 -794.932 -3374.901 0.092 -0.602 -1.292 -0.01 -0.59 0.8 0
1 3.45 345 0.086 -8.926 4.195 -4.608 -22.492 13.977 -59.961 -794.932 -3374.901 -0.215 -0.437 -1.302 -0.01 -0.59 0.8 0
1 3.46 346 0.062 -9.256 4.180 -4.883 -21.698 15.350 -164.893 -809.922 -3389.892 -0.208 -0.103 -1.280 0.01 0.59 -0.8 0
1 3.47 347 0.283 -9.319 4.276 -2.411 -22.339 15.503 -194.873 -854.893 -3419.872 -0.438 -0.040 -1.371 0.01 0.59 -0.81 0
1 3.48 348 0.350 -9.338 4.228 -1.007 -22.308 15.503 -194.873 -854.893 -3419.872 -0.514 -0.018 -1.315 0.01 0.59 -0.81 0.01
1 3.49 349 0.474 -9.400 3.874 -1.160 -22.614 14.740 -179.883 -839.903 -3479.983 -0.646 0.047 -0.952 0 0.59 -0.81 0.01
1 3.50 350 0.752 -9.582 3.826 -3.204 -22.919 11.566 -29.980 -749.961 -3449.853 -0.928 0.231 -0.898 0 0.59 -0.81 0.01
1 3.51 351 1.077 -9.582 3.816 -1.282 -22.278 9.247 -134.912 -644.880 -3509.963 -1.253 0.232 -0.886 0 0.59 -0.81 0.01
1 3.52 352 1.312 -9.453 3.620 2.472 -19.684 5.951 -134.912 -644.880 -3509.963 -1.483 0.104 -0.685 0 0.59 -0.81 0.01
1 3.53 353 1.604 -9.117 3.836 7.355 -12.451 -0.916 -89.941 -809.922 -3419.872 -1.748 -0.224 -0.878 -0 0.59 -0.81 0.01
1 3.54 354 1.666 -8.950 3.769 8.545 -7.996 -6.775 -44.971 -629.890 -3494.973 -1.788 -0.387 -0.793 -0 0.59 -0.81 0.01
1 3.55 355 1.623 -8.816 3.826 9.125 -2.625 -12.116 -44.971 -629.890 -3494.973 -1.715 -0.515 -0.831 -0 0.59 -0.81 0.01
1 3.56 356 1.336 -8.782 3.639 8.270 2.411 -16.235 -164.893 -779.942 -3539.944 -1.394 -0.542 -0.624 -0.01 0.59 -0.81 0.01
1 3.57 357 1.125 -8.998 3.510 9.644 8.026 -19.165 -194.873 -704.991 -3599.905 -1.149 -0.321 -0.476 -0.01 0.59 -0.81 0.01
1 3.58 358 0.881 -9.084 3.371 9.766 11.322 -20.508 -89.941 -809.922 -3389.892 -0.871 -0.229 -0.319 -0.01 0.59 -0.81 0.01
1 3.59 359 0.613 -9.204 3.443 8.850 14.191 -22.003 -89.941 -809.922 -3389.892 -0.570 -0.103 -0.373 -0.01 0.59 -0.81 0.01
1 3.60 360 0.412 -9.180 3.567 4.883 15.533 -22.644 -164.893 -809.922 -3464.993 -0.308 -0.116 -0.467 -0.01 0.58 -0.81 0
1 3.61 361 0.278 -9.170 3.505 2.930 15.778 -21.851 -269.974 -809.922 -3419.872 -0.146 -0.122 -0.395 -0.01 0.58 -0.81 0
1 3.62 362 0.086 -9.395 3.266 -0.153 10.193 -19.836 -269.974 -809.922 -3419.872 0.072 0.105 -0.151 0.01 -0.58 0.81 0
1 3.63 363 -0.057 -9.467 3.084 1.282 3.998 -17.090 -104.932 -914.854 -3374.901 0.239 0.178 0.034 0.01 -0.58 0.81 0
1 3.64 364 -0.062 -9.400 2.911 7.721 -3.815 -14.710 -134.912 -749.961 -3449.853 0.265 0.113 0.210 0.01 -0.58 0.81 0
1 3.65 365 0.254 -9.065 2.835 12.695 -6.836 -12.421 -269.974 -854.893 -3539.944 -0.028 -0.219 0.295 0.01 -0.58 0.81 0
1 3.66 366 0.096 -9.070 2.739 13.092 -8.637 -9.491 -269.974 -854.893 -3539.944 0.151 -0.209 0.406 0.01 -0.58 0.81 0
1 3.67 367 0.163 -8.931 2.801 11.322 -9.064 -6.226 -299.955 -809.922 -3494.973 0.104 -0.341 0.361 0.01 -0.58 0.81 0.01
1 3.68 368 0.254 -9.007 2.859 8.423 -12.604 0.183 -269.974 -854.893 -3464.993 0.036 -0.254 0.331 0.02 -0.58 0.81 0
1 3.69 369 0.287 -9.189 2.797 10.529 -15.045 4.761 -269.974 -854.893 -3464.993 0.007 -0.069 0.404 0.02 -0.58 0.81 0
1 3.70 370 0.632 -9.170 3.017 14.954 -15.869 8.423 -209.863 -794.932 -3449.853 -0.337 -0.083 0.198 0.02 -0.58 0.81 0
1 3.71 371 0.623 -8.955 3.103 18.158 -16.296 11.566 -209.863 -794.932 -3449.853 -0.330 -0.291 0.133 0.02 -0.58 0.82 0
1 3.72 372 0.924 -8.701 3.180 16.388 -13.367 13.184 -194.873 -629.890 -3494.973 -0.637 -0.536 0.082 -0.02 0.58 -0.82 0
1 3.73 373 1.020 -8.543 3.151 15.015 -10.529 12.543 -194.873 -629.890 -3494.973 -0.740 -0.686 0.135 -0.02 0.58 -0.82 0
1 3.74 374 0.895 -8.648 3.093 12.543 -7.202 11.292 -299.955 -884.874 -3464.993 -0.621 -0.572 0.215 -0.02 0.58 -0.82 0
1 3.75 375 0.895 -8.691 2.782 9.491 -4.883 10.376 -299.955 -929.994 -3569.924 -0.633 -0.517 0.562 -0.02 0.57 -0.82 0.01
1 3.76 376 0.891 -8.825 2.696 7.446 -3.937 9.613 -299.955 -929.994 -3569.924 -0.634 -0.379 0.659 -0.02 0.57 -0.82 0.01
1 3.77 377 1.082 -8.701 2.806 7.172 -2.411 8.698 -374.906 -959.975 -3569.924 -0.831 -0.501 0.557 -0.02 0.57 -0.82 0.01
1 3.78 378 1.101 -8.811 2.916 6.378 -0.885 8.453 -374.906 -959.975 -3569.924 -0.854 -0.387 0.455 -0.02 0.57 -0.82 0.01
1 3.79 379 1.010 -8.993 3.041 1.465 2.411 6.531 -299.955 -929.994 -3539.944 -0.767 -0.203 0.337 -0.02 0.57 -0.82 0.01
1 3.80 380 0.996 -9.261 3.002 -0.214 2.869 6.012 -299.955 -929.994 -3539.944 -0.756 0.065 0.377 -0.02 0.57 -0.82 0.01
1 3.81 381 0.948 -9.443 3.046 -0.702 2.380 6.165 -359.916 -989.955 -3734.967 -0.713 0.247 0.334 -0.02 0.57 -0.82 0.01
1 3.82 382 1.001 -9.405 3.022 -0.488 2.594 6.653 -164.893 -1004.945 -3419.872 -0.769 0.208 0.355 -0.02 0.57 -0.82 0.01
1 3.83 383 1.274 -9.362 3.031 0.153 7.599 6.165 -164.893 -1004.945 -3419.872 -1.051 0.163 0.341 -0.02 0.57 -0.82 0.01
1 3.84 384 1.154 -9.290 2.931 -3.662 12.421 2.655 -254.984 -989.955 -3659.866 -0.935 0.090 0.439 -0.02 0.57 -0.82 0.01
1 3.85 385 0.953 -9.510 2.892 -6.714 16.480 0.641 -254.984 -989.955 -3659.866 -0.735 0.307 0.470 -0.02 0.57 -0.82 0.01
1 3.86 386 0.742 -9.644 2.749 -8.545 19.623 -1.343 -284.964 -794.932 -3479.983 -0.527 0.437 0.601 -0.02 0.57 -0.82 0.01
1 3.87 387 0.555 -9.711 2.686 -7.721 16.815 -0.885 -284.964 -794.932 -3479.983 -0.342 0.498 0.647 -0.02 0.57 -0.82 0.01
1 3.88 388 0.551 -9.793 2.710 -5.829 13.641 -0.397 -89.941 -929.994 -3419.872 -0.341 0.574 0.608 -0.02 0.57 -0.82 0
1 3.89 389 0.541 -9.821 2.686 -4.547 9.705 -0.519 -419.876 -1004.945 -3464.993 -0.335 0.598 0.619 -0.02 0.58 -0.82 0
1 3.90 390 0.915 -9.678 2.701 -3.174 6.409 -0.214 -419.876 -1004.945 -3464.993 -0.710 0.447 0.584 -0.02 0.58 -0.82 0
1 3.91 391 1.063 -9.496 2.706 -2.899 6.531 0.336 -299.955 -884.874 -3494.973 -0.856 0.262 0.571 -0.02 0.58 -0.82 0
1 3.92 392 1.053 -9.414 2.710 -2.838 7.690 0.946 -299.955 -884.874 -3494.973 -0.844 0.178 0.559 -0.02 0.58 -0.82 0
1 3.93 393 1.231 -9.395 2.658 -3.998 9.949 1.099 -299.955 -884.874 -3494.973 -1.019 0.156 0.603 -0.02 0.58 -0.82 0
1 3.94 394 1.183 -9.366 2.658 -4.578 13.916 1.129 -194.873 -929.994 -3494.973 -0.969 0.124 0.594 -0.01 0.58 -0.82 0
1 3.95 395 1.049 -9.170 2.528 -5.005 15.839 1.770 -134.912 -869.883 -3449.853 -0.835 -0.075 0.715 -0.01 0.58 -0.82 0
1 3.96 396 0.967 -9.333 2.413 -5.157 16.144 2.411 -209.863 -944.984 -3329.931 -0.755 0.084 0.820 -0.01 0.58 -0.82 0
1 3.97 397 1.111 -9.247 2.169 -4.120 17.090 3.387 -209.863 -944.984 -3329.931 -0.908 -0.010 1.042 0.01 -0.58 0.81 0
1 3.98 398 1.111 -9.060 2.275 -4.059 16.327 3.387 -134.912 -719.981 -3449.853 -0.914 -0.200 0.927 0.01 -0.58 0.81 0
1 3.99 399 0.948 -9.113 2.552 -8.759 16.083 2.014 -134.912 -719.981 -3449.853 -0.755 -0.152 0.637 0.01 -0.58 0.81 0
1 4.00 400 0.843 -9.223 3.376 -16.235 18.646 -5.096 -134.912 -839.903 -3449.853 -0.651 -0.048 -0.205 0.01 -0.58 0.81 0
1 4.01 401 0.101 -9.678 4.334 -38.971 33.814 -28.626 -194.873 -959.975 -3389.892 0.099 0.398 -1.188 0.01 -0.58 0.81 0
1 4.02 402 -1.465 -11.133 4.329 -47.852 35.767 -33.173 -284.964 -1019.936 -3374.901 1.686 1.840 -1.225 0.01 -0.58 0.81 0.01
1 4.03 403 -1.858 -12.153 3.213 -45.715 19.714 -17.151 -119.922 -809.922 -3359.911 2.111 2.840 -0.174 0.01 -0.59 0.81 0.01
1 4.04 404 -1.480 -12.455 2.773 -21.973 -13.977 12.573 -119.922 -809.922 -3359.911 1.754 3.105 0.150 0.01 -0.59 0.81 0.01
1 4.05 405 -1.226 -12.144 3.108 -11.200 -26.093 14.252 -209.863 -869.883 -3374.901 1.491 2.786 -0.209 0.01 -0.59 0.8 0.01
1 4.06 406 -0.072 -11.258 3.773 8.728 -38.971 0.153 -209.863 -869.883 -3374.901 0.342 1.901 -0.872 0.01 -0.59 0.8 0.01
1 4.07 407 0.393 -11.172 3.639 3.479 -26.825 2.869 -224.854 -959.975 -3359.911 -0.105 1.819 -0.728 0.01 -0.59 0.81 0.01
1 4.08 408 0.019 -11.402 3.304 -13.031 -13.245 25.818 -194.873 -659.870 -3464.993 0.271 2.049 -0.392 0.01 -0.59 0.81 0.01
1 4.09 409 0.254 -11.574 2.682 -17.151 -20.386 36.713 -329.935 -989.955 -3449.853 0.012 2.216 0.216 0.01 -0.59 0.8 0
1 4.10 410 0.924 -11.105 2.916 -10.407 -26.642 36.041 -164.893 -809.922 -3284.960 -0.699 1.738 -0.043 0.01 -0.59 0.8 0
1 4.11 411 1.164 -10.894 3.256 0.671 -27.313 26.733 -164.893 -809.922 -3284.960 -0.979 1.521 -0.401 -0.01 0.6 -0.8 0
1 4.12 412 1.106 -10.157 4.008 10.651 -23.254 22.736 -194.873 -884.874 -3419.872 -0.972 0.785 -1.146 -0.02 0.59 -0.8 0.01
1 4.13 413 1.317 -9.400 3.951 11.658 -17.517 24.475 -194.873 -884.874 -3419.872 -1.204 0.033 -1.071 -0.02 0.59 -0.8 0.01
1 4.14 414 1.259 -8.648 3.860 7.904 -9.766 23.529 -104.932 -749.961 -3329.931 -1.166 -0.712 -0.958 -0.02 0.59 -0.8 0.01
1 4.15 415 1.130 -8.188 3.898 5.707 -7.538 20.111 -164.893 -809.922 -3314.940 -1.055 -1.166 -0.977 -0.02 0.59 -0.81 0.01
1 4.16 416 0.833 -7.734 3.907 10.986 -2.808 12.085 -359.916 -839.903 -3374.901 -0.773 -1.615 -0.968 -0.02 0.59 -0.81 0.02
1 4.17 417 0.570 -7.513 4.008 17.609 6.744 7.202 -14.990 -779.942 -3314.940 -0.519 -1.828 -1.045 -0.02 0.59 -0.81 0.02
1 4.18 418 -0.129 -7.226 4.037 21.576 17.578 4.456 -14.990 -779.942 -3314.940 0.168 -2.108 -1.050 -0.01 0.59 -0.81 0.02
1 4.19 419 -1.528 -7.159 3.860 17.151 22.797 4.547 -254.984 -914.854 -3224.999 1.538 -2.155 -0.810 -0.01 0.59 -0.81 0.02
1 4.20 420 -2.131 -7.097 3.572 5.646 12.695 6.744 -254.984 -914.854 -3224.999 2.126 -2.210 -0.501 -0.01 0.59 -0.81 0.02
1 4.21 421 -2.064 -7.312 3.572 -6.653 -6.073 9.430 -329.935 -1019.936 -3404.882 2.045 -1.993 -0.497 -0.01 0.59 -0.81 0.02
1 4.22 422 -1.355 -7.652 3.826 -13.062 -22.888 11.841 -179.883 -749.961 -3404.882 1.329 -1.656 -0.762 -0.01 0.59 -0.81 0.02
1 4.23 423 -0.599 -8.136 4.061 -14.984 -29.358 14.069 -224.854 -854.893 -3464.993 0.568 -1.179 -1.015 -0.01 0.59 -0.81 0.02
1 4.24 424 0.067 -8.730 4.415 -14.404 -22.400 15.503 -224.854 -884.874 -3419.872 -0.108 -0.588 -1.380 -0.01 0.59 -0.81 0.02
1 4.25 425 0.182 -8.854 4.492 -14.710 -9.766 17.365 -224.854 -884.874 -3419.872 -0.233 -0.467 -1.466 -0.01 0.59 -0.81 0.02
1 4.26 426 0.057 -8.897 4.492 -11.780 0.824 19.013 -209.863 -869.883 -3329.931 -0.124 -0.426 -1.474 -0.01 0.59 -0.81 0.02
1 4.27 427 -0.335 -8.730 4.152 -4.822 10.162 20.081 -209.863 -869.883 -3329.931 0.216 -0.596 -1.141 -0.01 0.59 -0.81 0.03
1 4.28 428 -0.737 -8.552 3.821 -4.364 12.482 17.548 -119.922 -884.874 -3209.859 0.585 -0.771 -0.807 -0.01 0.59 -0.81 0.03
1 4.29 429 -0.982 -8.385 3.429 -8.606 12.177 14.496 -89.941 -854.893 -3494.973 0.798 -0.938 -0.414 -0.01 0.59 -0.81 0.03
1 4.30 430 -1.212 -8.217 3.366 -14.160 8.331 11.566 -89.941 -929.994 -3314.940 0.998 -1.108 -0.360 -0.01 0.59 -0.81 0.03
1 4.31 431 -1.346 -8.380 3.318 -21.851 4.028 8.148 -209.863 -794.932 -3194.869 1.106 -0.950 -0.328 -0.01 0.59 -0.81 0.03
1 4.32 432 -1.279 -8.586 3.328 -27.618 3.052 6.592 -209.863 -794.932 -3194.869 1.019 -0.751 -0.362 -0 0.59 -0.81 0.03
1 4.33 433 -1.164 -9.103 3.113 -30.518 1.129 7.446 -134.912 -839.903 -3374.901 0.886 -0.244 -0.179 -0 0.59 -0.81 0.03
1 4.34 434 -1.025 -9.496 2.955 -29.938 -0.519 9.827 -134.912 -839.903 -3374.901 0.711 0.125 -0.102 -0 0.6 -0.8 0.03
1 4.35 435 -0.939 -9.673 2.969 -25.208 -1.587 10.407 -164.893 -734.971 -3419.872 0.607 0.291 -0.156 -0 0.6 -0.8 0.03
1 4.36 436 -0.747 -9.649 2.811 -20.142 -2.441 10.284 -164.893 -884.874 -3284.960 0.397 0.258 -0.031 -0 0.6 -0.8 0.03
1 4.37 437 -0.632 -9.769 3.122 -15.625 -0.824 9.033 -164.893 -884.874 -3284.960 0.266 0.371 -0.368 -0 0.6 -0.8 0.03
1 4.38 438 -0.833 -9.433 2.983 -9.827 1.617 7.080 -164.893 -659.870 -3314.940 0.454 0.030 -0.248 -0 0.6 -0.8 0.03
1 4.39 439 -0.991 -9.390 2.787 -9.644 -2.716 4.730 -164.893 -659.870 -3314.940 0.600 -0.016 -0.065 0 0.6 -0.8 0.03
1 4.40 440 -0.757 -9.323 2.423 -7.721 -8.270 3.540 -59.961 -869.883 -3194.869 0.356 -0.086 0.288 0 0.6 -0.8 0.03
1 4.41 441 -0.508 -9.098 2.500 -5.737 -12.634 2.106 -59.961 -869.883 -3194.869 0.101 -0.316 0.192 0 0.6 -0.8 0.03
1 4.42 442 -0.235 -8.840 2.433 -6.592 -12.116 0.214 -254.984 -749.961 -3254.979 -0.169 -0.577 0.252 -0 0.6 -0.8 0.03
1 4.43 443 -0.196 -8.749 2.404 -7.050 -8.972 -0.641 -134.912 -944.984 -3254.979 -0.201 -0.671 0.272 -0 0.6 -0.8 0.04
1 4.44 444 -0.177 -8.801 2.346 -8.972 -5.341 -1.923 -134.912 -944.984 -3254.979 -0.213 -0.621 0.319 -0 0.6 -0.8 0.04
1 4.45 445 -0.283 -8.926 2.351 -11.200 -0.061 -3.815 -29.980 -839.903 -3194.869 -0.100 -0.501 0.301 -0 0.6 -0.8 0.04
1 4.46 446 -0.364 -9.141 2.466 -11.383 4.639 -5.463 -29.980 -839.903 -3194.869 -0.010 -0.290 0.171 -0 0.6 -0.8 0.03
1 4.47 447 -0.479 -9.237 2.509 -10.986 9.247 -5.920 -119.922 -734.971 -3314.940 0.112 -0.199 0.112 -0 0.61 -0.8 0.03
1 4.48 448 -0.728 -9.304 2.389 -7.690 12.970 -7.202 -119.922 -734.971 -3314.940 0.373 -0.140 0.202 -0 0.61 -0.79 0.03
1 4.49 449 -0.618 -9.414 2.385 -9.125 15.106 -8.759 -194.873 -854.893 -3209.859 0.267 -0.034 0.194 -0 0.61 -0.79 0.03
1 4.50 450 -0.723 -9.400 2.380 -9.735 17.120 -8.728 -164.893 -884.874 -3164.888 0.378 -0.052 0.184 -0 0.61 -0.79 0.03
1 4.51 451 -0.848 -9.582 2.437 -8.850 18.189 -9.827 -164.893 -884.874 -3164.888 0.507 0.125 0.111 0 0.61 -0.79 0.03
1 4.52 452 -0.891 -9.467 2.380 -9.460 18.311 -10.590 -104.932 -794.932 -3194.869 0.555 0.006 0.155 0 0.61 -0.79 0.03
1 4.53 453 -1.039 -9.510 2.385 -9.430 16.083 -12.604 -104.932 -794.932 -3194.869 0.709 0.046 0.136 0 0.61 -0.79 0.03
1 4.54 454 -1.087 -9.534 2.409 -8.911 13.153 -12.146 -209.863 -869.883 -3074.947 0.764 0.065 0.097 0 0.61 -0.79 0.02
1 4.55 455 -1.144 -9.472 2.227 -8.087 6.348 -11.902 -209.863 -869.883 -3074.947 0.829 -0.001 0.264 0 0.61 -0.79 0.02
1 4.56 456 -0.953 -9.606 2.212 -5.951 -3.540 -11.414 -374.906 -734.971 -3134.908 0.659 0.126 0.254 0 0.61 -0.79 0.02
1 4.57 457 -0.752 -9.496 2.342 -3.845 -7.080 -11.963 -119.922 -734.971 -3104.927 0.472 0.013 0.116 0 0.61 -0.79 0.02
1 4.58 458 -0.512 -9.424 2.447 -3.967 -7.813 -12.360 -119.922 -734.971 -3104.927 0.251 -0.061 0.005 0 0.61 -0.79 0.02
1 4.59 459 -0.359 -9.505 2.265 -4.974 -5.951 -12.116 -179.883 -674.860 -3149.898 0.117 0.019 0.181 -0 0.61 -0.79 0.02
1 4.60 460 -0.273 -10.070 1.915 -12.573 2.502 -13.123 -194.873 -629.890 -3164.888 0.051 0.581 0.522 -0 0.61 -0.79 0.02
1 4.61 461 -0.393 -10.367 1.805 -12.177 10.071 -12.939 -344.925 -734.971 -3059.957 0.190 0.873 0.615 -0 0.61 -0.79 0.02
1 4.62 462 -0.608 -10.214 1.853 -5.798 16.876 -13.153 -344.925 -734.971 -3059.957 0.422 0.714 0.544 -0 0.61 -0.79 0.02
1 4.63 463 -0.972 -10.343 1.714 -2.136 15.381 -14.252 -194.873 -584.919 -3239.989 0.809 0.836 0.659 -0 0.62 -0.79 0.02
1 4.64 464 -0.991 -10.669 1.662 -7.050 12.543 -14.862 -224.854 -584.919 -3059.957 0.839 1.159 0.700 -0 0.62 -0.79 0.01
1 4.65 465 -1.015 -10.832 1.417 -9.369 9.552 -15.503 -224.854 -584.919 -3059.957 0.878 1.318 0.930 -0 0.62 -0.79 0.01
1 4.66 466 -0.872 -11.143 1.475 -7.874 7.385 -15.717 -254.984 -749.961 -3149.898 0.755 1.626 0.860 -0 0.62 -0.79 0.01
1 4.67 467 -1.010 -11.148 1.360 2.228 3.784 -17.822 -104.932 -599.909 -2939.885 0.916 1.628 0.966 -0 0.62 -0.79 0.01
1 4.68 468 -1.058 -10.932 1.298 6.714 0.458 -17.548 -194.873 -659.870 -3029.976 0.989 1.413 1.030 -0 0.62 -0.79 0.01
1 4.69 469 -1.063 -10.803 1.168 8.514 -5.005 -17.609 -194.873 -659.870 -3029.976 1.020 1.286 1.169 -0 0.62 -0.79 0.01
1 4.70 470 -1.283 -10.832 1.010 9.247 -12.421 -14.710 -179.883 -719.981 -3119.917 1.269 1.318 1.339 -0 0.62 -0.79 0.01
1 4.71 471 -1.044 -11.138 0.790 13.672 -31.525 -1.190 -194.873 -659.870 -2984.855 1.080 1.632 1.590 -0.01 0.62 -0.79 0.01
1 4.72 472 -0.383 -11.301 1.733 16.113 -44.983 9.460 -194.873 -659.870 -2984.855 0.432 1.800 0.669 -0.01 0.61 -0.79 0.01
1 4.73 473 0.239 -11.579 2.768 10.712 -48.828 18.372 -389.896 -674.860 -3224.999 -0.190 2.084 -0.343 -0.01 0.61 -0.79 0.01
1 4.74 474 1.097 -11.799 3.424 5.188 -47.180 26.276 -299.955 -704.991 -2909.904 -1.057 2.307 -0.986 -0.01 0.61 -0.79 0.02
1 4.75 475 1.915 -11.622 3.754 7.782 -19.287 23.224 -269.974 -659.870 -3209.859 -1.897 2.132 -1.309 -0.02 0.61 -0.79 0.02
1 4.76 476 1.551 -11.325 3.663 18.890 13.184 14.130 -269.974 -659.870 -3209.859 -1.559 1.838 -1.208 -0.02 0.61 -0.79 0.02
1 4.77 477 0.436 -11.526 3.055 22.461 39.002 9.399 -449.857 -734.971 -2984.855 -0.467 2.045 -0.575 -0.02 0.61 -0.79 0.02
1 4.78 478 -1.365 -11.177 2.236 25.055 42.786 17.487 -359.916 -869.883 -3044.966 1.272 1.714 0.310 -0.01 0.61 -0.79 0.02
1 4.79 479 -1.762 -10.540 1.877 33.142 29.053 17.914 -359.916 -869.883 -3044.966 1.628 1.088 0.708 -0.01 0.61 -0.79 0.02
1 4.80 480 -1.465 -9.821 1.705 42.023 15.839 9.583 -194.873 -779.942 -3134.908 1.299 0.384 0.932 -0 0.6 -0.8 0.02
1 4.81 481 -1.097 -9.309 2.011 46.082 9.155 1.526 -224.854 -734.971 -3209.859 0.906 -0.112 0.681 -0 0.6 -0.8 0.02
1 4.82 482 -1.077 -8.969 2.045 35.492 13.001 -4.700 -224.854 -929.994 -3164.888 0.876 -0.435 0.707 -0 0.6 -0.8 0.02
1 4.83 483 -1.518 -8.821 1.714 26.398 14.374 -5.798 -224.854 -929.994 -3164.888 1.312 -0.568 1.088 -0 0.6 -0.8 0.02
1 4.84 484 -1.963 -8.897 1.427 24.689 7.904 -4.700 -329.935 -794.932 -3299.950 1.753 -0.480 1.412 -0 0.6 -0.8 0.02
1 4.85 485 -1.757 -9.362 1.848 32.898 -13.519 1.068 -194.873 -884.874 -3059.957 1.533 0.003 1.052 0 0.59 -0.8 0.02
1 4.86 486 -1.111 -9.544 2.413 35.828 -27.130 1.740 -194.873 -884.874 -3059.957 0.881 0.199 0.530 -0 0.59 -0.81 0.02
1 4.87 487 -0.431 -9.807 3.069 30.884 -36.530 1.129 -179.883 -914.854 -3194.869 0.206 0.477 -0.080 -0 0.59 -0.81 0.02
1 4.88 488 0.115 -10.109 3.721 25.635 -39.887 -1.709 -299.955 -959.975 -3419.872 -0.325 0.792 -0.689 -0 0.59 -0.81 0.02
1 4.89 489 0.359 -10.415 4.449 23.010 -32.837 -3.632 -329.935 -1064.906 -3374.901 -0.545 1.111 -1.377 -0.01 0.59 -0.81 0.03
1 4.90 490 -0.302 -10.161 4.573 28.168 -20.294 -3.754 -329.935 -1064.906 -3374.901 0.138 0.868 -1.467 -0.01 0.58 -0.81 0.03
1 4.91 491 -1.106 -9.898 4.362 39.063 -9.552 -0.519 -269.974 -1004.945 -3314.940 0.961 0.618 -1.217 -0.01 0.58 -0.81 0.03
1 4.92 492 -1.791 -9.108 3.749 57.892 -9.705 17.456 -434.867 -989.955 -3224.999 1.645 -0.130 -0.480 -0.01 0.58 -0.82 0.03
1 4.93 493 -1.949 -8.734 3.544 65.888 -18.158 24.292 -434.867 -989.955 -3224.999 1.771 -0.470 -0.185 -0.01 0.57 -0.82 0.03
1 4.94 494 -1.743 -7.461 3.529 67.475 -29.083 29.968 -254.984 -914.854 -3299.950 1.528 -1.707 -0.073 -0.01 0.57 -0.82 0.03
1 4.95 495 -1.403 -6.733 3.668 59.815 -39.093 32.257 -509.968 -1064.906 -3254.979 1.156 -2.397 -0.116 -0.01 0.56 -0.82 0.04
1 4.96 496 -0.393 -5.890 3.907 33.356 -49.103 30.029 -374.906 -1199.968 -3419.872 0.124 -3.208 -0.274 -0.01 0.56 -0.83 0.04
1 4.97 497 0.579 -5.837 4.099 11.963 -52.704 26.306 -374.906 -1199.968 -3419.872 -0.864 -3.237 -0.409 -0.01 0.56 -0.83 0.05
1 4.98 498 1.140 -6.479 4.329 -10.101 -48.615 20.966 -269.974 -1049.916 -3419.872 -1.431 -2.584 -0.612 -0.02 0.56 -0.83 0.05
1 4.99 499 1.226 -7.327 4.439 -26.764 -39.948 16.388 -344.925 -1229.949 -3389.892 -1.518 -1.738 -0.725 -0.02 0.56 -0.83 0.05
1 5.00 500 0.699 -8.624 4.822 -29.419 -26.978 10.437 -344.925 -1229.949 -3389.892 -0.985 -0.467 -1.174 -0.02 0.56 -0.83 0.06
1 5.01 501 0.326 -9.103 5.004 -19.440 -24.353 6.348 -449.857 -1199.968 -3389.892 -0.601 0.001 -1.383 -0.02 0.56 -0.83 0.06
1 5.02 502 0.326 -9.620 5.119 -7.324 -24.841 4.913 -344.925 -1199.968 -3359.911 -0.590 0.513 -1.510 -0.03 0.56 -0.82 0.06
1 5.03 503 0.493 -9.620 4.904 -0.305 -26.520 4.486 -344.925 -1199.968 -3359.911 -0.747 0.512 -1.295 -0.03 0.56 -0.82 0.06
1 5.04 504 0.656 -9.357 4.870 4.364 -23.163 2.502 -449.857 -1154.998 -3419.872 -0.900 0.250 -1.259 -0.03 0.56 -0.82 0.06
1 5.05 505 0.627 -9.127 4.329 8.240 -20.691 0.885 -449.857 -1124.867 -3239.989 -0.856 0.025 -0.704 -0.03 0.56 -0.83 0.06
1 5.06 506 0.800 -8.988 3.984 12.939 -19.959 0.702 -509.968 -1019.936 -3479.983 -1.010 -0.107 -0.341 -0.03 0.56 -0.83 0.06
1 5.07 507 0.752 -8.663 3.840 21.149 -20.630 0.977 -509.968 -1019.936 -3479.983 -0.925 -0.413 -0.147 -0.03 0.56 -0.83 0.07
1 5.08 508 0.752 -8.447 3.778 24.872 -24.262 1.526 -674.860 -1154.998 -3359.911 -0.907 -0.615 -0.051 -0.04 0.56 -0.83 0.07
1 5.09 509 0.747 -8.361 3.692 24.414 -28.351 1.678 -569.929 -1049.916 -3359.911 -0.883 -0.686 0.073 -0.04 0.55 -0.83 0.07
1 5.10 510 0.828 -8.232 3.726 22.705 -30.792 0.427 -569.929 -1049.916 -3359.911 -0.942 -0.801 0.075 -0.04 0.55 -0.83 0.07
1 5.11 511 0.852 -8.212 3.615 15.839 -28.839 -3.235 -524.958 -1199.968 -3389.892 -0.940 -0.806 0.219 -0.04 0.55 -0.83 0.07
1 5.12 512 0.771 -8.284 3.654 10.620 -26.428 -4.211 -569.929 -1304.900 -3284.960 -0.830 -0.723 0.208 -0.04 0.55 -0.83 0.07
1 5.13 513 0.915 -8.313 3.673 6.134 -24.139 -4.517 -509.968 -1214.958 -3374.901 -0.944 -0.686 0.206 -0.05 0.55 -0.83 0.07
1 5.14 514 1.030 -8.442 3.888 2.045 -21.240 -4.791 -509.968 -1214.958 -3374.901 -1.030 -0.552 0.002 -0.05 0.55 -0.83 0.07
1 5.15 515 1.250 -8.572 3.812 -2.899 -14.618 -2.655 -599.909 -1079.896 -3359.911 -1.198 -0.420 0.085 -0.05 0.55 -0.83 0.07
1 5.16 516 1.283 -8.696 3.864 -5.310 -8.667 -0.183 -690.000 -1409.981 -3449.853 -1.211 -0.297 0.029 -0.05 0.55 -0.83 0.07
1 5.17 517 1.207 -8.528 3.927 -6.348 -3.174 0.214 -690.000 -1409.981 -3449.853 -1.120 -0.467 -0.039 -0.05 0.55 -0.83 0.07
1 5.18 518 0.982 -8.600 3.749 -6.409 -0.488 -0.336 -599.909 -1349.871 -3359.911 -0.884 -0.398 0.131 -0.05 0.55 -0.83 0.07
1 5.19 519 0.704 -8.361 3.577 -3.052 -3.174 0.977 -674.860 -1124.867 -3359.911 -0.598 -0.640 0.297 -0.05 0.55 -0.83 0.07
1 5.20 520 1.030 -8.260 3.486 -3.540 -4.456 2.869 -704.991 -1124.867 -3419.872 -0.916 -0.743 0.383 -0.05 0.55 -0.83 0.07
1 5.21 521 1.082 -8.141 3.520 -6.561 -5.646 3.906 -704.991 -1124.867 -3419.872 -0.963 -0.864 0.345 -0.05 0.55 -0.83 0.07
1 5.22 522 1.585 -8.289 3.534 -18.677 -7.874 3.571 -704.991 -1229.949 -3419.872 -1.453 -0.726 0.308 -0.06 0.55 -0.83 0.07
1 5.23 523 1.896 -8.653 3.654 -24.841 -9.155 1.343 -794.932 -1214.958 -3479.983 -1.752 -0.373 0.161 -0.06 0.55 -0.83 0.07
1 5.24 524 2.299 -9.017 3.955 -26.581 -5.493 -1.007 -794.932 -1214.958 -3479.983 -2.137 -0.023 -0.176 -0.06 0.55 -0.83 0.07
1 5.25 525 2.500 -9.333 3.874 -24.445 3.143 -4.761 -704.991 -1199.968 -3464.993 -2.317 0.278 -0.130 -0.06 0.55 -0.83 0.07
1 5.26 526 2.227 -9.414 4.027 -20.874 20.172 -11.017 -659.870 -1169.988 -3374.901 -2.021 0.347 -0.314 -0.06 0.55 -0.83 0.07
1 5.27 527 2.102 -9.352 3.855 -21.027 32.379 -14.282 -690.000 -1094.887 -3329.931 -1.875 0.275 -0.169 -0.06 0.56 -0.83 0.07
1 5.28 528 1.743 -9.357 3.706 -24.445 43.366 -17.395 -690.000 -1094.887 -3329.931 -1.497 0.269 -0.046 -0.06 0.56 -0.83 0.07
1 5.29 529 1.178 -9.615 3.055 -30.518 53.925 -17.212 -690.000 -1064.906 -3404.882 -0.909 0.502 0.538 -0.06 0.56 -0.82 0.06
1 5.30 530 0.900 -9.462 2.600 -30.640 56.854 -15.381 -749.961 -1004.945 -3389.892 -0.630 0.331 0.949 -0.05 0.56 -0.82 0.06
1 5.31 531 0.479 -9.496 2.318 -27.985 55.206 -13.672 -749.961 -1004.945 -3389.892 -0.212 0.348 1.186 -0.05 0.56 -0.82 0.05
1 5.32 532 0.311 -9.275 2.227 -24.780 49.072 -12.451 -599.909 -1079.896 -3239.989 -0.051 0.111 1.234 -0.05 0.57 -0.82 0.05
1 5.33 533 -0.010 -9.218 2.255 -23.560 39.765 -11.261 -599.909 -1154.998 -3314.940 0.264 0.038 1.166 -0.05 0.57 -0.82 0.05
1 5.34 534 0.211 -9.433 2.155 -27.252 34.302 -11.353 -524.958 -1049.916 -3239.989 0.038 0.239 1.229 -0.05 0.57 -0.82 0.04
1 5.35 535 0.201 -9.644 2.136 -31.220 31.403 -11.139 -524.958 -1049.916 -3239.989 0.045 0.435 1.206 -0.04 0.57 -0.82 0.04
1 5.36 536 0.120 -9.979 2.050 -32.105 27.832 -13.092 -629.890 -884.874 -3314.940 0.130 0.733 1.189 -0.04 0.58 -0.81 0.04
1 5.37 537 -0.067 -9.946 2.021 -30.029 24.750 -13.184 -494.978 -1049.916 -3239.989 0.322 0.682 1.166 -0.04 0.58 -0.81 0.03
1 5.38 538 0.153 -10.181 1.968 -28.168 22.980 -10.559 -494.978 -1049.916 -3239.989 0.108 0.900 1.169 -0.04 0.58 -0.81 0.03
1 5.39 539 0.244 -10.090 1.853 -22.278 22.339 -5.157 -389.896 -1019.936 -3254.979 0.020 0.793 1.237 -0.04 0.58 -0.81 0.03
1 5.40 540 0.239 -9.845 1.604 -15.595 20.233 2.808 -569.929 -884.874 -3164.888 0.021 0.537 1.448 -0.04 0.59 -0.81 0.03
1 5.41 541 0.235 -9.625 1.231 -15.778 18.311 7.813 -419.876 -1004.945 -3209.859 0.015 0.306 1.790 -0.04 0.59 -0.81 0.03
1 5.42 542 0.575 -9.175 0.963 -15.472 17.426 13.367 -419.876 -1004.945 -3209.859 -0.342 -0.155 2.026 -0.04 0.59 -0.81 0.03
1 5.43 543 0.704 -9.022 1.231 -15.900 20.111 17.609 -629.890 -959.975 -3209.859 -0.495 -0.320 1.723 -0.03 0.59 -0.81 0.03
1 5.44 544 -0.249 -8.974 3.673 -48.096 37.323 -3.601 -389.896 -989.955 -3254.979 0.404 -0.394 -0.798 -0.03 0.59 -0.8 0.03
1 5.45 545 -3.132 -10.133 6.019 -59.296 47.150 -43.366 -389.896 -989.955 -3254.979 3.289 0.744 -3.215 -0.03 0.6 -0.8 0.03
1 5.46 546 -4.295 -13.178 6.235 -64.087 29.785 -48.218 -584.919 -1064.906 -3044.966 4.498 3.768 -3.507 -0.03 0.6 -0.8 0.02
1 5.47 547 -3.759 -15.707 4.133 -71.442 15.259 -5.646 -389.896 -839.903 -3044.966 4.010 6.270 -1.500 -0.03 0.6 -0.8 0.02
1 5.48 548 -3.017 -14.327 3.783 -1.038 -25.543 40.344 -269.974 -809.922 -3239.989 3.255 4.865 -1.246 -0.03 0.61 -0.79 0.02
1 5.49 549 -1.202 -12.000 3.668 53.803 -70.038 28.900 -269.974 -809.922 -3239.989 1.393 2.529 -1.158 -0.03 0.61 -0.79 0.02
1 5.50 550 0.455 -10.851 3.864 63.233 -90.393 10.193 -569.929 -734.971 -3134.908 -0.288 1.396 -1.293 -0.03 0.61 -0.79 0.03
1 5.51 551 1.216 -10.559 4.544 22.827 -67.017 14.740 -269.974 -734.971 -3029.976 -1.009 1.148 -1.816 -0.04 0.6 -0.8 0.04
1 5.52 552 1.738 -9.558 4.913 -0.916 -40.436 30.121 -269.974 -734.971 -3029.976 -1.532 0.154 -2.162 -0.04 0.6 -0.8 0.04
1 5.53 553 1.791 -9.117 4.769 -11.902 -16.846 31.250 -524.958 -809.922 -3134.908 -1.615 -0.289 -2.026 -0.04 0.6 -0.8 0.04
1 5.54 554 1.446 -9.252 4.889 -11.139 -5.707 27.557 -524.958 -809.922 -3134.908 -1.295 -0.156 -2.147 -0.04 0.6 -0.8 0.04
1 5.55 555 1.116 -8.883 4.913 9.003 1.678 21.881 -659.870 -1019.936 -3149.898 -0.991 -0.524 -2.168 -0.04 0.6 -0.8 0.05
1 5.56 556 0.771 -7.973 4.683 20.783 3.998 11.261 -659.870 -1019.936 -3149.898 -0.671 -1.428 -1.916 -0.04 0.6 -0.8 0.05
1 5.57 557 0.915 -7.303 4.554 21.332 5.432 -2.686 -569.929 -929.994 -3134.908 -0.829 -2.085 -1.743 -0.04 0.6 -0.8 0.05
1 5.58 558 0.934 -7.097 4.525 5.463 13.519 -16.113 -509.968 -839.903 -3119.917 -0.832 -2.269 -1.643 -0.04 0.59 -0.8 0.05
1 5.59 559 0.642 -7.145 4.631 -11.536 19.684 -22.583 -509.968 -839.903 -3119.917 -0.520 -2.220 -1.745 -0.04 0.59 -0.8 0.05
1 5.60 560 -0.268 -8.519 4.841 -26.978 25.818 -27.557 -539.948 -944.984 -3254.979 0.416 -0.852 -1.977 -0.04 0.59 -0.8 0.04
1 5.61 561 -0.833 -9.706 4.803 -31.036 27.252 -29.114 -539.948 -944.984 -3254.979 1.010 0.329 -1.963 -0.04 0.59 -0.8 0.04
1 5.62 562 -1.346 -10.319 4.707 -25.421 25.543 -21.637 -449.857 -1004.945 -3104.927 1.548 0.932 -1.901 -0.04 0.6 -0.8 0.04
1 5.63 563 -1.556 -10.267 4.410 -6.653 19.898 -0.458 -449.857 -1004.945 -3104.927 1.776 0.870 -1.636 -0.04 0.6 -0.8 0.03
1 5.64 564 -1.868 -9.601 4.128 6.683 12.543 13.184 -509.968 -839.903 -3119.917 2.085 0.201 -1.366 -0.04 0.6 -0.8 0.03
1 5.65 565 -1.719 -8.643 3.888 15.259 2.716 22.461 -524.958 -809.922 -3134.908 1.917 -0.755 -1.120 -0.04 0.6 -0.8 0.03
1 5.66 566 -1.456 -7.470 3.673 13.001 -7.263 25.635 -524.958 -809.922 -3134.908 1.559 -1.911 -0.841 -0.03 0.6 -0.8 0.04
1 5.67 567 -1.427 -7.226 3.510 6.256 -10.315 23.682 -539.948 -944.984 -3149.898 1.499 -2.150 -0.661 -0.03 0.59 -0.8 0.04
1 5.68 568 -1.484 -7.279 3.347 -1.953 -12.177 21.362 -539.948 -944.984 -3149.898 1.529 -2.096 -0.491 -0.03 0.59 -0.8 0.04
1 5.69 569 -1.461 -7.499 3.079 -7.660 -14.374 20.355 -539.948 -749.961 -3014.986 1.482 -1.877 -0.227 -0.03 0.59 -0.8 0.04
1 5.70 570 -1.140 -7.791 3.055 -11.963 -16.327 21.423 -389.896 -839.903 -3119.917 1.140 -1.588 -0.215 -0.03 0.59 -0.8 0.05
1 5.71 571 -0.967 -7.920 3.046 -13.062 -14.130 23.560 -449.857 -779.942 -3029.976 0.946 -1.464 -0.221 -0.03 0.6 -0.8 0.05
1 5.72 572 -0.895 -8.179 3.122 -14.252 -13.641 24.139 -509.968 -599.909 -3074.947 0.848 -1.210 -0.315 -0.03 0.6 -0.8 0.05
1 5.73 573 -0.421 -8.581 3.213 -13.336 -15.564 25.086 -509.968 -599.909 -3074.947 0.315 -0.818 -0.443 -0.03 0.6 -0.8 0.05
1 5.74 574 -0.110 -8.615 3.376 -8.209 -12.054 24.139 -509.968 -719.981 -3119.917 -0.028 -0.788 -0.617 -0.03 0.6 -0.8 0.06
1 5.75 575 -0.134 -8.533 3.462 -2.350 -1.953 20.538 -509.968 -719.981 -3119.917 -0.033 -0.870 -0.707 -0.03 0.6 -0.8 0.06
1 5.76 576 -0.508 -8.466 3.275 0.549 8.270 14.465 -389.896 -839.903 -3014.986 0.315 -0.935 -0.515 -0.03 0.6 -0.8 0.06
1 5.77 577 -0.857 -8.394 3.170 -1.373 11.536 11.047 -389.896 -839.903 -3014.986 0.641 -1.004 -0.403 -0.03 0.6 -0.8 0.06
1 5.78 578 -1.341 -8.361 2.811 -8.148 7.935 6.256 -464.997 -749.961 -2939.885 1.102 -1.037 -0.042 -0.03 0.6 -0.8 0.06
1 5.79 579 -1.398 -8.548 2.715 -13.428 2.502 1.648 -374.906 -809.922 -3164.888 1.140 -0.851 0.048 -0.03 0.6 -0.8 0.06
1 5.80 580 -1.188 -8.931 2.639 -16.541 -6.836 -3.784 -374.906 -809.922 -3164.888 0.910 -0.478 0.089 -0.03 0.6 -0.8 0.06
1 5.81 581 -1.006 -9.208 2.696 -14.648 -9.644 -5.890 -419.876 -809.922 -3059.957 0.732 -0.207 0.009 -0.03 0.6 -0.8 0.06
1 5.82 582 -0.809 -9.390 2.773 -11.231 -10.864 -8.453 -419.876 -809.922 -3059.957 0.545 -0.030 -0.086 -0.03 0.6 -0.8 0.06
1 5.83 583 -0.627 -9.467 2.753 -7.019 -12.299 -9.369 -269.974 -884.874 -3104.927 0.376 0.042 -0.080 -0.03 0.6 -0.8 0.06
1 5.84 584 -0.421 -9.299 2.907 0.366 -9.766 -10.498 -434.867 -839.903 -3014.986 0.187 -0.128 -0.240 -0.03 0.6 -0.8 0.06
1 5.85 585 -0.469 -9.012 2.993 3.693 -6.439 -13.367 -419.876 -884.874 -3059.957 0.254 -0.415 -0.325 -0.03 0.6 -0.8 0.06
1 5.86 586 -0.469 -8.998 2.610 1.831 0.336 -17.059 -464.997 -839.903 -3014.986 0.275 -0.428 0.065 -0.03 0.6 -0.8 0.06
1 5.87 587 -0.713 -9.050 2.509 -3.418 6.897 -18.585 -464.997 -839.903 -3014.986 0.542 -0.374 0.172 -0.03 0.6 -0.8 0.06
1 5.88 588 -1.082 -9.065 2.332 -10.803 11.932 -20.203 -464.997 -674.860 -3044.966 0.954 -0.364 0.338 -0.03 0.6 -0.8 0.06
1 5.89 589 -1.235 -9.280 2.236 -18.585 13.947 -21.271 -464.997 -674.860 -3044.966 1.125 -0.154 0.414 -0.03 0.6 -0.8 0.05
1 5.90 590 -1.413 -9.611 2.270 -25.940 14.221 -22.003 -359.916 -869.883 -2969.865 1.321 0.168 0.349 -0.03 0.6 -0.79 0.05
1 5.91 591 -1.561 -9.836 2.318 -29.450 11.169 -20.813 -419.876 -734.971 -3059.957 1.487 0.381 0.260 -0.03 0.61 -0.79 0.05
1 5.92 592 -1.705 -10.200 2.102 -29.419 4.303 -18.921 -464.997 -839.903 -2969.865 1.646 0.733 0.431 -0.03 0.61 -0.79 0.05
1 5.93 593 -1.810 -10.430 2.107 -21.881 -6.073 -18.066 -584.919 -674.860 -2864.934 1.767 0.951 0.380 -0.03 0.61 -0.79 0.05
1 5.94 594 -1.772 -10.257 1.973 -10.834 -16.510 -17.059 -584.919 -674.860 -2864.934 1.744 0.768 0.477 -0.03 0.61 -0.79 0.05
1 5.95 595 -1.212 -9.884 1.887 -0.641 -32.776 -13.825 -419.876 -704.991 -3029.976 1.230 0.386 0.531 -0.04 0.61 -0.79 0.05
1 5.96 596 -0.575 -9.596 1.834 4.211 -41.199 -11.261 -419.876 -704.991 -3029.976 0.616 0.098 0.580 -0.04 0.61 -0.79 0.05
1 5.97 597 0.024 -9.405 2.030 3.448 -41.962 -9.369 -614.899 -674.860 -3044.966 0.044 -0.092 0.386 -0.04 0.61 -0.79 0.05
1 5.98 598 0.484 -9.055 2.045 0.580 -36.072 -7.233 -494.978 -584.919 -3029.976 -0.388 -0.441 0.374 -0.05 0.61 -0.79 0.05
1 5.99 599 0.737 -9.213 1.877 -9.766 -14.648 -2.991 -614.899 -644.880 -2969.865 -0.617 -0.283 0.539 -0.05 0.61 -0.79 0.05
1 6.00 600 0.450 -9.548 1.532 -19.104 -4.059 1.282 -629.890 -704.991 -3029.976 -0.311 0.049 0.872 -0.05 0.61 -0.79 0.05
1 6.01 601 0.148 -9.975 1.489 -22.400 -0.458 3.052 -629.890 -704.991 -3029.976 -0.001 0.468 0.888 -0.05 0.61 -0.79 0.05
1 6.02 602 -0.048 -10.382 1.413 -25.116 -1.221 2.502 -539.948 -839.903 -3074.947 0.194 0.866 0.928 -0.05 0.61 -0.79 0.05
1 6.03 603 0.053 -11.172 1.518 -25.452 -5.768 0.580 -539.948 -839.903 -3074.947 0.090 1.635 0.735 -0.05 0.62 -0.78 0.05
1 6.04 604 0.235 -11.440 1.829 -17.273 -6.165 1.038 -704.991 -464.997 -2954.875 -0.089 1.895 0.389 -0.05 0.62 -0.78 0.05
1 6.05 605 0.431 -11.306 1.805 -5.096 -2.380 1.404 -539.948 -644.880 -2894.914 -0.285 1.757 0.392 -0.05 0.62 -0.78 0.06
1 6.06 606 0.402 -10.726 1.480 9.949 2.594 0.641 -704.991 -659.870 -2909.904 -0.257 1.177 0.717 -0.05 0.62 -0.78 0.06
1 6.07 607 0.493 -9.955 1.140 23.254 7.385 -7.111 -584.919 -719.981 -2894.914 -0.347 0.410 1.077 -0.05 0.62 -0.78 0.06
1 6.08 608 0.144 -9.797 0.953 21.729 9.796 -11.749 -584.919 -719.981 -2894.914 0.012 0.258 1.288 -0.05 0.62 -0.78 0.05
1 6.09 609 -0.005 -9.879 0.881 15.137 10.040 -12.787 -584.919 -599.909 -2894.914 0.176 0.346 1.386 -0.05 0.62 -0.78 0.05
1 6.10 610 0.010 -10.592 1.269 5.249 11.017 -8.362 -584.919 -599.909 -2894.914 0.191 1.065 1.019 -0.05 0.62 -0.78 0.05
1 6.11 611 0.077 -11.378 1.666 -4.822 6.409 1.038 -509.968 -719.981 -2969.865 0.129 1.850 0.618 -0.05 0.62 -0.78 0.05
1 6.12 612 0.378 -11.971 2.672 -12.329 -3.418 14.313 -629.890 -584.919 -3029.976 -0.180 2.441 -0.397 -0.05 0.62 -0.78 0.05
1 6.13 613 0.986 -12.024 3.395 -13.550 -3.326 11.017 -674.860 -809.922 -2984.855 -0.807 2.489 -1.139 -0.05 0.62 -0.78 0.05
1 6.14 614 1.815 -12.287 3.390 -8.392 20.874 -7.538 -704.991 -734.971 -2879.924 -1.644 2.748 -1.152 -0.05 0.62 -0.78 0.05
1 6.15 615 1.288 -12.853 3.630 -3.174 44.495 -8.392 -704.991 -734.971 -2879.924 -1.114 3.310 -1.404 -0.05 0.62 -0.78 0.05
1 6.16 616 0.369 -13.691 3.251 -8.911 57.343 4.456 -569.929 -704.991 -2879.924 -0.193 4.147 -1.030 -0.05 0.62 -0.78 0.05
1 6.17 617 -0.704 -13.006 2.351 -0.885 40.161 24.445 -569.929 -704.991 -2879.924 0.818 3.458 -0.145 -0.04 0.62 -0.78 0.05
1 6.18 618 -0.268 -11.861 1.767 19.684 14.069 7.690 -599.909 -629.890 -2909.904 0.341 2.314 0.445 -0.04 0.62 -0.78 0.05
1 6.19 619 0.828 -11.172 1.944 44.769 -4.242 -12.604 -524.958 -659.870 -2879.924 -0.760 1.634 0.307 -0.04 0.62 -0.78 0.05
1 6.20 620 1.111 -10.669 2.902 53.803 2.502 -21.271 -584.919 -644.880 -2894.914 -1.018 1.149 -0.579 -0.04 0.62 -0.79 0.04
1 6.21 621 0.943 -9.970 3.318 51.239 20.844 -19.104 -524.958 -629.890 -2984.855 -0.821 0.470 -0.916 -0.04 0.61 -0.79 0.04
1 6.22 622 0.086 -9.204 3.381 44.586 34.302 -7.629 -524.958 -629.890 -2984.855 0.056 -0.277 -0.902 -0.04 0.61 -0.79 0.04
1 6.23 623 -0.302 -8.433 3.266 47.150 33.722 -11.353 -539.948 -794.932 -2969.865 0.448 -1.028 -0.714 -0.04 0.61 -0.79 0.04
1 6.24 624 -1.355 -7.714 2.983 51.239 20.722 -23.010 -539.948 -794.932 -2969.865 1.514 -1.704 -0.278 -0.04 0.6 -0.8 0.04
1 6.25 625 -1.599 -7.283 2.921 50.934 4.486 -26.489 -464.997 -674.860 -3044.966 1.788 -2.112 -0.140 -0.04 0.6 -0.8 0.03
1 6.26 626 -1.389 -7.025 3.256 47.150 -10.559 -27.344 -419.876 -704.991 -2879.924 1.617 -2.348 -0.402 -0.04 0.59 -0.8 0.03
1 6.27 627 -0.967 -7.082 3.630 40.924 -17.151 -25.971 -419.876 -704.991 -2879.924 1.241 -2.268 -0.709 -0.04 0.59 -0.8 0.03
1 6.28 628 -0.441 -7.384 4.530 28.320 -12.329 -14.038 -569.929 -779.942 -3059.957 0.759 -1.948 -1.554 -0.04 0.59 -0.81 0.03
1 6.29 629 -0.105 -7.532 4.631 21.729 -4.578 -4.547 -569.929 -779.942 -3059.957 0.454 -1.784 -1.610 -0.04 0.59 -0.81 0.03
1 6.30 630 0.196 -7.556 4.784 16.327 3.082 1.404 -494.978 -854.893 -3029.976 0.167 -1.749 -1.730 -0.05 0.58 -0.81 0.03
1 6.31 631 0.306 -7.508 4.587 13.245 8.270 2.472 -494.978 -854.893 -3029.976 0.056 -1.785 -1.500 -0.05 0.58 -0.81 0.03
1 6.32 632 0.431 -7.729 4.142 6.226 11.200 1.007 -690.000 -674.860 -3014.986 -0.082 -1.548 -1.002 -0.04 0.58 -0.81 0.03
1 6.33 633 0.527 -8.026 4.204 -1.556 10.437 0.519 -614.899 -794.932 -3194.869 -0.184 -1.249 -1.057 -0.04 0.58 -0.81 0.03
1 6.34 634 0.508 -8.337 4.654 -5.737 11.627 -1.587 -614.899 -794.932 -3194.869 -0.168 -0.937 -1.506 -0.04 0.58 -0.81 0.03
1 6.35 635 0.292 -8.749 4.808 -1.709 14.191 -4.089 -539.948 -839.903 -3074.947 0.047 -0.523 -1.653 -0.04 0.58 -0.81 0.03
1 6.36 636 -0.359 -9.017 4.827 9.522 8.942 -8.911 -584.919 -944.984 -3119.917 0.698 -0.250 -1.658 -0.04 0.58 -0.81 0.03
1 6.37 637 -0.484 -8.849 4.731 17.273 0.397 -11.871 -509.968 -839.903 -3044.966 0.827 -0.409 -1.537 -0.04 0.58 -0.81 0.03
1 6.38 638 -0.321 -8.514 4.468 22.095 -10.956 -14.160 -509.968 -839.903 -3044.966 0.674 -0.732 -1.240 -0.04 0.58 -0.81 0.03
1 6.39 639 0.345 -8.045 4.027 26.337 -19.379 -12.543 -524.958 -809.922 -3164.888 0.052 -1.169 -0.714 -0.04 0.57 -0.82 0.03
1 6.40 640 0.670 -7.892 3.740 29.419 -15.228 -10.895 -599.909 -959.975 -3209.859 -0.247 -1.305 -0.381 -0.05 0.57 -0.82 0.03
1 6.41 641 0.460 -7.719 3.558 28.839 -7.996 -9.613 -599.909 -959.975 -3209.859 -0.014 -1.461 -0.157 -0.05 0.57 -0.82 0.03
1 6.42 642 0.469 -7.839 3.261 23.224 -2.197 -6.561 -569.929 -884.874 -3164.888 -0.006 -1.326 0.180 -0.05 0.57 -0.82 0.03
1 6.43 643 0.297 -8.260 3.366 6.378 1.129 -2.411 -524.958 -1004.945 -3134.908 0.176 -0.892 0.104 -0.05 0.57 -0.82 0.03
1 6.44 644 0.383 -8.437 3.529 -3.326 5.585 -1.434 -569.929 -959.975 -3164.888 0.095 -0.710 -0.045 -0.05 0.57 -0.82 0.03
1 6.45 645 0.239 -8.825 3.318 -9.460 10.284 -1.129 -569.929 -959.975 -3164.888 0.239 -0.321 0.168 -0.05 0.57 -0.82 0.03
1 6.46 646 0.057 -9.017 3.338 -13.062 13.947 0.702 -749.961 -884.874 -3284.960 0.418 -0.133 0.140 -0.05 0.57 -0.82 0.03
1 6.47 647 -0.364 -9.117 2.878 -11.353 14.557 6.928 -584.919 -914.854 -3224.999 0.815 -0.046 0.567 -0.05 0.57 -0.82 0.03
1 6.48 648 -0.517 -9.132 2.686 -6.928 9.033 10.101 -584.919 -914.854 -3224.999 0.946 -0.039 0.742 -0.05 0.57 -0.82 0.03
1 6.49 649 -0.694 -8.868 2.624 -5.463 0.122 10.498 -584.919 -989.955 -3194.869 1.100 -0.308 0.793 -0.05 0.57 -0.82 0.03
1 6.50 650 -0.441 -8.552 2.734 -5.371 -18.707 7.721 -599.909 -959.975 -3164.888 0.827 -0.628 0.672 -0.05 0.57 -0.82 0.03
1 6.51 651 -0.254 -8.667 2.998 -5.859 -30.914 5.402 -629.890 -854.893 -3164.888 0.631 -0.518 0.398 -0.05 0.57 -0.82 0.03
1 6.52 652 -0.067 -8.567 3.189 -6.531 -39.307 4.303 -629.890 -854.893 -3164.888 0.446 -0.623 0.195 -0.05 0.57 -0.82 0.03
1 6.53 653 0.091 -8.840 3.290 -4.883 -43.488 3.357 -674.860 -1049.916 -3239.989 0.298 -0.353 0.083 -0.05 0.57 -0.82 0.04
1 6.54 654 0.431 -9.333 3.122 -2.808 -44.800 7.416 -524.958 -854.893 -3209.859 -0.011 0.135 0.235 -0.05 0.57 -0.82 0.04
1 6.55 655 0.579 -9.539 3.007 2.747 -49.378 15.015 -524.958 -854.893 -3209.859 -0.148 0.340 0.343 -0.06 0.57 -0.82 0.04
1 6.56 656 1.097 -9.726 3.544 11.047 -52.094 21.729 -509.968 -794.932 -3254.979 -0.662 0.527 -0.191 -0.06 0.57 -0.82 0.05
1 6.57 657 1.733 -9.510 4.075 11.414 -46.173 23.956 -569.929 -884.874 -3284.960 -1.300 0.316 -0.710 -0.06 0.57 -0.82 0.05
1 6.58 658 2.136 -9.390 4.247 2.289 -24.262 19.074 -690.000 -989.955 -3194.869 -1.704 0.202 -0.867 -0.06 0.57 -0.82 0.05
1 6.59 659 1.805 -9.491 3.931 -0.916 -10.407 15.808 -690.000 -989.955 -3194.869 -1.375 0.306 -0.542 -0.07 0.57 -0.82 0.06
1 6.60 660 1.432 -9.371 3.960 -0.580 -0.061 12.482 -629.890 -854.893 -3164.888 -1.004 0.188 -0.567 -0.07 0.57 -0.82 0.06
1 6.61 661 0.800 -9.252 3.251 1.740 3.357 10.742 -659.870 -914.854 -3119.917 -0.389 0.069 0.149 -0.07 0.57 -0.82 0.06
1 6.62 662 0.680 -8.945 2.859 3.265 -2.686 8.789 -659.870 -914.854 -3119.917 -0.280 -0.236 0.545 -0.07 0.57 -0.82 0.06
1 6.63 663 0.718 -8.734 2.567 3.967 -11.536 6.256 -569.929 -884.874 -3209.859 -0.324 -0.446 0.839 -0.07 0.57 -0.82 0.06
1 6.64 664 0.824 -8.370 2.581 2.228 -18.677 3.906 -749.961 -959.975 -3239.989 -0.427 -0.810 0.826 -0.07 0.57 -0.82 0.06
1 6.65 665 1.140 -8.256 2.672 -2.075 -21.820 2.136 -584.919 -944.984 -3224.999 -0.735 -0.925 0.734 -0.07 0.57 -0.82 0.06
1 6.66 666 1.331 -8.390 2.720 -10.040 -20.935 1.068 -584.919 -944.984 -3224.999 -0.917 -0.792 0.681 -0.07 0.57 -0.82 0.06
1 6.67 667 1.413 -8.648 2.571 -15.106 -17.761 1.038 -704.991 -779.942 -3209.859 -0.984 -0.538 0.816 -0.07 0.57 -0.82 0.06
1 6.68 668 1.839 -9.199 2.586 -19.531 -11.200 2.075 -749.961 -779.942 -3239.989 -1.379 -0.005 0.750 -0.07 0.57 -0.82 0.06
1 6.69 669 2.021 -9.256 2.777 -18.097 -3.632 3.784 -749.961 -779.942 -3239.989 -1.547 0.042 0.526 -0.07 0.57 -0.82 0.06
1 6.70 670 2.040 -9.285 2.974 -14.496 5.859 3.876 -749.961 -809.922 -3209.859 -1.558 0.062 0.303 -0.07 0.57 -0.81 0.06
1 6.71 671 1.992 -9.472 2.955 -16.876 16.510 3.143 -749.961 -779.942 -3164.888 -1.508 0.241 0.301 -0.07 0.57 -0.81 0.06
1 6.72 672 1.657 -9.817 2.854 -28.992 30.029 1.801 -764.952 -839.903 -3254.979 -1.173 0.576 0.373 -0.07 0.57 -0.81 0.06
1 6.73 673 1.379 -9.864 2.504 -25.635 36.682 3.387 -764.952 -839.903 -3254.979 -0.900 0.610 0.684 -0.07 0.58 -0.81 0.06
1 6.74 674 1.130 -9.975 2.284 -20.172 39.093 2.777 -584.919 -794.932 -3299.950 -0.662 0.706 0.865 -0.07 0.58 -0.81 0.06
1 6.75 675 0.876 -9.970 2.088 -16.968 37.689 2.502 -794.932 -869.883 -3224.999 -0.424 0.689 1.028 -0.07 0.58 -0.81 0.06
1 6.76 676 0.761 -9.687 1.853 -13.580 32.135 4.120 -794.932 -869.883 -3224.999 -0.342 0.387 1.206 -0.07 0.58 -0.81 0.05
1 6.77 677 0.800 -9.726 1.815 -13.550 28.351 3.571 -659.870 -719.981 -3224.999 -0.398 0.416 1.219 -0.06 0.58 -0.81 0.05
1 6.78 678 0.728 -9.606 1.762 -15.198 24.567 2.472 -599.909 -734.971 -3164.888 -0.339 0.287 1.245 -0.06 0.59 -0.81 0.05
1 6.79 679 0.723 -9.663 1.456 -17.120 21.423 1.556 -599.909 -734.971 -3164.888 -0.345 0.334 1.522 -0.06 0.59 -0.81 0.05
1 6.80 680 0.733 -9.864 1.149 -21.851 17.639 1.984 -629.890 -734.971 -3284.960 -0.362 0.524 1.795 -0.06 0.59 -0.8 0.05
1 6.81 681 0.809 -9.927 1.106 -24.017 14.801 1.892 -569.929 -734.971 -3209.859 -0.445 0.574 1.798 -0.06 0.59 -0.8 0.05
1 6.82 682 0.867 -10.022 1.192 -26.337 13.275 0.916 -569.929 -659.870 -3164.888 -0.509 0.656 1.667 -0.06 0.59 -0.8 0.05
1 6.83 683 0.570 -10.779 2.279 -39.703 21.118 -7.324 -569.929 -659.870 -3164.888 -0.213 1.381 0.476 -0.06 0.6 -0.8 0.05
1 6.84 684 -0.005 -11.526 3.352 -56.702 31.372 -23.346 -494.978 -629.890 -3059.957 0.370 2.110 -0.661 -0.06 0.6 -0.8 0.04
1 6.85 685 -1.475 -12.182 4.147 -65.613 41.412 -47.699 -569.929 -884.874 -3059.957 1.870 2.743 -1.540 -0.06 0.6 -0.79 0.04
1 6.86 686 -2.835 -13.054 4.003 -43.244 27.924 -54.077 -569.929 -884.874 -3059.957 3.289 3.594 -1.482 -0.06 0.61 -0.79 0.03
1 6.87 687 -2.581 -14.739 3.103 -25.604 -11.292 -19.196 -494.978 -629.890 -3059.957 3.102 5.270 -0.633 -0.06 0.61 -0.79 0.03
1 6.88 688 -2.078 -14.897 3.515 -14.160 -35.614 13.641 -539.948 -644.880 -3074.947 2.642 5.421 -1.083 -0.06 0.61 -0.79 0.03
1 6.89 689 -0.910 -13.494 3.505 18.829 -55.725 19.257 -539.948 -599.909 -2894.914 1.477 4.011 -1.101 -0.06 0.61 -0.79 0.03
1 6.90 690 0.139 -12.067 3.309 52.857 -69.306 1.404 -539.948 -599.909 -2894.914 0.418 2.586 -0.895 -0.06 0.61 -0.79 0.03
1 6.91 691 0.761 -11.421 3.496 56.519 -63.751 7.385 -629.890 -509.968 -3164.888 -0.156 1.980 -0.936 -0.07 0.6 -0.79 0.04
1 6.92 692 0.972 -10.492 3.060 39.551 -51.514 31.311 -599.909 -539.948 -3164.888 -0.360 1.071 -0.429 -0.07 0.6 -0.8 0.05
1 6.93 693 1.226 -9.592 2.907 29.236 -42.755 47.760 -599.909 -539.948 -3164.888 -0.645 0.183 -0.226 -0.07 0.6 -0.8 0.05
1 6.94 694 1.427 -8.964 3.400 25.208 -41.931 53.497 -584.919 -569.929 -3119.917 -0.895 -0.436 -0.681 -0.08 0.6 -0.8 0.06
1 6.95 695 1.700 -8.897 4.257 30.975 -45.288 51.636 -614.899 -644.880 -3074.947 -1.219 -0.495 -1.501 -0.08 0.59 -0.8 0.06
1 6.96 696 2.016 -8.442 4.525 37.872 -36.804 49.774 -599.909 -704.991 -3209.859 -1.581 -0.938 -1.721 -0.08 0.59 -0.8 0.07
1 6.97 697 2.184 -7.542 4.832 45.624 -25.452 48.065 -599.909 -704.991 -3209.859 -1.791 -1.821 -1.966 -0.08 0.59 -0.8 0.07
1 6.98 698 2.270 -6.522 5.315 37.354 -12.848 36.652 -524.958 -704.991 -3164.888 -1.958 -2.794 -2.291 -0.08 0.58 -0.81 0.08
1 6.99 699 2.164 -6.125 5.588 17.212 0.183 27.069 -734.971 -749.961 -3224.999 -1.889 -3.174 -2.507 -0.07 0.58 -0.81 0.08
1 7.00 700 2.083 -6.278 5.368 -2.594 14.130 16.205 -734.971 -749.961 -3224.999 -1.843 -3.016 -2.269 -0.07 0.58 -0.81 0.08
1 7.01 701 1.087 -6.891 5.378 -13.153 24.780 6.653 -674.860 -809.922 -3239.989 -0.874 -2.406 -2.286 -0.07 0.58 -0.81 0.08
1 7.02 702 0.354 -7.523 5.090 -10.498 28.198 -1.190 -734.971 -749.961 -3299.950 -0.159 -1.781 -2.016 -0.07 0.58 -0.81 0.08
1 7.03 703 0.101 -8.016 4.875 -3.510 25.757 -1.617 -584.919 -749.961 -3194.869 0.086 -1.286 -1.798 -0.07 0.58 -0.81 0.08
1 7.04 704 0.024 -8.188 4.951 -2.869 25.879 -0.244 -584.919 -749.961 -3194.869 0.153 -1.111 -1.864 -0.07 0.58 -0.81 0.08
1 7.05 705 -0.192 -8.385 4.722 -9.583 28.442 1.801 -524.958 -704.991 -3209.859 0.343 -0.908 -1.613 -0.06 0.58 -0.81 0.07
1 7.06 706 -0.498 -8.653 4.832 -15.106 28.473 0.244 -569.929 -809.922 -3389.892 0.633 -0.640 -1.725 -0.06 0.58 -0.81 0.07
1 7.07 707 -0.785 -8.835 4.980 -17.059 27.435 -3.693 -569.929 -809.922 -3389.892 0.905 -0.462 -1.881 -0.06 0.58 -0.81 0.07
1 7.08 708 -1.068 -9.194 4.798 -13.275 29.266 -3.723 -614.899 -644.880 -3299.950 1.175 -0.106 -1.708 -0.06 0.58 -0.81 0.07
1 7.09 709 -1.212 -9.199 4.602 -6.622 31.067 -2.350 -494.978 -509.968 -3134.908 1.302 -0.102 -1.515 -0.05 0.58 -0.81 0.07
1 7.10 710 -1.370 -8.993 3.917 0.885 32.135 1.831 -434.867 -794.932 -3254.979 1.439 -0.306 -0.825 -0.05 0.58 -0.81 0.07
1 7.11 711 -1.676 -8.619 3.481 4.822 29.450 3.113 -434.867 -794.932 -3254.979 1.719 -0.677 -0.381 -0.05 0.58 -0.81 0.07
1 7.12 712 -1.619 -8.414 2.835 4.852 23.193 2.716 -464.997 -599.909 -3014.986 1.604 -0.875 0.290 -0.04 0.58 -0.81 0.06
1 7.13 713 -1.614 -8.437 2.682 0.061 18.250 1.831 -449.857 -584.919 -3059.957 1.574 -0.848 0.451 -0.04 0.58 -0.81 0.06
1 7.14 714 -1.599 -8.476 2.552 -5.829 11.017 2.075 -449.857 -584.919 -3059.957 1.538 -0.810 0.579 -0.04 0.58 -0.81 0.06
1 7.15 715 -1.456 -8.811 2.840 -10.620 2.625 2.258 -344.925 -734.971 -3209.859 1.376 -0.479 0.280 -0.04 0.58 -0.81 0.06
1 7.16 716 -1.034 -9.103 3.146 -11.536 -5.402 3.326 -494.978 -659.870 -3104.927 0.941 -0.192 -0.042 -0.04 0.58 -0.81 0.06
1 7.17 717 -0.757 -9.237 3.266 -10.437 -7.568 3.723 -434.867 -749.961 -3224.999 0.653 -0.062 -0.176 -0.04 0.58 -0.81 0.06
1 7.18 718 -0.479 -9.199 3.184 -6.775 -5.463 5.249 -434.867 -749.961 -3224.999 0.369 -0.105 -0.108 -0.04 0.58 -0.81 0.06
1 7.19 719 -0.354 -9.328 3.127 -4.028 -0.641 6.104 -374.906 -584.919 -3134.908 0.237 0.022 -0.059 -0.04 0.58 -0.81 0.06
1 7.20 720 -0.632 -9.213 3.189 -0.916 5.707 8.911 -389.896 -674.860 -3299.950 0.493 -0.096 -0.129 -0.04 0.59 -0.81 0.06
1 7.21 721 -0.752 -9.079 2.878 3.021 6.714 11.688 -389.896 -674.860 -3299.950 0.594 -0.229 0.184 -0.04 0.59 -0.81 0.06
1 7.22 722 -0.747 -8.902 2.811 5.676 7.385 12.421 -299.955 -659.870 -3164.888 0.565 -0.404 0.257 -0.04 0.58 -0.81 0.07
1 7.23 723 -0.867 -8.548 2.959 7.202 8.423 10.986 -299.955 -509.968 -3164.888 0.661 -0.755 0.116 -0.03 0.58 -0.81 0.07
1 7.24 724 -1.010 -8.064 3.036 7.202 11.932 6.775 -419.876 -629.890 -3239.989 0.783 -1.234 0.051 -0.03 0.58 -0.81 0.07
1 7.25 725 -1.259 -7.959 2.864 2.869 14.221 2.228 -419.876 -629.890 -3239.989 1.012 -1.335 0.236 -0.03 0.58 -0.81 0.07
1 7.26 726 -1.508 -8.011 2.552 -3.723 13.672 -3.113 -434.867 -599.909 -3194.869 1.251 -1.280 0.553 -0.03 0.58 -0.81 0.06
1 7.27 727 -1.729 -8.193 2.275 -10.834 5.371 -9.125 -209.863 -674.860 -3119.917 1.473 -1.103 0.817 -0.03 0.58 -0.81 0.06
1 7.28 728 -1.705 -8.217 2.188 -14.008 -2.289 -11.505 -209.863 -674.860 -3119.917 1.463 -1.084 0.888 -0.03 0.58 -0.81 0.06
1 7.29 729 -1.628 -8.303 2.241 -15.106 -7.446 -12.817 -254.984 -674.860 -3194.869 1.406 -1.005 0.816 -0.03 0.59 -0.81 0.06
1 7.30 730 -1.480 -8.734 1.987 -15.259 -14.191 -12.909 -254.984 -674.860 -3194.869 1.276 -0.582 1.048 -0.03 0.59 -0.81 0.06
1 7.31 731 -0.522 -9.194 2.011 -18.555 -31.494 -4.272 -374.906 -629.890 -3209.859 0.339 -0.130 1.000 -0.03 0.59 -0.81 0.06
1 7.32 732 0.292 -9.438 2.888 -24.597 -32.868 2.258 -374.906 -629.890 -3209.859 -0.460 0.104 0.093 -0.03 0.59 -0.81 0.06
1 7.33 733 0.757 -9.462 3.065 -28.259 -21.332 4.272 -464.997 -599.909 -3194.869 -0.911 0.117 -0.119 -0.04 0.59 -0.8 0.06
1 7.34 734 0.517 -9.721 2.447 -23.956 -7.935 0.977 -494.978 -704.991 -3239.989 -0.653 0.352 0.423 -0.04 0.59 -0.8 0.06
1 7.35 735 0.426 -9.912 2.284 -19.653 -6.378 -1.495 -494.978 -704.991 -3239.989 -0.554 0.533 0.552 -0.04 0.59 -0.8 0.06
1 7.36 736 0.503 -9.903 2.471 -17.273 -3.662 -4.303 -419.876 -539.948 -3059.957 -0.619 0.514 0.334 -0.04 0.6 -0.8 0.06
1 7.37 737 0.551 -10.085 2.720 -16.510 3.571 -8.240 -419.876 -539.948 -3059.957 -0.652 0.687 0.057 -0.04 0.6 -0.8 0.06
1 7.38 738 0.546 -10.085 2.907 -13.825 12.787 -12.970 -389.896 -644.880 -3044.966 -0.630 0.680 -0.154 -0.04 0.6 -0.8 0.06
1 7.39 739 0.259 -10.310 2.935 -9.399 31.647 -21.820 -389.896 -644.880 -3044.966 -0.323 0.899 -0.201 -0.04 0.6 -0.8 0.06
1 7.40 740 -0.211 -10.396 2.533 -9.949 48.859 -28.381 -449.857 -539.948 -3164.888 0.169 0.981 0.187 -0.04 0.6 -0.8 0.06
1 7.41 741 -1.317 -10.592 2.030 -13.702 60.150 -31.220 -374.906 -389.896 -3239.989 1.299 1.173 0.676 -0.04 0.6 -0.8 0.05
1 7.42 742 -2.303 -10.726 1.121 -18.860 47.974 -25.787 -374.906 -389.896 -3239.989 2.323 1.295 1.541 -0.03 0.6 -0.8 0.04
1 7.43 743 -2.519 -10.880 0.905 -20.569 25.726 -20.813 -419.876 -464.997 -3134.908 2.558 1.441 1.730 -0.03 0.6 -0.8 0.04
1 7.44 744 -2.260 -11.210 1.073 -15.289 2.960 -17.914 -419.876 -464.997 -3134.908 2.321 1.763 1.534 -0.03 0.6 -0.79 0.04
1 7.45 745 -1.839 -11.411 1.125 -4.395 -16.968 -15.717 -434.867 -449.857 -2939.885 1.927 1.960 1.464 -0.03 0.61 -0.79 0.04
1 7.46 746 -0.321 -11.157 1.690 19.531 -39.795 -6.866 -434.867 -449.857 -2939.885 0.440 1.706 0.898 -0.04 0.61 -0.79 0.04
1 7.47 747 0.498 -10.592 2.509 19.806 -37.018 0.458 -494.978 -434.867 -3134.908 -0.351 1.148 0.102 -0.04 0.6 -0.79 0.04
1 7.48 748 0.455 -10.094 1.911 4.669 -23.529 2.533 -464.997 -599.909 -3119.917 -0.289 0.659 0.731 -0.04 0.6 -0.8 0.04
1 7.49 749 0.101 -9.721 0.321 -9.186 -15.564 -3.815 -464.997 -599.909 -3119.917 0.085 0.284 2.315 -0.04 0.6 -0.8 0.04
1 7.50 750 0.024 -9.410 0.019 0.366 -14.893 -6.226 -419.876 -539.948 -3209.859 0.176 -0.034 2.590 -0.05 0.6 -0.79 0.04
1 7.51 751 0.077 -9.137 0.321 10.651 -11.688 -7.080 -419.876 -539.948 -3209.859 0.137 -0.310 2.277 -0.05 0.6 -0.79 0.04
1 7.52 752 0.043 -8.768 0.484 10.498 -2.747 -7.965 -434.867 -419.876 -3194.869 0.186 -0.679 2.115 -0.05 0.6 -0.79 0.04
1 7.53 753 -0.215 -9.242 1.140 -2.075 -0.916 -3.571 -434.867 -419.876 -3194.869 0.456 -0.203 1.464 -0.05 0.6 -0.79 0.04
1 7.54 754 0.201 -10.980 2.308 -40.314 -30.212 16.693 -674.860 -509.968 -3104.927 0.043 1.530 0.274 -0.05 0.6 -0.79 0.04
1 7.55 755 1.188 -11.205 3.984 -40.680 -31.647 30.670 -449.857 -434.867 -3209.859 -0.953 1.739 -1.459 -0.05 0.61 -0.79 0.05
1 7.56 756 0.690 -11.210 2.112 -19.501 -7.690 9.399 -449.857 -434.867 -3209.859 -0.510 1.714 0.304 -0.05 0.61 -0.79 0.05
1 7.57 757 0.963 -11.215 4.176 12.024 -16.296 -1.160 -359.916 -419.876 -3224.999 -0.786 1.715 -1.776 -0.05 0.61 -0.79 0.05
1 7.58 758 1.336 -11.665 6.024 16.205 -7.477 1.373 -359.916 -419.876 -3224.999 -1.151 2.171 -3.601 -0.05 0.61 -0.79 0.05
1 7.59 759 0.939 -11.890 6.560 -5.676 8.179 15.045 -464.997 -449.857 -3074.947 -0.758 2.400 -4.121 -0.05 0.61 -0.79 0.05
1 7.60 760 0.441 -11.172 5.876 -1.495 27.222 7.294 -509.968 -494.978 -3074.947 -0.287 1.679 -3.447 -0.05 0.61 -0.79 0.05
1 7.61 761 0.120 -10.765 4.578 17.120 33.112 -18.921 -599.909 -509.968 -3059.957 0.009 1.270 -2.156 -0.05 0.61 -0.79 0.05
1 7.62 762 -0.273 -10.679 4.243 23.987 37.323 -29.572 -389.896 -494.978 -3119.917 0.409 1.189 -1.800 -0.05 0.61 -0.79 0.05
1 7.63 763 -0.555 -10.319 4.099 25.055 49.042 -24.414 -389.896 -494.978 -3119.917 0.721 0.839 -1.620 -0.05 0.61 -0.79 0.05
1 7.64 764 -1.360 -9.663 3.352 22.369 70.618 -1.862 -449.857 -584.919 -3104.927 1.544 0.204 -0.797 -0.04 0.61 -0.79 0.04
1 7.65 765 -2.356 -8.868 2.978 22.186 73.456 1.953 -449.857 -584.919 -3104.927 2.503 -0.580 -0.383 -0.04 0.61 -0.79 0.04
1 7.66 766 -3.218 -8.332 2.500 19.287 51.514 -1.465 -449.857 -584.919 -3209.859 3.319 -1.107 0.133 -0.03 0.6 -0.8 0.03
1 7.67 767 -3.424 -7.959 2.548 15.045 15.717 -5.249 -374.906 -464.997 -3134.908 3.490 -1.472 0.115 -0.03 0.6 -0.8 0.03
1 7.68 768 -2.993 -8.303 2.854 17.090 -31.189 -2.625 -389.896 -524.958 -3149.898 3.039 -1.121 -0.168 -0.03 0.6 -0.8 0.03
1 7.69 769 -2.160 -8.303 3.132 22.400 -50.965 6.683 -419.876 -584.919 -3239.989 2.197 -1.114 -0.419 -0.03 0.6 -0.8 0.03
1 7.70 770 -1.097 -8.404 3.539 29.053 -59.815 18.097 -419.876 -584.919 -3239.989 1.127 -1.003 -0.792 -0.03 0.6 -0.8 0.04
1 7.71 771 0.431 -8.169 4.559 25.635 -53.284 31.036 -344.925 -584.919 -3209.859 -0.427 -1.209 -1.714 -0.03 0.59 -0.8 0.05
1 7.72 772 0.804 -8.217 4.889 13.214 -42.511 35.614 -344.925 -584.919 -3209.859 -0.822 -1.147 -1.998 -0.04 0.59 -0.8 0.05
1 7.73 773 0.939 -8.586 4.870 3.052 -33.600 35.645 -374.906 -539.948 -3209.859 -0.982 -0.768 -1.947 -0.04 0.59 -0.8 0.05
1 7.74 774 0.881 -9.113 5.062 0.702 -29.419 34.027 -434.867 -719.981 -3254.979 -0.953 -0.235 -2.119 -0.04 0.59 -0.8 0.06
1 7.75 775 0.800 -9.060 4.669 11.078 -31.647 24.719 -569.929 -584.919 -3164.888 -0.897 -0.281 -1.708 -0.04 0.59 -0.8 0.06
1 7.76 776 0.919 -8.773 4.468 17.853 -35.370 17.639 -359.916 -644.880 -3224.999 -1.034 -0.560 -1.479 -0.04 0.59 -0.81 0.06
1 7.77 777 1.250 -8.351 4.420 17.944 -35.034 11.597 -359.916 -644.880 -3224.999 -1.367 -0.969 -1.394 -0.04 0.59 -0.81 0.07
1 7.78 778 1.619 -8.141 4.147 8.728 -23.254 4.211 -509.968 -419.876 -3224.999 -1.715 -1.157 -1.050 -0.04 0.58 -0.81 0.07
1 7.79 779 1.724 -8.026 3.984 2.930 -12.360 -0.610 -509.968 -419.876 -3224.999 -1.802 -1.265 -0.866 -0.04 0.58 -0.81 0.07
1 7.80 780 1.604 -8.074 4.123 0.916 -2.594 -5.615 -389.896 -449.857 -3404.882 -1.660 -1.213 -0.992 -0.05 0.58 -0.81 0.07
1 7.81 781 1.671 -8.169 4.094 -1.251 2.228 -10.925 -389.896 -524.958 -3254.979 -1.702 -1.114 -0.953 -0.05 0.58 -0.81 0.07
1 7.82 782 1.532 -8.399 4.195 -3.601 7.294 -17.273 -389.896 -524.958 -3224.999 -1.534 -0.881 -1.047 -0.05 0.58 -0.81 0.07
1 7.83 783 1.183 -8.897 4.042 -3.998 17.761 -27.527 -464.997 -644.880 -3329.931 -1.149 -0.382 -0.890 -0.05 0.58 -0.81 0.06
1 7.84 784 0.757 -9.256 3.644 1.190 18.677 -31.128 -464.997 -644.880 -3329.931 -0.682 -0.022 -0.490 -0.05 0.58 -0.81 0.06
1 7.85 785 0.532 -9.596 3.567 8.667 17.609 -28.473 -434.867 -494.978 -3329.931 -0.414 0.321 -0.407 -0.05 0.58 -0.81 0.06
1 7.86 786 0.335 -9.175 3.759 14.496 19.806 -23.621 -434.867 -494.978 -3329.931 -0.148 -0.087 -0.562 -0.05 0.58 -0.81 0.05
1 7.87 787 0.134 -8.959 3.496 13.123 18.982 -20.172 -449.857 -389.896 -3284.960 0.078 -0.293 -0.273 -0.05 0.58 -0.81 0.05
1 7.88 788 -0.134 -8.758 3.424 6.866 14.893 -16.815 -629.890 -629.890 -3239.989 0.366 -0.486 -0.180 -0.05 0.58 -0.81 0.05
1 7.89 789 -0.388 -8.691 3.280 -1.892 1.160 -12.573 -434.867 -449.857 -3374.901 0.634 -0.549 -0.025 -0.05 0.58 -0.81 0.05
1 7.90 790 -0.369 -8.921 3.362 -0.946 -8.942 -10.040 -599.909 -734.971 -3284.960 0.628 -0.319 -0.106 -0.05 0.58 -0.81 0.05
1 7.91 791 -0.072 -8.902 3.486 4.700 -16.602 -8.820 -599.909 -734.971 -3284.960 0.346 -0.337 -0.230 -0.05 0.58 -0.81 0.05
1 7.92 792 0.158 -8.945 3.989 11.536 -21.545 -8.026 -449.857 -704.991 -3209.859 0.134 -0.291 -0.727 -0.05 0.58 -0.82 0.05
1 7.93 793 0.374 -8.878 3.965 15.717 -22.125 -7.599 -449.857 -704.991 -3209.859 -0.041 -0.342 -0.661 -0.05 0.57 -0.82 0.05
1 7.94 794 0.421 -8.758 3.864 17.273 -22.553 -7.172 -434.867 -524.958 -3404.882 -0.066 -0.451 -0.532 -0.06 0.57 -0.82 0.05
1 7.95 795 0.551 -8.591 3.884 17.426 -20.508 -6.989 -464.997 -599.909 -3329.931 -0.173 -0.607 -0.522 -0.06 0.57 -0.82 0.05
1 7.96 796 0.575 -8.514 3.692 17.639 -15.686 -5.676 -629.890 -704.991 -3419.872 -0.175 -0.672 -0.300 -0.06 0.57 -0.82 0.05
1 7.97 797 0.493 -8.394 3.544 15.961 -10.162 -3.174 -569.929 -629.890 -3419.872 -0.077 -0.780 -0.124 -0.06 0.57 -0.82 0.05
1 7.98 798 0.062 -8.481 3.007 11.993 -5.096 -1.740 -569.929 -629.890 -3419.872 0.365 -0.684 0.437 -0.06 0.57 -0.82 0.05
1 7.99 799 -0.081 -8.581 2.892 6.775 -9.735 -0.732 -584.919 -674.860 -3404.882 0.515 -0.576 0.572 -0.06 0.57 -0.82 0.05
1 8.00 800 0.148 -8.859 2.725 -1.068 -22.766 0.702 -584.919 -674.860 -3404.882 0.295 -0.294 0.750 -0.06 0.56 -0.82 0.05
1 8.01 801 0.618 -9.256 2.658 -2.747 -28.626 2.808 -614.899 -674.860 -3374.901 -0.164 0.102 0.810 -0.06 0.56 -0.82 0.05
1 8.02 802 1.092 -9.481 3.002 -1.007 -27.649 5.188 -599.909 -809.922 -3314.940 -0.627 0.323 0.455 -0.07 0.57 -0.82 0.05
1 8.03 803 1.144 -9.740 3.113 1.373 -21.362 7.629 -599.909 -809.922 -3314.940 -0.670 0.580 0.339 -0.07 0.57 -0.82 0.05
1 8.04 804 1.178 -9.702 3.089 4.730 -14.618 13.336 -674.860 -704.991 -3494.973 -0.699 0.542 0.362 -0.07 0.57 -0.82 0.06
1 8.05 805 1.106 -9.702 3.069 6.531 -14.832 15.656 -674.860 -704.991 -3494.973 -0.630 0.542 0.382 -0.07 0.56 -0.82 0.06
1 8.06 806 1.235 -9.491 3.160 6.287 -14.435 15.381 -764.952 -794.932 -3404.882 -0.766 0.333 0.296 -0.07 0.56 -0.82 0.06
1 8.07 807 1.331 -9.314 3.204 8.240 -13.519 13.702 -764.952 -794.932 -3404.882 -0.870 0.157 0.258 -0.07 0.56 -0.82 0.06
1 8.08 808 1.451 -9.070 3.180 11.963 -12.177 10.864 -659.870 -599.909 -3449.853 -0.998 -0.080 0.301 -0.07 0.56 -0.82 0.06
1 8.09 809 1.437 -8.969 3.189 15.106 -13.397 9.308 -509.968 -599.909 -3299.950 -0.983 -0.175 0.307 -0.07 0.56 -0.82 0.06
1 8.10 810 1.633 -8.677 3.146 16.876 -12.848 7.477 -509.968 -599.909 -3299.950 -1.176 -0.459 0.370 -0.07 0.56 -0.82 0.06
1 8.11 811 1.858 -8.615 3.433 16.266 -11.597 4.272 -584.919 -644.880 -3404.882 -1.394 -0.512 0.105 -0.07 0.56 -0.82 0.06
1 8.12 812 2.260 -8.572 3.534 7.996 -5.188 -0.427 -584.919 -644.880 -3404.882 -1.785 -0.547 0.026 -0.07 0.56 -0.82 0.06
1 8.13 813 2.519 -8.854 3.783 2.563 3.540 -2.899 -659.870 -749.961 -3554.934 -2.027 -0.258 -0.209 -0.07 0.56 -0.82 0.06
1 8.14 814 2.447 -9.132 3.706 -1.129 15.869 -7.294 -659.870 -749.961 -3554.934 -1.938 0.024 -0.125 -0.07 0.56 -0.82 0.06
1 8.15 815 2.045 -9.596 3.424 -6.012 36.377 -11.261 -690.000 -494.978 -3554.934 -1.505 0.491 0.159 -0.07 0.56 -0.82 0.06
1 8.16 816 1.470 -9.730 3.314 -8.392 48.584 -12.878 -749.961 -704.991 -3464.993 -0.923 0.623 0.264 -0.07 0.56 -0.82 0.06
1 8.17 817 0.948 -9.903 3.012 -15.442 56.305 -13.275 -749.961 -704.991 -3464.993 -0.402 0.791 0.554 -0.07 0.56 -0.82 0.05
1 8.18 818 0.335 -9.922 2.806 -18.311 57.343 -11.688 -749.961 -584.919 -3539.944 0.204 0.801 0.738 -0.07 0.56 -0.82 0.05
1 8.19 819 -0.148 -9.836 2.251 -18.921 48.676 -11.017 -569.929 -659.870 -3599.905 0.673 0.704 1.267 -0.06 0.56 -0.82 0.05
1 8.20 820 -0.153 -9.769 1.858 -18.402 37.232 -8.972 -704.991 -629.890 -3464.993 0.664 0.624 1.629 -0.06 0.56 -0.82 0.04
1 8.21 821 -0.196 -9.735 1.686 -14.252 26.672 -6.744 -704.991 -629.890 -3464.993 0.695 0.578 1.768 -0.06 0.57 -0.82 0.04
1 8.22 822 -0.120 -9.496 1.566 -12.451 17.670 -3.143 -569.929 -584.919 -3494.973 0.600 0.315 1.828 -0.06 0.57 -0.82 0.04
1 8.23 823 0.148 -9.323 1.551 -12.421 6.561 2.716 -464.997 -644.880 -3479.983 0.323 0.131 1.812 -0.06 0.57 -0.82 0.04
1 8.24 824 0.512 -9.189 1.432 -11.383 4.730 6.836 -464.997 -644.880 -3479.983 -0.050 -0.014 1.903 -0.06 0.57 -0.82 0.04
1 8.25 825 0.666 -9.208 1.575 -12.116 4.303 9.705 -509.968 -719.981 -3404.882 -0.215 -0.005 1.732 -0.06 0.57 -0.82 0.04
1 8.26 826 0.632 -9.204 1.729 -14.221 3.967 13.184 -464.997 -644.880 -3449.853 -0.196 -0.021 1.550 -0.05 0.57 -0.82 0.04
1 8.27 827 0.450 -9.410 2.069 -15.991 1.495 12.512 -374.906 -659.870 -3419.872 -0.033 0.173 1.179 -0.05 0.58 -0.81 0.04
1 8.28 828 0.263 -9.678 3.132 -18.982 1.770 7.141 -374.906 -659.870 -3419.872 0.136 0.429 0.085 -0.05 0.58 -0.81 0.04
1 8.29 829 -0.110 -10.109 4.415 -28.565 8.087 -6.958 -329.935 -674.860 -3509.963 0.497 0.849 -1.229 -0.05 0.58 -0.81 0.04
1 8.30 830 -1.077 -11.531 4.803 -40.161 10.529 -21.759 -569.929 -584.919 -3464.993 1.486 2.243 -1.704 -0.05 0.58 -0.81 0.04
1 8.31 831 -1.216 -12.216 4.089 -37.964 -1.160 -10.712 -569.929 -584.919 -3464.993 1.651 2.910 -1.046 -0.05 0.58 -0.81 0.04
1 8.32 832 -0.584 -12.407 3.735 -25.971 -18.494 8.301 -419.876 -539.948 -3419.872 1.031 3.086 -0.743 -0.05 0.59 -0.81 0.04
1 8.33 833 0.086 -11.885 4.008 -8.118 -33.295 17.975 -509.968 -494.978 -3449.853 0.355 2.553 -1.048 -0.05 0.59 -0.81 0.04
1 8.34 834 1.144 -10.468 4.295 8.423 -38.117 3.601 -659.870 -449.857 -3509.963 -0.711 1.133 -1.343 -0.06 0.59 -0.81 0.04
1 8.35 835 0.986 -10.181 4.492 7.446 -25.757 -1.038 -659.870 -449.857 -3509.963 -0.544 0.849 -1.531 -0.06 0.59 -0.81 0.04
1 8.36 836 0.417 -10.358 4.109 -2.045 -9.369 9.491 -584.919 -524.958 -3449.853 0.042 1.030 -1.137 -0.06 0.59 -0.81 0.04
1 8.37 837 0.441 -10.051 3.295 -17.090 -5.127 27.863 -539.948 -494.978 -3404.882 -0.010 0.718 -0.338 -0.06 0.59 -0.81 0.05
1 8.38 838 0.584 -9.682 3.223 -15.686 -11.414 29.144 -539.948 -494.978 -3404.882 -0.190 0.340 -0.289 -0.06 0.59 -0.8 0.05
1 8.39 839 0.848 -9.510 3.635 -8.850 -17.334 26.032 -629.890 -584.919 -3419.872 -0.486 0.160 -0.721 -0.06 0.59 -0.8 0.05
1 8.40 840 1.049 -9.319 4.147 -1.221 -17.426 23.224 -434.867 -374.906 -3329.931 -0.710 -0.034 -1.240 -0.06 0.59 -0.8 0.05
1 8.41 841 1.159 -8.821 4.564 3.937 -6.805 22.339 -659.870 -524.958 -3329.931 -0.840 -0.531 -1.649 -0.06 0.59 -0.8 0.05
1 8.42 842 0.790 -8.016 4.745 4.272 10.620 20.935 -659.870 -524.958 -3329.931 -0.494 -1.330 -1.812 -0.06 0.59 -0.8 0.05
1 8.43 843 0.364 -7.973 4.688 0.885 13.214 17.548 -419.876 -314.945 -3359.911 -0.094 -1.367 -1.733 -0.06 0.59 -0.8 0.06
1 8.44 844 0.043 -7.796 4.683 -1.373 10.132 8.698 -419.876 -539.948 -3599.905 0.175 -1.535 -1.695 -0.05 0.59 -0.81 0.06
1 8.45 845 -0.139 -7.939 4.453 -1.068 11.536 -1.862 -419.876 -539.948 -3599.905 0.344 -1.387 -1.451 -0.05 0.59 -0.81 0.06
1 8.46 846 -0.666 -8.203 4.420 1.190 11.963 -8.820 -419.876 -464.997 -3359.911 0.870 -1.119 -1.403 -0.05 0.59 -0.81 0.05
1 8.47 847 -1.192 -8.217 4.362 3.021 4.547 -9.430 -359.916 -419.876 -3449.853 1.401 -1.099 -1.330 -0.05 0.59 -0.81 0.05
1 8.48 848 -1.006 -8.715 4.200 -6.897 -7.172 -3.357 -494.978 -464.997 -3389.892 1.217 -0.596 -1.150 -0.05 0.58 -0.81 0.05
1 8.49 849 -0.800 -8.931 4.396 -17.578 -9.064 1.312 -494.978 -464.997 -3389.892 1.010 -0.379 -1.341 -0.05 0.58 -0.81 0.05
1 8.50 850 -0.551 -9.347 4.453 -21.820 -8.728 5.096 -464.997 -374.906 -3374.901 0.757 0.034 -1.410 -0.05 0.58 -0.81 0.05
1 8.51 851 -0.086 -9.730 4.549 -19.501 -5.096 9.552 -494.978 -659.870 -3389.892 0.285 0.411 -1.525 -0.05 0.59 -0.81 0.05
1 8.52 852 -0.110 -10.013 4.396 -8.026 9.460 16.846 -494.978 -659.870 -3389.892 0.276 0.682 -1.406 -0.05 0.59 -0.81 0.06
1 8.53 853 -0.555 -9.649 4.161 3.448 22.034 22.522 -449.857 -359.916 -3284.960 0.691 0.315 -1.177 -0.05 0.59 -0.81 0.06
1 8.54 854 -0.929 -9.237 3.793 10.223 28.259 26.459 -389.896 -419.876 -3479.983 1.017 -0.091 -0.791 -0.05 0.59 -0.81 0.06
1 8.55 855 -1.374 -8.691 3.601 7.629 27.649 27.161 -344.925 -284.964 -3464.993 1.405 -0.631 -0.578 -0.04 0.59 -0.81 0.06
1 8.56 856 -1.757 -8.212 3.041 -3.204 20.294 16.876 -344.925 -284.964 -3464.993 1.730 -1.105 -0.003 -0.04 0.59 -0.81 0.06
1 8.57 857 -2.035 -8.370 2.615 -10.223 9.216 11.505 -329.935 -419.876 -3404.882 1.960 -0.946 0.426 -0.04 0.59 -0.81 0.06
1 8.58 858 -2.078 -8.524 2.557 -14.618 -2.838 8.057 -254.984 -494.978 -3479.983 1.974 -0.796 0.473 -0.04 0.59 -0.81 0.06
1 8.59 859 -1.551 -8.792 2.753 -15.625 -15.259 7.080 -254.984 -494.978 -3479.983 1.402 -0.540 0.234 -0.03 0.59 -0.81 0.06
1 8.60 860 -1.192 -9.026 2.916 -16.907 -16.541 8.820 -374.906 -509.968 -3494.973 1.029 -0.313 0.049 -0.03 0.59 -0.8 0.06
1 8.61 861 -0.953 -9.079 3.007 -17.181 -15.137 11.414 -374.906 -464.997 -3314.940 0.776 -0.267 -0.065 -0.03 0.59 -0.8 0.06
1 8.62 862 -0.637 -9.223 2.969 -15.259 -11.993 13.245 -374.906 -464.997 -3314.940 0.444 -0.130 -0.049 -0.03 0.59 -0.8 0.06
1 8.63 863 -0.599 -9.400 2.983 -9.552 -5.402 14.710 -389.896 -419.876 -3449.853 0.389 0.042 -0.082 -0.03 0.59 -0.8 0.06
1 8.64 864 -0.666 -9.290 2.983 -3.326 -2.563 15.808 -359.916 -374.906 -3449.853 0.436 -0.072 -0.094 -0.03 0.59 -0.8 0.06
1 8.65 865 -0.733 -9.414 2.811 2.014 -2.289 15.595 -284.964 -494.978 -3329.931 0.481 0.052 0.073 -0.03 0.59 -0.8 0.07
1 8.66 866 -0.967 -8.974 2.729 8.575 -6.317 15.839 -284.964 -494.978 -3329.931 0.667 -0.384 0.165 -0.03 0.59 -0.8 0.07
1 8.67 867 -0.771 -8.337 2.639 9.003 -11.139 15.839 -284.964 -494.978 -3449.853 0.447 -1.016 0.270 -0.03 0.59 -0.8 0.07
1 8.68 868 -0.498 -8.107 2.538 7.416 -12.604 15.228 -194.873 -359.916 -3389.892 0.156 -1.241 0.384 -0.03 0.59 -0.8 0.07
1 8.69 869 -0.321 -7.762 2.677 4.974 -10.742 14.130 -194.873 -359.916 -3389.892 -0.036 -1.582 0.256 -0.03 0.59 -0.8 0.07
1 8.70 870 -0.163 -7.738 2.768 2.625 -5.280 11.932 -284.964 -449.857 -3449.853 -0.209 -1.603 0.173 -0.03 0.59 -0.8 0.07
1 8.71 871 -0.302 -7.839 2.619 -1.282 0.732 7.233 -299.955 -389.896 -3314.940 -0.083 -1.500 0.325 -0.03 0.59 -0.8 0.07
1 8.72 872 -0.599 -7.997 2.768 -4.242 3.876 2.014 -164.893 -434.867 -3284.960 0.203 -1.342 0.177 -0.03 0.59 -0.8 0.07
1 8.73 873 -0.828 -8.423 2.720 -4.913 3.937 -0.610 -164.893 -434.867 -3284.960 0.428 -0.917 0.220 -0.03 0.59 -0.8 0.07
1 8.74 874 -0.795 -8.605 3.046 -1.678 3.387 -3.448 -299.955 -434.867 -3359.911 0.392 -0.738 -0.115 -0.03 0.59 -0.8 0.07
1 8.75 875 -0.623 -8.514 3.204 -4.486 6.866 -5.615 -419.876 -239.994 -3239.989 0.222 -0.829 -0.273 -0.03 0.59 -0.8 0.07
1 8.76 876 -0.637 -8.730 3.113 -10.712 13.428 -11.200 -419.876 -239.994 -3239.989 0.241 -0.615 -0.187 -0.03 0.59 -0.8 0.07
1 8.77 877 -0.795 -9.098 2.749 -18.005 19.104 -15.381 -329.935 -419.876 -3404.882 0.410 -0.252 0.161 -0.03 0.59 -0.8 0.07
1 8.78 878 -1.087 -9.625 2.260 -24.353 16.083 -20.966 -344.925 -389.896 -3389.892 0.716 0.266 0.622 -0.03 0.59 -0.8 0.07
1 8.79 879 -1.097 -10.032 2.418 -22.858 11.841 -20.294 -284.964 -449.857 -3329.931 0.743 0.661 0.427 -0.03 0.6 -0.8 0.06
1 8.80 880 -0.972 -10.171 2.509 -16.937 7.477 -19.623 -284.964 -449.857 -3329.931 0.638 0.787 0.297 -0.02 0.6 -0.8 0.06
1 8.81 881 -0.613 -10.176 2.615 -9.064 -0.061 -18.738 -254.984 -374.906 -3404.882 0.321 0.776 0.141 -0.03 0.6 -0.8 0.06
1 8.82 882 -0.364 -10.022 2.327 -6.744 -3.448 -18.707 -329.935 -329.935 -3449.853 0.097 0.618 0.414 -0.03 0.6 -0.8 0.06
1 8.83 883 0.110 -10.090 2.059 -3.693 -5.341 -16.541 -329.935 -329.935 -3449.853 -0.349 0.680 0.671 -0.03 0.6 -0.8 0.06
1 8.84 884 0.412 -9.750 2.006 1.617 -6.134 -12.085 -194.873 -389.896 -3464.993 -0.623 0.338 0.716 -0.03 0.6 -0.8 0.06
1 8.85 885 0.623 -9.395 2.322 2.258 -0.458 -8.728 -374.906 -314.945 -3284.960 -0.811 -0.018 0.399 -0.03 0.6 -0.8 0.05
1 8.86 886 0.656 -9.553 1.987 -9.766 15.289 -8.453 -179.883 -449.857 -3299.950 -0.827 0.140 0.733 -0.03 0.6 -0.8 0.05
1 8.87 887 0.168 -9.922 2.011 -16.968 24.475 -9.644 -179.883 -449.857 -3299.950 -0.324 0.504 0.695 -0.03 0.6 -0.8 0.05
1 8.88 888 -0.503 -10.372 2.064 -15.839 32.135 -13.519 -299.955 -209.863 -3569.924 0.364 0.938 0.585 -0.03 0.6 -0.8 0.05
1 8.89 889 -1.049 -10.846 1.949 -14.862 30.548 -15.625 -374.906 -434.867 -3539.944 0.916 1.404 0.672 -0.03 0.6 -0.79 0.05
1 8.90 890 -1.446 -10.985 2.102 -9.491 26.611 -15.167 -374.906 -434.867 -3539.944 1.323 1.536 0.496 -0.02 0.61 -0.79 0.04
1 8.91 891 -1.451 -11.009 1.891 -2.228 20.874 -12.665 -389.896 -299.955 -3299.950 1.340 1.557 0.696 -0.02 0.61 -0.79 0.04
1 8.92 892 -1.508 -10.655 1.197 9.003 10.681 -13.275 -344.925 -284.964 -3389.892 1.409 1.203 1.390 -0.02 0.61 -0.79 0.04
1 8.93 893 -1.475 -10.353 1.116 14.313 2.258 -13.214 -344.925 -434.867 -3284.960 1.391 0.904 1.482 -0.02 0.61 -0.79 0.04
1 8.94 894 -1.379 -9.999 0.905 15.595 -3.082 -12.360 -344.925 -434.867 -3284.960 1.308 0.553 1.706 -0.02 0.61 -0.79 0.04
1 8.95 895 -1.441 -9.908 0.833 11.231 -6.134 -9.369 -269.974 -314.945 -3419.872 1.379 0.465 1.789 -0.02 0.6 -0.8 0.04
1 8.96 896 -1.192 -9.960 0.943 -2.747 -12.543 -2.777 -254.984 -224.854 -3479.983 1.142 0.518 1.681 -0.02 0.6 -0.8 0.04
1 8.97 897 -1.092 -10.717 1.403 -14.038 -18.036 2.319 -254.984 -224.854 -3479.983 1.041 1.269 1.201 -0.02 0.61 -0.79 0.04
1 8.98 898 -0.872 -11.684 2.050 -23.102 -28.137 14.710 -284.964 -254.984 -3374.901 0.818 2.229 0.526 -0.03 0.61 -0.79 0.04
1 8.99 899 0.019 -12.182 2.773 -24.597 -40.711 26.886 -179.883 -299.955 -3404.882 -0.085 2.718 -0.232 -0.03 0.61 -0.79 0.04
1 9.00 900 1.346 -11.727 3.711 -13.397 -33.173 22.583 -389.896 -299.955 -3479.983 -1.434 2.254 -1.202 -0.03 0.61 -0.79 0.04
1 9.01 901 1.767 -11.593 3.840 -11.810 -7.721 14.282 -389.896 -299.955 -3479.983 -1.876 2.115 -1.352 -0.03 0.61 -0.79 0.05
1 9.02 902 1.068 -11.540 3.572 -14.923 18.372 6.012 -449.857 -89.941 -3419.872 -1.194 2.058 -1.100 -0.03 0.61 -0.79 0.05
1 9.03 903 0.091 -12.556 2.480 -20.935 29.511 1.465 -224.854 -239.994 -3389.892 -0.245 3.062 -0.053 -0.03 0.61 -0.79 0.05
1 9.04 904 -0.464 -13.020 2.567 -11.505 20.172 11.993 -224.854 -239.994 -3389.892 0.296 3.520 -0.168 -0.02 0.61 -0.79 0.05
1 9.05 905 -0.187 -11.928 3.041 10.193 11.261 14.526 -419.876 -209.863 -3359.911 -0.007 2.426 -0.650 -0.02 0.61 -0.79 0.05
1 9.06 906 0.306 -10.784 2.964 22.766 12.085 1.373 -419.876 -209.863 -3359.911 -0.520 1.288 -0.553 -0.02 0.61 -0.79 0.05
1 9.07 907 -0.077 -10.300 2.624 24.506 30.884 -19.531 -254.984 -254.984 -3404.882 -0.137 0.813 -0.178 -0.02 0.61 -0.79 0.04
1 9.08 908 -0.699 -10.473 2.265 22.186 39.215 -19.196 -254.984 -254.984 -3404.882 0.504 0.994 0.218 -0.02 0.61 -0.79 0.04
1 9.09 909 -1.317 -9.970 2.433 20.935 39.734 -11.658 -254.984 -329.935 -3404.882 1.137 0.499 0.081 -0.02 0.61 -0.79 0.04
1 9.10 910 -1.844 -9.472 2.318 21.301 27.618 -14.954 -284.964 -299.955 -3329.931 1.659 0.016 0.250 -0.01 0.61 -0.79 0.03
1 9.11 911 -2.308 -8.528 2.169 22.095 10.437 -20.020 -284.964 -299.955 -3329.931 2.126 -0.919 0.429 -0.01 0.61 -0.79 0.03
1 9.12 912 -2.361 -8.011 2.136 17.914 -8.881 -19.501 -359.916 -254.984 -3404.882 2.191 -1.428 0.492 -0.01 0.6 -0.8 0.03
1 9.13 913 -2.308 -8.002 2.375 11.719 -24.811 -14.404 -359.916 -254.984 -3404.882 2.163 -1.432 0.276 -0.01 0.6 -0.8 0.03
1 9.14 914 -2.026 -7.916 2.935 8.789 -36.163 -8.362 -104.932 -449.857 -3449.853 1.911 -1.514 -0.267 -0.02 0.6 -0.8 0.03
1 9.15 915 -1.097 -7.911 3.567 7.690 -46.509 -1.099 -104.932 -449.857 -3449.853 1.009 -1.515 -0.886 -0.02 0.6 -0.8 0.03
1 9.16 916 -0.599 -7.968 3.850 8.972 -47.760 1.953 -329.935 -299.955 -3554.934 0.533 -1.454 -1.155 -0.02 0.6 -0.8 0.04
1 9.17 917 -0.014 -7.753 4.224 14.069 -45.075 4.913 -254.984 -299.955 -3554.934 -0.035 -1.664 -1.510 -0.03 0.6 -0.8 0.04
1 9.18 918 0.369 -7.513 4.247 19.623 -35.401 9.918 -254.984 -299.955 -3554.934 -0.397 -1.882 -1.461 -0.03 0.6 -0.8 0.04
1 9.19 919 0.541 -7.317 4.118 15.015 -26.978 13.214 -434.867 -254.984 -3404.882 -0.570 -2.070 -1.303 -0.03 0.6 -0.8 0.04
1 9.20 920 0.680 -7.346 4.396 6.531 -21.454 15.350 -434.867 -254.984 -3404.882 -0.716 -2.035 -1.562 -0.03 0.6 -0.8 0.05
1 9.21 921 0.924 -7.743 4.477 -2.289 -12.573 15.472 -434.867 -299.955 -3554.934 -0.973 -1.636 -1.636 -0.03 0.59 -0.8 0.05
1 9.22 922 0.862 -8.203 4.338 -7.568 4.639 13.153 -434.867 -299.955 -3554.934 -0.924 -1.175 -1.494 -0.03 0.59 -0.8 0.05
1 9.23 923 0.469 -8.457 4.123 -5.432 11.200 11.108 -434.867 -494.978 -3449.853 -0.543 -0.920 -1.274 -0.03 0.59 -0.8 0.05
1 9.24 924 0.024 -8.696 4.123 -3.357 14.984 8.392 -269.974 -464.997 -3419.872 -0.111 -0.679 -1.270 -0.03 0.59 -0.8 0.05
1 9.25 925 -0.503 -8.902 3.711 -4.761 8.453 2.197 -269.974 -464.997 -3419.872 0.389 -0.469 -0.847 -0.03 0.59 -0.8 0.05
1 9.26 926 -0.694 -8.935 3.443 -5.066 -4.578 -1.221 -374.906 -239.994 -3494.973 0.575 -0.435 -0.578 -0.03 0.59 -0.8 0.05
1 9.27 927 -0.455 -8.974 3.419 -5.310 -20.050 -3.143 -374.906 -239.994 -3494.973 0.339 -0.397 -0.554 -0.03 0.59 -0.8 0.05
1 9.28 928 0.057 -8.916 3.299 -3.815 -30.762 -5.005 -434.867 -374.906 -3479.983 -0.161 -0.456 -0.437 -0.03 0.59 -0.8 0.05
1 9.29 929 0.402 -8.983 3.429 -3.693 -35.706 -7.172 -434.867 -374.906 -3479.983 -0.482 -0.389 -0.566 -0.03 0.59 -0.8 0.05
1 9.30 930 0.900 -9.041 3.309 -4.700 -35.858 -9.003 -329.935 -299.955 -3509.963 -0.950 -0.331 -0.446 -0.04 0.59 -0.8 0.05
1 9.31 931 1.049 -9.323 3.395 -7.019 -33.997 -7.782 -224.854 -284.964 -3464.993 -1.063 -0.049 -0.532 -0.04 0.59 -0.8 0.05
1 9.32 932 1.264 -9.414 3.496 -4.700 -24.139 -4.334 -224.854 -284.964 -3464.993 -1.214 0.039 -0.644 -0.04 0.59 -0.8 0.05
1 9.33 933 1.116 -9.405 3.429 -1.953 -15.198 -2.869 -449.857 -239.994 -3539.944 -1.040 0.029 -0.577 -0.04 0.59 -0.8 0.05
1 9.34 934 0.948 -9.381 3.247 0.305 -7.111 -2.075 -449.857 -239.994 -3539.944 -0.854 0.006 -0.392 -0.05 0.59 -0.8 0.05
1 9.35 935 0.757 -9.338 2.998 0.183 -2.350 -0.946 -569.929 -389.896 -3539.944 -0.649 -0.035 -0.139 -0.05 0.59 -0.8 0.05
1 9.36 936 0.469 -9.247 2.926 2.930 -2.106 -0.763 -299.955 -284.964 -3599.905 -0.353 -0.125 -0.064 -0.05 0.59 -0.8 0.05
1 9.37 937 0.388 -9.204 2.758 4.822 -4.852 -2.106 -659.870 -329.935 -3509.963 -0.266 -0.167 0.108 -0.05 0.59 -0.8 0.05
1 9.38 938 0.512 -9.094 2.864 5.859 -7.111 -3.479 -494.978 -239.994 -3599.905 -0.382 -0.275 0.010 -0.05 0.59 -0.8 0.05
1 9.39 939 0.503 -9.017 2.729 4.303 -10.956 -5.676 -494.978 -239.994 -3599.905 -0.362 -0.349 0.153 -0.05 0.59 -0.8 0.05
1 9.40 940 0.532 -8.945 2.667 1.282 -16.022 -6.653 -419.876 -284.964 -3539.944 -0.356 -0.416 0.227 -0.05 0.59 -0.8 0.05
1 9.41 941 0.541 -9.132 2.500 0.061 -18.555 -8.301 -419.876 -284.964 -3539.944 -0.345 -0.228 0.396 -0.05 0.59 -0.8 0.05
1 9.42 942 0.680 -9.242 2.629 -2.258 -19.562 -9.033 -659.870 -374.906 -3479.983 -0.460 -0.119 0.265 -0.05 0.59 -0.8 0.05
1 9.43 943 0.666 -9.280 2.658 -2.747 -19.867 -9.460 -449.857 -239.994 -3599.905 -0.419 -0.081 0.231 -0.05 0.59 -0.8 0.05
1 9.44 944 0.436 -9.467 2.600 0.488 -17.151 -7.019 -614.899 -299.955 -3509.963 -0.163 0.105 0.284 -0.06 0.59 -0.8 0.05
1 9.45 945 0.445 -9.601 2.653 3.906 -18.677 -2.930 -569.929 -389.896 -3464.993 -0.150 0.239 0.230 -0.06 0.59 -0.8 0.05
1 9.46 946 0.431 -9.668 2.686 10.162 -24.567 1.740 -569.929 -389.896 -3464.993 -0.120 0.307 0.198 -0.06 0.59 -0.8 0.05
1 9.47 947 0.737 -9.515 2.940 12.329 -31.891 4.944 -734.971 -299.955 -3479.983 -0.404 0.163 -0.030 -0.06 0.59 -0.8 0.06
1 9.48 948 1.101 -9.462 2.993 11.261 -32.532 5.737 -734.971 -299.955 -3479.983 -0.758 0.116 -0.067 -0.06 0.59 -0.8 0.06
1 9.49 949 1.302 -9.309 3.050 9.583 -27.893 5.310 -584.919 -329.935 -3629.885 -0.947 -0.033 -0.109 -0.07 0.59 -0.8 0.06
1 9.50 950 1.207 -9.314 3.117 8.423 -19.623 4.120 -599.909 -284.964 -3539.944 -0.840 -0.023 -0.162 -0.07 0.59 -0.8 0.06
1 9.51 951 0.699 -9.501 2.878 2.106 -9.613 1.770 -614.899 -329.935 -3629.885 -0.322 0.168 0.088 -0.07 0.59 -0.8 0.06
1 9.52 952 0.627 -9.438 2.639 0.854 -7.629 1.770 -674.860 -284.964 -3389.892 -0.242 0.107 0.332 -0.07 0.59 -0.8 0.06
1 9.53 953 0.560 -9.568 2.356 2.533 -9.949 1.434 -674.860 -284.964 -3389.892 -0.171 0.237 0.615 -0.07 0.59 -0.8 0.06
1 9.54 954 0.718 -9.529 2.433 7.355 -11.200 -0.397 -749.961 -284.964 -3569.924 -0.318 0.200 0.541 -0.07 0.59 -0.8 0.06
1 9.55 955 0.828 -9.280 2.514 9.857 -8.087 -1.404 -749.961 -284.964 -3569.924 -0.419 -0.046 0.467 -0.07 0.59 -0.81 0.06
1 9.56 956 0.747 -9.070 2.423 11.932 -6.897 -1.862 -629.890 -434.867 -3539.944 -0.328 -0.253 0.570 -0.07 0.58 -0.81 0.06
1 9.57 957 0.742 -8.998 2.399 9.399 -10.468 -1.556 -629.890 -359.916 -3719.977 -0.313 -0.319 0.608 -0.07 0.58 -0.81 0.06
1 9.58 958 0.804 -8.907 2.361 6.012 -15.106 -1.038 -690.000 -419.876 -3584.915 -0.365 -0.407 0.656 -0.07 0.58 -0.81 0.06
1 9.59 959 1.106 -9.218 2.567 2.502 -24.170 0.366 -794.932 -419.876 -3584.915 -0.654 -0.094 0.454 -0.08 0.58 -0.81 0.06
1 9.60 960 1.470 -9.357 2.600 2.838 -25.696 2.075 -794.932 -419.876 -3584.915 -1.003 0.046 0.420 -0.08 0.58 -0.81 0.07
1 9.61 961 1.724 -9.400 2.753 3.021 -22.858 3.540 -614.899 -419.876 -3659.866 -1.241 0.089 0.267 -0.08 0.58 -0.81 0.07
1 9.62 962 2.083 -9.544 2.873 -2.472 -11.841 4.883 -614.899 -419.876 -3659.866 -1.571 0.235 0.147 -0.08 0.58 -0.81 0.07
1 9.63 963 1.963 -9.548 2.763 -7.446 -0.031 5.127 -659.870 -329.935 -3659.866 -1.443 0.238 0.250 -0.08 0.58 -0.81 0.07
1 9.64 964 1.738 -9.659 2.452 -8.667 9.552 5.371 -704.991 -359.916 -3644.875 -1.214 0.344 0.549 -0.08 0.58 -0.81 0.07
1 9.65 965 1.408 -9.750 1.939 -11.200 14.862 7.141 -734.971 -419.876 -3764.947 -0.886 0.430 1.046 -0.08 0.58 -0.8 0.07
1 9.66 966 1.140 -9.678 1.551 -16.602 16.449 9.125 -704.991 -434.867 -3599.905 -0.628 0.350 1.412 -0.08 0.59 -0.8 0.07
1 9.67 967 1.111 -9.668 1.465 -19.226 16.205 8.850 -704.991 -434.867 -3599.905 -0.612 0.331 1.468 -0.08 0.59 -0.8 0.07
1 9.68 968 1.116 -9.486 1.240 -19.470 19.867 9.308 -690.000 -374.906 -3584.915 -0.631 0.137 1.658 -0.08 0.59 -0.8 0.06
1 9.69 969 1.144 -9.654 0.996 -24.719 22.217 16.357 -690.000 -374.906 -3584.915 -0.695 0.280 1.827 -0.08 0.59 -0.8 0.06
1 9.70 970 1.063 -9.639 0.713 -29.175 17.792 20.569 -779.942 -359.916 -3539.944 -0.642 0.250 2.062 -0.07 0.59 -0.8 0.06
1 9.71 971 1.235 -9.841 0.771 -30.151 14.191 24.292 -614.899 -224.854 -3554.934 -0.847 0.433 1.948 -0.07 0.6 -0.8 0.06
1 9.72 972 1.427 -9.788 1.087 -27.954 14.160 28.229 -749.961 -314.945 -3794.928 -1.074 0.363 1.577 -0.07 0.6 -0.79 0.06
1 9.73 973 1.413 -10.142 2.514 -30.670 20.416 24.780 -704.991 -209.863 -3599.905 -1.097 0.702 0.098 -0.07 0.6 -0.79 0.06
1 9.74 974 -0.115 -11.090 5.689 -59.296 46.051 -17.517 -704.991 -209.863 -3599.905 0.402 1.635 -3.130 -0.07 0.6 -0.79 0.06
1 9.75 975 -1.915 -12.527 6.005 -67.444 51.422 -45.380 -734.971 -179.883 -3509.963 2.199 3.051 -3.523 -0.07 0.61 -0.79 0.06
1 9.76 976 -2.888 -14.270 3.520 -51.056 18.036 -11.902 -734.971 -179.883 -3509.963 3.255 4.751 -1.219 -0.06 0.62 -0.78 0.05
1 9.77 977 -2.892 -14.600 2.911 -31.250 -15.198 28.168 -629.890 -209.863 -3419.872 3.258 5.065 -0.678 -0.06 0.62 -0.78 0.05
1 9.78 978 -1.451 -13.451 3.275 0.458 -52.735 35.706 -599.909 -119.922 -3419.872 1.779 3.906 -1.077 -0.06 0.62 -0.78 0.05
1 9.79 979 -0.038 -11.761 3.649 33.417 -72.205 14.618 -599.909 -119.922 -3419.872 0.342 2.218 -1.439 -0.07 0.62 -0.78 0.06
1 9.80 980 0.503 -11.042 4.046 42.328 -63.507 16.846 -674.860 -119.922 -3419.872 -0.189 1.513 -1.782 -0.07 0.62 -0.78 0.06
1 9.81 981 0.967 -10.477 4.089 27.374 -47.760 40.497 -674.860 -119.922 -3419.872 -0.647 0.963 -1.764 -0.07 0.61 -0.78 0.07
1 9.82 982 1.499 -9.271 3.816 11.536 -30.151 52.429 -854.893 -209.863 -3359.911 -1.210 -0.234 -1.446 -0.07 0.61 -0.78 0.07
1 9.83 983 1.944 -8.734 3.639 1.709 -12.421 53.986 -854.893 -209.863 -3359.911 -1.712 -0.765 -1.243 -0.07 0.61 -0.79 0.08
1 9.84 984 1.671 -8.346 3.625 2.625 -1.068 48.432 -690.000 -29.980 -3509.963 -1.558 -1.149 -1.202 -0.07 0.61 -0.79 0.08
1 9.85 985 1.547 -7.853 3.510 12.970 -0.275 45.166 -659.870 -224.854 -3554.934 -1.490 -1.638 -1.069 -0.07 0.61 -0.79 0.08
1 9.86 986 1.743 -6.848 3.477 22.369 6.622 39.337 -659.870 -224.854 -3554.934 -1.743 -2.636 -1.006 -0.07 0.61 -0.79 0.09
1 9.87 987 1.944 -5.536 3.237 21.393 21.820 22.492 -734.971 -179.883 -3404.882 -2.001 -3.939 -0.732 -0.06 0.61 -0.79 0.09
1 9.88 988 1.652 -5.234 3.022 6.470 26.154 6.012 -734.971 -179.883 -3404.882 -1.753 -4.231 -0.482 -0.06 0.61 -0.79 0.09
1 9.89 989 1.212 -5.564 3.208 -13.641 24.689 -12.970 -464.997 -149.902 -3509.963 -1.336 -3.896 -0.652 -0.06 0.61 -0.79 0.09
1 9.90 990 0.737 -6.584 3.457 -32.868 23.407 -28.961 -464.997 -149.902 -3509.963 -0.858 -2.879 -0.913 -0.06 0.61 -0.79 0.09
1 9.91 991 -0.148 -9.213 4.008 -42.755 36.652 -41.809 -494.978 -239.994 -3389.892 0.102 -0.277 -1.563 -0.06 0.61 -0.79 0.08
1 9.92 992 -0.699 -10.530 4.200 -34.332 43.060 -39.826 -434.867 -254.984 -3404.882 0.701 1.028 -1.802 -0.06 0.61 -0.79 0.07
1 9.93 993 -1.360 -11.153 4.463 -19.165 41.840 -34.851 -434.867 -254.984 -3404.882 1.404 1.640 -2.109 -0.06 0.61 -0.78 0.07
1 9.94 994 -1.729 -11.373 4.564 -9.705 35.339 -28.473 -690.000 -254.984 -3404.882 1.808 1.855 -2.232 -0.06 0.61 -0.78 0.07
1 9.95 995 -1.408 -11.186 4.190 -4.578 23.895 -14.526 -584.919 -29.980 -3449.853 1.515 1.665 -1.870 -0.06 0.62 -0.78 0.06
1 9.96 996 -1.082 -10.573 3.793 4.211 21.881 -3.235 -524.958 -14.990 -3389.892 1.207 1.051 -1.479 -0.06 0.62 -0.78 0.06
1 9.97 997 -0.948 -9.884 3.227 17.426 23.895 2.502 -524.958 -14.990 -3389.892 1.075 0.362 -0.911 -0.05 0.62 -0.78 0.06
1 9.98 998 -1.149 -9.204 2.864 26.306 25.879 3.021 -494.978 -14.990 -3419.872 1.245 -0.302 -0.483 -0.05 0.61 -0.79 0.06
1 9.99 999 -1.681 -8.356 2.610 20.569 21.668 1.617 -599.909 89.941 -3464.993 1.755 -1.139 -0.187 -0.05 0.61 -0.79 0.06
1 10.00 1000 -2.227 -8.169 2.437 6.561 15.289 -1.465 -599.909 89.941 -3464.993 2.281 -1.319 0.016 -0.05 0.61 -0.79 0.06
1 10.01 1001 -2.399 -8.538 2.413 -6.958 7.111 0.000 -494.978 -14.990 -3464.993 2.444 -0.948 0.046 -0.05 0.61 -0.79 0.05
1 10.02 1002 -2.447 -8.734 2.327 -12.726 -2.625 3.693 -374.906 -119.922 -3464.993 2.472 -0.755 0.122 -0.04 0.61 -0.79 0.05
