COL1	TIME	ACC_X	ACC_Y	ACC_Z	GYR_X	GYR_Y	GYR_Z	MAG_X	MAG_Y	MAG_Z	LACC_X	LACC_Y	LACC_Z	QUAT_X	QUAT_Y	QUAT_Z	QUAT_W
1 0.00 0 -0.469 -9.898 0.369 -0.336 -0.488 0.732 -179.883 -149.902 -2759.852 -0.038 0.120 0.043 -0 0.69 -0.72 0.04
1 0.01 1 -0.498 -9.946 0.426 -0.427 -0.610 0.885 -14.990 -14.990 -2729.872 -0.008 0.168 -0.016 -0 0.69 -0.72 0.04
1 0.02 2 -0.407 -9.922 0.345 -0.549 -0.031 0.977 -14.990 -14.990 -2729.872 -0.099 0.144 0.065 -0 0.69 -0.72 0.04
1 0.03 3 -0.388 -9.864 0.479 -1.312 0.275 1.404 -59.961 -74.951 -2609.950 -0.117 0.086 -0.069 -0 0.69 -0.72 0.04
1 0.04 4 -0.546 -9.932 0.354 -1.678 -0.061 1.190 -59.961 -74.951 -2609.950 0.041 0.153 0.055 -0 0.69 -0.72 0.04
1 0.05 5 -0.579 -9.855 0.484 -2.380 -0.183 0.885 -14.990 -89.941 -2624.940 0.075 0.076 -0.075 -0 0.69 -0.72 0.04
1 0.06 6 -0.627 -9.874 0.359 -1.648 -0.366 0.732 -359.916 -29.980 -2564.979 0.123 0.096 0.048 -0 0.69 -0.72 0.04
1 0.07 7 -0.479 -9.802 0.340 -1.373 -0.427 1.038 -359.916 -29.980 -2564.979 -0.026 0.024 0.067 -0 0.69 -0.72 0.04
1 0.08 8 -0.541 -9.874 0.436 -1.831 -0.671 0.702 -179.883 -29.980 -2714.881 0.036 0.095 -0.030 -0 0.69 -0.72 0.04
1 0.09 9 -0.618 -9.903 0.369 -1.556 -0.641 0.305 -179.883 -29.980 -2714.881 0.113 0.124 0.037 -0 0.69 -0.72 0.04
1 0.10 10 -0.517 -9.922 0.354 -1.038 -1.038 0.366 -134.912 0.000 -2639.930 0.011 0.143 0.051 -0 0.69 -0.72 0.04
1 0.11 11 -0.555 -9.955 0.287 -0.397 -1.007 0.153 -134.912 0.000 -2639.930 0.049 0.177 0.118 -0 0.69 -0.72 0.04
1 0.12 12 -0.512 -9.960 0.445 -0.763 -0.397 0.458 -119.922 14.990 -2594.959 0.006 0.182 -0.041 -0 0.69 -0.72 0.04
1 0.13 13 -0.541 -9.908 0.407 -0.702 -1.007 0.458 -194.873 -89.941 -2624.940 0.035 0.129 -0.003 -0 0.69 -0.72 0.04
1 0.14 14 -0.527 -9.965 0.436 -0.793 -1.617 1.068 -194.873 -89.941 -2624.940 0.020 0.186 -0.031 -0 0.69 -0.72 0.04
1 0.15 15 -0.570 -9.960 0.417 -1.221 -1.129 1.343 -209.863 -149.902 -2759.852 0.063 0.182 -0.012 -0 0.69 -0.72 0.04
1 0.16 16 -0.493 -9.726 0.469 -0.916 -1.038 0.977 -209.863 -149.902 -2759.852 -0.013 -0.053 -0.065 -0 0.69 -0.72 0.04
1 0.17 17 -0.441 -9.793 0.417 -1.343 -0.916 1.434 -224.854 -239.994 -2594.959 -0.066 0.014 -0.012 -0 0.69 -0.72 0.04
1 0.18 18 -0.460 -9.879 0.316 -2.075 -0.885 1.434 -59.961 -224.854 -2684.901 -0.047 0.100 0.089 -0 0.69 -0.72 0.04
1 0.19 19 -0.488 -9.965 0.311 -2.075 -0.793 1.190 -119.922 -14.990 -2669.911 -0.018 0.186 0.094 -0 0.69 -0.72 0.04
1 0.20 20 -0.594 -9.917 0.321 -2.686 -0.977 1.465 -29.980 -179.883 -2639.930 0.088 0.139 0.084 -0 0.69 -0.72 0.04
1 0.21 21 -0.474 -9.778 0.436 -2.228 -0.580 0.977 -29.980 -179.883 -2639.930 -0.033 -0.000 -0.033 -0 0.69 -0.72 0.04
1 0.22 22 -0.532 -9.932 0.263 -2.930 -0.793 1.160 -29.980 -74.951 -2609.950 0.025 0.153 0.140 -0 0.69 -0.72 0.04
1 0.23 23 -0.536 -9.773 0.407 -2.686 -1.038 0.641 -29.980 -74.951 -2609.950 0.030 -0.005 -0.005 -0 0.69 -0.72 0.04
1 0.24 24 -0.469 -9.932 0.306 -2.136 -1.160 0.641 -89.941 -119.922 -2669.911 -0.037 0.153 0.093 -0 0.69 -0.72 0.04
1 0.25 25 -0.460 -9.893 0.287 -1.617 -0.885 0.305 -254.984 -74.951 -2759.852 -0.046 0.114 0.111 -0 0.69 -0.72 0.04
1 0.26 26 -0.551 -9.946 0.359 -0.854 -0.977 0.732 -104.932 -104.932 -2789.982 0.046 0.167 0.038 -0 0.69 -0.72 0.04
1 0.27 27 -0.464 -9.888 0.407 -0.854 -0.519 0.793 -209.863 -29.980 -2789.982 -0.041 0.110 -0.010 -0 0.69 -0.72 0.04
1 0.28 28 -0.484 -9.821 0.297 -0.671 -0.641 0.671 -209.863 -29.980 -2789.982 -0.021 0.042 0.099 -0 0.69 -0.72 0.04
1 0.29 29 -0.508 -9.802 0.369 -1.282 -0.549 1.160 -89.941 -119.922 -2624.940 0.003 0.023 0.027 -0 0.69 -0.72 0.04
1 0.30 30 -0.441 -9.917 0.412 -1.007 -0.549 0.824 -89.941 -119.922 -2624.940 -0.064 0.138 -0.016 -0 0.69 -0.72 0.04
1 0.31 31 -0.436 -9.802 0.359 -1.434 0.214 0.671 -119.922 -119.922 -2729.872 -0.069 0.023 0.036 -0 0.69 -0.72 0.04
1 0.32 32 -0.546 -9.951 0.455 -1.984 -0.031 0.000 -224.854 -89.941 -2699.891 0.042 0.172 -0.060 -0 0.69 -0.72 0.04
1 0.33 33 -0.512 -9.841 0.426 -2.197 -0.244 0.519 -194.873 -164.893 -2474.888 0.009 0.061 -0.032 -0 0.69 -0.72 0.04
1 0.34 34 -0.488 -9.826 0.508 -2.625 0.061 0.763 -44.971 -14.990 -2594.959 -0.014 0.047 -0.113 -0 0.69 -0.72 0.04
1 0.35 35 -0.555 -9.874 0.326 -3.296 0.153 0.885 -44.971 -14.990 -2594.959 0.053 0.095 0.067 -0 0.69 -0.72 0.04
1 0.36 36 -0.484 -9.932 0.340 -3.326 -0.244 0.427 -179.883 -29.980 -2759.852 -0.019 0.152 0.049 -0 0.69 -0.72 0.04
1 0.37 37 -0.603 -9.927 0.306 -2.960 -0.122 0.702 -179.883 -29.980 -2759.852 0.102 0.147 0.079 -0 0.69 -0.72 0.04
1 0.38 38 -0.589 -9.869 0.359 -2.625 -0.214 0.885 -299.955 -89.941 -2669.911 0.087 0.090 0.023 -0 0.69 -0.72 0.04
1 0.39 39 -0.613 -9.874 0.330 -1.282 -0.519 1.007 -119.922 -119.922 -2669.911 0.111 0.094 0.049 -0 0.69 -0.72 0.04
1 0.40 40 -0.441 -9.836 0.268 0.671 -0.824 1.312 -254.984 -74.951 -2639.930 -0.062 0.056 0.110 -0 0.69 -0.72 0.04
1 0.41 41 -0.599 -9.879 0.350 0.000 -1.068 1.465 -179.883 0.000 -2759.852 0.095 0.099 0.030 -0 0.69 -0.72 0.04
1 0.42 42 -0.599 -9.922 0.364 -0.397 -0.885 0.946 -179.883 0.000 -2759.852 0.094 0.142 0.015 -0 0.69 -0.72 0.04
1 0.43 43 -0.445 -9.831 0.445 -0.793 -0.610 0.824 -89.941 -119.922 -2549.989 -0.059 0.051 -0.066 -0 0.69 -0.72 0.04
1 0.44 44 -0.637 -9.999 0.340 -1.984 -0.305 0.580 -89.941 -119.922 -2549.989 0.133 0.219 0.039 -0 0.69 -0.72 0.04
1 0.45 45 -0.579 -9.936 0.412 -1.434 -0.458 0.641 14.990 -164.893 -2699.891 0.075 0.157 -0.032 -0 0.69 -0.72 0.04
1 0.46 46 -0.436 -9.955 0.263 -0.824 -1.495 1.038 -44.971 44.971 -2774.992 -0.068 0.176 0.115 -0 0.69 -0.72 0.04
1 0.47 47 -0.417 -10.061 0.239 0.153 -0.885 0.824 -194.873 -119.922 -2594.959 -0.088 0.281 0.138 -0 0.69 -0.72 0.04
1 0.48 48 -0.565 -10.046 0.148 1.282 -1.801 1.465 -44.971 -89.941 -2594.959 0.061 0.267 0.228 -0 0.69 -0.72 0.04
1 0.49 49 -0.570 -9.927 0.378 1.923 -1.282 1.068 -44.971 -89.941 -2594.959 0.065 0.147 0.001 -0 0.69 -0.72 0.04
1 0.50 50 -0.594 -9.922 0.369 2.380 -1.465 1.282 -284.964 -104.932 -2639.930 0.088 0.143 0.015 -0 0.69 -0.72 0.04
1 0.51 51 -0.479 -9.864 0.321 1.007 -1.251 1.678 -284.964 -104.932 -2639.930 -0.027 0.085 0.068 -0 0.69 -0.72 0.04
1 0.52 52 -0.369 -9.879 0.393 0.275 -0.946 1.099 -119.922 -119.922 -2699.891 -0.138 0.100 -0.002 -0 0.69 -0.72 0.04
1 0.53 53 -0.345 -9.817 0.273 -0.244 -1.129 1.495 -134.912 0.000 -2639.930 -0.162 0.038 0.120 -0 0.69 -0.72 0.04
1 0.54 54 -0.441 -9.750 0.259 -0.580 -0.763 1.617 -164.893 -44.971 -2624.940 -0.064 -0.030 0.133 -0 0.69 -0.72 0.04
1 0.55 55 -0.541 -9.773 0.220 0.092 -1.190 0.946 -104.932 -179.883 -2534.999 0.037 -0.006 0.170 -0 0.69 -0.72 0.04
1 0.56 56 -0.555 -9.721 0.340 -0.183 -0.488 0.916 -104.932 -179.883 -2534.999 0.052 -0.058 0.050 -0 0.69 -0.72 0.04
1 0.57 57 -0.570 -9.812 0.426 -0.275 -0.488 0.885 -164.893 -89.941 -2669.911 0.066 0.033 -0.036 -0 0.69 -0.72 0.04
1 0.58 58 -0.536 -9.946 0.388 -0.610 -0.244 0.793 -164.893 -89.941 -2669.911 0.033 0.167 0.002 -0 0.69 -0.72 0.04
1 0.59 59 -0.517 -9.946 0.254 -1.282 -0.519 1.099 -224.854 -89.941 -2699.891 0.013 0.167 0.136 -0 0.69 -0.72 0.04
1 0.60 60 -0.532 -9.817 0.311 -1.160 -0.427 1.282 -194.873 -14.990 -2729.872 0.028 0.037 0.078 -0 0.69 -0.72 0.04
1 0.61 61 -0.594 -9.917 0.172 -0.549 -0.885 0.427 -194.873 -14.990 -2729.872 0.089 0.138 0.215 -0 0.69 -0.72 0.04
1 0.62 62 -0.584 -9.898 0.287 0.336 -0.488 0.977 -224.854 -44.971 -2699.891 0.079 0.119 0.098 -0 0.69 -0.72 0.04
1 0.63 63 -0.455 -9.836 0.311 0.671 -0.946 0.122 -224.854 -44.971 -2699.891 -0.050 0.056 0.076 -0 0.69 -0.72 0.04
1 0.64 64 -0.527 -9.850 0.445 0.336 -1.526 0.031 -254.984 -179.883 -2684.901 0.023 0.071 -0.056 -0 0.69 -0.72 0.04
1 0.65 65 -0.402 -9.826 0.436 -0.031 -0.641 0.397 -254.984 -179.883 -2684.901 -0.101 0.047 -0.045 -0 0.69 -0.72 0.04
1 0.66 66 -0.508 -9.898 0.316 -0.732 -0.793 0.702 -59.961 -149.902 -2684.901 0.005 0.119 0.074 -0 0.69 -0.72 0.04
1 0.67 67 -0.546 -9.812 0.388 -1.404 -0.946 1.007 -119.922 -44.971 -2669.911 0.044 0.032 0.002 -0 0.69 -0.72 0.04
1 0.68 68 -0.503 -9.874 0.350 -1.221 -0.763 1.282 -119.922 -44.971 -2669.911 0.001 0.095 0.040 -0 0.69 -0.72 0.04
1 0.69 69 -0.618 -9.922 0.412 -0.824 -0.549 1.343 -104.932 -149.902 -2789.982 0.116 0.143 -0.023 -0 0.69 -0.72 0.04
1 0.70 70 -0.503 -9.855 0.297 -0.916 -0.916 1.190 -104.932 -149.902 -2789.982 0.001 0.075 0.091 -0 0.69 -0.72 0.04
1 0.71 71 -0.441 -9.965 0.359 -1.068 -0.793 1.404 -284.964 -74.951 -2639.930 -0.062 0.186 0.029 -0 0.69 -0.72 0.04
1 0.72 72 -0.637 -9.908 0.354 -1.434 -0.854 1.190 -284.964 -74.951 -2639.930 0.135 0.128 0.033 -0 0.69 -0.72 0.04
1 0.73 73 -0.618 -9.826 0.350 -2.014 -0.671 0.793 -179.883 -104.932 -2534.999 0.115 0.047 0.037 -0 0.69 -0.72 0.04
1 0.74 74 -0.484 -9.908 0.249 -1.129 -1.068 0.336 -194.873 -119.922 -2594.959 -0.020 0.128 0.138 -0 0.69 -0.72 0.04
1 0.75 75 -0.517 -9.965 0.273 -0.488 -1.007 0.946 -194.873 -119.922 -2594.959 0.013 0.186 0.114 -0 0.69 -0.72 0.04
1 0.76 76 -0.292 -9.936 0.326 0.977 -1.434 0.854 -134.912 -74.951 -2684.901 -0.212 0.157 0.061 -0 0.69 -0.72 0.04
1 0.77 77 -0.512 -9.989 0.249 2.136 -1.495 1.129 -134.912 -74.951 -2684.901 0.011 0.210 0.141 -0 0.69 -0.72 0.04
1 0.78 78 -0.493 -9.850 0.345 1.465 -0.732 1.007 -194.873 -89.941 -2774.992 -0.009 0.071 0.049 -0 0.69 -0.72 0.04
1 0.79 79 -0.474 -9.869 0.354 1.404 -0.824 0.885 -194.873 -89.941 -2774.992 -0.028 0.090 0.043 -0 0.69 -0.72 0.04
1 0.80 80 -0.594 -9.783 0.450 0.732 -1.007 0.946 -134.912 -179.883 -2684.901 0.092 0.004 -0.050 -0 0.69 -0.72 0.04
1 0.81 81 -0.364 -9.917 0.297 0.488 -0.397 1.373 -194.873 -119.922 -2624.940 -0.138 0.138 0.106 -0 0.69 -0.72 0.04
1 0.82 82 -0.479 -9.884 0.316 1.251 -1.129 1.373 -194.873 -119.922 -2624.940 -0.024 0.105 0.089 -0 0.69 -0.72 0.04
1 0.83 83 -0.431 -9.932 0.306 0.397 -0.763 0.916 -224.854 -44.971 -2669.911 -0.071 0.153 0.100 -0 0.69 -0.72 0.04
1 0.84 84 -0.599 -9.917 0.345 -0.244 0.275 0.977 -44.971 -44.971 -2804.973 0.097 0.138 0.061 -0 0.69 -0.72 0.04
1 0.85 85 -0.546 -10.008 0.402 0.336 -0.397 0.671 -164.893 -164.893 -2594.959 0.043 0.229 0.004 -0 0.69 -0.72 0.04
1 0.86 86 -0.445 -9.989 0.388 1.648 0.427 1.221 -164.893 -164.893 -2594.959 -0.057 0.210 0.021 -0 0.69 -0.72 0.04
1 0.87 87 -0.517 -9.807 0.383 0.427 0.458 0.732 -44.971 -119.922 -2729.872 0.014 0.029 0.029 -0 0.69 -0.72 0.04
1 0.88 88 -0.450 -9.793 0.378 -1.801 -0.549 0.122 -209.863 -179.883 -2714.881 -0.053 0.014 0.034 -0 0.69 -0.72 0.04
1 0.89 89 -0.541 -9.754 0.402 -0.916 -0.977 0.458 -209.863 -179.883 -2714.881 0.038 -0.024 0.009 -0 0.69 -0.72 0.04
1 0.90 90 -0.369 -9.611 0.493 -0.427 0.275 0.305 -89.941 -89.941 -2594.959 -0.133 -0.168 -0.082 -0 0.69 -0.72 0.04
1 0.91 91 -0.498 -9.654 0.546 -1.007 0.824 0.641 -299.955 -44.971 -2699.891 -0.003 -0.125 -0.132 -0 0.69 -0.72 0.04
1 0.92 92 -0.646 -9.639 0.646 -2.289 1.038 0.702 -119.922 -14.990 -2669.911 0.146 -0.139 -0.232 -0 0.69 -0.72 0.04
1 0.93 93 -0.579 -9.740 0.646 -3.448 0.458 1.099 -119.922 -14.990 -2669.911 0.078 -0.038 -0.233 -0 0.69 -0.72 0.04
1 0.94 94 -0.599 -9.788 0.575 -4.334 0.244 1.282 -89.941 -209.863 -2729.872 0.096 0.009 -0.164 -0 0.69 -0.72 0.04
1 0.95 95 -0.680 -9.635 0.536 -4.669 0.244 1.526 -14.990 -209.863 -2594.959 0.176 -0.144 -0.130 -0 0.69 -0.72 0.04
1 0.96 96 -0.685 -9.860 0.603 -5.493 0.366 1.007 -14.990 -209.863 -2594.959 0.179 0.081 -0.201 -0 0.69 -0.72 0.04
1 0.97 97 -0.675 -9.735 0.493 -6.409 0.275 0.610 -104.932 -29.980 -2534.999 0.169 -0.044 -0.096 -0 0.69 -0.72 0.04
1 0.98 98 -0.718 -9.884 0.278 -5.371 -0.824 0.092 -209.863 -74.951 -2534.999 0.212 0.104 0.106 -0 0.69 -0.72 0.04
1 0.99 99 -0.646 -9.893 0.163 -3.845 -0.885 0.336 -164.893 -89.941 -2774.992 0.140 0.114 0.214 -0 0.69 -0.72 0.04
1 1.00 100 -0.555 -10.027 0.326 -1.648 -1.617 0.336 -164.893 -89.941 -2774.992 0.049 0.248 0.047 -0 0.69 -0.72 0.04
1 1.01 101 -0.570 -10.090 0.330 0.183 -1.587 0.397 -134.912 -149.902 -2789.982 0.063 0.310 0.043 -0 0.69 -0.72 0.04
1 1.02 102 -0.436 -10.147 0.158 1.740 -1.953 0.977 -104.932 -74.951 -2684.901 -0.071 0.367 0.218 -0 0.69 -0.72 0.04
1 1.03 103 -0.493 -10.262 0.283 3.052 -2.136 0.641 -104.932 -74.951 -2684.901 -0.012 0.482 0.097 -0 0.69 -0.72 0.04
1 1.04 104 -0.436 -10.128 0.431 2.991 -1.190 1.587 -224.854 -89.941 -2699.891 -0.069 0.348 -0.046 -0 0.69 -0.72 0.04
1 1.05 105 -0.421 -10.118 0.517 1.465 -0.275 1.587 -269.974 -44.971 -2729.872 -0.085 0.339 -0.126 -0 0.69 -0.72 0.04
1 1.06 106 -0.402 -10.013 0.431 -0.214 0.610 1.862 -179.883 -104.932 -2609.950 -0.105 0.234 -0.033 -0 0.69 -0.72 0.04
1 1.07 107 -0.359 -9.927 0.244 -1.129 -0.336 2.411 -179.883 -104.932 -2609.950 -0.150 0.148 0.154 -0 0.69 -0.72 0.04
1 1.08 108 -0.508 -9.975 0.350 -1.312 0.214 1.526 -164.893 -44.971 -2729.872 -0.003 0.196 0.048 -0 0.69 -0.72 0.04
1 1.09 109 -0.426 -9.922 0.354 -0.092 0.366 1.862 -89.941 -119.922 -2624.940 -0.085 0.143 0.043 -0 0.69 -0.72 0.04
1 1.10 110 -0.551 -9.936 0.354 1.984 0.824 2.014 -89.941 -119.922 -2624.940 0.038 0.158 0.044 -0 0.69 -0.72 0.04
1 1.11 111 -0.541 -9.908 0.364 2.899 1.221 2.014 -104.932 -74.951 -2714.881 0.028 0.129 0.038 -0 0.69 -0.72 0.04
1 1.12 112 -0.412 -9.850 0.407 2.350 0.854 2.289 -89.941 -119.922 -2549.989 -0.104 0.072 -0.000 -0 0.69 -0.72 0.04
1 1.13 113 -0.464 -9.697 0.460 1.007 0.214 1.526 -164.893 -209.863 -2624.940 -0.053 -0.081 -0.044 -0 0.69 -0.72 0.04
1 1.14 114 -0.484 -9.639 0.555 -0.122 -0.031 1.160 -164.893 -209.863 -2624.940 -0.035 -0.138 -0.137 -0 0.69 -0.72 0.04
1 1.15 115 -0.464 -9.625 0.374 -0.214 0.763 1.282 -134.912 0.000 -2504.868 -0.053 -0.152 0.046 -0 0.69 -0.72 0.04
1 1.16 116 -0.527 -9.682 0.441 0.519 0.519 1.556 -344.925 14.990 -2594.959 0.009 -0.095 -0.019 -0 0.69 -0.72 0.04
1 1.17 117 -0.565 -9.678 0.378 0.549 0.092 1.129 -344.925 14.990 -2594.959 0.046 -0.099 0.046 -0 0.69 -0.72 0.04
1 1.18 118 -0.464 -9.730 0.239 1.251 0.397 1.404 -119.922 -164.893 -2699.891 -0.055 -0.047 0.187 -0 0.69 -0.72 0.04
1 1.19 119 -0.393 -9.793 0.469 0.580 0.641 1.404 -164.893 89.941 -2774.992 -0.126 0.016 -0.040 -0 0.69 -0.72 0.04
1 1.20 120 -0.426 -9.711 0.330 -1.221 1.251 1.129 -89.941 -209.863 -2669.911 -0.093 -0.065 0.103 0 0.69 -0.72 0.04
1 1.21 121 -0.474 -9.893 0.326 -2.441 1.617 1.648 -89.941 -209.863 -2669.911 -0.046 0.117 0.107 0 0.69 -0.72 0.04
1 1.22 122 -0.402 -9.936 0.431 -2.991 1.923 1.221 -44.971 -14.990 -2699.891 -0.117 0.159 -0.002 0 0.69 -0.72 0.04
1 1.23 123 -0.503 -10.066 0.311 -3.418 1.556 0.732 -254.984 -29.980 -2609.950 -0.016 0.289 0.114 0 0.69 -0.72 0.04
1 1.24 124 -0.541 -9.936 0.340 -2.777 1.892 1.099 -254.984 -29.980 -2609.950 0.022 0.159 0.081 0 0.69 -0.72 0.04
1 1.25 125 -0.488 -9.932 0.359 -3.510 1.892 0.580 -179.883 -104.932 -2714.881 -0.031 0.154 0.058 0 0.69 -0.72 0.04
1 1.26 126 -0.450 -10.003 0.421 -2.930 1.495 0.519 -134.912 -104.932 -2609.950 -0.068 0.226 -0.009 0 0.69 -0.72 0.04
1 1.27 127 -0.560 -10.051 0.263 -2.869 1.709 0.885 -134.912 -104.932 -2609.950 0.043 0.273 0.146 0 0.69 -0.72 0.04
1 1.28 128 -0.512 -9.893 0.292 -3.052 1.740 1.099 -89.941 -119.922 -2729.872 -0.004 0.115 0.110 0 0.69 -0.72 0.04
1 1.29 129 -0.579 -9.903 0.359 -2.350 1.892 0.916 -104.932 -104.932 -2639.930 0.064 0.124 0.039 0 0.69 -0.72 0.04
1 1.30 130 -0.613 -9.764 0.402 -1.495 1.770 0.671 -194.873 -119.922 -2729.872 0.096 -0.014 -0.006 0 0.69 -0.72 0.04
1 1.31 131 -0.551 -9.821 0.527 -0.854 1.099 1.068 -194.873 -119.922 -2729.872 0.033 0.043 -0.131 0 0.69 -0.72 0.04
1 1.32 132 -0.666 -9.970 0.326 -0.183 1.526 0.549 -119.922 -44.971 -2594.959 0.148 0.192 0.071 0 0.69 -0.72 0.04
1 1.33 133 -0.699 -9.898 0.474 -0.549 1.007 0.610 -194.873 -44.971 -2669.911 0.180 0.120 -0.076 0 0.69 -0.72 0.04
1 1.34 134 -0.646 -9.898 0.565 -0.977 0.610 1.038 -194.873 -44.971 -2669.911 0.127 0.120 -0.167 0 0.69 -0.72 0.04
1 1.35 135 -0.603 -9.922 0.508 -1.221 0.397 1.190 -104.932 0.000 -2759.852 0.082 0.144 -0.108 0 0.69 -0.72 0.04
1 1.36 136 -0.661 -9.850 0.441 -1.251 -0.031 0.702 -209.863 -104.932 -2684.901 0.139 0.072 -0.041 0 0.69 -0.72 0.04
1 1.37 137 -0.517 -9.850 0.402 -0.977 -0.244 1.465 -209.863 -179.883 -2639.930 -0.005 0.072 -0.002 0 0.69 -0.72 0.04
1 1.38 138 -0.488 -9.841 0.412 -1.404 -0.092 1.404 -209.863 -179.883 -2639.930 -0.034 0.063 -0.011 0 0.69 -0.72 0.04
1 1.39 139 -0.546 -9.860 0.393 -1.312 -0.122 1.190 -194.873 -44.971 -2624.940 0.023 0.082 0.008 0 0.69 -0.72 0.04
1 1.40 140 -0.570 -9.807 0.359 -1.862 -0.214 2.045 -59.961 -254.984 -2684.901 0.047 0.029 0.041 0 0.69 -0.72 0.04
1 1.41 141 -0.517 -9.817 0.450 -1.862 0.214 1.740 -59.961 -254.984 -2684.901 -0.007 0.039 -0.049 0 0.69 -0.72 0.04
1 1.42 142 -0.570 -9.841 0.359 -1.953 -0.916 1.648 -164.893 -119.922 -2624.940 0.045 0.063 0.041 0 0.69 -0.72 0.04
1 1.43 143 -0.474 -9.807 0.469 -2.197 -0.366 1.709 -179.883 -74.951 -2684.901 -0.052 0.029 -0.070 0 0.69 -0.72 0.04
1 1.44 144 -0.560 -9.888 0.340 -1.984 -1.282 1.373 -164.893 -44.971 -2624.940 0.034 0.111 0.060 0 0.69 -0.72 0.04
1 1.45 145 -0.599 -9.855 0.431 -2.319 -1.007 1.373 -164.893 -44.971 -2624.940 0.071 0.077 -0.032 0 0.69 -0.72 0.04
1 1.46 146 -0.536 -9.860 0.445 -1.892 -0.916 0.916 -134.912 -179.883 -2684.901 0.008 0.082 -0.046 0 0.69 -0.72 0.04
1 1.47 147 -0.527 -9.941 0.345 -1.221 -0.641 1.099 -164.893 -209.863 -2669.911 -0.001 0.163 0.055 0 0.69 -0.72 0.04
1 1.48 148 -0.546 -10.090 0.350 0.458 -1.038 -0.031 -164.893 -209.863 -2669.911 0.019 0.312 0.050 0 0.69 -0.72 0.04
1 1.49 149 -0.460 -10.109 0.287 2.502 -1.099 -0.061 -179.883 -179.883 -2684.901 -0.067 0.331 0.113 0 0.69 -0.72 0.04
1 1.50 150 -0.546 -10.123 0.350 4.272 -1.556 0.122 -179.883 74.951 -2564.979 0.022 0.346 0.061 0 0.69 -0.72 0.04
1 1.51 151 -0.441 -10.190 0.407 2.716 -1.617 -0.458 -89.941 -209.863 -2594.959 -0.081 0.413 0.011 0 0.69 -0.72 0.04
1 1.52 152 -0.354 -10.161 0.488 1.312 -1.678 -0.610 -89.941 -209.863 -2594.959 -0.164 0.384 -0.066 0 0.69 -0.72 0.04
1 1.53 153 -0.230 -10.046 0.594 0.244 -0.641 -1.038 -164.893 -119.922 -2729.872 -0.284 0.269 -0.168 0 0.69 -0.72 0.04
1 1.54 154 -0.316 -9.975 0.599 0.305 0.824 -0.671 -179.883 0.000 -2684.901 -0.194 0.197 -0.170 0 0.69 -0.72 0.04
1 1.55 155 -0.378 -9.773 0.374 0.092 1.038 -0.641 -179.883 0.000 -2684.901 -0.127 -0.004 0.058 0 0.69 -0.72 0.04
1 1.56 156 -0.206 -9.850 0.493 -0.061 0.458 -0.519 -59.961 0.000 -2609.950 -0.297 0.073 -0.059 0 0.69 -0.72 0.04
1 1.57 157 -0.182 -9.716 0.460 -0.183 -0.397 -0.244 -29.980 -149.902 -2504.868 -0.314 -0.062 -0.022 0 0.69 -0.72 0.04
1 1.58 158 -0.335 -9.769 0.508 -0.427 0.214 0.610 -89.941 -89.941 -2549.989 -0.157 -0.009 -0.068 0 0.69 -0.72 0.04
1 1.59 159 -0.192 -9.864 0.488 -0.061 0.275 0.214 -89.941 -89.941 -2549.989 -0.299 0.087 -0.048 0 0.69 -0.72 0.04
1 1.60 160 -0.441 -9.754 0.546 0.641 0.122 1.099 -89.941 -89.941 -2594.959 -0.047 -0.024 -0.103 0 0.69 -0.72 0.03
1 1.61 161 -0.268 -9.692 0.445 1.709 -0.153 1.068 -194.873 -119.922 -2729.872 -0.219 -0.086 0.001 0 0.69 -0.72 0.03
1 1.62 162 -0.388 -9.759 0.273 3.265 -0.336 1.923 -194.873 -119.922 -2729.872 -0.098 -0.018 0.178 0 0.69 -0.72 0.03
1 1.63 163 -0.460 -9.788 0.388 4.150 -0.397 2.319 -134.912 29.980 -2819.963 -0.026 0.011 0.069 0 0.69 -0.72 0.03
1 1.64 164 -0.441 -9.874 0.417 3.540 0.275 2.594 -134.912 -104.932 -2759.852 -0.050 0.098 0.053 0 0.69 -0.72 0.03
1 1.65 165 -0.536 -9.898 0.421 2.472 0.397 2.625 -44.971 -164.893 -2474.888 0.044 0.122 0.054 0 0.69 -0.72 0.03
1 1.66 166 -0.541 -9.960 0.426 0.305 0.092 3.723 -44.971 -164.893 -2474.888 0.046 0.185 0.053 0 0.69 -0.72 0.03
1 1.67 167 -0.575 -9.778 0.493 -1.007 -0.031 2.594 -119.922 -119.922 -2729.872 0.076 0.003 -0.013 0 0.69 -0.72 0.03
1 1.68 168 -0.694 -9.884 0.326 -2.533 -0.336 2.289 -179.883 -104.932 -2759.852 0.192 0.108 0.155 0 0.69 -0.72 0.04
1 1.69 169 -0.527 -9.888 0.369 -2.808 -0.336 1.953 -179.883 -104.932 -2759.852 0.022 0.113 0.108 0 0.69 -0.72 0.04
1 1.70 170 -0.570 -9.922 0.345 -2.563 -0.824 1.984 -179.883 -104.932 -2639.930 0.062 0.147 0.129 0 0.69 -0.72 0.04
1 1.71 171 -0.599 -9.965 0.464 -2.075 -0.488 1.801 -179.883 -104.932 -2639.930 0.089 0.190 0.006 0 0.69 -0.72 0.04
1 1.72 172 -0.469 -9.821 0.345 -1.801 -1.129 1.007 -164.893 -164.893 -2594.959 -0.042 0.046 0.123 0 0.69 -0.72 0.04
1 1.73 173 -0.498 -9.908 0.397 -1.862 -0.793 1.099 -164.893 -164.893 -2594.959 -0.013 0.132 0.069 0 0.69 -0.72 0.04
1 1.74 174 -0.345 -10.046 0.436 -2.380 -0.732 0.916 -59.961 -179.883 -2714.881 -0.166 0.271 0.030 0 0.69 -0.72 0.04
1 1.75 175 -0.512 -9.984 0.345 -2.777 -0.488 1.648 -119.922 -164.893 -2699.891 0.002 0.208 0.119 0 0.69 -0.72 0.04
1 1.76 176 -0.378 -9.927 0.345 -2.808 -2.014 1.373 -119.922 -164.893 -2699.891 -0.132 0.151 0.117 0 0.69 -0.72 0.04
1 1.77 177 -0.402 -9.769 0.397 -2.838 -1.984 1.862 -59.961 -149.902 -2759.852 -0.108 -0.007 0.060 0 0.69 -0.72 0.04
1 1.78 178 -0.316 -9.855 0.350 -2.808 -1.770 1.892 -59.961 -149.902 -2759.852 -0.194 0.079 0.105 0 0.69 -0.72 0.04
1 1.79 179 -0.283 -9.764 0.311 -2.869 -0.214 2.869 -194.873 -119.922 -2774.992 -0.229 -0.012 0.137 0 0.69 -0.72 0.04
1 1.80 180 -0.512 -9.769 0.383 -2.777 0.336 2.777 -194.873 -119.922 -2774.992 -0.001 -0.008 0.062 0 0.69 -0.72 0.04
1 1.81 181 -0.474 -9.812 0.302 -3.387 0.763 2.777 -179.883 29.980 -2714.881 -0.042 0.035 0.140 0 0.69 -0.72 0.04
1 1.82 182 -0.656 -9.802 0.259 -3.448 0.519 2.960 -224.854 -14.990 -2729.872 0.137 0.026 0.179 0 0.69 -0.72 0.04
1 1.83 183 -0.512 -9.946 0.230 -3.754 -0.122 3.357 -224.854 -14.990 -2729.872 -0.010 0.169 0.203 0 0.69 -0.72 0.04
1 1.84 184 -0.728 -9.855 0.278 -1.923 -1.465 1.801 -254.984 -299.955 -2564.979 0.202 0.078 0.151 0 0.69 -0.72 0.04
1 1.85 185 -0.666 -9.951 0.220 -1.343 -1.068 2.045 -254.984 -299.955 -2564.979 0.138 0.174 0.205 0 0.69 -0.72 0.04
1 1.86 186 -0.594 -10.037 0.321 -0.793 -0.824 1.892 -209.863 -104.932 -2609.950 0.063 0.260 0.103 0 0.69 -0.72 0.04
1 1.87 187 -0.541 -9.951 0.225 -0.458 -0.275 1.434 -209.863 -104.932 -2609.950 0.010 0.174 0.198 0 0.69 -0.72 0.04
1 1.88 188 -0.646 -9.984 0.364 -1.221 -0.427 1.617 44.971 -89.941 -2729.872 0.114 0.208 0.057 0 0.69 -0.72 0.04
1 1.89 189 -0.541 -9.970 0.239 -1.068 -0.366 1.617 -104.932 -104.932 -2609.950 0.008 0.193 0.181 0 0.69 -0.72 0.04
1 1.90 190 -0.488 -9.965 0.441 -1.068 0.214 2.075 -104.932 -104.932 -2609.950 -0.044 0.188 -0.022 0 0.69 -0.72 0.04
1 1.91 191 -0.512 -9.917 0.302 -0.916 0.549 2.686 -59.961 -179.883 -2564.979 -0.022 0.141 0.117 0 0.69 -0.72 0.04
1 1.92 192 -0.589 -9.994 0.364 -1.465 1.160 3.113 -59.961 -179.883 -2564.979 0.051 0.217 0.054 0 0.69 -0.72 0.04
1 1.93 193 -0.680 -9.912 0.441 -1.587 0.946 2.686 -89.941 -14.990 -2624.940 0.140 0.136 -0.024 0 0.69 -0.72 0.04
1 1.94 194 -0.680 -9.927 0.421 -2.747 1.984 3.448 -14.990 -44.971 -2699.891 0.134 0.151 -0.008 0 0.69 -0.72 0.04
1 1.95 195 -0.757 -9.807 0.431 -3.021 2.106 2.655 0.000 -149.902 -2639.930 0.207 0.031 -0.021 0 0.69 -0.72 0.04
1 1.96 196 -0.694 -9.793 0.426 -2.991 1.495 2.136 -59.961 -179.883 -2639.930 0.140 0.017 -0.020 0.01 0.69 -0.72 0.04
1 1.97 197 -0.713 -9.706 0.311 -2.502 1.465 2.960 -59.961 -179.883 -2639.930 0.155 -0.069 0.093 0.01 0.69 -0.72 0.04
1 1.98 198 -0.713 -9.769 0.292 -1.617 1.190 2.533 -134.912 -74.951 -2759.852 0.151 -0.007 0.110 0.01 0.69 -0.72 0.04
1 1.99 199 -0.656 -9.764 0.292 -1.038 0.732 2.136 -134.912 -74.951 -2759.852 0.090 -0.012 0.109 0.01 0.69 -0.72 0.04
1 2.00 200 -0.709 -9.855 0.335 -1.404 1.190 1.984 -44.971 44.971 -2774.992 0.140 0.080 0.065 0.01 0.69 -0.72 0.04
1 2.01 201 -0.637 -9.754 0.378 -1.892 1.038 2.014 -44.971 -14.990 -2624.940 0.064 -0.021 0.020 0.01 0.69 -0.72 0.04
1 2.02 202 -0.642 -9.740 0.455 -2.045 1.648 1.770 -119.922 -164.893 -2594.959 0.066 -0.035 -0.057 0.01 0.69 -0.72 0.04
1 2.03 203 -0.627 -9.759 0.321 -3.082 1.465 2.960 -119.922 -14.990 -2669.911 0.048 -0.016 0.075 0.01 0.69 -0.72 0.04
1 2.04 204 -0.690 -9.807 0.340 -3.326 1.678 2.319 -119.922 -14.990 -2669.911 0.108 0.032 0.052 0.01 0.69 -0.72 0.04
1 2.05 205 -0.646 -9.908 0.330 -3.998 1.465 2.289 -44.971 -89.941 -2699.891 0.062 0.133 0.058 0.01 0.69 -0.72 0.04
1 2.06 206 -0.623 -9.999 0.345 -4.120 1.770 2.472 -44.971 -89.941 -2699.891 0.035 0.224 0.039 0.01 0.69 -0.72 0.03
1 2.07 207 -0.713 -9.960 0.278 -3.510 1.526 2.838 44.971 -14.990 -2624.940 0.124 0.185 0.102 0.01 0.69 -0.72 0.03
1 2.08 208 -0.555 -10.027 0.254 -2.167 2.808 3.021 -89.941 -89.941 -2669.911 -0.042 0.253 0.117 0.01 0.69 -0.72 0.03
1 2.09 209 -0.627 -9.893 0.259 0.000 1.984 3.357 -89.941 -44.971 -2519.858 0.027 0.119 0.111 0.01 0.69 -0.72 0.03
1 2.10 210 -0.512 -9.908 0.192 1.160 2.625 2.899 -104.932 29.980 -2534.999 -0.092 0.133 0.178 0.01 0.69 -0.72 0.03
1 2.11 211 -0.594 -10.003 0.091 1.160 2.228 2.808 -104.932 29.980 -2534.999 -0.013 0.229 0.280 0.01 0.69 -0.72 0.03
1 2.12 212 -0.651 -9.879 0.316 1.160 2.533 2.777 -164.893 -89.941 -2699.891 0.042 0.105 0.057 0.01 0.69 -0.72 0.03
1 2.13 213 -0.704 -9.922 0.354 -1.007 2.716 1.953 -164.893 -89.941 -2699.891 0.092 0.148 0.021 0.01 0.69 -0.72 0.03
1 2.14 214 -0.575 -10.075 0.407 -1.801 2.441 1.404 -119.922 -164.893 -2669.911 -0.039 0.302 -0.032 0.01 0.69 -0.72 0.03
1 2.15 215 -0.685 -9.932 0.436 -1.831 3.815 0.519 -59.961 0.000 -2564.979 0.070 0.158 -0.062 0.01 0.69 -0.72 0.03
1 2.16 216 -0.694 -9.975 0.369 -1.740 3.845 1.190 14.990 -89.941 -2669.911 0.079 0.201 0.002 0.01 0.69 -0.72 0.03
1 2.17 217 -0.718 -10.022 0.498 -1.312 4.425 1.526 -14.990 -44.971 -2624.940 0.102 0.249 -0.129 0.01 0.69 -0.72 0.03
1 2.18 218 -0.608 -9.994 0.359 -1.068 3.815 0.824 -14.990 -44.971 -2624.940 -0.010 0.220 0.010 0.01 0.69 -0.72 0.03
1 2.19 219 -0.517 -9.951 0.388 -0.488 3.296 0.366 14.990 -119.922 -2729.872 -0.101 0.177 -0.018 0.01 0.69 -0.72 0.03
1 2.20 220 -0.441 -10.066 0.412 1.831 3.204 -0.092 14.990 -119.922 -2729.872 -0.177 0.292 -0.041 0.01 0.69 -0.72 0.03
1 2.21 221 -0.646 -10.142 0.321 3.815 2.197 0.061 -14.990 -14.990 -2669.911 0.031 0.369 0.054 0.01 0.69 -0.72 0.03
1 2.22 222 -0.474 -10.181 0.493 5.157 2.838 0.763 -44.971 -119.922 -2624.940 -0.138 0.407 -0.113 0.01 0.69 -0.72 0.03
1 2.23 223 -0.464 -10.228 0.632 6.226 3.052 1.831 14.990 -119.922 -2549.989 -0.147 0.456 -0.231 0.01 0.69 -0.72 0.03
1 2.24 224 -0.402 -10.056 0.642 6.287 1.984 0.885 29.980 -149.902 -2819.963 -0.209 0.284 -0.228 0.01 0.69 -0.72 0.03
1 2.25 225 -0.302 -10.109 0.819 6.744 2.563 0.732 29.980 -149.902 -2819.963 -0.309 0.337 -0.393 0.01 0.69 -0.72 0.03
1 2.26 226 -0.254 -10.195 0.800 9.155 4.852 0.732 29.980 -29.980 -2684.901 -0.354 0.424 -0.359 0.01 0.69 -0.72 0.03
1 2.27 227 -0.464 -10.075 0.704 9.613 6.409 0.977 29.980 -29.980 -2684.901 -0.141 0.305 -0.246 0.01 0.69 -0.72 0.03
1 2.28 228 -0.488 -9.999 0.661 8.881 5.737 0.000 -44.971 -119.922 -2699.891 -0.116 0.229 -0.185 0.02 0.69 -0.72 0.03
1 2.29 229 -0.488 -10.037 0.670 6.928 4.608 -1.129 -194.873 14.990 -2594.959 -0.114 0.268 -0.178 0.02 0.69 -0.72 0.03
1 2.30 230 -0.383 -10.051 0.804 4.822 3.265 -2.228 -119.922 -89.941 -2669.911 -0.212 0.283 -0.288 0.02 0.69 -0.72 0.03
1 2.31 231 -0.508 -9.884 0.900 3.296 2.502 -3.479 -44.971 14.990 -2729.872 -0.081 0.115 -0.374 0.02 0.69 -0.73 0.03
1 2.32 232 -0.287 -9.730 0.819 4.028 1.923 -4.028 -44.971 14.990 -2729.872 -0.294 -0.038 -0.283 0.02 0.69 -0.73 0.03
1 2.33 233 -0.374 -9.592 0.761 6.165 2.167 -4.547 -119.922 -119.922 -2699.891 -0.198 -0.177 -0.215 0.01 0.69 -0.73 0.03
1 2.34 234 -0.306 -9.692 0.608 9.125 2.197 -4.761 -119.922 -119.922 -2699.891 -0.256 -0.076 -0.048 0.01 0.69 -0.73 0.03
1 2.35 235 -0.345 -9.544 0.551 11.871 1.221 -3.143 44.971 -44.971 -2699.891 -0.208 -0.224 0.026 0.01 0.69 -0.73 0.03
1 2.36 236 -0.455 -9.654 0.642 11.078 0.641 -2.014 -14.990 -119.922 -2729.872 -0.090 -0.113 -0.046 0.01 0.69 -0.73 0.03
1 2.37 237 -0.182 -9.697 0.656 8.240 0.916 -1.038 -14.990 -119.922 -2729.872 -0.356 -0.069 -0.042 0.01 0.68 -0.73 0.02
1 2.38 238 -0.364 -9.501 0.728 4.486 2.258 0.275 -119.922 -119.922 -2774.992 -0.167 -0.264 -0.085 0.01 0.68 -0.73 0.02
1 2.39 239 -0.551 -9.539 0.766 2.350 2.014 1.862 -119.922 -119.922 -2774.992 0.021 -0.225 -0.115 0.01 0.68 -0.73 0.02
1 2.40 240 -0.374 -9.467 0.618 1.129 0.854 1.251 14.990 -44.971 -2729.872 -0.157 -0.297 0.039 0.01 0.68 -0.73 0.02
1 2.41 241 -0.445 -9.501 0.690 1.709 0.122 1.038 14.990 -44.971 -2729.872 -0.084 -0.263 -0.029 0.01 0.68 -0.73 0.02
1 2.42 242 -0.153 -9.366 0.637 0.397 0.854 -0.824 44.971 -89.941 -2699.891 -0.376 -0.397 0.028 0.01 0.68 -0.73 0.02
1 2.43 243 -0.024 -9.299 0.560 -0.458 1.740 0.092 -119.922 -119.922 -2729.872 -0.501 -0.464 0.107 0.01 0.68 -0.73 0.02
1 2.44 244 0.024 -9.338 0.426 -1.984 4.486 -0.031 0.000 -74.951 -2609.950 -0.539 -0.426 0.242 0.01 0.68 -0.73 0.02
1 2.45 245 0.038 -9.496 0.426 -1.465 3.571 0.031 -14.990 -239.994 -2594.959 -0.549 -0.268 0.240 0.01 0.68 -0.73 0.02
1 2.46 246 0.010 -9.817 0.206 5.402 4.547 0.641 -14.990 -239.994 -2594.959 -0.516 0.052 0.460 0.01 0.68 -0.73 0.02
1 2.47 247 -0.144 -9.855 0.163 15.900 3.754 0.580 -44.971 -164.893 -2729.872 -0.359 0.091 0.513 0.02 0.68 -0.73 0.02
1 2.48 248 -0.134 -9.994 0.215 24.963 3.510 -0.763 -44.971 -164.893 -2729.872 -0.365 0.232 0.485 0.02 0.68 -0.73 0.02
1 2.49 249 -0.081 -9.673 0.704 26.459 2.411 -1.587 29.980 -74.951 -2714.881 -0.412 -0.087 0.033 0.02 0.68 -0.73 0.02
1 2.50 250 0.014 -9.558 0.857 13.794 2.319 0.946 -29.980 -74.951 -2684.901 -0.503 -0.199 -0.083 0.02 0.68 -0.73 0.02
1 2.51 251 -0.225 -9.797 0.814 2.716 3.204 2.686 -29.980 -74.951 -2684.901 -0.260 0.042 -0.014 0.02 0.68 -0.74 0.02
1 2.52 252 -0.292 -9.975 0.479 -3.143 4.517 5.219 -104.932 -329.935 -2789.982 -0.196 0.220 0.330 0.02 0.68 -0.74 0.02
1 2.53 253 -0.321 -9.903 0.278 -1.556 5.951 6.378 -104.932 -329.935 -2789.982 -0.173 0.148 0.526 0.02 0.68 -0.74 0.02
1 2.54 254 -0.479 -9.869 0.278 3.235 7.294 5.249 -44.971 -44.971 -2879.924 -0.023 0.115 0.522 0.02 0.68 -0.74 0.02
1 2.55 255 -0.436 -9.817 0.048 6.989 8.575 4.242 -44.971 -44.971 -2879.924 -0.073 0.063 0.756 0.02 0.68 -0.74 0.02
1 2.56 256 -0.527 -9.850 0.244 11.169 9.369 4.303 104.932 -179.883 -2894.914 0.013 0.097 0.567 0.02 0.68 -0.74 0.02
1 2.57 257 -0.594 -9.826 0.354 14.069 9.613 5.005 44.971 -209.863 -2849.943 0.073 0.075 0.471 0.02 0.68 -0.74 0.02
1 2.58 258 -0.589 -10.070 0.503 13.275 10.559 5.463 44.971 -209.863 -2849.943 0.061 0.321 0.340 0.02 0.68 -0.74 0.02
1 2.59 259 -0.685 -10.324 0.584 12.299 11.658 6.378 14.990 -314.945 -2879.924 0.148 0.577 0.276 0.02 0.68 -0.74 0.02
1 2.60 260 -0.632 -10.396 0.694 9.949 14.130 8.026 -119.922 -209.863 -2774.992 0.073 0.653 0.197 0.02 0.67 -0.74 0.02
1 2.61 261 -0.905 -10.497 0.642 8.698 15.900 7.843 -14.990 -164.893 -2804.973 0.333 0.755 0.262 0.02 0.67 -0.74 0.02
1 2.62 262 -0.723 -10.362 0.742 6.958 18.524 6.989 -14.990 -164.893 -2804.973 0.137 0.623 0.171 0.03 0.67 -0.74 0.02
1 2.63 263 -0.651 -10.276 0.747 5.981 19.928 6.256 59.961 -149.902 -2759.852 0.053 0.538 0.175 0.03 0.67 -0.74 0.02
1 2.64 264 -0.776 -10.013 0.603 6.622 20.447 3.723 89.941 -284.964 -2879.924 0.166 0.276 0.325 0.03 0.67 -0.74 0.01
1 2.65 265 -0.713 -9.946 0.488 8.575 19.470 2.716 89.941 -284.964 -2879.924 0.096 0.210 0.447 0.03 0.67 -0.74 0.01
1 2.66 266 -0.809 -9.611 0.618 10.742 18.921 0.916 104.932 -179.883 -2684.901 0.185 -0.124 0.326 0.03 0.67 -0.74 0.01
1 2.67 267 -0.651 -9.568 0.388 12.604 20.142 -3.357 179.883 -74.951 -2819.963 0.022 -0.164 0.582 0.03 0.67 -0.74 0.01
1 2.68 268 -0.666 -9.338 0.311 12.787 21.057 -5.432 104.932 -179.883 -2759.852 0.040 -0.393 0.674 0.03 0.67 -0.74 0.01
1 2.69 269 -0.594 -9.333 0.144 13.123 20.508 -7.751 104.932 -179.883 -2759.852 -0.025 -0.396 0.856 0.04 0.67 -0.74 0.01
1 2.70 270 -0.479 -9.433 0.048 16.205 17.822 -9.979 89.941 -239.994 -2804.973 -0.129 -0.295 0.966 0.04 0.67 -0.74 0.01
1 2.71 271 -0.407 -9.917 0.249 21.027 15.045 -10.681 89.941 -239.994 -2879.924 -0.187 0.190 0.784 0.04 0.67 -0.74 0
1 2.72 272 -0.259 -10.367 0.182 28.351 13.825 -10.925 89.941 -239.994 -2879.924 -0.319 0.642 0.878 0.04 0.67 -0.74 0
1 2.73 273 -0.326 -10.669 0.192 32.745 14.771 -10.529 44.971 -239.994 -2774.992 -0.234 0.946 0.902 0.04 0.67 -0.75 0
1 2.74 274 -0.555 -10.741 0.206 37.476 17.517 -8.392 44.971 -239.994 -2804.973 0.028 1.026 0.974 -0.04 -0.66 0.75 0
1 2.75 275 -0.642 -10.779 0.287 36.896 17.792 -5.829 104.932 -299.955 -3074.947 0.124 1.070 0.940 -0.04 -0.66 0.75 0
1 2.76 276 -0.895 -10.626 0.278 33.417 17.242 -2.869 104.932 -299.955 -3074.947 0.384 0.923 0.999 -0.04 -0.66 0.75 0
1 2.77 277 -1.317 -10.420 0.374 27.985 14.679 1.495 29.980 -299.955 -2939.885 0.804 0.722 0.943 -0.04 -0.66 0.75 0.01
1 2.78 278 -1.638 -10.305 0.335 24.017 12.177 4.395 59.961 -329.935 -2939.885 1.115 0.612 1.014 -0.04 -0.66 0.75 0.01
1 2.79 279 -2.030 -10.075 0.254 23.102 6.348 7.874 59.961 -329.935 -2939.885 1.491 0.387 1.123 -0.04 -0.65 0.76 0.01
1 2.80 280 -2.026 -9.979 0.192 23.621 3.662 10.101 59.961 -494.978 -2969.865 1.466 0.297 1.211 -0.04 -0.65 0.76 0.01
1 2.81 281 -2.184 -9.884 0.235 24.536 1.831 13.153 134.912 -329.935 -3014.986 1.599 0.206 1.195 -0.04 -0.65 0.76 0
1 2.82 282 -2.356 -9.984 0.469 27.069 -1.556 17.456 224.854 -434.867 -3104.927 1.710 0.320 1.020 -0.05 -0.65 0.76 0
1 2.83 283 -2.471 -10.262 0.579 29.785 -4.913 20.508 224.854 -434.867 -3104.927 1.788 0.605 0.944 -0.05 -0.65 0.76 0
1 2.84 284 -2.322 -10.382 0.809 32.349 -8.057 22.583 224.854 -539.948 -2909.904 1.598 0.734 0.754 0.05 0.65 -0.76 0
1 2.85 285 -2.198 -10.291 0.910 32.227 -11.169 25.726 194.873 -464.997 -2954.875 1.430 0.654 0.697 0.05 0.64 -0.76 0
1 2.86 286 -1.939 -10.142 1.015 26.886 -13.397 29.663 194.873 -464.997 -2954.875 1.127 0.516 0.634 0.05 0.64 -0.76 0
1 2.87 287 -1.858 -9.970 0.986 22.186 -13.794 31.952 164.893 -509.968 -3134.908 0.998 0.355 0.702 0.05 0.64 -0.77 0.01
1 2.88 288 -1.657 -9.898 1.063 20.813 -14.221 35.706 194.873 -389.896 -3134.908 0.696 0.303 0.686 0.05 0.64 -0.77 0.01
1 2.89 289 -1.537 -9.826 0.953 21.118 -14.557 36.865 194.873 -584.919 -3029.976 0.523 0.242 0.824 0.06 0.64 -0.77 0.01
1 2.90 290 -1.360 -9.620 1.058 23.193 -15.259 38.666 194.873 -584.919 -3029.976 0.292 0.048 0.749 0.06 0.64 -0.77 0.02
1 2.91 291 -1.159 -9.548 1.092 22.797 -15.228 38.330 209.863 -569.929 -3044.966 0.037 -0.012 0.748 0.06 0.63 -0.77 0.02
1 2.92 292 -1.293 -9.558 1.144 22.186 -14.923 37.354 299.955 -509.968 -3104.927 0.120 0.010 0.727 0.06 0.63 -0.77 0.02
1 2.93 293 -1.202 -9.611 1.183 21.210 -14.984 36.438 299.955 -509.968 -3104.927 -0.020 0.075 0.720 0.06 0.63 -0.77 0.03
1 2.94 294 -1.130 -9.697 1.192 20.599 -13.794 34.119 269.974 -509.968 -3164.888 -0.139 0.173 0.740 0.06 0.63 -0.77 0.03
1 2.95 295 -1.250 -9.611 1.370 20.844 -13.367 32.562 224.854 -509.968 -3209.859 -0.065 0.099 0.591 0.06 0.63 -0.77 0.03
1 2.96 296 -1.173 -9.462 1.480 20.447 -10.315 28.442 269.974 -629.890 -3239.989 -0.220 -0.026 0.540 0.06 0.63 -0.78 0.03
1 2.97 297 -1.298 -9.295 1.647 17.822 -8.301 26.184 269.974 -629.890 -3239.989 -0.130 -0.182 0.401 0.06 0.63 -0.78 0.04
1 2.98 298 -1.307 -9.285 1.571 13.763 -6.073 23.224 254.984 -599.909 -3194.869 -0.152 -0.181 0.502 0.07 0.62 -0.78 0.04
1 2.99 299 -1.513 -9.228 1.465 11.047 -5.280 20.599 104.932 -719.981 -3254.979 0.024 -0.230 0.626 0.07 0.62 -0.78 0.04
1 3.00 300 -1.513 -9.252 1.355 10.895 -5.798 18.555 104.932 -719.981 -3254.979 -0.003 -0.199 0.750 0.07 0.62 -0.78 0.04
1 3.01 301 -1.456 -9.132 1.393 15.320 -5.127 14.069 284.964 -674.860 -3254.979 -0.083 -0.312 0.726 0.07 0.62 -0.78 0.04
1 3.02 302 -1.633 -9.252 1.417 17.578 -3.296 11.749 344.925 -629.890 -3239.989 0.076 -0.185 0.720 0.07 0.62 -0.78 0.04
1 3.03 303 -1.753 -9.275 1.403 20.935 -2.319 10.071 344.925 -629.890 -3239.989 0.181 -0.154 0.757 0.07 0.62 -0.78 0.04
1 3.04 304 -1.657 -9.357 1.408 19.592 -2.533 6.683 494.978 -809.922 -3239.989 0.061 -0.056 0.804 0.07 0.62 -0.78 0.04
1 3.05 305 -1.523 -9.113 1.508 17.395 -1.984 4.944 434.867 -674.860 -3299.950 -0.081 -0.293 0.727 0.07 0.62 -0.78 0.04
1 3.06 306 -1.590 -9.141 1.537 13.153 -1.678 3.387 359.916 -839.903 -3224.999 -0.018 -0.259 0.719 0.07 0.62 -0.78 0.04
1 3.07 307 -1.461 -9.199 1.374 9.918 -0.885 2.411 359.916 -839.903 -3224.999 -0.150 -0.197 0.897 0.07 0.62 -0.78 0.04
1 3.08 308 -1.748 -9.347 1.355 7.050 -1.465 1.801 269.974 -854.893 -3239.989 0.136 -0.046 0.926 0.07 0.62 -0.78 0.04
1 3.09 309 -1.954 -9.472 1.216 6.928 -3.113 0.885 329.935 -749.961 -3299.950 0.340 0.080 1.071 0.07 0.61 -0.78 0.04
1 3.10 310 -2.045 -9.429 1.221 8.759 -5.127 -0.366 329.935 -749.961 -3299.950 0.429 0.039 1.071 0.07 0.61 -0.78 0.04
1 3.11 311 -2.236 -9.371 1.283 10.284 -6.104 -2.747 509.968 -794.932 -3329.931 0.622 -0.015 1.025 0.07 0.61 -0.78 0.04
1 3.12 312 -2.140 -9.271 1.264 9.094 -7.202 -5.859 269.974 -809.922 -3314.940 0.531 -0.114 1.055 0.07 0.61 -0.79 0.04
1 3.13 313 -2.126 -9.290 1.116 8.331 -8.301 -7.080 269.974 -809.922 -3359.911 0.524 -0.094 1.211 0.07 0.61 -0.79 0.04
1 3.14 314 -2.370 -9.314 0.919 8.972 -10.651 -9.399 269.974 -809.922 -3359.911 0.780 -0.070 1.414 0.07 0.61 -0.79 0.04
1 3.15 315 -2.346 -9.410 0.747 10.620 -14.832 -11.414 419.876 -854.893 -3209.859 0.769 0.025 1.594 0.07 0.61 -0.79 0.04
1 3.16 316 -2.203 -9.515 0.814 14.252 -19.623 -13.153 299.955 -734.971 -3284.960 0.643 0.130 1.538 0.07 0.61 -0.79 0.04
1 3.17 317 -1.925 -9.539 1.097 14.984 -21.301 -13.580 299.955 -734.971 -3284.960 0.386 0.154 1.270 0.07 0.61 -0.79 0.04
1 3.18 318 -1.571 -9.697 1.489 9.613 -21.576 -13.336 359.916 -869.883 -3329.931 0.081 0.313 0.911 0.07 0.61 -0.79 0.04
1 3.19 319 -1.437 -9.845 1.561 2.289 -19.623 -13.397 224.854 -779.942 -3359.911 -0.026 0.460 0.849 0.07 0.61 -0.79 0.04
1 3.20 320 -1.456 -9.884 1.595 -4.181 -18.158 -13.062 194.873 -779.942 -3464.993 0.020 0.494 0.815 0.06 0.61 -0.79 0.04
1 3.21 321 -1.604 -10.070 1.461 -7.416 -17.914 -12.116 194.873 -779.942 -3464.993 0.195 0.674 0.940 0.06 0.61 -0.79 0.04
1 3.22 322 -1.590 -9.917 1.259 -9.216 -18.707 -11.017 329.935 -989.955 -3254.979 0.204 0.514 1.128 0.06 0.61 -0.79 0.04
1 3.23 323 -1.729 -10.027 1.149 -10.315 -20.905 -8.972 194.873 -809.922 -3419.872 0.365 0.617 1.222 0.06 0.61 -0.79 0.04
1 3.24 324 -1.743 -9.841 0.986 -12.482 -22.553 -6.897 194.873 -809.922 -3419.872 0.399 0.422 1.365 0.06 0.61 -0.79 0.04
1 3.25 325 -1.935 -9.975 1.025 -16.052 -22.461 -3.357 119.922 -854.893 -3314.940 0.620 0.541 1.282 0.05 0.62 -0.78 0.04
1 3.26 326 -1.915 -10.018 1.006 -18.127 -21.423 -1.495 164.893 -854.893 -3284.960 0.609 0.576 1.272 0.05 0.62 -0.78 0.04
1 3.27 327 -2.088 -9.936 0.910 -19.348 -21.484 0.244 59.961 -794.932 -3149.898 0.787 0.486 1.337 0.05 0.62 -0.78 0.04
1 3.28 328 -2.179 -9.965 0.771 -21.149 -21.545 -0.397 59.961 -794.932 -3149.898 0.881 0.507 1.443 0.05 0.62 -0.78 0.04
1 3.29 329 -2.203 -9.836 0.876 -23.102 -22.644 -0.458 0.000 -839.903 -3254.979 0.908 0.369 1.301 0.05 0.62 -0.78 0.04
1 3.30 330 -2.299 -9.912 1.757 -19.836 -19.287 1.740 134.912 -719.981 -3374.901 1.005 0.437 0.382 0.05 0.62 -0.78 0.04
1 3.31 331 -2.303 -9.750 2.179 -5.249 -12.604 5.981 134.912 -719.981 -3374.901 1.010 0.266 -0.072 0.05 0.62 -0.78 0.05
1 3.32 332 -1.499 -11.033 2.351 0.977 -10.590 3.326 -14.990 -809.922 -3284.960 0.186 1.551 -0.250 0.05 0.62 -0.78 0.05
1 3.33 333 -1.087 -11.631 2.586 -6.775 -12.421 3.723 164.893 -809.922 -3209.859 -0.226 2.150 -0.485 0.05 0.62 -0.78 0.05
1 3.34 334 -0.096 -13.154 2.466 -34.912 -11.383 8.087 -14.990 -884.874 -3164.888 -1.221 3.667 -0.394 0.05 0.63 -0.78 0.05
1 3.35 335 0.412 -13.619 2.097 -36.347 -5.798 10.925 -14.990 -884.874 -3164.888 -1.737 4.122 -0.075 0.05 0.63 -0.78 0.05
1 3.36 336 0.584 -13.327 2.021 -21.912 2.350 13.031 -44.971 -929.994 -3359.911 -1.924 3.822 -0.045 0.05 0.63 -0.77 0.05
1 3.37 337 0.292 -12.393 1.877 -1.587 10.590 12.543 0.000 -749.961 -3299.950 -1.651 2.886 0.075 0.05 0.63 -0.77 0.05
1 3.38 338 0.057 -10.856 1.461 5.951 16.052 6.012 0.000 -749.961 -3299.950 -1.436 1.352 0.493 0.05 0.63 -0.77 0.05
1 3.39 339 -0.350 -10.228 1.077 -0.092 14.435 0.122 -29.980 -794.932 -3299.950 -1.044 0.728 0.883 0.05 0.63 -0.77 0.05
1 3.40 340 -0.690 -9.697 1.389 -9.552 6.042 -7.080 119.922 -779.942 -3104.927 -0.693 0.191 0.553 0.05 0.63 -0.77 0.05
1 3.41 341 -0.986 -9.496 1.633 -8.850 2.350 -11.017 29.980 -749.961 -3254.979 -0.378 -0.016 0.290 0.05 0.63 -0.77 0.05
1 3.42 342 -1.393 -8.811 1.623 -6.958 -0.885 -16.754 29.980 -749.961 -3254.979 0.050 -0.707 0.286 0.05 0.63 -0.77 0.05
1 3.43 343 -1.494 -8.490 2.002 -8.514 -6.317 -23.743 59.961 -839.903 -3254.979 0.179 -1.034 -0.103 0.05 0.63 -0.77 0.04
1 3.44 344 -1.489 -8.208 2.442 -12.482 -11.261 -28.534 44.971 -704.991 -3164.888 0.213 -1.323 -0.553 0.05 0.63 -0.77 0.04
1 3.45 345 -1.307 -7.944 3.170 -16.174 -10.437 -36.347 44.971 -704.991 -3164.888 0.079 -1.596 -1.297 0.05 0.63 -0.77 0.04
1 3.46 346 -1.437 -7.959 3.462 -17.883 -6.866 -38.605 119.922 -704.991 -3104.927 0.264 -1.593 -1.608 0.04 0.64 -0.77 0.04
1 3.47 347 -1.786 -7.427 3.419 -24.017 -3.723 -43.244 -134.912 -719.981 -3074.947 0.734 -2.148 -1.616 0.04 0.64 -0.77 0.04
1 3.48 348 -1.810 -7.216 3.295 -27.527 -5.402 -49.805 -44.971 -584.919 -3164.888 0.826 -2.372 -1.526 0.04 0.64 -0.77 0.03
1 3.49 349 -1.877 -7.130 3.156 -29.663 -9.094 -53.162 -44.971 -584.919 -3164.888 0.971 -2.474 -1.427 0.03 0.64 -0.77 0.03
1 3.50 350 -1.863 -7.082 2.993 -24.353 -11.780 -55.420 -44.971 -629.890 -3239.989 1.040 -2.536 -1.303 0.03 0.64 -0.77 0.03
1 3.51 351 -1.801 -7.049 2.595 -15.289 -13.519 -53.192 -179.883 -644.880 -3044.966 1.063 -2.581 -0.936 0.03 0.64 -0.76 0.03
1 3.52 352 -0.977 -7.508 2.500 -0.793 -13.855 -39.398 -179.883 -644.880 -3044.966 0.321 -2.130 -0.856 0.02 0.64 -0.76 0.02
1 3.53 353 -0.690 -8.040 2.447 8.637 -11.261 -27.863 -254.984 -644.880 -3044.966 0.101 -1.603 -0.805 0.02 0.64 -0.76 0.02
1 3.54 354 -0.441 -8.763 2.476 13.092 -7.111 -16.937 -254.984 -644.880 -3044.966 -0.098 -0.881 -0.821 0.02 0.64 -0.76 0.02
1 3.55 355 -0.316 -9.979 2.069 21.515 -5.676 -4.822 -269.974 -434.867 -3029.976 -0.173 0.341 -0.362 0.02 0.64 -0.77 0.02
1 3.56 356 -0.311 -11.086 1.820 33.630 -8.545 -2.655 -269.974 -434.867 -3029.976 -0.167 1.454 -0.073 0.02 0.64 -0.77 0.02
1 3.57 357 -0.340 -11.646 1.930 44.861 -11.719 -3.540 -269.974 -779.942 -3134.908 -0.131 2.025 -0.127 0.01 0.64 -0.77 0.02
1 3.58 358 -0.378 -11.933 2.332 52.094 -18.646 -6.866 -284.964 -644.880 -3074.947 -0.081 2.325 -0.457 0.01 0.64 -0.77 0.02
1 3.59 359 -0.125 -11.521 2.955 47.760 -24.597 -15.045 -284.964 -644.880 -3074.947 -0.315 1.928 -0.999 0.01 0.63 -0.77 0.02
1 3.60 360 0.474 -10.209 3.213 17.304 -22.156 -26.947 -359.916 -719.981 -3194.869 -0.879 0.629 -1.190 0.01 0.63 -0.78 0.02
1 3.61 361 0.623 -9.630 2.983 -11.627 -16.571 -30.090 -359.916 -719.981 -3194.869 -0.982 0.056 -0.923 0.01 0.63 -0.78 0.02
1 3.62 362 0.991 -9.448 2.107 -43.335 -11.963 -27.863 -569.929 -629.890 -3284.960 -1.236 -0.137 -0.079 0 0.63 -0.78 0.02
1 3.63 363 1.168 -9.630 1.896 -48.798 -12.238 -25.604 -569.929 -629.890 -3284.960 -1.359 0.031 0.068 -0 0.63 -0.77 0.02
1 3.64 364 1.489 -9.615 1.619 -41.901 -9.827 -23.743 -494.978 -659.870 -3104.927 -1.629 0.002 0.278 -0.01 0.63 -0.77 0.02
1 3.65 365 1.264 -9.635 1.556 -30.151 -7.507 -22.614 -269.974 -584.919 -3134.908 -1.354 0.009 0.283 -0.01 0.64 -0.77 0.02
1 3.66 366 1.149 -9.592 1.556 -18.463 -5.646 -22.492 -269.974 -584.919 -3134.908 -1.193 -0.042 0.242 -0.01 0.64 -0.77 0.02
1 3.67 367 1.178 -9.362 1.911 -6.653 -8.514 -27.893 -419.876 -659.870 -3134.908 -1.176 -0.276 -0.136 -0.01 0.64 -0.77 0.01
1 3.68 368 1.216 -9.184 1.954 -2.594 -8.301 -32.990 -419.876 -659.870 -3134.908 -1.162 -0.455 -0.190 -0.01 0.64 -0.77 0.01
1 3.69 369 1.346 -9.012 1.906 -4.334 -4.272 -42.633 -584.919 -794.932 -3194.869 -1.166 -0.627 -0.145 -0.02 0.64 -0.77 0.01
1 3.70 370 1.245 -8.816 1.973 -4.730 -2.197 -45.807 -584.919 -794.932 -3194.869 -0.990 -0.822 -0.216 -0.02 0.64 -0.77 0.01
1 3.71 371 1.216 -8.916 1.590 -4.791 0.488 -53.803 -539.948 -674.860 -3224.999 -0.878 -0.720 0.163 -0.03 0.64 -0.77 0
1 3.72 372 1.302 -8.926 1.432 -0.183 0.275 -53.559 -614.899 -674.860 -3119.917 -0.876 -0.707 0.318 -0.03 0.64 -0.77 0
1 3.73 373 1.441 -9.003 1.518 4.425 2.045 -51.422 -614.899 -674.860 -3119.917 -0.929 -0.626 0.232 0.03 -0.64 0.77 0
1 3.74 374 1.374 -8.983 1.293 4.425 8.209 -43.335 -599.909 -779.942 -3059.957 -0.780 -0.639 0.465 0.04 -0.64 0.77 0
1 3.75 375 1.523 -8.940 1.245 -1.312 11.902 -35.370 -599.909 -779.942 -3059.957 -0.857 -0.676 0.520 0.04 -0.64 0.77 0.01
1 3.76 376 1.585 -8.931 1.226 -10.834 16.266 -26.703 -704.991 -659.870 -3104.927 -0.860 -0.682 0.540 0.04 -0.64 0.77 0.01
1 3.77 377 1.599 -8.912 1.111 -27.466 20.325 -17.517 -764.952 -674.860 -3074.947 -0.792 -0.701 0.617 0.04 -0.64 0.77 0.01
1 3.78 378 1.638 -8.706 0.819 -38.361 22.339 -10.468 -824.913 -704.991 -3059.957 -0.806 -0.913 0.865 0.04 -0.64 0.77 0.01
1 3.79 379 1.714 -8.878 0.579 -44.434 24.109 -5.402 -659.870 -839.903 -3119.917 -0.867 -0.749 1.046 0.04 -0.64 0.76 0.02
1 3.80 380 1.686 -9.022 0.177 -43.488 27.039 0.580 -659.870 -839.903 -3119.917 -0.831 -0.616 1.381 0.04 -0.65 0.76 0.02
1 3.81 381 1.714 -9.084 0.148 -37.171 30.212 5.463 -614.899 -674.860 -3044.966 -0.860 -0.564 1.344 0.04 -0.65 0.76 0.02
1 3.82 382 1.781 -9.295 0.249 -22.156 32.898 11.810 -614.899 -674.860 -3044.966 -0.936 -0.362 1.189 0.04 -0.65 0.76 0.02
1 3.83 383 1.891 -9.362 0.225 -15.808 32.471 15.808 -779.942 -584.919 -2909.904 -1.061 -0.302 1.174 0.04 -0.65 0.76 0.02
1 3.84 384 1.829 -9.371 0.508 -15.228 34.332 22.949 -674.860 -389.896 -3059.957 -1.045 -0.304 0.841 0.04 -0.66 0.75 0.02
1 3.85 385 1.628 -9.395 0.575 -18.677 34.577 25.848 -674.860 -629.890 -2849.943 -0.876 -0.286 0.751 0.03 -0.66 0.75 0.02
1 3.86 386 1.561 -9.711 0.608 -23.224 33.783 26.978 -734.971 -569.929 -2864.934 -0.846 0.024 0.688 0.03 -0.66 0.75 0.02
1 3.87 387 1.235 -9.975 0.838 -26.520 32.929 28.015 -734.971 -569.929 -2864.934 -0.560 0.279 0.422 0.03 -0.66 0.75 0.02
1 3.88 388 1.006 -10.406 0.905 -26.245 32.166 27.100 -629.890 -659.870 -2909.904 -0.372 0.703 0.316 0.03 -0.66 0.75 0.02
1 3.89 389 0.460 -11.138 1.044 -22.217 29.511 24.262 -629.890 -659.870 -2909.904 0.133 1.428 0.141 0.02 -0.66 0.75 0.02
1 3.90 390 0.158 -11.612 0.838 -20.630 28.809 22.339 -494.978 -539.948 -3029.976 0.394 1.896 0.316 0.02 -0.66 0.75 0.02
1 3.91 391 -0.096 -12.254 0.311 -17.090 28.748 19.867 -569.929 -539.948 -2984.855 0.574 2.528 0.792 0.02 -0.67 0.75 0.02
1 3.92 392 -0.330 -12.465 0.077 -14.282 27.222 18.066 -434.867 -524.958 -2714.881 0.776 2.735 1.006 0.01 -0.67 0.74 0.02
1 3.93 393 -0.527 -12.455 -0.148 -11.688 23.407 16.785 -179.883 -569.929 -2894.914 0.943 2.722 1.214 0.01 -0.67 0.74 0.02
1 3.94 394 -0.417 -12.216 -0.460 -10.925 16.754 15.961 -179.883 -569.929 -2894.914 0.806 2.480 1.512 0.01 -0.67 0.74 0.02
1 3.95 395 -0.215 -11.718 -0.536 -11.780 13.184 14.740 -434.867 -599.909 -2819.963 0.580 1.980 1.575 0.01 -0.67 0.74 0.02
1 3.96 396 0.431 -11.291 -0.709 -13.062 15.991 13.886 -434.867 -599.909 -2819.963 -0.089 1.551 1.731 0.01 -0.67 0.74 0.02
1 3.97 397 0.551 -10.947 -0.747 -10.162 23.132 12.970 -419.876 -539.948 -2849.943 -0.230 1.204 1.752 0.01 -0.67 0.74 0.02
1 3.98 398 0.800 -10.564 -0.656 -4.883 28.595 9.491 -374.906 -464.997 -2804.973 -0.502 0.818 1.647 0.01 -0.67 0.74 0.02
1 3.99 399 1.025 -9.946 0.421 11.322 28.015 1.343 -419.876 -539.948 -2984.855 -0.752 0.198 0.551 0 -0.67 0.74 0.02
1 4.00 400 1.226 -9.544 1.250 29.816 22.797 -8.301 -434.867 -449.857 -2819.963 -0.949 -0.202 -0.257 0 -0.67 0.74 0.02
1 4.01 401 1.006 -9.232 2.131 37.872 19.806 -16.480 -434.867 -449.857 -2819.963 -0.708 -0.507 -1.086 0 -0.67 0.74 0.02
1 4.02 402 0.417 -8.964 2.911 24.445 16.327 -23.193 -209.863 -644.880 -2864.934 -0.088 -0.767 -1.803 0 -0.67 0.75 0.02
1 4.03 403 -0.053 -9.026 3.036 -19.074 10.803 -30.426 -209.863 -644.880 -2864.934 0.420 -0.699 -1.889 0 -0.66 0.75 0.02
1 4.04 404 -1.049 -10.966 1.494 -110.291 12.482 -43.213 -254.984 -569.929 -2684.901 1.462 1.238 -0.381 0 -0.67 0.75 0.03
1 4.05 405 -2.217 -13.805 -0.010 -141.358 21.698 -49.591 -329.935 -524.958 -2789.982 2.684 4.066 0.994 0.01 -0.67 0.74 0.03
1 4.06 406 -3.184 -16.659 -1.896 -54.047 -18.372 -49.072 -179.883 -569.929 -2789.982 3.799 6.898 2.512 0.01 -0.68 0.73 0.04
1 4.07 407 -1.537 -14.768 -0.057 11.444 -32.868 -42.816 -599.909 -314.945 -2669.911 2.228 5.008 0.619 0.01 -0.69 0.73 0.04
1 4.08 408 -0.608 -12.594 0.948 39.337 -33.875 -30.609 -599.909 -314.945 -2669.911 1.363 2.841 -0.357 0.02 -0.69 0.73 0.04
1 4.09 409 0.359 -10.568 1.585 47.089 -33.661 -17.517 -449.857 -434.867 -2594.959 0.442 0.823 -0.934 0.02 -0.68 0.73 0.04
1 4.10 410 1.422 -8.859 2.303 43.274 -26.032 -5.524 -449.857 -434.867 -2594.959 -0.597 -0.880 -1.581 0.03 -0.68 0.73 0.03
1 4.11 411 2.643 -7.168 3.635 17.670 1.343 13.092 -509.968 -449.857 -2564.979 -1.807 -2.564 -2.842 0.03 -0.68 0.73 0.03
1 4.12 412 2.409 -6.570 4.128 -8.850 23.132 22.827 -584.919 -449.857 -2564.979 -1.581 -3.159 -3.291 0.03 -0.68 0.74 0.03
1 4.13 413 1.532 -6.263 4.032 -42.297 39.215 27.039 -569.929 -629.890 -2804.973 -0.779 -3.475 -3.232 0.02 -0.68 0.73 0.03
1 4.14 414 1.250 -6.441 3.917 -47.058 37.262 25.696 -494.978 -539.948 -2669.911 -0.539 -3.306 -3.177 0.02 -0.68 0.73 0.03
1 4.15 415 0.766 -6.666 3.184 -34.912 17.181 16.205 -494.978 -539.948 -2669.911 -0.089 -3.087 -2.507 0.02 -0.68 0.73 0.03
1 4.16 416 1.188 -6.848 2.969 -16.998 4.639 11.841 -509.968 -524.958 -2684.901 -0.533 -2.910 -2.334 0.02 -0.68 0.73 0.03
1 4.17 417 1.542 -6.929 2.916 0.122 1.282 10.742 -509.968 -524.958 -2684.901 -0.904 -2.831 -2.298 0.02 -0.68 0.73 0.03
1 4.18 418 1.700 -7.322 2.935 18.127 6.531 21.332 -539.948 -494.978 -2564.979 -1.079 -2.438 -2.309 0.02 -0.68 0.73 0.03
1 4.19 419 1.437 -8.241 2.849 27.008 13.092 29.694 -359.916 -419.876 -2684.901 -0.844 -1.519 -2.197 0.02 -0.68 0.73 0.03
1 4.20 420 0.158 -9.922 2.797 48.645 18.707 40.650 -464.997 -524.958 -2564.979 0.345 0.165 -2.031 0.01 -0.68 0.73 0.02
1 4.21 421 -0.220 -10.453 2.648 58.960 16.235 43.183 -329.935 -524.958 -2564.979 0.659 0.701 -1.784 0.01 -0.68 0.74 0.02
1 4.22 422 -0.527 -11.287 2.658 81.452 10.132 42.023 -329.935 -524.958 -2564.979 0.895 1.543 -1.677 0.01 -0.67 0.74 0.02
1 4.23 423 -0.876 -11.631 2.892 87.860 7.202 39.734 -254.984 -599.909 -2714.881 1.183 1.899 -1.785 0.01 -0.67 0.75 0.02
1 4.24 424 -0.939 -10.779 3.347 83.496 3.784 34.851 -254.984 -599.909 -2714.881 1.188 1.061 -2.107 0 -0.66 0.75 0.01
1 4.25 425 -0.699 -9.596 3.984 42.389 3.204 31.159 -329.935 -569.929 -2639.930 0.899 -0.107 -2.624 0 -0.66 0.75 0.01
1 4.26 426 -0.761 -9.343 3.797 1.038 8.270 29.572 -209.863 -569.929 -2864.934 0.915 -0.350 -2.358 0 -0.65 0.76 0.01
1 4.27 427 -0.919 -9.544 3.012 -26.703 11.749 29.755 -209.863 -569.929 -2864.934 1.022 -0.144 -1.535 -0 -0.65 0.76 0.01
1 4.28 428 -1.389 -9.869 1.853 -23.926 10.284 29.114 -284.964 -599.909 -2819.963 1.386 0.174 -0.424 -0 -0.65 0.76 0
1 4.29 429 -1.767 -10.056 1.446 -0.824 5.493 32.990 -284.964 -599.909 -2819.963 1.710 0.358 -0.039 -0.01 -0.65 0.76 0
1 4.30 430 -2.208 -9.831 1.250 26.642 -1.984 36.987 -164.893 -779.942 -2879.924 2.089 0.135 0.170 -0.01 -0.65 0.76 0
1 4.31 431 -2.198 -9.539 1.432 49.988 -10.620 42.053 -164.893 -779.942 -2879.924 2.010 -0.149 0.037 0.01 0.65 -0.76 0
1 4.32 432 -2.236 -9.242 1.858 59.357 -17.029 46.051 -269.974 -584.919 -2849.943 1.974 -0.431 -0.309 0.01 0.65 -0.76 0.01
1 4.33 433 -2.241 -9.137 2.275 51.422 -20.752 50.873 -194.873 -734.971 -2849.943 1.899 -0.519 -0.634 0.01 0.65 -0.76 0.01
1 4.34 434 -2.236 -9.184 2.457 41.535 -21.088 51.819 -194.873 -734.971 -2849.943 1.812 -0.453 -0.730 0.02 0.64 -0.77 0.01
1 4.35 435 -1.925 -9.395 2.385 31.769 -19.165 51.788 -89.941 -734.971 -2954.875 1.336 -0.208 -0.524 0.02 0.64 -0.77 0.02
1 4.36 436 -2.016 -9.386 2.212 25.330 -18.005 50.354 -89.941 -734.971 -2954.875 1.348 -0.203 -0.300 0.02 0.63 -0.77 0.03
1 4.37 437 -1.791 -9.520 2.093 18.555 -19.104 47.547 -179.883 -749.961 -2894.914 1.046 -0.055 -0.139 0.02 0.63 -0.77 0.03
1 4.38 438 -1.551 -9.553 1.729 15.259 -22.522 42.633 -179.883 -749.961 -2894.914 0.737 -0.009 0.256 0.02 0.63 -0.77 0.04
1 4.39 439 -1.283 -9.472 1.614 13.001 -25.147 34.363 -164.893 -809.922 -2849.943 0.411 -0.080 0.395 0.03 0.63 -0.78 0.04
1 4.40 440 -1.403 -9.716 1.662 14.496 -24.445 35.950 -59.961 -944.984 -2789.982 0.490 0.172 0.369 0.03 0.63 -0.78 0.04
1 4.41 441 -1.451 -9.558 1.408 11.871 -28.656 31.250 -59.961 -944.984 -2789.982 0.494 0.023 0.644 0.03 0.63 -0.78 0.05
1 4.42 442 -1.403 -9.936 1.710 9.949 -29.297 32.013 -29.980 -839.903 -3014.986 0.406 0.410 0.363 0.03 0.63 -0.78 0.05
1 4.43 443 -1.269 -8.859 1.135 -5.615 -30.792 32.806 -14.990 -1004.945 -3059.957 0.189 -0.653 0.961 0.03 0.63 -0.78 0.06
1 4.44 444 -1.159 -8.691 1.231 -19.226 -33.447 23.956 -14.990 -854.893 -2984.855 0.042 -0.819 0.853 0.03 0.63 -0.78 0.06
1 4.45 445 -1.255 -8.552 1.389 -32.868 -27.039 19.867 -14.990 -854.893 -2984.855 0.115 -0.962 0.664 0.03 0.63 -0.78 0.06
1 4.46 446 -1.279 -8.332 0.824 -43.884 -26.032 13.886 -164.893 -854.893 -2954.875 0.121 -1.190 1.182 0.02 0.63 -0.77 0.06
1 4.47 447 -1.298 -8.179 0.479 -58.441 -30.762 9.522 -14.990 -929.994 -2879.924 0.131 -1.355 1.465 0.02 0.63 -0.77 0.07
1 4.48 448 -1.417 -8.289 0.225 -61.310 -35.065 5.219 -14.990 -929.994 -2879.924 0.246 -1.260 1.643 0.02 0.64 -0.77 0.07
1 4.49 449 -1.475 -8.548 -0.182 -56.641 -39.703 -1.221 -59.961 -989.955 -2894.914 0.306 -1.017 1.968 0.02 0.64 -0.77 0.07
1 4.50 450 -1.144 -9.003 -0.527 -39.734 -47.394 -4.639 -59.961 -869.883 -2819.963 0.003 -0.590 2.174 0.02 0.64 -0.76 0.07
1 4.51 451 -1.006 -9.146 -0.757 -23.407 -50.598 -8.179 -209.863 -794.932 -2819.963 -0.115 -0.458 2.353 0.01 0.65 -0.76 0.07
1 4.52 452 -0.915 -9.659 -0.603 -7.568 -53.650 -9.430 -209.863 -794.932 -2819.963 -0.180 0.046 2.165 0.01 0.65 -0.76 0.08
1 4.53 453 -0.709 -9.496 -0.110 -3.052 -53.253 -9.979 -164.893 -809.922 -2849.943 -0.356 -0.122 1.658 0.01 0.65 -0.76 0.08
1 4.54 454 -0.555 -9.328 0.369 -13.580 -47.882 -9.583 -254.984 -719.981 -2789.982 -0.478 -0.295 1.169 0 0.65 -0.76 0.08
1 4.55 455 -0.599 -9.457 0.675 -40.802 -34.973 -9.247 -254.984 -719.981 -2789.982 -0.406 -0.173 0.835 -0 0.65 -0.76 0.08
1 4.56 456 -0.527 -9.477 0.254 -53.375 -23.987 -9.827 -419.876 -779.942 -2984.855 -0.450 -0.165 1.203 -0 0.65 -0.75 0.08
1 4.57 457 -0.551 -9.639 -0.541 -57.709 -15.106 -7.111 -194.873 -734.971 -2849.943 -0.382 -0.030 1.833 -0.01 0.66 -0.75 0.08
1 4.58 458 -0.589 -9.783 -0.800 -56.214 -14.587 -6.195 -434.867 -839.903 -2894.914 -0.327 0.100 1.998 -0.01 0.66 -0.74 0.08
1 4.59 459 -0.699 -10.276 -1.149 -45.380 -15.472 -3.296 -434.867 -839.903 -2894.914 -0.204 0.581 2.260 -0.01 0.67 -0.74 0.08
1 4.60 460 -0.704 -10.746 -0.790 -35.889 -17.883 -2.319 -254.984 -794.932 -2714.881 -0.189 1.041 1.823 -0.01 0.67 -0.74 0.08
1 4.61 461 -1.001 -11.421 1.178 -13.001 -18.433 3.235 -524.958 -629.890 -2729.872 0.115 1.710 -0.196 -0.01 0.67 -0.74 0.08
1 4.62 462 -0.833 -11.588 2.164 30.701 -4.852 14.984 -524.958 -629.890 -2729.872 -0.058 1.878 -1.185 -0.01 0.67 -0.74 0.08
1 4.63 463 -0.110 -12.446 2.662 32.837 -3.723 19.531 -374.906 -584.919 -2729.872 -0.798 2.741 -1.642 -0.01 0.67 -0.74 0.08
1 4.64 464 1.968 -14.711 2.595 -17.395 -8.789 32.990 -359.916 -644.880 -2684.901 -2.937 5.020 -1.499 -0.01 0.67 -0.74 0.09
1 4.65 465 3.285 -16.329 2.658 -69.794 -2.289 42.297 -359.916 -719.981 -2534.999 -4.303 6.639 -1.604 -0.01 0.67 -0.74 0.09
1 4.66 466 3.567 -17.670 3.160 -95.642 21.759 48.584 -359.916 -719.981 -2534.999 -4.651 7.975 -2.222 -0.01 0.67 -0.73 0.09
1 4.67 467 2.318 -16.841 2.313 -90.210 54.505 51.209 -374.906 -734.971 -2774.992 -3.477 7.143 -1.521 -0.01 0.68 -0.73 0.09
1 4.68 468 -0.168 -14.174 0.196 -72.968 70.008 46.204 -359.916 -569.929 -2609.950 -1.073 4.475 0.458 0 0.68 -0.72 0.09
1 4.69 469 -2.208 -12.173 -1.144 -41.870 48.248 25.574 -359.916 -569.929 -2609.950 0.897 2.476 1.685 0.01 0.69 -0.72 0.09
1 4.70 470 -3.855 -9.888 -0.886 -9.125 25.299 9.460 -329.935 -494.978 -2639.930 2.498 0.194 1.345 0.01 0.69 -0.72 0.09
1 4.71 471 -4.583 -8.380 -0.043 23.224 5.371 -11.505 -119.922 -434.867 -2474.888 3.205 -1.313 0.471 0.01 0.69 -0.72 0.09
1 4.72 472 -4.904 -6.661 1.365 46.631 -30.792 -36.133 -209.863 -599.909 -2534.999 3.530 -3.029 -0.863 0.01 0.69 -0.72 0.09
1 4.73 473 -4.267 -6.225 2.744 47.882 -49.927 -42.511 -209.863 -599.909 -2534.999 2.955 -3.469 -2.163 0.01 0.69 -0.72 0.09
1 4.74 474 -3.591 -5.521 3.989 43.945 -56.519 -47.455 -254.984 -524.958 -2459.897 2.352 -4.177 -3.326 0 0.68 -0.73 0.09
1 4.75 475 -3.338 -4.971 4.817 39.032 -48.401 -49.683 -329.935 -419.876 -2714.881 2.176 -4.732 -4.079 -0 0.68 -0.73 0.09
1 4.76 476 -3.146 -4.420 4.860 25.421 -23.499 -58.747 -329.935 -419.876 -2714.881 2.067 -5.287 -4.058 -0.01 0.68 -0.73 0.09
1 4.77 477 -3.328 -3.572 3.601 7.904 -11.932 -61.585 -284.964 -569.929 -2639.930 2.339 -6.141 -2.751 -0.01 0.68 -0.73 0.08
1 4.78 478 -3.328 -3.639 2.777 -22.003 -8.484 -62.927 -299.955 -539.948 -2414.927 2.434 -6.081 -1.905 -0.01 0.67 -0.73 0.08
1 4.79 479 -2.950 -4.980 1.638 -78.644 -15.564 -61.798 -449.857 -584.919 -2549.989 2.251 -4.764 -0.856 -0.02 0.68 -0.73 0.08
1 4.80 480 -2.399 -6.867 0.867 -100.708 -28.137 -53.314 -449.857 -584.919 -2549.989 1.793 -2.892 -0.210 -0.03 0.68 -0.73 0.07
1 4.81 481 -1.585 -9.208 0.196 -96.436 -44.190 -45.227 -344.925 -434.867 -2444.907 1.061 -0.564 0.312 -0.03 0.69 -0.72 0.07
1 4.82 482 -0.374 -11.818 -0.048 -62.195 -57.800 -39.093 -464.997 -524.958 -2534.999 -0.085 2.036 0.426 -0.04 0.69 -0.72 0.07
1 4.83 483 1.039 -14.734 0.306 5.066 -50.446 -34.973 -464.997 -524.958 -2534.999 -1.437 4.947 0.004 -0.04 0.69 -0.71 0.07
1 4.84 484 2.016 -16.851 0.110 134.217 -12.634 -20.142 -599.909 -389.896 -2549.989 -2.360 7.064 0.248 -0.05 0.69 -0.72 0.07
1 4.85 485 1.887 -15.510 1.882 170.594 -15.350 -15.808 -690.000 -449.857 -2354.966 -2.193 5.730 -1.348 -0.05 0.69 -0.72 0.07
1 4.86 486 1.820 -12.747 3.271 151.062 -23.956 -26.520 -690.000 -449.857 -2354.966 -2.099 2.983 -2.487 -0.05 0.68 -0.73 0.07
1 4.87 487 2.639 -8.581 3.716 47.638 -30.182 -43.732 -704.991 -389.896 -2549.989 -2.818 -1.145 -2.528 -0.05 0.66 -0.75 0.07
1 4.88 488 2.849 -6.982 2.978 -37.659 -31.281 -46.143 -764.952 -494.978 -2639.930 -2.944 -2.739 -1.740 -0.06 0.66 -0.75 0.07
1 4.89 489 3.022 -6.699 2.160 -108.765 -30.853 -40.833 -734.971 -599.909 -2759.852 -3.031 -3.031 -0.994 -0.06 0.66 -0.74 0.07
1 4.90 490 3.050 -7.111 1.360 -154.023 -21.362 -33.203 -734.971 -599.909 -2759.852 -2.996 -2.639 -0.376 -0.07 0.67 -0.74 0.07
1 4.91 491 2.777 -7.935 0.646 -140.442 -6.683 -26.642 -734.971 -644.880 -2639.930 -2.671 -1.836 0.102 -0.07 0.68 -0.73 0.07
1 4.92 492 2.361 -9.141 -0.244 -87.891 -10.101 -23.132 -779.942 -659.870 -2624.940 -2.212 -0.643 0.771 -0.07 0.68 -0.72 0.07
1 4.93 493 2.366 -9.161 -0.086 -29.389 -5.829 -24.963 -779.942 -659.870 -2624.940 -2.161 -0.630 0.458 -0.08 0.69 -0.72 0.06
1 4.94 494 2.026 -8.897 0.345 35.492 -1.984 -30.365 -899.864 -464.997 -2474.888 -1.707 -0.893 -0.030 -0.08 0.69 -0.72 0.06
1 4.95 495 1.997 -8.710 0.666 56.549 -4.120 -33.417 -779.942 -434.867 -2519.858 -1.617 -1.075 -0.287 -0.08 0.69 -0.72 0.06
1 4.96 496 1.791 -8.739 0.929 55.206 -4.181 -37.048 -974.965 -359.916 -2369.956 -1.345 -1.039 -0.461 -0.09 0.68 -0.72 0.06
1 4.97 497 1.710 -9.017 1.039 32.196 -2.167 -39.124 -974.965 -359.916 -2369.956 -1.195 -0.754 -0.490 -0.09 0.68 -0.72 0.06
1 4.98 498 1.863 -9.539 0.891 -0.031 3.540 -37.048 -869.883 -569.929 -2384.946 -1.279 -0.226 -0.301 -0.09 0.68 -0.73 0.06
1 4.99 499 1.642 -10.679 0.450 -37.384 12.177 -29.205 -944.984 -569.929 -2504.868 -0.995 0.917 0.133 -0.1 0.68 -0.73 0.05
1 5.00 500 1.642 -11.263 0.115 -43.823 16.937 -22.949 -944.984 -569.929 -2504.868 -0.940 1.503 0.423 -0.1 0.68 -0.72 0.05
1 5.01 501 1.504 -11.952 -0.297 -22.522 22.766 -8.179 -1004.945 -509.968 -2549.989 -0.740 2.191 0.722 -0.1 0.68 -0.72 0.05
1 5.02 502 1.513 -11.995 -0.474 -10.468 22.553 -2.380 -974.965 -464.997 -2519.858 -0.742 2.234 0.879 -0.1 0.69 -0.72 0.05
1 5.03 503 1.293 -11.488 -0.431 20.996 25.177 12.817 -1034.926 -539.948 -2294.855 -0.528 1.727 0.849 -0.1 0.69 -0.72 0.05
1 5.04 504 1.216 -11.191 -0.057 32.013 31.983 23.193 -1034.926 -539.948 -2294.855 -0.475 1.430 0.517 -0.1 0.68 -0.72 0.05
1 5.05 505 1.475 -10.999 -0.153 28.534 40.894 31.311 -1094.887 -419.876 -2324.985 -0.773 1.238 0.667 -0.09 0.68 -0.72 0.05
1 5.06 506 1.140 -10.305 -0.345 0.488 55.359 46.143 -1034.926 -314.945 -2414.927 -0.491 0.542 0.902 -0.09 0.68 -0.73 0.05
1 5.07 507 0.833 -9.711 -0.627 -20.996 59.570 53.467 -1034.926 -314.945 -2414.927 -0.250 -0.055 1.197 -0.08 0.68 -0.73 0.05
1 5.08 508 0.560 -8.629 -0.929 -43.945 55.847 57.984 -854.893 -464.997 -2474.888 -0.142 -1.150 1.420 -0.07 0.69 -0.72 0.05
1 5.09 509 0.599 -8.677 -0.680 -47.455 52.460 56.549 -914.854 -449.857 -2564.979 -0.267 -1.108 1.102 -0.07 0.69 -0.72 0.05
1 5.10 510 0.742 -8.476 -0.158 -46.143 43.854 46.387 -839.903 -419.876 -2384.946 -0.492 -1.315 0.511 -0.06 0.69 -0.72 0.05
1 5.11 511 0.690 -8.433 0.014 -39.581 36.957 37.964 -839.903 -419.876 -2384.946 -0.506 -1.361 0.274 -0.06 0.69 -0.72 0.05
1 5.12 512 0.694 -8.356 0.101 -29.419 30.029 29.572 -779.942 -389.896 -2444.907 -0.565 -1.440 0.134 -0.06 0.7 -0.71 0.05
1 5.13 513 0.575 -8.141 -0.187 -25.116 22.553 17.334 -629.890 -389.896 -2444.907 -0.486 -1.657 0.381 -0.05 0.7 -0.71 0.05
1 5.14 514 0.125 -8.241 -0.819 -27.405 19.379 8.545 -629.890 -389.896 -2444.907 -0.064 -1.557 0.977 -0.05 0.7 -0.71 0.05
1 5.15 515 -0.139 -8.615 -1.226 -28.076 17.304 0.916 -614.899 -374.906 -2429.917 0.184 -1.184 1.346 -0.05 0.7 -0.71 0.05
1 5.16 516 -0.694 -9.644 -1.939 -19.867 15.259 -9.399 -599.909 -239.994 -2339.976 0.744 -0.156 1.978 -0.05 0.7 -0.71 0.05
1 5.17 517 -0.876 -10.310 -2.208 -7.660 14.496 -9.430 -629.890 -389.896 -2264.875 0.937 0.510 2.208 -0.05 0.71 -0.71 0.05
1 5.18 518 -0.546 -10.856 -2.303 10.468 17.120 -10.284 -629.890 -389.896 -2264.875 0.617 1.056 2.285 -0.05 0.71 -0.71 0.04
1 5.19 519 -0.369 -10.607 -2.184 24.292 23.987 -6.897 -464.997 -299.955 -2324.985 0.452 0.807 2.181 -0.05 0.71 -0.71 0.04
1 5.20 520 -0.364 -10.530 -0.402 39.398 26.123 -3.082 -629.890 -239.994 -2264.875 0.458 0.731 0.442 -0.05 0.7 -0.71 0.04
1 5.21 521 0.742 -10.348 1.571 53.345 24.811 -13.611 -629.890 -239.994 -2264.875 -0.646 0.549 -1.483 -0.05 0.7 -0.71 0.04
1 5.22 522 -0.120 -9.960 3.060 66.284 23.407 -14.893 -659.870 -299.955 -2354.966 0.233 0.162 -2.887 -0.05 0.7 -0.71 0.04
1 5.23 523 -0.972 -10.578 0.915 26.062 16.632 -23.254 -599.909 -239.994 -2189.923 1.135 0.787 -0.536 -0.05 0.69 -0.72 0.04
1 5.24 524 -1.403 -12.953 0.225 -30.060 26.459 -41.687 -494.978 -464.997 -2294.855 1.600 3.164 0.182 -0.05 0.69 -0.72 0.03
1 5.25 525 -3.534 -16.731 -0.584 -56.458 36.438 -54.291 -494.978 -464.997 -2294.855 3.799 6.941 0.932 -0.05 0.69 -0.72 0.03
1 5.26 526 -5.847 -18.493 -1.542 -38.056 14.557 -64.026 -659.870 -494.978 -2459.897 6.197 8.704 1.814 -0.05 0.7 -0.72 0.03
1 5.27 527 -5.670 -17.847 -0.972 -26.367 -24.811 -69.489 -509.968 -374.906 -2459.897 6.120 8.060 1.195 -0.05 0.7 -0.71 0.02
1 5.28 528 -2.993 -15.558 1.010 1.404 -59.723 -45.502 -509.968 -374.906 -2459.897 3.548 5.776 -0.824 -0.06 0.7 -0.71 0.02
1 5.29 529 -0.541 -12.982 2.452 35.156 -64.240 -18.616 -584.919 -254.984 -2384.946 1.176 3.204 -2.277 -0.06 0.7 -0.71 0.02
1 5.30 530 1.719 -9.836 3.400 64.514 -52.765 -0.580 -584.919 -254.984 -2384.946 -1.044 0.061 -3.190 -0.07 0.7 -0.71 0.02
1 5.31 531 2.868 -6.369 4.678 55.878 -16.876 6.256 -794.932 -449.857 -2249.884 -2.177 -3.398 -4.260 -0.08 0.69 -0.72 0.03
1 5.32 532 2.935 -5.196 5.090 16.419 10.040 6.256 -794.932 -449.857 -2249.884 -2.244 -4.567 -4.585 -0.08 0.68 -0.72 0.03
1 5.33 533 2.883 -4.568 5.200 -32.410 31.433 -1.923 -869.883 -449.857 -2534.999 -2.198 -5.194 -4.686 -0.08 0.68 -0.72 0.03
1 5.34 534 3.189 -5.085 4.511 -72.541 41.382 -8.850 -824.913 -359.916 -2444.907 -2.500 -4.680 -4.057 -0.08 0.69 -0.72 0.03
1 5.35 535 3.931 -6.230 3.409 -71.350 21.851 -13.062 -824.913 -359.916 -2444.907 -3.228 -3.539 -3.064 -0.07 0.69 -0.72 0.03
1 5.36 536 5.507 -8.270 2.466 -40.802 9.460 -4.822 -794.932 -419.876 -2459.897 -4.784 -1.501 -2.230 -0.07 0.69 -0.72 0.02
1 5.37 537 5.856 -9.074 1.834 -1.984 9.155 14.710 -794.932 -419.876 -2459.897 -5.104 -0.695 -1.658 -0.08 0.7 -0.71 0.02
1 5.38 538 4.726 -9.620 1.360 63.355 3.937 58.899 -674.860 -119.922 -2369.956 -4.000 -0.150 -1.131 -0.07 0.69 -0.71 0.02
1 5.39 539 3.601 -9.544 2.064 92.743 -0.854 88.166 -674.860 -119.922 -2369.956 -2.973 -0.230 -1.725 -0.07 0.69 -0.72 0.03
1 5.40 540 2.308 -10.037 2.844 106.842 5.707 105.896 -764.952 -329.935 -2384.946 -1.793 0.263 -2.346 -0.07 0.69 -0.72 0.03
1 5.41 541 0.795 -10.588 3.165 107.758 21.851 108.429 -629.890 -314.945 -2519.858 -0.424 0.818 -2.488 -0.06 0.68 -0.73 0.04
1 5.42 542 -0.982 -10.549 2.916 106.171 39.429 91.889 -629.890 -314.945 -2519.858 1.192 0.788 -2.075 -0.05 0.67 -0.74 0.04
1 5.43 543 -2.873 -9.845 1.815 113.495 43.579 53.223 -569.929 -239.994 -2474.888 2.951 0.097 -0.810 -0.05 0.67 -0.74 0.05
1 5.44 544 -3.227 -8.993 2.203 98.572 26.428 32.593 -569.929 -239.994 -2474.888 3.211 -0.736 -1.027 -0.04 0.66 -0.75 0.05
1 5.45 545 -2.777 -7.595 3.400 34.515 8.789 14.801 -464.997 -449.857 -2609.950 2.621 -2.096 -1.948 -0.03 0.65 -0.76 0.05
1 5.46 546 -2.528 -7.374 3.663 7.965 9.094 11.383 -464.997 -449.857 -2609.950 2.341 -2.310 -2.172 -0.03 0.65 -0.76 0.05
1 5.47 547 -2.418 -7.643 3.146 -50.080 16.419 13.001 -344.925 -509.968 -2774.992 2.215 -2.047 -1.693 -0.03 0.65 -0.76 0.05
1 5.48 548 -2.878 -7.954 2.212 -60.089 21.393 17.944 -329.935 -449.857 -2609.950 2.651 -1.747 -0.839 -0.03 0.65 -0.75 0.05
1 5.49 549 -3.232 -8.193 1.298 -50.110 18.005 21.362 -329.935 -449.857 -2609.950 2.975 -1.518 -0.011 -0.03 0.66 -0.75 0.05
1 5.50 550 -2.959 -8.548 1.001 -12.878 6.622 24.078 -344.925 -509.968 -2804.973 2.656 -1.171 0.221 -0.03 0.66 -0.75 0.05
1 5.51 551 -2.615 -8.701 1.269 14.191 2.289 26.428 -344.925 -509.968 -2804.973 2.255 -1.019 -0.075 -0.02 0.66 -0.75 0.05
1 5.52 552 -2.504 -8.653 1.666 49.927 0.549 31.616 -359.916 -494.978 -2609.950 2.029 -1.054 -0.407 -0.02 0.66 -0.75 0.06
1 5.53 553 -2.461 -8.696 1.542 59.326 -1.282 33.356 -359.916 -494.978 -2609.950 1.923 -0.996 -0.196 -0.02 0.66 -0.75 0.06
1 5.54 554 -2.069 -8.619 1.566 74.341 -6.409 39.703 -329.935 -569.929 -2684.901 1.465 -1.053 -0.112 -0.01 0.65 -0.76 0.06
1 5.55 555 -1.997 -8.572 1.307 68.390 -8.759 40.680 -299.955 -659.870 -2729.872 1.326 -1.079 0.259 -0.01 0.65 -0.76 0.07
1 5.56 556 -2.112 -8.495 0.939 55.023 -14.801 35.217 -299.955 -659.870 -2729.872 1.376 -1.135 0.726 -0.01 0.64 -0.76 0.07
1 5.57 557 -2.241 -8.816 0.819 28.229 -31.189 28.626 -344.925 -539.948 -2804.973 1.460 -0.796 0.924 -0.01 0.64 -0.76 0.07
1 5.58 558 -1.714 -9.582 0.929 19.287 -41.382 23.834 -344.925 -539.948 -2804.973 0.886 -0.018 0.861 -0.01 0.64 -0.77 0.08
1 5.59 559 -0.910 -9.932 1.111 16.571 -48.401 16.144 -209.863 -569.929 -2894.914 0.047 0.341 0.710 -0.01 0.64 -0.77 0.08
1 5.60 560 -0.560 -10.157 1.566 18.005 -40.680 12.421 -269.974 -629.890 -2849.943 -0.326 0.578 0.309 -0.01 0.64 -0.77 0.09
1 5.61 561 -0.532 -10.042 1.844 10.468 -37.079 8.362 -254.984 -569.929 -2819.963 -0.355 0.469 0.059 -0.01 0.63 -0.77 0.09
1 5.62 562 -0.603 -9.884 1.451 -0.946 -31.983 4.395 -359.916 -569.929 -2969.865 -0.280 0.314 0.467 -0.01 0.63 -0.77 0.09
1 5.63 563 -0.958 -9.903 1.326 -17.548 -32.684 1.892 -359.916 -569.929 -2969.865 0.083 0.331 0.588 -0.02 0.63 -0.77 0.09
1 5.64 564 -1.135 -9.989 1.202 -38.300 -39.368 -2.228 -224.854 -704.991 -2804.973 0.269 0.411 0.683 -0.02 0.64 -0.77 0.09
1 5.65 565 -1.384 -10.027 1.121 -45.258 -43.305 -2.625 -224.854 -704.991 -2804.973 0.532 0.438 0.713 -0.02 0.64 -0.76 0.09
1 5.66 566 -1.599 -10.123 1.030 -48.035 -45.593 -6.531 -284.964 -599.909 -2939.885 0.761 0.521 0.742 -0.02 0.64 -0.76 0.09
1 5.67 567 -1.599 -9.984 0.915 -45.502 -47.455 -11.322 -254.984 -524.958 -2894.914 0.800 0.354 0.719 -0.03 0.64 -0.76 0.1
1 5.68 568 -1.642 -9.453 0.699 -47.730 -47.028 -15.472 -494.978 -659.870 -2804.973 0.867 -0.190 0.869 -0.03 0.65 -0.76 0.1
1 5.69 569 -1.652 -9.060 0.527 -56.366 -45.441 -19.440 -389.896 -449.857 -2714.881 0.906 -0.596 0.969 -0.04 0.65 -0.75 0.1
1 5.70 570 -1.666 -9.012 0.302 -66.162 -44.495 -24.597 -389.896 -449.857 -2714.881 0.955 -0.660 1.107 -0.04 0.65 -0.75 0.1
1 5.71 571 -1.523 -9.314 0.172 -70.313 -41.565 -28.931 -449.857 -434.867 -2729.872 0.852 -0.375 1.136 -0.04 0.66 -0.75 0.1
1 5.72 572 -0.690 -9.764 -0.259 -67.414 -34.424 -33.447 -449.857 -434.867 -2729.872 0.066 0.058 1.461 -0.05 0.66 -0.74 0.1
1 5.73 573 -0.517 -9.759 -0.699 -57.007 -25.879 -29.633 -419.876 -389.896 -2669.911 -0.054 0.037 1.795 -0.05 0.66 -0.74 0.1
1 5.74 574 -0.330 -9.984 -0.972 -42.420 -21.668 -22.888 -584.919 -224.854 -2714.881 -0.190 0.249 1.972 -0.05 0.67 -0.74 0.1
1 5.75 575 0.278 -10.348 -1.322 -18.738 -21.332 -7.843 -614.899 -449.857 -2639.930 -0.725 0.596 2.185 -0.06 0.67 -0.73 0.1
1 5.76 576 0.479 -10.679 -1.365 -2.258 -21.271 2.625 -704.991 -359.916 -2444.907 -0.909 0.923 2.193 -0.06 0.67 -0.73 0.1
1 5.77 577 0.627 -11.042 -1.599 9.796 -26.001 10.223 -704.991 -359.916 -2444.907 -1.054 1.286 2.416 -0.06 0.67 -0.73 0.1
1 5.78 578 0.445 -11.268 -1.690 15.961 -31.799 15.015 -509.968 -254.984 -2384.946 -0.884 1.513 2.529 -0.06 0.67 -0.73 0.1
1 5.79 579 0.455 -11.655 -1.566 13.367 -38.818 17.242 -509.968 -254.984 -2384.946 -0.911 1.904 2.432 -0.07 0.67 -0.73 0.11
1 5.80 580 -0.019 -12.704 1.279 18.677 -39.765 19.348 -659.870 -329.935 -2639.930 -0.456 2.956 -0.387 -0.07 0.67 -0.73 0.11
1 5.81 581 -0.369 -12.771 2.169 36.957 -25.848 30.884 -569.929 -239.994 -2624.940 -0.127 3.027 -1.249 -0.07 0.67 -0.73 0.11
1 5.82 582 0.752 -12.335 2.586 35.278 -10.254 27.680 -614.899 -254.984 -2714.881 -1.324 2.607 -1.547 -0.07 0.67 -0.73 0.12
1 5.83 583 1.269 -11.933 2.136 -6.165 3.723 30.670 -539.948 -374.906 -2759.852 -1.882 2.212 -1.054 -0.06 0.66 -0.74 0.12
1 5.84 584 1.556 -12.302 1.705 -70.374 21.545 31.983 -539.948 -374.906 -2759.852 -2.216 2.581 -0.655 -0.06 0.67 -0.73 0.12
1 5.85 585 2.452 -14.280 1.786 -117.127 31.220 33.997 -614.899 -374.906 -2639.930 -3.162 4.549 -0.863 -0.06 0.67 -0.73 0.12
1 5.86 586 3.050 -15.908 1.901 -117.951 54.108 37.598 -614.899 -374.906 -2639.930 -3.816 6.166 -1.160 -0.06 0.68 -0.72 0.12
1 5.87 587 1.925 -14.720 -0.340 -75.104 72.663 39.002 -629.890 -389.896 -2594.959 -2.752 4.972 0.908 -0.05 0.68 -0.72 0.12
1 5.88 588 0.919 -13.370 -0.814 -37.628 57.892 37.964 -614.899 -179.883 -2564.979 -1.809 3.620 1.249 -0.05 0.69 -0.71 0.12
1 5.89 589 -0.575 -11.033 0.239 20.783 25.513 35.492 -524.958 -284.964 -2594.959 -0.432 1.291 0.100 -0.04 0.69 -0.71 0.11
1 5.90 590 -1.111 -10.185 0.838 59.082 8.820 29.450 -464.997 -224.854 -2504.868 0.053 0.450 -0.455 -0.04 0.69 -0.71 0.11
1 5.91 591 -2.662 -7.058 2.452 81.024 -3.052 15.350 -464.997 -224.854 -2504.868 1.564 -2.668 -1.964 -0.03 0.69 -0.72 0.12
1 5.92 592 -3.055 -5.646 3.113 80.078 -14.771 4.974 -434.867 -179.883 -2564.979 1.939 -4.071 -2.499 -0.03 0.68 -0.72 0.12
1 5.93 593 -2.935 -4.343 3.620 63.751 -23.041 -5.707 -434.867 -179.883 -2564.979 1.820 -5.366 -2.888 -0.03 0.68 -0.72 0.12
1 5.94 594 -2.581 -3.409 4.042 28.839 -28.687 -6.683 -374.906 -314.945 -2519.858 1.478 -6.293 -3.216 -0.03 0.68 -0.73 0.12
1 5.95 595 -2.715 -3.405 4.372 3.021 -19.623 -2.380 -284.964 -299.955 -2564.979 1.629 -6.295 -3.489 -0.03 0.67 -0.73 0.12
1 5.96 596 -3.615 -4.425 3.960 -38.971 9.308 0.214 -344.925 -209.863 -2699.891 2.544 -5.277 -3.084 -0.04 0.67 -0.73 0.12
1 5.97 597 -4.094 -4.750 3.524 -52.704 16.419 2.136 -284.964 -254.984 -2564.979 3.021 -4.957 -2.717 -0.03 0.68 -0.73 0.12
1 5.98 598 -5.196 -7.255 1.748 -83.069 13.825 4.089 -284.964 -254.984 -2564.979 4.116 -2.460 -1.046 -0.03 0.68 -0.72 0.12
1 5.99 599 -4.956 -9.060 0.646 -86.396 -4.791 -7.843 -329.935 -329.935 -2714.881 3.858 -0.661 -0.068 -0.03 0.69 -0.72 0.12
1 6.00 600 -4.156 -11.167 -0.029 -64.209 -24.902 -26.093 -329.935 -329.935 -2714.881 3.048 1.441 0.491 -0.03 0.69 -0.71 0.12
1 6.01 601 -2.830 -12.934 0.105 4.181 -42.297 -50.507 -329.935 -74.951 -2639.930 1.770 3.199 0.282 -0.04 0.69 -0.71 0.12
1 6.02 602 -0.991 -14.620 1.403 53.345 -46.295 -62.256 -254.984 -149.902 -2609.950 0.005 4.877 -1.021 -0.04 0.69 -0.71 0.12
1 6.03 603 0.876 -14.567 3.318 91.461 -37.232 -69.000 -254.984 -149.902 -2609.950 -1.769 4.818 -2.866 -0.05 0.69 -0.71 0.11
1 6.04 604 2.217 -11.320 3.692 100.251 -3.326 -63.935 -614.899 -179.883 -2504.868 -2.899 1.573 -2.945 -0.05 0.68 -0.73 0.11
1 6.05 605 2.504 -8.897 3.117 58.533 1.068 -63.446 -614.899 -179.883 -2504.868 -3.089 -0.845 -2.232 -0.06 0.67 -0.73 0.11
1 6.06 606 3.462 -7.413 2.581 -1.434 -4.211 -61.981 -539.948 -149.902 -2684.901 -3.940 -2.328 -1.620 -0.06 0.67 -0.73 0.1
1 6.07 607 4.166 -6.919 1.724 -53.833 -7.477 -57.739 -539.948 -149.902 -2684.901 -4.537 -2.828 -0.776 -0.06 0.67 -0.73 0.1
1 6.08 608 4.496 -7.121 1.585 -93.170 5.951 -40.375 -629.890 -314.945 -2699.891 -4.782 -2.638 -0.730 -0.07 0.67 -0.73 0.1
1 6.09 609 2.849 -8.006 0.527 -90.821 13.397 -29.053 -734.971 -104.932 -2714.881 -3.068 -1.764 0.195 -0.07 0.68 -0.73 0.09
1 6.10 610 1.877 -8.409 0.129 -53.833 2.136 -23.773 -734.971 -104.932 -2714.881 -2.049 -1.372 0.454 -0.07 0.68 -0.72 0.09
1 6.11 611 1.705 -8.821 0.565 -0.427 1.892 -21.576 -734.971 -149.902 -2534.999 -1.796 -0.969 -0.113 -0.08 0.69 -0.72 0.09
1 6.12 612 1.331 -9.046 1.097 22.095 10.193 -22.125 -734.971 -149.902 -2534.999 -1.374 -0.743 -0.634 -0.08 0.69 -0.72 0.08
1 6.13 613 1.116 -9.304 1.446 36.316 21.484 -24.719 -779.942 -44.971 -2414.927 -1.113 -0.483 -0.938 -0.08 0.68 -0.72 0.08
1 6.14 614 0.742 -9.773 1.192 37.109 28.320 -29.785 -779.942 -44.971 -2414.927 -0.692 -0.010 -0.620 -0.08 0.68 -0.72 0.08
1 6.15 615 0.718 -10.118 0.713 30.335 28.015 -33.783 -690.000 -149.902 -2534.999 -0.618 0.339 -0.080 -0.08 0.68 -0.73 0.08
1 6.16 616 0.991 -10.362 0.206 8.942 27.496 -35.034 -734.971 -104.932 -2684.901 -0.836 0.587 0.472 -0.08 0.68 -0.73 0.07
1 6.17 617 1.058 -10.463 0.297 -9.003 31.403 -32.990 -734.971 -104.932 -2684.901 -0.848 0.690 0.400 -0.08 0.68 -0.73 0.07
1 6.18 618 1.025 -10.324 0.201 -23.438 35.156 -29.389 -899.864 -209.863 -2624.940 -0.760 0.552 0.488 -0.08 0.68 -0.73 0.07
1 6.19 619 0.742 -10.827 0.053 -22.156 31.921 -22.186 -794.932 -74.951 -2609.950 -0.387 1.053 0.567 -0.08 0.68 -0.73 0.06
1 6.20 620 1.049 -11.306 0.029 -7.172 28.137 -16.998 -899.864 -239.994 -2624.940 -0.661 1.531 0.564 -0.08 0.68 -0.73 0.06
1 6.21 621 1.068 -11.531 -0.010 16.846 30.426 -11.963 -899.864 -239.994 -2624.940 -0.657 1.758 0.604 -0.08 0.68 -0.73 0.05
1 6.22 622 1.121 -11.330 0.283 42.816 41.168 -5.005 -779.942 -119.922 -2594.959 -0.696 1.560 0.351 -0.08 0.68 -0.73 0.05
1 6.23 623 1.140 -11.406 0.220 39.765 62.714 9.674 -854.893 -89.941 -2624.940 -0.714 1.641 0.484 -0.08 0.68 -0.73 0.05
1 6.24 624 0.680 -10.712 0.206 23.651 78.461 23.254 -854.893 -89.941 -2624.940 -0.269 0.951 0.568 -0.07 0.67 -0.73 0.05
1 6.25 625 0.244 -9.716 -0.129 -0.122 84.534 32.837 -659.870 -149.902 -2759.852 0.128 -0.042 0.952 -0.07 0.67 -0.73 0.05
1 6.26 626 0.024 -8.629 -0.699 -47.272 71.869 34.546 -764.952 -104.932 -2759.852 0.234 -1.135 1.495 -0.06 0.68 -0.73 0.04
1 6.27 627 0.340 -8.169 -1.073 -69.306 58.289 29.450 -690.000 -149.902 -2714.881 -0.140 -1.603 1.787 -0.05 0.68 -0.73 0.04
1 6.28 628 0.661 -8.227 -1.216 -70.648 43.854 22.247 -690.000 -149.902 -2714.881 -0.507 -1.553 1.827 -0.05 0.68 -0.73 0.04
1 6.29 629 1.432 -8.236 -1.202 -55.451 30.304 15.717 -674.860 -14.990 -2774.992 -1.311 -1.549 1.714 -0.04 0.69 -0.72 0.04
1 6.30 630 1.786 -8.509 -0.872 -35.584 21.423 10.803 -629.890 -44.971 -2699.891 -1.687 -1.280 1.311 -0.04 0.69 -0.72 0.04
1 6.31 631 1.580 -8.619 -0.546 -19.714 13.916 9.613 -629.890 -44.971 -2699.891 -1.497 -1.172 0.940 -0.04 0.69 -0.72 0.04
1 6.32 632 0.958 -8.993 -0.455 -24.658 11.841 9.979 -419.876 -89.941 -2624.940 -0.875 -0.800 0.812 -0.04 0.69 -0.72 0.04
1 6.33 633 -0.139 -9.577 -0.340 -36.652 9.186 6.836 -584.919 74.951 -2759.852 0.200 -0.219 0.613 -0.04 0.7 -0.72 0.04
1 6.34 634 -0.369 -10.018 -0.766 -39.063 5.829 4.730 -584.919 0.000 -2714.881 0.422 0.220 0.980 -0.04 0.7 -0.71 0.04
1 6.35 635 -1.125 -10.947 -1.183 -32.654 3.815 1.495 -584.919 0.000 -2714.881 1.170 1.148 1.335 -0.04 0.7 -0.71 0.04
1 6.36 636 -1.417 -11.358 -1.690 -19.074 0.000 0.366 -509.968 104.932 -2639.930 1.459 1.559 1.795 -0.04 0.7 -0.71 0.04
1 6.37 637 -1.422 -11.229 -1.896 -7.843 -1.007 0.305 -464.997 104.932 -2429.917 1.465 1.430 1.979 -0.04 0.7 -0.71 0.04
1 6.38 638 -0.881 -10.401 -1.930 -0.946 4.852 0.031 -464.997 104.932 -2429.917 0.925 0.601 2.005 -0.04 0.7 -0.71 0.04
1 6.39 639 -0.680 -10.080 -0.532 0.214 7.233 -0.122 -524.958 -14.990 -2594.959 0.725 0.280 0.608 -0.04 0.7 -0.71 0.04
1 6.40 640 -0.196 -8.567 0.690 6.073 1.617 -9.033 -464.997 74.951 -2534.999 0.235 -1.233 -0.614 -0.04 0.7 -0.71 0.04
1 6.41 641 -0.350 -8.677 1.915 8.972 -2.289 -12.543 -464.997 -104.932 -2639.930 0.404 -1.123 -1.823 -0.04 0.7 -0.71 0.04
1 6.42 642 -1.106 -8.787 3.448 -2.350 -4.730 -19.470 -464.997 -104.932 -2639.930 1.183 -1.012 -3.315 -0.04 0.7 -0.71 0.04
1 6.43 643 -2.375 -9.682 1.489 -55.603 -0.397 -28.381 -539.948 104.932 -2534.999 2.478 -0.116 -1.351 -0.04 0.7 -0.71 0.04
1 6.44 644 -3.448 -12.867 0.488 -94.818 1.831 -42.267 -509.968 104.932 -2459.897 3.584 3.068 -0.436 -0.04 0.7 -0.71 0.03
1 6.45 645 -4.860 -16.564 -1.053 -59.418 -33.539 -67.902 -509.968 104.932 -2459.897 5.068 6.766 0.964 -0.05 0.71 -0.7 0.03
1 6.46 646 -3.759 -16.152 -0.503 -31.494 -43.274 -80.200 -494.978 -89.941 -2549.989 4.063 6.359 0.308 -0.05 0.71 -0.7 0.03
1 6.47 647 -2.557 -14.634 -0.412 -20.905 -44.830 -82.123 -434.867 179.883 -2324.985 2.978 4.846 0.162 -0.06 0.71 -0.7 0.03
1 6.48 648 0.369 -12.479 1.202 15.686 -47.333 -55.664 -704.991 284.964 -2519.858 0.285 2.706 -1.504 -0.07 0.71 -0.7 0.02
1 6.49 649 2.040 -10.090 2.495 51.788 -43.152 -29.938 -704.991 284.964 -2519.858 -1.314 0.320 -2.763 -0.08 0.71 -0.7 0.02
1 6.50 650 2.993 -7.537 3.438 65.644 -26.001 -14.984 -674.860 89.941 -2519.858 -2.223 -2.231 -3.613 -0.08 0.71 -0.7 0.03
1 6.51 651 3.007 -5.512 3.510 52.246 -9.216 -3.052 -674.860 119.922 -2414.927 -2.211 -4.256 -3.578 -0.08 0.7 -0.7 0.03
1 6.52 652 3.314 -4.851 3.409 9.522 6.348 7.080 -674.860 119.922 -2414.927 -2.514 -4.917 -3.408 -0.09 0.7 -0.71 0.03
1 6.53 653 3.668 -5.440 3.438 -12.238 9.064 10.651 -839.903 74.951 -2609.950 -2.876 -4.328 -3.409 -0.09 0.7 -0.71 0.03
1 6.54 654 4.329 -6.675 3.084 -18.005 6.897 9.552 -690.000 74.951 -2534.999 -3.551 -3.094 -3.064 -0.08 0.7 -0.71 0.03
1 6.55 655 5.770 -9.615 2.873 10.803 9.735 5.707 -764.952 74.951 -2609.950 -4.998 -0.154 -2.875 -0.08 0.7 -0.71 0.03
1 6.56 656 6.656 -11.679 2.389 47.089 16.266 15.381 -764.952 74.951 -2609.950 -5.876 1.911 -2.348 -0.08 0.7 -0.71 0.03
1 6.57 657 6.091 -12.905 1.882 84.198 20.660 36.987 -854.893 209.863 -2369.956 -5.339 3.135 -1.751 -0.08 0.7 -0.71 0.03
1 6.58 658 4.492 -13.537 1.489 115.540 14.771 64.087 -690.000 224.854 -2384.946 -3.805 3.765 -1.215 -0.08 0.69 -0.72 0.03
1 6.59 659 2.988 -13.370 1.810 130.677 5.707 89.356 -690.000 224.854 -2384.946 -2.407 3.598 -1.351 -0.07 0.69 -0.72 0.04
1 6.60 660 1.077 -12.536 3.232 112.610 24.170 105.713 -674.860 -14.990 -2624.940 -0.635 2.768 -2.577 -0.07 0.68 -0.73 0.04
1 6.61 661 -0.599 -11.167 3.448 90.821 45.380 105.378 -734.971 29.980 -2639.930 0.883 1.407 -2.614 -0.06 0.67 -0.74 0.05
1 6.62 662 -2.236 -9.208 2.849 74.280 55.542 97.138 -734.971 29.980 -2639.930 2.358 -0.542 -1.868 -0.05 0.67 -0.74 0.05
1 6.63 663 -4.444 -6.919 2.447 39.490 41.931 68.451 -629.890 -119.922 -2849.943 4.253 -2.805 -1.244 -0.04 0.66 -0.75 0.06
1 6.64 664 -4.367 -6.560 2.548 9.308 25.665 45.593 -539.948 -104.932 -2864.934 4.064 -3.154 -1.291 -0.03 0.66 -0.75 0.06
1 6.65 665 -4.391 -6.680 2.758 -11.475 15.900 29.480 -329.935 -179.883 -2969.865 4.023 -3.031 -1.496 -0.03 0.66 -0.75 0.06
1 6.66 666 -4.123 -6.924 2.605 -22.217 14.587 18.799 -329.935 -179.883 -2969.865 3.713 -2.788 -1.364 -0.03 0.66 -0.75 0.06
1 6.67 667 -3.793 -7.145 2.251 -24.078 11.047 12.512 -434.867 -224.854 -2969.865 3.357 -2.571 -1.043 -0.03 0.66 -0.75 0.06
1 6.68 668 -3.534 -7.173 2.136 -19.684 9.552 12.512 -284.964 -179.883 -2969.865 3.079 -2.546 -0.964 -0.02 0.66 -0.75 0.06
1 6.69 669 -3.280 -7.298 1.896 -18.921 6.378 12.054 -284.964 -179.883 -2969.865 2.806 -2.424 -0.754 -0.02 0.66 -0.74 0.06
1 6.70 670 -2.600 -8.121 1.762 -22.644 3.723 13.214 -194.873 -89.941 -2984.855 2.091 -1.605 -0.677 -0.02 0.67 -0.74 0.06
1 6.71 671 -2.313 -8.409 1.729 -11.780 5.035 15.900 -104.932 -104.932 -3044.966 1.784 -1.320 -0.674 -0.02 0.67 -0.74 0.06
1 6.72 672 -2.040 -8.667 1.451 12.054 5.310 18.707 -299.955 -164.893 -3059.957 1.479 -1.060 -0.401 -0.02 0.67 -0.74 0.06
1 6.73 673 -1.959 -8.576 1.106 27.863 2.716 21.271 -299.955 -164.893 -3059.957 1.357 -1.145 -0.026 -0.02 0.67 -0.74 0.06
1 6.74 674 -1.796 -8.533 1.034 37.293 -5.798 22.186 -59.961 -179.883 -2864.934 1.152 -1.180 0.094 -0.01 0.66 -0.74 0.07
1 6.75 675 -1.700 -8.768 0.963 35.675 -16.052 18.555 -359.916 0.000 -3074.947 1.021 -0.936 0.225 -0.01 0.66 -0.75 0.07
1 6.76 676 -1.729 -9.189 0.747 28.534 -20.142 16.327 -359.916 0.000 -3074.947 1.021 -0.505 0.498 -0.01 0.66 -0.75 0.07
1 6.77 677 -1.848 -9.989 0.364 17.487 -32.288 12.817 -104.932 -104.932 -3014.986 1.089 0.309 0.962 -0.01 0.66 -0.75 0.07
1 6.78 678 -1.791 -10.281 0.239 14.862 -42.023 9.277 -194.873 -89.941 -3029.976 1.014 0.606 1.110 -0.01 0.66 -0.75 0.08
1 6.79 679 -1.413 -10.640 0.713 12.543 -46.723 8.118 -269.974 -119.922 -2984.855 0.626 0.968 0.656 -0.02 0.66 -0.75 0.08
1 6.80 680 -1.140 -10.339 0.934 5.554 -45.654 6.073 -269.974 -119.922 -2984.855 0.349 0.669 0.453 -0.02 0.65 -0.75 0.08
1 6.81 681 -1.006 -10.157 0.963 -8.301 -42.572 3.296 -179.883 -179.883 -3074.947 0.215 0.488 0.430 -0.02 0.65 -0.75 0.08
1 6.82 682 -1.135 -10.147 0.613 -26.611 -40.222 0.824 -254.984 -149.902 -3194.869 0.348 0.476 0.765 -0.02 0.66 -0.75 0.09
1 6.83 683 -1.130 -10.056 0.125 -29.389 -39.093 0.488 -254.984 -149.902 -3194.869 0.350 0.380 1.218 -0.02 0.66 -0.75 0.09
1 6.84 684 -1.370 -10.286 -0.508 -27.954 -41.016 -1.709 -344.925 -164.893 -3134.908 0.603 0.596 1.760 -0.03 0.66 -0.75 0.09
1 6.85 685 -1.403 -10.281 -0.666 -26.276 -43.579 -2.136 -374.906 -89.941 -2954.875 0.645 0.585 1.871 -0.03 0.66 -0.74 0.09
1 6.86 686 -1.523 -10.473 -0.814 -16.541 -52.918 -8.972 -344.925 -209.863 -3059.957 0.778 0.771 1.979 -0.03 0.66 -0.74 0.09
1 6.87 687 -1.427 -10.391 -0.862 -9.735 -57.434 -12.482 -344.925 -209.863 -3059.957 0.702 0.684 1.997 -0.04 0.66 -0.74 0.1
1 6.88 688 -1.001 -9.999 -0.723 -4.028 -58.960 -16.602 -284.964 -224.854 -3074.947 0.302 0.287 1.838 -0.04 0.66 -0.74 0.1
1 6.89 689 -0.369 -9.194 -0.306 -3.357 -51.544 -18.372 -389.896 -74.951 -2969.865 -0.297 -0.521 1.409 -0.04 0.66 -0.74 0.1
1 6.90 690 -0.378 -8.758 0.081 -11.566 -42.297 -16.541 -389.896 -74.951 -2969.865 -0.249 -0.960 1.013 -0.05 0.66 -0.74 0.1
1 6.91 691 -0.397 -8.821 0.024 -26.001 -34.515 -13.367 -524.958 14.990 -2984.855 -0.194 -0.902 1.054 -0.05 0.67 -0.74 0.1
1 6.92 692 -0.302 -9.074 0.105 -48.126 -25.910 -6.683 -629.890 -209.863 -2984.855 -0.239 -0.660 0.888 -0.06 0.67 -0.73 0.1
1 6.93 693 -0.283 -9.414 -0.402 -57.770 -24.017 -2.869 -614.899 0.000 -3014.986 -0.242 -0.329 1.318 -0.06 0.67 -0.73 0.1
1 6.94 694 -0.306 -9.864 -0.867 -60.852 -25.391 -0.977 -614.899 0.000 -3014.986 -0.209 0.113 1.689 -0.06 0.67 -0.73 0.1
1 6.95 695 -0.072 -10.482 -1.331 -55.725 -27.863 -0.702 -614.899 104.932 -2939.885 -0.436 0.722 2.056 -0.06 0.68 -0.73 0.1
1 6.96 696 0.024 -10.712 -2.145 -33.875 -31.921 -4.700 -584.919 0.000 -2894.914 -0.524 0.945 2.781 -0.06 0.68 -0.72 0.11
1 6.97 697 -0.182 -10.487 -2.701 -16.419 -36.835 -8.728 -584.919 0.000 -2894.914 -0.307 0.716 3.275 -0.07 0.68 -0.72 0.11
1 6.98 698 -0.105 -10.348 -1.188 3.326 -41.779 -11.627 -690.000 104.932 -3014.986 -0.368 0.575 1.735 -0.07 0.68 -0.72 0.11
1 6.99 699 -0.378 -10.353 2.370 68.421 -19.562 9.369 -674.860 14.990 -2984.855 -0.057 0.580 -1.782 -0.07 0.68 -0.72 0.11
1 7.00 700 0.603 -9.510 3.816 87.311 -9.460 10.956 -584.919 179.883 -2894.914 -1.050 -0.254 -3.107 -0.07 0.68 -0.72 0.11
1 7.01 701 1.235 -8.423 4.051 60.913 3.906 20.844 -584.919 179.883 -2894.914 -1.695 -1.328 -3.193 -0.07 0.67 -0.73 0.11
1 7.02 702 1.628 -9.793 3.654 -20.783 18.677 30.609 -704.991 44.971 -2849.943 -2.110 0.050 -2.706 -0.07 0.67 -0.73 0.11
1 7.03 703 2.978 -13.576 3.965 -103.272 15.472 44.617 -690.000 29.980 -2969.865 -3.497 3.831 -3.061 -0.07 0.67 -0.73 0.11
1 7.04 704 5.478 -18.206 2.538 -150.635 40.802 68.085 -690.000 29.980 -2969.865 -6.070 8.451 -1.808 -0.07 0.68 -0.72 0.12
1 7.05 705 4.990 -19.365 1.207 -131.134 58.869 74.494 -629.890 -119.922 -3059.957 -5.681 9.602 -0.701 -0.06 0.69 -0.72 0.12
1 7.06 706 3.175 -17.871 0.278 -73.792 69.062 76.050 -629.890 -119.922 -3059.957 -3.978 8.108 0.015 -0.06 0.69 -0.71 0.12
1 7.07 707 -1.111 -13.169 0.350 31.860 59.052 77.393 -524.958 119.922 -2804.973 0.077 3.424 -0.236 -0.04 0.7 -0.7 0.12
1 7.08 708 -3.773 -9.759 1.111 82.276 40.558 64.636 -524.958 119.922 -2804.973 2.627 0.028 -0.935 -0.03 0.7 -0.7 0.12
1 7.09 709 -5.148 -6.862 1.733 97.168 17.151 38.666 -464.997 254.984 -2759.852 3.905 -2.854 -1.427 -0.03 0.7 -0.71 0.12
1 7.10 710 -5.358 -5.224 2.413 74.402 -18.707 19.714 -134.912 149.902 -2714.881 4.052 -4.478 -1.963 -0.02 0.69 -0.71 0.12
1 7.11 711 -4.468 -4.109 3.524 12.909 -59.296 4.059 -134.912 149.902 -2714.881 3.141 -5.585 -2.972 -0.02 0.69 -0.72 0.12
1 7.12 712 -4.003 -4.042 4.147 -22.919 -60.517 -3.326 -254.984 224.854 -2894.914 2.674 -5.649 -3.547 -0.03 0.68 -0.72 0.13
1 7.13 713 -4.099 -4.999 4.496 -37.720 -41.412 -9.613 -254.984 224.854 -2894.914 2.779 -4.693 -3.904 -0.03 0.68 -0.72 0.13
1 7.14 714 -4.554 -6.517 3.587 -21.393 -3.937 -5.402 -224.854 209.863 -2909.904 3.272 -3.185 -3.081 -0.03 0.69 -0.71 0.13
1 7.15 715 -5.224 -6.718 2.457 -3.021 7.385 1.434 -224.854 209.863 -2909.904 3.949 -2.986 -1.974 -0.03 0.69 -0.71 0.13
1 7.16 716 -5.062 -7.350 1.571 7.233 0.946 0.244 -284.964 179.883 -2819.963 3.770 -2.352 -1.080 -0.03 0.69 -0.71 0.13
1 7.17 717 -4.018 -7.786 1.259 2.594 -17.181 -7.874 -329.935 149.902 -2819.963 2.699 -1.911 -0.746 -0.03 0.69 -0.71 0.13
1 7.18 718 -2.701 -8.284 1.695 -7.446 -31.708 -20.844 -329.935 149.902 -2819.963 1.390 -1.414 -1.173 -0.03 0.69 -0.71 0.13
1 7.19 719 -0.747 -10.022 2.112 -21.301 -33.692 -43.457 -329.935 329.935 -2819.963 -0.529 0.320 -1.592 -0.03 0.69 -0.71 0.13
1 7.20 720 0.603 -12.034 1.891 -20.783 -31.403 -60.761 -329.935 329.935 -2819.963 -1.820 2.323 -1.381 -0.04 0.69 -0.71 0.13
1 7.21 721 3.912 -15.568 2.308 18.402 -20.294 -62.042 -494.978 314.945 -2699.891 -4.936 5.833 -1.821 -0.05 0.69 -0.71 0.13
1 7.22 722 4.923 -15.563 2.337 50.385 -0.275 -40.344 -494.978 314.945 -2699.891 -5.858 5.822 -1.804 -0.05 0.69 -0.72 0.12
1 7.23 723 4.918 -12.733 2.610 57.007 9.888 -37.842 -359.916 179.883 -2759.852 -5.795 2.992 -1.995 -0.05 0.68 -0.72 0.12
1 7.24 724 5.167 -9.955 2.662 32.623 15.961 -42.664 -539.948 224.854 -2714.881 -5.986 0.214 -1.970 -0.05 0.68 -0.72 0.12
1 7.25 725 5.181 -8.423 2.816 -8.850 21.912 -44.525 -539.948 224.854 -2714.881 -5.935 -1.321 -2.090 -0.05 0.68 -0.72 0.11
1 7.26 726 3.975 -7.389 2.169 -49.133 24.475 -36.774 -659.870 224.854 -2939.885 -4.642 -2.363 -1.463 -0.06 0.68 -0.72 0.11
1 7.27 727 2.701 -7.341 1.872 -55.725 16.846 -20.691 -659.870 224.854 -2939.885 -3.271 -2.421 -1.219 -0.06 0.68 -0.72 0.1
1 7.28 728 1.571 -7.638 1.489 -57.068 10.773 -12.207 -629.890 209.863 -2729.872 -2.082 -2.137 -1.005 -0.06 0.69 -0.72 0.1
1 7.29 729 1.413 -7.963 1.331 -55.176 11.292 -10.712 -629.890 209.863 -2729.872 -1.906 -1.816 -0.930 -0.06 0.69 -0.71 0.1
1 7.30 730 1.283 -8.236 0.790 -35.950 19.806 -8.423 -704.991 314.945 -2699.891 -1.763 -1.546 -0.458 -0.06 0.69 -0.71 0.1
1 7.31 731 0.824 -8.921 0.340 -23.407 27.527 -10.498 -674.860 314.945 -2699.891 -1.290 -0.864 -0.057 -0.06 0.69 -0.71 0.1
1 7.32 732 0.412 -9.515 0.010 -16.235 31.433 -15.808 -674.860 314.945 -2699.891 -0.855 -0.272 0.241 -0.06 0.7 -0.71 0.09
1 7.33 733 -0.105 -10.367 -0.278 -2.655 34.088 -18.738 -539.948 374.906 -2609.950 -0.306 0.579 0.506 -0.06 0.7 -0.71 0.09
1 7.34 734 -0.254 -10.540 -0.287 5.676 34.363 -21.271 -539.948 374.906 -2609.950 -0.125 0.749 0.504 -0.06 0.7 -0.71 0.09
1 7.35 735 -0.570 -10.473 -0.096 9.399 32.684 -22.308 -539.948 419.876 -2639.930 0.224 0.681 0.314 -0.06 0.7 -0.71 0.08
1 7.36 736 -0.555 -10.046 0.273 4.303 30.884 -21.759 -674.860 314.945 -2699.891 0.274 0.253 -0.033 -0.06 0.7 -0.71 0.08
1 7.37 737 -0.402 -9.936 0.464 -1.831 32.196 -21.484 -674.860 434.867 -2729.872 0.151 0.143 -0.221 -0.06 0.7 -0.71 0.08
1 7.38 738 -0.345 -9.874 0.345 -4.730 35.431 -19.959 -839.903 224.854 -2504.868 0.123 0.080 -0.103 -0.06 0.7 -0.71 0.07
1 7.39 739 -0.220 -9.802 0.120 0.549 37.537 -18.372 -839.903 224.854 -2504.868 0.028 0.007 0.118 -0.05 0.7 -0.71 0.07
1 7.40 740 -0.187 -9.893 -0.354 16.449 41.199 -16.327 -659.870 224.854 -2534.999 0.021 0.098 0.598 -0.05 0.7 -0.71 0.07
1 7.41 741 -0.206 -9.730 -0.594 20.966 44.098 -11.047 -659.870 224.854 -2534.999 0.065 -0.065 0.856 -0.05 0.7 -0.71 0.06
1 7.42 742 -0.048 -9.874 -0.632 18.127 49.927 -1.221 -734.971 419.876 -2684.901 -0.075 0.079 0.920 -0.05 0.69 -0.71 0.06
1 7.43 743 0.005 -10.262 -0.287 2.197 61.585 11.566 -764.952 299.955 -2564.979 -0.132 0.468 0.610 -0.05 0.69 -0.72 0.06
1 7.44 744 -0.115 -10.382 -0.536 -14.099 64.484 17.517 -584.919 329.935 -2789.982 -0.031 0.588 0.852 -0.04 0.69 -0.72 0.05
1 7.45 745 -0.125 -10.176 -0.809 -25.787 64.240 21.851 -584.919 299.955 -2639.930 -0.051 0.381 1.093 -0.04 0.7 -0.72 0.05
1 7.46 746 -0.067 -9.879 -1.010 -33.203 63.782 23.621 -584.919 299.955 -2639.930 -0.143 0.084 1.245 -0.03 0.7 -0.71 0.05
1 7.47 747 0.014 -9.903 -0.924 -29.297 59.662 25.269 -599.909 359.916 -2669.911 -0.260 0.107 1.100 -0.03 0.7 -0.71 0.05
1 7.48 748 0.225 -10.061 -0.464 -21.454 50.690 25.360 -599.909 359.916 -2669.911 -0.506 0.266 0.590 -0.03 0.7 -0.71 0.05
1 7.49 749 0.220 -9.697 -0.330 -22.064 47.424 27.283 -359.916 299.955 -2714.881 -0.536 -0.098 0.414 -0.02 0.7 -0.71 0.04
1 7.50 750 0.335 -9.146 -0.498 -26.672 43.640 25.726 -344.925 314.945 -2594.959 -0.687 -0.647 0.546 -0.02 0.71 -0.71 0.04
1 7.51 751 0.120 -8.428 -0.589 -30.701 36.957 15.442 -464.997 374.906 -2639.930 -0.533 -1.363 0.547 -0.01 0.71 -0.7 0.04
1 7.52 752 -0.120 -8.246 -0.565 -26.428 32.044 7.599 -164.893 314.945 -2669.911 -0.313 -1.544 0.476 -0.01 0.71 -0.7 0.04
1 7.53 753 -0.613 -8.375 -0.742 -16.327 25.787 -0.580 -164.893 314.945 -2669.911 0.175 -1.414 0.616 -0.01 0.71 -0.7 0.04
1 7.54 754 -1.001 -8.222 -0.948 -4.089 16.480 -8.209 -269.974 539.948 -2549.989 0.569 -1.567 0.802 -0.01 0.71 -0.7 0.04
1 7.55 755 -1.058 -7.834 -1.207 3.143 6.683 -17.151 -269.974 539.948 -2549.989 0.643 -1.956 1.058 -0.01 0.71 -0.7 0.04
1 7.56 756 -1.063 -7.757 -1.623 -3.052 8.728 -23.071 -344.925 434.867 -2519.858 0.673 -2.034 1.481 -0.01 0.71 -0.7 0.03
1 7.57 757 -1.092 -8.011 -2.064 -10.742 14.496 -23.865 -419.876 389.896 -2444.907 0.736 -1.781 1.920 -0.01 0.71 -0.7 0.03
1 7.58 758 -0.915 -8.677 -2.145 -17.181 22.308 -22.919 -179.883 449.857 -2534.999 0.636 -1.117 1.966 -0.01 0.71 -0.7 0.03
1 7.59 759 -0.982 -9.228 -0.488 -16.174 19.745 -22.827 -269.974 464.847 -2594.959 0.737 -0.567 0.277 -0.01 0.71 -0.7 0.03
1 7.60 760 -0.512 -9.711 0.096 -13.001 14.465 -29.114 -269.974 464.847 -2594.959 0.299 -0.084 -0.335 -0.01 0.72 -0.7 0.02
1 7.61 761 -0.560 -11.172 1.791 -7.935 5.768 -34.119 -299.955 434.867 -2444.907 0.392 1.376 -2.045 -0.01 0.72 -0.7 0.02
1 7.62 762 -1.101 -12.498 1.097 -33.447 -2.991 -35.401 -299.955 434.867 -2444.907 0.986 2.702 -1.356 -0.01 0.72 -0.7 0.02
1 7.63 763 -1.891 -13.987 -0.541 -85.114 -0.427 -39.673 -299.955 434.867 -2414.927 1.830 4.192 0.245 -0.01 0.72 -0.7 0.02
1 7.64 764 -3.232 -17.225 -2.227 -121.186 5.646 -51.880 -389.896 329.935 -2459.897 3.229 7.433 1.824 -0.02 0.72 -0.69 0.02
1 7.65 765 -3.275 -20.696 -4.348 -66.406 -27.741 -78.186 -464.997 449.857 -2534.999 3.447 10.925 3.617 -0.03 0.73 -0.68 0.01
1 7.66 766 -1.508 -19.150 -3.975 -13.275 -37.354 -77.210 -584.919 449.857 -2249.884 1.795 9.387 3.164 -0.03 0.74 -0.68 0.01
1 7.67 767 0.263 -16.195 -2.639 22.278 -26.489 -64.514 -584.919 449.857 -2249.884 0.133 6.437 1.824 -0.04 0.73 -0.68 0.01
1 7.68 768 1.245 -13.887 -1.642 45.014 -14.557 -38.544 -629.890 509.968 -2159.943 -0.762 4.129 0.870 -0.04 0.73 -0.68 0.01
1 7.69 769 1.767 -12.125 -0.306 65.644 -9.766 -13.336 -629.890 509.968 -2159.943 -1.235 2.364 -0.390 -0.05 0.73 -0.68 0.01
1 7.70 770 2.208 -9.328 1.623 80.017 -7.629 14.587 -734.971 569.929 -2249.884 -1.663 -0.439 -2.213 -0.05 0.73 -0.69 0.01
1 7.71 771 2.485 -7.312 2.322 69.702 -1.984 23.316 -854.893 464.847 -2159.943 -1.951 -2.462 -2.785 -0.05 0.72 -0.69 0.01
1 7.72 772 1.719 -4.698 2.337 47.791 -5.768 28.168 -749.961 389.896 -2294.855 -1.242 -5.088 -2.583 -0.05 0.71 -0.7 0.01
1 7.73 773 1.705 -4.085 2.480 42.664 -11.505 25.391 -704.991 314.945 -2369.956 -1.266 -5.704 -2.658 -0.05 0.71 -0.7 0.01
1 7.74 774 1.652 -3.448 2.935 32.959 -24.414 16.296 -704.991 314.945 -2369.956 -1.244 -6.343 -3.057 -0.05 0.71 -0.7 0.02
1 7.75 775 1.920 -3.409 3.304 32.318 -24.658 9.827 -584.919 329.935 -2384.946 -1.532 -6.383 -3.376 -0.05 0.71 -0.7 0.02
1 7.76 776 2.179 -3.323 3.386 34.668 -21.454 5.066 -584.919 329.935 -2384.946 -1.803 -6.469 -3.408 -0.05 0.71 -0.71 0.02
1 7.77 777 2.509 -3.577 3.457 34.515 -13.123 13.153 -659.870 329.935 -2354.966 -2.140 -6.216 -3.426 -0.05 0.7 -0.71 0.02
1 7.78 778 2.131 -4.343 3.903 29.205 -4.700 29.358 -614.899 299.955 -2504.868 -1.776 -5.450 -3.818 -0.05 0.7 -0.71 0.03
1 7.79 779 1.681 -5.545 4.152 17.578 4.334 49.500 -614.899 299.955 -2504.868 -1.362 -4.249 -4.019 -0.05 0.7 -0.71 0.03
1 7.80 780 0.407 -8.011 4.520 25.940 27.649 66.681 -629.890 314.945 -2519.858 -0.241 -1.785 -4.325 -0.04 0.7 -0.71 0.03
1 7.81 781 -1.149 -10.626 3.970 32.745 42.145 63.996 -629.890 314.945 -2519.858 1.215 0.829 -3.713 -0.04 0.7 -0.72 0.04
1 7.82 782 -2.916 -14.227 2.428 36.591 43.335 51.850 -509.968 374.906 -2429.917 2.888 4.432 -2.103 -0.03 0.69 -0.72 0.04
1 7.83 783 -4.769 -18.441 -1.068 65.888 30.304 24.475 -509.968 374.906 -2429.917 4.671 8.649 1.455 -0.03 0.69 -0.72 0.04
1 7.84 784 -3.730 -19.585 -1.762 180.237 -38.513 -4.761 -614.899 224.854 -2639.930 3.607 9.800 2.279 -0.03 0.69 -0.72 0.04
1 7.85 785 -1.097 -13.944 3.682 169.098 -59.845 8.972 -464.997 224.854 -2564.979 0.984 4.175 -2.918 -0.03 0.68 -0.73 0.04
1 7.86 786 -0.172 -9.486 5.263 81.665 -23.071 15.259 -464.997 224.854 -2564.979 0.060 -0.258 -4.228 -0.03 0.67 -0.74 0.04
1 7.87 787 -0.924 -6.307 4.152 -53.833 18.005 39.276 -524.958 44.971 -2954.875 0.758 -3.415 -2.925 -0.03 0.66 -0.75 0.05
1 7.88 788 -1.700 -6.613 2.600 -99.640 18.738 39.490 -524.958 44.971 -2954.875 1.472 -3.120 -1.475 -0.03 0.66 -0.74 0.05
1 7.89 789 -1.801 -7.872 1.441 -96.466 4.761 40.772 -494.978 44.971 -2879.924 1.512 -1.875 -0.467 -0.03 0.67 -0.74 0.05
1 7.90 790 -1.772 -8.619 0.785 -67.658 -8.118 40.955 -494.978 44.971 -2879.924 1.423 -1.138 0.055 -0.02 0.68 -0.73 0.05
1 7.91 791 -1.777 -8.912 0.603 -35.553 -14.038 39.032 -449.857 -14.990 -2729.872 1.364 -0.851 0.151 -0.02 0.68 -0.73 0.06
1 7.92 792 -2.078 -9.376 0.699 -1.587 -23.743 37.140 -359.916 224.854 -2639.930 1.601 -0.386 0.014 -0.02 0.68 -0.73 0.06
1 7.93 793 -2.179 -9.314 0.843 19.226 -30.640 36.835 -359.916 224.854 -2639.930 1.639 -0.446 -0.136 -0.02 0.68 -0.73 0.06
1 7.94 794 -2.236 -9.424 1.355 31.464 -35.278 38.605 -464.997 224.854 -2639.930 1.634 -0.330 -0.623 -0.02 0.68 -0.73 0.07
1 7.95 795 -2.231 -9.563 1.542 30.121 -34.180 41.809 -269.974 164.893 -2804.973 1.500 -0.174 -0.701 -0.02 0.68 -0.73 0.08
1 7.96 796 -2.299 -9.716 1.456 24.506 -32.471 39.703 -344.925 209.863 -2594.959 1.500 -0.010 -0.562 -0.02 0.67 -0.73 0.08
1 7.97 797 -2.093 -9.644 1.346 16.968 -32.959 35.889 -344.925 209.863 -2594.959 1.231 -0.073 -0.408 -0.02 0.67 -0.74 0.08
1 7.98 798 -2.069 -9.568 1.044 8.728 -33.783 26.611 -299.955 14.990 -2879.924 1.153 -0.141 -0.075 -0.02 0.67 -0.74 0.09
1 7.99 799 -1.302 -9.807 0.460 -5.554 -38.239 12.238 -269.974 164.893 -2699.891 0.349 0.103 0.526 -0.02 0.67 -0.74 0.09
1 8.00 800 -0.872 -10.128 -0.053 -8.881 -45.685 4.272 -269.974 164.893 -2699.891 -0.103 0.426 1.039 -0.02 0.67 -0.74 0.09
1 8.01 801 -0.201 -10.056 -0.297 -4.395 -51.911 -2.777 -269.974 89.941 -2729.872 -0.776 0.354 1.273 -0.02 0.67 -0.74 0.1
1 8.02 802 0.244 -9.817 -0.287 3.937 -56.793 -8.667 -419.876 89.941 -2804.973 -1.185 0.110 1.256 -0.03 0.67 -0.73 0.1
1 8.03 803 0.407 -9.505 -0.187 5.310 -57.892 -11.688 -434.867 29.980 -2894.914 -1.315 -0.204 1.162 -0.03 0.67 -0.73 0.1
1 8.04 804 0.278 -9.165 -0.067 0.305 -59.143 -13.794 -434.867 29.980 -2894.914 -1.148 -0.546 1.050 -0.03 0.67 -0.73 0.1
1 8.05 805 0.402 -9.031 0.024 -7.690 -59.570 -15.900 -284.964 29.980 -2684.901 -1.233 -0.684 0.958 -0.04 0.67 -0.73 0.11
1 8.06 806 0.388 -8.868 0.067 -15.991 -57.526 -17.578 -494.978 119.922 -2774.992 -1.175 -0.852 0.903 -0.04 0.67 -0.73 0.11
1 8.07 807 -0.148 -8.768 -0.374 -28.259 -55.268 -19.379 -494.978 119.922 -2774.992 -0.599 -0.957 1.321 -0.05 0.67 -0.73 0.11
1 8.08 808 -0.330 -8.624 -0.374 -32.929 -55.542 -21.515 -539.948 74.951 -2714.881 -0.380 -1.107 1.290 -0.05 0.67 -0.73 0.11
1 8.09 809 -0.421 -8.849 -0.230 -44.006 -53.131 -23.651 -659.870 149.902 -2714.881 -0.206 -0.896 1.052 -0.06 0.67 -0.73 0.11
1 8.10 810 -0.536 -8.825 -0.148 -55.359 -45.685 -24.353 -629.890 89.941 -2729.872 -0.047 -0.928 0.903 -0.07 0.68 -0.72 0.11
1 8.11 811 -0.795 -9.371 -0.096 -63.385 -36.987 -25.330 -629.890 89.941 -2729.872 0.254 -0.391 0.763 -0.07 0.68 -0.72 0.11
1 8.12 812 -0.881 -9.726 0.038 -60.578 -29.236 -23.193 -779.942 44.971 -2699.891 0.381 -0.045 0.533 -0.07 0.68 -0.72 0.11
1 8.13 813 -1.053 -9.946 -0.048 -53.772 -21.668 -19.898 -839.903 104.932 -2609.950 0.587 0.169 0.530 -0.08 0.69 -0.72 0.11
1 8.14 814 -0.915 -9.797 -0.316 -41.168 -19.959 -10.407 -839.903 104.932 -2609.950 0.474 0.016 0.720 -0.08 0.69 -0.71 0.11
1 8.15 815 -0.599 -9.548 -0.455 -32.929 -24.841 -3.204 -764.952 149.902 -2609.950 0.175 -0.237 0.793 -0.08 0.69 -0.71 0.11
1 8.16 816 0.086 -8.988 -1.149 -28.015 -25.787 5.341 -794.932 74.951 -2534.999 -0.502 -0.800 1.387 -0.08 0.69 -0.71 0.12
1 8.17 817 0.297 -8.715 -1.480 -29.144 -24.902 6.592 -914.854 149.902 -2324.985 -0.716 -1.074 1.669 -0.09 0.69 -0.7 0.12
1 8.18 818 0.062 -9.007 -2.600 -24.139 -26.489 5.890 -914.854 149.902 -2324.985 -0.484 -0.783 2.736 -0.09 0.7 -0.7 0.12
1 8.19 819 0.067 -10.166 -0.407 2.441 -34.332 3.448 -794.932 254.984 -2384.946 -0.491 0.376 0.497 -0.09 0.7 -0.7 0.12
1 8.20 820 -0.239 -10.741 0.125 45.410 -28.504 19.440 -899.864 119.922 -2414.927 -0.188 0.951 -0.019 -0.09 0.7 -0.7 0.12
1 8.21 821 0.575 -10.142 2.576 94.940 -37.598 18.036 -899.864 119.922 -2414.927 -1.028 0.355 -2.386 -0.09 0.69 -0.7 0.13
1 8.22 822 1.197 -10.549 3.227 72.327 -39.856 19.836 -914.854 179.883 -2564.979 -1.673 0.767 -2.890 -0.09 0.69 -0.71 0.13
1 8.23 823 1.982 -12.580 4.147 10.132 -26.154 30.335 -989.955 149.902 -2504.868 -2.474 2.804 -3.665 -0.09 0.68 -0.71 0.13
1 8.24 824 4.267 -16.315 2.389 -87.342 7.660 44.953 -764.952 179.883 -2384.946 -4.849 6.543 -1.922 -0.09 0.68 -0.71 0.14
1 8.25 825 4.731 -18.862 0.527 -141.114 14.404 59.662 -764.952 179.883 -2384.946 -5.387 9.089 -0.212 -0.09 0.69 -0.7 0.14
1 8.26 826 4.137 -19.245 -0.034 -147.248 31.067 61.249 -899.864 -14.990 -2549.989 -4.883 9.474 0.128 -0.09 0.7 -0.7 0.14
1 8.27 827 2.164 -17.521 -0.426 -95.978 52.643 61.768 -794.932 29.980 -2564.979 -3.000 7.758 0.312 -0.08 0.71 -0.69 0.14
1 8.28 828 -2.073 -12.977 -0.608 13.184 54.993 65.338 -794.932 29.980 -2564.979 1.147 3.224 0.372 -0.08 0.71 -0.68 0.14
1 8.29 829 -3.979 -10.080 0.412 69.275 35.034 57.099 -779.942 239.994 -2264.875 2.959 0.336 -0.661 -0.07 0.71 -0.68 0.14
1 8.30 830 -4.559 -7.441 1.451 99.305 9.674 38.574 -749.961 314.945 -2264.875 3.451 -2.294 -1.621 -0.06 0.71 -0.69 0.14
1 8.31 831 -4.089 -4.865 3.074 78.430 -27.283 7.660 -690.000 179.883 -2354.966 2.860 -4.857 -2.948 -0.06 0.7 -0.7 0.15
1 8.32 832 -3.850 -4.094 3.884 40.222 -40.527 -5.493 -690.000 179.883 -2354.966 2.617 -5.625 -3.646 -0.06 0.7 -0.7 0.15
1 8.33 833 -3.275 -4.056 4.195 9.857 -40.161 -11.139 -569.929 284.964 -2474.888 2.057 -5.664 -3.901 -0.06 0.69 -0.7 0.15
1 8.34 834 -2.825 -4.391 4.473 -5.157 -33.264 -10.254 -584.919 224.854 -2384.946 1.627 -5.330 -4.162 -0.06 0.69 -0.7 0.15
1 8.35 835 -2.409 -4.530 4.458 -2.350 -19.470 -7.263 -584.919 224.854 -2384.946 1.227 -5.194 -4.149 -0.07 0.69 -0.7 0.15
1 8.36 836 -1.887 -5.287 4.315 10.925 4.364 -1.007 -629.890 89.941 -2444.907 0.716 -4.438 -4.001 -0.07 0.69 -0.7 0.15
1 8.37 837 -1.839 -5.804 4.195 8.972 12.634 -3.571 -749.961 164.893 -2444.907 0.673 -3.921 -3.866 -0.07 0.69 -0.7 0.15
1 8.38 838 -1.891 -6.421 3.711 -11.169 12.817 -11.047 -749.961 164.893 -2444.907 0.730 -3.303 -3.367 -0.07 0.69 -0.7 0.15
1 8.39 839 -1.101 -7.992 2.801 -65.186 -4.913 -15.869 -569.929 44.971 -2594.959 -0.026 -1.739 -2.518 -0.07 0.69 -0.7 0.15
1 8.40 840 -0.254 -9.587 1.939 -98.084 -19.928 -23.468 -674.860 164.893 -2219.904 -0.846 -0.150 -1.764 -0.07 0.7 -0.7 0.15
1 8.41 841 1.130 -12.398 0.666 -99.610 -31.403 -29.327 -659.870 104.932 -2429.917 -2.186 2.655 -0.620 -0.07 0.7 -0.69 0.15
1 8.42 842 2.753 -15.836 -0.953 -51.392 -31.433 -26.825 -659.870 104.932 -2429.917 -3.763 6.088 0.868 -0.08 0.71 -0.69 0.15
1 8.43 843 2.816 -16.540 -0.450 90.821 -13.550 1.190 -614.899 149.902 -2504.868 -3.791 6.789 0.329 -0.08 0.71 -0.69 0.15
1 8.44 844 1.523 -13.509 1.264 133.057 -12.177 -2.747 -764.952 104.932 -2324.985 -2.493 3.757 -1.278 -0.08 0.7 -0.69 0.15
1 8.45 845 1.633 -10.372 3.232 121.216 -9.857 -21.851 -764.952 104.932 -2324.985 -2.600 0.622 -3.053 -0.08 0.7 -0.7 0.15
1 8.46 846 2.088 -8.385 3.989 47.760 11.627 -36.011 -690.000 254.984 -2384.946 -2.968 -1.362 -3.469 -0.08 0.68 -0.71 0.15
1 8.47 847 1.446 -8.078 3.520 -0.214 16.632 -26.032 -899.864 89.941 -2369.956 -2.253 -1.670 -2.920 -0.08 0.68 -0.71 0.14
1 8.48 848 0.886 -8.327 2.840 -42.542 9.888 -18.341 -914.854 29.980 -2459.897 -1.642 -1.425 -2.232 -0.08 0.68 -0.71 0.14
1 8.49 849 1.346 -9.189 2.002 -69.000 3.418 -14.221 -914.854 29.980 -2459.897 -2.069 -0.569 -1.461 -0.08 0.68 -0.71 0.14
1 8.50 850 1.599 -9.678 1.235 -65.521 6.561 -4.700 -899.864 -14.990 -2549.989 -2.289 -0.088 -0.785 -0.08 0.69 -0.71 0.14
1 8.51 851 1.154 -9.831 0.172 -42.236 22.461 1.221 -974.965 89.941 -2414.927 -1.822 0.061 0.194 -0.09 0.69 -0.71 0.14
1 8.52 852 0.632 -9.831 -0.144 -21.332 24.475 -3.082 -974.965 89.941 -2414.927 -1.284 0.057 0.442 -0.09 0.69 -0.7 0.14
1 8.53 853 0.354 -9.390 -0.048 -5.646 20.294 -12.878 -824.913 164.893 -2549.989 -0.968 -0.388 0.285 -0.08 0.69 -0.7 0.13
1 8.54 854 0.172 -9.333 0.249 -7.294 18.066 -17.822 -974.965 -14.990 -2474.888 -0.757 -0.447 -0.023 -0.09 0.69 -0.7 0.13
1 8.55 855 0.168 -9.414 0.354 -9.522 18.005 -23.407 -899.864 44.971 -2339.976 -0.716 -0.368 -0.141 -0.09 0.69 -0.7 0.13
1 8.56 856 0.158 -9.520 0.623 -6.805 19.226 -27.893 -899.864 44.971 -2339.976 -0.665 -0.265 -0.422 -0.09 0.69 -0.7 0.12
1 8.57 857 0.278 -9.520 0.627 -0.061 24.170 -30.701 -869.883 149.902 -2504.868 -0.736 -0.268 -0.431 -0.09 0.69 -0.7 0.12
1 8.58 858 0.129 -9.639 0.493 8.759 33.692 -31.433 -839.903 179.883 -2504.868 -0.534 -0.150 -0.292 -0.09 0.69 -0.7 0.12
1 8.59 859 -0.048 -9.548 0.450 13.001 37.720 -28.992 -839.903 179.883 -2504.868 -0.305 -0.243 -0.235 -0.09 0.69 -0.71 0.12
1 8.60 860 -0.579 -9.352 0.101 15.106 39.093 -26.520 -854.893 14.990 -2444.907 0.316 -0.441 0.157 -0.09 0.69 -0.71 0.11
1 8.61 861 -0.460 -9.381 -0.019 13.977 39.276 -23.926 -989.955 -29.980 -2429.917 0.233 -0.413 0.299 -0.09 0.69 -0.71 0.11
1 8.62 862 -0.632 -9.366 -0.029 8.423 38.941 -18.036 -1064.906 149.902 -2459.897 0.437 -0.427 0.326 -0.09 0.69 -0.71 0.1
1 8.63 863 -0.603 -9.304 -0.263 -1.770 36.255 -9.888 -1064.906 149.902 -2459.897 0.430 -0.490 0.568 -0.08 0.69 -0.71 0.1
1 8.64 864 -0.891 -9.520 -0.125 -14.008 32.410 -2.625 -899.864 44.971 -2474.888 0.725 -0.274 0.419 -0.08 0.69 -0.71 0.1
1 8.65 865 -0.536 -9.874 -0.196 -31.647 28.076 11.536 -779.942 -89.941 -2444.907 0.368 0.079 0.463 -0.08 0.69 -0.71 0.1
1 8.66 866 -0.445 -9.922 -0.153 -41.596 31.220 19.684 -779.942 -89.941 -2444.907 0.259 0.126 0.374 -0.08 0.69 -0.71 0.1
1 8.67 867 -0.374 -9.979 -0.287 -50.171 31.067 27.924 -854.893 44.971 -2474.888 0.159 0.183 0.448 -0.08 0.7 -0.71 0.09
1 8.68 868 -0.278 -9.884 -0.594 -54.138 30.975 39.185 -839.903 179.883 -2504.868 -0.025 0.088 0.598 -0.07 0.7 -0.7 0.09
1 8.69 869 -0.163 -9.903 -0.412 -49.164 29.877 42.175 -854.893 14.990 -2414.927 -0.198 0.110 0.332 -0.07 0.71 -0.7 0.09
1 8.70 870 -0.144 -10.267 -0.579 -39.551 26.245 45.349 -854.893 14.990 -2414.927 -0.278 0.477 0.426 -0.07 0.71 -0.7 0.1
1 8.71 871 0.019 -10.295 -0.455 -26.764 26.306 46.417 -704.991 89.941 -2414.927 -0.505 0.510 0.244 -0.06 0.71 -0.69 0.1
1 8.72 872 0.024 -10.190 -0.335 -13.031 29.816 40.253 -899.864 -14.990 -2294.855 -0.572 0.409 0.085 -0.06 0.71 -0.69 0.1
1 8.73 873 -0.192 -10.238 -0.541 -5.005 30.640 32.318 -899.864 -14.990 -2294.855 -0.412 0.461 0.266 -0.06 0.71 -0.69 0.1
1 8.74 874 -0.192 -10.085 -0.594 5.005 30.609 21.607 -569.929 119.922 -2414.927 -0.457 0.310 0.305 -0.05 0.72 -0.69 0.1
1 8.75 875 -0.192 -10.099 -0.891 17.120 28.687 6.836 -690.000 74.951 -2459.897 -0.501 0.327 0.616 -0.05 0.72 -0.69 0.1
1 8.76 876 -0.091 -10.147 -0.953 21.393 26.215 0.153 -464.997 179.883 -2279.865 -0.602 0.375 0.700 -0.05 0.71 -0.69 0.09
1 8.77 877 -0.129 -9.625 -0.991 23.804 24.292 -2.655 -464.997 179.883 -2279.865 -0.556 -0.148 0.766 -0.05 0.71 -0.69 0.09
1 8.78 878 -0.129 -9.070 -1.283 19.623 23.834 -3.113 -614.899 179.883 -2354.966 -0.545 -0.705 1.085 -0.04 0.71 -0.69 0.09
1 8.79 879 -0.168 -8.825 -1.422 10.895 24.109 -2.319 -659.870 104.932 -2384.946 -0.496 -0.951 1.242 -0.04 0.71 -0.69 0.09
1 8.80 880 -0.115 -8.605 -1.801 -1.617 30.518 -0.031 -659.870 104.932 -2384.946 -0.539 -1.171 1.623 -0.04 0.71 -0.7 0.09
1 8.81 881 -0.163 -8.888 -1.633 -6.714 32.196 0.549 -569.929 -164.893 -2519.858 -0.486 -0.889 1.449 -0.04 0.71 -0.7 0.09
1 8.82 882 -0.517 -9.572 -0.517 -6.378 28.137 2.197 -569.929 -164.893 -2519.858 -0.128 -0.204 0.318 -0.04 0.71 -0.69 0.09
1 8.83 883 -0.278 -9.817 -0.010 -9.155 19.440 -1.526 -599.909 -44.971 -2444.907 -0.366 0.040 -0.222 -0.04 0.71 -0.69 0.08
1 8.84 884 -0.589 -11.047 1.235 -9.796 15.259 0.336 -599.909 -44.971 -2444.907 -0.047 1.271 -1.480 -0.04 0.71 -0.69 0.08
1 8.85 885 -0.924 -11.550 1.398 -24.902 8.392 0.305 -659.870 104.932 -2429.917 0.290 1.774 -1.657 -0.04 0.72 -0.69 0.08
1 8.86 886 -1.250 -12.527 1.101 -53.070 -4.486 -1.709 -599.909 239.994 -2264.875 0.617 2.752 -1.407 -0.04 0.72 -0.69 0.08
1 8.87 887 -2.576 -14.236 0.383 -82.184 -18.860 -13.062 -599.909 239.994 -2264.875 1.949 4.464 -0.776 -0.04 0.72 -0.69 0.08
1 8.88 888 -3.453 -15.592 -0.589 -79.285 -35.309 -24.628 -449.857 89.941 -2444.907 2.841 5.824 0.079 -0.04 0.72 -0.68 0.08
1 8.89 889 -3.299 -15.649 -0.848 -64.972 -44.586 -37.262 -449.857 89.941 -2444.907 2.719 5.886 0.220 -0.04 0.73 -0.68 0.08
1 8.90 890 -2.864 -14.031 -1.231 -44.037 -39.246 -47.058 -569.929 44.971 -2369.956 2.393 4.275 0.428 -0.05 0.73 -0.67 0.08
1 8.91 891 -2.155 -12.019 -1.130 -20.172 -44.861 -46.723 -569.929 44.971 -2369.956 1.751 2.265 0.274 -0.06 0.74 -0.67 0.08
1 8.92 892 -0.809 -10.113 -0.340 6.805 -51.758 -41.412 -599.909 44.971 -2219.904 0.470 0.358 -0.532 -0.06 0.74 -0.67 0.08
1 8.93 893 0.144 -8.145 0.330 25.818 -51.850 -32.776 -779.942 164.893 -2084.992 -0.432 -1.614 -1.178 -0.07 0.73 -0.67 0.08
1 8.94 894 0.584 -6.876 0.814 29.968 -45.166 -24.262 -779.942 164.893 -2084.992 -0.831 -2.888 -1.613 -0.07 0.73 -0.67 0.08
1 8.95 895 0.910 -5.876 1.379 27.924 -40.924 -15.961 -764.952 104.932 -2204.914 -1.127 -3.893 -2.131 -0.08 0.73 -0.67 0.09
1 8.96 896 1.077 -5.804 1.638 28.504 -42.053 -12.085 -764.952 104.932 -2204.914 -1.272 -3.969 -2.345 -0.08 0.73 -0.68 0.09
1 8.97 897 1.092 -6.005 2.212 37.262 -41.901 -6.592 -794.932 29.980 -2324.985 -1.257 -3.775 -2.823 -0.09 0.72 -0.68 0.09
1 8.98 898 1.111 -6.196 2.629 46.539 -40.619 -3.235 -794.932 29.980 -2324.985 -1.270 -3.587 -3.178 -0.09 0.72 -0.68 0.09
1 8.99 899 1.101 -6.105 2.950 58.380 -40.924 0.061 -854.893 14.990 -2294.855 -1.258 -3.682 -3.421 -0.09 0.72 -0.68 0.1
1 9.00 900 0.781 -6.335 3.453 64.118 -40.283 2.625 -839.903 149.902 -2279.865 -0.940 -3.456 -3.832 -0.09 0.71 -0.69 0.1
1 9.01 901 0.464 -6.350 3.510 61.829 -38.330 4.242 -839.903 149.902 -2279.865 -0.628 -3.445 -3.790 -0.09 0.71 -0.69 0.1
1 9.02 902 -0.469 -7.097 3.467 43.610 -41.260 2.747 -1019.936 29.980 -2504.868 0.299 -2.700 -3.654 -0.1 0.71 -0.69 0.11
1 9.03 903 -1.197 -8.514 3.141 32.654 -42.297 -2.838 -1019.936 29.980 -2504.868 1.021 -1.284 -3.254 -0.1 0.7 -0.69 0.11
1 9.04 904 -2.366 -11.665 1.556 49.652 -35.614 -16.846 -1019.936 29.980 -2504.868 2.200 1.866 -1.536 -0.1 0.7 -0.7 0.11
1 9.05 905 -2.586 -12.527 0.680 67.505 -34.515 -23.010 -1019.936 29.980 -2504.868 2.452 2.728 -0.569 -0.1 0.7 -0.7 0.11
1 9.06 906 -2.993 -13.882 -0.101 129.944 -49.133 -35.706 -989.955 -104.932 -2564.979 2.909 4.086 0.367 -0.11 0.69 -0.71 0.12
1 9.07 907 -2.533 -12.805 1.599 134.705 -64.697 -37.628 -1229.949 -44.971 -2519.858 2.508 3.016 -1.129 -0.11 0.68 -0.71 0.12
1 9.08 908 -1.580 -11.373 3.079 99.762 -76.721 -34.454 -1229.949 -44.971 -2519.858 1.618 1.596 -2.415 -0.12 0.67 -0.72 0.12
1 9.09 909 -0.091 -10.774 3.663 3.693 -85.877 -19.074 -989.955 -179.883 -2684.901 0.189 1.007 -2.870 -0.12 0.67 -0.72 0.12
1 9.10 910 0.374 -11.153 3.227 -44.434 -88.196 -12.146 -989.955 -179.883 -2684.901 -0.230 1.388 -2.404 -0.13 0.66 -0.73 0.13
1 9.11 911 0.670 -11.641 2.380 -51.453 -86.457 -7.813 -1229.949 -209.863 -2774.992 -0.494 1.873 -1.608 -0.13 0.67 -0.72 0.13
1 9.12 912 -0.014 -11.090 1.513 -7.355 -79.041 3.082 -1274.919 -299.955 -2894.914 0.230 1.314 -0.868 -0.14 0.67 -0.72 0.14
1 9.13 913 -0.852 -9.994 1.413 11.139 -83.527 7.507 -1259.929 -164.893 -2774.992 1.070 0.217 -0.770 -0.15 0.67 -0.72 0.14
1 9.14 914 -1.475 -9.773 1.547 9.460 -92.987 10.895 -1424.972 -74.951 -2639.930 1.684 -0.002 -0.882 -0.15 0.67 -0.72 0.15
1 9.15 915 -1.762 -9.687 1.714 -3.876 -104.920 12.512 -1424.972 -74.951 -2639.930 1.953 -0.087 -1.035 -0.16 0.66 -0.71 0.15
1 9.16 916 -1.968 -9.869 1.604 -15.167 -111.267 17.334 -1484.933 -209.863 -2729.872 2.137 0.094 -0.928 -0.16 0.66 -0.71 0.16
1 9.17 917 -2.006 -10.027 1.494 -11.749 -109.497 21.973 -1484.933 -209.863 -2729.872 2.148 0.251 -0.832 -0.17 0.66 -0.71 0.17
1 9.18 918 -1.982 -10.190 1.212 -2.258 -107.361 26.947 -1499.923 -254.984 -2564.979 2.090 0.412 -0.562 -0.17 0.66 -0.71 0.17
1 9.19 919 -2.121 -10.181 0.919 30.151 -109.131 32.654 -1469.942 -179.883 -2684.901 2.136 0.403 -0.250 -0.18 0.66 -0.71 0.19
1 9.20 920 -2.073 -10.075 0.963 51.453 -114.014 35.309 -1499.923 -254.984 -2639.930 2.035 0.302 -0.236 -0.18 0.66 -0.71 0.2
1 9.21 921 -1.915 -9.955 0.924 61.859 -119.812 38.330 -1559.884 -239.994 -2624.940 1.823 0.190 -0.112 -0.18 0.65 -0.71 0.21
1 9.22 922 -1.585 -9.884 0.967 61.035 -125.824 42.542 -1559.884 -239.994 -2624.940 1.437 0.127 -0.057 -0.19 0.65 -0.71 0.22
1 9.23 923 -1.350 -9.850 0.910 55.908 -133.362 45.746 -1544.894 -254.984 -2534.999 1.146 0.104 0.095 -0.19 0.64 -0.71 0.23
1 9.24 924 -0.838 -9.975 0.814 47.363 -141.358 46.723 -1544.894 -254.984 -2534.999 0.579 0.239 0.278 -0.19 0.64 -0.71 0.24
1 9.25 925 -0.690 -10.310 0.963 43.030 -143.250 47.791 -1574.874 -254.984 -2714.881 0.381 0.585 0.208 -0.2 0.63 -0.71 0.25
1 9.26 926 -0.642 -10.535 1.101 38.422 -144.257 49.256 -1724.926 -224.854 -2684.901 0.286 0.820 0.140 -0.2 0.63 -0.71 0.26
1 9.27 927 -0.441 -10.353 1.192 19.592 -145.936 45.532 -1979.910 -299.955 -2609.950 -0.002 0.658 0.171 -0.21 0.62 -0.7 0.27
1 9.28 928 0.005 -9.888 1.269 -0.580 -146.759 42.236 -1874.979 -179.883 -2504.868 -0.481 0.200 0.127 -0.22 0.62 -0.7 0.28
1 9.29 929 0.254 -9.630 1.006 -21.545 -145.569 38.757 -1874.979 -179.883 -2504.868 -0.756 -0.057 0.392 -0.22 0.62 -0.7 0.29
1 9.30 930 0.177 -9.338 0.661 -39.551 -145.264 34.638 -2054.861 -329.935 -2534.999 -0.698 -0.352 0.709 -0.23 0.61 -0.69 0.3
1 9.31 931 -0.354 -9.438 0.249 -48.493 -148.072 27.191 -2054.861 -329.935 -2534.999 -0.180 -0.258 1.067 -0.24 0.61 -0.69 0.31
1 9.32 932 -0.436 -9.314 0.062 -41.840 -150.605 20.355 -1964.920 -284.964 -2444.907 -0.106 -0.391 1.189 -0.24 0.61 -0.68 0.31
1 9.33 933 -0.421 -9.065 0.278 -35.980 -152.314 14.587 -2219.904 -359.916 -2519.858 -0.123 -0.647 0.915 -0.25 0.61 -0.68 0.32
1 9.34 934 -0.417 -8.691 0.220 -36.347 -152.497 1.953 -2084.992 -254.984 -2354.966 -0.107 -1.033 0.880 -0.27 0.61 -0.67 0.33
1 9.35 935 -0.460 -8.725 0.134 -36.591 -153.138 -5.096 -2204.914 -299.955 -2174.933 -0.038 -1.005 0.925 -0.27 0.61 -0.66 0.34
1 9.36 936 -0.364 -8.931 0.153 -34.363 -156.098 -12.756 -2204.914 -299.955 -2174.933 -0.097 -0.805 0.865 -0.28 0.61 -0.66 0.35
1 9.37 937 0.120 -8.888 0.134 -32.837 -157.929 -19.043 -2204.914 -224.854 -2129.962 -0.533 -0.855 0.840 -0.29 0.6 -0.65 0.35
1 9.38 938 0.263 -9.184 -0.148 -28.748 -156.830 -20.416 -2204.914 -224.854 -2129.962 -0.620 -0.565 1.080 -0.3 0.6 -0.65 0.36
1 9.39 939 0.311 -9.572 -0.177 -11.078 -152.924 -12.878 -2294.855 -209.863 -2084.992 -0.612 -0.182 1.072 -0.31 0.6 -0.64 0.36
1 9.40 940 0.220 -9.912 0.153 4.242 -149.201 -5.188 -2399.937 -164.893 -1784.887 -0.472 0.155 0.720 -0.32 0.59 -0.64 0.37
1 9.41 941 -0.125 -10.492 0.450 26.825 -141.449 4.608 -2519.858 -209.863 -1784.887 -0.068 0.735 0.448 -0.33 0.59 -0.63 0.38
1 9.42 942 -0.330 -10.544 0.498 38.544 -137.787 10.681 -2639.930 -149.902 -1694.946 0.151 0.792 0.446 -0.34 0.58 -0.63 0.38
1 9.43 943 -0.244 -10.415 0.498 43.183 -135.376 14.435 -2639.930 -149.902 -1694.946 0.069 0.668 0.508 -0.34 0.58 -0.63 0.39
1 9.44 944 -0.268 -10.238 0.603 33.600 -134.400 16.724 -2624.940 -89.941 -1724.926 0.093 0.498 0.466 -0.35 0.57 -0.63 0.4
1 9.45 945 -0.129 -10.142 0.757 12.970 -131.897 17.517 -2624.940 -89.941 -1724.926 -0.048 0.407 0.357 -0.35 0.56 -0.63 0.41
1 9.46 946 -0.129 -10.137 0.814 -21.759 -127.350 9.857 -2609.950 -224.854 -1694.946 -0.049 0.404 0.312 -0.36 0.56 -0.62 0.41
1 9.47 947 -0.182 -10.406 0.694 -34.302 -125.000 3.296 -2729.872 -284.964 -1529.903 0.011 0.670 0.410 -0.36 0.56 -0.62 0.42
1 9.48 948 0.024 -10.669 0.804 -19.409 -122.528 -6.866 -2789.982 -224.854 -1514.913 -0.156 0.922 0.209 -0.38 0.55 -0.61 0.43
1 9.49 949 0.283 -10.659 0.819 -9.247 -121.735 -9.613 -2879.924 -209.863 -1529.903 -0.381 0.910 0.175 -0.38 0.55 -0.61 0.43
1 9.50 950 0.761 -10.415 1.379 14.557 -124.146 -23.041 -2879.924 -209.863 -1529.903 -0.813 0.667 -0.378 -0.39 0.55 -0.6 0.43
1 9.51 951 1.336 -10.937 1.566 21.668 -127.350 -34.302 -2939.885 -254.984 -1259.929 -1.323 1.191 -0.537 -0.39 0.54 -0.6 0.44
1 9.52 952 2.447 -11.622 1.556 25.360 -130.158 -40.314 -2939.885 -254.984 -1259.929 -2.354 1.880 -0.491 -0.4 0.53 -0.6 0.44
1 9.53 953 3.989 -12.604 1.441 25.086 -133.088 -30.121 -2954.875 -284.964 -1214.958 -3.813 2.867 -0.338 -0.41 0.53 -0.6 0.44
1 9.54 954 4.669 -12.465 1.887 18.158 -128.266 -17.242 -3014.986 -224.854 -1334.880 -4.419 2.734 -0.747 -0.41 0.52 -0.6 0.45
1 9.55 955 4.607 -11.675 2.198 14.130 -110.932 -5.310 -3014.986 -224.854 -1334.880 -4.303 1.949 -1.032 -0.42 0.51 -0.59 0.45
1 9.56 956 3.007 -10.712 2.059 22.736 -86.823 4.211 -3089.937 -374.906 -1079.896 -2.650 0.993 -0.854 -0.43 0.51 -0.59 0.46
1 9.57 957 1.489 -10.152 1.681 44.281 -86.396 7.202 -3089.937 -374.906 -1079.896 -1.122 0.438 -0.438 -0.43 0.5 -0.59 0.47
1 9.58 958 0.809 -9.635 1.389 66.254 -96.649 5.005 -3254.979 -359.916 -1244.939 -0.429 -0.069 -0.073 -0.43 0.5 -0.59 0.47
1 9.59 959 0.215 -9.089 1.609 75.958 -107.392 2.319 -3254.979 -359.916 -1244.939 0.184 -0.600 -0.193 -0.43 0.49 -0.59 0.48
1 9.60 960 0.215 -8.888 2.184 67.566 -113.770 -3.052 -3149.898 -374.906 -1124.867 0.208 -0.784 -0.659 -0.43 0.48 -0.59 0.48
1 9.61 961 0.091 -9.184 2.442 49.622 -110.504 -5.005 -3209.859 -239.994 -1139.857 0.363 -0.469 -0.816 -0.44 0.48 -0.59 0.49
1 9.62 962 -0.034 -9.433 2.428 30.884 -108.155 -5.127 -3209.859 -239.994 -1139.857 0.521 -0.205 -0.722 -0.44 0.47 -0.59 0.49
1 9.63 963 -0.038 -9.481 1.911 10.864 -111.878 -2.899 -3254.979 -239.994 -1064.906 0.593 -0.139 -0.126 -0.44 0.46 -0.58 0.5
1 9.64 964 0.316 -9.386 1.523 1.831 -116.333 0.702 -3254.979 -239.994 -1064.906 0.270 -0.232 0.267 -0.45 0.46 -0.58 0.5
1 9.65 965 0.584 -9.103 1.422 -0.977 -115.876 2.411 -3269.970 -449.857 -899.864 0.031 -0.514 0.359 -0.45 0.45 -0.58 0.51
1 9.66 966 0.800 -8.993 1.058 1.770 -113.343 4.730 -3269.970 -449.857 -899.864 -0.157 -0.624 0.712 -0.46 0.45 -0.57 0.51
1 9.67 967 0.991 -8.825 0.800 10.742 -110.199 6.928 -3269.970 -419.876 -929.994 -0.323 -0.792 0.962 -0.46 0.44 -0.57 0.52
1 9.68 968 1.149 -8.346 0.661 27.863 -108.521 14.069 -3359.911 -314.945 -779.942 -0.460 -1.268 1.105 -0.47 0.44 -0.57 0.52
1 9.69 969 1.307 -8.184 0.632 35.401 -110.474 17.304 -3359.911 -314.945 -779.942 -0.606 -1.425 1.161 -0.47 0.44 -0.56 0.52
1 9.70 970 1.762 -8.232 0.905 36.408 -112.854 20.569 -3344.921 -374.906 -644.880 -1.054 -1.369 0.928 -0.47 0.43 -0.56 0.53
1 9.71 971 2.155 -8.308 1.006 32.227 -115.204 23.254 -3374.901 -254.984 -644.880 -1.440 -1.276 0.911 -0.47 0.42 -0.55 0.54
1 9.72 972 2.394 -8.643 1.207 27.710 -116.150 24.353 -3419.872 -329.935 -569.929 -1.678 -0.934 0.745 -0.48 0.42 -0.55 0.54
1 9.73 973 2.739 -8.586 1.259 24.323 -116.944 24.536 -3419.872 -329.935 -569.929 -2.009 -0.985 0.716 -0.48 0.41 -0.55 0.55
1 9.74 974 2.797 -8.691 1.178 19.196 -117.218 25.757 -3449.853 -329.935 -494.978 -2.051 -0.875 0.816 -0.48 0.41 -0.54 0.55
1 9.75 975 2.940 -8.844 1.231 7.599 -118.225 26.093 -3344.921 -374.906 -464.997 -2.179 -0.718 0.772 -0.49 0.4 -0.54 0.56
1 9.76 976 3.481 -8.792 1.231 1.129 -116.425 25.696 -3344.921 -374.906 -464.997 -2.704 -0.770 0.769 -0.49 0.4 -0.54 0.56
1 9.77 977 3.630 -9.079 1.202 -2.197 -112.244 24.506 -3359.911 -359.916 -404.886 -2.836 -0.484 0.785 -0.49 0.39 -0.53 0.56
1 9.78 978 3.678 -9.333 1.097 1.862 -105.378 21.423 -3359.911 -119.922 -224.854 -2.842 -0.235 0.851 -0.5 0.39 -0.52 0.57
1 9.79 979 3.625 -9.448 1.053 10.681 -100.891 18.890 -3284.960 -284.964 -194.873 -2.767 -0.121 0.883 -0.51 0.38 -0.52 0.57
1 9.80 980 3.462 -9.175 0.872 19.592 -98.481 16.754 -3284.960 -284.964 -194.873 -2.579 -0.391 1.066 -0.51 0.38 -0.52 0.58
1 9.81 981 3.443 -9.046 1.101 26.337 -97.321 14.648 -3419.872 -329.935 -104.932 -2.533 -0.515 0.848 -0.51 0.37 -0.51 0.58
1 9.82 982 3.247 -8.993 1.121 29.877 -96.558 13.428 -3299.950 -149.902 -134.912 -2.307 -0.560 0.851 -0.51 0.37 -0.51 0.58
1 9.83 983 2.907 -8.950 1.542 28.442 -98.297 14.557 -3299.950 -149.902 -134.912 -1.938 -0.595 0.455 -0.52 0.36 -0.51 0.59
1 9.84 984 2.773 -8.859 1.441 24.597 -99.427 15.259 -3284.960 -239.994 14.990 -1.778 -0.678 0.581 -0.52 0.36 -0.51 0.59
1 9.85 985 2.701 -9.074 1.772 17.456 -96.711 13.519 -3224.999 -149.902 29.980 -1.656 -0.450 0.285 -0.52 0.35 -0.5 0.6
1 9.86 986 2.586 -9.228 1.642 14.984 -92.499 12.634 -3209.859 -314.945 -14.990 -1.516 -0.292 0.423 -0.52 0.35 -0.5 0.6
1 9.87 987 2.203 -9.491 1.398 15.503 -90.729 12.909 -3209.859 -314.945 -14.990 -1.109 -0.025 0.673 -0.53 0.34 -0.5 0.6
1 9.88 988 1.992 -9.644 1.274 16.693 -92.072 12.848 -3269.970 -254.984 239.994 -0.878 0.132 0.802 -0.53 0.34 -0.49 0.6
1 9.89 989 1.939 -9.764 1.336 16.663 -94.422 13.611 -3284.960 -164.893 149.902 -0.807 0.255 0.744 -0.53 0.33 -0.49 0.61
1 9.90 990 1.676 -9.797 1.346 16.968 -96.436 16.083 -3284.960 -164.893 149.902 -0.526 0.291 0.739 -0.53 0.33 -0.49 0.61
1 9.91 991 1.355 -9.841 1.508 15.839 -97.962 17.609 -3254.979 -14.990 89.941 -0.191 0.336 0.579 -0.54 0.33 -0.48 0.61
1 9.92 992 1.188 -9.735 1.686 10.284 -97.626 21.942 -3224.999 -104.932 209.863 -0.008 0.233 0.404 -0.54 0.32 -0.48 0.62
1 9.93 993 1.235 -9.663 1.662 6.928 -97.626 23.438 -3194.869 -149.902 284.964 -0.057 0.160 0.420 -0.54 0.32 -0.47 0.62
1 9.94 994 1.312 -9.663 1.537 -1.770 -96.131 24.384 -3194.869 -149.902 284.964 -0.135 0.156 0.529 -0.54 0.31 -0.47 0.62
1 9.95 995 1.235 -9.515 1.417 -4.364 -95.185 24.292 -3119.917 -104.932 359.916 -0.062 0.002 0.626 -0.55 0.31 -0.46 0.62
1 9.96 996 1.484 -9.457 1.317 -2.319 -95.276 25.513 -3194.869 -254.984 314.945 -0.315 -0.061 0.701 -0.55 0.31 -0.46 0.63
1 9.97 997 1.743 -9.386 1.140 2.197 -97.290 31.159 -3194.869 -254.984 314.945 -0.580 -0.138 0.856 -0.55 0.31 -0.45 0.63
1 9.98 998 2.088 -9.678 1.044 1.404 -96.619 36.224 -3059.957 -119.922 584.919 -0.934 0.149 0.934 -0.55 0.3 -0.45 0.63
1 9.99 999 2.313 -9.879 0.967 1.923 -96.375 41.901 -3104.927 14.990 554.938 -1.175 0.344 0.992 -0.56 0.3 -0.45 0.63
1 10.00 1000 2.615 -9.994 0.986 5.249 -94.757 48.035 -3059.957 -14.990 659.870 -1.526 0.446 0.937 -0.56 0.29 -0.43 0.64
