COL1	TIME	ACC_X	ACC_Y	ACC_Z	GYR_X	GYR_Y	GYR_Z	MAG_X	MAG_Y	MAG_Z	LACC_X	LACC_Y	LACC_Z	QUAT_X	QUAT_Y	QUAT_Z	QUAT_W
1 0.00 0 -0.091 -8.672 4.554 -1.923 -5.035 2.411 139.109 2088.290 -3990.101 0.137 -0.020 -0.027 -0.02 -0.52 0.85 0.03
1 0.01 1 0.010 -8.706 4.707 -3.357 -5.951 1.923 124.119 2178.231 -4125.013 0.035 0.014 -0.181 -0.02 -0.52 0.85 0.03
1 0.02 2 0.019 -8.787 4.554 -2.533 -6.104 3.387 199.220 2103.280 -4050.062 0.027 0.093 -0.032 -0.02 -0.52 0.85 0.03
1 0.03 3 0.072 -8.897 4.559 -2.594 -5.859 3.265 199.220 2103.280 -4050.062 -0.026 0.202 -0.039 -0.02 -0.52 0.85 0.03
1 0.04 4 0.139 -8.734 4.611 -1.740 -5.432 3.601 289.162 2043.169 -4065.052 -0.093 0.038 -0.094 -0.02 -0.52 0.85 0.03
1 0.05 5 0.125 -8.782 4.616 -1.343 -4.730 3.937 139.109 2118.270 -4065.052 -0.078 0.086 -0.099 -0.01 -0.52 0.85 0.03
1 0.06 6 0.283 -8.782 4.463 -1.312 -4.822 3.479 139.109 2118.270 -4065.052 -0.237 0.085 0.054 -0.01 -0.52 0.85 0.03
1 0.07 7 0.134 -8.859 4.650 -0.275 -5.493 2.899 19.188 2178.231 -4080.042 -0.088 0.161 -0.134 -0.01 -0.52 0.85 0.03
1 0.08 8 0.153 -8.768 4.688 0.366 -5.249 2.625 139.109 2193.221 -4065.052 -0.107 0.071 -0.171 -0.01 -0.52 0.85 0.03
1 0.09 9 0.129 -8.739 4.717 -1.007 -5.524 2.167 139.109 2193.221 -4065.052 -0.081 0.043 -0.198 -0.01 -0.52 0.85 0.03
1 0.10 10 0.129 -8.768 4.573 -2.258 -5.615 2.380 94.139 2133.260 -4125.013 -0.077 0.072 -0.054 -0.01 -0.52 0.85 0.03
1 0.11 11 0.192 -8.715 4.607 -2.411 -4.913 2.502 169.090 1878.276 -4155.143 -0.138 0.018 -0.090 -0.01 -0.52 0.85 0.03
1 0.12 12 0.029 -8.835 4.587 -2.594 -4.822 3.235 94.139 2133.260 -4125.013 0.025 0.137 -0.072 -0.01 -0.52 0.85 0.03
1 0.13 13 0.048 -8.653 4.597 -2.472 -5.341 2.869 94.139 2133.260 -4125.013 0.006 -0.046 -0.084 -0.01 -0.52 0.85 0.03
1 0.14 14 0.182 -8.830 4.645 -2.411 -5.310 2.289 184.230 2088.290 -4110.022 -0.127 0.130 -0.134 -0.01 -0.52 0.85 0.03
1 0.15 15 0.153 -8.849 4.597 -2.228 -4.974 2.411 109.129 2193.221 -3990.101 -0.097 0.148 -0.088 -0.01 -0.52 0.85 0.03
1 0.16 16 0.206 -8.907 4.674 -1.404 -4.669 2.045 124.119 2103.280 -4050.062 -0.145 0.204 -0.168 -0.01 -0.52 0.85 0.03
1 0.17 17 0.091 -8.888 4.607 -1.038 -4.761 1.892 124.119 2103.280 -4050.062 -0.028 0.185 -0.100 -0.01 -0.52 0.85 0.02
1 0.18 18 0.235 -8.782 4.607 -1.099 -4.547 1.709 109.129 2118.270 -3990.101 -0.170 0.080 -0.100 -0.01 -0.52 0.85 0.02
1 0.19 19 0.115 -8.883 4.626 -1.068 -4.059 2.319 124.119 2058.309 -4020.081 -0.049 0.181 -0.119 -0.01 -0.52 0.85 0.02
1 0.20 20 0.110 -8.744 4.530 -1.892 -3.601 1.984 124.119 2058.309 -4020.081 -0.043 0.042 -0.023 -0.01 -0.52 0.85 0.02
1 0.21 21 0.172 -8.686 4.578 -1.495 -3.326 2.533 124.119 2058.309 -4155.143 -0.105 -0.016 -0.072 -0.01 -0.52 0.85 0.02
1 0.22 22 0.086 -8.777 4.516 -0.153 -3.235 2.319 184.230 2088.290 -4065.052 -0.019 0.075 -0.010 -0.01 -0.52 0.85 0.02
1 0.23 23 0.235 -8.792 4.511 -0.458 -3.632 1.434 184.230 2088.290 -4065.052 -0.167 0.089 -0.005 -0.01 -0.52 0.85 0.02
1 0.24 24 0.139 -8.754 4.587 -1.648 -3.967 1.526 109.129 2238.192 -3960.120 -0.067 0.051 -0.081 -0.01 -0.52 0.85 0.02
1 0.25 25 0.321 -8.744 4.578 -2.228 -3.510 0.916 79.148 2043.169 -3990.101 -0.247 0.042 -0.072 -0.01 -0.52 0.85 0.02
1 0.26 26 0.172 -8.768 4.573 -1.343 -3.296 0.854 124.119 2028.179 -4020.081 -0.095 0.065 -0.068 -0.01 -0.52 0.85 0.02
1 0.27 27 0.297 -8.777 4.592 -0.793 -2.106 1.038 124.119 2028.179 -4020.081 -0.218 0.074 -0.088 -0.01 -0.52 0.85 0.02
1 0.28 28 0.225 -8.830 4.621 -0.824 -1.801 0.793 184.230 2118.270 -4170.133 -0.145 0.127 -0.117 -0.01 -0.52 0.85 0.02
1 0.29 29 0.182 -8.964 4.583 -0.214 -1.678 1.190 139.109 2088.290 -3990.101 -0.101 0.261 -0.078 -0.01 -0.52 0.85 0.02
1 0.30 30 0.187 -8.873 4.640 0.183 -1.678 0.885 139.109 2088.290 -3990.101 -0.106 0.170 -0.136 -0.01 -0.52 0.85 0.02
1 0.31 31 0.101 -8.912 4.621 0.671 -1.923 -0.305 184.230 2193.221 -3990.101 -0.018 0.209 -0.116 -0.01 -0.52 0.85 0.02
1 0.32 32 0.235 -8.787 4.592 0.580 -1.312 0.183 289.162 2013.188 -4110.022 -0.148 0.086 -0.083 -0.01 -0.52 0.85 0.02
1 0.33 33 0.053 -8.821 4.607 -0.092 -0.854 0.366 4.197 2088.290 -4140.153 0.035 0.121 -0.096 -0.01 -0.52 0.85 0.02
1 0.34 34 0.163 -8.787 4.683 -0.336 -1.190 0.427 4.197 2088.290 -4140.153 -0.075 0.087 -0.173 -0.01 -0.52 0.85 0.02
1 0.35 35 0.081 -8.801 4.717 -0.946 -1.404 0.580 79.148 2118.270 -4110.022 0.007 0.102 -0.206 -0.01 -0.52 0.85 0.02
1 0.36 36 0.120 -8.777 4.535 -0.854 -0.671 0.031 49.168 2178.231 -4125.013 -0.031 0.078 -0.023 -0.01 -0.52 0.85 0.02
1 0.37 37 0.134 -8.935 4.501 0.519 -0.885 0.122 49.168 2178.231 -4125.013 -0.046 0.236 0.010 -0.01 -0.52 0.85 0.02
1 0.38 38 0.019 -8.830 4.530 1.526 -1.831 -0.702 79.148 2088.290 -4065.052 0.069 0.131 -0.019 -0.01 -0.52 0.85 0.02
1 0.39 39 0.057 -8.969 4.568 2.045 -3.143 0.488 109.129 2163.241 -4065.052 0.036 0.273 -0.050 -0.01 -0.52 0.85 0.02
1 0.40 40 0.172 -8.854 4.678 1.495 -3.418 0.122 94.139 2178.231 -4230.094 -0.077 0.160 -0.157 -0.01 -0.52 0.85 0.02
1 0.41 41 0.374 -8.859 4.597 0.427 -3.021 0.793 94.139 2178.231 -4230.094 -0.275 0.167 -0.072 -0.01 -0.52 0.85 0.02
1 0.42 42 0.397 -8.868 4.592 -1.038 -2.502 1.038 139.109 2088.290 -4170.133 -0.296 0.177 -0.066 -0.01 -0.52 0.85 0.02
1 0.43 43 0.268 -8.912 4.592 -1.404 -1.495 2.014 -40.624 2043.169 -4110.022 -0.164 0.220 -0.066 -0.01 -0.52 0.85 0.02
1 0.44 44 0.421 -8.811 4.583 -1.312 -1.282 1.404 -40.624 2043.169 -4110.022 -0.316 0.119 -0.057 -0.01 -0.52 0.85 0.02
1 0.45 45 0.297 -8.940 4.544 0.092 -0.519 0.885 169.090 2028.179 -4125.013 -0.189 0.248 -0.019 -0.01 -0.52 0.85 0.02
1 0.46 46 0.259 -8.998 4.511 3.265 0.397 0.092 274.171 2028.179 -4155.143 -0.149 0.307 0.016 -0.01 -0.52 0.85 0.02
1 0.47 47 0.148 -8.955 4.587 4.334 0.916 0.000 124.119 2133.260 -4155.143 -0.038 0.267 -0.055 -0.01 -0.52 0.85 0.02
1 0.48 48 0.148 -8.739 4.535 3.876 0.763 0.702 124.119 2133.260 -4155.143 -0.038 0.054 0.004 -0.01 -0.52 0.85 0.02
1 0.49 49 0.110 -8.691 4.540 1.495 0.732 0.763 109.129 2088.290 -4110.022 -0.001 0.009 0.005 -0.01 -0.52 0.86 0.03
1 0.50 50 -0.029 -8.701 4.578 -1.282 -0.366 1.099 4.197 2043.169 -4215.104 0.137 0.020 -0.031 -0.01 -0.52 0.86 0.03
1 0.51 51 0.120 -8.821 4.559 -2.472 -1.434 1.678 4.197 2043.169 -4215.104 -0.012 0.140 -0.011 -0.01 -0.52 0.86 0.02
1 0.52 52 0.139 -8.720 4.496 -0.977 -2.197 1.770 49.168 2178.231 -4020.081 -0.032 0.038 0.049 -0.01 -0.52 0.86 0.02
1 0.53 53 0.187 -8.969 4.578 0.061 -1.648 1.404 49.168 2178.231 -4020.081 -0.080 0.287 -0.033 -0.01 -0.52 0.86 0.02
1 0.54 54 0.163 -8.835 4.564 0.946 -1.862 1.068 79.148 2163.241 -4110.022 -0.055 0.155 -0.016 -0.01 -0.52 0.86 0.02
1 0.55 55 0.283 -8.797 4.525 0.610 -0.946 1.129 79.148 2163.241 -4110.022 -0.174 0.118 0.025 -0.01 -0.52 0.86 0.02
1 0.56 56 0.230 -8.696 4.544 -1.831 -1.526 1.556 184.230 2118.270 -4110.022 -0.121 0.017 0.007 -0.01 -0.52 0.86 0.02
1 0.57 57 0.306 -8.639 4.597 -3.540 -0.153 1.495 109.129 2193.221 -4065.052 -0.197 -0.041 -0.047 -0.01 -0.52 0.86 0.02
1 0.58 58 0.278 -8.701 4.549 -4.028 1.526 1.892 109.129 2193.221 -4065.052 -0.168 0.020 -0.003 -0.01 -0.52 0.86 0.02
1 0.59 59 0.187 -8.744 4.559 -2.930 2.289 0.916 49.168 2103.280 -3975.110 -0.078 0.061 -0.016 -0.01 -0.52 0.86 0.02
1 0.60 60 0.182 -8.658 4.496 -2.472 2.167 0.183 4.197 2013.188 -4140.153 -0.077 -0.028 0.042 -0.01 -0.52 0.85 0.02
1 0.61 61 0.168 -8.715 4.587 -2.808 1.587 0.610 49.168 2133.260 -4080.042 -0.062 0.029 -0.051 -0.01 -0.52 0.85 0.03
1 0.62 62 0.144 -8.653 4.501 -3.632 0.732 -0.031 49.168 2133.260 -4080.042 -0.039 -0.035 0.032 -0.01 -0.52 0.85 0.03
1 0.63 63 0.340 -8.864 4.511 -2.930 1.617 -0.458 139.109 2013.188 -4065.052 -0.234 0.174 0.018 -0.01 -0.52 0.85 0.03
1 0.64 64 0.421 -8.883 4.482 -2.594 1.251 -1.129 94.139 2133.260 -4125.013 -0.314 0.191 0.044 -0.01 -0.52 0.85 0.03
1 0.65 65 0.374 -8.935 4.444 -2.075 3.143 -0.946 94.139 2133.260 -4125.013 -0.263 0.243 0.081 -0.01 -0.52 0.85 0.03
1 0.66 66 0.110 -8.821 4.583 -1.404 3.632 -1.038 169.090 1953.228 -4125.013 0.001 0.127 -0.060 -0.01 -0.52 0.85 0.03
1 0.67 67 0.225 -8.754 4.602 -2.869 4.364 -1.373 169.090 1953.228 -4125.013 -0.113 0.060 -0.080 -0.01 -0.52 0.85 0.03
1 0.68 68 0.120 -8.782 4.554 -5.280 3.784 -1.984 139.109 2313.293 -4110.022 -0.006 0.086 -0.037 -0.01 -0.52 0.85 0.03
1 0.69 69 0.297 -8.648 4.616 -6.042 2.014 -1.892 139.109 2313.293 -4110.022 -0.182 -0.051 -0.105 -0.01 -0.52 0.85 0.03
1 0.70 70 0.239 -8.663 4.784 -7.233 0.977 -2.075 49.168 2133.260 -4080.042 -0.122 -0.040 -0.278 -0.01 -0.52 0.85 0.03
1 0.71 71 0.378 -8.629 4.688 -7.813 0.641 -1.770 -25.633 1983.208 -4050.062 -0.257 -0.077 -0.190 -0.01 -0.52 0.85 0.03
1 0.72 72 0.532 -8.677 4.607 -8.026 1.068 -1.831 -25.633 1983.208 -4050.062 -0.406 -0.033 -0.117 -0.01 -0.52 0.85 0.03
1 0.73 73 0.469 -8.605 4.640 -8.118 1.617 -1.862 124.119 2133.260 -4080.042 -0.340 -0.109 -0.158 -0.01 -0.52 0.85 0.03
1 0.74 74 0.541 -8.758 4.654 -6.866 1.770 -1.373 124.119 2133.260 -4080.042 -0.407 0.040 -0.181 -0.01 -0.52 0.85 0.03
1 0.75 75 0.589 -8.816 4.750 -4.028 4.761 -1.160 169.090 2058.309 -4050.062 -0.447 0.091 -0.289 -0.01 -0.52 0.85 0.03
1 0.76 76 0.445 -8.715 4.755 -2.808 6.287 -1.770 169.090 2058.309 -4050.062 -0.302 -0.010 -0.296 -0.01 -0.52 0.85 0.03
1 0.77 77 0.555 -8.710 4.865 -2.533 7.446 -2.930 109.129 2088.290 -4170.133 -0.410 -0.015 -0.407 -0.01 -0.52 0.85 0.03
1 0.78 78 0.263 -8.619 4.755 -3.876 7.935 -3.479 94.139 2133.260 -4050.062 -0.116 -0.107 -0.297 -0.01 -0.52 0.85 0.03
1 0.79 79 0.182 -8.634 4.702 -6.012 6.775 -2.930 94.139 2133.260 -4050.062 -0.033 -0.093 -0.247 -0.01 -0.52 0.85 0.03
1 0.80 80 0.283 -8.706 4.650 -8.759 4.822 -4.150 94.139 2223.202 -3945.130 -0.133 -0.024 -0.199 -0.01 -0.52 0.85 0.03
1 0.81 81 0.148 -8.797 4.554 -9.216 3.601 -4.395 94.139 2223.202 -3945.130 0.004 0.062 -0.112 -0.01 -0.52 0.85 0.03
1 0.82 82 0.158 -8.787 4.487 -7.416 3.448 -5.157 169.090 2028.179 -4080.042 -0.001 0.048 -0.055 -0.01 -0.52 0.85 0.03
1 0.83 83 0.259 -8.821 4.458 -4.150 4.425 -2.899 199.220 2133.260 -3900.009 -0.093 0.074 -0.041 -0.01 -0.52 0.85 0.04
1 0.84 84 0.172 -8.916 4.578 -1.831 5.127 -0.732 94.139 2028.179 -4125.013 -0.006 0.168 -0.164 -0.01 -0.52 0.85 0.04
1 0.85 85 0.139 -8.931 4.564 -1.251 5.371 -1.190 109.129 2193.221 -3990.101 0.025 0.182 -0.150 -0.01 -0.52 0.85 0.04
1 0.86 86 0.182 -8.830 4.568 -2.045 5.585 0.183 109.129 2193.221 -3990.101 -0.020 0.082 -0.154 -0.01 -0.52 0.85 0.04
1 0.87 87 0.335 -8.854 4.544 -2.930 4.974 0.519 184.230 2163.241 -4110.022 -0.177 0.106 -0.130 -0.01 -0.52 0.85 0.04
1 0.88 88 0.163 -8.792 4.564 -6.592 3.662 2.258 184.230 2163.241 -4110.022 -0.008 0.042 -0.152 -0.01 -0.52 0.85 0.04
1 0.89 89 0.168 -8.883 4.813 -7.721 1.587 2.838 199.220 2058.309 -4050.062 -0.017 0.130 -0.407 -0.01 -0.52 0.85 0.04
1 0.90 90 0.235 -8.797 4.674 -6.256 0.366 2.197 34.178 2118.270 -3915.149 -0.092 0.036 -0.283 -0.01 -0.53 0.85 0.04
1 0.91 91 0.196 -8.998 4.707 -3.723 0.153 1.617 259.181 2163.241 -4035.071 -0.055 0.235 -0.322 -0.01 -0.53 0.85 0.04
1 0.92 92 0.086 -8.878 4.597 -2.563 2.014 0.549 214.210 2193.221 -4035.071 0.054 0.115 -0.213 -0.01 -0.53 0.85 0.04
1 0.93 93 0.067 -8.533 4.525 -2.167 2.441 0.244 214.210 2193.221 -4035.071 0.072 -0.231 -0.142 -0.01 -0.53 0.85 0.04
1 0.94 94 0.038 -8.485 4.506 -2.716 2.441 -0.122 139.109 2163.241 -3990.101 0.100 -0.279 -0.123 -0.01 -0.53 0.85 0.04
1 0.95 95 -0.235 -8.356 4.477 -6.226 1.923 -0.092 139.109 2163.241 -3990.101 0.371 -0.409 -0.096 -0.02 -0.53 0.85 0.04
1 0.96 96 -0.306 -8.500 4.377 -7.080 1.312 0.427 184.230 2118.270 -4140.153 0.440 -0.268 -0.000 -0.02 -0.53 0.85 0.04
1 0.97 97 -0.244 -8.806 4.420 -4.791 -0.641 1.923 214.210 2193.221 -3960.120 0.369 0.032 -0.056 -0.02 -0.53 0.85 0.04
1 0.98 98 -0.048 -8.864 4.444 -2.930 -1.099 1.831 124.119 2133.260 -4050.062 0.169 0.088 -0.084 -0.02 -0.53 0.85 0.04
1 0.99 99 0.034 -8.979 4.587 2.533 -2.899 0.763 184.230 2043.169 -3960.120 0.086 0.203 -0.226 -0.02 -0.53 0.85 0.04
1 1.00 100 0.105 -9.070 4.707 3.998 -3.540 0.854 184.230 2043.169 -3960.120 0.015 0.297 -0.340 -0.02 -0.53 0.85 0.04
1 1.01 101 0.316 -9.098 4.592 4.852 -4.456 1.373 274.171 2103.280 -4050.062 -0.194 0.330 -0.218 -0.02 -0.53 0.85 0.04
1 1.02 102 0.551 -9.098 4.674 3.693 -4.486 1.465 274.171 2103.280 -4050.062 -0.426 0.334 -0.291 -0.02 -0.53 0.85 0.04
1 1.03 103 0.670 -8.993 4.702 1.617 -3.113 1.801 169.090 2178.231 -4050.062 -0.541 0.232 -0.313 -0.02 -0.53 0.85 0.04
1 1.04 104 0.661 -8.806 4.631 -1.465 -0.092 0.641 199.220 2298.303 -4050.062 -0.523 0.049 -0.233 -0.01 -0.52 0.85 0.04
1 1.05 105 0.565 -8.686 4.559 -2.167 0.336 1.007 274.171 2133.260 -3975.110 -0.425 -0.070 -0.160 -0.01 -0.52 0.85 0.04
1 1.06 106 0.426 -8.581 4.405 -4.883 2.441 -0.732 124.119 2058.309 -4080.042 -0.283 -0.176 -0.009 -0.01 -0.52 0.85 0.04
1 1.07 107 0.230 -8.615 4.343 -5.615 2.563 -0.427 124.119 2058.309 -4080.042 -0.084 -0.145 0.048 -0.02 -0.53 0.85 0.04
1 1.08 108 0.163 -8.696 4.520 -5.371 1.984 -0.305 109.129 2193.221 -3915.149 -0.017 -0.067 -0.135 -0.02 -0.53 0.85 0.04
1 1.09 109 0.086 -8.696 4.511 -2.594 -0.702 -1.251 109.129 2193.221 -3915.149 0.060 -0.069 -0.130 -0.02 -0.53 0.85 0.04
1 1.10 110 0.244 -8.572 4.554 1.770 -2.319 -4.791 49.168 2223.202 -3900.009 -0.094 -0.193 -0.173 -0.02 -0.53 0.85 0.04
1 1.11 111 0.182 -8.562 4.487 1.709 -2.533 -5.646 49.168 2223.202 -4125.013 -0.025 -0.201 -0.102 -0.01 -0.53 0.85 0.04
1 1.12 112 0.350 -8.595 4.525 -1.190 0.244 -4.456 79.148 2193.221 -3990.101 -0.174 -0.162 -0.131 -0.01 -0.52 0.85 0.04
1 1.13 113 0.148 -8.763 4.477 -3.357 3.601 -1.343 169.090 2223.202 -3945.130 0.033 0.005 -0.084 -0.01 -0.53 0.85 0.04
1 1.14 114 0.144 -8.907 4.396 -5.554 5.890 0.488 169.090 2223.202 -3945.130 0.037 0.147 -0.006 -0.01 -0.53 0.85 0.04
1 1.15 115 0.254 -9.094 4.530 -2.930 6.836 1.282 169.090 2133.260 -4125.013 -0.077 0.331 -0.145 -0.01 -0.53 0.85 0.04
1 1.16 116 0.158 -9.170 4.549 1.190 7.813 2.472 169.090 2133.260 -4125.013 0.013 0.407 -0.166 -0.02 -0.53 0.85 0.04
1 1.17 117 0.105 -8.945 4.626 4.272 6.500 1.740 139.109 2163.241 -3990.101 0.057 0.183 -0.239 -0.02 -0.53 0.85 0.04
1 1.18 118 0.101 -8.950 4.669 0.885 4.242 0.610 139.109 2268.172 -4110.022 0.056 0.192 -0.275 -0.02 -0.52 0.85 0.04
1 1.19 119 0.196 -8.950 4.554 -6.805 3.510 -0.519 109.129 2193.221 -4035.071 -0.046 0.194 -0.156 -0.02 -0.52 0.85 0.04
1 1.20 120 0.354 -8.859 4.319 -8.270 5.524 -1.617 169.090 2253.182 -4080.042 -0.205 0.099 0.072 -0.02 -0.53 0.85 0.04
1 1.21 121 0.062 -8.835 4.195 -4.028 9.460 -1.831 169.090 2253.182 -4080.042 0.087 0.071 0.187 -0.02 -0.53 0.85 0.04
1 1.22 122 -0.139 -8.892 4.156 2.014 12.299 -2.228 214.210 2118.270 -4035.071 0.284 0.126 0.222 -0.02 -0.53 0.85 0.04
1 1.23 123 -0.441 -8.634 4.214 5.554 13.092 -4.211 214.210 2118.270 -4035.071 0.579 -0.131 0.168 -0.02 -0.53 0.85 0.04
1 1.24 124 -0.512 -8.835 4.046 8.148 13.611 -5.066 139.109 2193.221 -4035.071 0.645 0.075 0.345 -0.02 -0.52 0.85 0.04
1 1.25 125 -0.603 -8.878 4.018 6.958 12.451 -5.463 139.109 2118.270 -3990.101 0.729 0.123 0.384 -0.02 -0.52 0.85 0.05
1 1.26 126 -0.675 -8.868 4.027 5.981 9.430 -6.012 139.109 2118.270 -3990.101 0.796 0.118 0.384 -0.02 -0.52 0.85 0.05
1 1.27 127 -0.752 -9.089 4.195 4.395 6.714 -5.890 349.123 2058.309 -3975.110 0.867 0.345 0.230 -0.02 -0.52 0.85 0.05
1 1.28 128 -0.575 -9.218 4.252 2.960 4.364 -5.463 349.123 2058.309 -3975.110 0.688 0.477 0.177 -0.02 -0.52 0.85 0.05
1 1.29 129 -0.584 -9.381 4.262 1.343 3.082 -5.585 94.139 2133.260 -3945.130 0.697 0.641 0.169 -0.02 -0.52 0.85 0.05
1 1.30 130 -0.656 -9.472 4.468 0.244 2.502 -4.944 94.139 2133.260 -3945.130 0.769 0.732 -0.036 -0.02 -0.52 0.85 0.05
1 1.31 131 -0.575 -9.649 4.338 1.373 1.404 -4.303 289.162 2238.192 -4035.071 0.687 0.909 0.093 -0.02 -0.52 0.85 0.05
1 1.32 132 -0.599 -9.529 4.458 3.448 0.488 -3.296 169.090 2223.202 -4020.081 0.711 0.789 -0.027 -0.02 -0.52 0.85 0.05
1 1.33 133 -0.555 -9.553 4.458 4.395 -0.244 -2.747 169.090 2223.202 -4020.081 0.667 0.814 -0.024 -0.02 -0.52 0.85 0.05
1 1.34 134 -0.723 -9.414 4.468 2.502 -1.190 0.092 214.210 2238.192 -4170.133 0.830 0.680 -0.025 -0.02 -0.52 0.85 0.05
1 1.35 135 -0.565 -9.520 4.468 0.793 -0.702 2.014 214.210 2238.192 -4170.133 0.667 0.786 -0.023 -0.02 -0.52 0.85 0.05
1 1.36 136 -0.757 -9.472 4.506 0.092 -0.336 5.219 334.132 2088.290 -4035.071 0.850 0.738 -0.061 -0.02 -0.52 0.85 0.05
1 1.37 137 -0.852 -9.328 4.391 1.465 -0.183 6.714 334.132 2088.290 -4035.071 0.932 0.595 0.054 -0.03 -0.52 0.85 0.05
1 1.38 138 -0.895 -9.309 4.310 3.021 -1.282 7.690 184.230 2193.221 -4065.052 0.960 0.576 0.137 -0.03 -0.52 0.85 0.05
1 1.39 139 -0.776 -9.146 4.204 4.334 -5.005 8.759 214.210 2163.241 -4035.071 0.824 0.415 0.246 -0.03 -0.52 0.85 0.05
1 1.40 140 -0.632 -8.864 4.104 3.052 -7.080 9.460 214.210 2163.241 -4035.071 0.666 0.135 0.352 -0.03 -0.52 0.85 0.05
1 1.41 141 -0.613 -8.806 4.137 0.153 -7.172 9.827 334.132 2118.270 -4065.052 0.621 0.079 0.321 -0.03 -0.52 0.85 0.04
1 1.42 142 -0.589 -8.835 3.998 -0.702 -7.355 9.918 334.132 2118.270 -4065.052 0.585 0.107 0.459 -0.03 -0.52 0.85 0.04
1 1.43 143 -0.479 -8.993 3.994 0.122 -4.761 8.942 214.210 2118.270 -3990.101 0.462 0.264 0.460 -0.03 -0.52 0.85 0.04
1 1.44 144 -0.627 -9.170 4.032 1.984 -2.991 7.294 214.210 2118.270 -3990.101 0.599 0.440 0.421 -0.03 -0.52 0.85 0.04
1 1.45 145 -0.781 -9.156 4.003 4.242 -1.373 6.165 274.171 2178.231 -4155.143 0.741 0.426 0.450 -0.03 -0.52 0.85 0.04
1 1.46 146 -0.900 -9.113 3.941 4.761 -2.563 4.913 304.152 2103.280 -3975.110 0.850 0.385 0.516 -0.03 -0.52 0.85 0.04
1 1.47 147 -0.680 -9.161 4.032 5.798 -4.334 4.181 304.152 2103.280 -3975.110 0.620 0.435 0.429 -0.03 -0.52 0.85 0.04
1 1.48 148 -0.680 -8.873 3.979 4.364 -4.425 2.502 244.191 2133.260 -4020.081 0.606 0.152 0.490 -0.03 -0.52 0.85 0.04
1 1.49 149 -0.704 -8.643 4.099 4.334 -4.303 2.289 244.191 2133.260 -4020.081 0.625 -0.076 0.374 -0.03 -0.52 0.85 0.04
1 1.50 150 -0.900 -8.471 3.941 -0.061 -5.859 1.862 289.162 2088.290 -3885.019 0.818 -0.248 0.533 -0.03 -0.52 0.85 0.04
1 1.51 151 -0.886 -8.691 3.812 -1.770 -8.392 1.953 289.162 2088.290 -3885.019 0.800 -0.029 0.660 -0.03 -0.52 0.85 0.04
1 1.52 152 -0.771 -8.950 3.836 -0.732 -13.153 2.014 184.230 2118.270 -3960.120 0.683 0.228 0.632 -0.03 -0.52 0.85 0.04
1 1.53 153 -0.618 -9.108 4.027 2.106 -17.395 1.556 184.230 2118.270 -4035.071 0.532 0.385 0.438 -0.03 -0.52 0.85 0.04
1 1.54 154 -0.230 -8.969 4.405 6.104 -20.081 -0.854 184.230 2118.270 -4035.071 0.151 0.246 0.061 -0.03 -0.52 0.85 0.04
1 1.55 155 -0.077 -9.151 4.496 8.057 -17.670 -1.923 124.119 1983.208 -4080.042 0.010 0.431 -0.024 -0.03 -0.52 0.85 0.03
1 1.56 156 -0.010 -9.113 4.961 15.015 -13.031 -2.106 289.162 2118.270 -4110.022 -0.027 0.406 -0.463 -0.02 -0.52 0.85 0.03
1 1.57 157 0.024 -9.108 5.224 16.724 -11.353 -1.251 79.148 2163.241 -3960.120 -0.048 0.413 -0.703 -0.02 -0.52 0.85 0.03
1 1.58 158 0.340 -8.988 5.306 14.771 -9.827 0.763 79.148 2163.241 -3960.120 -0.354 0.307 -0.758 -0.02 -0.52 0.85 0.03
1 1.59 159 0.421 -9.017 5.253 9.827 -9.522 2.930 124.119 2103.280 -4155.143 -0.428 0.348 -0.683 -0.02 -0.52 0.86 0.03
1 1.60 160 0.522 -9.232 5.191 4.913 -10.834 3.723 -25.633 2058.309 -4080.042 -0.523 0.572 -0.604 -0.02 -0.52 0.86 0.03
1 1.61 161 0.828 -9.275 5.521 -2.441 -13.489 4.822 -25.633 2058.309 -4080.042 -0.822 0.619 -0.927 -0.02 -0.52 0.86 0.03
1 1.62 162 1.149 -9.199 5.507 -4.334 -14.374 4.700 139.109 1968.218 -4140.153 -1.135 0.544 -0.910 -0.02 -0.51 0.86 0.03
1 1.63 163 1.370 -9.098 5.325 -1.465 -7.721 2.777 124.119 2058.309 -3975.110 -1.343 0.440 -0.734 -0.02 -0.52 0.86 0.03
1 1.64 164 1.259 -8.912 5.239 2.502 0.427 -0.305 79.148 2043.169 -4110.022 -1.221 0.256 -0.644 -0.02 -0.52 0.86 0.03
1 1.65 165 0.800 -8.619 4.865 5.585 7.385 -2.625 79.148 2043.169 -4110.022 -0.751 -0.031 -0.261 -0.01 -0.51 0.86 0.03
1 1.66 166 0.306 -8.227 4.583 8.179 12.146 -3.845 169.090 1908.257 -4080.042 -0.253 -0.418 0.034 -0.02 -0.51 0.86 0.03
1 1.67 167 -0.431 -8.016 4.128 9.186 12.451 -3.845 49.168 2058.309 -4050.062 0.485 -0.621 0.503 -0.02 -0.51 0.86 0.03
1 1.68 168 -1.365 -7.599 3.816 4.089 6.805 -1.740 49.168 2058.309 -4050.062 1.412 -1.031 0.827 -0.02 -0.51 0.86 0.03
1 1.69 169 -1.508 -7.561 3.773 -0.153 1.282 -0.458 139.109 2088.290 -4065.052 1.551 -1.065 0.877 -0.02 -0.51 0.86 0.03
1 1.70 170 -1.686 -7.485 3.769 -1.373 -5.005 0.275 34.178 2088.290 -4065.052 1.727 -1.140 0.885 -0.02 -0.51 0.86 0.03
1 1.71 171 -1.480 -7.815 3.951 4.456 -12.939 1.587 259.181 2043.169 -4140.153 1.528 -0.809 0.704 -0.02 -0.51 0.86 0.03
1 1.72 172 -1.226 -8.256 4.032 10.742 -16.968 3.693 259.181 2043.169 -4140.153 1.276 -0.364 0.631 -0.02 -0.51 0.86 0.03
1 1.73 173 -0.785 -8.519 4.329 15.106 -17.639 6.073 184.230 2013.188 -4065.052 0.832 -0.092 0.349 -0.02 -0.51 0.86 0.03
1 1.74 174 -0.498 -8.849 4.736 16.205 -16.815 8.850 274.171 2058.309 -4200.114 0.541 0.249 -0.038 -0.01 -0.51 0.86 0.03
1 1.75 175 -0.397 -9.050 4.894 13.428 -14.221 14.587 274.171 2058.309 -4200.114 0.434 0.461 -0.175 -0.01 -0.51 0.86 0.03
1 1.76 176 0.105 -9.333 5.258 11.383 -15.778 18.036 274.171 2058.309 -4080.042 -0.082 0.754 -0.521 -0.01 -0.51 0.86 0.03
1 1.77 177 0.163 -9.333 5.483 7.568 -19.531 17.975 124.119 2028.179 -4155.143 -0.152 0.763 -0.730 -0.01 -0.51 0.86 0.03
1 1.78 178 0.536 -9.065 5.296 -1.129 -26.489 15.015 4.197 1848.296 -4035.071 -0.536 0.506 -0.522 -0.01 -0.51 0.86 0.02
1 1.79 179 0.589 -9.065 5.071 -4.944 -29.297 12.116 4.197 1848.296 -4035.071 -0.584 0.506 -0.297 -0.01 -0.51 0.86 0.02
1 1.80 180 0.608 -8.682 4.856 -6.989 -29.205 9.796 79.148 1968.218 -4110.022 -0.592 0.120 -0.087 -0.01 -0.51 0.86 0.02
1 1.81 181 0.570 -8.524 4.645 -4.730 -27.039 8.667 184.230 2118.270 -4110.022 -0.540 -0.042 0.116 -0.01 -0.51 0.86 0.02
1 1.82 182 0.397 -8.313 4.702 -0.549 -25.391 9.064 184.230 2118.270 -4110.022 -0.355 -0.255 0.055 -0.01 -0.51 0.86 0.01
1 1.83 183 0.268 -8.097 4.530 3.235 -23.193 10.864 49.168 1908.257 -4200.114 -0.217 -0.469 0.229 -0 -0.51 0.86 0.01
1 1.84 184 0.474 -8.026 4.444 6.500 -21.668 11.841 169.090 2058.309 -4050.062 -0.416 -0.538 0.320 -0 -0.51 0.86 0.01
1 1.85 185 0.455 -8.117 4.449 11.200 -19.440 12.787 49.168 1983.208 -4200.114 -0.391 -0.436 0.336 -0 -0.51 0.86 0.01
1 1.86 186 0.551 -8.141 4.458 12.329 -18.127 12.604 49.168 1983.208 -4200.114 -0.486 -0.403 0.342 -0 -0.51 0.86 0.01
1 1.87 187 0.646 -8.437 4.683 13.123 -14.587 13.397 -55.614 1953.228 -4155.143 -0.583 -0.096 0.135 -0 -0.5 0.86 0.01
1 1.88 188 0.699 -8.528 4.856 12.634 -11.902 14.160 49.168 1983.208 -4155.143 -0.638 0.005 -0.019 0 -0.5 0.86 0.01
1 1.89 189 0.785 -8.677 4.870 10.803 -11.200 14.282 49.168 1983.208 -4155.143 -0.729 0.163 -0.016 0 -0.5 0.86 0
1 1.90 190 1.068 -8.907 4.999 9.216 -8.911 14.191 -25.633 1878.276 -4200.114 -1.016 0.401 -0.131 0 -0.5 0.87 0
1 1.91 191 1.015 -9.079 5.014 9.064 -7.965 14.832 4.197 1848.296 -4170.133 -0.968 0.581 -0.133 0 -0.5 0.87 0
1 1.92 192 0.900 -8.859 4.880 7.355 -11.322 15.167 124.119 1983.208 -4200.114 -0.863 0.374 0.025 0 -0.5 0.87 0
1 1.93 193 1.044 -8.955 4.904 7.233 -13.245 14.710 124.119 1983.208 -4200.114 -1.010 0.476 0.010 -0 0.5 -0.87 0
1 1.94 194 1.044 -8.610 4.908 6.348 -17.761 15.839 -25.633 1833.306 -4125.013 -1.010 0.136 0.014 -0 0.5 -0.87 0
1 1.95 195 1.336 -8.576 4.841 3.784 -17.670 15.656 -25.633 1803.175 -4230.094 -1.301 0.107 0.089 -0 0.5 -0.87 0
1 1.96 196 1.504 -8.490 4.779 0.397 -16.663 15.533 -25.633 1803.175 -4230.094 -1.466 0.023 0.155 -0.01 0.5 -0.87 0.01
1 1.97 197 1.609 -8.442 4.650 -0.641 -11.627 15.595 19.188 1878.276 -4155.143 -1.568 -0.025 0.285 -0.01 0.5 -0.87 0.01
1 1.98 198 1.628 -8.270 4.463 1.038 -4.791 13.825 -40.624 1923.247 -4035.071 -1.587 -0.197 0.471 -0.01 0.5 -0.87 0.01
1 1.99 199 1.413 -8.318 4.592 1.831 -2.716 13.458 -40.624 1923.247 -4035.071 -1.374 -0.149 0.343 -0.01 0.5 -0.87 0.01
1 2.00 200 1.398 -8.447 4.405 -0.885 -1.221 12.299 -130.715 1953.228 -4260.075 -1.367 -0.018 0.532 -0.01 0.5 -0.87 0.01
1 2.01 201 1.528 -8.648 4.540 -2.960 -2.197 11.139 -70.754 1893.267 -4245.084 -1.499 0.181 0.395 -0.01 0.5 -0.87 0.01
1 2.02 202 1.757 -8.816 4.774 -3.662 -2.686 9.277 -100.734 1803.175 -4380.146 -1.729 0.346 0.155 -0.01 0.5 -0.87 0.01
1 2.03 203 2.136 -8.878 4.822 -3.143 -2.136 7.446 -100.734 1803.175 -4380.146 -2.103 0.405 0.101 -0.01 0.5 -0.87 0.01
1 2.04 204 2.313 -8.912 4.808 -3.479 1.129 3.754 -40.624 1893.267 -4290.055 -2.272 0.436 0.111 -0.01 0.5 -0.87 0.01
1 2.05 205 2.504 -8.744 4.994 -6.165 5.859 2.045 4.197 1968.218 -4170.133 -2.453 0.265 -0.080 -0.01 0.5 -0.87 0.01
1 2.06 206 2.389 -8.643 4.765 -8.118 11.169 0.946 4.197 1968.218 -4170.133 -2.326 0.161 0.143 -0.01 0.5 -0.87 0.01
1 2.07 207 2.059 -8.686 4.626 -10.773 16.754 1.404 4.197 1848.296 -4245.084 -1.980 0.191 0.260 -0.01 0.5 -0.87 0.01
1 2.08 208 1.963 -8.639 4.496 -11.169 18.463 2.258 -55.614 1878.276 -4125.013 -1.883 0.135 0.374 -0.01 0.5 -0.87 0.01
1 2.09 209 1.719 -8.313 4.549 -12.207 18.127 2.625 49.168 1803.175 -4200.114 -1.640 -0.199 0.306 -0.01 0.5 -0.86 0
1 2.10 210 1.671 -8.112 4.741 -16.388 16.968 2.625 49.168 1803.175 -4200.114 -1.596 -0.410 0.097 -0.01 0.5 -0.86 0
1 2.11 211 1.590 -8.074 4.851 -20.416 17.853 2.136 19.188 1953.228 -4305.045 -1.518 -0.461 -0.034 -0.01 0.5 -0.86 0
1 2.12 212 1.480 -8.265 5.363 -21.607 26.947 3.357 34.178 1893.267 -4170.133 -1.413 -0.283 -0.571 -0 0.51 -0.86 0
1 2.13 213 1.245 -8.648 5.603 -19.409 37.323 2.197 34.178 1893.267 -4170.133 -1.188 0.086 -0.835 -0 0.51 -0.86 0
1 2.14 214 0.670 -9.151 5.837 -12.970 48.981 -2.533 124.119 1983.208 -4200.114 -0.631 0.578 -1.090 0 -0.51 0.86 0
1 2.15 215 -1.097 -9.912 5.976 -4.547 58.563 -12.329 79.148 2088.290 -4245.084 1.080 1.326 -1.252 -0 -0.51 0.86 0.01
1 2.16 216 -2.782 -10.248 5.823 -5.707 48.645 -18.677 109.129 1923.247 -4110.022 2.743 1.659 -1.104 -0.01 -0.51 0.86 0.01
1 2.17 217 -3.409 -10.137 5.315 -11.078 25.665 -20.783 109.129 1923.247 -4110.022 3.365 1.544 -0.604 -0.01 -0.51 0.86 0.01
1 2.18 218 -3.371 -9.797 4.669 -16.968 2.563 -17.975 139.109 1968.218 -4170.133 3.340 1.196 0.027 -0.01 -0.51 0.86 0.02
1 2.19 219 -2.662 -9.137 4.113 -23.254 -15.137 -12.878 214.210 1818.315 -4215.104 2.656 0.522 0.559 -0.01 -0.51 0.86 0.02
1 2.20 220 -1.121 -8.543 3.749 -24.017 -21.759 0.305 214.210 1818.315 -4215.104 1.131 -0.090 0.889 -0.01 -0.51 0.86 0.02
1 2.21 221 -0.383 -8.399 3.668 -10.529 -19.165 10.407 34.178 2043.169 -4245.084 0.398 -0.253 0.933 -0.01 -0.51 0.86 0.02
1 2.22 222 0.464 -8.184 3.735 17.883 -12.970 17.975 184.230 2043.169 -4110.022 -0.464 -0.480 0.846 -0.01 -0.52 0.86 0.01
1 2.23 223 0.977 -7.810 3.927 31.525 -9.399 17.487 19.188 2103.280 -4050.062 -0.989 -0.839 0.681 -0.01 -0.51 0.86 0.01
1 2.24 224 1.355 -7.604 4.152 34.027 -6.439 13.519 19.188 2103.280 -4050.062 -1.379 -1.021 0.500 -0.01 -0.51 0.86 0.01
1 2.25 225 1.671 -7.350 4.645 24.384 -3.632 9.644 139.109 2118.270 -4110.022 -1.707 -1.251 0.051 -0.01 -0.51 0.86 0.01
1 2.26 226 1.666 -7.389 4.956 3.418 0.183 6.104 94.139 2028.179 -4230.094 -1.699 -1.196 -0.231 -0.01 -0.51 0.86 0.01
1 2.27 227 1.772 -7.858 5.258 -31.189 7.782 3.235 94.139 2028.179 -4230.094 -1.798 -0.726 -0.529 -0.01 -0.51 0.86 0.01
1 2.28 228 1.599 -8.576 5.358 -44.403 13.733 0.427 169.090 1878.276 -4080.042 -1.621 -0.022 -0.657 -0.01 -0.51 0.86 0.01
1 2.29 229 1.010 -9.496 5.124 -38.117 23.926 -3.754 139.109 2043.169 -4140.153 -1.029 0.842 -0.525 -0.01 -0.52 0.86 0.01
1 2.30 230 0.680 -9.817 5.109 -29.358 27.008 -5.493 124.119 2058.309 -4125.013 -0.705 1.140 -0.553 -0.01 -0.52 0.86 0.01
1 2.31 231 -0.388 -10.027 5.004 3.021 28.565 -12.878 124.119 2058.309 -4125.013 0.356 1.342 -0.464 -0.01 -0.52 0.86 0.01
1 2.32 232 -1.001 -9.486 4.980 15.564 23.834 -17.181 244.191 2028.179 -4050.062 0.968 0.807 -0.430 -0.01 -0.52 0.86 0.02
1 2.33 233 -1.312 -9.017 4.755 15.259 17.731 -19.348 244.191 2133.260 -4080.042 1.285 0.349 -0.182 -0.01 -0.52 0.86 0.02
1 2.34 234 -1.671 -8.380 4.444 -4.700 10.925 -12.360 244.191 2133.260 -4080.042 1.649 -0.278 0.147 -0.01 -0.52 0.86 0.02
1 2.35 235 -1.791 -8.184 4.353 -22.247 5.096 -3.143 304.152 1983.208 -4125.013 1.768 -0.474 0.238 -0.01 -0.52 0.86 0.02
1 2.36 236 -1.700 -8.074 4.046 -37.171 -3.052 7.538 289.162 1968.218 -4065.052 1.651 -0.618 0.481 -0.02 -0.52 0.85 0.02
1 2.37 237 -1.504 -8.045 4.008 -36.713 -3.662 10.590 274.171 2253.182 -4125.013 1.433 -0.672 0.470 -0.02 -0.52 0.85 0.02
1 2.38 238 -1.044 -8.294 3.831 -23.590 -4.791 12.207 274.171 2253.182 -4125.013 0.951 -0.444 0.605 -0.02 -0.52 0.85 0.02
1 2.39 239 -0.838 -8.131 3.941 -10.742 -6.073 9.766 214.210 2163.241 -4035.071 0.725 -0.621 0.466 -0.02 -0.52 0.85 0.02
1 2.40 240 -0.575 -8.356 4.037 -1.984 -6.683 4.578 214.210 2118.270 -4170.133 0.449 -0.402 0.359 -0.02 -0.52 0.85 0.02
1 2.41 241 -0.283 -8.490 3.998 4.913 -3.540 0.244 214.210 2118.270 -4170.133 0.152 -0.268 0.397 -0.02 -0.52 0.85 0.02
1 2.42 242 -0.024 -8.658 4.180 8.423 4.517 -5.157 274.171 2178.231 -4125.013 -0.105 -0.096 0.224 -0.02 -0.52 0.85 0.02
1 2.43 243 -0.158 -8.706 4.425 2.594 9.247 -6.256 274.171 2178.231 -4125.013 0.034 -0.042 -0.009 -0.02 -0.52 0.85 0.02
1 2.44 244 -0.158 -8.940 4.444 -12.878 10.834 -7.660 184.230 2118.270 -3990.101 0.040 0.193 -0.027 -0.02 -0.52 0.85 0.02
1 2.45 245 -0.378 -9.175 4.530 -20.142 8.942 -9.460 184.230 2118.270 -3990.101 0.265 0.418 -0.133 -0.02 -0.52 0.85 0.02
1 2.46 246 -0.670 -9.601 4.832 -21.790 5.524 -12.177 289.162 2088.290 -4140.153 0.564 0.830 -0.461 -0.02 -0.53 0.85 0.02
1 2.47 247 -0.512 -10.027 4.813 -19.043 2.991 -12.085 199.220 2133.260 -4080.042 0.416 1.243 -0.469 -0.02 -0.53 0.85 0.02
1 2.48 248 -0.742 -10.032 4.722 -6.042 -0.641 -12.299 199.220 2133.260 -4080.042 0.661 1.237 -0.399 -0.02 -0.53 0.85 0.03
1 2.49 249 -0.852 -9.553 4.544 0.824 -1.434 -11.292 214.210 2193.221 -4065.052 0.789 0.753 -0.232 -0.02 -0.53 0.85 0.03
1 2.50 250 -0.771 -9.242 4.463 2.136 -0.671 -7.324 214.210 2193.221 -4065.052 0.725 0.442 -0.150 -0.02 -0.53 0.85 0.03
1 2.51 251 -0.958 -8.844 4.286 -5.981 -1.526 -0.580 304.152 2058.309 -3945.130 0.919 0.046 0.029 -0.02 -0.53 0.85 0.03
1 2.52 252 -1.240 -8.730 4.147 -13.458 -2.869 3.998 304.152 2058.309 -3945.130 1.195 -0.074 0.158 -0.02 -0.53 0.85 0.03
1 2.53 253 -1.255 -8.768 4.161 -15.808 -3.357 7.721 124.119 2223.202 -4080.042 1.196 -0.045 0.125 -0.02 -0.53 0.85 0.03
1 2.54 254 -1.192 -9.036 4.018 -14.008 -4.395 7.813 199.220 2133.260 -3945.130 1.118 0.214 0.248 -0.02 -0.53 0.85 0.03
1 2.55 255 -1.326 -8.998 3.994 -10.010 -5.402 6.256 199.220 2133.260 -3945.130 1.237 0.166 0.254 -0.02 -0.53 0.85 0.03
1 2.56 256 -1.326 -8.974 3.965 -7.782 -7.355 2.777 259.181 2268.172 -4065.052 1.224 0.136 0.269 -0.02 -0.53 0.85 0.02
1 2.57 257 -1.389 -9.161 3.922 -7.111 -9.399 0.671 259.181 2268.172 -4065.052 1.277 0.318 0.301 -0.02 -0.53 0.85 0.02
1 2.58 258 -1.317 -9.189 3.816 -6.775 -11.139 -0.671 169.090 2373.254 -4155.143 1.200 0.341 0.396 -0.02 -0.53 0.85 0.02
1 2.59 259 -1.341 -9.232 3.735 -4.944 -15.656 -1.770 244.191 2298.303 -4020.081 1.226 0.375 0.457 -0.02 -0.53 0.84 0.02
1 2.60 260 -1.307 -9.232 3.816 -5.066 -21.454 -0.946 199.220 2178.231 -4020.081 1.197 0.371 0.367 -0.02 -0.53 0.84 0.02
1 2.61 261 -1.025 -9.410 3.850 -5.951 -23.987 0.885 139.109 2268.172 -3915.149 0.921 0.544 0.324 -0.02 -0.54 0.84 0.02
1 2.62 262 -0.776 -9.582 3.888 -6.134 -26.245 3.326 139.109 2268.172 -3915.149 0.679 0.711 0.276 -0.02 -0.54 0.84 0.02
1 2.63 263 -0.589 -9.539 3.965 -5.005 -27.222 4.700 274.171 2223.202 -4080.042 0.499 0.663 0.189 -0.02 -0.54 0.84 0.02
1 2.64 264 -0.139 -9.414 4.051 -5.707 -26.947 4.822 274.171 2223.202 -4080.042 0.056 0.535 0.095 -0.02 -0.54 0.84 0.02
1 2.65 265 -0.010 -9.486 4.133 -7.111 -24.689 4.639 79.148 2193.221 -3960.120 -0.064 0.603 0.006 -0.01 -0.54 0.84 0.02
1 2.66 266 -0.024 -9.309 4.180 -8.545 -18.402 5.554 169.090 2178.231 -3975.110 -0.032 0.417 -0.061 -0.01 -0.54 0.84 0.01
1 2.67 267 -0.057 -9.304 4.133 -10.040 -15.686 6.287 79.148 2238.192 -4215.104 0.006 0.407 -0.025 -0.01 -0.54 0.84 0.01
1 2.68 268 -0.144 -9.175 3.960 -10.864 -12.054 6.256 139.109 2343.273 -4065.052 0.094 0.271 0.134 -0.01 -0.54 0.84 0.01
1 2.69 269 -0.283 -8.969 3.793 -10.040 -10.132 6.439 139.109 2343.273 -4065.052 0.232 0.058 0.287 -0.01 -0.54 0.84 0.01
1 2.70 270 -0.407 -8.840 3.462 -10.010 -7.172 7.111 79.148 2238.192 -3990.101 0.351 -0.077 0.603 -0.01 -0.54 0.84 0.01
1 2.71 271 -0.503 -8.739 3.429 -10.834 -6.744 8.240 79.148 2238.192 -3990.101 0.441 -0.184 0.622 -0.01 -0.54 0.84 0.01
1 2.72 272 -0.599 -8.639 3.443 -11.719 -7.965 8.575 169.090 2403.234 -4020.081 0.528 -0.292 0.592 -0.01 -0.54 0.84 0.01
1 2.73 273 -0.613 -8.835 3.218 -7.843 -9.460 10.193 -40.624 2238.192 -3915.149 0.522 -0.111 0.783 -0.01 -0.54 0.84 0.01
1 2.74 274 -0.575 -8.868 3.247 -4.700 -11.261 8.789 94.139 2253.182 -3975.110 0.473 -0.083 0.742 -0.01 -0.54 0.84 0
1 2.75 275 -0.450 -8.840 3.395 -3.387 -14.771 7.416 109.129 2268.172 -4140.153 0.342 -0.115 0.585 -0.01 -0.54 0.84 0
1 2.76 276 -0.311 -9.003 3.409 -2.441 -16.968 5.280 109.129 2268.172 -4140.153 0.201 0.045 0.565 -0.01 -0.55 0.84 0
1 2.77 277 0.034 -9.184 3.558 0.153 -16.541 3.174 274.171 2403.234 -4020.081 -0.142 0.225 0.412 -0.01 -0.55 0.84 0
1 2.78 278 -0.010 -9.175 3.879 -0.610 -10.895 1.038 274.171 2403.234 -4020.081 -0.092 0.215 0.091 -0.01 -0.55 0.84 0
1 2.79 279 -0.091 -9.309 3.807 -5.737 -8.301 0.031 34.178 2433.215 -3990.101 -0.004 0.349 0.162 -0.01 -0.55 0.84 0
1 2.80 280 -0.139 -9.668 3.591 -6.531 -4.852 -1.953 34.178 2118.270 -3990.101 0.056 0.700 0.360 -0.01 -0.55 0.84 0
1 2.81 281 -0.225 -9.467 3.687 -5.585 -4.028 -2.319 -40.624 2313.293 -3885.019 0.148 0.495 0.253 -0.01 -0.55 0.84 0
1 2.82 282 -0.215 -9.462 3.639 -0.824 -4.334 -4.181 49.168 2328.283 -3870.029 0.145 0.487 0.295 -0 -0.55 0.84 0
1 2.83 283 -0.402 -9.481 3.539 1.343 -4.059 -3.601 49.168 2328.283 -3870.029 0.339 0.505 0.393 -0 -0.55 0.84 0
1 2.84 284 -0.426 -9.242 3.429 1.770 -5.615 -3.052 19.188 2373.254 -3945.130 0.369 0.265 0.503 -0 -0.55 0.84 0
1 2.85 285 -0.469 -9.165 3.175 0.092 -8.484 -2.869 19.188 2373.254 -3945.130 0.418 0.188 0.756 -0 -0.55 0.84 0
1 2.86 286 -0.244 -8.888 3.218 -0.610 -9.796 -2.655 -100.734 2253.182 -4020.081 0.199 -0.091 0.710 -0 -0.55 0.84 0
1 2.87 287 -0.072 -8.959 3.371 -1.892 -9.735 -2.899 124.119 2328.283 -3900.009 0.035 -0.020 0.554 -0 -0.55 0.84 0
1 2.88 288 0.005 -8.979 3.117 -1.282 -5.402 -2.289 4.197 2343.273 -3915.149 -0.023 -0.006 0.797 -0 -0.55 0.84 0
1 2.89 289 -0.010 -8.974 3.084 -0.854 -1.709 -2.228 -55.614 2253.182 -4050.062 -0.002 -0.013 0.826 -0 -0.55 0.84 0
1 2.90 290 -0.144 -9.041 3.069 -1.648 1.282 -1.709 -55.614 2253.182 -4050.062 0.137 0.052 0.834 -0 -0.55 0.84 0
1 2.91 291 -0.239 -9.199 3.084 -1.526 3.967 -1.190 124.119 2328.283 -4020.081 0.233 0.207 0.813 -0 -0.55 0.84 0
1 2.92 292 -0.757 -9.520 3.137 1.831 4.364 -1.099 124.119 2328.283 -4020.081 0.748 0.526 0.755 -0 -0.55 0.84 0
1 2.93 293 -0.828 -9.587 3.218 3.571 1.709 -2.625 -145.705 2313.293 -3990.101 0.816 0.591 0.670 -0 -0.55 0.84 0
1 2.94 294 -0.986 -9.644 3.429 4.089 -2.899 -3.876 -25.633 2298.303 -3945.130 0.971 0.648 0.459 -0 -0.55 0.84 0
1 2.95 295 -1.159 -9.539 3.371 0.549 -10.773 -5.005 -25.633 2298.303 -3870.029 1.147 0.543 0.517 -0 -0.55 0.84 0
1 2.96 296 -1.144 -9.438 3.347 -0.153 -14.526 -4.334 19.188 2253.182 -4020.081 1.139 0.441 0.538 -0 -0.55 0.84 0
1 2.97 297 -1.164 -9.410 3.304 -0.916 -17.365 -3.204 19.188 2253.182 -4020.081 1.165 0.411 0.578 -0 -0.55 0.84 0
1 2.98 298 -1.173 -9.132 3.333 -1.648 -19.714 -0.946 4.197 2343.273 -3960.120 1.181 0.131 0.544 -0 0.55 -0.84 0
1 2.99 299 -0.848 -9.003 3.141 -3.784 -22.705 0.824 4.197 2343.273 -3960.120 0.860 -0.000 0.730 -0 0.55 -0.84 0
1 3.00 300 -0.498 -9.184 2.777 -2.594 -23.712 2.441 94.139 2298.303 -4020.081 0.517 0.178 1.085 -0 0.55 -0.83 0
1 3.01 301 -0.393 -9.271 2.672 2.441 -21.332 3.113 -40.624 2313.293 -3960.120 0.418 0.260 1.182 -0 0.55 -0.83 0
1 3.02 302 -0.283 -9.299 2.844 6.622 -20.203 3.296 -40.624 2313.293 -3960.120 0.313 0.287 1.005 -0 0.55 -0.83 0
1 3.03 303 -0.134 -9.726 3.050 6.531 -21.851 3.113 -265.627 2193.221 -3885.019 0.175 0.715 0.804 -0.01 0.55 -0.83 0.01
1 3.04 304 0.125 -9.903 3.093 6.317 -21.820 1.068 -265.627 2193.221 -3885.019 -0.075 0.894 0.763 -0.01 0.55 -0.83 0.01
1 3.05 305 0.101 -10.046 3.448 6.561 -20.722 -0.732 -115.725 2343.273 -3855.039 -0.040 1.038 0.411 -0.01 0.55 -0.83 0.01
1 3.06 306 0.038 -10.262 3.654 5.829 -18.738 -3.143 -115.725 2343.273 -3855.039 0.038 1.256 0.209 -0.01 0.55 -0.83 0.01
1 3.07 307 0.034 -10.118 3.702 4.181 -13.214 -4.059 -115.725 2313.293 -3990.101 0.058 1.115 0.168 -0.01 0.55 -0.84 0.01
1 3.08 308 -0.268 -10.104 3.405 3.693 -7.263 -2.197 -160.695 2373.254 -3945.130 0.374 1.103 0.470 -0.01 0.55 -0.84 0.01
1 3.09 309 -0.551 -10.046 3.271 4.486 -5.768 -0.793 -160.695 2373.254 -3945.130 0.665 1.046 0.605 -0.01 0.55 -0.84 0.01
1 3.10 310 -0.967 -9.807 3.074 9.247 -5.859 4.456 -220.656 2313.293 -3915.149 1.079 0.808 0.805 -0.01 0.55 -0.84 0.01
1 3.11 311 -0.991 -9.611 3.213 11.414 -12.085 6.714 -220.656 2313.293 -3915.149 1.094 0.615 0.673 -0.01 0.55 -0.84 0.01
1 3.12 312 -0.991 -9.520 3.175 11.108 -17.212 8.514 -325.588 2118.120 -3990.400 1.084 0.528 0.722 -0.01 0.55 -0.84 0.01
1 3.13 313 -0.819 -9.237 3.184 7.813 -20.538 8.362 -325.588 2118.120 -3990.400 0.903 0.250 0.722 -0.02 0.55 -0.84 0.02
1 3.14 314 -0.781 -9.314 3.481 4.883 -23.041 7.202 -55.614 2133.110 -4050.511 0.860 0.329 0.431 -0.02 0.55 -0.84 0.02
1 3.15 315 -0.747 -9.328 3.625 0.610 -26.520 6.104 -295.607 2118.120 -3915.449 0.825 0.344 0.290 -0.02 0.55 -0.84 0.02
1 3.16 316 -0.503 -9.457 3.769 1.770 -26.337 5.280 -295.607 2118.120 -3915.449 0.581 0.474 0.146 -0.02 0.55 -0.84 0.02
1 3.17 317 -0.038 -10.176 4.267 9.552 -20.416 6.561 -160.545 2102.980 -3900.459 0.123 1.194 -0.348 -0.02 0.55 -0.84 0.02
1 3.18 318 -0.177 -10.329 4.367 20.752 -19.226 10.681 -160.545 2102.980 -3900.459 0.263 1.354 -0.431 -0.02 0.55 -0.84 0.02
1 3.19 319 0.498 -10.817 4.884 27.802 -22.400 18.219 -370.559 2268.022 -4065.501 -0.417 1.857 -0.916 -0.02 0.55 -0.84 0.03
1 3.20 320 1.240 -10.573 5.033 22.705 -26.306 21.332 -370.559 2268.022 -4065.501 -1.172 1.630 -1.025 -0.02 0.54 -0.84 0.03
1 3.21 321 1.757 -10.362 5.234 9.796 -24.170 21.545 -310.598 2223.052 -4020.531 -1.701 1.432 -1.198 -0.02 0.54 -0.84 0.03
1 3.22 322 1.542 -10.070 5.186 -9.369 -4.913 18.890 -355.568 2178.081 -3975.410 -1.500 1.144 -1.141 -0.02 0.54 -0.84 0.03
1 3.23 323 0.934 -9.850 4.827 -12.451 10.895 16.174 -355.568 2178.081 -3975.410 -0.912 0.921 -0.789 -0.02 0.54 -0.84 0.03
1 3.24 324 -0.110 -9.711 4.070 -6.073 22.034 12.024 -115.575 2193.071 -3915.449 0.075 0.769 -0.062 -0.02 0.54 -0.84 0.04
1 3.25 325 -0.369 -9.606 4.018 -3.296 22.095 11.383 -115.575 2193.071 -3915.449 0.305 0.661 -0.015 -0.02 0.54 -0.84 0.04
1 3.26 326 -0.464 -9.180 3.548 4.761 20.203 6.958 -160.545 2253.032 -4080.492 0.374 0.235 0.455 -0.02 0.54 -0.84 0.03
1 3.27 327 -0.986 -9.113 3.558 2.777 17.731 4.730 -160.545 2253.032 -4080.492 0.873 0.170 0.449 -0.02 0.54 -0.84 0.03
1 3.28 328 -1.101 -9.022 3.625 -5.737 11.993 3.296 -280.617 2253.032 -3975.410 0.966 0.079 0.381 -0.01 0.54 -0.84 0.03
1 3.29 329 -1.293 -8.964 3.812 -18.677 -0.885 3.143 -265.627 2043.019 -3885.469 1.141 0.016 0.181 -0.01 0.54 -0.84 0.03
1 3.30 330 -1.058 -8.883 4.080 -22.797 -6.561 2.594 -265.627 2043.019 -3885.469 0.893 -0.076 -0.110 -0.01 0.55 -0.84 0.03
1 3.31 331 -0.958 -8.892 4.377 -22.949 -8.057 3.143 -115.575 2118.120 -3915.449 0.785 -0.078 -0.435 -0.01 0.55 -0.84 0.04
1 3.32 332 -0.694 -8.878 4.698 -18.250 -8.270 4.517 -280.617 2178.081 -4020.531 0.511 -0.115 -0.809 -0.01 0.55 -0.83 0.04
1 3.33 333 -0.642 -8.974 4.731 -13.123 -8.850 6.989 -160.545 2298.003 -3975.410 0.452 -0.027 -0.859 -0.01 0.55 -0.83 0.04
1 3.34 334 -0.479 -8.821 4.621 -6.989 -11.566 8.301 -160.545 2298.003 -3975.410 0.283 -0.183 -0.757 -0.01 0.55 -0.83 0.04
1 3.35 335 -0.254 -8.701 4.511 -3.387 -16.327 8.881 -280.617 2102.980 -3975.410 0.052 -0.304 -0.648 -0.01 0.55 -0.83 0.04
1 3.36 336 0.388 -8.447 4.444 -1.495 -22.858 9.857 -295.607 2118.120 -3960.420 -0.593 -0.556 -0.579 -0.01 0.55 -0.83 0.04
1 3.37 337 0.838 -8.136 4.573 1.099 -24.628 10.437 -295.607 2118.120 -3960.420 -1.042 -0.866 -0.704 -0.02 0.55 -0.83 0.04
1 3.38 338 1.346 -7.839 4.678 5.035 -24.597 11.322 -325.588 2238.042 -3960.420 -1.543 -1.159 -0.800 -0.02 0.55 -0.83 0.04
1 3.39 339 1.887 -7.384 4.760 4.395 -19.623 10.101 -190.526 2342.974 -3855.488 -2.064 -1.599 -0.848 -0.02 0.55 -0.84 0.05
1 3.40 340 2.241 -7.566 4.664 -0.214 -13.184 11.078 -295.607 2193.071 -3885.469 -2.405 -1.411 -0.735 -0.02 0.55 -0.84 0.05
1 3.41 341 2.222 -7.614 4.195 -1.251 -5.066 14.832 -295.607 2193.071 -3885.469 -2.378 -1.359 -0.256 -0.02 0.55 -0.84 0.05
1 3.42 342 2.433 -7.724 4.156 6.958 1.831 14.313 -280.617 2058.009 -4050.511 -2.589 -1.245 -0.210 -0.02 0.55 -0.84 0.05
1 3.43 343 2.643 -7.729 4.453 16.113 10.864 12.207 -310.598 2298.003 -3825.508 -2.801 -1.232 -0.488 -0.02 0.55 -0.84 0.05
1 3.44 344 2.394 -8.021 4.166 22.705 24.475 8.026 -310.598 2298.003 -3825.508 -2.556 -0.926 -0.170 -0.02 0.54 -0.84 0.05
1 3.45 345 2.059 -8.595 4.300 19.898 31.738 3.662 -280.617 2133.110 -4080.492 -2.226 -0.335 -0.268 -0.02 0.54 -0.84 0.05
1 3.46 346 1.724 -9.094 4.559 11.841 37.995 0.793 -370.559 2163.091 -4065.501 -1.896 0.178 -0.494 -0.02 0.54 -0.84 0.05
1 3.47 347 1.015 -9.558 5.018 -2.472 38.025 -1.190 -280.617 2102.980 -3900.459 -1.204 0.657 -0.921 -0.02 0.54 -0.84 0.04
1 3.48 348 0.642 -9.922 5.090 -7.904 35.919 -2.716 -280.617 2102.980 -3900.459 -0.846 1.020 -0.997 -0.01 0.54 -0.84 0.04
1 3.49 349 0.311 -10.185 5.105 -9.430 32.074 -6.470 -310.598 2028.029 -3975.410 -0.532 1.279 -1.022 -0.01 0.54 -0.84 0.04
1 3.50 350 0.014 -10.142 5.004 -6.653 27.618 -11.841 -145.555 2163.091 -3990.400 -0.243 1.230 -0.934 -0.01 0.54 -0.84 0.04
1 3.51 351 -0.378 -9.841 4.745 3.510 21.668 -19.531 -145.555 2163.091 -3990.400 0.152 0.925 -0.683 -0.01 0.54 -0.84 0.04
1 3.52 352 -0.575 -9.223 4.401 8.514 16.327 -23.132 -145.555 2238.042 -4065.501 0.360 0.309 -0.335 -0.01 0.54 -0.84 0.03
1 3.53 353 -0.618 -8.744 4.109 9.155 8.942 -25.024 -130.565 2058.009 -3975.410 0.422 -0.166 -0.031 -0.01 0.54 -0.84 0.03
1 3.54 354 -0.134 -8.236 3.965 3.784 -0.488 -24.262 -160.545 1983.058 -3975.410 -0.008 -0.662 0.138 -0.01 0.54 -0.84 0.03
1 3.55 355 0.144 -8.088 4.046 -0.854 -3.235 -24.384 -160.545 1983.058 -3975.410 -0.253 -0.808 0.063 -0.01 0.54 -0.84 0.03
1 3.56 356 0.464 -8.121 4.056 -2.319 -3.632 -22.949 -25.633 2133.110 -4050.511 -0.537 -0.775 0.055 -0.01 0.54 -0.84 0.02
1 3.57 357 0.876 -8.208 4.085 -4.364 -3.143 -20.020 -295.607 2238.042 -3915.449 -0.912 -0.689 0.025 -0.01 0.54 -0.84 0.02
1 3.58 358 1.044 -8.533 4.252 -3.448 -0.824 -16.815 -295.607 2238.042 -3915.449 -1.046 -0.364 -0.145 -0.01 0.54 -0.84 0.02
1 3.59 359 1.341 -8.763 4.425 2.258 5.188 -13.458 -205.516 2133.110 -3825.508 -1.313 -0.135 -0.318 -0.01 0.54 -0.84 0.02
1 3.60 360 1.480 -8.940 4.592 4.974 10.284 -12.268 -130.565 2133.110 -3870.479 -1.426 0.045 -0.480 -0.02 0.54 -0.84 0.02
1 3.61 361 1.422 -9.079 4.659 8.484 18.341 -12.085 -190.526 2087.990 -3885.469 -1.328 0.195 -0.523 -0.02 0.54 -0.84 0.02
1 3.62 362 1.154 -9.079 4.745 10.559 21.790 -10.407 -190.526 2087.990 -3885.469 -1.046 0.203 -0.593 -0.02 0.54 -0.84 0.01
1 3.63 363 0.804 -8.615 4.425 10.407 22.827 -10.620 -220.656 2043.019 -3915.449 -0.688 -0.252 -0.253 -0.01 0.54 -0.84 0.01
1 3.64 364 0.623 -8.466 4.113 8.789 23.560 -8.606 -190.526 2087.990 -3960.420 -0.501 -0.393 0.075 -0.01 0.53 -0.84 0.01
1 3.65 365 0.508 -8.270 3.773 8.118 21.759 -7.446 -190.526 2087.990 -3960.420 -0.386 -0.582 0.429 -0.01 0.53 -0.85 0.01
1 3.66 366 0.498 -8.208 3.606 6.744 18.341 -6.104 -55.614 2028.029 -3945.430 -0.376 -0.639 0.609 -0.01 0.53 -0.85 0.01
1 3.67 367 0.402 -8.356 3.812 6.622 17.304 -4.730 -205.516 2058.009 -4020.531 -0.280 -0.486 0.412 -0.01 0.53 -0.85 0.01
1 3.68 368 0.551 -8.811 3.946 7.690 14.374 -3.052 -220.656 2163.091 -3960.420 -0.432 -0.022 0.297 -0.01 0.53 -0.85 0
1 3.69 369 0.632 -8.864 3.998 9.003 13.611 -1.099 -220.656 2163.091 -3960.420 -0.516 0.036 0.255 -0.01 0.53 -0.85 0
1 3.70 370 0.704 -8.912 4.061 9.888 12.421 0.885 -190.526 2043.019 -4035.521 -0.593 0.090 0.206 -0.01 0.53 -0.85 0
1 3.71 371 1.101 -8.897 4.286 8.453 11.658 2.075 -160.545 2102.980 -3975.410 -0.995 0.081 -0.007 -0.01 0.53 -0.85 0
1 3.72 372 1.441 -8.878 4.367 6.744 11.780 1.190 -160.545 2102.980 -3975.410 -1.338 0.068 -0.076 -0.01 0.53 -0.85 0
1 3.73 373 1.508 -9.094 4.444 9.460 15.930 -1.740 19.188 2178.081 -3975.410 -1.404 0.289 -0.142 -0.01 0.53 -0.85 0
1 3.74 374 1.585 -9.050 4.525 13.550 21.820 -4.059 -205.516 2178.081 -3945.430 -1.478 0.252 -0.211 0.01 -0.53 0.85 0
1 3.75 375 1.437 -8.878 4.415 16.235 27.008 -6.287 -205.516 2178.081 -3945.430 -1.326 0.089 -0.082 0.01 -0.53 0.85 0
1 3.76 376 0.862 -8.605 4.276 13.275 30.975 -8.698 -145.555 1968.068 -3960.420 -0.749 -0.161 0.103 0 -0.53 0.85 0
1 3.77 377 0.575 -8.265 4.219 6.897 31.220 -8.484 -130.565 1953.078 -4080.492 -0.464 -0.493 0.178 0 -0.53 0.85 0.01
1 3.78 378 0.139 -8.155 4.061 -1.129 27.435 -7.568 19.188 1953.078 -3975.410 -0.034 -0.599 0.344 0 -0.52 0.85 0.01
1 3.79 379 -0.062 -8.270 3.927 -6.928 22.858 -7.355 19.188 1953.078 -3975.410 0.161 -0.485 0.475 -0 -0.52 0.85 0.01
1 3.80 380 -0.153 -8.572 3.524 -11.627 20.447 -4.211 -100.584 1983.058 -3945.430 0.245 -0.189 0.867 -0 -0.53 0.85 0.01
1 3.81 381 -0.220 -8.591 3.261 -8.453 23.499 -1.526 -100.584 1983.058 -3825.508 0.305 -0.178 1.114 -0 -0.53 0.85 0.01
1 3.82 382 -0.335 -8.481 3.189 -2.502 25.452 1.648 -100.584 1983.058 -3825.508 0.406 -0.296 1.171 -0 -0.53 0.85 0.01
1 3.83 383 -0.369 -8.270 3.333 0.153 23.285 4.608 80.048 1966.719 -3858.037 0.396 -0.514 1.013 -0.01 -0.53 0.85 0.02
1 3.84 384 -0.374 -8.342 3.333 -4.547 19.562 5.920 -54.714 1906.608 -3903.007 0.376 -0.444 1.008 -0.01 -0.53 0.85 0.02
1 3.85 385 -0.101 -8.308 3.022 -6.805 16.876 7.874 5.097 2086.641 -3917.998 0.080 -0.483 1.309 -0.01 -0.53 0.85 0.02
1 3.86 386 0.043 -8.428 3.041 -8.179 14.008 9.155 5.097 2086.641 -3917.998 -0.086 -0.371 1.275 -0.01 -0.53 0.85 0.02
1 3.87 387 0.397 -8.457 2.998 -7.660 11.688 10.437 5.097 2116.621 -3888.017 -0.461 -0.350 1.301 -0.01 -0.53 0.85 0.02
1 3.88 388 0.766 -8.409 3.180 -8.637 11.810 12.604 5.097 1966.719 -3917.998 -0.848 -0.406 1.103 -0.01 -0.53 0.85 0.02
1 3.89 389 1.235 -8.169 3.840 -9.491 14.435 12.451 5.097 1966.719 -3917.998 -1.336 -0.653 0.426 -0.02 -0.53 0.85 0.02
1 3.90 390 1.183 -8.069 5.047 -8.637 21.729 11.047 125.019 1906.608 -3827.906 -1.301 -0.761 -0.797 -0.02 -0.53 0.85 0.02
1 3.91 391 0.819 -8.734 5.248 -2.655 41.199 -2.167 95.038 1981.709 -3873.027 -0.971 -0.099 -1.007 -0.02 -0.53 0.85 0.02
1 3.92 392 -0.680 -9.271 5.449 -4.761 54.016 -11.414 35.077 2116.621 -3858.037 0.514 0.439 -1.204 -0.02 -0.53 0.85 0.02
1 3.93 393 -2.557 -9.975 5.124 -12.024 51.605 -14.771 35.077 2116.621 -3858.037 2.372 1.143 -0.881 -0.03 -0.53 0.85 0.02
1 3.94 394 -3.309 -10.477 5.253 -19.714 25.238 -17.029 170.139 1906.608 -3797.926 3.115 1.637 -1.029 -0.03 -0.53 0.85 0.02
1 3.95 395 -2.849 -10.784 5.804 -42.236 -18.829 -23.834 140.159 2011.689 -3888.017 2.669 1.928 -1.610 -0.03 -0.53 0.84 0.03
1 3.96 396 -2.117 -11.042 5.248 -42.816 -37.995 -27.985 140.159 2011.689 -3888.017 1.976 2.162 -1.106 -0.03 -0.54 0.84 0.03
1 3.97 397 -1.676 -10.655 4.875 -27.008 -45.899 -26.733 185.129 2116.621 -3858.037 1.595 1.747 -0.790 -0.02 -0.54 0.84 0.03
1 3.98 398 -1.623 -9.524 3.773 -6.744 -51.544 -17.059 80.048 2086.641 -3782.936 1.670 0.589 0.250 -0.01 -0.54 0.84 0.03
1 3.99 399 -0.551 -8.792 3.539 -2.197 -56.641 -9.796 200.120 2131.611 -3873.027 0.646 -0.147 0.477 -0.01 -0.54 0.84 0.03
1 4.00 400 0.642 -8.188 3.778 -11.780 -58.716 -1.892 200.120 2131.611 -3873.027 -0.507 -0.753 0.230 -0.01 -0.54 0.84 0.02
1 4.01 401 1.585 -8.074 4.137 -29.053 -55.542 6.165 -99.835 2101.631 -3767.945 -1.413 -0.877 -0.151 -0 -0.54 0.84 0.02
1 4.02 402 2.241 -8.375 4.774 -39.581 -47.577 11.780 -114.825 2266.673 -3812.916 -2.038 -0.594 -0.830 -0 -0.55 0.84 0.02
1 4.03 403 2.552 -8.935 5.363 -39.856 -26.886 7.324 -114.825 2266.673 -3812.916 -2.325 -0.055 -1.469 0 -0.55 0.84 0.02
1 4.04 404 2.270 -9.175 5.454 -34.393 -10.254 -3.632 5.097 2161.742 -3888.017 -2.019 0.165 -1.608 0.01 -0.55 0.83 0.02
1 4.05 405 1.690 -9.615 5.148 -17.212 15.137 -21.454 -129.815 2176.732 -3767.945 -1.396 0.575 -1.375 0.01 -0.55 0.83 0.02
1 4.06 406 0.905 -9.611 5.057 -7.477 30.518 -30.212 -204.767 2371.605 -3797.926 -0.588 0.564 -1.303 0.01 -0.56 0.83 0.02
1 4.07 407 -0.067 -9.568 4.741 -2.655 41.046 -35.889 -204.467 2371.455 -3798.825 0.409 0.519 -0.992 0.01 -0.56 0.83 0.02
1 4.08 408 -1.384 -9.788 4.382 -1.160 42.572 -38.208 -144.506 2236.393 -3708.734 1.751 0.742 -0.629 0.01 -0.56 0.83 0.03
1 4.09 409 -2.346 -9.855 3.850 0.763 33.478 -35.034 -219.457 2266.374 -3708.734 2.739 0.812 -0.093 0 -0.56 0.83 0.03
1 4.10 410 -2.998 -9.644 3.821 -0.732 7.355 -22.949 -219.457 2266.374 -3708.734 3.412 0.605 -0.059 0 -0.56 0.83 0.03
1 4.11 411 -2.773 -9.510 3.989 -10.040 -9.552 -12.207 -99.535 2296.354 -3798.825 3.204 0.472 -0.224 0 -0.55 0.83 0.03
1 4.12 412 -2.097 -9.711 4.257 -21.942 -26.337 3.723 -99.535 2131.312 -3798.825 2.534 0.661 -0.523 0 -0.56 0.83 0.03
1 4.13 413 -1.748 -9.845 4.281 -22.339 -30.823 8.698 20.387 2296.354 -3693.744 2.182 0.782 -0.578 0.01 -0.56 0.83 0.03
1 4.14 414 -0.996 -9.908 4.463 -18.799 -44.556 14.771 20.387 2296.354 -3693.744 1.435 0.832 -0.790 0.01 -0.56 0.83 0.03
1 4.15 415 -0.546 -9.783 4.741 -15.778 -50.903 18.829 -39.574 2461.396 -3678.753 0.989 0.697 -1.095 0.01 -0.56 0.83 0.03
1 4.16 416 -0.010 -9.457 4.784 -14.832 -52.551 22.919 -24.584 2371.455 -3693.744 0.455 0.362 -1.162 0.01 -0.56 0.83 0.02
1 4.17 417 0.378 -9.319 4.688 -17.609 -41.809 28.137 -24.584 2371.455 -3693.744 0.057 0.216 -1.083 0.01 -0.56 0.83 0.02
1 4.18 418 0.211 -9.582 4.602 -19.684 -31.067 28.839 -294.558 2506.367 -3708.734 0.209 0.472 -1.015 0.01 -0.56 0.83 0.02
1 4.19 419 -0.034 -9.740 4.506 -17.883 -24.170 27.283 -294.558 2506.367 -3708.734 0.432 0.620 -0.940 0.02 -0.56 0.83 0.01
1 4.20 420 -0.742 -9.510 4.195 -11.200 -24.628 22.125 -294.558 2266.374 -3678.753 1.091 0.374 -0.668 0.02 -0.57 0.82 0.01
1 4.21 421 -0.742 -9.175 3.946 -6.042 -29.114 18.524 -294.558 2266.374 -3678.753 1.067 0.034 -0.428 0.02 -0.57 0.82 0
1 4.22 422 -0.311 -8.725 3.692 -2.655 -32.349 15.564 -159.496 2221.403 -3693.744 0.621 -0.418 -0.178 0.02 -0.57 0.82 0
1 4.23 423 0.139 -8.461 3.855 -4.883 -31.036 13.916 -159.496 2446.406 -3648.773 0.161 -0.683 -0.343 -0.02 0.57 -0.82 0
1 4.24 424 0.503 -8.457 4.257 -12.482 -19.836 13.306 -159.496 2446.406 -3648.773 -0.207 -0.690 -0.750 -0.02 0.57 -0.82 0
1 4.25 425 0.579 -8.801 4.214 -12.848 -11.322 14.069 -279.568 2296.354 -3768.845 -0.289 -0.349 -0.717 -0.02 0.57 -0.82 0
1 4.26 426 0.263 -9.060 4.190 -7.568 -5.951 14.648 -279.568 2296.354 -3768.845 0.018 -0.095 -0.704 -0.02 0.57 -0.82 0.01
1 4.27 427 -0.086 -9.208 4.156 5.585 -9.399 11.597 -309.548 2401.436 -3573.822 0.337 0.052 -0.673 -0.02 0.57 -0.82 0.01
1 4.28 428 -0.249 -8.849 4.003 12.878 -17.090 5.768 -309.548 2401.436 -3573.822 0.490 -0.301 -0.504 -0.02 0.57 -0.82 0.01
1 4.29 429 -0.134 -8.404 3.951 16.754 -26.062 0.702 -159.496 2401.436 -3618.792 0.377 -0.737 -0.426 -0.02 0.57 -0.82 0.01
1 4.30 430 -0.038 -8.069 3.979 16.327 -31.220 -1.801 -264.578 2431.416 -3783.835 0.294 -1.061 -0.426 -0.02 0.56 -0.83 0.01
1 4.31 431 0.297 -7.810 3.591 14.526 -29.663 -2.045 -264.578 2431.416 -3783.835 -0.024 -1.308 -0.011 -0.03 0.56 -0.83 0.01
1 4.32 432 0.369 -7.552 3.357 12.695 -15.533 2.930 -384.500 2176.432 -3618.792 -0.077 -1.559 0.243 -0.03 0.56 -0.83 0.01
1 4.33 433 0.287 -7.461 3.256 10.040 -2.838 6.317 -384.500 2176.432 -3618.792 0.013 -1.642 0.363 -0.03 0.56 -0.83 0.02
1 4.34 434 -0.134 -7.547 3.055 3.479 6.775 8.209 -219.457 2431.416 -3603.802 0.430 -1.549 0.581 -0.03 0.56 -0.83 0.02
1 4.35 435 -0.350 -8.256 3.002 -5.463 12.299 7.904 -369.509 2191.422 -3678.753 0.615 -0.838 0.641 -0.03 0.56 -0.83 0.02
1 4.36 436 -0.469 -9.012 3.060 -4.517 10.345 4.272 -309.548 2326.334 -3693.744 0.719 -0.085 0.577 -0.03 0.56 -0.83 0.02
1 4.37 437 -0.532 -9.443 3.438 1.770 6.653 -1.068 -264.578 2431.416 -3678.753 0.767 0.344 0.193 -0.03 0.56 -0.83 0.02
1 4.38 438 -0.728 -9.735 3.553 8.728 0.885 -5.341 -264.578 2431.416 -3678.753 0.959 0.637 0.082 -0.02 0.56 -0.83 0.02
1 4.39 439 -0.709 -9.735 3.611 16.510 -12.085 -9.094 -369.509 2311.344 -3738.864 0.943 0.643 0.038 -0.03 0.56 -0.83 0.02
1 4.40 440 -0.297 -9.668 3.505 22.186 -17.212 -12.024 -369.509 2311.344 -3738.864 0.543 0.584 0.164 -0.03 0.56 -0.83 0.02
1 4.41 441 -0.129 -9.333 3.376 25.208 -18.402 -13.184 -264.578 2386.445 -3708.734 0.394 0.261 0.321 -0.03 0.56 -0.83 0.02
1 4.42 442 0.292 -8.682 3.290 21.027 -14.252 -13.428 -294.558 2341.325 -3678.753 0.025 -0.363 0.470 -0.03 0.55 -0.83 0.02
1 4.43 443 0.369 -8.390 3.160 14.008 -9.003 -11.322 -459.451 2296.354 -3768.845 -0.026 -0.643 0.625 -0.03 0.55 -0.83 0.02
1 4.44 444 0.101 -8.308 3.079 4.761 -6.012 -8.148 -294.558 2431.416 -3678.753 0.262 -0.718 0.721 -0.03 0.55 -0.83 0.02
1 4.45 445 0.283 -8.303 2.998 -3.632 -4.852 -6.104 -294.558 2431.416 -3678.753 0.093 -0.721 0.805 -0.03 0.55 -0.83 0.02
1 4.46 446 0.168 -8.610 2.835 -8.331 -4.974 -4.913 -354.519 2296.354 -3723.724 0.219 -0.417 0.960 -0.03 0.55 -0.83 0.02
1 4.47 447 0.067 -8.883 3.328 -7.233 -5.951 -5.371 -354.519 2296.354 -3723.724 0.328 -0.150 0.452 -0.03 0.55 -0.83 0.02
1 4.48 448 -0.062 -9.304 3.611 -4.364 -10.345 -6.622 -384.500 2371.455 -3768.845 0.467 0.266 0.156 -0.03 0.55 -0.83 0.02
1 4.49 449 0.158 -9.884 3.290 6.897 -16.266 -7.721 -399.490 2236.393 -3678.753 0.275 0.842 0.465 -0.04 0.55 -0.83 0.02
1 4.50 450 0.441 -10.315 3.223 21.759 -16.266 -7.294 -399.490 2161.442 -3633.783 0.010 1.278 0.543 -0.04 0.55 -0.83 0.02
1 4.51 451 0.517 -10.032 3.314 34.180 -14.893 -7.324 -519.562 2311.344 -3528.851 -0.048 1.010 0.484 -0.04 0.55 -0.83 0.02
1 4.52 452 0.924 -9.649 3.184 35.980 -16.541 -7.965 -519.562 2311.344 -3528.851 -0.435 0.646 0.656 -0.04 0.55 -0.83 0.02
1 4.53 453 1.058 -8.921 2.763 25.055 -16.785 -5.310 -459.451 2221.403 -3723.724 -0.546 -0.063 1.119 -0.04 0.55 -0.84 0.02
1 4.54 454 1.422 -8.734 2.208 -0.977 -10.437 -0.702 -459.451 2221.403 -3723.724 -0.890 -0.239 1.696 -0.04 0.55 -0.84 0.02
1 4.55 455 1.255 -8.926 2.255 -11.261 -1.892 -0.031 -504.571 2296.354 -3693.744 -0.707 -0.048 1.644 -0.04 0.55 -0.84 0.02
1 4.56 456 0.565 -9.357 1.887 -5.005 13.397 -0.427 -459.451 2296.354 -3543.841 -0.004 0.364 1.967 -0.05 0.55 -0.83 0.02
1 4.57 457 0.393 -9.520 1.791 0.732 17.517 -0.610 -504.571 2251.383 -3648.773 0.162 0.521 2.050 -0.04 0.55 -0.83 0.02
1 4.58 458 -0.479 -9.750 2.452 11.810 25.452 -1.801 -474.591 2191.422 -3558.832 1.021 0.750 1.389 -0.04 0.55 -0.83 0.02
1 4.59 459 -1.164 -10.032 3.386 15.198 25.299 -1.587 -474.591 2191.422 -3558.832 1.687 1.035 0.465 -0.04 0.55 -0.83 0.01
1 4.60 460 -1.714 -10.631 3.893 23.743 17.761 5.859 -474.591 2236.393 -3708.734 2.212 1.641 -0.024 -0.04 0.55 -0.84 0.01
1 4.61 461 -1.820 -10.506 4.520 34.912 -20.020 21.118 -474.591 2236.393 -3708.734 2.298 1.532 -0.611 -0.04 0.55 -0.84 0.01
1 4.62 462 -1.212 -10.228 4.932 11.780 -43.427 34.882 -474.591 2161.442 -3678.753 1.672 1.276 -0.972 -0.04 0.54 -0.84 0.02
1 4.63 463 0.302 -10.219 5.387 -19.959 -57.678 47.058 -474.591 2116.321 -3738.864 0.140 1.276 -1.403 -0.04 0.54 -0.84 0.02
1 4.64 464 1.959 -11.789 5.986 -55.573 -37.933 54.718 -549.542 2116.321 -3738.864 -1.582 2.810 -2.079 -0.04 0.55 -0.84 0.03
1 4.65 465 2.442 -12.278 5.976 -52.399 -11.658 55.512 -384.500 2251.383 -3648.773 -2.123 3.262 -2.148 -0.04 0.55 -0.83 0.04
1 4.66 466 2.485 -11.880 5.679 -23.804 15.259 50.842 -384.500 2251.383 -3648.773 -2.238 2.836 -1.914 -0.04 0.55 -0.83 0.04
1 4.67 467 2.169 -10.913 5.473 10.101 45.654 43.518 -624.343 2190.223 -3681.002 -2.002 1.859 -1.726 -0.04 0.55 -0.83 0.04
1 4.68 468 0.623 -9.951 4.961 21.332 92.102 30.212 -624.343 2190.223 -3681.002 -0.543 0.905 -1.190 -0.03 0.55 -0.83 0.04
1 4.69 469 -1.231 -10.018 4.635 6.622 108.887 21.179 -534.402 2250.184 -3650.872 1.216 0.986 -0.832 -0.03 0.55 -0.83 0.04
1 4.70 470 -2.988 -10.746 4.396 -9.399 103.119 13.611 -324.389 2160.243 -3635.881 2.880 1.721 -0.576 -0.02 0.55 -0.83 0.04
1 4.71 471 -4.774 -11.569 4.281 -15.930 59.754 2.655 -519.412 2190.223 -3710.982 4.522 2.534 -0.493 -0.01 0.55 -0.83 0.03
1 4.72 472 -5.306 -11.775 4.171 -1.587 13.825 -8.850 -69.405 2160.243 -3530.950 5.025 2.733 -0.403 -0 0.55 -0.83 0.03
1 4.73 473 -4.602 -11.038 4.008 7.355 -23.071 -21.393 -68.206 2158.294 -3534.697 4.336 1.996 -0.237 -0 0.55 -0.83 0.03
1 4.74 474 -3.615 -10.305 4.085 19.013 -58.991 -31.311 -143.307 2113.323 -3639.779 3.402 1.269 -0.297 -0.01 0.55 -0.83 0.03
1 4.75 475 -2.126 -9.295 3.922 28.931 -86.579 -35.156 -143.307 2113.323 -3639.779 1.998 0.271 -0.101 -0.01 0.55 -0.83 0.03
1 4.76 476 0.010 -7.547 3.735 37.445 -96.131 -28.015 -143.307 2083.343 -3639.779 -0.044 -1.458 0.131 -0.02 0.55 -0.83 0.03
1 4.77 477 1.393 -6.345 4.123 31.586 -83.039 -17.761 -188.277 2188.274 -3684.750 -1.336 -2.637 -0.203 -0.03 0.55 -0.84 0.03
1 4.78 478 2.073 -5.703 4.592 13.489 -61.615 -3.510 -188.277 2188.274 -3684.750 -1.934 -3.257 -0.626 -0.03 0.54 -0.84 0.04
1 4.79 479 2.600 -5.986 4.760 -24.872 -22.400 16.754 -518.212 1963.271 -3744.710 -2.392 -2.965 -0.776 -0.04 0.54 -0.84 0.04
1 4.80 480 2.342 -6.924 4.496 -40.192 0.793 26.886 -517.913 1961.472 -3747.559 -2.150 -2.045 -0.552 -0.04 0.55 -0.84 0.04
1 4.81 481 1.829 -7.508 4.338 -41.260 12.238 31.159 -368.010 2006.443 -3717.578 -1.679 -1.486 -0.450 -0.04 0.55 -0.83 0.04
1 4.82 482 1.441 -7.983 3.970 -30.274 9.949 29.358 -368.010 2006.443 -3717.578 -1.334 -1.033 -0.131 -0.04 0.55 -0.83 0.04
1 4.83 483 1.465 -7.863 3.955 2.106 -7.050 20.691 -502.922 2096.534 -3627.637 -1.390 -1.166 -0.146 -0.03 0.55 -0.83 0.05
1 4.84 484 2.026 -7.552 4.238 26.642 -14.801 13.947 -502.922 2246.437 -3702.588 -1.968 -1.478 -0.429 -0.03 0.55 -0.83 0.05
1 4.85 485 2.701 -7.279 4.089 45.349 -15.076 5.157 -502.922 2246.437 -3702.588 -2.645 -1.736 -0.245 -0.04 0.55 -0.83 0.05
1 4.86 486 3.529 -7.154 4.046 48.859 6.104 -3.357 -383.000 1976.462 -3627.637 -3.451 -1.802 -0.068 -0.04 0.54 -0.84 0.05
1 4.87 487 3.615 -7.427 4.401 35.584 26.337 -8.240 -383.000 1976.462 -3627.637 -3.511 -1.497 -0.352 -0.04 0.54 -0.84 0.05
1 4.88 488 2.916 -8.035 4.564 15.778 44.556 -6.531 -322.890 2081.544 -3747.559 -2.794 -0.866 -0.465 -0.04 0.54 -0.84 0.05
1 4.89 489 2.140 -8.509 4.985 -2.808 57.648 -4.272 -322.890 2081.544 -3747.559 -2.017 -0.381 -0.864 -0.03 0.54 -0.84 0.04
1 4.90 490 0.939 -9.170 5.081 -19.562 66.406 -2.899 -383.000 2021.433 -3702.588 -0.830 0.279 -0.961 -0.03 0.54 -0.84 0.04
1 4.91 491 -0.919 -10.248 4.813 -23.071 63.782 -3.937 -442.961 2036.573 -3717.578 0.997 1.346 -0.715 -0.03 0.54 -0.84 0.04
1 4.92 492 -1.839 -10.592 4.482 -9.064 46.967 -10.925 -442.961 2036.573 -3717.578 1.880 1.676 -0.416 -0.02 0.54 -0.84 0.03
1 4.93 493 -2.179 -9.836 4.338 14.374 11.108 -22.919 -322.890 2111.524 -3642.627 2.205 0.915 -0.281 -0.02 0.54 -0.84 0.03
1 4.94 494 -1.657 -8.868 4.003 19.104 -11.566 -28.534 -322.890 2111.524 -3642.627 1.714 -0.041 0.078 -0.02 0.54 -0.84 0.03
1 4.95 495 -0.963 -8.150 4.137 12.177 -24.292 -28.839 -262.929 2111.524 -3717.578 1.056 -0.748 -0.031 -0.02 0.54 -0.84 0.03
1 4.96 496 -0.134 -7.532 4.013 -0.763 -26.123 -23.560 -262.929 2111.524 -3717.578 0.273 -1.358 0.109 -0.02 0.54 -0.84 0.03
1 4.97 497 0.455 -7.293 3.855 -13.641 -23.346 -20.111 -307.899 2171.485 -3657.617 -0.268 -1.599 0.262 -0.03 0.54 -0.84 0.03
1 4.98 498 1.149 -7.729 3.491 -17.517 -13.428 -17.365 -307.899 2096.534 -3702.588 -0.922 -1.172 0.605 -0.03 0.54 -0.84 0.03
1 4.99 499 1.470 -7.949 3.414 -7.813 -7.416 -15.778 -307.899 2096.534 -3702.588 -1.208 -0.961 0.657 -0.03 0.54 -0.84 0.02
1 5.00 500 1.681 -8.208 3.625 7.660 -3.571 -13.214 -427.971 2096.534 -3657.617 -1.362 -0.706 0.434 -0.03 0.54 -0.84 0.02
1 5.01 501 1.786 -8.318 3.587 10.559 -2.411 -12.054 -427.971 2096.534 -3657.617 -1.438 -0.589 0.485 -0.04 0.54 -0.84 0.02
1 5.02 502 1.796 -8.821 3.749 11.261 7.813 -6.958 -368.010 2006.443 -3567.526 -1.424 -0.078 0.338 -0.04 0.54 -0.84 0.02
1 5.03 503 1.829 -9.098 4.037 9.888 15.900 -1.587 -368.010 2006.443 -3567.526 -1.444 0.207 0.066 -0.04 0.54 -0.84 0.02
1 5.04 504 1.532 -9.309 4.204 6.287 22.949 2.869 -427.971 2051.563 -3702.588 -1.146 0.423 -0.089 -0.04 0.54 -0.84 0.02
1 5.05 505 1.039 -9.333 4.085 5.127 29.144 10.529 -353.020 2126.515 -3702.588 -0.663 0.451 0.041 -0.03 0.54 -0.84 0.02
1 5.06 506 0.752 -9.084 4.113 5.402 27.100 14.069 -353.020 2126.515 -3702.588 -0.398 0.205 0.020 -0.03 0.54 -0.84 0.02
1 5.07 507 0.570 -8.878 3.793 0.793 19.989 15.442 -383.000 2096.534 -3807.520 -0.247 0.002 0.349 -0.03 0.54 -0.84 0.02
1 5.08 508 1.058 -8.586 3.505 -3.479 7.843 13.550 -353.020 2051.563 -3657.617 -0.793 -0.292 0.636 -0.03 0.54 -0.84 0.02
1 5.09 509 1.212 -8.514 3.505 -2.563 6.744 10.468 -277.919 1976.462 -3702.588 -0.962 -0.367 0.630 -0.03 0.54 -0.84 0.02
1 5.10 510 1.259 -8.787 3.649 -0.397 9.308 8.759 -277.919 1976.462 -3702.588 -1.020 -0.096 0.482 -0.03 0.54 -0.84 0.02
1 5.11 511 1.121 -8.950 3.903 3.784 12.970 8.759 -397.991 1916.501 -3717.578 -0.892 0.066 0.228 -0.03 0.54 -0.84 0.02
1 5.12 512 0.929 -8.897 4.238 13.245 15.595 4.425 -322.890 2081.544 -3642.627 -0.712 0.016 -0.100 -0.02 0.54 -0.84 0.02
1 5.13 513 0.713 -8.797 4.305 13.123 14.313 0.702 -322.890 2081.544 -3642.627 -0.507 -0.077 -0.150 -0.02 0.54 -0.84 0.02
1 5.14 514 0.781 -8.696 4.257 6.928 12.329 -2.014 -457.952 2096.534 -3732.568 -0.580 -0.168 -0.082 -0.02 0.54 -0.84 0.02
1 5.15 515 0.704 -8.639 4.200 -15.961 12.451 -4.974 -368.010 2111.524 -3567.526 -0.504 -0.219 -0.011 -0.02 0.53 -0.84 0.02
1 5.16 516 0.474 -8.873 3.951 -29.785 10.437 -8.331 -292.909 2036.573 -3717.578 -0.270 0.005 0.214 -0.02 0.54 -0.84 0.01
1 5.17 517 0.426 -8.715 3.500 -33.295 5.981 -12.177 -292.909 2036.573 -3717.578 -0.212 -0.173 0.622 -0.02 0.54 -0.84 0.01
1 5.18 518 0.455 -8.500 3.266 -26.764 2.106 -14.679 -202.968 1976.462 -3627.637 -0.224 -0.409 0.812 -0.02 0.54 -0.84 0.01
1 5.19 519 0.512 -8.083 2.801 -15.717 3.479 -14.221 -157.997 2096.534 -3627.637 -0.261 -0.841 1.242 -0.02 0.54 -0.84 0.01
1 5.20 520 0.565 -7.437 2.332 -9.796 10.040 -9.125 -157.997 2096.534 -3627.637 -0.297 -1.494 1.694 -0.02 0.54 -0.84 0.01
1 5.21 521 0.570 -7.370 2.083 -16.022 15.595 -0.671 -232.948 2171.485 -3702.588 -0.293 -1.566 1.931 -0.02 0.54 -0.84 0.01
1 5.22 522 0.857 -7.427 2.011 -21.851 24.170 8.850 -383.000 2126.515 -3657.617 -0.584 -1.517 1.986 -0.02 0.54 -0.84 0.01
1 5.23 523 1.006 -7.973 3.826 -19.257 41.016 20.203 -232.948 2171.485 -3582.516 -0.794 -0.997 0.116 -0.02 0.55 -0.84 0.01
1 5.24 524 1.393 -8.672 4.712 -2.869 54.444 16.419 -232.948 2171.485 -3582.516 -1.232 -0.307 -0.789 -0.01 0.55 -0.84 0.01
1 5.25 525 0.996 -9.726 5.392 22.614 72.022 6.989 -292.909 2111.524 -3612.646 -0.880 0.752 -1.456 -0.01 0.55 -0.84 0.01
1 5.26 526 -1.044 -10.118 5.631 21.332 87.128 1.160 -157.997 2246.437 -3522.555 1.111 1.161 -1.657 -0.01 0.55 -0.84 0
1 5.27 527 -3.180 -11.234 5.904 -17.120 52.643 -14.252 -157.997 2246.437 -3522.555 3.197 2.287 -1.906 0 -0.54 0.84 0
1 5.28 528 -2.528 -11.727 6.479 -46.570 11.871 -22.919 -187.978 2186.476 -3567.526 2.525 2.775 -2.492 -0 -0.54 0.84 0
1 5.29 529 -2.002 -11.947 6.536 -69.947 -24.384 -32.593 -113.026 2186.476 -3537.545 2.014 2.972 -2.603 -0 -0.55 0.84 0.01
1 5.30 530 -1.935 -11.670 5.033 -63.599 -56.427 -32.959 -67.006 2079.745 -3646.075 2.072 2.615 -1.288 0 -0.56 0.83 0.01
1 5.31 531 -1.513 -10.430 4.434 -39.948 -72.235 -30.090 -67.006 2079.745 -3646.075 1.731 1.343 -0.770 0.01 -0.56 0.83 0.01
1 5.32 532 -0.436 -9.161 4.358 -17.365 -84.687 -29.144 -201.918 2169.836 -3481.182 0.738 0.057 -0.743 0.01 -0.56 0.83 0.01
1 5.33 533 1.073 -8.337 4.396 0.061 -83.679 -30.365 -321.990 2229.797 -3541.143 -0.685 -0.771 -0.799 0.02 -0.56 0.83 0
1 5.34 534 2.265 -7.791 4.204 5.432 -65.125 -29.694 -321.990 2229.797 -3541.143 -1.788 -1.310 -0.601 0.03 -0.56 0.83 0
1 5.35 535 2.763 -7.805 4.674 -10.681 -17.090 -26.795 -262.029 2154.846 -3466.192 -2.200 -1.287 -1.061 0.03 -0.56 0.83 0
1 5.36 536 1.906 -8.184 5.047 -24.811 17.181 -24.384 -232.049 2289.758 -3526.153 -1.273 -0.905 -1.437 0.04 -0.56 0.83 0
1 5.37 537 -0.172 -9.769 5.085 -32.044 58.075 -17.822 -472.042 2334.729 -3436.211 0.867 0.668 -1.518 0.04 -0.56 0.83 0.01
1 5.38 538 -1.681 -10.712 4.650 -25.177 67.963 -7.965 -472.042 2334.729 -3436.211 2.364 1.598 -1.113 0.03 -0.56 0.82 0.01
1 5.39 539 -2.854 -11.248 4.544 -14.221 58.167 -3.235 -321.990 2334.729 -3466.192 3.511 2.124 -1.031 0.03 -0.57 0.82 0.02
1 5.40 540 -3.658 -11.493 4.578 -0.671 32.440 -3.357 -366.961 2379.850 -3436.211 4.292 2.363 -1.072 0.03 -0.57 0.82 0.02
1 5.41 541 -3.611 -11.272 4.070 12.146 -1.343 -3.632 -366.961 2379.850 -3436.211 4.237 2.145 -0.557 0.02 -0.57 0.82 0.02
1 5.42 542 -2.418 -10.042 3.702 15.839 -49.530 0.793 -262.029 2379.850 -3436.211 3.055 0.923 -0.168 0.03 -0.56 0.82 0.02
1 5.43 543 -1.154 -9.127 3.898 4.425 -64.636 6.195 -262.029 2334.729 -3466.192 1.815 0.018 -0.344 0.03 -0.56 0.83 0.02
1 5.44 544 0.321 -8.222 4.343 -21.820 -60.669 16.663 -292.010 2334.729 -3466.192 0.367 -0.888 -0.798 0.03 -0.56 0.83 0.01
1 5.45 545 0.594 -8.188 4.425 -27.222 -54.230 19.074 -292.010 2334.729 -3466.192 0.097 -0.934 -0.911 0.04 -0.57 0.82 0.01
1 5.46 546 0.685 -8.040 4.463 -29.633 -29.266 25.726 -351.971 2319.739 -3481.182 -0.002 -1.098 -0.987 0.04 -0.57 0.82 0
1 5.47 547 0.148 -8.093 4.353 -22.278 -14.008 31.006 -396.941 2304.749 -3466.192 0.511 -1.058 -0.908 0.04 -0.57 0.82 0
1 5.48 548 -0.383 -8.160 4.300 -16.876 -6.104 35.309 -396.941 2304.749 -3466.192 1.002 -1.001 -0.875 -0.04 0.57 -0.82 0
1 5.49 549 -1.053 -8.634 4.444 -18.829 -8.301 35.278 -381.951 2364.859 -3406.081 1.621 -0.536 -1.033 -0.04 0.57 -0.82 0
1 5.50 550 -1.212 -9.237 4.525 -19.898 -16.968 31.311 -381.951 2439.811 -3376.101 1.724 0.058 -1.131 -0.04 0.57 -0.82 0.01
1 5.51 551 -1.389 -9.702 4.473 -15.991 -27.985 23.041 -381.951 2439.811 -3376.101 1.852 0.513 -1.098 -0.04 0.57 -0.82 0.01
1 5.52 552 -0.862 -10.195 4.487 -0.885 -47.638 7.813 -502.023 2364.859 -3451.202 1.283 0.994 -1.140 -0.04 0.57 -0.82 0.02
1 5.53 553 -0.522 -9.807 4.358 11.475 -55.603 -0.092 -396.642 2649.524 -3497.372 0.961 0.607 -1.010 -0.04 0.57 -0.82 0.02
1 5.54 554 0.192 -9.438 4.262 21.210 -55.054 -3.754 -426.622 2244.488 -3407.430 0.275 0.247 -0.893 -0.04 0.57 -0.82 0.02
1 5.55 555 0.512 -8.552 4.137 22.522 -47.486 -3.113 -426.172 2242.689 -3411.028 -0.016 -0.624 -0.735 -0.05 0.57 -0.82 0.02
1 5.56 556 1.073 -8.030 4.128 10.315 -27.710 1.862 -381.202 2317.790 -3351.067 -0.549 -1.132 -0.691 -0.05 0.57 -0.82 0.02
1 5.57 557 1.082 -7.978 3.864 0.763 -15.747 4.700 -591.215 2452.702 -3501.119 -0.539 -1.175 -0.404 -0.05 0.57 -0.82 0.03
1 5.58 558 1.030 -8.217 3.850 -2.533 -5.127 5.249 -591.215 2452.702 -3501.119 -0.477 -0.931 -0.379 -0.05 0.57 -0.82 0.03
1 5.59 559 0.804 -8.610 3.802 3.265 4.303 2.930 -501.124 2317.790 -3411.028 -0.252 -0.535 -0.322 -0.05 0.57 -0.82 0.03
1 5.60 560 0.532 -8.907 4.022 8.850 6.836 2.258 -621.195 2257.679 -3441.008 0.017 -0.233 -0.530 -0.05 0.56 -0.82 0.03
1 5.61 561 0.254 -8.969 4.046 12.360 5.585 1.068 -591.215 2452.702 -3441.008 0.290 -0.164 -0.534 -0.05 0.56 -0.82 0.03
1 5.62 562 0.081 -9.117 3.888 14.496 0.854 -1.556 -591.215 2452.702 -3441.008 0.459 -0.006 -0.352 -0.05 0.56 -0.82 0.03
1 5.63 563 -0.014 -9.204 3.649 15.381 -3.235 -3.540 -546.244 2332.780 -3366.057 0.555 0.090 -0.088 -0.05 0.56 -0.83 0.03
1 5.64 564 -0.211 -9.089 3.462 17.456 -7.202 -6.165 -441.163 2302.800 -3441.008 0.756 -0.016 0.123 -0.05 0.56 -0.83 0.03
1 5.65 565 -0.359 -8.964 3.424 16.632 -7.111 -5.402 -441.163 2302.800 -3441.008 0.912 -0.130 0.186 -0.05 0.56 -0.83 0.03
1 5.66 566 -0.488 -8.816 3.151 13.245 -9.155 -4.456 -501.124 2317.790 -3351.067 1.048 -0.268 0.483 -0.05 0.56 -0.83 0.03
1 5.67 567 -0.594 -8.643 2.945 3.845 -10.712 -0.549 -456.153 2467.692 -3411.028 1.162 -0.428 0.718 -0.05 0.56 -0.83 0.03
1 5.68 568 -0.546 -8.792 2.983 -0.580 -10.773 1.312 -636.186 2167.738 -3276.116 1.112 -0.280 0.681 -0.05 0.56 -0.83 0.03
1 5.69 569 -0.350 -8.912 3.041 -2.289 -10.162 2.136 -636.186 2167.738 -3276.116 0.913 -0.162 0.619 -0.05 0.56 -0.83 0.03
1 5.70 570 -0.417 -9.223 2.959 2.197 -8.362 3.082 -546.244 2257.679 -3471.139 0.976 0.147 0.695 -0.06 0.56 -0.83 0.03
1 5.71 571 -0.330 -9.448 3.160 15.289 -6.531 2.594 -681.156 2362.761 -3411.028 0.883 0.372 0.496 -0.06 0.56 -0.83 0.03
1 5.72 572 -0.421 -9.357 3.218 21.057 -10.651 0.000 -681.156 2362.761 -3411.028 0.968 0.287 0.453 -0.06 0.56 -0.83 0.03
1 5.73 573 -0.364 -9.137 3.275 21.393 -17.456 -1.892 -546.244 2422.722 -3441.008 0.908 0.076 0.420 -0.06 0.56 -0.83 0.03
1 5.74 574 0.019 -8.950 3.232 14.160 -28.931 -5.035 -561.234 2392.741 -3456.148 0.542 -0.090 0.511 -0.06 0.55 -0.83 0.04
1 5.75 575 0.469 -8.940 3.194 8.881 -32.623 -7.507 -591.215 2422.722 -3501.119 0.114 -0.092 0.562 -0.06 0.55 -0.83 0.04
1 5.76 576 0.613 -8.888 3.419 6.409 -33.234 -8.728 -591.215 2422.722 -3501.119 -0.001 -0.141 0.343 -0.06 0.55 -0.83 0.04
1 5.77 577 0.862 -9.117 3.342 7.629 -29.022 -8.301 -591.215 2152.748 -3291.106 -0.220 0.093 0.425 -0.06 0.55 -0.83 0.04
1 5.78 578 0.939 -9.199 3.089 14.404 -22.369 -5.798 -456.153 2287.810 -3636.031 -0.268 0.181 0.688 -0.07 0.55 -0.83 0.04
1 5.79 579 1.068 -9.290 2.773 22.430 -12.024 -5.066 -456.153 2287.810 -3636.031 -0.375 0.280 1.020 -0.07 0.55 -0.83 0.04
1 5.80 580 1.207 -9.247 2.792 22.369 -6.531 -4.089 -636.186 2242.689 -3531.100 -0.496 0.248 1.024 -0.07 0.55 -0.83 0.04
1 5.81 581 1.288 -9.314 2.864 15.747 2.533 -4.303 -636.186 2287.810 -3591.061 -0.552 0.336 0.997 -0.07 0.55 -0.83 0.04
1 5.82 582 0.963 -9.477 2.978 12.177 9.552 -5.859 -696.146 2227.699 -3396.038 -0.217 0.506 0.896 -0.07 0.55 -0.83 0.04
1 5.83 583 0.613 -9.529 2.777 11.414 13.458 -7.172 -696.146 2227.699 -3396.038 0.138 0.564 1.109 -0.07 0.54 -0.83 0.04
1 5.84 584 0.402 -9.558 2.878 11.108 16.724 -7.477 -666.166 2302.800 -3696.142 0.350 0.598 1.019 -0.07 0.54 -0.84 0.04
1 5.85 585 -0.182 -9.529 2.806 11.719 19.165 -7.172 -621.195 2227.699 -3576.070 0.933 0.573 1.101 -0.07 0.54 -0.84 0.04
1 5.86 586 -0.872 -9.338 2.888 14.313 18.158 -7.568 -621.195 2227.699 -3576.070 1.616 0.387 1.032 -0.07 0.54 -0.84 0.03
1 5.87 587 -1.259 -9.299 3.357 17.059 15.137 -5.829 -546.244 2107.777 -3441.008 1.995 0.354 0.577 -0.07 0.54 -0.84 0.03
1 5.88 588 -1.619 -9.850 3.951 30.396 3.937 6.042 -561.234 2287.810 -3486.129 2.320 0.923 0.031 -0.06 0.54 -0.84 0.03
1 5.89 589 -1.705 -10.080 3.989 37.567 -4.944 13.886 -636.186 2212.708 -3666.012 2.375 1.171 0.038 -0.06 0.54 -0.84 0.03
1 5.90 590 -0.484 -10.252 4.798 30.457 -36.408 34.699 -636.186 2212.708 -3666.012 1.134 1.367 -0.717 -0.06 0.54 -0.84 0.04
1 5.91 591 1.020 -10.185 5.085 6.836 -44.953 45.014 -666.166 2032.676 -3471.139 -0.395 1.312 -0.973 -0.06 0.53 -0.84 0.04
1 5.92 592 2.045 -10.396 5.545 -14.435 -36.774 43.671 -681.156 2017.686 -3486.129 -1.453 1.520 -1.434 -0.06 0.53 -0.84 0.05
1 5.93 593 2.265 -10.564 5.742 -35.828 -9.674 41.443 -681.156 2017.686 -3486.129 -1.711 1.673 -1.657 -0.07 0.54 -0.84 0.05
1 5.94 594 1.882 -10.070 5.478 -32.532 12.970 35.889 -561.234 2047.816 -3486.129 -1.375 1.156 -1.439 -0.06 0.54 -0.84 0.05
1 5.95 595 1.226 -9.524 4.889 -12.512 40.924 28.046 -561.234 2047.816 -3486.129 -0.774 0.587 -0.895 -0.06 0.54 -0.84 0.05
1 5.96 596 -0.460 -9.199 4.319 6.561 81.330 18.951 -546.244 2257.679 -3576.070 0.785 0.250 -0.338 -0.05 0.54 -0.84 0.05
1 5.97 597 -1.872 -9.769 4.176 5.371 90.760 13.855 -546.244 2257.679 -3576.070 2.118 0.825 -0.178 -0.05 0.54 -0.84 0.05
1 5.98 598 -2.591 -10.559 4.013 4.974 76.569 8.148 -621.195 2302.800 -3621.041 2.752 1.617 -0.005 -0.04 0.54 -0.84 0.05
1 5.99 599 -2.974 -10.870 4.401 7.904 47.669 -0.122 -561.234 2212.708 -3456.148 3.084 1.933 -0.382 -0.04 0.54 -0.84 0.05
1 6.00 600 -2.528 -10.765 4.760 -0.916 2.899 -13.062 -561.234 2212.708 -3456.148 2.617 1.833 -0.729 -0.03 0.54 -0.84 0.05
1 6.01 601 -2.174 -10.262 4.774 -11.780 -19.165 -21.637 -306.250 2212.708 -3636.031 2.272 1.332 -0.739 -0.03 0.54 -0.84 0.04
1 6.02 602 -1.733 -9.826 4.449 -15.472 -32.349 -24.994 -306.250 2212.708 -3636.031 1.868 0.891 -0.425 -0.04 0.54 -0.84 0.04
1 6.03 603 -0.881 -8.998 3.998 0.488 -41.199 -17.975 -456.153 2242.689 -3531.100 1.117 0.049 -0.010 -0.04 0.54 -0.84 0.04
1 6.04 604 -0.330 -7.868 3.788 12.878 -40.009 -10.559 -456.153 2242.689 -3531.100 0.605 -1.078 0.205 -0.05 0.54 -0.84 0.04
1 6.05 605 0.101 -7.125 4.089 13.855 -35.278 -2.655 -471.143 2257.679 -3471.139 0.207 -1.810 -0.077 -0.05 0.54 -0.84 0.05
1 6.06 606 0.196 -6.608 4.147 1.099 -29.205 7.141 -426.172 2287.810 -3561.080 0.133 -2.320 -0.120 -0.05 0.54 -0.84 0.05
1 6.07 607 0.388 -6.934 4.171 -17.487 -25.299 16.846 -426.172 2287.810 -3561.080 -0.054 -1.996 -0.148 -0.05 0.54 -0.84 0.05
1 6.08 608 0.852 -7.667 4.133 -29.846 -29.450 31.525 -546.244 2152.748 -3501.119 -0.529 -1.277 -0.139 -0.05 0.54 -0.84 0.05
1 6.09 609 1.389 -8.093 4.200 -22.614 -37.171 36.621 -546.244 2152.748 -3501.119 -1.087 -0.869 -0.246 -0.05 0.54 -0.84 0.05
1 6.10 610 2.337 -8.279 4.434 -4.944 -42.786 36.621 -666.166 2152.748 -3576.070 -2.060 -0.698 -0.513 -0.05 0.54 -0.83 0.06
1 6.11 611 4.262 -7.925 4.741 25.421 -33.142 29.053 -471.143 2227.699 -3621.041 -4.002 -1.048 -0.810 -0.06 0.54 -0.83 0.06
1 6.12 612 5.229 -7.695 4.870 39.642 -14.832 16.754 -546.244 2182.728 -3471.139 -4.960 -1.256 -0.891 -0.06 0.54 -0.84 0.07
1 6.13 613 5.550 -7.418 4.923 36.499 11.780 7.629 -561.234 2092.787 -3531.100 -5.259 -1.505 -0.879 -0.06 0.54 -0.84 0.07
1 6.14 614 5.196 -7.523 4.880 21.729 42.420 2.777 -561.234 2092.787 -3531.100 -4.885 -1.373 -0.780 -0.06 0.54 -0.84 0.07
1 6.15 615 3.419 -8.236 4.961 -3.693 76.172 -2.258 -441.163 2257.679 -3501.119 -3.103 -0.643 -0.826 -0.06 0.53 -0.84 0.06
1 6.16 616 1.863 -8.945 5.133 -10.895 88.257 -7.172 -441.163 2257.679 -3501.119 -1.558 0.071 -0.987 -0.06 0.53 -0.84 0.06
1 6.17 617 0.350 -9.735 4.971 -8.972 88.379 -15.228 -666.166 2302.800 -3726.123 -0.070 0.859 -0.826 -0.05 0.53 -0.84 0.05
1 6.18 618 -1.494 -10.640 4.712 3.876 65.460 -31.098 -471.143 2227.699 -3621.041 1.725 1.761 -0.572 -0.04 0.54 -0.84 0.05
1 6.19 619 -2.490 -10.559 4.664 10.925 41.474 -38.666 -471.143 2377.751 -3576.070 2.729 1.685 -0.513 -0.04 0.54 -0.84 0.04
1 6.20 620 -2.753 -9.845 4.156 11.780 15.442 -36.957 -456.153 2287.810 -3666.012 3.024 0.981 0.013 -0.04 0.53 -0.84 0.04
1 6.21 621 -2.543 -8.710 3.735 6.134 -8.087 -32.196 -456.153 2287.810 -3666.012 2.857 -0.145 0.452 -0.04 0.53 -0.84 0.03
1 6.22 622 -1.556 -8.011 3.927 -6.134 -23.254 -25.177 -291.260 2152.748 -3546.090 1.898 -0.841 0.263 -0.04 0.53 -0.84 0.03
1 6.23 623 0.053 -7.987 4.243 -21.759 -25.665 -13.397 -291.260 2152.748 -3546.090 0.320 -0.870 -0.065 -0.04 0.53 -0.84 0.03
1 6.24 624 0.733 -8.212 4.281 -22.003 -18.738 -7.965 -366.211 2107.777 -3576.070 -0.329 -0.655 -0.128 -0.05 0.53 -0.84 0.03
1 6.25 625 1.346 -8.390 4.305 -2.869 -3.784 -4.120 -426.172 2242.689 -3381.047 -0.896 -0.496 -0.196 -0.05 0.54 -0.84 0.03
1 6.26 626 1.216 -8.528 4.267 14.252 3.601 -3.937 -426.172 2242.689 -3666.012 -0.753 -0.353 -0.151 -0.05 0.54 -0.84 0.03
1 6.27 627 1.154 -8.284 4.267 24.933 2.533 -5.951 -396.192 2257.679 -3621.041 -0.681 -0.584 -0.124 -0.05 0.54 -0.84 0.03
1 6.28 628 1.140 -7.997 4.142 24.536 -0.641 -7.996 -396.192 2257.679 -3621.041 -0.652 -0.853 0.038 -0.05 0.53 -0.84 0.03
1 6.29 629 1.427 -7.997 4.262 17.273 -2.441 -7.050 -456.153 2212.708 -3561.080 -0.922 -0.836 -0.047 -0.05 0.53 -0.85 0.03
1 6.30 630 1.714 -8.414 4.362 5.981 3.296 -1.221 -456.153 2212.708 -3561.080 -1.191 -0.407 -0.123 -0.05 0.53 -0.85 0.03
1 6.31 631 1.599 -8.576 4.391 5.981 8.911 2.472 -396.192 2152.748 -3621.041 -1.067 -0.237 -0.138 -0.05 0.53 -0.85 0.03
1 6.32 632 1.480 -8.797 4.315 10.773 17.548 9.033 -441.163 2257.679 -3651.021 -0.953 -0.004 -0.035 -0.05 0.53 -0.85 0.03
1 6.33 633 1.346 -8.576 4.262 11.658 20.111 10.742 -471.143 2257.679 -3651.021 -0.837 -0.217 0.035 -0.05 0.53 -0.85 0.03
1 6.34 634 0.814 -8.380 4.089 10.407 23.712 13.977 -516.264 2107.777 -3621.041 -0.331 -0.405 0.227 -0.05 0.53 -0.85 0.03
1 6.35 635 0.484 -8.097 3.601 6.378 18.585 13.397 -516.264 2107.777 -3621.041 -0.031 -0.681 0.731 -0.04 0.53 -0.85 0.03
1 6.36 636 0.345 -7.959 3.405 1.068 9.766 11.597 -471.143 2377.751 -3756.103 0.081 -0.818 0.935 -0.04 0.53 -0.85 0.03
1 6.37 637 0.747 -7.872 3.481 -3.845 1.129 9.949 -471.143 2377.751 -3756.103 -0.342 -0.904 0.861 -0.04 0.53 -0.85 0.03
1 6.38 638 1.010 -8.040 3.457 -4.944 0.183 9.796 -366.211 2182.728 -3621.041 -0.620 -0.739 0.881 -0.04 0.53 -0.85 0.03
1 6.39 639 1.125 -8.284 3.481 -3.265 2.228 8.301 -291.260 2152.748 -3546.090 -0.748 -0.497 0.852 -0.04 0.53 -0.85 0.03
1 6.40 640 1.269 -8.437 3.649 2.808 4.730 3.448 -306.250 2122.767 -3711.132 -0.906 -0.349 0.676 -0.04 0.53 -0.85 0.03
1 6.41 641 1.279 -8.509 3.960 6.683 5.341 2.106 -351.221 2212.708 -3561.080 -0.916 -0.275 0.369 -0.04 0.53 -0.85 0.03
1 6.42 642 1.437 -8.600 3.754 5.280 5.585 1.007 -351.221 2212.708 -3561.080 -1.072 -0.180 0.583 -0.04 0.53 -0.85 0.03
1 6.43 643 1.633 -8.701 3.893 0.275 9.216 1.770 -516.264 2107.777 -3576.070 -1.266 -0.077 0.449 -0.04 0.53 -0.85 0.03
1 6.44 644 1.757 -8.730 3.903 -8.514 16.785 6.226 -516.264 2107.777 -3576.070 -1.391 -0.049 0.437 -0.04 0.53 -0.85 0.03
1 6.45 645 1.733 -8.457 3.960 -12.878 20.050 7.965 -381.202 2047.816 -3561.080 -1.373 -0.327 0.370 -0.04 0.53 -0.85 0.03
1 6.46 646 1.690 -8.452 3.649 -14.130 24.323 8.240 -516.264 2077.796 -3621.041 -1.341 -0.340 0.666 -0.04 0.53 -0.85 0.03
1 6.47 647 1.446 -8.198 3.117 -10.498 34.577 6.805 -321.241 2227.699 -3576.070 -1.131 -0.613 1.161 -0.04 0.53 -0.85 0.03
1 6.48 648 0.675 -8.107 2.634 -10.620 41.138 8.209 -231.149 2167.738 -3591.061 -0.384 -0.713 1.629 -0.03 0.53 -0.85 0.02
1 6.49 649 0.096 -7.671 2.337 -14.710 44.098 9.796 -231.149 2167.738 -3591.061 0.157 -1.156 1.913 -0.03 0.53 -0.85 0.02
1 6.50 650 -0.359 -7.441 1.949 -21.637 42.420 12.390 -351.221 2242.689 -3531.100 0.570 -1.396 2.282 -0.03 0.53 -0.85 0.02
1 6.51 651 -0.761 -7.432 2.126 -30.975 39.612 15.808 -351.221 2242.689 -3531.100 0.927 -1.421 2.075 -0.02 0.53 -0.84 0.02
1 6.52 652 -1.164 -7.590 4.544 -39.856 46.936 18.799 -156.198 2287.810 -3636.031 1.282 -1.284 -0.387 -0.02 0.54 -0.84 0.02
1 6.53 653 -1.178 -8.797 4.468 -22.522 55.023 10.925 -306.250 2317.790 -3561.080 1.242 -0.101 -0.362 -0.02 0.54 -0.84 0.02
1 6.54 654 -2.595 -9.740 5.512 1.892 65.674 -3.021 -306.250 2317.790 -3561.080 2.599 0.827 -1.437 -0.01 0.54 -0.84 0.02
1 6.55 655 -6.158 -11.426 5.900 -5.615 46.021 -21.820 -36.126 2257.679 -3471.139 6.092 2.514 -1.822 -0 0.54 -0.84 0.01
1 6.56 656 -5.674 -12.192 6.474 -13.062 4.395 -22.278 -36.126 2257.679 -3471.139 5.617 3.276 -2.406 -0 0.54 -0.84 0.01
1 6.57 657 -3.840 -12.240 6.761 -29.694 -33.051 -27.588 -66.257 2332.780 -3576.070 3.819 3.314 -2.715 -0 0.54 -0.84 0.01
1 6.58 658 -2.605 -12.407 6.651 -48.401 -55.756 -31.738 -66.257 2332.780 -3576.070 2.649 3.461 -2.651 -0.01 0.54 -0.84 0.01
1 6.59 659 -2.093 -12.431 5.133 -53.681 -81.208 -23.041 -156.198 2167.738 -3561.080 2.216 3.454 -1.204 -0.01 0.55 -0.84 0.01
1 6.60 660 -0.895 -11.694 3.682 -29.511 -102.845 -15.839 -141.208 2302.800 -3546.090 1.100 2.685 0.169 -0.02 0.55 -0.83 0.01
1 6.61 661 1.422 -10.535 3.443 4.425 -120.270 -13.428 -141.208 2302.800 -3546.090 -1.136 1.505 0.355 -0.03 0.55 -0.83 0.01
1 6.62 662 4.865 -8.533 4.415 21.057 -121.491 -17.059 -351.221 2512.813 -3456.148 -4.399 -0.484 -0.607 -0.04 0.55 -0.83 0.02
1 6.63 663 6.297 -7.518 5.100 0.458 -98.175 -24.658 -351.221 2512.813 -3456.148 -5.706 -1.485 -1.273 -0.05 0.55 -0.83 0.02
1 6.64 664 6.824 -7.231 5.775 -29.877 -50.202 -29.541 -426.172 2362.761 -3456.148 -6.145 -1.773 -1.965 -0.06 0.55 -0.83 0.03
1 6.65 665 5.952 -7.379 6.000 -49.683 14.679 -33.936 -426.172 2362.761 -3456.148 -5.210 -1.641 -2.242 -0.06 0.55 -0.83 0.03
1 6.66 666 2.820 -8.897 5.311 -52.857 102.692 -31.342 -501.124 2392.741 -3561.080 -2.048 -0.148 -1.619 -0.06 0.55 -0.83 0.02
1 6.67 667 0.034 -10.501 4.573 -37.964 134.430 -24.780 -606.205 2287.810 -3456.148 0.734 1.430 -0.945 -0.06 0.56 -0.83 0.02
1 6.68 668 -2.658 -11.708 4.156 -12.024 135.468 -21.332 -606.205 2287.810 -3456.148 3.399 2.620 -0.565 -0.05 0.56 -0.83 0.01
1 6.69 669 -5.631 -12.072 3.869 26.215 73.334 -30.243 -456.153 2542.793 -3381.047 6.301 2.985 -0.262 0.04 -0.56 0.83 0.01
1 6.70 670 -6.249 -11.464 3.711 29.144 8.728 -36.041 -456.153 2542.793 -3381.047 6.933 2.397 -0.056 0.04 -0.56 0.83 0.01
1 6.71 671 -5.751 -10.128 3.376 11.078 -49.194 -31.525 -306.250 2362.761 -3411.028 6.489 1.080 0.315 0.04 -0.56 0.83 0.01
1 6.72 672 -4.209 -9.094 2.820 -12.817 -85.846 -16.632 -306.250 2362.761 -3411.028 5.021 0.052 0.872 0.04 -0.56 0.83 0.01
1 6.73 673 -2.366 -8.414 3.098 -30.640 -97.962 3.632 -306.250 2362.761 -3531.100 3.226 -0.638 0.557 0.05 -0.56 0.83 0.01
1 6.74 674 -0.230 -7.901 3.687 -38.971 -83.649 25.452 -441.163 2332.780 -3501.119 1.106 -1.173 -0.091 0.05 -0.56 0.83 0
1 6.75 675 0.570 -8.093 3.998 -32.288 -61.798 34.912 -441.163 2332.780 -3501.119 0.315 -1.006 -0.467 -0.06 0.56 -0.82 0
1 6.76 676 0.881 -8.461 4.104 -12.085 -23.865 46.478 -381.202 2437.712 -3456.148 -0.044 -0.674 -0.656 -0.06 0.57 -0.82 0.01
1 6.77 677 0.809 -8.600 4.022 -6.165 -14.435 49.042 -381.202 2437.712 -3456.148 -0.027 -0.543 -0.583 -0.06 0.57 -0.82 0.01
1 6.78 678 0.086 -9.070 4.142 -4.364 0.122 49.805 -455.853 2662.416 -3412.677 0.628 -0.078 -0.700 -0.06 0.57 -0.82 0.02
1 6.79 679 -0.369 -9.477 4.214 -13.336 -2.594 45.502 -455.853 2662.416 -3412.677 1.011 0.323 -0.773 -0.05 0.57 -0.82 0.02
1 6.80 680 -0.752 -9.649 4.080 -25.177 -13.275 37.018 -455.853 2512.363 -3457.647 1.329 0.484 -0.657 -0.05 0.57 -0.82 0.02
1 6.81 681 -0.656 -10.008 3.955 -29.480 -38.147 18.494 -530.954 2542.344 -3382.696 1.186 0.828 -0.568 -0.05 0.57 -0.82 0.03
1 6.82 682 -0.388 -9.673 3.975 -20.599 -50.903 7.721 -530.954 2542.344 -3382.696 0.900 0.476 -0.629 -0.05 0.57 -0.82 0.03
1 6.83 683 0.014 -9.223 3.855 -9.094 -55.329 1.862 -455.853 2512.363 -3232.644 0.500 0.014 -0.542 -0.06 0.57 -0.82 0.03
1 6.84 684 0.646 -8.303 3.745 -0.946 -43.091 -0.336 -545.944 2572.474 -3367.706 -0.090 -0.910 -0.452 -0.06 0.57 -0.82 0.04
1 6.85 685 0.852 -8.102 3.639 -0.366 -24.353 0.793 -620.896 2422.422 -3322.735 -0.275 -1.109 -0.344 -0.06 0.57 -0.82 0.04
1 6.86 686 0.776 -8.054 3.338 -0.854 -5.920 1.770 -620.896 2422.422 -3322.735 -0.187 -1.155 -0.038 -0.07 0.57 -0.82 0.04
1 6.87 687 0.273 -8.059 3.079 2.258 5.432 2.258 -665.866 2677.406 -3367.706 0.315 -1.149 0.222 -0.07 0.57 -0.82 0.04
1 6.88 688 -0.244 -8.720 2.935 11.353 7.202 3.540 -695.847 2602.455 -3367.706 0.826 -0.486 0.373 -0.06 0.57 -0.82 0.04
1 6.89 689 -0.350 -8.773 2.988 16.022 -0.366 3.784 -695.847 2602.455 -3367.706 0.920 -0.429 0.335 -0.06 0.57 -0.82 0.04
1 6.90 690 -0.302 -8.983 3.151 16.144 -9.796 1.617 -530.954 2512.363 -3307.745 0.860 -0.211 0.194 -0.06 0.57 -0.82 0.04
1 6.91 691 0.043 -9.127 3.649 10.315 -18.616 0.000 -530.954 2587.464 -3412.677 0.514 -0.052 -0.261 -0.06 0.57 -0.82 0.04
1 6.92 692 0.235 -9.252 3.558 5.585 -18.066 3.204 -560.935 2632.435 -3457.647 0.327 0.078 -0.156 -0.07 0.57 -0.82 0.04
1 6.93 693 0.522 -9.007 3.462 1.923 -14.465 7.233 -560.935 2632.435 -3457.647 0.041 -0.163 -0.053 -0.07 0.57 -0.82 0.04
1 6.94 694 0.450 -8.797 3.213 -0.031 -9.186 9.216 -680.856 2512.363 -3412.677 0.110 -0.373 0.199 -0.07 0.57 -0.82 0.05
1 6.95 695 0.417 -8.849 3.098 -2.991 -4.150 10.040 -680.856 2542.344 -3412.677 0.134 -0.321 0.314 -0.07 0.57 -0.82 0.05
1 6.96 696 0.014 -8.691 2.797 -7.294 -1.587 9.369 -680.856 2542.344 -3412.677 0.524 -0.482 0.610 -0.07 0.57 -0.82 0.05
1 6.97 697 -0.125 -8.691 2.820 -8.179 -2.014 7.751 -500.974 2467.393 -3382.696 0.649 -0.486 0.577 -0.07 0.57 -0.82 0.05
1 6.98 698 -0.268 -9.132 3.002 -7.050 -4.211 6.409 -560.935 2542.344 -3382.696 0.780 -0.051 0.382 -0.07 0.57 -0.82 0.05
1 6.99 699 -0.527 -9.362 2.988 -3.662 -8.026 3.998 -680.856 2512.363 -3382.696 1.018 0.170 0.375 -0.07 0.57 -0.82 0.05
1 7.00 700 -0.690 -9.472 3.093 0.793 -12.177 1.801 -680.856 2512.363 -3382.696 1.174 0.278 0.265 -0.07 0.57 -0.82 0.05
1 7.01 701 -0.575 -9.615 3.132 6.744 -17.731 -0.366 -515.964 2527.354 -3442.657 1.056 0.422 0.227 -0.07 0.57 -0.82 0.05
1 7.02 702 -0.369 -9.807 3.237 13.001 -21.240 -3.876 -515.964 2602.455 -3397.687 0.853 0.617 0.131 -0.07 0.57 -0.82 0.05
1 7.03 703 -0.014 -9.376 3.275 19.348 -23.804 -9.033 -515.964 2602.455 -3397.687 0.511 0.193 0.111 -0.07 0.57 -0.82 0.05
1 7.04 704 0.101 -9.184 3.098 19.348 -23.102 -10.559 -560.935 2542.344 -3352.716 0.415 0.011 0.311 -0.07 0.57 -0.82 0.05
1 7.05 705 0.129 -8.835 3.074 13.825 -22.278 -9.705 -515.964 2602.455 -3367.706 0.410 -0.327 0.361 -0.07 0.57 -0.82 0.05
1 7.06 706 0.393 -8.634 2.749 0.610 -20.294 -4.486 -590.915 2602.455 -3547.739 0.190 -0.515 0.714 -0.07 0.56 -0.82 0.06
1 7.07 707 0.508 -8.691 2.734 -5.920 -18.127 -1.343 -590.915 2602.455 -3547.739 0.090 -0.459 0.724 -0.08 0.56 -0.82 0.06
1 7.08 708 0.675 -8.797 2.725 -5.585 -15.564 0.183 -605.905 2662.416 -3487.628 -0.066 -0.358 0.721 -0.08 0.56 -0.82 0.06
1 7.09 709 0.781 -9.108 2.672 0.275 -13.733 2.197 -665.866 2527.354 -3367.706 -0.163 -0.049 0.764 -0.08 0.56 -0.82 0.06
1 7.10 710 0.939 -9.400 2.902 10.223 -10.712 2.411 -665.866 2527.354 -3367.706 -0.315 0.243 0.533 -0.08 0.56 -0.82 0.06
1 7.11 711 1.178 -9.893 3.189 23.316 -4.608 -0.153 -695.847 2527.354 -3322.735 -0.550 0.741 0.259 -0.08 0.56 -0.82 0.06
1 7.12 712 1.207 -9.941 3.204 29.938 2.380 -3.387 -725.827 2527.354 -3442.657 -0.572 0.800 0.271 -0.08 0.56 -0.82 0.06
1 7.13 713 0.670 -10.147 3.328 33.112 13.580 -8.759 -695.847 2677.406 -3397.687 -0.020 1.039 0.229 -0.08 0.56 -0.82 0.06
1 7.14 714 0.249 -10.046 3.352 30.701 18.707 -12.939 -695.847 2677.406 -3397.687 0.408 0.956 0.250 -0.08 0.56 -0.82 0.06
1 7.15 715 -0.522 -10.257 3.026 26.398 21.301 -14.801 -785.938 2512.363 -3382.696 1.185 1.183 0.616 -0.08 0.56 -0.83 0.05
1 7.16 716 -1.121 -10.233 2.902 25.086 17.365 -14.038 -620.896 2497.373 -3622.690 1.785 1.173 0.774 -0.08 0.55 -0.83 0.05
1 7.17 717 -1.427 -9.970 2.552 22.614 9.522 -9.277 -620.896 2497.373 -3622.690 2.089 0.922 1.153 -0.08 0.55 -0.83 0.05
1 7.18 718 -1.566 -9.295 2.198 15.472 -10.773 -0.793 -560.935 2392.441 -3412.677 2.220 0.255 1.530 -0.07 0.55 -0.83 0.05
1 7.19 719 -1.317 -9.003 2.246 13.123 -22.461 2.808 -635.886 2467.393 -3532.749 1.962 -0.032 1.496 -0.07 0.55 -0.83 0.05
1 7.20 720 -0.699 -8.672 2.217 10.773 -32.379 7.507 -665.866 2422.422 -3472.638 1.334 -0.358 1.537 -0.08 0.55 -0.83 0.06
1 7.21 721 -0.378 -8.701 2.241 11.505 -32.379 9.186 -665.866 2422.422 -3472.638 1.010 -0.327 1.518 -0.08 0.55 -0.83 0.06
1 7.22 722 0.345 -9.065 3.314 19.440 -24.475 13.855 -635.886 2437.412 -3532.749 0.283 0.041 0.456 -0.08 0.55 -0.83 0.06
1 7.23 723 0.781 -9.912 4.123 30.396 -17.578 21.118 -710.837 2317.340 -3532.749 -0.163 0.898 -0.328 -0.08 0.55 -0.83 0.06
1 7.24 724 1.073 -10.343 4.693 43.274 -17.639 31.098 -710.837 2317.340 -3532.749 -0.476 1.347 -0.853 -0.08 0.55 -0.83 0.06
1 7.25 725 2.361 -10.573 6.340 28.900 -33.081 46.936 -755.958 2317.340 -3532.749 -1.799 1.600 -2.439 -0.08 0.54 -0.83 0.07
1 7.26 726 3.587 -10.602 6.829 -8.087 -33.936 50.293 -725.827 2377.451 -3622.690 -3.068 1.647 -2.880 -0.08 0.54 -0.83 0.07
1 7.27 727 4.243 -10.985 6.699 -37.323 -11.688 44.251 -725.827 2377.451 -3622.690 -3.771 2.028 -2.750 -0.08 0.54 -0.83 0.08
1 7.28 728 2.308 -11.186 5.387 -39.185 42.084 27.618 -635.886 2392.441 -3592.709 -1.946 2.180 -1.539 -0.08 0.55 -0.83 0.08
1 7.29 729 0.464 -10.482 4.315 -16.022 64.667 18.555 -725.827 2332.331 -3547.739 -0.165 1.456 -0.510 -0.07 0.55 -0.83 0.08
1 7.30 730 -0.675 -9.601 3.635 9.399 77.149 13.367 -770.948 2422.422 -3547.739 0.912 0.569 0.162 -0.07 0.55 -0.83 0.08
1 7.31 731 -1.767 -9.333 2.911 20.813 82.672 8.392 -770.948 2422.422 -3547.739 1.938 0.309 0.906 -0.06 0.55 -0.83 0.08
1 7.32 732 -3.630 -9.381 2.715 9.979 74.707 1.068 -605.905 2392.441 -3457.647 3.730 0.366 1.128 -0.06 0.55 -0.83 0.07
1 7.33 733 -4.147 -9.572 3.165 -2.808 51.422 -4.639 -605.905 2362.461 -3532.749 4.177 0.563 0.690 -0.05 0.55 -0.83 0.07
1 7.34 734 -4.377 -9.946 3.491 -3.265 15.869 -10.620 -605.905 2362.461 -3532.749 4.347 0.934 0.359 -0.04 0.55 -0.83 0.07
1 7.35 735 -3.362 -9.783 4.042 -22.858 -13.794 -16.907 -545.944 2377.451 -3502.618 3.352 0.761 -0.214 -0.04 0.55 -0.83 0.07
1 7.36 736 -2.854 -9.673 4.319 -28.137 -31.738 -15.137 -515.964 2422.422 -3547.739 2.879 0.637 -0.525 -0.05 0.55 -0.83 0.07
1 7.37 737 -2.054 -9.639 4.267 -24.994 -42.969 -9.094 -500.974 2362.461 -3712.631 2.120 0.588 -0.510 -0.05 0.55 -0.83 0.07
1 7.38 738 -1.101 -9.184 4.238 -11.810 -45.990 -0.671 -500.974 2362.461 -3712.631 1.185 0.122 -0.510 -0.05 0.55 -0.83 0.07
1 7.39 739 0.014 -8.562 4.315 8.423 -40.985 7.477 -425.873 2392.441 -3532.749 0.084 -0.503 -0.593 -0.05 0.55 -0.83 0.07
1 7.40 740 0.742 -7.623 4.228 30.914 -31.525 19.226 -515.964 2452.402 -3622.690 -0.638 -1.432 -0.482 -0.06 0.55 -0.83 0.07
1 7.41 741 1.020 -7.298 4.080 31.647 -28.168 24.750 -515.964 2452.402 -3622.690 -0.919 -1.738 -0.287 -0.06 0.55 -0.83 0.08
1 7.42 742 2.006 -7.068 3.994 18.951 -31.647 34.912 -515.964 2452.402 -3727.622 -1.944 -1.933 -0.117 -0.06 0.55 -0.83 0.08
1 7.43 743 2.466 -7.140 4.176 12.146 -33.661 38.147 -545.944 2422.422 -3727.622 -2.434 -1.851 -0.277 -0.06 0.55 -0.83 0.09
1 7.44 744 4.171 -7.216 4.712 -6.989 -29.968 40.924 -590.915 2452.402 -3727.622 -4.175 -1.773 -0.809 -0.06 0.55 -0.83 0.09
1 7.45 745 5.004 -7.485 5.124 -12.543 -12.909 35.797 -590.915 2452.402 -3727.622 -5.018 -1.505 -1.222 -0.06 0.55 -0.83 0.09
1 7.46 746 5.272 -7.633 5.100 -10.681 13.855 23.529 -455.853 2437.412 -3592.709 -5.291 -1.359 -1.202 -0.06 0.55 -0.83 0.09
1 7.47 747 4.281 -8.227 4.568 7.202 55.481 0.671 -530.954 2392.441 -3592.709 -4.299 -0.764 -0.670 -0.06 0.55 -0.83 0.09
1 7.48 748 3.022 -8.581 4.224 25.177 80.567 -9.827 -530.954 2392.441 -3592.709 -3.034 -0.404 -0.311 -0.06 0.54 -0.83 0.09
1 7.49 749 1.350 -8.624 3.941 33.661 94.086 -16.510 -440.863 2377.451 -3622.690 -1.367 -0.346 0.006 -0.06 0.54 -0.83 0.09
1 7.50 750 -0.848 -8.830 3.754 13.519 83.954 -31.708 -500.974 2587.464 -3592.709 0.799 -0.102 0.278 -0.05 0.54 -0.84 0.08
1 7.51 751 -1.844 -9.462 3.951 -6.775 64.881 -37.750 -470.843 2377.451 -3697.641 1.789 0.535 0.092 -0.04 0.54 -0.84 0.07
1 7.52 752 -2.538 -10.391 3.970 -14.587 41.443 -41.046 -470.843 2377.451 -3697.641 2.489 1.458 0.059 -0.04 0.54 -0.84 0.07
1 7.53 753 -2.840 -11.071 4.118 -8.728 19.440 -40.405 -395.892 2452.402 -3652.670 2.825 2.130 -0.107 -0.04 0.54 -0.84 0.06
1 7.54 754 -2.658 -10.750 4.281 1.648 -1.038 -35.919 -290.960 2452.402 -3622.690 2.689 1.806 -0.277 -0.04 0.54 -0.84 0.06
1 7.55 755 -1.255 -9.596 4.257 2.930 -24.933 -26.032 -290.960 2452.402 -3622.690 1.337 0.654 -0.247 -0.04 0.54 -0.84 0.06
1 7.56 756 -0.201 -8.610 4.200 -8.789 -31.159 -17.639 -365.912 2377.451 -3697.641 0.336 -0.328 -0.184 -0.04 0.54 -0.84 0.05
1 7.57 757 0.852 -8.299 3.735 -24.414 -22.980 -7.629 -395.892 2377.451 -3727.622 -0.645 -0.651 0.252 -0.05 0.54 -0.84 0.06
1 7.58 758 1.279 -8.208 3.323 -20.264 -11.292 -3.387 -395.892 2497.373 -3697.641 -1.046 -0.756 0.632 -0.05 0.54 -0.84 0.06
1 7.59 759 1.188 -8.203 3.237 -5.707 -2.289 -2.411 -395.892 2497.373 -3697.641 -0.937 -0.770 0.695 -0.05 0.54 -0.84 0.05
1 7.60 760 0.919 -8.212 3.256 11.505 2.106 -5.585 -350.921 2437.412 -3637.680 -0.655 -0.761 0.674 -0.05 0.54 -0.84 0.05
1 7.61 761 0.814 -8.112 3.481 23.254 2.502 -8.789 -440.863 2377.451 -3577.719 -0.537 -0.853 0.469 -0.05 0.54 -0.84 0.05
1 7.62 762 0.972 -8.552 4.046 23.193 1.099 -11.047 -440.863 2377.451 -3577.719 -0.678 -0.397 -0.063 -0.05 0.54 -0.84 0.05
1 7.63 763 1.135 -8.782 4.271 15.656 2.167 -10.101 -500.974 2467.393 -3637.680 -0.821 -0.150 -0.253 -0.05 0.54 -0.84 0.05
1 7.64 764 1.149 -9.410 4.338 8.789 10.284 -5.371 -425.873 2512.363 -3637.680 -0.802 0.498 -0.276 -0.05 0.54 -0.84 0.05
1 7.65 765 1.063 -9.410 4.104 11.261 16.327 0.549 -425.873 2392.441 -3637.680 -0.711 0.505 -0.026 -0.05 0.54 -0.84 0.05
1 7.66 766 0.785 -9.237 3.625 13.519 19.074 7.568 -425.873 2392.441 -3637.680 -0.442 0.341 0.470 -0.05 0.54 -0.84 0.05
1 7.67 767 0.570 -8.576 3.357 10.223 19.928 15.381 -455.853 2437.412 -3562.729 -0.247 -0.313 0.755 -0.05 0.54 -0.84 0.05
1 7.68 768 0.335 -8.179 3.175 4.791 19.775 21.912 -395.892 2257.379 -3577.719 -0.045 -0.707 0.948 -0.05 0.54 -0.84 0.05
1 7.69 769 0.182 -7.968 3.108 -4.120 13.428 22.492 -395.442 2256.180 -3580.268 0.066 -0.917 1.020 -0.05 0.54 -0.84 0.05
1 7.70 770 0.158 -8.150 2.921 -4.974 7.111 19.836 -500.524 2391.242 -3745.310 0.050 -0.737 1.204 -0.04 0.54 -0.84 0.05
1 7.71 771 0.441 -8.390 3.151 -0.671 1.495 14.954 -500.524 2391.242 -3745.310 -0.266 -0.501 0.969 -0.04 0.54 -0.84 0.05
1 7.72 772 0.709 -8.653 3.769 6.165 -5.707 6.622 -440.413 2451.203 -3625.388 -0.568 -0.238 0.351 -0.04 0.54 -0.84 0.05
1 7.73 773 0.900 -8.615 3.903 3.540 -11.139 2.411 -440.413 2451.203 -3625.388 -0.758 -0.273 0.224 -0.04 0.54 -0.84 0.05
1 7.74 774 1.020 -8.825 3.706 -4.730 -8.484 1.312 -365.462 2451.203 -3730.320 -0.868 -0.061 0.423 -0.04 0.54 -0.84 0.05
1 7.75 775 1.183 -8.782 3.663 -16.724 -1.953 1.526 -260.530 2451.203 -3700.339 -1.020 -0.109 0.455 -0.04 0.54 -0.84 0.05
1 7.76 776 0.833 -8.663 3.472 -25.147 4.700 0.458 -260.530 2451.203 -3700.339 -0.665 -0.241 0.619 -0.04 0.54 -0.84 0.05
1 7.77 777 0.646 -8.466 3.237 -22.125 6.134 -2.655 -440.413 2331.131 -3700.339 -0.475 -0.453 0.819 -0.04 0.54 -0.84 0.05
1 7.78 778 0.522 -8.500 3.002 -11.536 8.698 -4.517 -440.413 2331.131 -3700.339 -0.347 -0.435 1.020 -0.04 0.54 -0.84 0.05
1 7.79 779 0.503 -8.260 2.610 10.071 14.313 -4.181 -530.504 2466.193 -3790.281 -0.320 -0.685 1.388 -0.04 0.54 -0.84 0.05
1 7.80 780 0.757 -7.983 2.490 16.357 19.257 0.000 -530.504 2466.193 -3790.281 -0.576 -0.956 1.524 -0.04 0.54 -0.84 0.05
1 7.81 781 0.699 -7.791 2.504 11.078 24.963 5.280 -365.462 2376.252 -3700.339 -0.533 -1.137 1.533 -0.04 0.54 -0.84 0.05
1 7.82 782 0.963 -7.786 2.840 0.336 31.098 12.146 -380.452 2436.213 -3715.330 -0.822 -1.136 1.211 -0.04 0.54 -0.84 0.05
1 7.83 783 1.154 -8.006 4.559 -6.805 41.229 17.334 -380.452 2436.213 -3715.330 -1.052 -0.917 -0.509 -0.04 0.54 -0.84 0.05
1 7.84 784 1.087 -9.280 5.737 10.925 65.094 9.735 -230.400 2511.164 -3790.281 -1.032 0.354 -1.691 -0.03 0.54 -0.84 0.05
1 7.85 785 -0.895 -10.022 6.958 21.149 78.949 -3.143 -230.400 2511.164 -3790.281 0.905 1.106 -2.892 -0.03 0.54 -0.84 0.04
1 7.86 786 -3.864 -11.454 6.067 3.418 40.619 -19.898 -155.449 2316.141 -3790.281 3.801 2.560 -1.953 -0.02 0.54 -0.84 0.04
1 7.87 787 -3.199 -11.852 6.268 -5.402 18.158 -21.851 -155.449 2316.141 -3790.281 3.146 2.957 -2.154 -0.02 0.54 -0.84 0.03
1 7.88 788 -0.613 -11.138 7.585 -51.117 -34.180 -32.318 -125.468 2361.112 -3850.392 0.603 2.227 -3.507 -0.02 0.54 -0.84 0.03
1 7.89 789 0.388 -10.679 6.833 -57.251 -45.258 -42.694 -155.449 2361.112 -3745.310 -0.326 1.734 -2.830 -0.02 0.54 -0.84 0.03
1 7.90 790 0.302 -10.061 6.081 -35.034 -41.016 -52.002 -155.449 2361.112 -3745.310 -0.149 1.085 -2.150 -0.03 0.55 -0.84 0.03
1 7.91 791 -0.809 -9.256 4.080 -0.397 -31.677 -59.754 -275.521 2466.193 -3670.359 1.060 0.266 -0.188 -0.03 0.55 -0.84 0.03
1 7.92 792 -0.589 -8.514 3.668 9.766 -39.703 -57.923 -275.521 2466.193 -3670.359 0.937 -0.476 0.218 -0.04 0.55 -0.84 0.03
1 7.93 793 0.302 -7.805 4.152 -5.280 -50.171 -50.202 -200.419 2466.193 -3715.330 0.140 -1.176 -0.256 -0.04 0.55 -0.84 0.02
1 7.94 794 1.609 -7.667 4.382 -47.974 -51.941 -32.776 -395.442 2526.154 -3835.251 -0.982 -1.319 -0.521 -0.05 0.55 -0.83 0.02
1 7.95 795 1.992 -8.399 4.702 -59.815 -36.621 -23.895 -380.452 2541.145 -3715.330 -1.287 -0.610 -0.911 -0.06 0.55 -0.83 0.02
1 7.96 796 1.872 -9.371 4.894 -48.950 -11.505 -24.139 -440.413 2601.255 -3655.369 -1.107 0.336 -1.177 -0.06 0.55 -0.83 0.02
1 7.97 797 1.274 -10.133 4.870 -23.377 16.571 -32.044 -440.413 2601.255 -3655.369 -0.461 1.080 -1.206 -0.06 0.56 -0.83 0.02
1 7.98 798 0.670 -10.726 4.975 8.545 40.009 -37.720 -425.423 2541.145 -3670.359 0.177 1.670 -1.328 -0.06 0.56 -0.83 0.01
1 7.99 799 -0.685 -10.741 4.592 36.255 57.923 -31.647 -425.423 2541.145 -3670.359 1.560 1.699 -0.916 -0.06 0.56 -0.83 0.01
1 8.00 800 -1.815 -10.621 4.343 27.741 53.467 -24.170 -470.543 2721.327 -3699.740 2.705 1.604 -0.610 -0.06 0.55 -0.83 0.01
1 8.01 801 -3.189 -10.487 3.697 -6.439 22.553 -7.507 -500.524 2466.343 -3594.808 4.083 1.502 0.112 0.05 -0.55 0.83 0
1 8.02 802 -3.596 -10.157 3.429 -28.229 -10.132 7.324 -545.495 2496.324 -3729.720 4.488 1.165 0.366 0.05 -0.55 0.83 0
1 8.03 803 -3.079 -9.869 3.534 -41.290 -41.138 17.914 -500.524 2361.262 -3639.779 3.968 0.859 0.216 0.05 -0.55 0.83 0
1 8.04 804 -1.844 -9.592 3.836 -45.868 -61.676 24.933 -500.524 2361.262 -3639.779 2.731 0.554 -0.151 -0.06 0.56 -0.83 0
1 8.05 805 -0.637 -9.170 4.109 -37.964 -67.597 24.048 -455.553 2736.317 -3594.808 1.503 0.103 -0.493 -0.06 0.56 -0.83 0.01
1 8.06 806 0.742 -9.026 4.080 -11.475 -52.094 21.423 -455.553 2736.317 -3594.808 0.115 -0.062 -0.516 -0.06 0.56 -0.83 0.01
1 8.07 807 0.819 -8.442 3.831 4.272 -32.990 22.736 -395.592 2646.226 -3654.769 0.035 -0.656 -0.292 -0.06 0.56 -0.82 0.02
1 8.08 808 0.345 -7.729 3.927 -4.761 -9.857 31.250 -545.495 2796.278 -3624.789 0.473 -1.369 -0.376 -0.06 0.56 -0.83 0.02
1 8.09 809 -0.038 -7.518 3.864 -15.656 -5.341 35.248 -620.596 2646.226 -3699.740 0.815 -1.588 -0.328 -0.06 0.56 -0.82 0.02
1 8.10 810 -0.718 -8.370 3.735 -48.218 -2.502 38.757 -530.504 2586.265 -3534.697 1.443 -0.758 -0.245 -0.06 0.56 -0.82 0.03
1 8.11 811 -0.986 -9.151 3.773 -51.666 -8.820 33.447 -530.504 2586.265 -3534.697 1.655 -0.008 -0.351 -0.06 0.57 -0.82 0.03
1 8.12 812 -1.130 -9.759 3.941 -36.682 -20.325 22.217 -605.605 2736.317 -3594.808 1.750 0.573 -0.584 -0.06 0.57 -0.82 0.03
1 8.13 813 -0.642 -9.845 4.018 0.092 -35.919 5.981 -605.605 2736.317 -3594.808 1.234 0.642 -0.702 -0.06 0.57 -0.82 0.03
1 8.14 814 -0.086 -9.285 4.137 18.311 -36.499 1.923 -635.586 2706.337 -3564.678 0.678 0.079 -0.830 -0.06 0.57 -0.82 0.03
1 8.15 815 0.369 -8.816 4.123 21.759 -28.015 2.075 -680.557 2706.337 -3564.678 0.231 -0.382 -0.794 -0.06 0.57 -0.82 0.04
1 8.16 816 0.551 -8.399 3.812 7.294 -11.841 4.059 -455.553 2736.317 -3594.808 0.065 -0.774 -0.419 -0.07 0.57 -0.82 0.04
1 8.17 817 0.464 -8.284 3.491 -1.617 -6.165 4.822 -710.537 2661.216 -3594.808 0.151 -0.885 -0.086 -0.07 0.57 -0.82 0.04
1 8.18 818 0.254 -8.256 3.275 -3.540 -5.707 4.517 -710.537 2661.216 -3594.808 0.357 -0.913 0.130 -0.07 0.57 -0.82 0.04
1 8.19 819 0.139 -8.399 3.309 0.916 -5.890 1.740 -560.635 2781.288 -3534.697 0.469 -0.771 0.095 -0.07 0.57 -0.82 0.04
1 8.20 820 0.053 -8.533 3.567 10.925 -4.547 -3.143 -560.635 2781.288 -3534.697 0.554 -0.634 -0.157 -0.07 0.57 -0.82 0.04
1 8.21 821 -0.053 -8.619 3.472 12.604 -3.082 -6.622 -545.495 2751.308 -3699.740 0.663 -0.542 -0.046 -0.07 0.57 -0.82 0.04
1 8.22 822 -0.105 -8.935 3.582 12.512 -1.251 -8.423 -560.635 2706.337 -3489.727 0.722 -0.217 -0.134 -0.07 0.57 -0.82 0.04
1 8.23 823 -0.393 -9.127 3.544 14.404 -2.197 -6.714 -665.566 2751.308 -3579.668 1.023 -0.009 -0.054 -0.07 0.56 -0.82 0.04
1 8.24 824 -0.575 -9.223 3.486 17.212 -7.721 -6.317 -620.596 2676.207 -3759.701 1.209 0.096 0.026 -0.07 0.56 -0.82 0.04
1 8.25 825 -0.670 -9.180 3.275 19.226 -14.801 -4.181 -620.596 2676.207 -3759.701 1.310 0.063 0.263 -0.07 0.56 -0.82 0.04
1 8.26 826 -0.417 -9.070 3.208 17.426 -22.095 -1.282 -545.495 2676.207 -3504.717 1.061 -0.037 0.355 -0.07 0.56 -0.82 0.04
1 8.27 827 -0.158 -8.825 3.362 11.475 -26.733 0.366 -545.495 2676.207 -3504.717 0.809 -0.273 0.222 -0.07 0.56 -0.83 0.04
1 8.28 828 0.287 -8.811 3.477 1.709 -23.560 0.793 -560.635 2661.216 -3594.808 0.372 -0.282 0.119 -0.07 0.56 -0.83 0.04
1 8.29 829 0.350 -8.859 3.510 0.671 -17.365 2.106 -875.580 2796.278 -3654.769 0.319 -0.232 0.088 -0.07 0.56 -0.83 0.05
1 8.30 830 0.144 -9.151 3.639 1.556 -12.634 3.693 -680.557 2706.487 -3638.580 0.533 0.061 -0.040 -0.07 0.56 -0.83 0.05
1 8.31 831 -0.172 -9.036 3.711 1.373 -13.489 2.899 -710.537 2511.464 -3533.648 0.848 -0.053 -0.110 -0.07 0.56 -0.83 0.05
1 8.32 832 -0.196 -8.931 3.749 2.197 -20.538 -1.343 -710.537 2511.464 -3533.648 0.874 -0.157 -0.145 -0.08 0.56 -0.83 0.05
1 8.33 833 -0.201 -9.122 3.591 4.944 -24.994 -5.646 -755.508 2811.418 -3638.580 0.888 0.037 0.017 -0.08 0.56 -0.83 0.05
1 8.34 834 0.005 -9.194 3.419 8.118 -27.771 -8.728 -755.508 2811.418 -3638.580 0.699 0.112 0.196 -0.08 0.56 -0.83 0.05
1 8.35 835 0.163 -9.094 3.285 12.817 -29.297 -13.092 -635.586 2781.438 -3563.628 0.565 0.017 0.339 -0.08 0.56 -0.83 0.05
1 8.36 836 0.512 -8.854 3.175 15.869 -30.762 -14.648 -695.547 2676.506 -3698.690 0.246 -0.214 0.462 -0.08 0.55 -0.83 0.05
1 8.37 837 0.632 -8.859 2.916 16.876 -27.985 -15.076 -695.547 2676.506 -3698.690 0.160 -0.200 0.737 -0.08 0.55 -0.83 0.05
1 8.38 838 1.116 -8.677 2.715 12.543 -17.487 -10.864 -800.479 2526.454 -3698.690 -0.257 -0.363 0.970 -0.09 0.55 -0.83 0.05
1 8.39 839 1.039 -8.581 2.581 8.575 -7.477 -7.416 -800.479 2526.454 -3698.690 -0.155 -0.452 1.115 -0.09 0.55 -0.83 0.05
1 8.40 840 1.101 -8.792 2.610 7.874 1.434 -4.791 -800.479 2601.405 -3698.690 -0.202 -0.237 1.092 -0.09 0.55 -0.83 0.05
1 8.41 841 0.690 -8.840 2.485 8.514 9.186 -3.052 -800.479 2601.405 -3698.690 0.216 -0.186 1.223 -0.09 0.55 -0.83 0.05
1 8.42 842 0.350 -9.165 2.342 11.902 14.893 -1.892 -920.550 2526.454 -3758.651 0.554 0.143 1.376 -0.09 0.55 -0.83 0.05
1 8.43 843 -0.086 -9.649 2.203 19.745 17.181 -4.547 -755.508 2736.467 -3713.681 0.982 0.631 1.528 -0.09 0.55 -0.83 0.05
1 8.44 844 -0.254 -10.075 2.246 23.956 16.541 -6.134 -755.508 2736.467 -3713.681 1.139 1.064 1.503 -0.09 0.55 -0.83 0.05
1 8.45 845 -1.116 -10.511 2.452 44.617 4.791 -4.425 -920.550 2646.526 -3833.603 1.982 1.521 1.353 -0.09 0.55 -0.83 0.05
1 8.46 846 -1.068 -10.022 2.777 45.349 4.486 -2.594 -920.550 2646.526 -3833.603 1.937 1.061 1.092 -0.08 0.54 -0.83 0.05
1 8.47 847 -1.298 -9.678 3.654 31.647 3.052 3.967 -755.508 2511.464 -3743.661 2.152 0.736 0.265 -0.08 0.54 -0.84 0.05
1 8.48 848 -1.480 -9.615 4.147 20.966 -4.364 14.801 -755.508 2511.464 -3743.661 2.308 0.688 -0.191 -0.08 0.54 -0.84 0.05
1 8.49 849 -1.302 -9.879 4.032 11.932 -15.930 31.921 -845.449 2451.503 -3758.651 2.092 0.959 -0.051 -0.08 0.54 -0.84 0.05
1 8.50 850 0.244 -10.334 5.124 -22.644 -44.983 52.307 -725.527 2451.503 -3833.603 0.493 1.413 -1.134 -0.08 0.54 -0.84 0.06
1 8.51 851 2.136 -11.536 5.947 -46.997 -50.781 55.115 -725.527 2451.503 -3833.603 -1.441 2.601 -1.980 -0.08 0.54 -0.84 0.06
1 8.52 852 3.524 -12.934 7.168 -33.264 -15.320 38.269 -800.479 2526.454 -3728.671 -2.918 3.938 -3.330 -0.08 0.55 -0.83 0.07
1 8.53 853 3.194 -12.948 7.365 -18.799 -0.549 33.142 -800.479 2526.454 -3728.671 -2.632 3.934 -3.561 -0.08 0.55 -0.83 0.07
1 8.54 854 2.203 -11.517 6.929 16.419 26.093 27.588 -725.527 2526.454 -3653.570 -1.690 2.502 -3.119 -0.08 0.55 -0.83 0.07
1 8.55 855 2.284 -10.611 6.058 17.487 39.246 26.337 -725.527 2526.454 -3653.570 -1.826 1.606 -2.219 -0.08 0.55 -0.83 0.07
1 8.56 856 2.011 -10.257 5.555 5.310 64.820 18.890 -620.446 2496.474 -3878.573 -1.613 1.260 -1.691 -0.07 0.55 -0.83 0.07
1 8.57 857 -0.340 -10.090 4.822 -24.933 90.149 4.547 -725.527 2571.425 -3938.684 0.672 1.092 -0.953 -0.07 0.55 -0.83 0.07
1 8.58 858 -2.246 -10.181 3.860 -31.952 80.384 -5.341 -725.527 2571.425 -3938.684 2.517 1.171 -0.013 -0.06 0.55 -0.83 0.07
1 8.59 859 -3.649 -10.262 2.945 -18.951 53.528 -12.116 -695.547 2526.454 -3983.655 3.876 1.235 0.863 -0.06 0.55 -0.83 0.06
1 8.60 860 -4.137 -9.180 2.792 3.052 -5.188 -20.508 -620.446 2571.425 -3908.554 4.353 0.138 0.981 -0.05 0.55 -0.83 0.06
1 8.61 861 -3.649 -8.284 2.945 6.592 -36.194 -23.773 -530.504 2586.415 -3923.544 3.870 -0.758 0.828 -0.05 0.55 -0.83 0.06
1 8.62 862 -2.658 -7.686 3.247 4.913 -51.575 -18.280 -530.504 2586.415 -3923.544 2.905 -1.353 0.531 -0.06 0.55 -0.83 0.06
1 8.63 863 -1.767 -7.130 3.496 2.991 -58.045 -6.317 -635.586 2661.516 -3848.593 2.054 -1.906 0.288 -0.06 0.55 -0.83 0.06
1 8.64 864 -0.436 -6.781 3.500 -4.028 -66.101 18.097 -500.524 2511.464 -3848.593 0.761 -2.253 0.284 -0.06 0.55 -0.83 0.06
1 8.65 865 0.565 -6.876 3.706 -9.949 -68.421 30.457 -500.524 2511.464 -3848.593 -0.221 -2.159 0.073 -0.07 0.55 -0.83 0.07
1 8.66 866 1.858 -7.437 3.955 -10.651 -63.050 39.856 -530.504 2631.536 -3893.563 -1.512 -1.605 -0.191 -0.07 0.55 -0.83 0.07
1 8.67 867 4.056 -8.198 4.520 5.310 -40.589 52.612 -710.537 2586.415 -3848.593 -3.748 -0.854 -0.778 -0.07 0.55 -0.83 0.08
1 8.68 868 5.277 -8.447 4.947 22.736 -19.348 57.251 -710.537 2631.536 -3923.544 -4.997 -0.598 -1.184 -0.07 0.55 -0.83 0.09
1 8.69 869 6.144 -8.203 5.416 31.860 0.214 50.842 -710.537 2631.536 -3923.544 -5.934 -0.828 -1.616 -0.07 0.55 -0.83 0.09
1 8.70 870 6.733 -7.671 5.593 21.057 19.226 36.469 -695.547 2646.526 -3878.573 -6.591 -1.342 -1.750 -0.07 0.55 -0.83 0.09
1 8.71 871 6.503 -7.355 5.742 -1.129 41.779 18.219 -680.557 2631.536 -3893.563 -6.419 -1.649 -1.875 -0.07 0.55 -0.83 0.09
1 8.72 872 4.607 -8.107 5.660 -23.041 80.323 -7.263 -680.557 2631.536 -3893.563 -4.569 -0.901 -1.801 -0.06 0.55 -0.83 0.09
1 8.73 873 2.461 -9.041 5.186 -13.825 104.950 -18.707 -635.586 2511.464 -3923.544 -2.461 0.021 -1.355 -0.06 0.55 -0.83 0.09
1 8.74 874 -1.264 -9.773 3.591 27.405 108.704 -45.044 -515.514 2571.425 -3878.573 1.233 0.752 0.238 -0.05 0.55 -0.83 0.08
1 8.75 875 -2.050 -9.764 3.098 38.483 97.504 -53.589 -440.563 2601.705 -3802.873 2.021 0.762 0.775 -0.04 0.55 -0.83 0.07
1 8.76 876 -3.491 -9.165 3.438 35.370 46.753 -59.448 -440.563 2601.705 -3802.873 3.485 0.187 0.490 -0.04 0.55 -0.83 0.06
1 8.77 877 -3.084 -8.428 3.563 11.841 15.411 -49.011 -440.563 2526.604 -3832.853 3.108 -0.534 0.403 -0.04 0.54 -0.84 0.06
1 8.78 878 -2.471 -8.380 3.481 -6.287 -7.141 -37.048 -425.573 2586.715 -3817.863 2.529 -0.577 0.494 -0.04 0.54 -0.84 0.06
1 8.79 879 -0.891 -8.581 3.702 -15.106 -24.414 -20.996 -425.573 2586.715 -3817.863 0.983 -0.381 0.261 -0.04 0.54 -0.84 0.05
1 8.80 880 0.043 -8.605 3.960 -18.555 -26.703 -12.116 -365.612 2601.705 -4057.856 0.083 -0.366 -0.017 -0.04 0.54 -0.84 0.05
1 8.81 881 0.891 -8.725 4.329 -25.086 -22.888 -4.700 -350.622 2631.686 -3997.896 -0.734 -0.256 -0.409 -0.05 0.55 -0.83 0.05
1 8.82 882 1.336 -9.113 4.367 -29.419 -8.118 6.226 -545.645 2451.653 -3907.954 -1.139 0.105 -0.513 -0.05 0.55 -0.83 0.06
1 8.83 883 1.154 -9.381 4.267 -18.890 4.700 10.437 -545.645 2451.653 -3907.954 -0.955 0.359 -0.446 -0.05 0.55 -0.83 0.06
1 8.84 884 0.785 -9.371 4.109 3.601 11.475 9.827 -590.615 2601.705 -3937.935 -0.596 0.342 -0.303 -0.05 0.55 -0.83 0.06
1 8.85 885 0.527 -9.304 3.807 28.229 10.254 4.456 -680.557 2541.744 -3892.814 -0.350 0.282 0.016 -0.05 0.55 -0.83 0.06
1 8.86 886 0.254 -8.816 3.548 44.159 1.984 -2.716 -680.557 2541.744 -3892.814 -0.083 -0.186 0.321 -0.05 0.55 -0.83 0.06
1 8.87 887 0.560 -7.791 3.448 41.535 -10.284 -8.453 -440.563 2676.656 -3877.824 -0.382 -1.184 0.485 -0.05 0.55 -0.84 0.06
1 8.88 888 1.121 -7.643 3.697 24.719 -13.641 -8.484 -470.543 2646.676 -3832.853 -0.924 -1.305 0.296 -0.05 0.54 -0.84 0.06
1 8.89 889 1.796 -8.064 3.802 2.991 -5.768 -1.801 -665.566 2601.705 -3757.902 -1.563 -0.856 0.250 -0.05 0.54 -0.84 0.06
1 8.90 890 2.198 -8.275 3.644 -1.190 0.641 1.099 -665.566 2601.705 -3757.902 -1.949 -0.643 0.412 -0.05 0.54 -0.84 0.06
1 8.91 891 2.409 -8.509 3.544 -0.610 8.514 3.113 -455.553 2586.715 -4072.847 -2.149 -0.408 0.512 -0.05 0.54 -0.84 0.06
1 8.92 892 2.251 -8.485 3.443 1.984 19.226 7.294 -590.615 2421.672 -3907.954 -1.986 -0.432 0.613 -0.05 0.54 -0.84 0.05
1 8.93 893 2.026 -8.619 3.438 0.214 28.473 11.414 -590.615 2421.672 -3907.954 -1.770 -0.297 0.620 -0.05 0.54 -0.84 0.05
1 8.94 894 1.331 -8.940 3.342 -7.050 33.508 15.381 -590.615 2496.624 -4012.886 -1.096 0.022 0.713 -0.05 0.54 -0.84 0.05
1 8.95 895 0.963 -9.074 3.362 -5.341 31.281 12.573 -500.674 2511.614 -3967.915 -0.756 0.151 0.684 -0.05 0.54 -0.84 0.05
1 8.96 896 0.603 -9.141 3.879 2.075 24.170 3.998 -515.664 2526.604 -3982.905 -0.449 0.210 0.153 -0.04 0.54 -0.84 0.05
1 8.97 897 0.441 -9.022 3.922 3.723 20.660 0.885 -515.664 2526.604 -3982.905 -0.299 0.092 0.114 -0.04 0.54 -0.84 0.05
1 8.98 898 0.359 -8.710 3.716 0.153 11.261 -5.646 -440.563 2451.653 -3937.935 -0.221 -0.217 0.324 -0.04 0.54 -0.84 0.05
1 8.99 899 0.326 -8.366 3.505 -4.425 4.364 -8.575 -560.635 2661.666 -4072.847 -0.183 -0.562 0.534 -0.04 0.54 -0.84 0.05
1 9.00 900 0.374 -8.102 3.462 -9.735 0.977 -9.522 -560.635 2661.666 -4072.847 -0.218 -0.829 0.569 -0.04 0.54 -0.84 0.05
1 9.01 901 0.579 -8.107 3.041 -16.510 4.150 -6.134 -455.553 2586.715 -3967.915 -0.410 -0.831 0.975 -0.04 0.54 -0.84 0.05
1 9.02 902 0.560 -8.045 2.911 -15.320 8.362 -3.510 -470.543 2601.705 -4012.886 -0.382 -0.902 1.083 -0.04 0.54 -0.84 0.05
1 9.03 903 0.383 -8.050 2.686 -10.834 13.733 -0.336 -470.543 2601.705 -4012.886 -0.203 -0.906 1.288 -0.04 0.54 -0.84 0.05
1 9.04 904 0.000 -8.026 2.284 -5.524 21.393 7.660 -395.592 2601.705 -3937.935 0.161 -0.941 1.667 -0.04 0.54 -0.84 0.04
1 9.05 905 -0.383 -7.987 2.164 -9.552 25.513 15.900 -500.674 2631.686 -3922.944 0.519 -0.982 1.781 -0.04 0.55 -0.84 0.04
1 9.06 906 -0.393 -8.030 2.289 -19.623 26.672 25.757 -395.592 2676.656 -4087.837 0.488 -0.946 1.642 -0.03 0.55 -0.84 0.04
1 9.07 907 -0.335 -8.002 3.122 -27.435 23.193 33.173 -395.592 2676.656 -4087.837 0.377 -0.988 0.780 -0.03 0.55 -0.83 0.05
1 9.08 908 -0.086 -8.270 5.459 -21.149 23.651 31.433 -350.622 2541.744 -4072.847 0.069 -0.735 -1.593 -0.03 0.55 -0.83 0.05
1 9.09 909 0.129 -8.773 6.101 -1.251 29.968 18.799 -365.612 2571.725 -4012.886 -0.205 -0.244 -2.263 -0.03 0.55 -0.83 0.05
1 9.10 910 -0.900 -9.323 6.493 18.189 41.229 1.831 -365.612 2571.725 -4012.886 0.779 0.309 -2.651 -0.02 0.55 -0.83 0.05
1 9.11 911 -2.773 -10.559 5.373 15.808 27.954 -16.602 -305.651 2586.715 -3967.915 2.610 1.569 -1.474 -0.02 0.55 -0.83 0.04
1 9.12 912 -1.805 -11.268 5.560 -9.064 2.777 -20.355 -200.569 2586.715 -4072.847 1.656 2.285 -1.645 -0.02 0.55 -0.84 0.04
1 9.13 913 -1.135 -11.445 5.986 -49.530 -15.259 -26.795 -230.550 2541.744 -3847.843 1.017 2.450 -2.096 -0.02 0.55 -0.83 0.04
1 9.14 914 -0.704 -11.967 5.641 -66.437 -30.029 -33.661 -230.550 2541.744 -3847.843 0.638 2.939 -1.827 -0.02 0.55 -0.83 0.04
1 9.15 915 -0.713 -12.168 5.339 -50.934 -44.190 -34.790 -185.579 2646.676 -3937.935 0.716 3.104 -1.613 -0.03 0.56 -0.83 0.04
1 9.16 916 -0.148 -11.373 4.602 -5.951 -61.707 -34.973 -320.641 2601.705 -3982.905 0.227 2.285 -0.936 -0.03 0.56 -0.83 0.04
1 9.17 917 0.963 -10.726 4.338 20.416 -70.770 -32.868 -320.641 2601.705 -3982.905 -0.802 1.632 -0.691 -0.04 0.56 -0.83 0.04
1 9.18 918 2.950 -9.084 4.722 19.867 -76.538 -31.525 -440.563 2751.607 -3877.824 -2.616 0.016 -1.020 -0.05 0.56 -0.83 0.04
1 9.19 919 3.596 -8.624 4.736 8.118 -71.503 -30.518 -305.651 2781.738 -3922.944 -3.166 -0.432 -1.015 -0.05 0.55 -0.83 0.04
1 9.20 920 4.070 -7.916 5.263 -38.300 -34.973 -21.942 -530.654 2586.715 -3817.863 -3.545 -1.141 -1.555 -0.06 0.55 -0.83 0.04
1 9.21 921 3.520 -8.246 5.406 -64.820 -0.885 -16.235 -530.654 2586.715 -3817.863 -2.923 -0.827 -1.750 -0.06 0.56 -0.83 0.04
1 9.22 922 2.500 -9.050 5.157 -74.524 31.433 -13.947 -515.664 2601.705 -3982.905 -1.862 -0.052 -1.581 -0.06 0.56 -0.83 0.04
1 9.23 923 0.421 -10.353 4.554 -43.610 72.052 -15.778 -665.566 2751.607 -3877.824 0.232 1.219 -1.062 -0.06 0.56 -0.82 0.03
1 9.24 924 -1.097 -10.698 4.247 -8.118 83.374 -19.501 -665.566 2751.607 -3877.824 1.741 1.541 -0.815 -0.06 0.57 -0.82 0.03
1 9.25 925 -2.888 -10.544 3.807 22.461 73.548 -25.269 -515.664 2841.699 -3832.853 3.516 1.381 -0.389 -0.06 0.57 -0.82 0.02
1 9.26 926 -4.377 -9.807 3.409 34.729 24.506 -29.450 -515.664 2721.627 -3937.935 5.013 0.676 0.093 -0.05 0.56 -0.82 0.02
1 9.27 927 -4.358 -9.041 3.132 17.609 -16.602 -23.041 -455.553 2781.738 -3967.915 5.027 -0.069 0.418 -0.05 0.56 -0.83 0.01
1 9.28 928 -3.409 -8.495 3.175 -10.742 -48.889 -12.756 -455.553 2781.738 -3967.915 4.104 -0.608 0.388 -0.05 0.56 -0.83 0.01
1 9.29 929 -2.050 -8.241 3.419 -33.844 -65.094 -1.770 -500.674 2736.617 -3922.944 2.755 -0.872 0.115 -0.05 0.56 -0.82 0.02
1 9.30 930 -0.905 -8.514 3.558 -42.999 -66.223 9.460 -530.654 2706.637 -4072.847 1.622 -0.620 -0.080 -0.06 0.57 -0.82 0.02
1 9.31 931 0.350 -9.074 3.812 -27.344 -48.493 24.719 -530.654 2706.637 -4072.847 0.370 -0.083 -0.396 -0.06 0.57 -0.82 0.02
1 9.32 932 0.795 -9.400 3.989 -9.827 -33.844 31.647 -710.537 2811.718 -4042.866 -0.085 0.225 -0.618 -0.06 0.57 -0.82 0.03
1 9.33 933 0.977 -9.314 4.267 6.592 -12.451 36.530 -695.547 2916.650 -3832.853 -0.326 0.129 -0.911 -0.06 0.57 -0.82 0.03
1 9.34 934 0.713 -9.055 4.104 5.249 -3.143 36.194 -590.615 2916.650 -3982.905 -0.106 -0.127 -0.733 -0.06 0.57 -0.82 0.04
1 9.35 935 0.316 -8.940 3.941 -6.195 -2.563 32.715 -590.615 2916.650 -3982.905 0.246 -0.241 -0.560 -0.06 0.57 -0.82 0.04
1 9.36 936 -0.086 -9.132 3.802 -19.409 -10.284 26.672 -515.664 2871.679 -3907.954 0.606 -0.055 -0.429 -0.06 0.57 -0.82 0.04
1 9.37 937 -0.048 -9.247 3.572 -27.313 -22.522 19.653 -605.605 2736.617 -3892.814 0.537 0.048 -0.227 -0.06 0.57 -0.82 0.04
1 9.38 938 0.211 -9.376 3.467 -21.149 -34.760 5.981 -605.605 2736.617 -3892.814 0.264 0.164 -0.158 -0.06 0.57 -0.82 0.04
1 9.39 939 0.522 -9.232 3.481 -9.369 -33.386 0.305 -635.586 2886.669 -3847.843 -0.044 0.009 -0.205 -0.06 0.57 -0.82 0.05
1 9.40 940 0.915 -8.868 3.505 5.890 -14.954 -1.740 -665.566 2916.650 -3907.954 -0.407 -0.359 -0.245 -0.07 0.57 -0.81 0.05
1 9.41 941 0.929 -8.725 3.644 8.453 -6.012 -1.465 -545.645 2946.630 -3832.853 -0.410 -0.498 -0.370 -0.07 0.57 -0.82 0.05
1 9.42 942 0.584 -8.926 3.362 11.200 15.076 -2.289 -545.645 2946.630 -3832.853 -0.061 -0.289 -0.068 -0.07 0.57 -0.82 0.05
1 9.43 943 0.211 -9.271 3.204 14.069 22.644 -2.411 -590.615 2916.650 -3757.902 0.309 0.063 0.111 -0.07 0.57 -0.82 0.05
1 9.44 944 -0.493 -9.285 3.122 22.217 19.989 -3.479 -635.586 2961.621 -3892.814 1.004 0.086 0.217 -0.06 0.57 -0.82 0.05
1 9.45 945 -0.814 -9.376 3.022 24.933 10.895 -7.355 -635.586 2961.621 -3892.814 1.314 0.187 0.349 -0.06 0.57 -0.82 0.04
1 9.46 946 -0.651 -9.453 3.199 24.994 1.740 -11.108 -695.547 2916.650 -3802.873 1.145 0.276 0.206 -0.06 0.57 -0.82 0.04
1 9.47 947 -0.790 -9.280 3.304 25.177 -5.280 -13.825 -695.547 2916.650 -3802.873 1.288 0.117 0.136 -0.06 0.57 -0.82 0.04
1 9.48 948 -0.737 -9.046 3.208 20.538 -16.663 -13.519 -605.605 2886.669 -3787.882 1.263 -0.090 0.300 -0.06 0.56 -0.82 0.04
1 9.49 949 -0.397 -8.849 3.290 14.130 -20.905 -10.773 -605.605 2886.669 -3787.882 0.942 -0.275 0.244 -0.06 0.56 -0.82 0.04
1 9.50 950 0.120 -8.782 3.199 7.874 -21.607 -8.087 -605.605 2856.689 -3892.814 0.443 -0.335 0.351 -0.07 0.56 -0.82 0.04
1 9.51 951 0.268 -8.615 3.036 3.143 -19.226 -5.585 -695.547 2841.699 -3907.954 0.312 -0.499 0.521 -0.07 0.56 -0.82 0.04
1 9.52 952 0.321 -8.548 2.931 3.784 -11.414 -3.937 -695.547 2841.699 -3907.954 0.274 -0.564 0.628 -0.07 0.56 -0.82 0.05
1 9.53 953 0.163 -8.701 2.935 6.195 -7.965 -2.960 -590.615 2796.728 -3907.954 0.444 -0.409 0.626 -0.07 0.56 -0.82 0.05
1 9.54 954 0.081 -8.682 3.132 8.698 -7.660 -2.777 -590.615 2796.728 -3907.954 0.533 -0.425 0.436 -0.07 0.56 -0.82 0.05
1 9.55 955 -0.077 -9.314 3.165 12.116 -8.667 -5.219 -545.645 2916.650 -3832.853 0.703 0.216 0.424 -0.07 0.56 -0.83 0.05
1 9.56 956 0.125 -9.553 3.208 15.381 -8.698 -7.935 -545.645 2916.650 -3832.853 0.510 0.462 0.396 -0.07 0.56 -0.83 0.05
1 9.57 957 -0.072 -9.759 3.429 17.548 -9.155 -11.444 -725.677 2871.679 -4012.886 0.721 0.677 0.195 -0.07 0.56 -0.83 0.05
1 9.58 958 -0.225 -9.807 3.615 15.259 -11.322 -14.099 -635.586 2931.640 -3922.944 0.892 0.734 0.029 -0.07 0.56 -0.83 0.05
1 9.59 959 -0.369 -9.965 3.505 14.343 -15.778 -11.902 -635.586 2931.640 -3922.944 1.055 0.901 0.158 -0.07 0.55 -0.83 0.05
1 9.60 960 -0.249 -9.687 3.170 20.142 -23.254 -6.989 -785.638 2706.637 -4072.847 0.953 0.632 0.511 -0.07 0.55 -0.83 0.05
1 9.61 961 0.120 -9.237 3.160 24.017 -27.832 -4.578 -785.638 2706.637 -4072.847 0.600 0.192 0.542 -0.08 0.55 -0.83 0.05
1 9.62 962 0.589 -8.912 3.357 26.184 -28.076 -3.754 -785.638 2736.617 -3967.915 0.148 -0.122 0.371 -0.08 0.55 -0.83 0.05
1 9.63 963 0.934 -8.097 3.299 20.050 -21.149 -0.580 -950.531 2722.376 -3934.637 -0.161 -0.907 0.490 -0.08 0.55 -0.83 0.05
1 9.64 964 1.101 -7.801 2.911 10.620 -14.923 2.167 -785.488 2737.367 -4039.718 -0.315 -1.193 0.901 -0.08 0.55 -0.83 0.05
1 9.65 965 1.121 -7.944 2.490 1.312 -7.965 3.784 -950.531 2647.425 -4054.708 -0.330 -1.044 1.334 -0.08 0.55 -0.83 0.05
1 9.66 966 1.188 -8.308 2.083 -0.549 -1.251 3.479 -950.531 2647.425 -4054.708 -0.398 -0.680 1.742 -0.08 0.55 -0.83 0.05
1 9.67 967 0.910 -8.782 2.131 12.268 8.057 0.397 -890.570 2782.337 -3994.748 -0.125 -0.205 1.697 -0.08 0.55 -0.83 0.05
1 9.68 968 0.651 -9.003 2.356 19.257 11.505 0.336 -890.570 2782.337 -3994.748 0.130 0.020 1.483 -0.08 0.55 -0.83 0.05
1 9.69 969 0.139 -9.117 2.562 19.348 14.648 1.251 -935.541 2707.386 -4099.679 0.637 0.141 1.294 -0.08 0.54 -0.83 0.05
1 9.70 970 -0.608 -9.156 3.797 17.120 22.034 4.272 -875.580 2722.376 -4084.689 1.357 0.195 0.099 -0.08 0.54 -0.83 0.05
1 9.71 971 -1.087 -9.697 4.434 24.109 25.574 10.834 -770.498 2677.406 -4129.660 1.806 0.744 -0.513 -0.08 0.54 -0.84 0.05
1 9.72 972 -1.982 -10.233 3.931 51.727 10.956 25.391 -950.531 2602.305 -4189.771 2.655 1.298 0.036 -0.07 0.54 -0.84 0.05
1 9.73 973 -1.532 -9.975 4.377 52.368 -30.426 40.314 -950.531 2602.305 -4189.771 2.164 1.071 -0.331 -0.07 0.54 -0.84 0.05
1 9.74 974 0.431 -9.678 5.196 -8.759 -71.686 67.871 -800.479 2527.354 -4189.771 0.165 0.798 -1.093 -0.07 0.53 -0.84 0.06
1 9.75 975 3.357 -10.942 6.311 -35.858 -51.575 72.418 -800.479 2527.354 -4189.771 -2.804 2.058 -2.212 -0.08 0.53 -0.84 0.07
1 9.76 976 3.486 -11.947 7.078 -52.246 -15.839 70.770 -770.498 2677.406 -3979.757 -2.994 3.039 -3.023 -0.08 0.54 -0.84 0.07
1 9.77 977 2.950 -12.259 6.656 -34.302 30.182 65.949 -770.498 2602.305 -4129.660 -2.641 3.282 -2.736 -0.07 0.54 -0.83 0.08
1 9.78 978 2.648 -11.354 6.354 -0.702 58.777 53.650 -770.498 2677.406 -4054.708 -2.448 2.360 -2.468 -0.07 0.55 -0.83 0.08
1 9.79 979 1.767 -10.501 5.694 23.865 96.314 36.957 -680.557 2662.416 -4069.699 -1.675 1.511 -1.795 -0.06 0.55 -0.83 0.08
1 9.80 980 -0.326 -10.027 5.090 21.820 127.076 19.287 -680.557 2662.416 -4069.699 0.310 1.052 -1.155 -0.05 0.54 -0.83 0.08
1 9.81 981 -3.031 -10.252 4.458 -5.951 133.210 4.486 -695.547 2722.376 -3979.757 2.916 1.287 -0.501 -0.04 0.54 -0.83 0.08
1 9.82 982 -5.876 -11.698 3.778 -36.224 85.724 -6.287 -695.547 2722.376 -3979.757 5.679 2.726 0.158 -0.04 0.55 -0.83 0.07
1 9.83 983 -6.278 -11.909 3.290 -23.193 28.168 -16.357 -605.456 2542.344 -4144.650 6.030 2.916 0.596 -0.03 0.55 -0.83 0.07
1 9.84 984 -5.095 -10.841 3.405 14.557 -48.309 -39.276 -441.312 2678.005 -4080.941 4.889 1.829 0.439 -0.03 0.55 -0.83 0.07
1 9.85 985 -4.506 -10.343 3.347 32.471 -83.496 -47.547 -306.250 2783.087 -4140.902 4.393 1.342 0.527 -0.04 0.55 -0.83 0.06
1 9.86 986 -2.035 -8.572 3.113 40.131 -105.896 -44.342 -366.211 2798.077 -3976.010 2.041 -0.408 0.812 -0.04 0.55 -0.83 0.07
1 9.87 987 -0.014 -7.504 3.055 41.657 -116.547 -35.034 -366.211 2798.077 -3976.010 0.127 -1.453 0.921 -0.05 0.54 -0.84 0.07
1 9.88 988 1.724 -6.335 3.304 36.774 -110.169 -19.592 -531.254 2737.966 -4035.971 -1.497 -2.594 0.727 -0.06 0.54 -0.84 0.07
1 9.89 989 3.400 -5.416 4.070 8.392 -73.181 8.575 -531.254 2737.966 -4035.971 -3.085 -3.492 0.003 -0.07 0.54 -0.84 0.07
1 9.90 990 3.749 -5.660 4.535 -14.771 -39.215 27.588 -621.195 2798.077 -4080.941 -3.388 -3.238 -0.444 -0.07 0.53 -0.84 0.08
1 9.91 991 3.788 -6.421 4.458 -32.532 -7.782 40.924 -771.248 2648.025 -4230.994 -3.427 -2.483 -0.382 -0.07 0.54 -0.84 0.08
1 9.92 992 3.218 -7.475 4.300 -36.621 22.247 54.444 -846.349 2648.774 -4002.842 -2.960 -1.472 -0.309 -0.07 0.54 -0.83 0.09
1 9.93 993 2.897 -7.978 4.535 -25.543 28.473 53.559 -756.407 2633.784 -4212.706 -2.705 -0.988 -0.582 -0.07 0.54 -0.83 0.09
1 9.94 994 2.567 -8.131 4.501 -10.071 26.550 45.899 -756.407 2633.784 -4212.706 -2.441 -0.845 -0.570 -0.07 0.54 -0.83 0.09
1 9.95 995 2.351 -8.193 4.525 9.857 19.013 33.783 -606.355 2633.784 -4212.706 -2.280 -0.783 -0.593 -0.06 0.54 -0.83 0.09
1 9.96 996 2.356 -8.078 4.434 39.887 13.641 9.644 -606.355 2633.784 -4212.706 -2.319 -0.885 -0.473 -0.06 0.54 -0.83 0.09
1 9.97 997 2.639 -7.781 4.511 52.429 23.682 -7.294 -636.335 2783.836 -4167.735 -2.611 -1.158 -0.494 -0.06 0.54 -0.83 0.09
1 9.98 998 2.490 -7.796 4.851 49.957 42.267 -19.775 -531.404 2708.885 -4062.803 -2.452 -1.109 -0.759 -0.06 0.54 -0.84 0.09
