COL1	TIME	ACC_X	ACC_Y	ACC_Z	GYR_X	GYR_Y	GYR_Z	MAG_X	MAG_Y	MAG_Z	LACC_X	LACC_Y	LACC_Z	QUAT_X	QUAT_Y	QUAT_Z	QUAT_W
1 0.00 0 0.790 -8.821 4.037 -1.434 -1.495 0.946 -794.932 -944.984 -3584.915 -0.031 -0.075 0.004 -0.09 0.53 -0.84 0.06
1 0.01 1 0.737 -8.916 4.051 -1.373 -1.740 0.824 -824.913 -1049.916 -3674.856 0.021 0.021 -0.010 -0.09 0.53 -0.84 0.06
1 0.02 2 0.857 -9.055 4.027 -1.129 -0.854 1.099 -824.913 -1049.916 -3674.856 -0.098 0.160 0.014 -0.09 0.53 -0.84 0.06
1 0.03 3 0.862 -8.988 4.161 -2.228 -0.824 0.488 -839.903 -1064.906 -3659.866 -0.102 0.093 -0.120 -0.09 0.53 -0.84 0.06
1 0.04 4 0.599 -9.065 4.027 -2.533 -1.129 0.000 -629.890 -1049.916 -3644.875 0.162 0.168 0.012 -0.09 0.54 -0.84 0.06
1 0.05 5 0.661 -9.012 4.171 -2.930 -1.923 -0.275 -629.890 -1049.916 -3644.875 0.101 0.115 -0.134 -0.09 0.54 -0.84 0.06
1 0.06 6 0.737 -9.108 4.128 -2.228 -1.312 -0.305 -869.883 -989.955 -3704.986 0.026 0.209 -0.094 -0.09 0.54 -0.84 0.06
1 0.07 7 0.785 -9.094 4.065 -1.984 -0.702 0.610 -764.952 -989.955 -3659.866 -0.021 0.194 -0.033 -0.09 0.54 -0.84 0.06
1 0.08 8 0.685 -9.022 4.156 -1.312 -1.495 0.671 -944.984 -1064.906 -3629.885 0.079 0.122 -0.125 -0.09 0.54 -0.84 0.06
1 0.09 9 0.833 -8.959 3.989 -0.824 -0.916 1.038 -944.984 -1064.906 -3629.885 -0.069 0.060 0.042 -0.09 0.54 -0.84 0.06
1 0.10 10 0.690 -8.979 4.056 -0.854 -1.160 1.129 -869.883 -989.955 -3704.986 0.075 0.079 -0.025 -0.09 0.54 -0.84 0.06
1 0.11 11 0.742 -8.902 4.022 -1.648 -1.709 1.587 -944.984 -1019.936 -3809.918 0.022 0.002 0.008 -0.09 0.54 -0.84 0.06
1 0.12 12 0.848 -8.945 4.070 -1.831 -1.892 1.495 -944.984 -1019.936 -3809.918 -0.083 0.045 -0.040 -0.09 0.54 -0.84 0.06
1 0.13 13 0.785 -9.041 4.123 -1.678 -1.373 1.282 -854.893 -854.893 -3644.875 -0.021 0.140 -0.094 -0.09 0.54 -0.84 0.06
1 0.14 14 0.781 -8.998 4.022 -1.831 -1.312 1.282 -764.952 -1139.857 -3764.947 -0.016 0.097 0.007 -0.09 0.54 -0.84 0.06
1 0.15 15 0.800 -8.983 4.156 -1.251 -1.465 0.824 -929.994 -1049.916 -3719.977 -0.035 0.083 -0.128 -0.09 0.54 -0.84 0.06
1 0.16 16 0.852 -8.974 4.018 -0.519 -1.801 1.190 -929.994 -1049.916 -3719.977 -0.087 0.073 0.011 -0.09 0.54 -0.84 0.06
1 0.17 17 0.752 -8.974 4.051 -1.343 -1.465 0.641 -914.854 -989.955 -3704.986 0.013 0.073 -0.022 -0.09 0.54 -0.84 0.06
1 0.18 18 0.728 -8.940 4.042 -1.678 -0.732 0.916 -929.994 -1124.867 -3674.856 0.038 0.039 -0.013 -0.09 0.54 -0.84 0.07
1 0.19 19 0.891 -9.070 4.118 -1.282 -1.465 0.916 -929.994 -1124.867 -3674.856 -0.125 0.169 -0.090 -0.09 0.54 -0.84 0.07
1 0.20 20 0.828 -9.012 4.104 -1.129 -1.007 1.343 -929.994 -1049.916 -3794.928 -0.063 0.111 -0.076 -0.09 0.54 -0.84 0.07
1 0.21 21 0.766 -8.940 4.051 -1.678 -1.434 0.610 -839.903 -1019.936 -3659.866 -0.000 0.039 -0.023 -0.09 0.54 -0.84 0.07
1 0.22 22 0.838 -8.916 4.118 -1.648 -1.495 1.190 -944.984 -1064.906 -3584.915 -0.072 0.015 -0.090 -0.09 0.54 -0.84 0.07
1 0.23 23 0.814 -8.998 4.046 -1.587 -1.160 0.610 -944.984 -1064.906 -3584.915 -0.048 0.097 -0.018 -0.09 0.54 -0.84 0.07
1 0.24 24 0.661 -9.079 4.080 -1.617 -0.671 0.793 -914.854 -989.955 -3734.967 0.106 0.178 -0.051 -0.09 0.54 -0.84 0.07
1 0.25 25 0.771 -9.089 4.042 -0.610 -1.221 1.404 -764.952 -1139.857 -3659.866 -0.004 0.188 -0.014 -0.09 0.54 -0.84 0.07
1 0.26 26 0.790 -9.060 4.152 -1.099 -1.312 1.221 -764.952 -1139.857 -3659.866 -0.023 0.159 -0.124 -0.09 0.54 -0.84 0.07
1 0.27 27 0.790 -9.103 4.085 -0.946 -1.038 1.129 -839.903 -944.984 -3659.866 -0.023 0.202 -0.057 -0.09 0.54 -0.84 0.07
1 0.28 28 0.852 -8.998 4.089 -1.465 -1.160 1.038 -1004.945 -1124.867 -3749.957 -0.085 0.097 -0.062 -0.09 0.54 -0.84 0.07
1 0.29 29 0.804 -9.117 4.003 -1.404 -1.190 0.977 -869.883 -1094.887 -3584.915 -0.036 0.217 0.025 -0.09 0.54 -0.84 0.07
1 0.30 30 0.910 -8.993 4.113 -1.160 -0.916 0.824 -869.883 -1094.887 -3584.915 -0.142 0.092 -0.086 -0.09 0.54 -0.84 0.07
1 0.31 31 0.867 -9.161 4.032 -0.732 -0.458 1.129 -764.952 -989.955 -3659.866 -0.099 0.260 -0.004 -0.09 0.54 -0.84 0.07
1 0.32 32 0.800 -8.926 3.994 -0.977 -1.251 1.373 -779.942 -1004.945 -3719.977 -0.031 0.025 0.034 -0.09 0.54 -0.84 0.07
1 0.33 33 0.757 -9.041 4.046 -0.702 -0.946 0.763 -779.942 -1004.945 -3719.977 0.012 0.140 -0.019 -0.09 0.54 -0.84 0.07
1 0.34 34 0.881 -9.060 4.042 -0.275 -0.763 0.641 -839.903 -1019.936 -3584.915 -0.113 0.159 -0.014 -0.09 0.54 -0.84 0.07
1 0.35 35 0.766 -8.998 4.109 -0.763 -0.824 1.160 -869.883 -1094.887 -3629.885 0.003 0.097 -0.081 -0.09 0.54 -0.84 0.07
1 0.36 36 0.814 -9.060 4.027 -0.671 -0.977 1.282 -794.932 -989.955 -3629.885 -0.045 0.159 0.000 -0.09 0.54 -0.84 0.07
1 0.37 37 0.867 -9.012 4.037 -1.099 -1.068 1.312 -794.932 -989.955 -3629.885 -0.098 0.111 -0.010 -0.09 0.54 -0.84 0.07
1 0.38 38 0.819 -8.998 4.022 -1.099 -0.458 1.495 -839.903 -1094.887 -3764.947 -0.050 0.097 0.005 -0.09 0.54 -0.84 0.07
1 0.39 39 0.848 -9.055 4.056 -0.702 -0.366 1.190 -794.932 -1094.887 -3764.947 -0.079 0.154 -0.029 -0.09 0.54 -0.84 0.07
1 0.40 40 0.761 -9.012 3.927 -0.366 -0.854 1.617 -794.932 -1094.887 -3764.947 0.009 0.111 0.099 -0.09 0.54 -0.84 0.07
1 0.41 41 0.833 -9.065 3.998 -0.580 -1.190 1.068 -899.864 -1049.916 -3644.875 -0.063 0.163 0.027 -0.09 0.54 -0.84 0.07
1 0.42 42 0.833 -9.003 4.032 -0.763 -1.007 0.580 -824.913 -854.893 -3719.977 -0.063 0.101 -0.007 -0.09 0.54 -0.84 0.07
1 0.43 43 0.915 -8.979 4.022 -1.190 -1.251 1.190 -944.984 -989.955 -3734.967 -0.144 0.076 0.002 -0.09 0.54 -0.84 0.07
1 0.44 44 0.843 -8.969 4.085 -0.946 -0.458 0.031 -944.984 -989.955 -3734.967 -0.071 0.067 -0.061 -0.09 0.54 -0.84 0.07
1 0.45 45 0.709 -8.998 3.989 -1.953 -1.190 0.122 -824.913 -1079.896 -3749.957 0.063 0.095 0.035 -0.09 0.54 -0.84 0.07
1 0.46 46 0.785 -9.007 3.994 -0.977 -0.458 0.549 -749.961 -1049.916 -3674.856 -0.012 0.105 0.029 -0.09 0.54 -0.84 0.07
1 0.47 47 0.838 -9.017 4.013 -0.305 -1.099 0.458 -749.961 -1049.916 -3674.856 -0.065 0.114 0.009 -0.09 0.54 -0.84 0.07
1 0.48 48 0.828 -8.902 4.027 -1.465 -1.434 0.183 -944.984 -989.955 -3629.885 -0.055 -0.002 -0.006 -0.09 0.54 -0.84 0.07
1 0.49 49 0.819 -8.955 4.156 -1.160 -0.885 0.519 -854.893 -1004.945 -3854.889 -0.046 0.051 -0.135 -0.09 0.54 -0.84 0.07
1 0.50 50 0.690 -8.926 4.027 -1.007 -1.007 0.458 -854.893 -1004.945 -3854.889 0.084 0.022 -0.006 -0.09 0.54 -0.84 0.07
1 0.51 51 0.824 -8.959 3.979 -0.488 -1.526 0.824 -929.994 -959.975 -3674.856 -0.051 0.056 0.042 -0.09 0.54 -0.84 0.07
1 0.52 52 0.771 -9.050 4.094 -0.793 -1.099 0.671 -914.854 -1094.887 -3554.934 0.003 0.147 -0.073 -0.09 0.54 -0.84 0.07
1 0.53 53 0.752 -8.983 4.013 -1.038 -0.916 1.862 -899.864 -959.975 -3674.856 0.022 0.080 0.008 -0.09 0.54 -0.84 0.07
1 0.54 54 0.795 -8.902 3.998 -0.885 -1.282 1.434 -899.864 -959.975 -3674.856 -0.021 -0.002 0.022 -0.09 0.54 -0.84 0.07
1 0.55 55 0.747 -9.070 4.123 -1.282 -1.465 1.709 -914.854 -1019.936 -3629.885 0.027 0.165 -0.104 -0.09 0.54 -0.84 0.07
1 0.56 56 0.881 -9.113 4.104 -1.404 -2.167 1.526 -824.913 -1049.916 -3644.875 -0.107 0.208 -0.086 -0.09 0.54 -0.84 0.07
1 0.57 57 0.943 -9.079 4.046 -0.122 -1.587 0.854 -824.913 -1049.916 -3644.875 -0.169 0.174 -0.029 -0.09 0.54 -0.84 0.07
1 0.58 58 0.819 -9.031 4.046 0.397 -0.732 1.038 -899.864 -1154.998 -3719.977 -0.043 0.126 -0.029 -0.09 0.54 -0.84 0.07
1 0.59 59 0.771 -8.897 4.152 -0.671 -0.854 1.068 -839.903 -1094.887 -3704.986 0.005 -0.008 -0.135 -0.09 0.54 -0.84 0.07
1 0.60 60 0.713 -9.017 4.027 -0.885 -1.709 1.892 -779.942 -1049.916 -3644.875 0.063 0.112 -0.010 -0.09 0.54 -0.84 0.07
1 0.61 61 0.781 -9.055 3.955 -1.251 -1.587 1.434 -779.942 -1049.916 -3644.875 -0.004 0.150 0.062 -0.09 0.54 -0.84 0.07
1 0.62 62 0.713 -9.170 4.104 -0.854 -1.984 1.740 -854.893 -1079.896 -3644.875 0.063 0.265 -0.087 -0.09 0.54 -0.84 0.07
1 0.63 63 0.891 -9.003 4.032 -1.434 -0.854 1.190 -869.883 -989.955 -3764.947 -0.114 0.097 -0.015 -0.09 0.54 -0.84 0.07
1 0.64 64 0.781 -9.074 4.104 -0.916 -0.793 1.099 -869.883 -989.955 -3764.947 -0.003 0.169 -0.087 -0.09 0.54 -0.84 0.07
1 0.65 65 0.905 -9.137 4.061 -0.977 -0.671 0.916 -824.913 -929.994 -3749.957 -0.127 0.232 -0.044 -0.09 0.54 -0.84 0.07
1 0.66 66 0.814 -9.026 4.003 -0.885 -0.549 0.458 -794.932 -1139.857 -3734.967 -0.035 0.121 0.013 -0.09 0.54 -0.84 0.07
1 0.67 67 0.924 -9.151 3.965 -0.580 -0.061 0.519 -854.893 -1049.916 -3569.924 -0.145 0.246 0.052 -0.09 0.54 -0.84 0.07
1 0.68 68 0.757 -9.003 4.080 0.214 -0.671 0.916 -854.893 -1049.916 -3569.924 0.022 0.097 -0.064 -0.09 0.54 -0.84 0.07
1 0.69 69 0.862 -9.060 3.951 -1.465 -0.214 0.671 -899.864 -929.994 -3674.856 -0.083 0.155 0.065 -0.09 0.54 -0.84 0.07
1 0.70 70 0.747 -9.012 4.042 -1.862 -0.824 0.488 -869.883 -1064.906 -3734.967 0.033 0.107 -0.026 -0.09 0.54 -0.84 0.07
1 0.71 71 0.752 -9.003 3.994 -1.190 -0.488 0.824 -869.883 -1064.906 -3734.967 0.028 0.097 0.022 -0.09 0.54 -0.84 0.07
1 0.72 72 0.838 -8.931 4.070 -0.793 -0.488 0.519 -914.854 -1019.936 -3734.967 -0.058 0.025 -0.056 -0.09 0.54 -0.84 0.07
1 0.73 73 0.809 -9.070 4.085 -1.190 -0.946 0.122 -794.932 -989.955 -3809.918 -0.029 0.164 -0.070 -0.09 0.54 -0.84 0.07
1 0.74 74 0.771 -9.084 4.099 -1.068 -0.427 0.580 -734.971 -989.955 -3704.986 0.009 0.178 -0.085 -0.09 0.54 -0.84 0.07
1 0.75 75 0.867 -9.094 4.089 -1.068 -0.580 0.427 -734.971 -989.955 -3704.986 -0.087 0.187 -0.075 -0.09 0.54 -0.84 0.07
1 0.76 76 0.737 -8.959 4.065 -0.580 -0.946 1.434 -764.952 -1064.906 -3734.967 0.042 0.053 -0.051 -0.09 0.54 -0.84 0.07
1 0.77 77 0.781 -8.988 4.113 -0.732 -0.946 1.434 -899.864 -1004.945 -3899.859 -0.001 0.082 -0.099 -0.09 0.54 -0.84 0.07
1 0.78 78 0.867 -9.022 3.989 -1.099 -0.519 1.617 -899.864 -1004.945 -3899.859 -0.087 0.116 0.026 -0.09 0.54 -0.84 0.07
1 0.79 79 0.824 -9.007 4.089 -0.854 -0.488 2.136 -869.883 -944.984 -3629.885 -0.044 0.101 -0.076 -0.09 0.54 -0.84 0.07
1 0.80 80 0.881 -8.964 3.951 -1.343 -0.885 1.648 -899.864 -929.994 -3569.924 -0.102 0.058 0.063 -0.09 0.54 -0.84 0.07
1 0.81 81 0.881 -9.074 3.979 -0.916 -0.641 1.221 -944.984 -1064.906 -3734.967 -0.102 0.168 0.034 -0.09 0.54 -0.84 0.07
1 0.82 82 0.852 -9.137 4.075 -0.183 -1.007 1.190 -944.984 -1064.906 -3734.967 -0.073 0.230 -0.062 -0.09 0.54 -0.84 0.07
1 0.83 83 0.828 -9.012 4.113 -0.519 -1.038 1.526 -1019.936 -1259.929 -3734.967 -0.049 0.105 -0.101 -0.09 0.54 -0.84 0.07
1 0.84 84 0.824 -8.988 4.032 -0.397 -1.434 1.373 -929.994 -1079.896 -3674.856 -0.043 0.081 -0.020 -0.09 0.54 -0.84 0.07
1 0.85 85 0.857 -9.026 4.128 0.214 -0.336 0.885 -929.994 -1079.896 -3674.856 -0.076 0.120 -0.116 -0.09 0.54 -0.84 0.07
1 0.86 86 0.776 -9.070 4.042 -0.946 -0.305 0.946 -989.955 -1064.906 -3734.967 0.006 0.163 -0.029 -0.09 0.54 -0.84 0.07
1 0.87 87 0.910 -9.007 4.070 -0.610 -0.214 1.465 -794.932 -869.883 -3734.967 -0.128 0.101 -0.058 -0.09 0.54 -0.84 0.07
1 0.88 88 0.790 -9.026 3.951 -0.580 -0.397 1.007 -824.913 -1124.867 -3719.977 -0.008 0.120 0.062 -0.09 0.54 -0.84 0.07
1 0.89 89 0.852 -9.098 4.070 -1.068 -0.427 0.732 -824.913 -1124.867 -3719.977 -0.071 0.192 -0.058 -0.09 0.54 -0.84 0.07
1 0.90 90 0.781 -9.089 4.070 -1.251 -0.122 0.458 -704.991 -1004.945 -3644.875 0.001 0.182 -0.059 -0.09 0.54 -0.84 0.07
1 0.91 91 0.690 -9.108 4.051 -0.366 -0.092 0.977 -914.854 -1019.936 -3704.986 0.092 0.201 -0.040 -0.09 0.54 -0.84 0.07
1 0.92 92 0.895 -9.074 4.051 -0.519 -0.549 0.977 -914.854 -1019.936 -3704.986 -0.114 0.167 -0.040 -0.09 0.54 -0.84 0.07
1 0.93 93 0.699 -9.046 3.979 0.031 -0.641 0.580 -854.893 -1004.945 -3599.905 0.082 0.138 0.032 -0.09 0.54 -0.84 0.07
1 0.94 94 0.656 -8.955 4.018 -0.092 -0.610 0.397 -854.893 -1004.945 -3599.905 0.124 0.047 -0.006 -0.09 0.54 -0.84 0.07
1 0.95 95 0.728 -8.988 4.042 -1.190 -1.343 1.343 -899.864 -1049.916 -3824.908 0.052 0.081 -0.031 -0.09 0.54 -0.84 0.07
1 0.96 96 0.761 -9.070 3.955 -0.366 -1.648 1.129 -899.864 -1049.916 -3824.908 0.018 0.162 0.056 -0.09 0.54 -0.84 0.07
1 0.97 97 0.790 -9.036 4.080 -0.702 -1.404 1.221 -824.913 -884.874 -3674.856 -0.011 0.128 -0.069 -0.09 0.54 -0.84 0.07
1 0.98 98 0.857 -8.988 3.994 -0.427 -0.946 1.068 -839.903 -1019.936 -3704.986 -0.079 0.081 0.017 -0.09 0.54 -0.84 0.07
1 0.99 99 0.891 -9.041 4.037 -0.641 -0.824 1.221 -839.903 -1019.936 -3704.986 -0.112 0.133 -0.026 -0.09 0.54 -0.84 0.07
1 1.00 100 0.848 -8.974 4.104 -1.251 -0.641 1.038 -854.893 -959.975 -3644.875 -0.068 0.066 -0.093 -0.09 0.54 -0.84 0.07
1 1.01 101 0.790 -8.955 4.037 -1.129 -0.732 0.519 -854.893 -959.975 -3644.875 -0.010 0.047 -0.026 -0.09 0.54 -0.84 0.07
1 1.02 102 0.881 -8.969 4.166 -1.251 0.000 -0.458 -869.883 -1064.906 -3734.967 -0.100 0.062 -0.155 -0.09 0.54 -0.84 0.07
1 1.03 103 0.752 -8.993 4.022 -0.916 0.031 0.061 -869.883 -1064.906 -3734.967 0.031 0.085 -0.012 -0.09 0.54 -0.84 0.07
1 1.04 104 0.891 -8.935 4.080 -0.641 0.092 0.122 -869.883 -989.955 -3659.866 -0.107 0.028 -0.070 -0.09 0.54 -0.84 0.07
1 1.05 105 0.728 -8.959 4.065 -0.977 -0.336 0.336 -944.984 -989.955 -3629.885 0.056 0.052 -0.055 -0.09 0.54 -0.84 0.07
1 1.06 106 0.852 -9.026 4.089 -1.038 0.061 0.641 -944.984 -989.955 -3629.885 -0.069 0.119 -0.080 -0.09 0.54 -0.84 0.07
1 1.07 107 0.857 -9.046 4.133 -0.702 -0.031 1.434 -794.932 -1064.906 -3584.915 -0.073 0.138 -0.123 -0.09 0.54 -0.84 0.07
1 1.08 108 0.833 -9.079 4.137 -0.580 -0.153 1.526 -794.932 -1064.906 -3584.915 -0.049 0.171 -0.128 -0.09 0.54 -0.84 0.07
1 1.09 109 0.690 -9.055 4.022 -1.160 -0.763 1.221 -869.883 -1139.857 -3554.934 0.095 0.147 -0.013 -0.09 0.54 -0.84 0.07
1 1.10 110 0.795 -8.988 4.046 -1.068 -0.641 1.831 -869.883 -1139.857 -3554.934 -0.011 0.080 -0.037 -0.09 0.54 -0.84 0.07
1 1.11 111 0.900 -8.888 4.061 -0.397 -0.549 1.221 -869.883 -1019.936 -3704.986 -0.116 -0.020 -0.051 -0.09 0.54 -0.84 0.07
1 1.12 112 0.891 -9.022 4.075 -1.282 -0.092 1.129 -794.932 -914.854 -3659.866 -0.106 0.114 -0.065 -0.09 0.54 -0.84 0.07
1 1.13 113 0.862 -9.122 4.056 -1.617 -0.702 0.793 -794.932 -914.854 -3659.866 -0.076 0.215 -0.045 -0.09 0.54 -0.84 0.07
1 1.14 114 0.824 -8.959 4.118 -0.397 -0.641 0.519 -839.903 -1064.906 -3704.986 -0.038 0.052 -0.108 -0.09 0.54 -0.84 0.07
1 1.15 115 0.781 -9.079 4.075 0.031 -0.183 0.519 -839.903 -1064.906 -3704.986 0.006 0.172 -0.064 -0.09 0.54 -0.84 0.07
1 1.16 116 0.848 -8.883 3.931 -1.465 -0.488 0.641 -824.913 -1079.896 -3644.875 -0.062 -0.024 0.079 -0.09 0.54 -0.84 0.07
1 1.17 117 0.737 -9.007 4.075 -1.160 -0.458 0.793 -824.913 -1079.896 -3644.875 0.049 0.100 -0.064 -0.09 0.54 -0.84 0.07
1 1.18 118 0.766 -9.012 4.094 -0.122 -0.427 0.641 -1004.945 -1004.945 -3674.856 0.020 0.105 -0.083 -0.09 0.54 -0.84 0.07
1 1.19 119 0.848 -9.036 4.046 -0.885 -0.366 1.190 -929.994 -1199.968 -3674.856 -0.062 0.129 -0.035 -0.09 0.54 -0.84 0.07
1 1.20 120 0.852 -9.017 4.142 -1.007 -0.183 1.221 -929.994 -1199.968 -3674.856 -0.066 0.110 -0.131 -0.09 0.54 -0.84 0.07
1 1.21 121 0.819 -8.969 4.080 -0.702 -0.793 0.732 -749.961 -1049.916 -3794.928 -0.033 0.062 -0.068 -0.09 0.54 -0.84 0.07
1 1.22 122 0.718 -9.017 3.970 -0.488 -1.099 0.671 -749.961 -1049.916 -3794.928 0.068 0.110 0.042 -0.09 0.54 -0.84 0.07
1 1.23 123 0.757 -9.117 3.960 -0.336 -1.221 0.732 -779.942 -1079.896 -3794.928 0.029 0.210 0.051 -0.09 0.54 -0.84 0.07
1 1.24 124 0.733 -9.012 4.022 -0.732 -1.556 1.465 -914.854 -1064.906 -3659.866 0.053 0.105 -0.012 -0.09 0.54 -0.84 0.07
1 1.25 125 0.814 -8.940 4.003 -1.007 -1.343 1.587 -1004.945 -1049.916 -3719.977 -0.029 0.033 0.007 -0.09 0.54 -0.84 0.07
1 1.26 126 0.819 -9.108 4.056 -1.007 -0.946 1.099 -854.893 -1199.968 -3719.977 -0.034 0.200 -0.046 -0.09 0.54 -0.84 0.07
1 1.27 127 0.752 -9.036 4.042 0.275 -0.793 0.977 -854.893 -1199.968 -3719.977 0.033 0.129 -0.032 -0.09 0.54 -0.84 0.07
1 1.28 128 0.733 -8.926 4.018 -0.458 -1.556 0.824 -794.932 -1139.857 -3659.866 0.052 0.018 -0.008 -0.09 0.54 -0.84 0.07
1 1.29 129 0.838 -8.979 3.907 -0.641 -1.984 1.587 -794.932 -1139.857 -3659.866 -0.054 0.071 0.102 -0.09 0.54 -0.84 0.07
1 1.30 130 0.828 -9.070 4.085 -1.190 -2.258 1.495 -854.893 -1004.945 -3674.856 -0.044 0.161 -0.076 -0.09 0.54 -0.84 0.07
1 1.31 131 0.862 -9.007 3.931 -0.122 -1.801 1.404 -914.854 -989.955 -3704.986 -0.077 0.099 0.077 -0.09 0.54 -0.84 0.07
1 1.32 132 0.766 -8.959 4.137 -0.824 -0.580 1.770 -794.932 -1019.936 -3809.918 0.019 0.051 -0.130 -0.09 0.54 -0.84 0.07
1 1.33 133 0.785 -8.926 4.065 -0.580 -1.160 1.282 -794.932 -1214.958 -3764.947 0.001 0.018 -0.058 -0.09 0.54 -0.84 0.07
1 1.34 134 0.781 -9.046 4.123 -1.099 -0.946 0.885 -794.932 -1214.958 -3764.947 0.005 0.137 -0.115 -0.09 0.54 -0.84 0.07
1 1.35 135 0.828 -9.046 4.056 -0.641 -1.556 0.488 -839.903 -1094.887 -3584.915 -0.043 0.138 -0.047 -0.09 0.54 -0.84 0.07
1 1.36 136 0.680 -9.003 4.180 -1.068 -1.526 0.854 -839.903 -1094.887 -3584.915 0.105 0.095 -0.171 -0.09 0.54 -0.84 0.07
1 1.37 137 0.771 -9.046 4.022 -1.099 -2.045 0.519 -779.942 -1049.916 -3644.875 0.014 0.138 -0.013 -0.09 0.54 -0.84 0.07
1 1.38 138 0.790 -8.955 4.056 -1.099 -1.373 1.160 -914.854 -1094.887 -3704.986 -0.005 0.047 -0.046 -0.09 0.54 -0.84 0.07
1 1.39 139 0.723 -9.017 4.027 -1.343 -1.648 1.007 -734.971 -1064.906 -3629.885 0.061 0.109 -0.017 -0.09 0.54 -0.84 0.07
1 1.40 140 0.809 -8.907 4.070 -1.251 -1.434 1.801 -914.854 -1019.936 -3659.866 -0.026 -0.001 -0.060 -0.09 0.54 -0.84 0.07
1 1.41 141 0.781 -8.979 4.089 -0.702 -1.343 1.434 -914.854 -1019.936 -3659.866 0.003 0.071 -0.079 -0.09 0.54 -0.84 0.07
1 1.42 142 0.795 -9.026 4.022 -1.068 -1.740 1.587 -794.932 -1019.936 -3734.967 -0.011 0.119 -0.012 -0.09 0.54 -0.84 0.07
1 1.43 143 0.852 -9.055 4.128 -1.465 -1.770 1.617 -794.932 -1019.936 -3734.967 -0.069 0.148 -0.117 -0.09 0.54 -0.84 0.07
1 1.44 144 0.828 -8.998 3.989 -1.221 -1.556 1.495 -824.913 -1154.998 -3599.905 -0.045 0.091 0.022 -0.09 0.54 -0.84 0.07
1 1.45 145 0.862 -9.070 4.061 -1.068 -1.923 1.465 -869.883 -1019.936 -3629.885 -0.078 0.162 -0.050 -0.09 0.54 -0.84 0.07
1 1.46 146 0.824 -9.074 4.051 -0.793 -0.549 1.282 -734.971 -1019.936 -3704.986 -0.040 0.167 -0.040 -0.09 0.54 -0.84 0.07
1 1.47 147 0.881 -8.988 4.022 -1.648 -0.702 0.977 -749.961 -1049.916 -3719.977 -0.097 0.081 -0.011 -0.09 0.54 -0.84 0.07
1 1.48 148 0.795 -9.127 4.056 -1.587 -1.068 1.282 -749.961 -1049.916 -3719.977 -0.010 0.220 -0.045 -0.09 0.54 -0.84 0.07
1 1.49 149 0.809 -9.031 4.142 -1.068 -2.014 0.671 -929.994 -1004.945 -3674.856 -0.024 0.124 -0.131 -0.09 0.54 -0.84 0.07
1 1.50 150 0.876 -8.974 4.032 -0.671 -0.610 0.519 -929.994 -1004.945 -3674.856 -0.091 0.067 -0.021 -0.09 0.54 -0.84 0.07
1 1.51 151 0.833 -9.055 4.080 -1.068 -0.702 1.190 -779.942 -1004.945 -3719.977 -0.047 0.149 -0.068 -0.09 0.54 -0.84 0.07
1 1.52 152 0.848 -9.003 4.142 -0.854 -0.305 0.793 -869.883 -1094.887 -3659.866 -0.061 0.096 -0.130 -0.09 0.54 -0.84 0.07
1 1.53 153 0.733 -9.046 4.065 -0.183 -0.610 1.465 -899.864 -1004.945 -3794.928 0.054 0.139 -0.053 -0.09 0.54 -0.84 0.07
1 1.54 154 0.723 -8.912 4.080 -0.427 0.000 1.709 -1064.906 -1094.887 -3734.967 0.063 0.005 -0.067 -0.09 0.54 -0.84 0.07
1 1.55 155 0.824 -9.046 4.104 -1.160 -0.183 1.801 -1064.906 -1094.887 -3734.967 -0.038 0.140 -0.090 -0.09 0.54 -0.84 0.07
1 1.56 156 0.891 -8.988 4.156 -0.610 -0.641 1.617 -929.994 -884.874 -3749.957 -0.107 0.082 -0.143 -0.09 0.54 -0.84 0.07
1 1.57 157 0.876 -9.017 4.051 -0.702 -0.427 1.770 -929.994 -884.874 -3749.957 -0.092 0.111 -0.037 -0.09 0.54 -0.84 0.07
1 1.58 158 0.790 -8.892 4.008 -0.946 -0.641 0.763 -869.883 -1019.936 -3659.866 -0.005 -0.013 0.006 -0.09 0.54 -0.84 0.07
1 1.59 159 0.737 -8.888 4.176 -1.282 -0.793 0.793 -779.942 -929.994 -3674.856 0.047 -0.018 -0.161 -0.09 0.54 -0.84 0.07
1 1.60 160 0.790 -8.878 4.118 -1.282 -0.641 1.526 -989.955 -1064.906 -3704.986 -0.005 -0.027 -0.103 -0.09 0.54 -0.84 0.07
1 1.61 161 0.661 -8.945 4.156 -1.343 -0.854 1.465 -749.961 -1079.896 -3719.977 0.124 0.040 -0.141 -0.09 0.54 -0.84 0.07
1 1.62 162 0.924 -9.036 4.219 -1.038 -0.519 1.251 -749.961 -1079.896 -3719.977 -0.140 0.131 -0.203 -0.09 0.54 -0.84 0.07
1 1.63 163 0.819 -9.113 4.224 -1.495 -0.671 1.404 -929.994 -1079.896 -3644.875 -0.035 0.208 -0.207 -0.09 0.54 -0.84 0.07
1 1.64 164 0.819 -9.041 4.113 -1.129 0.153 1.770 -929.994 -1079.896 -3644.875 -0.035 0.137 -0.096 -0.09 0.54 -0.84 0.07
1 1.65 165 0.771 -8.993 4.089 -1.404 -0.122 1.831 -839.903 -1064.906 -3764.947 0.011 0.088 -0.072 -0.09 0.54 -0.84 0.07
1 1.66 166 0.843 -8.969 4.176 -1.709 -0.397 1.495 -899.864 -1004.945 -3599.905 -0.062 0.064 -0.159 -0.09 0.54 -0.84 0.07
1 1.67 167 0.651 -9.007 4.113 -0.946 -0.153 1.678 -899.864 -1004.945 -3599.905 0.130 0.103 -0.096 -0.09 0.54 -0.84 0.07
1 1.68 168 0.852 -9.127 4.128 -0.427 -0.793 1.953 -779.942 -1124.867 -3674.856 -0.073 0.222 -0.111 -0.09 0.54 -0.84 0.07
1 1.69 169 0.757 -9.046 4.070 -0.763 -0.885 2.655 -779.942 -1124.867 -3674.856 0.021 0.141 -0.054 -0.09 0.54 -0.84 0.07
1 1.70 170 0.819 -9.070 4.089 0.275 -1.099 1.892 -839.903 -1094.887 -3704.986 -0.043 0.164 -0.073 -0.09 0.54 -0.84 0.07
1 1.71 171 0.895 -9.046 4.137 -0.519 0.031 1.862 -839.903 -1094.887 -3704.986 -0.121 0.141 -0.119 -0.09 0.54 -0.84 0.07
1 1.72 172 0.685 -9.007 4.085 -1.740 0.580 1.587 -794.932 -1019.936 -3764.947 0.085 0.102 -0.066 -0.09 0.54 -0.84 0.07
1 1.73 173 0.776 -9.079 4.137 -0.793 0.732 1.465 -734.971 -989.955 -3659.866 -0.008 0.174 -0.119 -0.09 0.54 -0.84 0.07
1 1.74 174 0.713 -9.079 4.008 -0.732 0.458 1.343 -734.971 -989.955 -3659.866 0.052 0.174 0.010 -0.09 0.54 -0.84 0.07
1 1.75 175 0.838 -9.070 4.032 -0.732 0.549 1.495 -764.952 -989.955 -3764.947 -0.074 0.164 -0.014 -0.09 0.54 -0.84 0.07
1 1.76 176 0.752 -9.074 4.171 -0.336 1.404 1.160 -764.952 -989.955 -3764.947 0.010 0.169 -0.153 -0.09 0.54 -0.84 0.07
1 1.77 177 0.685 -9.127 4.180 -0.458 1.556 1.709 -929.994 -1154.998 -3719.977 0.076 0.221 -0.162 -0.09 0.54 -0.84 0.07
1 1.78 178 0.594 -9.089 4.065 -0.916 1.770 1.892 -929.994 -1154.998 -3719.977 0.164 0.183 -0.046 -0.09 0.54 -0.84 0.07
1 1.79 179 0.608 -9.060 4.056 -0.977 1.740 1.953 -839.903 -944.984 -3584.915 0.141 0.154 -0.035 -0.09 0.54 -0.84 0.07
1 1.80 180 0.503 -9.046 3.998 -1.404 1.099 1.892 -869.883 -1064.906 -3704.986 0.242 0.139 0.022 -0.09 0.54 -0.84 0.07
1 1.81 181 0.579 -9.022 4.065 -1.556 0.305 1.892 -869.883 -1064.906 -3704.986 0.162 0.115 -0.046 -0.09 0.54 -0.84 0.07
1 1.82 182 0.781 -9.050 3.965 -0.854 -0.031 1.495 -899.864 -1154.998 -3569.924 -0.043 0.143 0.054 -0.09 0.54 -0.84 0.07
1 1.83 183 0.651 -8.940 3.922 -1.740 0.214 1.526 -899.864 -1154.998 -3569.924 0.086 0.033 0.097 -0.09 0.54 -0.84 0.07
1 1.84 184 0.694 -9.084 4.032 -1.099 -0.122 1.007 -794.932 -1064.906 -3659.866 0.042 0.176 -0.014 -0.09 0.54 -0.84 0.07
1 1.85 185 0.579 -9.022 3.936 -1.312 0.275 0.732 -794.932 -1064.906 -3659.866 0.156 0.113 0.080 -0.09 0.54 -0.84 0.07
1 1.86 186 0.623 -9.132 3.936 -0.793 0.031 1.099 -854.893 -1004.945 -3599.905 0.111 0.222 0.079 -0.09 0.54 -0.84 0.07
1 1.87 187 0.733 -9.132 4.013 -1.526 -0.702 1.221 -779.942 -1049.916 -3794.928 0.000 0.222 0.002 -0.09 0.54 -0.84 0.07
1 1.88 188 0.713 -9.175 3.946 -1.404 -0.061 1.404 -779.942 -1049.916 -3794.928 0.019 0.265 0.069 -0.09 0.54 -0.84 0.07
1 1.89 189 0.694 -9.089 4.056 -1.007 0.275 1.038 -869.883 -1139.857 -3704.986 0.039 0.178 -0.042 -0.09 0.54 -0.84 0.07
1 1.90 190 0.747 -9.007 4.008 -0.763 1.221 0.763 -989.955 -1064.906 -3734.967 -0.015 0.097 0.005 -0.09 0.54 -0.84 0.07
1 1.91 191 0.694 -8.955 4.104 -0.366 1.251 0.854 -764.952 -914.854 -3764.947 0.036 0.043 -0.092 -0.09 0.54 -0.84 0.07
1 1.92 192 0.718 -9.012 4.027 -0.793 0.641 1.221 -764.952 -914.854 -3764.947 0.010 0.101 -0.014 -0.09 0.54 -0.84 0.07
1 1.93 193 0.656 -9.137 4.008 -1.068 1.160 1.129 -839.903 -989.955 -3659.866 0.071 0.226 0.005 -0.09 0.54 -0.84 0.07
1 1.94 194 0.814 -9.132 3.994 -0.458 0.732 2.045 -839.903 -1019.936 -3659.866 -0.092 0.220 0.018 -0.09 0.54 -0.84 0.07
1 1.95 195 0.766 -9.003 4.018 -0.427 1.007 2.289 -839.903 -1019.936 -3659.866 -0.047 0.090 -0.006 -0.09 0.54 -0.84 0.07
1 1.96 196 0.603 -9.079 4.013 -0.885 1.495 2.167 -929.994 -1004.945 -3794.928 0.113 0.167 -0.001 -0.09 0.54 -0.84 0.07
1 1.97 197 0.723 -9.012 3.994 -0.610 1.068 2.350 -764.952 -1064.906 -3704.986 -0.011 0.099 0.018 -0.09 0.54 -0.84 0.07
1 1.98 198 0.618 -9.036 4.104 -0.031 0.793 1.556 -734.971 -1019.936 -3809.918 0.090 0.123 -0.091 -0.09 0.54 -0.84 0.07
1 1.99 199 0.532 -8.935 3.946 -0.366 -0.061 1.251 -734.971 -1019.936 -3809.918 0.174 0.023 0.068 -0.09 0.54 -0.84 0.07
1 2.00 200 0.699 -9.127 4.022 -0.488 -0.458 0.946 -779.942 -1004.945 -3824.908 0.003 0.215 -0.008 -0.09 0.54 -0.84 0.07
1 2.01 201 0.699 -9.060 3.970 -0.732 -0.214 0.580 -899.864 -1049.916 -3719.977 0.003 0.147 0.044 -0.09 0.54 -0.84 0.07
1 2.02 202 0.646 -9.122 4.080 -1.587 -0.092 1.068 -899.864 -1049.916 -3719.977 0.056 0.209 -0.066 -0.09 0.54 -0.84 0.07
1 2.03 203 0.685 -8.998 4.070 -1.923 -0.336 0.824 -734.971 -1214.958 -3659.866 0.017 0.085 -0.057 -0.08 0.54 -0.84 0.07
1 2.04 204 0.599 -8.902 4.022 -1.801 0.702 1.190 -794.932 -1019.936 -3629.885 0.102 -0.011 -0.010 -0.08 0.54 -0.84 0.07
1 2.05 205 0.728 -9.007 4.003 -2.380 0.183 0.458 -764.952 -1019.936 -3734.967 -0.028 0.093 0.008 -0.08 0.54 -0.84 0.07
1 2.06 206 0.656 -9.050 4.156 -2.228 1.160 0.610 -764.952 -1019.936 -3734.967 0.044 0.135 -0.147 -0.08 0.54 -0.84 0.07
1 2.07 207 0.642 -9.103 4.070 -1.770 1.892 1.617 -899.864 -1004.945 -3644.875 0.057 0.187 -0.064 -0.08 0.54 -0.84 0.07
1 2.08 208 0.565 -9.074 4.051 -2.258 2.136 1.740 -704.991 -1004.945 -3794.928 0.129 0.156 -0.048 -0.08 0.54 -0.84 0.07
1 2.09 209 0.627 -9.079 3.836 -2.167 2.136 1.343 -704.991 -1004.945 -3794.928 0.064 0.160 0.166 -0.08 0.54 -0.84 0.06
1 2.10 210 0.608 -9.132 3.907 -2.625 2.167 1.648 -794.932 -944.984 -3764.947 0.080 0.212 0.092 -0.08 0.54 -0.84 0.06
1 2.11 211 0.733 -9.070 4.046 -1.892 2.106 1.709 -839.903 -1064.906 -3704.986 -0.048 0.148 -0.049 -0.08 0.54 -0.84 0.06
1 2.12 212 0.709 -9.026 4.003 -2.045 2.075 2.014 -869.883 -1064.906 -3704.986 -0.027 0.104 -0.008 -0.08 0.54 -0.84 0.06
1 2.13 213 0.623 -9.127 3.984 -1.587 2.228 2.136 -869.883 -1064.906 -3704.986 0.055 0.203 0.009 -0.08 0.54 -0.84 0.06
1 2.14 214 0.642 -9.103 3.989 -1.740 2.594 2.380 -839.903 -1169.988 -3809.918 0.032 0.178 0.003 -0.08 0.54 -0.84 0.06
1 2.15 215 0.570 -9.108 4.022 -1.892 3.113 2.075 -749.961 -959.975 -3719.977 0.096 0.181 -0.034 -0.08 0.54 -0.84 0.06
1 2.16 216 0.694 -9.022 4.252 -2.258 2.899 2.045 -749.961 -959.975 -3719.977 -0.033 0.094 -0.265 -0.08 0.54 -0.84 0.06
1 2.17 217 0.666 -8.926 4.046 -2.472 4.303 2.319 -869.883 -989.955 -3839.898 -0.009 -0.003 -0.060 -0.08 0.54 -0.84 0.06
1 2.18 218 0.570 -9.055 4.003 -2.777 5.127 1.648 -764.952 -1019.936 -3554.934 0.082 0.126 -0.019 -0.08 0.54 -0.84 0.06
1 2.19 219 0.594 -8.935 4.147 -2.502 6.378 1.251 -690.000 -1139.857 -3839.898 0.053 0.005 -0.164 -0.08 0.54 -0.84 0.06
1 2.20 220 0.579 -9.017 3.927 -3.571 7.233 0.153 -690.000 -1139.857 -3839.898 0.063 0.085 0.055 -0.08 0.54 -0.84 0.06
1 2.21 221 0.704 -9.113 4.037 -3.815 8.545 0.458 -779.942 -1079.896 -3674.856 -0.065 0.180 -0.057 -0.08 0.54 -0.84 0.06
1 2.22 222 0.704 -9.184 4.176 -3.448 10.559 0.488 -704.991 -1049.916 -3794.928 -0.071 0.250 -0.199 -0.08 0.54 -0.84 0.06
1 2.23 223 0.536 -9.141 4.008 -1.678 13.367 0.092 -704.991 -1049.916 -3794.928 0.084 0.204 -0.036 -0.08 0.54 -0.84 0.06
1 2.24 224 0.642 -9.204 3.975 -0.549 14.801 -0.702 -839.903 -1169.988 -3734.967 -0.029 0.266 -0.002 -0.08 0.54 -0.84 0.06
1 2.25 225 0.546 -9.161 4.018 -0.153 15.686 -2.289 -629.890 -1124.867 -3749.957 0.060 0.223 -0.044 -0.08 0.54 -0.84 0.06
1 2.26 226 0.340 -9.108 3.946 0.427 14.618 -2.899 -659.870 -1019.936 -3509.963 0.260 0.171 0.031 -0.07 0.54 -0.84 0.06
1 2.27 227 0.287 -9.170 3.946 -1.373 15.350 -3.571 -659.870 -1019.936 -3509.963 0.307 0.234 0.033 -0.07 0.54 -0.84 0.06
1 2.28 228 0.182 -9.366 3.941 -1.129 15.045 -2.991 -794.932 -1019.936 -3704.986 0.405 0.430 0.038 -0.07 0.54 -0.84 0.06
1 2.29 229 0.168 -9.223 3.965 0.977 13.458 -3.479 -749.961 -1004.945 -3599.905 0.413 0.286 0.014 -0.07 0.54 -0.84 0.06
1 2.30 230 0.101 -9.204 3.845 2.167 11.749 -2.594 -749.961 -1004.945 -3599.905 0.466 0.268 0.140 -0.07 0.54 -0.84 0.06
1 2.31 231 0.196 -9.237 3.864 1.862 10.407 -1.953 -779.942 -959.975 -3749.957 0.364 0.303 0.125 -0.07 0.54 -0.84 0.05
1 2.32 232 0.273 -9.127 4.065 2.380 10.620 -0.885 -734.971 -989.955 -3629.885 0.282 0.194 -0.074 -0.07 0.54 -0.84 0.05
1 2.33 233 0.292 -9.242 3.922 2.228 11.078 -0.427 -734.971 -989.955 -3629.885 0.255 0.311 0.075 -0.07 0.54 -0.84 0.05
1 2.34 234 0.283 -9.194 3.864 2.686 12.054 0.427 -584.919 -1019.936 -3734.967 0.257 0.264 0.136 -0.07 0.54 -0.84 0.05
1 2.35 235 0.057 -8.931 3.735 3.052 11.169 0.488 -674.860 -1124.867 -3719.977 0.473 0.002 0.270 -0.07 0.54 -0.84 0.05
1 2.36 236 0.101 -9.060 3.960 2.747 9.369 0.916 -659.870 -1094.887 -3734.967 0.420 0.133 0.049 -0.07 0.54 -0.84 0.05
1 2.37 237 -0.081 -9.060 3.840 1.678 7.599 1.312 -659.870 -1094.887 -3734.967 0.583 0.135 0.176 -0.06 0.54 -0.84 0.05
1 2.38 238 0.077 -9.156 3.826 1.740 5.341 1.404 -794.932 -1064.906 -3764.947 0.415 0.231 0.192 -0.06 0.54 -0.84 0.05
1 2.39 239 0.091 -9.180 3.845 4.486 5.127 0.977 -659.870 -1094.887 -3809.918 0.393 0.256 0.176 -0.06 0.54 -0.84 0.05
1 2.40 240 0.168 -9.050 3.769 5.188 4.395 1.312 -659.870 -1094.887 -3809.918 0.310 0.129 0.259 -0.06 0.54 -0.84 0.05
1 2.41 241 0.230 -9.003 3.869 4.059 2.930 2.136 -779.942 -929.994 -3674.856 0.241 0.084 0.165 -0.06 0.54 -0.84 0.05
1 2.42 242 0.268 -8.878 3.907 4.211 1.312 3.571 -614.899 -1259.929 -3944.980 0.197 -0.038 0.133 -0.06 0.54 -0.84 0.05
1 2.43 243 0.220 -9.050 3.941 4.669 0.275 3.662 -674.860 -929.994 -3599.905 0.238 0.136 0.105 -0.06 0.54 -0.84 0.05
1 2.44 244 0.215 -9.036 3.989 6.195 -0.763 4.242 -674.860 -929.994 -3599.905 0.231 0.128 0.071 -0.06 0.54 -0.84 0.05
1 2.45 245 0.067 -9.103 4.037 6.195 -1.068 5.066 -599.909 -1124.867 -3674.856 0.372 0.198 0.032 -0.06 0.54 -0.84 0.05
1 2.46 246 0.019 -9.017 4.013 7.385 -3.052 6.195 -584.919 -1064.906 -3764.947 0.411 0.116 0.065 -0.06 0.54 -0.84 0.05
1 2.47 247 0.014 -9.084 4.037 8.209 -5.920 7.660 -584.919 -1064.906 -3764.947 0.407 0.187 0.051 -0.06 0.54 -0.84 0.05
1 2.48 248 0.134 -9.055 4.247 8.301 -10.254 8.392 -629.890 -1049.916 -3854.889 0.279 0.163 -0.148 -0.06 0.54 -0.84 0.05
1 2.49 249 0.187 -9.050 4.281 9.064 -11.963 8.270 -539.948 -1064.906 -3659.866 0.219 0.164 -0.170 -0.06 0.54 -0.84 0.06
1 2.50 250 0.177 -9.175 4.410 9.033 -14.710 7.660 -584.919 -1064.906 -3734.967 0.223 0.294 -0.287 -0.06 0.53 -0.84 0.06
1 2.51 251 0.225 -9.477 4.683 8.637 -15.717 5.463 -584.919 -1064.906 -3734.967 0.172 0.601 -0.547 -0.06 0.53 -0.84 0.06
1 2.52 252 0.158 -9.596 4.645 11.200 -21.027 2.106 -674.860 -1049.916 -3794.928 0.244 0.733 -0.482 -0.06 0.53 -0.84 0.06
1 2.53 253 0.206 -9.606 4.875 15.595 -26.062 -0.977 -584.919 -1214.958 -3704.986 0.208 0.752 -0.695 -0.06 0.53 -0.84 0.06
1 2.54 254 0.177 -9.419 4.688 17.029 -30.365 -4.578 -584.919 -1214.958 -3704.986 0.255 0.577 -0.485 -0.06 0.53 -0.84 0.06
1 2.55 255 0.374 -9.481 4.554 18.555 -32.593 -5.737 -584.919 -1214.958 -3734.967 0.084 0.651 -0.328 -0.07 0.53 -0.84 0.06
1 2.56 256 0.426 -9.218 4.506 23.621 -38.666 -2.716 -794.932 -1139.857 -3659.866 0.058 0.402 -0.255 -0.07 0.53 -0.84 0.06
1 2.57 257 0.699 -9.165 4.209 27.557 -42.114 -0.153 -614.899 -1214.958 -3764.947 -0.187 0.365 0.072 -0.07 0.53 -0.85 0.06
1 2.58 258 1.188 -9.180 4.204 27.527 -44.983 3.693 -614.899 -1214.958 -3764.947 -0.647 0.397 0.110 -0.07 0.52 -0.85 0.07
1 2.59 259 1.829 -9.098 4.013 27.863 -43.121 9.827 -690.000 -1289.910 -3839.898 -1.233 0.351 0.365 -0.08 0.52 -0.85 0.07
1 2.60 260 2.322 -8.964 3.874 29.450 -39.063 13.336 -764.952 -1019.936 -3764.947 -1.702 0.234 0.535 -0.08 0.52 -0.85 0.07
1 2.61 261 2.504 -8.974 3.960 29.266 -32.623 13.428 -764.952 -1019.936 -3764.947 -1.863 0.261 0.481 -0.08 0.52 -0.85 0.07
1 2.62 262 2.586 -8.988 3.769 30.945 -25.818 12.299 -839.903 -1289.910 -3764.947 -1.926 0.294 0.706 -0.09 0.51 -0.85 0.08
1 2.63 263 2.514 -8.912 3.812 29.602 -22.156 8.545 -929.994 -1304.900 -3929.990 -1.838 0.236 0.696 -0.09 0.51 -0.85 0.08
1 2.64 264 2.629 -8.883 3.812 26.581 -20.050 4.364 -944.984 -1409.981 -3764.947 -1.935 0.226 0.729 -0.09 0.51 -0.85 0.08
1 2.65 265 2.519 -8.955 4.109 22.949 -17.853 -1.251 -944.984 -1409.981 -3764.947 -1.803 0.315 0.462 -0.09 0.51 -0.85 0.08
1 2.66 266 2.112 -9.117 4.377 18.768 -15.259 -8.423 -839.903 -1364.861 -3839.898 -1.369 0.494 0.219 -0.09 0.51 -0.85 0.08
1 2.67 267 1.580 -9.137 3.931 15.778 -12.573 -23.682 -794.932 -1259.929 -3915.000 -0.764 0.539 0.701 -0.09 0.5 -0.85 0.08
1 2.68 268 1.264 -9.041 3.433 24.780 -12.024 -26.520 -794.932 -1259.929 -3915.000 -0.400 0.458 1.217 -0.1 0.5 -0.86 0.08
1 2.69 269 1.298 -9.026 3.539 23.712 -12.695 -22.492 -794.932 -1439.962 -3915.000 -0.387 0.461 1.136 -0.1 0.5 -0.86 0.08
1 2.70 270 1.384 -9.003 3.726 16.571 -13.184 -18.707 -869.883 -1364.861 -3734.967 -0.432 0.453 0.968 -0.1 0.5 -0.86 0.07
1 2.71 271 1.504 -8.907 3.548 12.756 -10.681 -12.878 -1034.926 -1424.972 -3854.889 -0.515 0.368 1.157 -0.1 0.5 -0.86 0.07
1 2.72 272 1.561 -9.012 3.165 14.587 -8.362 -9.766 -1034.926 -1424.972 -3854.889 -0.541 0.481 1.549 -0.1 0.5 -0.86 0.07
1 2.73 273 1.762 -8.983 3.170 17.090 -7.843 -6.226 -929.994 -1469.942 -3929.990 -0.718 0.461 1.553 -0.1 0.5 -0.86 0.07
1 2.74 274 1.915 -8.787 3.223 17.975 -5.585 -2.899 -989.955 -1484.933 -3989.951 -0.834 0.282 1.524 -0.11 0.5 -0.86 0.07
1 2.75 275 2.040 -8.730 3.251 15.442 -2.716 -1.617 -989.955 -1484.933 -3989.951 -0.943 0.234 1.508 -0.11 0.5 -0.86 0.07
1 2.76 276 1.891 -8.811 3.108 14.221 1.923 0.336 -1064.906 -1484.933 -3989.951 -0.784 0.322 1.662 -0.11 0.5 -0.86 0.07
1 2.77 277 1.853 -8.763 3.089 14.740 5.829 2.838 -1064.906 -1484.933 -3989.951 -0.742 0.280 1.690 -0.11 0.49 -0.86 0.07
1 2.78 278 1.987 -8.663 3.122 16.235 7.568 4.456 -1034.926 -1499.923 -3824.908 -0.879 0.185 1.668 -0.11 0.49 -0.86 0.07
1 2.79 279 2.050 -8.533 3.160 13.947 8.392 4.028 -1034.926 -1499.923 -3824.908 -0.945 0.062 1.642 -0.11 0.49 -0.86 0.07
1 2.80 280 2.184 -8.648 3.318 9.766 10.956 2.625 -1064.906 -1484.933 -3989.951 -1.083 0.183 1.495 -0.11 0.49 -0.86 0.07
1 2.81 281 2.227 -8.643 3.318 9.125 14.771 1.709 -989.955 -1559.884 -3915.000 -1.134 0.184 1.507 -0.1 0.49 -0.86 0.07
1 2.82 282 1.982 -8.639 3.328 11.963 21.637 2.533 -989.955 -1559.884 -3915.000 -0.897 0.183 1.506 -0.1 0.49 -0.86 0.07
1 2.83 283 1.757 -8.682 3.620 11.536 22.583 3.326 -1109.877 -1499.923 -3974.960 -0.684 0.231 1.224 -0.1 0.49 -0.86 0.07
1 2.84 284 1.561 -8.562 3.788 10.559 20.996 2.716 -1109.877 -1499.923 -3974.960 -0.502 0.115 1.067 -0.1 0.49 -0.86 0.07
1 2.85 285 1.413 -8.505 3.706 9.247 19.531 -0.214 -974.965 -1499.923 -3749.957 -0.367 0.062 1.160 -0.1 0.49 -0.86 0.07
1 2.86 286 1.437 -8.572 3.591 8.881 21.607 -0.244 -974.965 -1499.923 -3749.957 -0.401 0.134 1.284 -0.1 0.49 -0.86 0.06
1 2.87 287 1.360 -8.581 3.409 3.815 26.184 1.129 -854.893 -1619.995 -3899.859 -0.336 0.148 1.476 -0.1 0.49 -0.86 0.06
1 2.88 288 1.202 -8.921 4.070 -2.014 29.480 0.427 -794.932 -1559.884 -3884.869 -0.214 0.483 0.815 -0.09 0.49 -0.86 0.06
1 2.89 289 0.843 -9.496 5.038 -6.470 28.595 -4.364 -794.932 -1559.884 -3884.869 0.128 1.052 -0.159 -0.09 0.49 -0.86 0.06
1 2.90 290 0.804 -9.702 4.726 3.510 25.391 -19.440 -899.864 -1499.923 -3899.859 0.165 1.256 0.149 -0.09 0.49 -0.86 0.06
1 2.91 291 0.560 -9.960 6.383 11.993 29.877 -19.836 -899.864 -1499.923 -3899.859 0.413 1.522 -1.496 -0.09 0.49 -0.86 0.06
1 2.92 292 -0.182 -9.625 5.593 -8.545 33.447 -32.776 -899.864 -1619.995 -3974.960 1.160 1.197 -0.689 -0.09 0.49 -0.86 0.05
1 2.93 293 -0.541 -8.955 3.721 12.268 37.384 -31.006 -899.864 -1619.995 -3974.960 1.534 0.526 1.180 -0.09 0.49 -0.86 0.05
1 2.94 294 -0.733 -8.634 3.227 19.806 39.978 -20.630 -854.893 -1574.874 -4004.941 1.735 0.214 1.686 -0.09 0.49 -0.87 0.05
1 2.95 295 -0.666 -8.418 3.137 8.514 32.806 -10.986 -779.942 -1619.995 -4049.912 1.656 0.012 1.802 -0.08 0.49 -0.87 0.04
1 2.96 296 0.833 -8.433 3.563 -3.540 4.150 -1.282 -779.942 -1619.995 -4049.912 0.118 0.026 1.384 -0.08 0.49 -0.87 0.04
1 2.97 297 2.145 -8.921 4.626 -12.695 -7.324 -2.106 -764.952 -1589.864 -3944.980 -1.195 0.506 0.306 -0.08 0.49 -0.87 0.04
1 2.98 298 3.251 -9.098 5.646 -8.240 -7.965 -5.035 -764.952 -1589.864 -3944.980 -2.286 0.673 -0.735 -0.08 0.49 -0.87 0.04
1 2.99 299 3.520 -8.864 6.225 4.883 -0.092 -11.871 -794.932 -1514.913 -3989.951 -2.534 0.436 -1.321 -0.08 0.49 -0.87 0.04
1 3.00 300 3.017 -8.653 6.503 13.886 13.336 -26.306 -690.000 -1589.864 -4019.931 -2.014 0.234 -1.588 -0.08 0.49 -0.87 0.04
1 3.01 301 2.385 -8.500 6.364 13.702 13.886 -26.733 -704.991 -1649.975 -3974.960 -1.359 0.095 -1.429 -0.08 0.49 -0.87 0.04
1 3.02 302 2.006 -8.476 5.943 9.186 10.284 -20.935 -869.883 -1589.864 -3915.000 -0.955 0.087 -0.987 -0.08 0.49 -0.87 0.04
1 3.03 303 1.619 -8.706 5.976 -0.397 8.331 -13.733 -869.883 -1589.864 -3915.000 -0.523 0.340 -0.991 -0.08 0.49 -0.87 0.03
1 3.04 304 1.695 -8.686 5.751 -5.737 12.421 -4.364 -854.893 -1619.995 -3899.859 -0.591 0.322 -0.765 -0.08 0.49 -0.87 0.03
1 3.05 305 1.614 -8.710 5.722 -7.751 17.426 3.143 -854.893 -1619.995 -3899.859 -0.514 0.345 -0.738 -0.08 0.49 -0.87 0.03
1 3.06 306 1.480 -8.840 5.603 -12.421 19.898 6.561 -704.991 -1469.942 -3824.908 -0.395 0.469 -0.623 -0.08 0.49 -0.87 0.03
1 3.07 307 1.398 -8.979 5.382 -17.059 18.463 6.866 -749.961 -1574.874 -3929.990 -0.335 0.598 -0.414 -0.08 0.49 -0.87 0.03
1 3.08 308 1.135 -9.180 5.531 -13.855 18.951 4.669 -674.860 -1574.874 -3854.889 -0.093 0.787 -0.580 -0.08 0.49 -0.87 0.03
1 3.09 309 0.948 -8.969 5.756 -12.695 21.240 3.235 -704.991 -1574.874 -4004.941 0.075 0.565 -0.819 -0.08 0.49 -0.87 0.03
1 3.10 310 0.699 -8.835 5.583 -14.923 25.635 4.883 -704.991 -1574.874 -4004.941 0.305 0.422 -0.658 -0.08 0.49 -0.87 0.03
1 3.11 311 0.081 -9.117 5.330 -20.081 31.036 7.965 -674.860 -1649.975 -3899.859 0.864 0.683 -0.431 -0.07 0.49 -0.87 0.03
1 3.12 312 -0.220 -9.290 5.378 -21.057 33.386 9.979 -674.860 -1649.975 -3899.859 1.126 0.839 -0.499 -0.07 0.5 -0.86 0.03
1 3.13 313 -0.407 -9.084 5.320 -18.463 33.386 13.092 -629.890 -1619.995 -3824.908 1.266 0.616 -0.462 -0.07 0.5 -0.86 0.03
1 3.14 314 -0.436 -9.084 5.387 -16.907 34.180 16.235 -734.971 -1514.913 -3944.980 1.243 0.601 -0.546 -0.06 0.5 -0.86 0.03
1 3.15 315 -0.259 -8.663 5.497 -16.815 33.325 21.454 -674.860 -1619.995 -3974.960 1.009 0.166 -0.671 -0.06 0.5 -0.86 0.03
1 3.16 316 -0.335 -8.505 5.315 -16.449 32.349 22.675 -614.899 -1559.884 -3764.947 1.025 -0.005 -0.504 -0.06 0.5 -0.86 0.03
1 3.17 317 -0.278 -8.390 5.425 -16.998 31.250 22.461 -614.899 -1559.884 -3764.947 0.908 -0.132 -0.627 -0.05 0.5 -0.86 0.03
1 3.18 318 -0.273 -8.078 5.176 -13.733 27.954 20.142 -464.997 -1364.861 -3989.951 0.788 -0.466 -0.406 -0.05 0.5 -0.86 0.03
1 3.19 319 -0.072 -7.791 5.311 -12.512 26.276 18.524 -464.997 -1364.861 -3989.951 0.536 -0.762 -0.550 -0.04 0.51 -0.86 0.03
1 3.20 320 0.148 -7.710 5.311 -14.740 25.818 15.533 -704.991 -1544.894 -3824.908 0.270 -0.851 -0.559 -0.04 0.51 -0.86 0.03
1 3.21 321 0.201 -7.571 5.229 -17.487 28.290 10.254 -629.890 -1379.851 -3794.928 0.178 -0.998 -0.489 -0.04 0.51 -0.86 0.03
1 3.22 322 -0.220 -7.896 5.004 -18.860 35.065 1.648 -419.876 -1469.942 -3824.908 0.566 -0.682 -0.278 -0.04 0.51 -0.86 0.03
1 3.23 323 -0.828 -7.954 4.755 -17.883 36.682 -4.913 -569.929 -1469.942 -3749.957 1.143 -0.635 -0.046 -0.03 0.51 -0.86 0.03
1 3.24 324 -1.264 -8.131 4.578 -16.480 31.677 -8.850 -569.929 -1469.942 -3749.957 1.553 -0.468 0.114 -0.03 0.51 -0.86 0.03
1 3.25 325 -1.111 -8.256 4.774 -15.503 22.400 -8.881 -419.876 -1379.851 -3824.908 1.362 -0.363 -0.117 -0.03 0.51 -0.86 0.02
1 3.26 326 -0.603 -8.562 4.789 -19.714 13.214 -8.759 -419.876 -1379.851 -3824.908 0.844 -0.068 -0.151 -0.03 0.51 -0.86 0.02
1 3.27 327 -0.354 -8.567 4.947 -17.181 12.512 -9.369 -374.906 -1424.972 -3794.928 0.591 -0.075 -0.332 -0.03 0.51 -0.86 0.02
1 3.28 328 -0.493 -8.500 4.951 -8.545 13.977 -9.033 -269.974 -1424.972 -3749.957 0.728 -0.151 -0.353 -0.03 0.51 -0.86 0.02
1 3.29 329 -0.608 -7.973 4.932 -0.519 13.275 -8.423 -359.916 -1364.861 -3884.869 0.842 -0.680 -0.338 -0.03 0.51 -0.86 0.02
1 3.30 330 -0.833 -7.748 5.018 -4.059 9.949 -4.456 -389.896 -1439.962 -3629.885 1.063 -0.903 -0.420 -0.02 0.51 -0.86 0.02
1 3.31 331 -0.804 -7.762 5.014 -9.399 6.500 -1.129 -389.896 -1439.962 -3629.885 1.028 -0.888 -0.414 -0.02 0.51 -0.86 0.02
1 3.32 332 -0.761 -7.906 4.899 -13.306 5.676 0.854 -299.955 -1379.851 -3644.875 0.962 -0.752 -0.313 -0.02 0.52 -0.86 0.02
1 3.33 333 -0.785 -8.107 4.971 -11.902 5.859 2.533 -299.955 -1379.851 -3644.875 0.972 -0.558 -0.396 -0.02 0.52 -0.86 0.02
1 3.34 334 -1.049 -8.208 4.846 -5.676 7.172 5.798 -524.958 -1349.871 -3599.905 1.219 -0.462 -0.280 -0.02 0.52 -0.86 0.02
1 3.35 335 -1.159 -8.059 4.875 -3.235 7.477 9.125 -434.867 -1259.929 -3704.986 1.308 -0.612 -0.311 -0.02 0.52 -0.86 0.02
1 3.36 336 -1.255 -7.954 4.980 -8.362 7.813 11.200 -359.916 -1439.962 -3734.967 1.377 -0.718 -0.416 -0.02 0.52 -0.86 0.02
1 3.37 337 -1.403 -8.275 4.942 -12.024 6.256 11.414 -389.896 -1439.962 -3734.967 1.495 -0.399 -0.382 -0.02 0.52 -0.86 0.02
1 3.38 338 -1.255 -8.346 4.789 -13.855 4.242 12.238 -389.896 -1439.962 -3734.967 1.317 -0.333 -0.238 -0.02 0.52 -0.86 0.02
1 3.39 339 -1.087 -8.294 4.410 -10.407 3.265 11.902 -269.974 -1274.919 -3719.977 1.119 -0.393 0.126 -0.02 0.52 -0.85 0.02
1 3.40 340 -1.178 -8.145 4.228 -5.615 0.854 8.545 -269.974 -1274.919 -3719.977 1.160 -0.552 0.288 -0.01 0.52 -0.85 0.02
1 3.41 341 -1.207 -8.117 4.046 -7.751 -0.793 3.845 -344.925 -1379.851 -3674.856 1.171 -0.584 0.463 -0.01 0.52 -0.85 0.02
1 3.42 342 -1.374 -8.279 3.984 -11.414 -2.472 0.763 -284.964 -1334.880 -3659.866 1.327 -0.427 0.514 -0.01 0.52 -0.85 0.03
1 3.43 343 -1.346 -8.437 3.730 -15.259 -5.066 -1.648 -284.964 -1334.880 -3659.866 1.291 -0.278 0.750 -0.01 0.52 -0.85 0.03
1 3.44 344 -1.293 -8.538 3.419 -14.130 -11.292 -0.977 -344.925 -1349.871 -3644.875 1.236 -0.189 1.039 -0.01 0.52 -0.85 0.03
1 3.45 345 -1.044 -8.481 3.438 -13.214 -16.907 -0.519 -344.925 -1349.871 -3644.875 0.986 -0.258 0.996 -0.01 0.52 -0.85 0.03
1 3.46 346 -0.838 -8.284 3.314 -11.505 -20.447 -0.763 -269.974 -1349.871 -3794.928 0.783 -0.466 1.098 -0.01 0.52 -0.85 0.03
1 3.47 347 -0.527 -8.155 3.189 -10.468 -22.461 -0.763 -269.974 -1349.871 -3794.928 0.490 -0.614 1.185 -0.02 0.53 -0.85 0.03
1 3.48 348 -0.436 -8.021 3.141 -14.496 -22.125 0.031 -374.906 -1199.968 -3644.875 0.416 -0.756 1.217 -0.02 0.53 -0.85 0.03
1 3.49 349 -0.522 -8.097 3.084 -15.381 -22.034 1.038 -374.906 -1349.871 -3749.957 0.518 -0.689 1.256 -0.02 0.53 -0.85 0.03
1 3.50 350 -0.690 -8.332 3.089 -15.076 -22.095 -0.488 -374.906 -1349.871 -3749.957 0.700 -0.464 1.232 -0.02 0.53 -0.85 0.03
1 3.51 351 -0.838 -8.495 3.443 -15.808 -23.316 -1.190 -374.906 -1274.919 -3719.977 0.863 -0.313 0.854 -0.02 0.53 -0.85 0.03
1 3.52 352 -1.092 -8.715 3.352 -14.191 -26.550 0.244 -359.916 -1334.880 -3584.915 1.128 -0.104 0.920 -0.02 0.53 -0.85 0.03
1 3.53 353 -0.929 -9.003 3.639 -14.740 -28.046 1.068 -464.997 -1334.880 -3629.885 0.975 0.172 0.609 -0.02 0.53 -0.85 0.04
1 3.54 354 -0.852 -9.007 3.462 -14.374 -28.168 3.235 -464.997 -1334.880 -3629.885 0.908 0.165 0.762 -0.03 0.53 -0.85 0.04
1 3.55 355 -0.297 -9.070 3.869 -10.742 -26.093 9.033 -434.867 -1259.929 -3734.967 0.363 0.206 0.310 -0.03 0.53 -0.84 0.04
1 3.56 356 0.077 -9.194 3.946 -14.008 -23.590 12.085 -434.867 -1289.910 -3764.947 -0.011 0.322 0.216 -0.03 0.54 -0.84 0.04
1 3.57 357 0.560 -9.208 3.816 -17.914 -22.278 14.496 -434.867 -1289.910 -3764.947 -0.497 0.326 0.324 -0.03 0.54 -0.84 0.04
1 3.58 358 0.924 -9.208 3.941 -14.710 -20.325 8.453 -584.919 -1169.988 -3629.885 -0.864 0.314 0.174 -0.03 0.54 -0.84 0.04
1 3.59 359 0.967 -9.314 3.984 -12.726 -17.304 2.045 -584.919 -1169.988 -3629.885 -0.903 0.410 0.109 -0.03 0.54 -0.84 0.05
1 3.60 360 1.049 -9.572 4.018 -11.414 -14.313 -3.754 -524.958 -1274.919 -3644.875 -0.970 0.660 0.056 -0.04 0.54 -0.84 0.05
1 3.61 361 0.905 -9.721 4.037 -10.986 -12.543 -6.897 -524.958 -1274.919 -3644.875 -0.806 0.801 0.020 -0.04 0.54 -0.84 0.05
1 3.62 362 0.263 -9.979 4.607 -8.759 -11.658 -10.315 -539.948 -1214.958 -3659.866 -0.116 1.046 -0.580 -0.04 0.54 -0.84 0.05
1 3.63 363 0.350 -11.124 6.072 -15.350 -11.658 -7.996 -539.948 -1169.988 -3449.853 -0.179 2.186 -2.057 -0.04 0.54 -0.84 0.05
1 3.64 364 0.493 -11.852 6.105 -30.029 -9.430 2.075 -539.948 -1169.988 -3449.853 -0.307 2.902 -2.117 -0.04 0.54 -0.84 0.05
1 3.65 365 0.469 -11.943 6.283 -13.153 -5.219 11.749 -659.870 -1214.958 -3629.885 -0.284 2.976 -2.332 -0.04 0.54 -0.84 0.05
1 3.66 366 0.881 -12.479 6.254 -9.155 -5.188 26.764 -464.997 -1169.988 -3704.986 -0.712 3.507 -2.315 -0.04 0.55 -0.84 0.05
1 3.67 367 0.651 -10.511 4.018 3.906 -4.669 30.365 -614.899 -1169.988 -3509.963 -0.511 1.535 -0.088 -0.04 0.55 -0.84 0.05
1 3.68 368 0.000 -9.960 3.419 11.292 -3.448 17.273 -614.899 -1169.988 -3509.963 0.102 0.983 0.510 -0.04 0.55 -0.84 0.05
1 3.69 369 -0.699 -9.850 3.366 -10.437 -1.221 2.197 -659.870 -1289.910 -3629.885 0.768 0.874 0.566 -0.04 0.55 -0.84 0.05
1 3.70 370 -1.484 -10.358 3.304 -24.231 -2.289 -8.667 -569.929 -1079.896 -3599.905 1.553 1.367 0.595 -0.04 0.55 -0.83 0.05
1 3.71 371 -1.164 -11.397 3.946 -27.435 -7.935 -8.637 -569.929 -1079.896 -3599.905 1.242 2.390 -0.084 -0.04 0.55 -0.83 0.05
1 3.72 372 -0.632 -11.521 4.329 -15.533 -9.216 -7.080 -539.948 -1139.857 -3584.915 0.729 2.500 -0.501 -0.04 0.55 -0.83 0.05
1 3.73 373 -0.474 -11.172 4.851 9.888 -6.836 -7.111 -539.948 -1139.857 -3584.915 0.586 2.146 -1.035 -0.04 0.55 -0.83 0.05
1 3.74 374 -0.426 -9.917 5.660 26.886 -12.817 -13.306 -659.870 -1169.988 -3509.963 0.554 0.900 -1.823 -0.04 0.55 -0.83 0.05
1 3.75 375 -0.340 -9.213 5.971 25.147 -21.698 -15.076 -659.870 -1169.988 -3509.963 0.492 0.212 -2.098 -0.04 0.55 -0.83 0.05
1 3.76 376 -0.182 -8.849 6.359 18.524 -28.168 -13.275 -539.948 -1259.929 -3449.853 0.403 -0.122 -2.422 -0.05 0.54 -0.84 0.05
1 3.77 377 -0.239 -8.605 6.149 19.959 -30.487 -10.071 -614.899 -1289.910 -3659.866 0.494 -0.355 -2.188 -0.05 0.54 -0.84 0.05
1 3.78 378 -0.388 -8.141 5.727 28.290 -32.806 -9.613 -614.899 -1289.910 -3659.866 0.674 -0.802 -1.729 -0.05 0.54 -0.84 0.06
1 3.79 379 -0.522 -7.705 5.311 32.715 -41.748 -9.979 -674.860 -1229.949 -3569.924 0.838 -1.213 -1.258 -0.06 0.54 -0.84 0.06
1 3.80 380 -0.029 -7.073 5.363 28.198 -54.138 -7.385 -794.932 -1259.929 -3554.934 0.381 -1.818 -1.256 -0.06 0.54 -0.84 0.06
1 3.81 381 0.541 -6.934 5.617 23.102 -53.436 -2.930 -794.932 -1289.910 -3584.915 -0.148 -1.932 -1.459 -0.06 0.53 -0.84 0.06
1 3.82 382 0.939 -6.757 5.550 21.881 -47.241 3.815 -794.932 -1289.910 -3584.915 -0.507 -2.086 -1.348 -0.07 0.53 -0.84 0.06
1 3.83 383 1.274 -6.862 5.631 22.125 -40.100 10.223 -824.913 -1379.851 -3464.993 -0.810 -1.959 -1.388 -0.07 0.53 -0.84 0.06
1 3.84 384 1.513 -7.207 5.445 17.090 -34.363 17.792 -869.883 -1139.857 -3704.986 -1.021 -1.580 -1.133 -0.07 0.52 -0.85 0.07
1 3.85 385 1.810 -7.767 5.603 7.996 -29.389 19.714 -869.883 -1139.857 -3704.986 -1.312 -1.005 -1.261 -0.07 0.52 -0.85 0.07
1 3.86 386 1.714 -8.198 5.631 2.625 -23.010 17.456 -914.854 -1214.958 -3554.934 -1.214 -0.565 -1.273 -0.08 0.52 -0.85 0.07
1 3.87 387 1.547 -8.524 5.076 9.369 -17.883 13.489 -824.913 -1379.851 -3644.875 -1.044 -0.233 -0.704 -0.08 0.52 -0.85 0.08
1 3.88 388 1.178 -8.332 5.066 26.428 -22.217 7.019 -944.984 -1334.880 -3584.915 -0.671 -0.413 -0.672 -0.08 0.52 -0.85 0.08
1 3.89 389 1.255 -8.078 5.315 22.522 -28.229 3.632 -944.984 -1334.880 -3584.915 -0.739 -0.648 -0.885 -0.08 0.52 -0.85 0.08
1 3.90 390 1.561 -8.155 5.416 12.939 -31.860 1.221 -974.965 -1304.900 -3644.875 -1.028 -0.552 -0.949 -0.08 0.52 -0.85 0.08
1 3.91 391 1.609 -8.284 5.071 5.585 -30.304 -1.984 -869.883 -1409.981 -3554.934 -1.019 -0.398 -0.564 -0.08 0.51 -0.85 0.08
1 3.92 392 1.877 -8.758 4.626 7.019 -24.628 -4.608 -869.883 -1409.981 -3554.934 -1.255 0.083 -0.110 -0.09 0.51 -0.85 0.08
1 3.93 393 1.700 -8.907 4.415 11.078 -20.844 -3.876 -914.854 -1439.962 -3554.934 -1.046 0.239 0.111 -0.09 0.51 -0.85 0.08
1 3.94 394 1.695 -8.916 4.267 12.177 -17.212 -2.625 -974.965 -1379.851 -3644.875 -1.014 0.258 0.272 -0.09 0.51 -0.85 0.08
1 3.95 395 1.326 -8.849 3.898 10.803 -14.069 1.038 -1079.896 -1574.874 -3464.993 -0.623 0.199 0.654 -0.09 0.51 -0.85 0.08
1 3.96 396 1.523 -8.686 3.682 12.024 -15.259 1.831 -1079.896 -1574.874 -3464.993 -0.803 0.043 0.880 -0.09 0.51 -0.85 0.08
1 3.97 397 1.547 -8.586 3.601 13.702 -17.548 0.916 -929.994 -1469.942 -3674.856 -0.813 -0.051 0.971 -0.09 0.51 -0.85 0.08
1 3.98 398 2.078 -8.495 3.682 14.496 -19.653 -0.031 -929.994 -1424.972 -3599.905 -1.328 -0.135 0.900 -0.1 0.51 -0.85 0.08
1 3.99 399 2.337 -8.409 3.960 13.092 -16.693 -1.160 -929.994 -1424.972 -3599.905 -1.540 -0.204 0.646 -0.1 0.51 -0.85 0.09
1 4.00 400 2.509 -8.375 3.850 11.536 -11.475 -1.617 -1139.857 -1409.981 -3764.947 -1.687 -0.229 0.769 -0.1 0.5 -0.85 0.09
1 4.01 401 2.370 -8.332 3.802 11.841 -6.409 -2.930 -1184.978 -1379.851 -3599.905 -1.526 -0.264 0.827 -0.1 0.5 -0.85 0.09
1 4.02 402 2.169 -8.212 3.654 10.681 -3.784 -1.740 -1094.887 -1364.861 -3554.934 -1.304 -0.376 0.987 -0.1 0.5 -0.85 0.09
1 4.03 403 2.050 -8.370 3.706 11.231 -2.319 -0.519 -1094.887 -1364.861 -3554.934 -1.168 -0.211 0.943 -0.1 0.5 -0.85 0.09
1 4.04 404 2.231 -8.232 3.726 10.407 0.092 2.045 -1094.887 -1514.913 -3584.915 -1.337 -0.343 0.934 -0.1 0.5 -0.85 0.09
1 4.05 405 2.457 -8.097 3.654 8.423 3.967 4.334 -1154.998 -1499.923 -3464.993 -1.554 -0.471 1.016 -0.1 0.5 -0.85 0.09
1 4.06 406 2.476 -8.016 3.625 5.157 9.522 5.798 -1154.998 -1499.923 -3464.993 -1.568 -0.544 1.059 -0.1 0.5 -0.86 0.09
1 4.07 407 2.504 -8.064 3.587 2.716 14.496 5.737 -1079.896 -1424.972 -3539.944 -1.600 -0.495 1.101 -0.1 0.5 -0.86 0.09
1 4.08 408 2.619 -7.992 3.328 -1.923 18.280 6.195 -944.984 -1559.884 -3554.934 -1.721 -0.567 1.359 -0.1 0.5 -0.86 0.08
1 4.09 409 2.370 -8.232 3.165 -5.676 21.362 6.378 -944.984 -1559.884 -3554.934 -1.480 -0.332 1.515 -0.1 0.5 -0.86 0.08
1 4.10 410 2.610 -8.193 3.275 -7.324 25.818 5.951 -989.955 -1559.884 -3584.915 -1.731 -0.378 1.394 -0.1 0.5 -0.86 0.08
1 4.11 411 2.485 -8.174 3.491 -8.057 28.229 4.578 -1034.926 -1544.894 -3539.944 -1.620 -0.405 1.166 -0.1 0.5 -0.85 0.08
1 4.12 412 2.342 -8.265 3.453 -10.712 30.975 1.678 -1004.945 -1574.874 -3569.924 -1.489 -0.323 1.191 -0.1 0.5 -0.85 0.08
1 4.13 413 2.136 -8.169 3.390 -11.414 32.898 -1.038 -1004.945 -1574.874 -3569.924 -1.305 -0.437 1.223 -0.1 0.51 -0.85 0.08
1 4.14 414 1.714 -8.787 3.668 -14.313 33.936 -6.744 -989.955 -1514.913 -3509.963 -0.892 0.170 0.927 -0.09 0.51 -0.85 0.08
1 4.15 415 1.269 -8.998 3.893 -14.160 36.743 -13.367 -929.994 -1544.894 -3644.875 -0.452 0.369 0.681 -0.09 0.51 -0.85 0.07
1 4.16 416 0.675 -9.012 3.903 -6.928 40.131 -17.822 -929.994 -1544.894 -3644.875 0.140 0.375 0.655 -0.09 0.51 -0.85 0.07
1 4.17 417 -0.105 -8.892 3.673 2.106 37.995 -14.801 -1019.936 -1409.981 -3404.882 0.916 0.252 0.880 -0.09 0.51 -0.85 0.07
1 4.18 418 -0.306 -8.528 3.721 2.045 30.548 -13.153 -899.864 -1499.923 -3599.905 1.108 -0.112 0.833 -0.09 0.51 -0.85 0.07
1 4.19 419 -0.182 -8.260 3.888 -1.984 23.163 -11.505 -1004.945 -1544.894 -3569.924 0.972 -0.380 0.669 -0.09 0.51 -0.85 0.06
1 4.20 420 -0.187 -8.212 3.529 -8.850 17.914 -8.698 -1004.945 -1544.894 -3569.924 0.960 -0.434 1.018 -0.08 0.51 -0.85 0.06
1 4.21 421 -0.038 -8.346 3.333 -15.564 18.005 -4.761 -854.893 -1469.942 -3674.856 0.801 -0.312 1.193 -0.08 0.51 -0.85 0.06
1 4.22 422 0.072 -8.562 2.983 -21.515 25.604 2.533 -914.854 -1334.880 -3479.983 0.674 -0.113 1.514 -0.08 0.51 -0.85 0.06
1 4.23 423 -0.029 -8.380 2.543 -17.639 32.898 11.963 -914.854 -1334.880 -3479.983 0.746 -0.314 1.922 -0.08 0.52 -0.85 0.06
1 4.24 424 -0.125 -8.366 3.970 -19.013 30.060 21.362 -824.913 -1379.851 -3569.924 0.798 -0.344 0.473 -0.08 0.52 -0.85 0.06
1 4.25 425 -0.895 -9.587 7.470 -44.434 16.510 11.322 -824.913 -1424.972 -3464.993 1.520 0.864 -3.046 -0.07 0.52 -0.85 0.06
1 4.26 426 -2.069 -12.311 9.189 -90.668 -2.655 -24.872 -824.913 -1379.851 -3599.905 2.652 3.565 -4.808 -0.07 0.52 -0.85 0.06
1 4.27 427 -1.901 -12.656 5.555 -67.566 -12.939 -50.842 -824.913 -1379.851 -3599.905 2.503 3.859 -1.279 -0.07 0.53 -0.85 0.06
1 4.28 428 -0.555 -10.214 2.955 76.111 -6.744 -7.965 -824.913 -1379.851 -3494.973 1.285 1.382 1.229 -0.08 0.53 -0.84 0.05
1 4.29 429 0.479 -7.949 2.983 76.203 -0.824 16.907 -779.942 -1424.972 -3569.924 0.250 -0.833 1.304 -0.08 0.52 -0.85 0.05
1 4.30 430 1.489 -7.408 5.392 24.536 -11.017 32.898 -779.942 -1424.972 -3569.924 -0.790 -1.334 -1.019 -0.08 0.52 -0.85 0.06
1 4.31 431 3.405 -8.921 7.662 -69.702 -23.804 41.046 -899.864 -1304.900 -3464.993 -2.740 0.180 -3.282 -0.08 0.52 -0.85 0.06
1 4.32 432 6.058 -10.865 5.531 -100.434 -30.792 26.184 -824.913 -1544.894 -3539.944 -5.424 2.066 -1.263 -0.08 0.53 -0.84 0.06
1 4.33 433 6.110 -11.435 5.488 -25.696 -18.524 2.380 -824.913 -1349.871 -3539.944 -5.498 2.564 -1.368 -0.08 0.53 -0.84 0.06
1 4.34 434 4.793 -10.860 6.982 33.020 5.920 -15.747 -824.913 -1349.871 -3539.944 -4.177 1.960 -2.927 -0.08 0.54 -0.84 0.07
1 4.35 435 2.911 -9.654 7.504 33.722 20.325 -30.335 -839.903 -1364.861 -3479.983 -2.253 0.795 -3.365 -0.08 0.53 -0.84 0.06
1 4.36 436 0.881 -9.390 6.608 -10.590 8.331 -32.501 -974.965 -1349.871 -3539.944 -0.184 0.544 -2.450 -0.08 0.53 -0.84 0.06
1 4.37 437 0.546 -10.410 6.522 -28.687 1.282 -19.440 -974.965 -1349.871 -3539.944 0.188 1.557 -2.384 -0.08 0.53 -0.84 0.06
1 4.38 438 0.594 -10.741 6.196 -23.712 8.423 -6.561 -899.864 -1304.900 -3494.973 0.161 1.871 -2.097 -0.08 0.53 -0.84 0.06
1 4.39 439 0.402 -9.730 5.655 8.881 27.985 9.186 -779.942 -1154.998 -3419.872 0.351 0.851 -1.578 -0.08 0.53 -0.84 0.06
1 4.40 440 0.029 -8.907 5.665 10.437 32.776 14.404 -929.994 -1349.871 -3389.892 0.700 0.029 -1.578 -0.08 0.53 -0.84 0.06
1 4.41 441 -0.077 -8.318 5.497 1.434 30.762 17.731 -929.994 -1349.871 -3389.892 0.767 -0.553 -1.391 -0.08 0.53 -0.84 0.06
1 4.42 442 0.019 -8.222 5.176 -6.714 27.435 19.440 -749.961 -1229.949 -3464.993 0.574 -0.644 -1.043 -0.07 0.53 -0.84 0.06
1 4.43 443 0.096 -8.078 4.894 -11.566 25.543 18.372 -824.913 -1304.900 -3464.993 0.452 -0.792 -0.764 -0.07 0.53 -0.84 0.06
1 4.44 444 -0.081 -8.078 5.114 -9.705 27.771 12.207 -824.913 -1304.900 -3464.993 0.589 -0.797 -0.990 -0.07 0.53 -0.84 0.06
1 4.45 445 -0.263 -7.959 4.846 -4.730 26.856 8.301 -839.903 -1334.880 -3509.963 0.735 -0.919 -0.722 -0.06 0.53 -0.84 0.06
1 4.46 446 -0.273 -7.599 4.635 0.641 20.416 4.334 -839.903 -1214.958 -3449.853 0.713 -1.277 -0.505 -0.06 0.53 -0.84 0.06
1 4.47 447 0.048 -7.322 4.717 -2.106 10.376 -2.228 -749.961 -1349.871 -3389.892 0.372 -1.551 -0.576 -0.06 0.53 -0.84 0.06
1 4.48 448 0.283 -7.418 4.741 -7.202 11.627 -5.676 -749.961 -1349.871 -3389.892 0.132 -1.455 -0.600 -0.06 0.53 -0.84 0.06
1 4.49 449 0.220 -7.628 4.865 -9.613 17.334 -7.111 -749.961 -1274.919 -3359.911 0.195 -1.247 -0.731 -0.06 0.53 -0.84 0.05
1 4.50 450 -0.579 -7.767 4.640 -4.791 22.430 -6.165 -659.870 -1214.958 -3479.983 0.989 -1.112 -0.513 -0.06 0.53 -0.84 0.05
1 4.51 451 -0.886 -7.968 4.496 -3.937 19.226 -5.096 -659.870 -1214.958 -3479.983 1.284 -0.910 -0.367 -0.06 0.53 -0.84 0.05
1 4.52 452 -1.178 -8.160 4.473 -6.958 13.580 -3.052 -764.952 -1334.880 -3374.901 1.563 -0.719 -0.342 -0.06 0.53 -0.84 0.05
1 4.53 453 -1.302 -8.308 4.319 -7.599 10.315 0.366 -764.952 -1334.880 -3374.901 1.672 -0.573 -0.192 -0.05 0.54 -0.84 0.05
1 4.54 454 -1.355 -8.251 4.315 -4.974 9.552 7.111 -704.991 -1379.851 -3419.872 1.705 -0.633 -0.193 -0.05 0.54 -0.84 0.05
1 4.55 455 -1.274 -8.265 4.468 -3.967 9.338 9.552 -704.991 -1379.851 -3419.872 1.598 -0.621 -0.348 -0.05 0.54 -0.84 0.05
1 4.56 456 -1.202 -8.279 4.386 -4.425 8.453 10.651 -674.860 -1424.972 -3419.872 1.496 -0.608 -0.267 -0.05 0.54 -0.84 0.05
1 4.57 457 -1.101 -8.399 4.367 -5.341 4.334 12.665 -854.893 -1274.919 -3599.905 1.334 -0.491 -0.250 -0.05 0.54 -0.84 0.05
1 4.58 458 -0.761 -8.332 4.228 -6.928 -1.251 12.085 -854.893 -1274.919 -3599.905 0.965 -0.560 -0.114 -0.05 0.54 -0.84 0.05
1 4.59 459 -0.460 -8.428 4.224 -9.216 -5.066 9.583 -690.000 -1214.958 -3374.901 0.642 -0.468 -0.116 -0.05 0.54 -0.84 0.06
1 4.60 460 -0.125 -8.490 4.051 -10.132 -5.707 5.707 -690.000 -1214.958 -3374.901 0.294 -0.410 0.047 -0.05 0.54 -0.84 0.06
1 4.61 461 -0.010 -8.706 4.061 -7.019 -2.869 0.671 -599.909 -1349.871 -3239.989 0.174 -0.200 0.026 -0.05 0.54 -0.84 0.06
1 4.62 462 -0.139 -8.720 3.970 -4.608 0.122 -1.801 -599.909 -1349.871 -3239.989 0.303 -0.190 0.107 -0.05 0.54 -0.84 0.06
1 4.63 463 -0.249 -8.821 3.979 -4.730 1.007 -3.937 -599.909 -1304.900 -3389.892 0.415 -0.092 0.092 -0.05 0.54 -0.84 0.06
1 4.64 464 -0.594 -8.902 3.907 -5.920 0.671 -3.296 -539.948 -1259.929 -3404.882 0.763 -0.016 0.152 -0.05 0.54 -0.84 0.06
1 4.65 465 -0.766 -8.940 3.922 -5.096 -1.221 -1.404 -539.948 -1259.929 -3404.882 0.934 0.019 0.130 -0.05 0.54 -0.84 0.06
1 4.66 466 -0.579 -8.955 4.037 -3.174 -3.601 3.326 -629.890 -1304.900 -3464.993 0.741 0.031 0.010 -0.05 0.54 -0.84 0.06
1 4.67 467 -0.350 -8.878 3.769 -4.028 -3.876 7.385 -629.890 -1304.900 -3464.993 0.503 -0.048 0.274 -0.05 0.54 -0.84 0.06
1 4.68 468 -0.239 -8.830 3.840 -5.096 -3.876 11.688 -659.870 -1214.958 -3449.853 0.381 -0.099 0.196 -0.05 0.54 -0.84 0.06
1 4.69 469 -0.139 -8.754 3.678 -6.378 -2.991 12.268 -659.870 -1214.958 -3449.853 0.264 -0.179 0.352 -0.05 0.54 -0.84 0.06
1 4.70 470 -0.029 -8.797 3.539 -4.852 -2.106 11.688 -734.971 -1334.880 -3479.983 0.139 -0.140 0.483 -0.05 0.54 -0.84 0.06
1 4.71 471 -0.043 -8.797 3.515 -3.754 -2.563 11.047 -779.942 -1304.900 -3419.872 0.137 -0.143 0.499 -0.05 0.54 -0.84 0.06
1 4.72 472 -0.029 -8.433 3.376 -3.082 -6.439 9.705 -779.942 -1304.900 -3419.872 0.097 -0.514 0.624 -0.05 0.54 -0.84 0.06
1 4.73 473 0.029 -8.356 3.548 -2.472 -8.026 8.148 -614.899 -1364.861 -3374.901 0.031 -0.593 0.446 -0.05 0.54 -0.84 0.06
1 4.74 474 -0.105 -8.409 3.314 -4.425 -8.484 3.693 -614.899 -1364.861 -3374.901 0.160 -0.542 0.677 -0.05 0.54 -0.84 0.07
1 4.75 475 -0.297 -8.390 2.931 -5.402 -6.226 -1.709 -779.942 -1199.968 -3314.940 0.353 -0.564 1.052 -0.05 0.54 -0.84 0.07
1 4.76 476 -0.905 -8.299 2.931 -3.082 -7.172 -8.545 -704.991 -1274.919 -3284.960 0.968 -0.660 1.042 -0.05 0.54 -0.84 0.07
1 4.77 477 -0.919 -8.461 2.897 -5.676 -11.047 -9.155 -690.000 -1334.880 -3404.882 0.995 -0.500 1.069 -0.05 0.54 -0.84 0.07
1 4.78 478 -1.082 -8.461 2.926 -7.751 -14.648 -7.874 -704.991 -1304.900 -3359.911 1.170 -0.504 1.030 -0.05 0.54 -0.84 0.07
1 4.79 479 -0.876 -8.639 2.888 -8.270 -16.480 -6.805 -704.991 -1304.900 -3359.911 0.987 -0.340 1.038 -0.05 0.55 -0.83 0.07
1 4.80 480 -0.919 -8.916 3.117 -7.202 -15.533 -6.531 -539.948 -1289.910 -3404.882 1.042 -0.069 0.793 -0.05 0.55 -0.83 0.07
1 4.81 481 -0.795 -8.897 2.974 -4.791 -16.266 -4.669 -539.948 -1289.910 -3404.882 0.928 -0.094 0.923 -0.05 0.55 -0.83 0.07
1 4.82 482 -0.718 -8.763 2.916 -2.869 -20.081 -3.143 -794.932 -1259.929 -3299.950 0.862 -0.232 0.970 -0.05 0.55 -0.83 0.07
1 4.83 483 -0.249 -8.763 3.223 -3.143 -23.712 1.160 -629.890 -1274.919 -3389.892 0.402 -0.236 0.655 -0.05 0.55 -0.83 0.07
1 4.84 484 -0.057 -8.888 3.548 -6.928 -22.308 1.709 -764.952 -1289.910 -3374.901 0.220 -0.115 0.321 -0.06 0.55 -0.83 0.07
1 4.85 485 0.215 -9.161 3.836 -9.583 -16.357 3.326 -764.952 -1289.910 -3299.950 -0.044 0.154 0.022 -0.06 0.55 -0.83 0.07
1 4.86 486 0.235 -9.213 4.094 -6.958 -12.817 5.585 -764.952 -1289.910 -3299.950 -0.056 0.201 -0.249 -0.06 0.55 -0.83 0.07
1 4.87 487 0.335 -9.323 3.955 -7.050 -11.261 6.042 -824.913 -1379.851 -3314.940 -0.156 0.304 -0.128 -0.06 0.55 -0.83 0.07
1 4.88 488 0.311 -9.400 4.104 -7.477 -12.604 3.113 -824.913 -1379.851 -3314.940 -0.131 0.376 -0.285 -0.06 0.55 -0.83 0.07
1 4.89 489 0.464 -9.491 3.816 -4.425 -12.604 0.000 -869.883 -1214.958 -3329.931 -0.278 0.464 -0.007 -0.06 0.55 -0.83 0.08
1 4.90 490 0.417 -9.577 3.850 1.221 -11.658 -3.693 -779.942 -1304.900 -3239.989 -0.219 0.548 -0.045 -0.06 0.55 -0.83 0.08
1 4.91 491 0.062 -9.649 3.840 0.336 -9.888 -7.446 -929.994 -1349.871 -3239.989 0.151 0.621 -0.033 -0.06 0.55 -0.83 0.08
1 4.92 492 -0.292 -9.654 3.702 0.031 -9.308 -5.096 -749.961 -1229.949 -3164.888 0.521 0.627 0.107 -0.06 0.55 -0.83 0.08
1 4.93 493 -0.388 -9.912 3.793 -0.061 -9.979 -3.235 -749.961 -1229.949 -3164.888 0.629 0.885 0.014 -0.07 0.55 -0.83 0.08
1 4.94 494 -0.402 -10.664 4.765 -4.211 -9.613 1.068 -869.883 -1289.910 -3299.950 0.653 1.635 -0.964 -0.07 0.55 -0.83 0.08
1 4.95 495 0.014 -12.120 7.398 -14.526 -9.888 10.681 -869.883 -1289.910 -3299.950 0.239 3.087 -3.606 -0.07 0.55 -0.83 0.08
1 4.96 496 1.408 -14.629 8.763 -36.774 -6.592 32.562 -869.883 -1214.958 -3299.950 -1.169 5.585 -4.997 -0.07 0.55 -0.83 0.08
1 4.97 497 2.050 -13.049 5.804 -21.210 2.045 52.765 -794.932 -1139.857 -3254.979 -1.862 3.982 -2.089 -0.07 0.55 -0.83 0.08
1 4.98 498 0.555 -10.181 3.635 48.248 5.585 23.987 -824.913 -1199.968 -3419.872 -0.441 1.110 0.073 -0.06 0.55 -0.83 0.08
1 4.99 499 -0.924 -9.419 3.443 30.884 4.211 0.763 -854.893 -1274.919 -3314.940 0.994 0.372 0.324 -0.06 0.55 -0.83 0.09
1 5.00 500 -2.385 -9.649 3.338 -1.038 -0.946 -11.780 -854.893 -1274.919 -3314.940 2.442 0.624 0.481 -0.06 0.55 -0.83 0.09
1 5.01 501 -2.830 -10.544 3.726 -26.276 -12.878 -17.548 -779.942 -1304.900 -3314.940 2.910 1.510 0.070 -0.06 0.55 -0.83 0.09
1 5.02 502 -1.590 -11.789 3.912 -24.323 -29.144 -11.993 -779.942 -1304.900 -3314.940 1.706 2.736 -0.161 -0.06 0.55 -0.83 0.09
1 5.03 503 -0.666 -11.631 4.094 3.143 -29.785 -4.395 -690.000 -1259.929 -3194.869 0.813 2.569 -0.368 -0.07 0.55 -0.83 0.09
1 5.04 504 -0.330 -10.784 4.669 26.550 -24.658 -4.639 -674.860 -1274.919 -3164.888 0.501 1.727 -0.929 -0.07 0.55 -0.83 0.09
1 5.05 505 0.196 -9.400 5.689 27.496 -26.703 -7.355 -944.984 -1259.929 -3329.931 -0.004 0.361 -1.908 -0.07 0.55 -0.83 0.09
1 5.06 506 0.627 -8.979 5.976 15.778 -33.478 -5.493 -854.893 -1304.900 -3359.911 -0.409 -0.043 -2.154 -0.07 0.55 -0.83 0.09
1 5.07 507 0.804 -8.552 5.856 11.566 -33.325 -3.693 -854.893 -1304.900 -3359.911 -0.558 -0.457 -2.009 -0.07 0.55 -0.83 0.09
1 5.08 508 0.417 -8.509 5.722 18.005 -26.306 -1.953 -974.965 -1229.949 -3209.859 -0.118 -0.474 -1.816 -0.08 0.54 -0.83 0.09
1 5.09 509 0.172 -8.045 5.588 27.863 -20.905 -0.336 -974.965 -1229.949 -3209.859 0.142 -0.916 -1.634 -0.08 0.54 -0.83 0.09
1 5.10 510 -0.067 -6.963 5.334 37.048 -30.975 -0.122 -839.903 -1214.958 -3404.882 0.394 -1.972 -1.322 -0.08 0.54 -0.83 0.09
1 5.11 511 0.148 -6.608 5.272 36.530 -42.786 2.106 -944.984 -1169.988 -3299.950 0.198 -2.300 -1.203 -0.08 0.53 -0.84 0.1
1 5.12 512 1.532 -6.388 5.473 26.245 -47.363 10.376 -914.854 -1169.988 -3329.931 -1.160 -2.498 -1.357 -0.08 0.53 -0.84 0.1
1 5.13 513 2.433 -6.632 5.670 14.282 -37.140 13.245 -989.955 -1259.929 -3449.853 -2.041 -2.235 -1.516 -0.09 0.53 -0.84 0.1
1 5.14 514 2.849 -7.303 5.780 -2.716 -22.400 13.947 -989.955 -1259.929 -3449.853 -2.448 -1.554 -1.603 -0.09 0.53 -0.84 0.1
1 5.15 515 2.634 -7.877 5.354 -10.193 -10.834 9.552 -1064.906 -1334.880 -3449.853 -2.218 -0.971 -1.161 -0.09 0.53 -0.84 0.1
1 5.16 516 2.002 -8.299 4.793 9.247 -7.507 0.061 -1064.906 -1334.880 -3449.853 -1.557 -0.546 -0.595 -0.09 0.53 -0.84 0.1
1 5.17 517 1.733 -8.299 4.836 20.599 -13.031 -5.768 -989.955 -1214.958 -3329.931 -1.269 -0.533 -0.615 -0.09 0.53 -0.84 0.1
1 5.18 518 1.805 -8.141 5.023 16.846 -15.930 -9.430 -1079.896 -1349.871 -3464.993 -1.311 -0.674 -0.769 -0.1 0.52 -0.84 0.1
1 5.19 519 1.575 -8.256 4.980 5.463 -15.198 -11.719 -1079.896 -1349.871 -3464.993 -1.047 -0.545 -0.701 -0.1 0.52 -0.84 0.1
1 5.20 520 1.379 -8.686 4.315 -4.730 -11.383 -11.505 -1094.887 -1364.861 -3299.950 -0.816 -0.107 -0.026 -0.1 0.52 -0.84 0.1
1 5.21 521 1.269 -8.974 4.147 -3.723 -11.139 -8.453 -1094.887 -1364.861 -3299.950 -0.674 0.181 0.140 -0.1 0.52 -0.84 0.1
1 5.22 522 1.221 -9.098 4.013 3.235 -11.139 -4.730 -1034.926 -1229.949 -3569.924 -0.600 0.305 0.268 -0.1 0.52 -0.84 0.1
1 5.23 523 1.417 -9.060 4.089 9.552 -11.078 -1.953 -1034.926 -1229.949 -3569.924 -0.759 0.274 0.201 -0.1 0.52 -0.84 0.1
1 5.24 524 1.475 -8.720 4.042 14.130 -9.064 3.906 -1169.988 -1289.910 -3299.950 -0.806 -0.058 0.264 -0.1 0.52 -0.84 0.1
1 5.25 525 1.580 -8.615 4.032 13.428 -7.355 5.737 -1169.988 -1334.880 -3404.882 -0.904 -0.154 0.292 -0.1 0.52 -0.84 0.1
1 5.26 526 1.719 -8.648 4.037 9.705 -8.453 6.012 -1169.988 -1334.880 -3404.882 -1.039 -0.112 0.302 -0.11 0.52 -0.84 0.1
1 5.27 527 1.968 -8.715 4.104 11.780 -7.904 5.035 -1004.945 -1304.900 -3284.960 -1.282 -0.039 0.247 -0.11 0.52 -0.84 0.11
1 5.28 528 2.227 -8.658 4.065 17.120 -5.859 4.578 -1004.945 -1304.900 -3284.960 -1.532 -0.090 0.298 -0.11 0.52 -0.84 0.11
1 5.29 529 2.289 -8.471 4.243 19.226 -2.777 3.662 -1259.929 -1274.919 -3359.911 -1.585 -0.266 0.140 -0.11 0.51 -0.84 0.11
1 5.30 530 2.260 -8.279 4.018 18.066 0.580 2.502 -1259.929 -1274.919 -3359.911 -1.547 -0.444 0.390 -0.11 0.51 -0.84 0.11
1 5.31 531 2.308 -8.174 3.860 14.069 2.411 -2.991 -1139.857 -1409.981 -3374.901 -1.574 -0.525 0.593 -0.11 0.51 -0.85 0.11
1 5.32 532 2.428 -8.083 3.754 15.778 4.303 -5.432 -1139.857 -1334.880 -3404.882 -1.677 -0.606 0.716 -0.11 0.51 -0.85 0.11
1 5.33 533 2.265 -7.944 3.496 15.564 6.134 -6.592 -1139.857 -1334.880 -3404.882 -1.497 -0.733 0.995 -0.11 0.51 -0.85 0.1
1 5.34 534 2.442 -8.126 3.759 10.437 8.179 -5.920 -1184.978 -1304.900 -3314.940 -1.658 -0.540 0.749 -0.11 0.51 -0.85 0.1
1 5.35 535 2.581 -8.217 3.520 4.883 11.963 -6.073 -1184.978 -1304.900 -3314.940 -1.782 -0.442 0.998 -0.11 0.51 -0.85 0.1
1 5.36 536 2.749 -8.136 3.481 7.965 16.693 -5.798 -1259.929 -1469.942 -3389.892 -1.936 -0.520 1.042 -0.11 0.51 -0.85 0.1
1 5.37 537 2.600 -7.877 3.567 8.026 23.316 -4.852 -1259.929 -1469.942 -3389.892 -1.776 -0.773 0.963 -0.11 0.51 -0.85 0.1
1 5.38 538 2.457 -7.786 3.352 0.366 33.325 -2.106 -1064.906 -1409.981 -3374.901 -1.627 -0.855 1.196 -0.11 0.51 -0.85 0.1
1 5.39 539 2.284 -7.877 3.093 -5.310 37.964 -1.251 -1109.877 -1349.871 -3494.973 -1.469 -0.764 1.457 -0.11 0.51 -0.85 0.1
1 5.40 540 2.064 -7.796 2.801 -9.277 39.673 -1.587 -1109.877 -1349.871 -3494.973 -1.273 -0.849 1.746 -0.1 0.51 -0.85 0.09
1 5.41 541 1.944 -7.858 2.849 -11.810 39.887 -2.319 -1034.926 -1379.851 -3314.940 -1.178 -0.793 1.691 -0.1 0.51 -0.85 0.09
1 5.42 542 1.777 -8.160 2.897 -15.198 42.084 -6.989 -1109.877 -1469.942 -3494.973 -1.034 -0.499 1.632 -0.1 0.51 -0.85 0.09
1 5.43 543 1.350 -8.380 3.098 -17.456 45.410 -14.221 -1154.998 -1379.851 -3464.993 -0.629 -0.288 1.417 -0.1 0.51 -0.85 0.09
1 5.44 544 0.809 -8.844 3.060 -16.388 47.363 -20.416 -1154.998 -1379.851 -3464.993 -0.093 0.164 1.431 -0.09 0.51 -0.85 0.08
1 5.45 545 0.129 -9.070 3.232 -9.308 43.213 -20.905 -1004.945 -1499.923 -3494.973 0.582 0.366 1.215 -0.09 0.51 -0.85 0.08
1 5.46 546 -0.364 -8.864 3.778 4.822 28.320 -20.538 -1019.936 -1484.933 -3329.931 1.073 0.158 0.665 -0.09 0.52 -0.85 0.08
1 5.47 547 0.005 -8.543 3.922 9.186 18.280 -18.555 -1019.936 -1484.933 -3329.931 0.707 -0.159 0.529 -0.09 0.51 -0.85 0.07
1 5.48 548 0.129 -8.346 4.018 5.524 14.587 -12.939 -1079.896 -1469.942 -3359.911 0.588 -0.349 0.445 -0.09 0.51 -0.85 0.07
1 5.49 549 0.077 -8.188 3.486 -4.150 25.726 -1.282 -899.864 -1379.851 -3419.872 0.642 -0.503 0.983 -0.09 0.51 -0.85 0.07
1 5.50 550 -0.153 -8.035 3.299 -5.371 35.767 9.949 -974.965 -1379.851 -3464.993 0.856 -0.659 1.168 -0.08 0.51 -0.85 0.07
1 5.51 551 -0.742 -8.054 4.008 -8.942 41.474 16.480 -974.965 -1379.851 -3464.993 1.411 -0.645 0.455 -0.08 0.52 -0.85 0.07
1 5.52 552 -2.026 -9.797 8.069 -36.072 28.595 10.101 -989.955 -1334.880 -3404.882 2.588 1.079 -3.629 -0.08 0.52 -0.85 0.07
1 5.53 553 -2.433 -10.779 8.988 -51.575 16.510 -0.580 -899.864 -1304.900 -3494.973 2.974 2.031 -4.604 -0.07 0.52 -0.85 0.07
1 5.54 554 -1.633 -11.598 5.780 -33.844 -10.773 -20.203 -899.864 -1304.900 -3494.973 2.199 2.811 -1.477 -0.08 0.52 -0.85 0.07
1 5.55 555 -0.330 -9.951 3.893 40.466 -11.475 7.202 -794.932 -1364.861 -3374.901 0.924 1.156 0.389 -0.08 0.52 -0.85 0.07
1 5.56 556 1.772 -7.762 3.295 56.214 -4.761 38.025 -854.893 -1304.900 -3389.892 -1.194 -1.001 1.054 -0.08 0.52 -0.85 0.07
1 5.57 557 3.022 -7.370 4.947 3.204 -13.062 42.664 -794.932 -1409.981 -3374.901 -2.486 -1.359 -0.523 -0.08 0.52 -0.85 0.07
1 5.58 558 4.214 -8.327 6.862 -65.613 -18.463 40.161 -794.932 -1409.981 -3374.901 -3.727 -0.391 -2.413 -0.07 0.52 -0.85 0.07
1 5.59 559 4.760 -10.204 7.322 -93.598 -16.663 24.933 -854.893 -1274.919 -3389.892 -4.294 1.457 -2.929 -0.08 0.52 -0.85 0.08
1 5.60 560 4.013 -12.541 6.153 -31.098 -0.092 -10.223 -854.893 -1379.851 -3359.911 -3.576 3.684 -1.982 -0.08 0.53 -0.84 0.08
1 5.61 561 2.548 -11.775 6.431 27.405 14.893 -15.503 -854.893 -1379.851 -3359.911 -2.094 2.910 -2.278 -0.08 0.53 -0.84 0.08
1 5.62 562 1.077 -10.406 7.145 36.224 22.125 -10.071 -779.942 -1229.949 -3419.872 -0.615 1.563 -2.944 -0.08 0.53 -0.84 0.08
1 5.63 563 0.081 -9.764 6.934 7.385 22.034 -8.362 -914.854 -1139.857 -3299.950 0.379 0.943 -2.690 -0.07 0.53 -0.84 0.08
1 5.64 564 -0.551 -10.300 5.832 -22.827 19.043 -3.540 -839.903 -1364.861 -3254.979 1.009 1.480 -1.586 -0.07 0.53 -0.84 0.07
1 5.65 565 -0.742 -10.746 5.593 -21.423 20.935 -0.458 -839.903 -1364.861 -3254.979 1.196 1.913 -1.372 -0.07 0.53 -0.84 0.07
1 5.66 566 -0.828 -10.659 5.607 -7.965 25.391 3.296 -869.883 -1214.958 -3329.931 1.272 1.813 -1.415 -0.07 0.53 -0.84 0.07
1 5.67 567 -0.843 -9.903 5.694 7.080 25.818 9.308 -779.942 -1304.900 -3419.872 1.241 1.051 -1.507 -0.07 0.53 -0.84 0.07
1 5.68 568 -0.527 -8.801 5.919 6.836 21.759 10.223 -779.942 -1304.900 -3419.872 0.895 -0.044 -1.716 -0.07 0.53 -0.84 0.07
1 5.69 569 -0.316 -8.495 5.962 -0.244 19.104 9.674 -779.942 -1379.851 -3359.911 0.654 -0.345 -1.745 -0.06 0.53 -0.84 0.07
1 5.70 570 -0.278 -8.059 5.765 -1.831 17.792 10.895 -749.961 -1349.871 -3284.960 0.585 -0.776 -1.536 -0.06 0.53 -0.84 0.07
1 5.71 571 -0.192 -7.532 5.454 2.167 14.099 9.338 -629.890 -1154.998 -3359.911 0.469 -1.298 -1.213 -0.06 0.53 -0.84 0.07
1 5.72 572 -0.077 -7.470 5.148 -0.671 12.360 4.913 -629.890 -1154.998 -3359.911 0.329 -1.353 -0.891 -0.06 0.53 -0.84 0.07
1 5.73 573 -0.220 -7.360 4.951 -7.507 11.597 -0.336 -749.961 -1304.900 -3284.960 0.453 -1.458 -0.681 -0.06 0.53 -0.84 0.07
1 5.74 574 -0.374 -7.389 4.621 -8.545 11.810 -3.357 -839.903 -1289.910 -3329.931 0.596 -1.428 -0.348 -0.06 0.53 -0.84 0.07
1 5.75 575 -1.044 -7.475 4.640 -4.334 11.749 -5.859 -839.903 -1289.910 -3329.931 1.259 -1.346 -0.375 -0.06 0.53 -0.84 0.07
1 5.76 576 -1.355 -7.667 4.645 -5.096 8.209 -5.219 -674.860 -1274.919 -3284.960 1.563 -1.153 -0.378 -0.06 0.53 -0.84 0.07
1 5.77 577 -1.413 -7.844 4.755 -7.538 3.662 -3.021 -764.952 -1289.910 -3224.999 1.612 -0.977 -0.489 -0.05 0.53 -0.84 0.07
1 5.78 578 -1.307 -7.786 4.851 -4.852 -1.404 2.289 -629.890 -1304.900 -3239.989 1.496 -1.036 -0.587 -0.05 0.53 -0.84 0.07
1 5.79 579 -0.579 -7.518 4.894 0.153 -9.583 9.155 -629.890 -1304.900 -3239.989 0.755 -1.303 -0.629 -0.05 0.53 -0.84 0.07
1 5.80 580 -0.148 -7.662 4.994 -0.763 -10.040 11.505 -764.952 -1289.910 -3329.931 0.310 -1.157 -0.722 -0.05 0.53 -0.84 0.07
1 5.81 581 0.177 -8.011 5.454 -2.075 -5.798 13.672 -824.913 -1199.968 -3419.872 -0.027 -0.803 -1.174 -0.05 0.53 -0.84 0.07
1 5.82 582 0.374 -7.906 5.339 3.418 6.866 17.395 -824.913 -1199.968 -3419.872 -0.257 -0.901 -1.042 -0.05 0.53 -0.84 0.07
1 5.83 583 0.421 -7.786 5.028 7.904 11.200 19.226 -779.942 -1349.871 -3389.892 -0.332 -1.013 -0.714 -0.05 0.53 -0.85 0.07
1 5.84 584 0.163 -7.767 4.889 6.317 14.526 17.609 -734.971 -1289.910 -3299.950 -0.103 -1.023 -0.556 -0.05 0.53 -0.85 0.07
1 5.85 585 -0.053 -7.920 4.813 3.143 17.792 16.663 -734.971 -1289.910 -3299.950 0.081 -0.862 -0.465 -0.05 0.53 -0.85 0.08
1 5.86 586 -0.532 -7.987 4.520 1.923 20.294 19.135 -764.952 -1259.929 -3374.901 0.525 -0.790 -0.162 -0.05 0.52 -0.85 0.08
1 5.87 587 -0.623 -8.227 4.214 -0.916 15.228 18.829 -599.909 -1274.919 -3359.911 0.576 -0.547 0.152 -0.04 0.52 -0.85 0.08
1 5.88 588 -0.474 -8.294 4.109 -2.167 7.874 16.449 -794.932 -1334.880 -3299.950 0.388 -0.478 0.261 -0.04 0.52 -0.85 0.08
1 5.89 589 -0.297 -8.241 3.984 0.824 4.944 10.498 -794.932 -1334.880 -3299.950 0.157 -0.531 0.384 -0.04 0.52 -0.85 0.08
1 5.90 590 -0.464 -8.208 3.702 1.587 9.735 -1.099 -494.978 -1079.896 -3314.940 0.313 -0.562 0.669 -0.04 0.52 -0.85 0.08
1 5.91 591 -0.824 -8.270 3.678 -0.549 12.177 -3.998 -749.961 -1199.968 -3389.892 0.666 -0.500 0.693 -0.04 0.52 -0.85 0.08
1 5.92 592 -1.130 -8.399 3.295 -4.974 11.261 -5.676 -524.958 -1304.900 -3359.911 0.967 -0.373 1.072 -0.04 0.53 -0.85 0.08
1 5.93 593 -1.101 -8.533 3.309 -8.484 7.202 -7.202 -524.958 -1304.900 -3359.911 0.934 -0.244 1.046 -0.04 0.53 -0.85 0.08
1 5.94 594 -1.073 -8.648 3.448 -10.132 -1.312 -9.735 -659.870 -1214.958 -3404.882 0.904 -0.138 0.890 -0.04 0.53 -0.85 0.08
1 5.95 595 -0.728 -8.624 3.567 -9.735 -5.096 -11.749 -659.870 -1334.880 -3374.901 0.566 -0.171 0.752 -0.04 0.53 -0.85 0.08
1 5.96 596 -0.532 -8.672 3.639 -9.094 -5.707 -13.550 -659.870 -1334.880 -3374.901 0.400 -0.139 0.648 -0.04 0.53 -0.84 0.07
1 5.97 597 -0.469 -8.658 3.596 -8.637 -4.547 -13.916 -539.948 -1214.958 -3329.931 0.358 -0.161 0.677 -0.04 0.53 -0.84 0.07
1 5.98 598 -0.666 -8.610 3.740 -7.751 -7.660 -15.411 -779.942 -1274.919 -3359.911 0.576 -0.215 0.520 -0.04 0.53 -0.84 0.07
1 5.99 599 -0.943 -8.610 3.730 -8.270 -10.407 -14.771 -779.942 -1274.919 -3359.911 0.875 -0.221 0.518 -0.04 0.53 -0.84 0.07
1 6.00 600 -1.087 -8.639 3.860 -8.911 -9.766 -14.374 -659.870 -1334.880 -3329.931 1.040 -0.199 0.376 -0.04 0.53 -0.84 0.07
1 6.01 601 -1.341 -8.538 3.740 -8.484 -8.698 -12.360 -614.899 -1289.910 -3329.931 1.314 -0.305 0.483 -0.04 0.53 -0.84 0.07
1 6.02 602 -1.590 -8.634 3.783 -9.522 -11.200 -10.345 -749.961 -1049.916 -3389.892 1.578 -0.215 0.428 -0.04 0.53 -0.84 0.07
1 6.03 603 -1.465 -8.998 3.582 -11.871 -17.334 -7.385 -749.961 -1049.916 -3389.892 1.464 0.142 0.615 -0.04 0.53 -0.84 0.07
1 6.04 604 -0.972 -8.935 3.821 -6.317 -27.924 1.251 -779.942 -1229.949 -3494.973 0.990 0.063 0.341 -0.05 0.53 -0.84 0.07
1 6.05 605 -0.383 -8.730 4.310 -1.984 -31.372 5.585 -734.971 -1094.887 -3374.901 0.408 -0.147 -0.156 -0.05 0.53 -0.84 0.07
1 6.06 606 0.024 -8.768 4.564 -4.700 -26.733 6.928 -734.971 -1094.887 -3374.901 0.008 -0.109 -0.412 -0.05 0.53 -0.84 0.08
1 6.07 607 0.081 -8.825 4.659 -6.226 -17.120 6.897 -659.870 -1169.988 -3224.999 -0.043 -0.054 -0.512 -0.05 0.53 -0.84 0.08
1 6.08 608 -0.455 -8.950 4.473 -5.310 -6.317 9.247 -659.870 -1169.988 -3254.979 0.493 0.069 -0.330 -0.05 0.53 -0.84 0.08
1 6.09 609 -0.699 -8.873 4.286 -5.859 -9.155 9.705 -704.991 -1229.949 -3359.911 0.729 -0.009 -0.146 -0.05 0.53 -0.84 0.08
1 6.10 610 -0.541 -8.902 4.185 -7.568 -16.510 7.568 -704.991 -1229.949 -3359.911 0.559 0.017 -0.050 -0.05 0.54 -0.84 0.08
1 6.11 611 -0.508 -8.878 4.180 -7.690 -23.651 3.723 -614.899 -1169.988 -3299.950 0.523 -0.015 -0.062 -0.05 0.54 -0.84 0.08
1 6.12 612 -0.081 -8.945 4.319 -7.660 -24.536 -1.953 -764.952 -1139.857 -3224.999 0.109 0.048 -0.210 -0.06 0.54 -0.84 0.08
1 6.13 613 -0.192 -9.084 4.228 -7.721 -20.142 -4.150 -764.952 -1139.857 -3224.999 0.237 0.183 -0.128 -0.06 0.54 -0.84 0.08
1 6.14 614 -0.512 -9.309 4.171 -8.209 -17.242 -5.554 -779.942 -1304.900 -3284.960 0.576 0.404 -0.080 -0.06 0.54 -0.84 0.08
1 6.15 615 -0.656 -9.544 3.783 -8.118 -20.355 -4.486 -899.864 -1049.916 -3239.989 0.734 0.634 0.297 -0.06 0.54 -0.84 0.09
1 6.16 616 -0.340 -9.457 3.706 -2.960 -24.963 -0.916 -839.903 -1064.906 -3254.979 0.433 0.542 0.361 -0.06 0.54 -0.84 0.09
1 6.17 617 0.067 -9.491 3.840 0.366 -26.550 2.777 -839.903 -1064.906 -3254.979 0.039 0.571 0.218 -0.06 0.54 -0.84 0.09
1 6.18 618 0.359 -9.386 3.888 -0.122 -22.003 6.561 -674.860 -1199.968 -3359.911 -0.241 0.465 0.166 -0.06 0.54 -0.84 0.09
1 6.19 619 0.120 -9.290 3.816 -3.235 -11.841 8.026 -794.932 -1094.887 -3329.931 0.008 0.366 0.232 -0.07 0.54 -0.84 0.09
1 6.20 620 -0.268 -9.371 3.625 -3.906 -9.796 6.531 -794.932 -1094.887 -3329.931 0.393 0.445 0.417 -0.07 0.54 -0.84 0.09
1 6.21 621 -0.632 -9.596 3.443 -5.188 -10.345 4.303 -854.893 -1199.968 -3239.989 0.753 0.666 0.591 -0.07 0.54 -0.84 0.09
1 6.22 622 -1.063 -9.515 3.266 -2.777 -13.580 3.357 -1019.936 -1169.988 -3374.901 1.181 0.579 0.757 -0.07 0.54 -0.83 0.09
1 6.23 623 -0.982 -9.625 3.213 -1.984 -15.625 2.869 -899.864 -1124.867 -3314.940 1.097 0.685 0.799 -0.07 0.54 -0.83 0.09
1 6.24 624 -0.939 -9.630 2.978 -4.944 -17.456 2.869 -899.864 -1124.867 -3314.940 1.050 0.685 1.024 -0.07 0.54 -0.83 0.09
1 6.25 625 -0.723 -9.788 3.093 -5.005 -20.660 2.380 -764.952 -1139.857 -3254.979 0.833 0.838 0.897 -0.07 0.54 -0.83 0.1
1 6.26 626 -0.101 -10.860 5.670 -9.216 -21.698 4.700 -869.883 -1019.936 -3254.979 0.217 1.899 -1.706 -0.07 0.54 -0.83 0.1
1 6.27 627 0.814 -12.924 7.906 -24.597 -18.585 16.174 -869.883 -1019.936 -3254.979 -0.693 3.955 -3.959 -0.07 0.54 -0.83 0.1
1 6.28 628 1.786 -13.154 6.896 -29.389 -12.512 34.027 -929.994 -1274.919 -3284.960 -1.684 4.168 -2.986 -0.07 0.54 -0.83 0.1
1 6.29 629 1.705 -11.138 4.391 16.235 -8.087 32.410 -929.994 -1274.919 -3284.960 -1.644 2.140 -0.509 -0.07 0.54 -0.83 0.1
1 6.30 630 0.441 -9.390 3.970 48.371 -12.939 1.373 -854.893 -1079.896 -3239.989 -0.412 0.409 -0.048 -0.07 0.54 -0.83 0.11
1 6.31 631 -0.623 -8.940 4.075 21.759 -13.977 -11.200 -854.893 -1079.896 -3239.989 0.654 -0.011 -0.086 -0.07 0.54 -0.83 0.11
1 6.32 632 -1.441 -9.481 4.334 -9.399 -19.531 -16.724 -824.913 -1199.968 -3209.859 1.494 0.548 -0.304 -0.07 0.54 -0.83 0.11
1 6.33 633 -1.360 -10.396 4.348 -27.161 -27.557 -18.433 -944.984 -1169.988 -3224.999 1.475 1.448 -0.353 -0.08 0.54 -0.83 0.11
1 6.34 634 -0.340 -11.354 4.353 -10.620 -32.227 -16.327 -944.984 -1169.988 -3224.999 0.498 2.392 -0.390 -0.08 0.54 -0.83 0.11
1 6.35 635 -0.129 -10.904 4.645 19.409 -26.001 -17.151 -944.984 -1139.857 -3299.950 0.329 1.941 -0.687 -0.08 0.54 -0.83 0.11
1 6.36 636 0.057 -10.109 5.248 38.910 -20.874 -16.602 -929.994 -1154.998 -3359.911 0.181 1.163 -1.254 -0.08 0.54 -0.83 0.11
1 6.37 637 0.364 -9.084 5.617 32.868 -24.933 -14.557 -1079.896 -1079.896 -3239.989 -0.089 0.163 -1.570 -0.08 0.54 -0.83 0.11
1 6.38 638 0.915 -8.490 5.684 12.482 -33.112 -13.916 -1079.896 -1079.896 -3239.989 -0.603 -0.409 -1.593 -0.09 0.53 -0.84 0.11
1 6.39 639 1.039 -8.461 5.737 14.069 -26.856 -14.710 -1079.896 -1229.949 -3389.892 -0.685 -0.423 -1.615 -0.09 0.53 -0.84 0.11
1 6.40 640 0.579 -8.136 5.856 26.459 -14.862 -11.841 -1094.887 -1214.958 -3404.882 -0.149 -0.712 -1.665 -0.09 0.53 -0.84 0.11
1 6.41 641 0.158 -7.504 5.560 40.436 -12.726 -9.430 -1094.887 -1214.958 -3404.882 0.296 -1.313 -1.305 -0.09 0.52 -0.84 0.11
1 6.42 642 -0.029 -6.670 5.363 47.455 -28.351 -7.813 -1004.945 -1049.916 -3359.911 0.505 -2.109 -1.035 -0.1 0.52 -0.84 0.11
1 6.43 643 0.484 -6.359 5.440 42.725 -40.192 -2.625 -1004.945 -1049.916 -3359.911 0.023 -2.388 -1.050 -0.1 0.52 -0.84 0.11
1 6.44 644 1.987 -6.771 6.115 22.797 -39.124 6.226 -1169.988 -1334.880 -3404.882 -1.450 -1.948 -1.673 -0.1 0.51 -0.85 0.11
1 6.45 645 2.629 -7.441 6.297 6.561 -27.252 7.721 -1169.988 -1334.880 -3404.882 -2.066 -1.255 -1.814 -0.1 0.51 -0.85 0.11
1 6.46 646 2.801 -7.963 6.077 4.608 -14.771 5.005 -1154.998 -1349.871 -3464.993 -2.214 -0.718 -1.567 -0.1 0.51 -0.85 0.11
1 6.47 647 2.394 -8.423 5.670 15.869 -6.683 -1.038 -1229.949 -1274.919 -3419.872 -1.786 -0.247 -1.142 -0.11 0.51 -0.85 0.11
1 6.48 648 1.451 -8.203 5.564 35.950 -8.240 -11.169 -1229.949 -1274.919 -3419.872 -0.796 -0.427 -0.967 -0.11 0.5 -0.85 0.11
1 6.49 649 1.216 -7.992 5.425 36.163 -9.827 -13.001 -1109.877 -1349.871 -3389.892 -0.532 -0.606 -0.773 -0.11 0.5 -0.85 0.11
1 6.50 650 1.130 -8.002 5.243 25.910 -10.559 -10.620 -1109.877 -1349.871 -3389.892 -0.417 -0.566 -0.540 -0.11 0.5 -0.85 0.11
1 6.51 651 0.986 -8.160 4.654 16.632 -12.634 -6.439 -1184.978 -1349.871 -3389.892 -0.249 -0.386 0.085 -0.11 0.5 -0.85 0.11
1 6.52 652 1.451 -8.524 4.453 14.069 -15.503 1.862 -1139.857 -1214.958 -3479.983 -0.695 -0.009 0.307 -0.11 0.49 -0.85 0.11
1 6.53 653 1.896 -8.754 4.338 17.273 -12.939 6.470 -1229.949 -1304.900 -3419.872 -1.127 0.232 0.439 -0.11 0.49 -0.85 0.11
1 6.54 654 2.164 -8.701 4.156 20.569 -7.751 8.759 -1304.900 -1349.871 -3314.940 -1.385 0.190 0.639 -0.11 0.49 -0.86 0.11
1 6.55 655 2.442 -8.754 4.003 19.714 -0.580 10.529 -1304.900 -1349.871 -3314.940 -1.657 0.269 0.837 -0.11 0.49 -0.86 0.12
1 6.56 656 2.595 -8.452 3.831 18.127 0.397 10.681 -1139.857 -1409.981 -3479.983 -1.811 -0.021 1.030 -0.11 0.49 -0.86 0.12
1 6.57 657 2.686 -8.485 3.802 16.785 0.244 6.165 -1139.857 -1409.981 -3479.983 -1.900 0.023 1.077 -0.11 0.49 -0.86 0.12
1 6.58 658 2.634 -8.466 3.879 15.808 0.854 1.892 -1184.978 -1379.851 -3419.872 -1.839 0.014 1.017 -0.11 0.49 -0.86 0.12
1 6.59 659 2.864 -8.375 3.912 17.731 3.052 -1.343 -1259.929 -1379.851 -3419.872 -2.057 -0.067 0.999 -0.11 0.49 -0.86 0.12
1 6.60 660 2.974 -8.217 3.812 18.463 4.425 -3.754 -1199.968 -1334.880 -3479.983 -2.152 -0.213 1.117 -0.11 0.49 -0.86 0.12
1 6.61 661 2.849 -7.901 3.457 17.731 5.829 -6.928 -1334.880 -1544.894 -3494.973 -2.011 -0.517 1.490 -0.11 0.48 -0.86 0.11
1 6.62 662 2.926 -7.844 3.481 13.825 8.484 -8.270 -1334.880 -1544.894 -3494.973 -2.046 -0.551 1.498 -0.12 0.48 -0.86 0.11
1 6.63 663 3.022 -7.987 3.481 6.714 13.702 -9.155 -1274.919 -1439.962 -3509.963 -2.123 -0.402 1.504 -0.12 0.48 -0.86 0.11
1 6.64 664 2.773 -8.490 3.611 -3.326 21.698 -10.010 -1274.919 -1439.962 -3509.963 -1.859 0.101 1.372 -0.12 0.48 -0.86 0.11
1 6.65 665 2.710 -8.686 3.304 -1.770 26.520 -10.956 -1184.978 -1499.923 -3644.875 -1.786 0.293 1.670 -0.11 0.48 -0.86 0.11
1 6.66 666 2.725 -8.442 3.180 3.357 29.602 -10.254 -1199.968 -1484.933 -3374.901 -1.793 0.047 1.789 -0.11 0.48 -0.86 0.11
1 6.67 667 2.878 -7.959 3.371 3.601 34.760 -9.003 -1319.890 -1364.861 -3659.866 -1.942 -0.437 1.597 -0.11 0.48 -0.86 0.1
1 6.68 668 2.763 -7.633 3.414 -3.693 41.565 -9.277 -1169.988 -1484.933 -3554.934 -1.826 -0.761 1.556 -0.11 0.48 -0.86 0.1
1 6.69 669 2.476 -7.791 3.204 -10.895 49.164 -9.369 -1169.988 -1484.933 -3554.934 -1.541 -0.605 1.763 -0.11 0.48 -0.86 0.1
1 6.70 670 1.738 -7.767 3.515 -15.045 56.214 -8.972 -1169.988 -1484.933 -3479.983 -0.856 -0.643 1.438 -0.1 0.49 -0.86 0.09
1 6.71 671 1.350 -7.743 3.615 -14.160 58.472 -11.658 -1169.988 -1484.933 -3479.983 -0.494 -0.678 1.323 -0.1 0.49 -0.86 0.09
1 6.72 672 0.718 -7.671 3.582 -13.886 57.587 -13.825 -1019.936 -1484.933 -3449.853 0.111 -0.758 1.348 -0.1 0.49 -0.86 0.09
1 6.73 673 -0.105 -8.078 3.912 -17.700 55.268 -17.426 -1034.926 -1304.900 -3539.944 0.910 -0.359 1.007 -0.1 0.49 -0.86 0.08
1 6.74 674 -0.852 -8.236 4.310 -13.947 42.572 -18.799 -1169.988 -1364.861 -3554.934 1.637 -0.214 0.591 -0.09 0.49 -0.86 0.08
1 6.75 675 -0.991 -8.193 4.487 -5.280 27.527 -16.541 -1079.896 -1424.972 -3539.944 1.757 -0.269 0.397 -0.09 0.49 -0.86 0.08
1 6.76 676 -0.752 -7.882 4.429 -1.160 14.099 -10.712 -1079.896 -1424.972 -3539.944 1.504 -0.585 0.448 -0.09 0.49 -0.86 0.08
1 6.77 677 0.014 -7.566 4.439 -4.150 7.843 -2.808 -779.942 -1424.972 -3599.905 0.724 -0.903 0.436 -0.09 0.49 -0.86 0.07
1 6.78 678 0.733 -7.264 3.917 -15.686 21.332 13.397 -779.942 -1424.972 -3599.905 -0.009 -1.212 0.948 -0.09 0.49 -0.86 0.07
1 6.79 679 0.402 -7.197 3.232 -22.034 41.779 25.208 -974.965 -1469.942 -3644.875 0.281 -1.293 1.614 -0.08 0.5 -0.86 0.07
1 6.80 680 -0.048 -7.087 2.576 -25.055 61.341 36.591 -974.965 -1304.900 -3539.944 0.660 -1.423 2.246 -0.08 0.5 -0.86 0.07
1 6.81 681 -0.680 -7.020 3.505 -25.238 66.651 45.410 -1064.906 -1334.880 -3554.934 1.194 -1.511 1.290 -0.07 0.5 -0.86 0.07
1 6.82 682 -2.921 -10.046 13.006 -66.925 28.656 27.130 -824.913 -1274.919 -3539.944 3.328 1.494 -8.239 -0.07 0.5 -0.86 0.07
1 6.83 683 -3.352 -13.480 10.042 -167.145 5.737 -51.148 -824.913 -1274.919 -3539.944 3.679 4.891 -5.334 -0.06 0.51 -0.86 0.08
1 6.84 684 -1.590 -13.212 3.606 -51.575 -19.531 -47.150 -764.952 -1259.929 -3509.963 2.035 4.460 0.783 -0.07 0.52 -0.85 0.07
1 6.85 685 -0.201 -11.584 4.362 98.572 -22.461 12.299 -764.952 -1259.929 -3509.963 0.667 2.880 0.118 -0.07 0.52 -0.85 0.07
1 6.86 686 2.777 -8.370 7.513 48.523 -14.160 49.988 -779.942 -1274.919 -3494.973 -2.354 -0.264 -2.897 -0.07 0.51 -0.85 0.07
1 6.87 687 4.247 -7.681 8.045 -45.075 -15.778 46.692 -749.961 -1154.998 -3569.924 -3.878 -0.940 -3.398 -0.07 0.51 -0.86 0.08
1 6.88 688 3.927 -9.663 6.982 -64.667 2.350 24.170 -944.984 -1289.910 -3479.983 -3.605 1.002 -2.409 -0.07 0.51 -0.85 0.08
1 6.89 689 2.840 -11.871 7.049 -49.835 6.805 7.935 -824.913 -1199.968 -3569.924 -2.555 3.161 -2.565 -0.07 0.52 -0.85 0.08
1 6.90 690 1.647 -11.952 6.560 -22.705 11.536 -7.660 -824.913 -1199.968 -3569.924 -1.382 3.206 -2.148 -0.07 0.52 -0.85 0.08
1 6.91 691 0.685 -10.770 6.177 19.684 10.559 -7.935 -794.932 -1214.958 -3374.901 -0.420 2.003 -1.805 -0.07 0.52 -0.85 0.08
1 6.92 692 -0.220 -9.678 7.101 8.637 10.010 -1.892 -794.932 -1214.958 -3374.901 0.491 0.936 -2.680 -0.06 0.52 -0.85 0.08
1 6.93 693 -0.421 -9.730 6.642 -15.167 11.719 4.425 -539.948 -1214.958 -3509.963 0.686 0.990 -2.216 -0.06 0.52 -0.85 0.08
1 6.94 694 -0.354 -9.544 5.756 -13.977 8.972 9.003 -629.890 -1154.998 -3539.944 0.604 0.793 -1.351 -0.06 0.52 -0.85 0.08
1 6.95 695 0.053 -9.117 5.440 1.587 3.357 9.888 -629.890 -1154.998 -3539.944 0.180 0.360 -1.048 -0.06 0.52 -0.85 0.08
1 6.96 696 0.891 -8.375 5.435 9.796 2.686 5.829 -704.991 -1199.968 -3569.924 -0.673 -0.378 -1.033 -0.06 0.52 -0.85 0.08
1 6.97 697 0.939 -8.069 5.344 4.028 9.857 2.899 -704.991 -1199.968 -3569.924 -0.730 -0.675 -0.923 -0.06 0.52 -0.85 0.08
1 6.98 698 0.752 -7.700 5.306 -2.014 17.609 -2.991 -704.991 -1049.916 -3539.944 -0.548 -1.035 -0.867 -0.06 0.52 -0.85 0.08
1 6.99 699 0.249 -7.614 5.210 -4.730 21.271 -6.683 -704.991 -1049.916 -3539.944 -0.049 -1.115 -0.759 -0.06 0.52 -0.85 0.08
1 7.00 700 -0.311 -7.681 5.090 -3.174 15.320 -7.355 -734.971 -1169.988 -3629.885 0.508 -1.045 -0.635 -0.06 0.52 -0.85 0.07
1 7.01 701 -0.345 -7.724 4.956 -5.554 7.813 -7.019 -734.971 -1289.910 -3659.866 0.539 -1.001 -0.497 -0.06 0.52 -0.85 0.07
1 7.02 702 -0.129 -7.877 5.018 -7.385 4.120 -7.843 -734.971 -1289.910 -3659.866 0.324 -0.848 -0.560 -0.06 0.52 -0.85 0.07
1 7.03 703 0.019 -7.667 4.856 -2.228 6.958 -8.942 -629.890 -1124.867 -3569.924 0.181 -1.059 -0.399 -0.06 0.52 -0.85 0.07
1 7.04 704 -0.101 -7.724 4.956 -1.709 9.979 -9.033 -629.890 -1124.867 -3569.924 0.308 -1.000 -0.496 -0.06 0.52 -0.85 0.07
1 7.05 705 -0.632 -7.896 4.884 -5.402 13.001 -7.538 -764.952 -1259.929 -3509.963 0.845 -0.825 -0.420 -0.06 0.52 -0.85 0.07
1 7.06 706 -1.044 -8.083 4.741 -7.660 14.465 -4.822 -764.952 -1259.929 -3509.963 1.256 -0.638 -0.275 -0.06 0.52 -0.85 0.07
1 7.07 707 -1.547 -8.165 4.611 -5.371 9.003 1.953 -779.942 -1079.896 -3419.872 1.736 -0.561 -0.154 -0.05 0.52 -0.85 0.07
1 7.08 708 -1.393 -8.165 4.496 -3.815 4.547 6.470 -629.890 -1199.968 -3494.973 1.562 -0.563 -0.042 -0.05 0.52 -0.85 0.07
1 7.09 709 -1.212 -8.030 4.664 -1.526 0.153 10.162 -629.890 -1199.968 -3494.973 1.356 -0.698 -0.212 -0.05 0.52 -0.85 0.07
1 7.10 710 -0.895 -7.935 4.731 -2.960 -0.519 12.054 -614.899 -1169.988 -3629.885 1.015 -0.794 -0.277 -0.05 0.52 -0.85 0.07
1 7.11 711 -0.527 -8.093 4.683 -7.141 0.916 13.245 -614.899 -1169.988 -3629.885 0.622 -0.636 -0.228 -0.05 0.52 -0.85 0.07
1 7.12 712 -0.378 -8.160 4.611 -7.935 2.960 12.299 -734.971 -1064.906 -3479.983 0.451 -0.571 -0.160 -0.05 0.52 -0.85 0.07
1 7.13 713 -0.369 -8.256 4.319 -7.019 3.845 9.705 -734.971 -1064.906 -3479.983 0.419 -0.478 0.125 -0.05 0.52 -0.85 0.07
1 7.14 714 -0.517 -8.241 4.338 -3.693 2.930 6.104 -690.000 -1334.880 -3479.983 0.534 -0.499 0.095 -0.05 0.52 -0.85 0.07
1 7.15 715 -0.594 -8.404 4.315 -6.531 2.472 5.219 -794.932 -1019.936 -3479.983 0.597 -0.338 0.115 -0.05 0.52 -0.85 0.07
1 7.16 716 -0.723 -8.399 4.243 -9.125 2.747 3.876 -794.932 -1019.936 -3479.983 0.714 -0.347 0.179 -0.05 0.52 -0.85 0.07
1 7.17 717 -0.728 -8.256 4.080 -7.996 2.167 3.540 -734.971 -1139.857 -3479.983 0.708 -0.496 0.331 -0.04 0.52 -0.85 0.07
1 7.18 718 -0.685 -8.251 4.003 -5.615 0.275 1.160 -629.890 -1154.998 -3539.944 0.654 -0.505 0.398 -0.04 0.52 -0.85 0.07
1 7.19 719 -0.910 -8.174 3.788 -6.561 0.427 0.610 -674.860 -959.975 -3494.973 0.872 -0.586 0.606 -0.04 0.52 -0.85 0.08
1 7.20 720 -0.766 -8.279 4.061 -8.606 1.038 0.000 -674.860 -959.975 -3494.973 0.723 -0.485 0.324 -0.04 0.52 -0.85 0.08
1 7.21 721 -1.111 -8.342 4.080 -10.895 1.587 -2.075 -659.870 -989.955 -3449.853 1.057 -0.435 0.280 -0.04 0.53 -0.85 0.08
1 7.22 722 -1.235 -8.452 3.855 -10.803 -1.312 -5.249 -449.857 -1124.867 -3494.973 1.180 -0.332 0.490 -0.04 0.53 -0.85 0.07
1 7.23 723 -1.480 -8.505 3.860 -9.613 -4.242 -8.362 -449.857 -1124.867 -3494.973 1.426 -0.287 0.470 -0.04 0.53 -0.85 0.07
1 7.24 724 -1.465 -8.461 3.855 -9.064 -8.667 -9.705 -614.899 -1064.906 -3479.983 1.417 -0.337 0.461 -0.04 0.53 -0.85 0.07
1 7.25 725 -1.374 -8.437 3.783 -9.491 -15.930 -9.552 -704.991 -1079.896 -3389.892 1.336 -0.367 0.520 -0.04 0.53 -0.84 0.07
1 7.26 726 -1.159 -8.442 3.764 -11.902 -20.355 -7.568 -659.870 -1019.936 -3509.963 1.132 -0.369 0.526 -0.04 0.53 -0.84 0.07
1 7.27 727 -0.867 -8.639 3.778 -13.825 -21.545 -6.989 -659.870 -1019.936 -3509.963 0.854 -0.181 0.495 -0.05 0.53 -0.84 0.07
1 7.28 728 -0.666 -8.619 3.716 -15.076 -22.095 -6.775 -584.919 -1139.857 -3554.934 0.688 -0.219 0.517 -0.05 0.53 -0.84 0.08
1 7.29 729 -0.541 -8.624 3.697 -13.184 -21.057 -6.836 -824.913 -1124.867 -3389.892 0.582 -0.224 0.516 -0.05 0.53 -0.84 0.08
1 7.30 730 -0.651 -8.821 3.591 -11.231 -19.928 -7.355 -824.913 -1124.867 -3389.892 0.711 -0.037 0.602 -0.05 0.53 -0.84 0.08
1 7.31 731 -0.623 -8.710 3.510 -11.902 -20.386 -5.829 -629.890 -929.994 -3419.872 0.700 -0.155 0.665 -0.05 0.53 -0.84 0.08
1 7.32 732 -0.675 -8.935 3.572 -11.536 -22.736 -3.296 -839.903 -914.854 -3659.866 0.769 0.061 0.584 -0.06 0.53 -0.84 0.08
1 7.33 733 -0.292 -8.935 3.524 -9.094 -26.276 0.366 -749.961 -1049.916 -3539.944 0.400 0.052 0.613 -0.06 0.53 -0.84 0.08
1 7.34 734 0.038 -8.849 3.591 -6.836 -29.450 3.174 -749.961 -1049.916 -3539.944 0.081 -0.042 0.529 -0.06 0.54 -0.84 0.08
1 7.35 735 0.326 -8.572 3.611 -3.540 -29.572 4.639 -659.870 -1064.906 -3479.983 -0.193 -0.325 0.497 -0.06 0.54 -0.84 0.08
1 7.36 736 0.426 -8.495 4.113 -4.517 -22.827 5.951 -764.952 -989.955 -3449.853 -0.269 -0.408 -0.020 -0.06 0.54 -0.84 0.08
1 7.37 737 0.259 -8.562 3.831 -7.233 -17.548 7.080 -764.952 -989.955 -3449.853 -0.094 -0.343 0.257 -0.06 0.54 -0.84 0.08
1 7.38 738 0.335 -8.519 3.553 -7.080 -17.700 6.622 -869.883 -914.854 -3449.853 -0.168 -0.391 0.525 -0.07 0.54 -0.84 0.09
1 7.39 739 0.383 -8.730 3.338 -11.047 -20.905 2.869 -974.965 -854.893 -3389.892 -0.210 -0.186 0.728 -0.07 0.54 -0.84 0.09
1 7.40 740 0.522 -9.055 3.194 -12.146 -21.057 -0.702 -869.883 -944.984 -3554.934 -0.336 0.131 0.852 -0.07 0.54 -0.84 0.09
1 7.41 741 0.895 -8.921 3.338 -9.277 -17.242 -1.587 -869.883 -944.984 -3554.934 -0.693 -0.012 0.687 -0.07 0.54 -0.84 0.09
1 7.42 742 0.819 -8.935 3.520 -7.782 -12.756 -2.808 -914.854 -1019.936 -3584.915 -0.600 -0.005 0.487 -0.07 0.54 -0.83 0.09
1 7.43 743 1.063 -9.050 3.635 -8.942 -9.430 -3.571 -989.955 -989.955 -3509.963 -0.811 0.098 0.344 -0.07 0.54 -0.83 0.09
1 7.44 744 1.039 -9.132 3.697 -7.690 -5.157 -6.165 -989.955 -989.955 -3509.963 -0.770 0.174 0.268 -0.07 0.54 -0.83 0.09
1 7.45 745 0.991 -9.098 3.630 -2.106 -2.228 -8.850 -764.952 -944.984 -3479.983 -0.703 0.136 0.325 -0.08 0.54 -0.83 0.09
1 7.46 746 0.541 -9.290 3.692 0.671 0.671 -11.322 -914.854 -869.883 -3479.983 -0.233 0.327 0.260 -0.08 0.54 -0.83 0.09
1 7.47 747 -0.187 -9.615 3.615 -1.068 4.425 -13.580 -764.952 -944.984 -3479.983 0.513 0.653 0.336 -0.08 0.54 -0.83 0.09
1 7.48 748 -0.584 -9.932 3.611 -1.740 5.005 -12.543 -764.952 -944.984 -3479.983 0.928 0.969 0.338 -0.08 0.54 -0.83 0.09
1 7.49 749 -1.063 -10.329 3.941 -2.899 4.761 -9.949 -989.955 -944.984 -3374.901 1.417 1.365 0.003 -0.08 0.54 -0.83 0.08
1 7.50 750 -1.250 -10.999 4.951 -6.592 3.998 -3.265 -914.854 -869.883 -3329.931 1.613 2.030 -1.020 -0.08 0.54 -0.83 0.08
1 7.51 751 -0.867 -12.517 6.484 -17.456 1.343 23.468 -914.854 -869.883 -3329.931 1.218 3.540 -2.569 -0.08 0.54 -0.83 0.08
1 7.52 752 0.378 -12.704 6.881 -5.493 -0.061 46.570 -914.854 -914.854 -3449.853 -0.068 3.716 -2.988 -0.08 0.54 -0.83 0.09
1 7.53 753 0.986 -11.449 5.378 16.174 0.549 53.986 -764.952 -1064.906 -3479.983 -0.744 2.460 -1.483 -0.07 0.54 -0.83 0.09
1 7.54 754 0.259 -9.635 4.477 32.135 2.258 30.579 -929.994 -929.994 -3569.924 -0.087 0.656 -0.554 -0.07 0.54 -0.83 0.09
1 7.55 755 -0.809 -9.319 4.214 17.700 0.000 14.771 -929.994 -929.994 -3569.924 0.931 0.359 -0.245 -0.07 0.54 -0.83 0.09
1 7.56 756 -1.714 -9.615 3.855 -6.500 -9.338 2.441 -704.991 -959.975 -3389.892 1.810 0.670 0.147 -0.07 0.54 -0.83 0.1
1 7.57 757 -1.786 -10.923 4.075 -31.433 -21.545 -6.561 -839.903 -914.854 -3329.931 1.870 1.978 -0.072 -0.07 0.54 -0.83 0.1
1 7.58 758 -1.221 -12.766 4.214 -21.271 -23.071 -4.883 -839.903 -914.854 -3329.931 1.343 3.785 -0.296 -0.07 0.54 -0.83 0.1
1 7.59 759 -1.135 -12.690 4.947 18.219 -12.024 1.801 -794.932 -944.984 -3479.983 1.273 3.702 -1.043 -0.07 0.54 -0.83 0.1
1 7.60 760 -1.020 -11.550 5.550 38.605 -6.866 3.235 -914.854 -944.984 -3449.853 1.161 2.578 -1.611 -0.07 0.54 -0.83 0.1
1 7.61 761 -0.934 -10.621 5.885 29.266 -16.510 0.275 -839.903 -944.984 -3554.934 1.078 1.672 -1.893 -0.07 0.54 -0.83 0.1
1 7.62 762 -0.048 -10.075 5.909 10.681 -31.677 2.197 -839.903 -944.984 -3554.934 0.205 1.142 -1.882 -0.07 0.54 -0.83 0.1
1 7.63 763 0.220 -9.898 5.780 14.984 -21.973 6.378 -794.932 -989.955 -3404.882 -0.045 0.973 -1.736 -0.08 0.54 -0.83 0.1
1 7.64 764 0.096 -9.395 5.066 23.071 -11.963 5.981 -749.961 -884.874 -3419.872 0.088 0.479 -1.004 -0.08 0.54 -0.83 0.1
1 7.65 765 -0.086 -8.706 4.506 26.947 -16.785 0.488 -749.961 -884.874 -3419.872 0.276 -0.178 -0.374 -0.08 0.53 -0.84 0.1
1 7.66 766 0.206 -7.892 4.243 29.053 -33.234 -8.942 -1019.936 -989.955 -3554.934 0.006 -0.973 -0.070 -0.08 0.53 -0.84 0.1
1 7.67 767 0.508 -7.192 4.405 35.248 -35.309 -9.552 -1019.936 -989.955 -3479.983 -0.261 -1.651 -0.189 -0.08 0.53 -0.84 0.1
1 7.68 768 0.800 -6.661 4.889 40.497 -31.128 -8.423 -1004.945 -929.994 -3599.905 -0.517 -2.158 -0.624 -0.08 0.52 -0.84 0.11
1 7.69 769 0.934 -6.010 4.923 40.711 -25.238 -7.721 -1004.945 -929.994 -3599.905 -0.620 -2.781 -0.602 -0.09 0.52 -0.84 0.11
1 7.70 770 1.264 -5.856 4.980 33.142 -24.323 -4.150 -1004.945 -1004.945 -3539.944 -0.923 -2.906 -0.606 -0.09 0.52 -0.84 0.11
1 7.71 771 1.992 -6.144 5.277 24.048 -25.299 1.099 -974.965 -884.874 -3599.905 -1.627 -2.595 -0.856 -0.09 0.52 -0.84 0.11
1 7.72 772 2.662 -7.111 5.627 -0.305 -20.599 3.662 -974.965 -884.874 -3599.905 -2.267 -1.600 -1.154 -0.09 0.51 -0.85 0.11
1 7.73 773 2.811 -7.858 5.425 -5.615 -11.566 -0.366 -974.965 -959.975 -3539.944 -2.389 -0.847 -0.944 -0.09 0.51 -0.85 0.11
1 7.74 774 2.476 -8.528 5.119 4.150 -5.188 -4.639 -1019.936 -1139.857 -3659.866 -2.026 -0.173 -0.634 -0.09 0.51 -0.85 0.11
1 7.75 775 1.772 -8.835 5.445 15.442 -4.334 -10.040 -1019.936 -1139.857 -3659.866 -1.295 0.142 -0.945 -0.09 0.51 -0.85 0.11
1 7.76 776 0.397 -8.821 5.636 17.242 -3.540 -17.090 -1109.877 -1049.916 -3794.928 0.109 0.144 -1.109 -0.1 0.51 -0.85 0.11
1 7.77 777 -0.297 -8.605 5.449 20.325 -2.716 -14.313 -1004.945 -1079.896 -3674.856 0.832 -0.055 -0.893 -0.1 0.51 -0.85 0.11
1 7.78 778 -0.555 -8.557 5.042 22.461 -3.448 -6.226 -1034.926 -1079.896 -3644.875 1.111 -0.084 -0.453 -0.1 0.51 -0.85 0.11
1 7.79 779 -0.369 -8.313 4.688 23.590 -8.911 4.272 -1034.926 -1079.896 -3644.875 0.931 -0.309 -0.064 -0.1 0.5 -0.85 0.11
1 7.80 780 0.450 -8.509 4.688 18.005 -20.325 16.846 -1094.887 -1139.857 -3629.885 0.097 -0.080 -0.001 -0.1 0.5 -0.85 0.11
1 7.81 781 1.326 -8.758 4.707 13.611 -21.484 19.867 -989.955 -1259.929 -3704.986 -0.788 0.181 0.002 -0.1 0.5 -0.85 0.11
1 7.82 782 2.155 -9.046 4.305 16.327 -18.280 20.508 -989.955 -1259.929 -3704.986 -1.623 0.477 0.421 -0.1 0.5 -0.85 0.11
1 7.83 783 2.562 -8.969 4.085 22.492 -12.695 21.088 -1139.857 -1139.857 -3704.986 -2.034 0.411 0.661 -0.1 0.5 -0.85 0.11
1 7.84 784 2.964 -8.629 3.898 27.374 -6.134 18.768 -1154.998 -1079.896 -3674.856 -2.441 0.085 0.874 -0.1 0.5 -0.85 0.11
1 7.85 785 2.988 -8.385 3.917 24.353 -3.357 15.961 -1154.998 -1154.998 -3599.905 -2.467 -0.142 0.885 -0.1 0.5 -0.86 0.12
1 7.86 786 2.902 -8.126 3.572 19.592 -0.946 10.651 -1154.998 -1154.998 -3599.905 -2.380 -0.385 1.257 -0.1 0.49 -0.86 0.12
1 7.87 787 3.007 -8.011 3.419 15.778 2.869 6.683 -1094.887 -1094.887 -3584.915 -2.474 -0.477 1.449 -0.1 0.49 -0.86 0.12
1 7.88 788 2.753 -7.983 3.237 11.627 8.240 2.960 -974.965 -1304.900 -3749.957 -2.211 -0.499 1.642 -0.1 0.49 -0.86 0.12
1 7.89 789 2.782 -7.791 3.113 10.834 11.780 0.732 -974.965 -1304.900 -3749.957 -2.231 -0.685 1.775 -0.1 0.49 -0.86 0.12
1 7.90 790 2.571 -7.753 3.141 9.155 15.381 -1.495 -1064.906 -1409.981 -3839.898 -2.012 -0.719 1.754 -0.1 0.49 -0.86 0.11
1 7.91 791 2.303 -7.968 3.419 1.953 18.616 -2.350 -974.965 -1154.998 -3824.908 -1.745 -0.499 1.484 -0.1 0.49 -0.86 0.11
1 7.92 792 2.193 -8.265 3.524 -1.190 20.752 -4.303 -1019.936 -1484.933 -3839.898 -1.630 -0.202 1.377 -0.1 0.49 -0.86 0.11
1 7.93 793 1.992 -8.260 3.620 1.160 23.285 -6.897 -1019.936 -1484.933 -3839.898 -1.425 -0.210 1.276 -0.1 0.49 -0.86 0.11
1 7.94 794 1.757 -7.887 3.496 6.897 25.513 -8.575 -1019.936 -1169.988 -3839.898 -1.183 -0.583 1.400 -0.09 0.49 -0.86 0.11
1 7.95 795 1.532 -7.020 3.184 5.371 25.024 -9.705 -944.984 -1289.910 -3704.986 -0.965 -1.442 1.726 -0.09 0.49 -0.86 0.1
1 7.96 796 1.619 -7.121 2.978 -12.909 25.726 -10.803 -944.984 -1289.910 -3704.986 -1.057 -1.339 1.937 -0.09 0.49 -0.86 0.1
1 7.97 797 1.346 -7.461 2.888 -30.884 32.501 -13.214 -974.965 -1199.968 -3794.928 -0.789 -1.011 2.007 -0.09 0.49 -0.86 0.1
1 7.98 798 0.709 -7.848 2.940 -33.478 40.131 -14.648 -1004.945 -1154.998 -3794.928 -0.160 -0.646 1.916 -0.09 0.49 -0.86 0.1
1 7.99 799 0.081 -8.198 3.357 -28.961 35.950 -14.679 -1064.906 -1169.988 -3764.947 0.457 -0.319 1.460 -0.09 0.5 -0.86 0.09
1 8.00 800 -0.263 -8.342 3.587 -20.538 24.811 -12.207 -1064.906 -1169.988 -3764.947 0.794 -0.198 1.191 -0.08 0.5 -0.86 0.09
1 8.01 801 -0.302 -8.021 3.769 -11.169 13.092 -6.073 -1019.936 -1214.958 -3809.918 0.826 -0.538 0.976 -0.08 0.5 -0.86 0.09
1 8.02 802 -0.139 -7.705 3.793 -13.245 8.331 5.035 -854.893 -1304.900 -3854.889 0.648 -0.874 0.918 -0.08 0.5 -0.86 0.09
1 8.03 803 -0.101 -7.781 3.654 -19.409 15.503 11.963 -854.893 -1304.900 -3854.889 0.594 -0.808 1.039 -0.08 0.5 -0.86 0.09
1 8.04 804 -0.374 -7.753 3.740 -20.325 23.132 21.179 -974.965 -1079.896 -3854.889 0.836 -0.851 0.929 -0.08 0.51 -0.85 0.09
1 8.05 805 -1.006 -8.227 5.765 -22.186 26.764 24.231 -974.965 -1274.919 -3719.977 1.421 -0.393 -1.121 -0.08 0.51 -0.85 0.09
1 8.06 806 -3.132 -11.464 10.966 -73.395 4.913 -16.846 -899.864 -1049.916 -3824.908 3.491 2.828 -6.348 -0.07 0.51 -0.85 0.09
1 8.07 807 -2.615 -12.551 6.153 -81.604 -15.198 -49.988 -899.864 -1049.916 -3824.908 2.973 3.874 -1.613 -0.07 0.51 -0.85 0.09
1 8.08 808 -0.924 -11.143 3.433 30.914 -27.954 -9.064 -704.991 -1079.896 -3929.990 1.352 2.408 0.989 -0.08 0.52 -0.85 0.08
1 8.09 809 1.183 -8.691 3.381 91.919 -19.714 40.009 -749.961 -1079.896 -3719.977 -0.731 0.012 1.147 -0.08 0.51 -0.85 0.09
1 8.10 810 4.405 -6.733 6.163 14.160 -23.499 61.646 -749.961 -1079.896 -3719.977 -4.004 -1.903 -1.547 -0.08 0.51 -0.85 0.09
1 8.11 811 5.789 -7.317 8.160 -86.975 -16.052 56.641 -899.864 -1079.896 -3749.957 -5.426 -1.324 -3.551 -0.08 0.51 -0.85 0.09
1 8.12 812 5.382 -9.184 6.532 -117.432 14.374 33.264 -929.994 -1124.867 -3749.957 -5.081 0.471 -2.057 -0.08 0.52 -0.85 0.1
1 8.13 813 3.462 -11.766 5.018 -32.623 25.086 2.960 -869.883 -1169.988 -3764.947 -3.211 2.978 -0.688 -0.08 0.52 -0.84 0.1
1 8.14 814 2.021 -11.823 6.963 18.280 9.705 -10.223 -869.883 -1169.988 -3764.947 -1.796 3.002 -2.698 -0.07 0.53 -0.84 0.1
1 8.15 815 1.312 -10.449 7.437 24.963 7.172 -24.567 -899.864 -929.994 -3674.856 -1.087 1.634 -3.160 -0.07 0.53 -0.84 0.1
1 8.16 816 0.828 -9.955 7.480 7.965 9.216 -27.741 -824.913 -1004.945 -3719.977 -0.546 1.170 -3.148 -0.07 0.52 -0.84 0.09
1 8.17 817 0.599 -11.109 7.312 -30.060 12.970 -23.956 -824.913 -1004.945 -3719.977 -0.289 2.316 -2.997 -0.07 0.52 -0.84 0.09
1 8.18 818 0.115 -11.483 6.771 -19.501 17.090 -22.247 -899.864 -1049.916 -3929.990 0.218 2.672 -2.494 -0.07 0.53 -0.84 0.09
1 8.19 819 -0.096 -10.918 6.335 7.629 26.856 -14.160 -899.864 -1049.916 -3929.990 0.445 2.100 -2.073 -0.07 0.53 -0.84 0.08
1 8.20 820 -0.441 -9.663 6.259 15.717 36.987 -0.244 -749.961 -854.893 -3794.928 0.787 0.854 -1.979 -0.07 0.53 -0.84 0.08
1 8.21 821 -0.910 -8.792 6.244 7.874 34.821 1.862 -749.961 -854.893 -3794.928 1.236 -0.006 -1.939 -0.07 0.52 -0.84 0.08
1 8.22 822 -0.919 -8.591 6.024 1.007 30.060 0.946 -854.893 -1049.916 -3674.856 1.220 -0.200 -1.703 -0.07 0.52 -0.85 0.08
1 8.23 823 -0.852 -8.409 5.598 -0.824 25.086 2.472 -794.932 -1064.906 -3764.947 1.126 -0.377 -1.265 -0.06 0.52 -0.85 0.08
1 8.24 824 -0.752 -7.791 5.153 3.448 18.280 4.364 -794.932 -1064.906 -3764.947 0.970 -0.985 -0.797 -0.06 0.52 -0.85 0.08
1 8.25 825 -0.321 -7.652 5.033 4.120 12.573 1.068 -690.000 -989.955 -3839.898 0.516 -1.117 -0.663 -0.06 0.52 -0.85 0.08
1 8.26 826 0.091 -7.394 4.980 0.885 7.568 -3.845 -690.000 -989.955 -3839.898 0.094 -1.370 -0.597 -0.06 0.52 -0.85 0.08
1 8.27 827 0.498 -7.283 4.827 -0.793 7.263 -8.026 -764.952 -1064.906 -3809.918 -0.312 -1.475 -0.435 -0.06 0.52 -0.85 0.08
1 8.28 828 0.412 -7.427 4.635 0.153 18.829 -13.947 -764.952 -1064.906 -3809.918 -0.218 -1.329 -0.238 -0.06 0.52 -0.85 0.07
1 8.29 829 0.005 -7.585 4.765 -1.892 29.022 -16.052 -690.000 -1064.906 -3809.918 0.196 -1.170 -0.366 -0.06 0.52 -0.85 0.07
1 8.30 830 -0.986 -7.916 4.492 -5.005 33.112 -16.296 -690.000 -1064.906 -3734.967 1.190 -0.839 -0.092 -0.06 0.52 -0.85 0.07
1 8.31 831 -1.671 -8.217 4.305 -5.219 28.809 -12.482 -690.000 -1064.906 -3734.967 1.862 -0.539 0.091 -0.05 0.52 -0.85 0.07
1 8.32 832 -1.901 -7.868 4.075 3.815 17.731 -1.770 -734.971 -989.955 -3659.866 2.072 -0.889 0.321 -0.05 0.52 -0.85 0.07
1 8.33 833 -1.738 -7.710 4.386 6.683 10.529 4.822 -734.971 -989.955 -3659.866 1.884 -1.043 0.019 -0.05 0.52 -0.85 0.07
1 8.34 834 -1.317 -7.432 4.640 2.472 6.561 8.362 -704.991 -1079.896 -3794.928 1.435 -1.316 -0.223 -0.05 0.52 -0.85 0.07
1 8.35 835 -0.565 -7.499 4.477 -5.402 7.568 9.766 -584.919 -914.854 -3809.918 0.662 -1.246 -0.056 -0.05 0.52 -0.85 0.07
1 8.36 836 -0.666 -7.528 4.286 -6.622 10.498 10.010 -839.903 -1019.936 -3704.986 0.743 -1.219 0.133 -0.05 0.52 -0.85 0.07
1 8.37 837 -0.517 -7.676 4.319 -6.531 13.519 7.843 -539.948 -1094.887 -3884.869 0.575 -1.075 0.092 -0.04 0.52 -0.85 0.07
1 8.38 838 -0.728 -7.767 4.310 -7.324 14.069 6.226 -539.948 -1094.887 -3884.869 0.748 -0.992 0.085 -0.04 0.52 -0.85 0.07
1 8.39 839 -1.044 -7.825 4.109 -9.522 11.383 3.479 -569.929 -1049.916 -3794.928 1.044 -0.939 0.277 -0.04 0.52 -0.85 0.07
1 8.40 840 -0.881 -7.987 3.898 -12.054 8.759 2.350 -569.929 -1049.916 -3794.928 0.862 -0.782 0.476 -0.04 0.52 -0.85 0.07
1 8.41 841 -0.967 -8.131 3.931 -13.794 7.202 1.556 -584.919 -1064.906 -3809.918 0.933 -0.647 0.426 -0.04 0.53 -0.85 0.07
1 8.42 842 -0.814 -8.323 3.797 -11.047 6.622 -0.580 -449.857 -959.975 -3824.908 0.768 -0.464 0.543 -0.04 0.53 -0.85 0.07
1 8.43 843 -0.857 -8.385 3.802 -10.162 7.233 -2.350 -524.958 -1004.945 -3674.856 0.801 -0.410 0.521 -0.04 0.53 -0.85 0.06
1 8.44 844 -0.867 -8.557 3.793 -11.475 7.355 -2.960 -584.919 -869.883 -3659.866 0.803 -0.245 0.516 -0.04 0.53 -0.85 0.06
1 8.45 845 -0.819 -8.615 3.884 -13.641 5.707 -2.716 -584.919 -869.883 -3659.866 0.749 -0.195 0.409 -0.04 0.53 -0.85 0.06
1 8.46 846 -0.838 -8.667 3.907 -12.787 3.143 -2.380 -584.919 -839.903 -3809.918 0.757 -0.161 0.347 -0.04 0.53 -0.84 0.06
1 8.47 847 -0.804 -8.763 4.056 -11.597 1.953 -4.059 -584.919 -839.903 -3809.918 0.720 -0.074 0.180 -0.03 0.53 -0.84 0.06
1 8.48 848 -1.053 -8.720 3.965 -10.101 1.862 -4.791 -614.899 -1019.936 -3809.918 0.968 -0.124 0.256 -0.03 0.53 -0.84 0.06
1 8.49 849 -1.116 -8.591 3.970 -8.728 -1.587 -5.768 -659.870 -989.955 -3734.967 1.031 -0.260 0.238 -0.03 0.53 -0.84 0.06
1 8.50 850 -1.030 -8.552 3.682 -8.209 -8.881 -5.798 -599.909 -884.874 -3644.875 0.947 -0.303 0.514 -0.03 0.53 -0.84 0.06
1 8.51 851 -0.972 -8.514 3.936 -10.071 -10.590 -6.836 -614.899 -944.984 -3659.866 0.895 -0.347 0.249 -0.04 0.53 -0.84 0.06
1 8.52 852 -1.082 -8.514 3.826 -11.841 -11.108 -6.744 -614.899 -944.984 -3659.866 1.014 -0.353 0.346 -0.04 0.53 -0.84 0.06
1 8.53 853 -1.149 -8.591 3.749 -10.468 -13.825 -6.073 -524.958 -959.975 -3674.856 1.100 -0.291 0.392 -0.04 0.54 -0.84 0.06
1 8.54 854 -1.398 -8.667 3.620 -10.681 -15.930 -6.989 -524.958 -959.975 -3674.856 1.359 -0.221 0.507 -0.04 0.54 -0.84 0.06
1 8.55 855 -1.513 -8.763 3.472 -8.514 -19.562 -7.324 -690.000 -1064.906 -3734.967 1.484 -0.132 0.641 -0.04 0.54 -0.84 0.06
1 8.56 856 -1.422 -8.615 3.285 -6.104 -25.116 -6.409 -599.909 -959.975 -3644.875 1.406 -0.286 0.815 -0.04 0.54 -0.84 0.06
1 8.57 857 -1.212 -8.533 3.227 -6.409 -29.785 -5.035 -539.948 -869.883 -3629.885 1.209 -0.373 0.862 -0.04 0.54 -0.84 0.07
1 8.58 858 -0.623 -8.548 3.314 -6.073 -32.166 -1.129 -734.971 -794.932 -3809.918 0.637 -0.364 0.764 -0.04 0.54 -0.84 0.07
1 8.59 859 -0.512 -8.567 3.793 -7.782 -30.274 0.214 -734.971 -794.932 -3809.918 0.543 -0.350 0.273 -0.05 0.54 -0.84 0.07
1 8.60 860 -0.244 -8.639 3.726 -10.742 -24.933 1.282 -539.948 -869.883 -3734.967 0.303 -0.289 0.316 -0.05 0.54 -0.84 0.07
1 8.61 861 -0.034 -8.916 3.649 -12.848 -21.668 1.740 -539.948 -869.883 -3734.967 0.104 -0.019 0.376 -0.05 0.54 -0.84 0.07
1 8.62 862 -0.196 -9.113 3.721 -14.191 -20.477 1.740 -764.952 -839.903 -3704.986 0.277 0.169 0.285 -0.05 0.54 -0.84 0.07
1 8.63 863 -0.134 -9.266 3.836 -12.421 -20.294 1.556 -749.961 -809.922 -3824.908 0.224 0.314 0.150 -0.05 0.54 -0.84 0.07
1 8.64 864 0.110 -9.520 4.046 -9.949 -21.698 1.282 -779.942 -704.991 -3794.928 -0.011 0.560 -0.078 -0.05 0.54 -0.83 0.07
1 8.65 865 0.397 -9.544 3.864 -8.637 -21.118 0.397 -704.991 -854.893 -3824.908 -0.287 0.577 0.088 -0.06 0.54 -0.83 0.08
1 8.66 866 0.441 -9.424 3.970 -3.601 -20.294 -1.099 -704.991 -854.893 -3824.908 -0.317 0.452 -0.030 -0.06 0.54 -0.83 0.08
1 8.67 867 0.675 -9.448 4.018 -2.686 -18.738 -3.174 -794.932 -869.883 -3764.947 -0.536 0.473 -0.085 -0.06 0.54 -0.83 0.08
1 8.68 868 0.613 -9.491 4.065 -4.517 -14.587 -7.477 -794.932 -869.883 -3764.947 -0.433 0.512 -0.143 -0.06 0.54 -0.83 0.08
1 8.69 869 0.330 -9.764 3.984 -3.693 -10.376 -10.254 -899.864 -959.975 -3644.875 -0.127 0.783 -0.067 -0.06 0.54 -0.83 0.08
1 8.70 870 -0.019 -10.161 3.860 -6.500 -7.019 -10.773 -869.883 -719.981 -3734.967 0.244 1.178 0.050 -0.06 0.54 -0.83 0.08
1 8.71 871 -0.426 -10.310 3.606 -7.385 -4.974 -9.003 -824.913 -809.922 -3719.977 0.669 1.322 0.294 -0.07 0.54 -0.83 0.08
1 8.72 872 -0.685 -10.568 3.395 -1.923 -7.874 -6.134 -929.994 -779.942 -3674.856 0.943 1.578 0.496 -0.07 0.55 -0.83 0.08
1 8.73 873 -0.828 -10.353 3.572 2.197 -9.796 -3.510 -929.994 -779.942 -3674.856 1.101 1.361 0.316 -0.07 0.55 -0.83 0.08
1 8.74 874 -0.646 -10.449 4.233 2.625 -12.116 0.397 -989.955 -839.903 -3659.866 0.931 1.458 -0.343 -0.07 0.54 -0.83 0.08
1 8.75 875 -0.407 -11.277 5.698 -5.524 -12.207 7.965 -989.955 -839.903 -3659.866 0.700 2.288 -1.807 -0.07 0.54 -0.83 0.08
1 8.76 876 0.910 -13.193 7.595 -19.989 -5.646 32.868 -1019.936 -719.981 -3764.947 -0.636 4.194 -3.722 -0.07 0.55 -0.83 0.08
1 8.77 877 1.619 -12.101 5.794 -3.571 -0.610 45.929 -1094.887 -869.883 -3764.947 -1.393 3.091 -1.946 -0.07 0.55 -0.83 0.08
1 8.78 878 1.135 -10.343 4.257 32.593 -0.793 35.462 -1094.887 -869.883 -3764.947 -0.971 1.336 -0.399 -0.07 0.55 -0.83 0.09
1 8.79 879 0.038 -9.285 4.123 28.259 -7.111 5.890 -839.903 -674.860 -3764.947 0.086 0.299 -0.214 -0.06 0.54 -0.83 0.09
1 8.80 880 -1.049 -9.031 3.726 4.089 -10.407 -7.080 -839.903 -674.860 -3764.947 1.166 0.066 0.229 -0.06 0.54 -0.83 0.09
1 8.81 881 -1.350 -9.328 3.941 -12.116 -20.569 -14.771 -824.913 -734.971 -3719.977 1.477 0.369 0.028 -0.07 0.54 -0.83 0.09
1 8.82 882 -1.164 -10.276 4.463 -25.696 -31.860 -20.203 -824.913 -734.971 -3719.977 1.349 1.299 -0.537 -0.07 0.54 -0.83 0.09
1 8.83 883 -0.330 -11.181 4.884 -11.963 -31.464 -20.081 -944.984 -749.961 -3659.866 0.566 2.190 -0.993 -0.07 0.54 -0.83 0.09
1 8.84 884 0.005 -10.793 5.133 11.444 -27.557 -15.961 -794.932 -794.932 -3659.866 0.275 1.800 -1.250 -0.08 0.54 -0.83 0.09
1 8.85 885 0.292 -9.807 5.301 25.024 -26.123 -12.146 -794.932 -794.932 -3659.866 0.026 0.824 -1.396 -0.08 0.54 -0.83 0.09
1 8.86 886 0.627 -8.907 5.967 19.043 -28.015 -12.848 -944.984 -674.860 -3734.967 -0.276 -0.059 -2.027 -0.08 0.54 -0.83 0.09
1 8.87 887 0.579 -8.500 6.086 13.489 -24.780 -10.254 -944.984 -674.860 -3734.967 -0.193 -0.450 -2.112 -0.08 0.54 -0.83 0.09
1 8.88 888 0.378 -8.179 6.101 17.853 -19.318 -5.951 -1034.926 -809.922 -3824.908 0.042 -0.755 -2.095 -0.08 0.54 -0.83 0.09
1 8.89 889 0.067 -7.753 5.746 27.344 -15.656 -2.808 -1034.926 -809.922 -3824.908 0.377 -1.164 -1.705 -0.09 0.54 -0.84 0.09
1 8.90 890 -0.225 -7.068 5.354 39.887 -21.942 1.923 -1064.906 -749.961 -3704.986 0.693 -1.798 -1.204 -0.09 0.53 -0.84 0.09
1 8.91 891 0.086 -6.680 5.047 42.328 -31.250 7.904 -1154.998 -884.874 -3749.957 0.389 -2.154 -0.831 -0.09 0.53 -0.84 0.09
1 8.92 892 0.747 -6.714 5.555 29.846 -35.187 16.235 -1154.998 -884.874 -3749.957 -0.264 -2.094 -1.285 -0.09 0.52 -0.84 0.1
1 8.93 893 1.456 -7.135 5.785 4.669 -29.816 19.135 -1139.857 -914.854 -3734.967 -0.972 -1.658 -1.484 -0.09 0.52 -0.84 0.1
1 8.94 894 2.073 -8.054 5.138 -5.463 -12.390 17.181 -1139.857 -914.854 -3734.967 -1.592 -0.732 -0.825 -0.09 0.52 -0.84 0.1
1 8.95 895 1.997 -8.447 5.100 8.087 -5.768 13.672 -989.955 -914.854 -3839.898 -1.518 -0.339 -0.785 -0.09 0.52 -0.84 0.1
1 8.96 896 1.705 -8.629 5.253 17.548 -3.662 9.522 -989.955 -914.854 -3839.898 -1.228 -0.151 -0.925 -0.09 0.52 -0.84 0.1
1 8.97 897 1.350 -8.380 5.258 18.066 -2.808 5.798 -1169.988 -794.932 -3884.869 -0.871 -0.370 -0.872 -0.09 0.52 -0.84 0.1
1 8.98 898 0.670 -8.605 5.057 9.827 -4.944 5.737 -1034.926 -929.994 -3824.908 -0.191 -0.132 -0.643 -0.09 0.52 -0.85 0.1
1 8.99 899 0.766 -8.682 4.712 6.348 -9.766 7.019 -1034.926 -929.994 -3824.908 -0.289 -0.047 -0.282 -0.09 0.52 -0.85 0.1
1 9.00 900 1.125 -8.854 4.520 9.766 -14.740 9.735 -1064.906 -944.984 -3839.898 -0.648 0.132 -0.078 -0.09 0.51 -0.85 0.11
1 9.01 901 1.714 -8.658 4.516 12.543 -16.663 13.336 -1064.906 -944.984 -3839.898 -1.236 -0.057 -0.059 -0.09 0.51 -0.85 0.11
1 9.02 902 2.193 -8.859 4.382 12.878 -12.116 14.618 -1094.887 -914.854 -3884.869 -1.713 0.153 0.092 -0.09 0.51 -0.85 0.11
1 9.03 903 2.155 -8.777 4.113 15.625 -6.744 13.428 -1094.887 -914.854 -3884.869 -1.672 0.080 0.376 -0.09 0.51 -0.85 0.11
1 9.04 904 2.045 -8.639 3.831 18.829 -5.402 9.003 -1034.926 -1124.867 -3929.990 -1.561 -0.039 0.697 -0.1 0.51 -0.85 0.11
1 9.05 905 1.915 -8.485 3.687 19.043 -7.599 4.456 -1094.887 -1064.906 -3884.869 -1.425 -0.181 0.861 -0.1 0.51 -0.85 0.11
1 9.06 906 1.844 -8.366 3.548 16.327 -8.362 1.282 -1094.887 -1064.906 -3884.869 -1.341 -0.290 1.020 -0.1 0.51 -0.85 0.11
1 9.07 907 1.863 -8.519 3.577 14.648 -8.240 -1.373 -1169.988 -869.883 -3734.967 -1.345 -0.127 1.008 -0.1 0.51 -0.85 0.11
1 9.08 908 1.853 -8.605 3.644 14.343 -7.690 -2.472 -1199.968 -944.984 -3944.980 -1.316 -0.032 0.955 -0.1 0.51 -0.85 0.11
1 9.09 909 1.887 -8.256 3.553 17.914 -5.310 -2.289 -974.965 -1004.945 -3899.859 -1.331 -0.373 1.060 -0.1 0.5 -0.85 0.11
1 9.10 910 1.944 -7.997 3.328 18.890 -2.380 -1.373 -974.965 -1004.945 -3899.859 -1.370 -0.621 1.302 -0.1 0.5 -0.85 0.11
1 9.11 911 1.968 -7.978 3.304 13.489 0.183 0.031 -1109.877 -1154.998 -3929.990 -1.379 -0.628 1.346 -0.1 0.5 -0.85 0.11
1 9.12 912 2.107 -7.911 3.079 3.845 7.233 3.143 -1199.968 -944.984 -3839.898 -1.504 -0.681 1.595 -0.1 0.5 -0.85 0.11
1 9.13 913 2.097 -8.174 2.978 -1.678 13.001 6.165 -1199.968 -944.984 -3839.898 -1.505 -0.416 1.701 -0.1 0.5 -0.85 0.11
1 9.14 914 2.212 -8.016 2.840 -2.869 17.395 9.216 -1199.968 -1019.936 -4019.931 -1.633 -0.578 1.835 -0.1 0.5 -0.85 0.11
1 9.15 915 2.241 -8.011 2.734 -4.272 19.806 10.437 -1109.877 -959.975 -3974.960 -1.681 -0.587 1.934 -0.1 0.5 -0.85 0.11
1 9.16 916 2.366 -8.045 2.768 -10.834 20.752 10.773 -1139.857 -1139.857 -3839.898 -1.834 -0.558 1.896 -0.1 0.5 -0.85 0.11
1 9.17 917 2.466 -8.088 2.816 -10.742 22.369 9.888 -1139.857 -1139.857 -3839.898 -1.963 -0.522 1.838 -0.09 0.5 -0.85 0.11
1 9.18 918 2.643 -7.872 2.993 -10.895 25.177 8.148 -1064.906 -1019.936 -3944.980 -2.161 -0.747 1.644 -0.09 0.5 -0.85 0.11
1 9.19 919 2.375 -7.882 2.998 -9.644 30.212 5.066 -1154.998 -1004.945 -4049.912 -1.925 -0.758 1.604 -0.09 0.51 -0.85 0.1
1 9.20 920 1.906 -7.700 3.405 -11.017 32.501 0.702 -1154.998 -1004.945 -4049.912 -1.483 -0.947 1.188 -0.09 0.51 -0.85 0.1
1 9.21 921 1.293 -7.815 3.587 -14.862 33.783 -5.463 -929.994 -1079.896 -4004.941 -0.892 -0.840 0.993 -0.08 0.51 -0.85 0.1
1 9.22 922 0.752 -8.414 3.850 -18.127 32.532 -12.085 -1079.896 -1004.945 -4004.941 -0.364 -0.252 0.711 -0.08 0.51 -0.85 0.1
1 9.23 923 0.019 -8.744 4.075 -13.855 24.780 -19.165 -929.994 -1004.945 -3929.990 0.369 0.066 0.461 -0.08 0.51 -0.85 0.1
1 9.24 924 -0.311 -8.754 4.075 -9.247 17.761 -20.630 -929.994 -1004.945 -3929.990 0.706 0.065 0.441 -0.08 0.51 -0.85 0.09
1 9.25 925 -0.287 -8.490 3.826 -6.561 14.160 -18.097 -854.893 -1049.916 -3974.960 0.693 -0.205 0.676 -0.08 0.51 -0.85 0.09
1 9.26 926 -0.081 -8.356 3.539 -5.188 12.360 -9.186 -929.994 -884.874 -3974.960 0.500 -0.348 0.944 -0.08 0.51 -0.85 0.09
1 9.27 927 0.000 -8.045 3.467 -15.930 19.348 5.096 -929.994 -884.874 -3974.960 0.409 -0.667 1.002 -0.08 0.52 -0.85 0.09
1 9.28 928 -0.101 -8.040 3.936 -24.902 31.799 13.458 -854.893 -959.975 -3854.889 0.484 -0.686 0.508 -0.08 0.52 -0.85 0.09
1 9.29 929 -0.551 -8.624 4.889 -33.447 44.251 17.700 -869.883 -869.883 -3989.951 0.888 -0.121 -0.479 -0.07 0.52 -0.85 0.09
1 9.30 930 -1.906 -11.205 8.088 -65.918 31.220 1.831 -824.913 -929.994 -4049.912 2.185 2.436 -3.723 -0.07 0.52 -0.85 0.09
1 9.31 931 -2.356 -12.685 6.532 -85.205 11.231 -25.910 -824.913 -929.994 -4049.912 2.602 3.877 -2.243 -0.07 0.53 -0.84 0.08
1 9.32 932 -1.231 -11.732 3.280 -10.376 1.099 -12.604 -824.913 -854.893 -3974.960 1.493 2.870 0.896 -0.07 0.53 -0.84 0.08
1 9.33 933 0.038 -10.176 3.108 58.014 0.458 23.407 -899.864 -884.874 -3824.908 0.250 1.293 1.022 -0.07 0.53 -0.84 0.08
1 9.34 934 2.825 -9.228 6.790 2.686 -14.221 47.577 -899.864 -884.874 -3824.908 -2.606 0.400 -2.539 -0.07 0.53 -0.84 0.08
1 9.35 935 4.870 -11.066 9.611 -81.940 -21.454 45.349 -899.864 -854.893 -3974.960 -4.698 2.227 -5.383 -0.07 0.53 -0.84 0.09
1 9.36 936 5.492 -11.698 7.350 -90.485 -1.770 16.419 -764.952 -749.961 -3734.967 -5.363 2.800 -3.248 -0.07 0.54 -0.84 0.09
1 9.37 937 4.994 -11.675 4.971 -6.073 10.376 -10.681 -734.971 -869.883 -3944.980 -4.877 2.732 -0.964 -0.07 0.54 -0.83 0.09
1 9.38 938 3.510 -10.147 6.919 40.497 12.482 -19.379 -734.971 -869.883 -3944.980 -3.380 1.212 -2.897 -0.06 0.54 -0.84 0.09
1 9.39 939 2.519 -9.170 7.283 18.524 21.912 -21.607 -824.913 -734.971 -3854.889 -2.369 0.261 -3.203 -0.06 0.54 -0.84 0.09
1 9.40 940 1.317 -9.467 7.216 -6.714 33.722 -25.696 -690.000 -644.880 -3764.947 -1.150 0.575 -3.101 -0.06 0.53 -0.84 0.08
1 9.41 941 -0.163 -10.075 6.479 -18.036 41.504 -24.231 -690.000 -644.880 -3764.947 0.357 1.173 -2.385 -0.06 0.54 -0.84 0.08
1 9.42 942 -1.302 -10.056 5.296 3.510 38.696 -17.212 -674.860 -884.874 -3854.889 1.502 1.147 -1.219 -0.06 0.54 -0.84 0.07
1 9.43 943 -1.484 -9.165 4.827 25.513 31.555 -9.003 -704.991 -734.971 -3854.889 1.682 0.263 -0.734 -0.06 0.54 -0.84 0.07
1 9.44 944 -1.202 -8.131 5.119 29.999 26.550 -5.798 -794.932 -674.860 -3734.967 1.386 -0.752 -0.984 -0.06 0.53 -0.84 0.07
1 9.45 945 -0.963 -7.379 5.507 21.790 25.086 -4.669 -794.932 -674.860 -3734.967 1.127 -1.482 -1.325 -0.05 0.53 -0.84 0.07
1 9.46 946 -0.690 -7.130 5.425 6.409 25.604 -4.425 -690.000 -749.961 -3944.980 0.836 -1.713 -1.204 -0.05 0.53 -0.84 0.07
1 9.47 947 -0.680 -6.943 5.176 2.197 24.902 -5.035 -690.000 -794.932 -3884.869 0.810 -1.887 -0.929 -0.05 0.53 -0.84 0.07
1 9.48 948 -0.771 -7.394 5.191 2.258 20.599 -9.064 -690.000 -794.932 -3884.869 0.883 -1.430 -0.928 -0.05 0.53 -0.84 0.06
1 9.49 949 -0.800 -7.418 4.985 3.540 16.571 -9.460 -659.870 -749.961 -3809.918 0.906 -1.399 -0.707 -0.05 0.53 -0.85 0.06
1 9.50 950 -0.757 -7.317 4.827 5.920 12.604 -4.791 -659.870 -749.961 -3944.980 0.857 -1.492 -0.533 -0.04 0.53 -0.85 0.06
1 9.51 951 -0.637 -7.403 4.683 5.859 10.223 -0.854 -659.870 -749.961 -3944.980 0.732 -1.399 -0.376 -0.04 0.53 -0.85 0.06
1 9.52 952 -0.613 -7.767 4.712 -4.150 10.773 1.526 -659.870 -749.961 -3809.918 0.702 -1.031 -0.397 -0.04 0.53 -0.85 0.06
1 9.53 953 -0.623 -8.299 4.918 -9.644 10.559 5.157 -734.971 -794.932 -3704.986 0.699 -0.498 -0.598 -0.04 0.53 -0.85 0.06
1 9.54 954 -0.646 -8.663 4.736 -8.575 8.179 9.277 -539.948 -749.961 -3884.869 0.706 -0.136 -0.421 -0.04 0.53 -0.85 0.06
1 9.55 955 -0.551 -8.777 4.765 -4.181 6.683 12.116 -539.948 -749.961 -3884.869 0.589 -0.024 -0.456 -0.04 0.53 -0.85 0.06
1 9.56 956 -0.474 -8.600 4.741 6.073 7.172 15.137 -539.948 -719.981 -3839.898 0.461 -0.200 -0.429 -0.04 0.53 -0.85 0.06
1 9.57 957 -0.685 -8.299 4.836 7.141 7.935 14.984 -659.870 -674.860 -3809.918 0.644 -0.496 -0.512 -0.04 0.53 -0.85 0.06
1 9.58 958 -0.833 -8.246 4.813 3.296 7.233 14.313 -659.870 -674.860 -3809.918 0.763 -0.541 -0.474 -0.04 0.53 -0.85 0.06
1 9.59 959 -0.872 -8.361 4.520 -2.838 5.951 14.526 -599.909 -884.874 -3719.977 0.772 -0.422 -0.174 -0.03 0.53 -0.85 0.06
1 9.60 960 -0.828 -8.552 4.123 -2.594 3.387 11.261 -614.899 -794.932 -3915.000 0.702 -0.231 0.223 -0.03 0.53 -0.85 0.07
1 9.61 961 -0.771 -8.552 3.984 -1.251 2.869 8.057 -659.870 -719.981 -3915.000 0.621 -0.232 0.359 -0.03 0.53 -0.85 0.07
1 9.62 962 -0.579 -8.485 3.726 -1.007 3.632 5.524 -659.870 -719.981 -3915.000 0.412 -0.299 0.616 -0.03 0.53 -0.85 0.07
1 9.63 963 -0.737 -8.452 3.840 -4.456 4.089 4.150 -584.919 -749.961 -3884.869 0.544 -0.335 0.495 -0.03 0.53 -0.85 0.07
1 9.64 964 -0.804 -8.567 3.769 -6.195 5.280 2.594 -464.997 -719.981 -3944.980 0.600 -0.224 0.559 -0.03 0.53 -0.85 0.07
1 9.65 965 -0.690 -8.639 3.716 -6.287 4.181 2.441 -464.997 -719.981 -3944.980 0.475 -0.157 0.601 -0.03 0.53 -0.85 0.07
1 9.66 966 -0.646 -8.591 3.754 -3.967 3.143 1.617 -584.919 -719.981 -3839.898 0.423 -0.209 0.553 -0.03 0.53 -0.85 0.07
1 9.67 967 -0.642 -8.505 3.850 -0.427 3.815 -2.777 -434.867 -749.961 -3915.000 0.412 -0.299 0.450 -0.03 0.53 -0.85 0.07
1 9.68 968 -0.632 -8.447 3.879 0.885 4.089 -5.341 -734.971 -719.981 -3734.967 0.400 -0.358 0.418 -0.03 0.53 -0.85 0.07
1 9.69 969 -0.891 -8.461 3.907 0.946 5.371 -7.233 -734.971 -719.981 -3734.967 0.660 -0.344 0.389 -0.03 0.53 -0.85 0.07
1 9.70 970 -1.293 -8.423 3.836 -1.007 5.615 -7.996 -494.978 -659.870 -3854.889 1.066 -0.382 0.461 -0.03 0.53 -0.85 0.07
1 9.71 971 -1.489 -8.390 3.989 -0.641 -2.441 -7.782 -614.899 -644.880 -3809.918 1.264 -0.417 0.305 -0.03 0.53 -0.85 0.07
1 9.72 972 -1.437 -8.236 3.793 -0.488 -8.942 -9.399 -614.899 -644.880 -3809.918 1.217 -0.570 0.501 -0.03 0.53 -0.85 0.07
1 9.73 973 -1.159 -8.078 3.759 -0.916 -14.923 -9.918 -584.919 -599.909 -3884.869 0.950 -0.729 0.534 -0.03 0.53 -0.85 0.07
1 9.74 974 -1.144 -8.088 4.056 -5.188 -16.449 -10.895 -539.948 -674.860 -3989.951 0.952 -0.721 0.235 -0.03 0.53 -0.85 0.07
1 9.75 975 -1.178 -8.179 3.946 -6.989 -15.137 -9.979 -690.000 -914.854 -3764.947 1.004 -0.633 0.340 -0.03 0.53 -0.85 0.07
1 9.76 976 -1.370 -8.131 3.735 -7.294 -14.801 -8.728 -690.000 -914.854 -3764.947 1.213 -0.684 0.544 -0.03 0.53 -0.84 0.07
1 9.77 977 -1.326 -8.117 3.716 -7.385 -15.137 -7.324 -614.899 -599.909 -3884.869 1.184 -0.703 0.554 -0.03 0.53 -0.84 0.07
1 9.78 978 -1.240 -8.265 3.443 -9.705 -20.630 -2.289 -569.929 -779.942 -3974.960 1.120 -0.565 0.805 -0.03 0.53 -0.84 0.07
1 9.79 979 -1.049 -8.361 3.237 -13.977 -25.299 0.641 -569.929 -779.942 -3974.960 0.936 -0.477 0.995 -0.04 0.53 -0.84 0.07
1 9.80 980 -0.685 -8.481 3.285 -15.900 -28.442 2.991 -704.991 -734.971 -3719.977 0.580 -0.369 0.925 -0.04 0.53 -0.84 0.07
1 9.81 981 -0.268 -8.653 3.146 -15.076 -28.076 4.608 -690.000 -719.981 -3884.869 0.173 -0.208 1.039 -0.04 0.53 -0.84 0.07
1 9.82 982 -0.029 -8.567 3.481 -14.740 -24.719 3.296 -674.860 -779.942 -3854.889 -0.057 -0.306 0.680 -0.04 0.53 -0.84 0.07
1 9.83 983 0.153 -8.658 3.601 -14.832 -20.355 0.946 -674.860 -779.942 -3854.889 -0.229 -0.225 0.537 -0.04 0.54 -0.84 0.07
1 9.84 984 0.057 -8.983 3.769 -16.205 -15.839 1.068 -614.899 -644.880 -3764.947 -0.121 0.090 0.348 -0.04 0.54 -0.84 0.07
1 9.85 985 -0.148 -9.046 3.721 -16.876 -12.512 -0.580 -614.899 -599.909 -3915.000 0.105 0.131 0.349 -0.05 0.54 -0.84 0.08
1 9.86 986 -0.192 -9.204 3.558 -15.167 -16.235 -2.258 -614.899 -599.909 -3915.000 0.157 0.277 0.487 -0.05 0.54 -0.84 0.08
1 9.87 987 -0.048 -9.141 3.500 -12.421 -21.607 -5.402 -629.890 -659.870 -3794.928 0.028 0.205 0.522 -0.05 0.54 -0.84 0.08
