COL1	TIME	ACC_X	ACC_Y	ACC_Z	GYR_X	GYR_Y	GYR_Z	MAG_X	MAG_Y	MAG_Z	LACC_X	LACC_Y	LACC_Z	QUAT_X	QUAT_Y	QUAT_Z	QUAT_W
1 0.00 0 0.019 -9.817 0.795 -0.702 -0.549 0.854 -599.909 -119.922 -2339.976 -0.193 0.045 -0.074 -0.09 0.67 -0.72 0.11
1 0.01 1 -0.201 -9.850 0.699 -0.732 -0.610 1.556 -704.991 -164.893 -2339.976 0.028 0.078 0.023 -0.09 0.67 -0.72 0.11
1 0.02 2 -0.206 -9.869 0.709 -1.038 -0.183 1.282 -659.870 -299.955 -2429.917 0.033 0.097 0.014 -0.09 0.67 -0.72 0.11
1 0.03 3 -0.148 -9.965 0.737 -1.160 -0.244 1.068 -629.890 -164.893 -2294.855 -0.024 0.193 -0.014 -0.09 0.67 -0.72 0.11
1 0.04 4 -0.263 -9.970 0.747 -0.732 -0.488 1.770 -629.890 -164.893 -2294.855 0.091 0.198 -0.024 -0.09 0.67 -0.72 0.11
1 0.05 5 -0.115 -9.912 0.723 -1.068 -0.244 0.732 -599.909 -89.941 -2414.927 -0.058 0.141 -0.000 -0.09 0.67 -0.72 0.11
1 0.06 6 -0.096 -9.912 0.776 -1.129 -0.305 1.648 -599.909 -89.941 -2414.927 -0.077 0.141 -0.053 -0.09 0.67 -0.72 0.11
1 0.07 7 -0.177 -9.807 0.819 -0.977 0.397 1.740 -764.952 -149.902 -2354.966 0.004 0.035 -0.095 -0.09 0.67 -0.72 0.11
1 0.08 8 -0.278 -9.855 0.833 -0.702 -0.946 0.793 -690.000 -224.854 -2504.868 0.104 0.083 -0.110 -0.09 0.67 -0.72 0.11
1 0.09 9 -0.125 -9.864 0.757 -0.641 -1.038 0.641 -704.991 -119.922 -2474.888 -0.050 0.093 -0.032 -0.09 0.67 -0.72 0.11
1 0.10 10 -0.139 -9.855 0.723 -0.763 0.031 1.160 -794.932 -29.980 -2429.917 -0.035 0.083 0.002 -0.09 0.67 -0.72 0.11
1 0.11 11 -0.235 -9.812 0.800 -1.587 -1.282 1.190 -794.932 -29.980 -2429.917 0.061 0.040 -0.074 -0.09 0.67 -0.72 0.11
1 0.12 12 -0.163 -9.860 0.809 -1.526 0.092 1.648 -659.870 -74.951 -2249.884 -0.011 0.088 -0.083 -0.09 0.67 -0.72 0.11
1 0.13 13 -0.225 -9.888 0.804 -1.953 -0.092 1.648 -659.870 -74.951 -2249.884 0.051 0.117 -0.079 -0.09 0.67 -0.72 0.11
1 0.14 14 -0.096 -9.999 0.752 -2.045 0.214 1.373 -509.968 -149.902 -2384.946 -0.079 0.227 -0.027 -0.09 0.67 -0.72 0.11
1 0.15 15 -0.163 -9.855 0.776 -1.160 -0.366 1.465 -509.968 -224.854 -2324.985 -0.013 0.083 -0.052 -0.09 0.67 -0.72 0.11
1 0.16 16 -0.057 -9.778 0.872 -1.495 0.519 1.862 -674.860 -119.922 -2339.976 -0.120 0.007 -0.149 -0.09 0.67 -0.72 0.11
1 0.17 17 -0.096 -9.903 0.781 -1.160 0.458 1.495 -674.860 -314.945 -2339.976 -0.082 0.131 -0.058 -0.09 0.67 -0.72 0.11
1 0.18 18 -0.062 -9.879 0.776 -1.373 1.465 1.862 -674.860 -314.945 -2339.976 -0.117 0.107 -0.053 -0.09 0.67 -0.72 0.11
1 0.19 19 -0.182 -9.888 0.699 -1.434 1.831 2.136 -629.890 -209.863 -2369.956 0.002 0.117 0.023 -0.09 0.67 -0.72 0.11
1 0.20 20 -0.096 -9.860 0.876 -0.275 1.770 0.488 -629.890 -209.863 -2369.956 -0.087 0.088 -0.155 -0.09 0.67 -0.72 0.11
1 0.21 21 -0.144 -9.927 0.761 -1.312 3.143 0.885 -794.932 -179.883 -2249.884 -0.039 0.155 -0.039 -0.09 0.67 -0.72 0.11
1 0.22 22 -0.230 -9.864 0.685 -2.014 2.899 2.136 -690.000 -149.902 -2354.966 0.048 0.093 0.037 -0.09 0.67 -0.72 0.11
1 0.23 23 -0.211 -9.999 0.718 -2.045 1.343 1.099 -734.971 -74.951 -2354.966 0.025 0.227 -0.000 -0.09 0.67 -0.72 0.11
1 0.24 24 -0.148 -9.874 0.838 -1.587 1.099 1.617 -794.932 -74.951 -2384.946 -0.039 0.102 -0.122 -0.09 0.67 -0.72 0.11
1 0.25 25 -0.196 -9.793 0.781 -1.129 0.854 1.190 -794.932 -74.951 -2384.946 0.008 0.021 -0.065 -0.09 0.68 -0.72 0.11
1 0.26 26 -0.292 -9.797 0.881 -2.625 1.312 1.770 -779.942 -119.922 -2414.927 0.103 0.025 -0.166 -0.09 0.68 -0.72 0.11
1 0.27 27 -0.239 -9.797 0.795 -2.441 1.251 1.251 -779.942 -119.922 -2414.927 0.049 0.025 -0.083 -0.09 0.68 -0.72 0.11
1 0.28 28 -0.086 -9.879 0.819 -1.099 2.472 1.495 -584.919 -29.980 -2324.985 -0.106 0.106 -0.109 -0.09 0.68 -0.72 0.11
1 0.29 29 -0.101 -9.989 0.833 -0.244 2.625 1.221 -764.952 -179.883 -2384.946 -0.093 0.217 -0.123 -0.09 0.68 -0.72 0.11
1 0.30 30 -0.196 -9.793 0.848 -1.038 3.296 1.099 -779.942 -164.893 -2369.956 0.002 0.020 -0.136 -0.09 0.68 -0.72 0.11
1 0.31 31 -0.148 -9.869 0.761 -1.190 3.448 1.038 -704.991 -164.893 -2414.927 -0.047 0.097 -0.050 -0.09 0.68 -0.72 0.11
1 0.32 32 -0.139 -9.888 0.661 -0.519 1.923 1.709 -704.991 -164.893 -2414.927 -0.057 0.116 0.049 -0.09 0.68 -0.72 0.11
1 0.33 33 -0.345 -9.812 0.785 -0.214 2.228 0.671 -690.000 -179.883 -2324.985 0.147 0.040 -0.075 -0.09 0.68 -0.72 0.11
1 0.34 34 -0.168 -9.812 0.771 -0.336 1.740 0.977 -690.000 -179.883 -2324.985 -0.031 0.040 -0.060 -0.09 0.68 -0.72 0.11
1 0.35 35 -0.287 -9.817 0.776 -1.892 0.824 1.831 -659.870 -179.883 -2459.897 0.088 0.044 -0.065 -0.09 0.68 -0.72 0.11
1 0.36 36 -0.273 -9.951 0.728 -1.587 1.312 1.221 -569.929 -389.896 -2189.923 0.072 0.179 -0.017 -0.09 0.68 -0.72 0.11
1 0.37 37 -0.177 -9.951 0.766 -1.282 0.946 1.312 -569.929 -389.896 -2189.923 -0.026 0.179 -0.057 -0.09 0.68 -0.72 0.11
1 0.38 38 -0.134 -9.855 0.953 -0.427 2.319 0.458 -704.991 -119.922 -2414.927 -0.072 0.083 -0.244 -0.09 0.68 -0.72 0.11
1 0.39 39 -0.115 -9.912 0.709 0.549 4.059 1.068 -704.991 -119.922 -2414.927 -0.090 0.140 0.001 -0.09 0.68 -0.72 0.11
1 0.40 40 -0.220 -9.917 0.761 0.549 4.761 2.258 -659.870 -224.854 -2429.917 0.014 0.145 -0.049 -0.09 0.68 -0.72 0.11
1 0.41 41 -0.192 -9.936 0.795 -0.061 5.432 1.984 -659.870 -224.854 -2429.917 -0.017 0.165 -0.081 -0.08 0.68 -0.72 0.11
1 0.42 42 -0.034 -10.137 0.819 1.343 7.355 1.465 -584.919 -74.951 -2504.868 -0.177 0.366 -0.104 -0.08 0.68 -0.72 0.11
1 0.43 43 -0.206 -9.917 0.690 1.495 7.996 1.465 -690.000 -74.951 -2279.865 -0.005 0.146 0.028 -0.08 0.68 -0.72 0.11
1 0.44 44 -0.172 -9.893 0.747 1.251 8.331 2.136 -690.000 -74.951 -2279.865 -0.039 0.122 -0.026 -0.08 0.68 -0.73 0.11
1 0.45 45 -0.268 -9.917 0.752 -0.824 8.606 1.831 -690.000 -149.902 -2459.897 0.052 0.147 -0.025 -0.08 0.68 -0.73 0.1
1 0.46 46 -0.091 -9.850 0.881 -1.282 9.460 0.824 -690.000 -149.902 -2459.897 -0.128 0.080 -0.155 -0.08 0.68 -0.73 0.1
1 0.47 47 -0.297 -10.046 0.766 -0.488 10.742 1.404 -569.929 -164.893 -2294.855 0.077 0.276 -0.040 -0.08 0.68 -0.73 0.1
1 0.48 48 -0.172 -9.797 0.881 1.678 9.949 1.953 -569.929 -164.893 -2294.855 -0.050 0.027 -0.154 -0.08 0.68 -0.73 0.1
1 0.49 49 -0.249 -9.826 0.795 2.380 11.902 0.885 -569.929 -209.863 -2369.956 0.024 0.056 -0.063 -0.08 0.68 -0.73 0.1
1 0.50 50 -0.417 -9.745 1.020 1.953 11.963 2.228 -690.000 -254.984 -2384.946 0.189 -0.025 -0.284 -0.08 0.68 -0.73 0.1
1 0.51 51 -0.369 -9.716 0.919 1.404 11.292 2.228 -690.000 -254.984 -2384.946 0.138 -0.053 -0.178 -0.08 0.68 -0.73 0.1
1 0.52 52 -0.350 -9.773 0.781 2.380 11.353 2.106 -629.890 -284.964 -2369.956 0.110 0.005 -0.030 -0.08 0.68 -0.73 0.1
1 0.53 53 -0.436 -9.745 0.867 1.740 10.864 2.594 -629.890 -284.964 -2369.956 0.191 -0.023 -0.111 -0.08 0.68 -0.73 0.1
1 0.54 54 -0.369 -9.721 0.862 1.465 10.345 2.228 -674.860 -209.863 -2339.976 0.119 -0.047 -0.103 -0.08 0.68 -0.73 0.1
1 0.55 55 -0.508 -9.730 0.862 1.526 10.223 3.265 -674.860 -209.863 -2339.976 0.253 -0.036 -0.098 -0.07 0.67 -0.73 0.1
1 0.56 56 -0.259 -9.778 0.886 1.709 10.162 2.838 -464.997 -254.984 -2249.884 -0.003 0.012 -0.119 -0.07 0.67 -0.73 0.1
1 0.57 57 -0.354 -9.807 0.809 1.312 10.193 3.326 -524.958 -284.964 -2294.855 0.087 0.041 -0.038 -0.07 0.67 -0.73 0.1
1 0.58 58 -0.565 -9.802 0.948 0.702 8.820 3.937 -524.958 -284.964 -2294.855 0.293 0.037 -0.174 -0.07 0.67 -0.73 0.1
1 0.59 59 -0.421 -9.941 0.809 0.488 8.759 2.533 -569.929 -209.863 -2519.858 0.143 0.176 -0.032 -0.07 0.67 -0.73 0.1
1 0.60 60 -0.441 -9.955 1.001 0.305 8.423 3.632 -449.857 -164.893 -2339.976 0.152 0.191 -0.220 -0.07 0.67 -0.73 0.1
1 0.61 61 -0.383 -9.817 0.843 -1.068 9.491 3.754 -599.909 -209.863 -2369.956 0.088 0.052 -0.060 -0.07 0.67 -0.73 0.1
1 0.62 62 -0.383 -9.898 0.771 -0.214 8.301 2.319 -599.909 -209.863 -2369.956 0.082 0.134 0.012 -0.07 0.67 -0.73 0.1
1 0.63 63 -0.431 -9.903 0.804 0.305 7.263 2.106 -434.867 -254.984 -2384.946 0.126 0.139 -0.020 -0.07 0.67 -0.73 0.1
1 0.64 64 -0.637 -9.893 0.814 0.763 6.348 1.495 -599.909 -209.863 -2414.927 0.328 0.130 -0.028 -0.07 0.67 -0.73 0.1
1 0.65 65 -0.340 -9.888 0.872 0.427 5.920 1.434 -599.909 -209.863 -2414.927 0.028 0.125 -0.083 -0.07 0.67 -0.73 0.1
1 0.66 66 -0.316 -9.965 0.848 -0.885 5.005 0.427 -584.919 -299.955 -2429.917 0.002 0.202 -0.058 -0.07 0.67 -0.73 0.09
1 0.67 67 -0.402 -9.903 0.886 0.214 4.120 0.732 -584.919 -104.932 -2354.966 0.087 0.140 -0.096 -0.07 0.67 -0.73 0.09
1 0.68 68 -0.637 -9.869 0.963 1.770 3.784 -0.122 -374.906 -314.945 -2369.956 0.321 0.106 -0.170 -0.06 0.67 -0.73 0.09
1 0.69 69 -0.670 -9.831 0.929 1.709 2.014 -0.641 -374.906 -314.945 -2369.956 0.354 0.068 -0.133 -0.06 0.67 -0.73 0.09
1 0.70 70 -0.445 -9.879 1.044 1.770 1.556 -1.617 -434.867 -299.955 -2534.999 0.128 0.117 -0.244 -0.06 0.67 -0.73 0.09
1 0.71 71 -0.536 -9.979 1.207 1.221 1.404 -0.305 -599.909 -119.922 -2294.855 0.221 0.218 -0.401 -0.06 0.67 -0.73 0.09
1 0.72 72 -0.584 -9.860 0.958 1.099 -0.336 -1.709 -599.909 -119.922 -2294.855 0.268 0.098 -0.147 -0.06 0.67 -0.73 0.09
1 0.73 73 -0.575 -9.860 1.001 -0.671 -1.648 -0.214 -524.958 -209.863 -2369.956 0.260 0.099 -0.186 -0.06 0.67 -0.73 0.09
1 0.74 74 -0.512 -9.898 1.015 -1.526 -3.143 -1.556 -494.978 -119.922 -2474.888 0.199 0.137 -0.198 -0.06 0.67 -0.73 0.09
1 0.75 75 -0.555 -9.936 0.967 -1.251 -3.448 -2.380 -509.968 -224.854 -2429.917 0.245 0.175 -0.150 -0.06 0.67 -0.73 0.09
1 0.76 76 -0.345 -9.994 0.939 -0.397 -4.761 -2.075 -509.968 -224.854 -2429.917 0.039 0.233 -0.121 -0.06 0.67 -0.73 0.09
1 0.77 77 -0.354 -10.008 0.929 0.580 -5.798 -1.617 -494.978 -164.893 -2369.956 0.053 0.247 -0.109 -0.06 0.67 -0.73 0.09
1 0.78 78 -0.388 -9.936 0.939 0.702 -5.646 -3.357 -449.857 -239.994 -2219.904 0.091 0.175 -0.115 -0.06 0.67 -0.73 0.09
1 0.79 79 -0.206 -9.884 1.034 0.549 -7.141 -2.930 -449.857 -239.994 -2219.904 -0.084 0.123 -0.208 -0.07 0.67 -0.73 0.09
1 0.80 80 -0.397 -9.960 1.049 1.526 -9.674 -3.784 -524.958 -164.893 -2339.976 0.114 0.200 -0.218 -0.07 0.67 -0.73 0.09
1 0.81 81 -0.402 -9.994 1.125 0.824 -15.137 -4.852 -449.857 -44.971 -2264.875 0.126 0.233 -0.290 -0.07 0.67 -0.73 0.09
1 0.82 82 -0.412 -9.812 1.125 -5.646 -18.189 -6.195 -509.968 -224.854 -2354.966 0.156 0.051 -0.286 -0.07 0.67 -0.73 0.09
1 0.83 83 -0.273 -9.936 0.790 -6.256 -16.113 -6.134 -509.968 -224.854 -2354.966 0.029 0.175 0.044 -0.07 0.67 -0.73 0.09
1 0.84 84 0.034 -10.022 0.943 -3.571 -16.419 -5.615 -434.867 -149.902 -2354.966 -0.266 0.260 -0.117 -0.07 0.67 -0.73 0.09
1 0.85 85 -0.081 -10.176 0.886 0.214 -15.625 -6.134 -629.890 -89.941 -2294.855 -0.137 0.413 -0.061 -0.07 0.67 -0.73 0.09
1 0.86 86 -0.096 -10.066 0.953 2.197 -14.069 -5.707 -629.890 -89.941 -2294.855 -0.109 0.303 -0.125 -0.07 0.67 -0.73 0.1
1 0.87 87 -0.235 -10.137 0.924 -0.916 -14.374 -6.134 -599.909 -209.863 -2474.888 0.042 0.375 -0.090 -0.07 0.67 -0.73 0.1
1 0.88 88 -0.153 -10.113 0.924 -1.984 -17.548 -6.378 -614.899 -179.883 -2279.865 -0.026 0.351 -0.089 -0.08 0.67 -0.73 0.1
1 0.89 89 -0.043 -10.133 0.800 -0.671 -15.533 -7.416 -674.860 -209.863 -2414.927 -0.109 0.369 0.034 -0.08 0.67 -0.73 0.1
1 0.90 90 0.038 -10.104 0.723 2.502 -13.977 -8.362 -674.860 -209.863 -2414.927 -0.174 0.340 0.112 -0.08 0.67 -0.73 0.1
1 0.91 91 -0.129 -9.912 0.795 5.249 -13.947 -9.338 -614.899 -224.854 -2279.865 0.010 0.149 0.046 -0.08 0.67 -0.73 0.1
1 0.92 92 -0.134 -9.817 0.843 6.561 -14.343 -9.308 -734.971 -149.902 -2429.917 0.032 0.054 0.007 -0.08 0.67 -0.73 0.1
1 0.93 93 -0.139 -9.836 0.972 4.547 -15.442 -11.536 -734.971 -149.902 -2429.917 0.055 0.074 -0.111 -0.08 0.67 -0.73 0.1
1 0.94 94 -0.019 -9.812 0.771 0.946 -14.130 -11.078 -749.961 -164.893 -2264.875 -0.046 0.051 0.098 -0.09 0.67 -0.73 0.1
1 0.95 95 -0.043 -9.903 0.809 1.740 -13.245 -10.315 -599.909 -119.922 -2369.956 -0.002 0.142 0.062 -0.09 0.67 -0.73 0.1
1 0.96 96 0.220 -9.702 0.642 4.547 -13.031 -9.247 -734.971 0.000 -2429.917 -0.229 -0.059 0.238 -0.09 0.67 -0.73 0.1
1 0.97 97 0.187 -9.654 0.646 4.334 -11.993 -9.888 -734.971 0.000 -2429.917 -0.177 -0.106 0.239 -0.09 0.67 -0.73 0.1
1 0.98 98 0.235 -9.740 0.670 3.174 -11.047 -8.179 -674.860 -164.893 -2339.976 -0.207 -0.019 0.221 -0.09 0.67 -0.73 0.1
1 0.99 99 0.115 -9.687 0.728 0.275 -10.162 -7.507 -749.961 -119.922 -2264.875 -0.071 -0.072 0.166 -0.09 0.67 -0.73 0.1
1 1.00 100 0.211 -9.884 0.560 -0.031 -10.712 -8.637 -749.961 -119.922 -2264.875 -0.151 0.125 0.334 -0.09 0.67 -0.73 0.1
1 1.01 101 0.105 -9.654 0.690 1.770 -9.735 -7.996 -839.903 -179.883 -2429.917 -0.030 -0.105 0.204 -0.09 0.67 -0.73 0.1
1 1.02 102 0.057 -9.917 0.699 1.312 -10.071 -7.263 -659.870 -179.883 -2429.917 0.034 0.159 0.196 -0.1 0.67 -0.73 0.1
1 1.03 103 0.110 -9.797 0.728 0.336 -9.705 -6.439 -659.870 -179.883 -2429.917 -0.005 0.039 0.168 -0.1 0.67 -0.73 0.1
1 1.04 104 0.158 -9.592 0.699 0.397 -9.644 -6.989 -779.942 -164.893 -2369.956 -0.027 -0.167 0.196 -0.1 0.67 -0.73 0.1
1 1.05 105 0.278 -9.841 0.752 1.556 -9.369 -7.172 -899.864 -284.964 -2444.907 -0.134 0.083 0.144 -0.1 0.67 -0.73 0.1
1 1.06 106 0.364 -9.864 0.790 1.038 -6.622 -5.188 -764.952 -149.902 -2534.999 -0.206 0.107 0.109 -0.1 0.67 -0.73 0.1
1 1.07 107 0.397 -9.687 0.833 1.526 -6.958 -5.798 -764.952 -149.902 -2534.999 -0.228 -0.070 0.067 -0.1 0.67 -0.73 0.1
1 1.08 108 0.110 -9.884 0.704 0.885 -6.683 -4.059 -794.932 -149.902 -2429.917 0.071 0.127 0.199 -0.1 0.67 -0.73 0.1
1 1.09 109 0.278 -9.860 0.867 0.580 -6.378 -4.730 -974.965 -239.994 -2414.927 -0.087 0.103 0.037 -0.1 0.67 -0.73 0.1
1 1.10 110 0.455 -9.826 0.929 -0.641 -5.737 -5.127 -974.965 -239.994 -2414.927 -0.256 0.070 -0.024 -0.1 0.67 -0.73 0.1
1 1.11 111 0.326 -9.802 1.034 -2.594 -4.700 -5.280 -794.932 -149.902 -2459.897 -0.105 0.046 -0.131 -0.11 0.67 -0.73 0.1
1 1.12 112 0.378 -9.922 0.982 -2.197 -4.211 -4.608 -854.893 -164.893 -2414.927 -0.147 0.166 -0.080 -0.11 0.67 -0.73 0.1
1 1.13 113 0.402 -10.022 0.881 -0.061 -2.899 -4.211 -794.932 -254.984 -2429.917 -0.161 0.267 0.019 -0.11 0.67 -0.73 0.1
1 1.14 114 0.546 -9.797 0.943 -0.092 -2.014 -4.791 -794.932 -254.984 -2429.917 -0.295 0.042 -0.042 -0.11 0.67 -0.73 0.1
1 1.15 115 0.503 -9.941 0.929 -0.763 -1.251 -3.998 -1019.936 -254.984 -2459.897 -0.242 0.186 -0.027 -0.11 0.67 -0.73 0.1
1 1.16 116 0.522 -9.893 0.852 -2.319 -0.214 -4.120 -779.942 -209.863 -2339.976 -0.252 0.138 0.049 -0.11 0.67 -0.73 0.1
1 1.17 117 0.350 -9.908 0.934 -2.319 0.549 -4.974 -779.942 -209.863 -2339.976 -0.071 0.153 -0.035 -0.11 0.67 -0.73 0.1
1 1.18 118 0.096 -9.869 0.766 -2.045 0.580 -6.134 -914.854 -149.902 -2279.865 0.202 0.115 0.129 -0.11 0.67 -0.73 0.1
1 1.19 119 0.206 -9.936 0.599 -0.275 -0.031 -6.928 -824.913 -284.964 -2414.927 0.101 0.182 0.294 -0.11 0.67 -0.73 0.1
1 1.20 120 0.263 -9.841 0.886 -0.427 0.061 -6.775 -794.932 -254.984 -2429.917 0.054 0.086 0.006 -0.11 0.67 -0.73 0.1
1 1.21 121 0.445 -9.802 0.776 -2.380 0.732 -6.836 -794.932 -254.984 -2429.917 -0.117 0.048 0.116 -0.11 0.67 -0.73 0.1
1 1.22 122 0.512 -9.898 0.785 -4.913 1.007 -5.737 -869.883 -104.932 -2504.868 -0.173 0.144 0.102 -0.11 0.67 -0.73 0.1
1 1.23 123 0.632 -9.936 0.532 -4.730 2.625 -5.402 -899.864 -164.893 -2414.927 -0.281 0.182 0.347 -0.11 0.67 -0.73 0.1
1 1.24 124 0.493 -9.975 0.594 -2.350 1.831 -4.364 -899.864 -164.893 -2414.927 -0.132 0.220 0.278 -0.11 0.67 -0.73 0.1
1 1.25 125 0.570 -9.893 0.781 -0.702 1.770 -3.784 -839.903 -299.955 -2459.897 -0.199 0.139 0.085 -0.11 0.67 -0.73 0.09
1 1.26 126 0.709 -9.797 0.718 -1.404 2.289 -2.350 -899.864 -164.893 -2444.907 -0.322 0.043 0.143 -0.11 0.67 -0.73 0.09
1 1.27 127 0.843 -9.649 0.800 -1.099 2.350 -2.563 -929.994 -164.893 -2414.927 -0.449 -0.105 0.060 -0.11 0.67 -0.73 0.09
1 1.28 128 0.752 -9.797 0.737 -2.594 3.662 -2.350 -929.994 -164.893 -2414.927 -0.350 0.043 0.120 -0.11 0.67 -0.73 0.09
1 1.29 129 0.579 -9.869 0.656 -4.303 3.876 -1.831 -839.903 -179.883 -2504.868 -0.171 0.115 0.197 -0.11 0.67 -0.73 0.09
1 1.30 130 0.618 -9.836 0.747 -2.167 4.669 -1.892 -899.864 -164.893 -2519.858 -0.205 0.081 0.100 -0.11 0.67 -0.73 0.09
1 1.31 131 0.646 -9.764 0.713 -1.038 5.402 -1.953 -899.864 -164.893 -2519.858 -0.229 0.009 0.130 -0.11 0.67 -0.73 0.09
1 1.32 132 0.508 -9.692 0.804 -1.678 5.310 -2.167 -749.961 -239.994 -2294.855 -0.085 -0.062 0.038 -0.11 0.67 -0.73 0.09
1 1.33 133 0.302 -9.908 0.800 -3.326 6.683 -2.014 -839.903 -104.932 -2384.946 0.130 0.153 0.038 -0.11 0.67 -0.73 0.09
1 1.34 134 0.225 -9.908 0.570 -2.533 4.517 -1.892 -749.961 -89.941 -2369.956 0.208 0.153 0.265 -0.11 0.67 -0.73 0.09
1 1.35 135 0.335 -9.984 0.757 -0.366 4.883 -1.648 -749.961 -89.941 -2369.956 0.099 0.229 0.075 -0.11 0.67 -0.73 0.09
1 1.36 136 0.426 -9.898 0.895 -0.854 3.937 -1.465 -914.854 -179.883 -2459.897 0.010 0.143 -0.064 -0.11 0.67 -0.73 0.09
1 1.37 137 0.455 -9.874 0.761 -1.892 4.120 -0.854 -794.932 -179.883 -2534.999 -0.016 0.119 0.069 -0.11 0.67 -0.73 0.09
1 1.38 138 0.455 -9.812 0.900 -4.456 4.089 -0.916 -794.932 -179.883 -2534.999 -0.014 0.057 -0.072 -0.11 0.67 -0.73 0.09
1 1.39 139 0.517 -9.793 0.804 -5.341 4.517 -0.519 -794.932 -149.902 -2459.897 -0.075 0.037 0.019 -0.11 0.67 -0.73 0.09
1 1.40 140 0.508 -9.860 0.795 -4.089 4.761 0.244 -869.883 -224.854 -2504.868 -0.062 0.103 0.015 -0.11 0.67 -0.73 0.09
1 1.41 141 0.541 -9.879 0.690 -1.373 4.700 0.244 -899.864 -209.863 -2369.956 -0.094 0.122 0.117 -0.11 0.67 -0.73 0.09
1 1.42 142 0.508 -9.893 0.809 -0.031 5.463 0.366 -899.864 -209.863 -2369.956 -0.059 0.137 -0.004 -0.11 0.67 -0.73 0.09
1 1.43 143 0.426 -9.898 0.785 -0.946 5.737 0.397 -839.903 -179.883 -2354.966 0.023 0.142 0.021 -0.11 0.67 -0.73 0.09
1 1.44 144 0.618 -9.874 0.910 -3.296 6.622 -0.397 -779.942 -164.893 -2339.976 -0.168 0.118 -0.104 -0.11 0.67 -0.73 0.09
1 1.45 145 0.402 -9.750 0.819 -3.754 6.287 -0.763 -779.942 -164.893 -2339.976 0.049 -0.007 -0.015 -0.11 0.67 -0.73 0.09
1 1.46 146 0.388 -9.793 0.819 -5.005 6.042 -1.434 -914.854 -254.984 -2429.917 0.065 0.036 -0.019 -0.11 0.67 -0.73 0.09
1 1.47 147 0.407 -9.826 0.790 -5.615 5.524 -1.648 -914.854 -254.984 -2429.917 0.048 0.069 0.005 -0.11 0.67 -0.73 0.09
1 1.48 148 0.450 -9.721 0.761 -4.334 5.066 -2.258 -824.913 -89.941 -2414.927 0.011 -0.037 0.021 -0.11 0.67 -0.73 0.09
1 1.49 149 0.527 -9.884 0.872 -4.028 4.822 -2.228 -824.913 -89.941 -2414.927 -0.063 0.126 -0.094 -0.11 0.67 -0.73 0.09
1 1.50 150 0.412 -9.730 0.828 -5.463 5.219 -1.862 -839.903 -179.883 -2459.897 0.056 -0.028 -0.055 -0.11 0.67 -0.73 0.09
1 1.51 151 0.441 -9.979 0.838 -6.348 5.249 -2.197 -839.903 -179.883 -2354.966 0.031 0.221 -0.071 -0.11 0.67 -0.73 0.09
1 1.52 152 0.570 -9.836 0.819 -4.822 6.104 -1.648 -839.903 -179.883 -2354.966 -0.095 0.077 -0.059 -0.11 0.67 -0.73 0.09
1 1.53 153 0.536 -9.994 0.766 -4.822 6.653 -1.312 -839.903 -254.984 -2324.985 -0.059 0.235 -0.012 -0.11 0.67 -0.73 0.08
1 1.54 154 0.484 -9.932 0.733 -5.127 7.263 -1.526 -839.903 -254.984 -2324.985 -0.003 0.172 0.017 -0.11 0.67 -0.73 0.08
1 1.55 155 0.479 -9.759 0.694 -4.669 6.775 -2.380 -839.903 -149.902 -2249.884 0.008 -0.001 0.043 -0.11 0.67 -0.73 0.08
1 1.56 156 0.488 -9.999 0.723 -4.517 4.944 -2.808 -839.903 -149.902 -2249.884 0.002 0.238 0.009 -0.11 0.67 -0.73 0.08
1 1.57 157 0.354 -9.884 0.632 -4.669 4.761 -2.930 -749.961 -119.922 -2444.907 0.141 0.123 0.094 -0.11 0.67 -0.73 0.08
1 1.58 158 0.407 -9.932 0.632 -4.822 4.852 -2.136 -869.883 -224.854 -2384.946 0.092 0.171 0.088 -0.11 0.67 -0.73 0.08
1 1.59 159 0.311 -9.802 0.613 -4.639 3.998 -0.793 -869.883 -224.854 -2384.946 0.191 0.041 0.100 -0.11 0.67 -0.73 0.08
1 1.60 160 0.512 -9.884 0.766 -4.334 3.815 -1.404 -749.961 -209.863 -2339.976 -0.009 0.122 -0.059 -0.11 0.67 -0.73 0.08
1 1.61 161 0.555 -9.764 0.704 -4.761 3.693 0.000 -749.961 -209.863 -2339.976 -0.050 0.002 -0.002 -0.11 0.67 -0.73 0.08
1 1.62 162 0.498 -9.778 0.828 -5.310 4.364 0.244 -824.913 -284.964 -2294.855 0.012 0.016 -0.138 -0.11 0.67 -0.73 0.08
1 1.63 163 0.536 -9.778 0.728 -6.348 4.272 0.153 -824.913 -284.964 -2294.855 -0.026 0.016 -0.043 -0.11 0.67 -0.73 0.08
1 1.64 164 0.723 -9.826 0.651 -6.226 3.784 -0.336 -779.942 -119.922 -2294.855 -0.212 0.063 0.026 -0.11 0.67 -0.73 0.08
1 1.65 165 0.522 -9.702 0.555 -5.432 4.120 -0.519 -914.854 -149.902 -2384.946 -0.009 -0.062 0.114 -0.11 0.67 -0.73 0.08
1 1.66 166 0.503 -9.807 0.656 -5.219 3.174 -0.275 -914.854 -149.902 -2384.946 0.012 0.043 0.006 -0.11 0.67 -0.73 0.08
1 1.67 167 0.718 -9.721 0.747 -6.104 2.441 -0.702 -749.961 -119.922 -2294.855 -0.202 -0.044 -0.091 -0.11 0.67 -0.73 0.08
1 1.68 168 0.532 -9.831 0.646 -6.714 1.526 0.061 -749.961 -119.922 -2294.855 -0.014 0.066 0.002 -0.11 0.67 -0.73 0.08
1 1.69 169 0.441 -9.773 0.651 -6.104 0.977 -0.366 -690.000 -179.883 -2429.917 0.079 0.008 -0.011 -0.11 0.67 -0.73 0.08
1 1.70 170 0.436 -9.912 0.713 -6.378 -0.122 -0.153 -734.971 -104.932 -2459.897 0.087 0.146 -0.088 -0.11 0.68 -0.72 0.08
1 1.71 171 0.646 -9.927 0.718 -6.897 -0.580 -0.763 -854.893 -119.922 -2369.956 -0.123 0.160 -0.100 -0.11 0.68 -0.72 0.08
1 1.72 172 0.757 -9.970 0.713 -7.751 0.549 -0.244 -839.903 -224.854 -2384.946 -0.231 0.203 -0.104 -0.11 0.68 -0.72 0.08
1 1.73 173 0.699 -10.070 0.709 -6.561 0.244 0.000 -839.903 -224.854 -2384.946 -0.171 0.303 -0.109 -0.11 0.68 -0.72 0.08
1 1.74 174 0.709 -10.080 0.527 -3.448 0.671 -0.824 -854.893 -89.941 -2414.927 -0.178 0.312 0.066 -0.11 0.68 -0.72 0.08
1 1.75 175 0.785 -10.118 0.656 -2.472 0.641 -1.556 -854.893 -89.941 -2414.927 -0.252 0.350 -0.069 -0.11 0.68 -0.72 0.08
1 1.76 176 0.886 -10.200 0.627 -3.113 0.977 -1.526 -779.942 -44.971 -2219.904 -0.348 0.432 -0.043 -0.11 0.68 -0.72 0.08
1 1.77 177 0.910 -10.195 0.512 -2.350 0.397 -2.228 -929.994 -119.922 -2264.875 -0.361 0.427 0.066 -0.11 0.68 -0.72 0.08
1 1.78 178 0.843 -10.176 0.599 -0.275 0.244 -2.258 -854.893 -119.922 -2414.927 -0.287 0.409 -0.022 -0.11 0.68 -0.72 0.08
1 1.79 179 0.919 -10.267 0.690 1.251 -0.183 -2.747 -764.952 -149.902 -2279.865 -0.357 0.500 -0.111 -0.11 0.68 -0.72 0.08
1 1.80 180 1.049 -10.042 0.613 2.777 -0.092 -2.533 -764.952 -149.902 -2279.865 -0.478 0.276 -0.031 -0.11 0.68 -0.72 0.08
1 1.81 181 1.039 -10.008 0.651 3.693 0.824 -2.045 -734.971 -74.951 -2204.914 -0.461 0.243 -0.064 -0.11 0.68 -0.72 0.08
1 1.82 182 1.164 -9.984 0.670 2.777 3.571 -1.007 -734.971 -74.951 -2204.914 -0.578 0.220 -0.075 -0.11 0.68 -0.72 0.08
1 1.83 183 1.154 -9.960 0.848 3.662 4.456 0.488 -764.952 -254.984 -2279.865 -0.563 0.197 -0.246 -0.12 0.68 -0.72 0.08
1 1.84 184 1.279 -9.965 0.915 6.378 7.080 0.519 -779.942 -89.941 -2294.855 -0.678 0.203 -0.294 -0.11 0.67 -0.72 0.08
1 1.85 185 1.216 -9.908 0.996 8.026 7.172 0.763 -869.883 -104.932 -2249.884 -0.612 0.147 -0.361 -0.11 0.67 -0.73 0.08
1 1.86 186 1.058 -9.841 1.053 7.477 5.341 0.366 -899.864 -209.863 -2189.923 -0.450 0.081 -0.402 -0.11 0.67 -0.73 0.08
1 1.87 187 0.800 -9.864 1.049 4.303 -2.380 -1.770 -899.864 -209.863 -2189.923 -0.186 0.106 -0.383 -0.11 0.67 -0.73 0.08
1 1.88 188 0.819 -9.793 0.900 0.671 -5.981 -5.066 -749.961 -44.971 -2294.855 -0.198 0.036 -0.226 -0.12 0.67 -0.73 0.08
1 1.89 189 0.900 -10.075 0.862 2.930 -7.782 -4.974 -749.961 -44.971 -2294.855 -0.269 0.319 -0.184 -0.12 0.67 -0.73 0.08
1 1.90 190 1.068 -10.133 0.713 5.524 -10.956 -3.204 -704.991 -314.945 -2294.855 -0.425 0.378 -0.030 -0.12 0.67 -0.73 0.08
1 1.91 191 0.790 -10.075 0.771 7.599 -10.651 -2.991 -704.991 -14.990 -2444.907 -0.138 0.321 -0.079 -0.12 0.67 -0.73 0.08
1 1.92 192 0.781 -9.975 0.646 9.399 -8.911 -1.404 -764.952 -299.955 -2504.868 -0.112 0.224 0.070 -0.12 0.67 -0.73 0.08
1 1.93 193 0.776 -9.912 0.819 10.040 -8.972 0.305 -869.883 -224.854 -2459.897 -0.103 0.163 -0.089 -0.12 0.67 -0.73 0.08
1 1.94 194 0.785 -9.955 0.838 12.054 -8.240 1.434 -869.883 -224.854 -2459.897 -0.111 0.207 -0.091 -0.12 0.67 -0.73 0.08
1 1.95 195 0.742 -9.716 0.943 12.634 -8.087 3.082 -794.932 -149.902 -2354.966 -0.068 -0.031 -0.177 -0.12 0.67 -0.73 0.08
1 1.96 196 0.852 -9.505 0.881 10.407 -7.446 2.777 -794.932 -149.902 -2354.966 -0.179 -0.240 -0.096 -0.12 0.67 -0.73 0.08
1 1.97 197 0.963 -9.706 1.020 9.460 -7.813 3.326 -869.883 -224.854 -2384.946 -0.291 -0.037 -0.217 -0.12 0.67 -0.73 0.08
1 1.98 198 1.025 -9.654 0.900 9.735 -6.958 3.143 -929.994 -164.893 -2369.956 -0.354 -0.089 -0.081 -0.12 0.67 -0.73 0.08
1 1.99 199 1.015 -9.836 0.857 9.674 -6.958 4.211 -764.952 -104.932 -2459.897 -0.346 0.096 -0.007 -0.12 0.66 -0.73 0.08
1 2.00 200 1.077 -9.797 0.948 11.993 -6.012 3.998 -869.883 -224.854 -2354.966 -0.410 0.059 -0.082 -0.12 0.66 -0.73 0.08
1 2.01 201 1.039 -9.884 0.910 13.733 -4.120 3.815 -869.883 -224.854 -2354.966 -0.373 0.146 -0.025 -0.12 0.66 -0.73 0.09
1 2.02 202 1.044 -9.908 0.924 13.580 -4.822 3.845 -824.913 -44.971 -2444.907 -0.379 0.172 -0.017 -0.12 0.66 -0.73 0.09
1 2.03 203 0.891 -9.807 0.977 14.252 -5.066 4.669 -824.913 -44.971 -2444.907 -0.227 0.074 -0.049 -0.12 0.66 -0.73 0.09
1 2.04 204 0.867 -9.687 0.934 16.022 -6.409 3.967 -824.913 -164.893 -2519.858 -0.206 -0.044 0.017 -0.12 0.66 -0.74 0.09
1 2.05 205 1.044 -9.692 0.996 15.228 -5.676 4.211 -854.893 -284.964 -2339.976 -0.386 -0.037 -0.022 -0.12 0.66 -0.74 0.09
1 2.06 206 1.097 -9.845 1.001 10.376 -5.554 3.662 -764.952 -299.955 -2384.946 -0.443 0.120 0.016 -0.12 0.66 -0.74 0.09
1 2.07 207 1.044 -9.802 0.915 8.911 -4.150 3.998 -899.864 -239.994 -2474.888 -0.390 0.079 0.117 -0.12 0.66 -0.74 0.09
1 2.08 208 0.905 -9.773 0.795 8.392 -4.578 3.479 -899.864 -239.994 -2474.888 -0.251 0.051 0.250 -0.12 0.66 -0.74 0.09
1 2.09 209 0.843 -9.960 0.757 8.667 -4.059 2.594 -824.913 -314.945 -2474.888 -0.190 0.239 0.299 -0.12 0.66 -0.74 0.09
1 2.10 210 0.929 -9.888 0.761 7.751 -4.334 3.265 -824.913 -314.945 -2474.888 -0.277 0.168 0.305 -0.12 0.66 -0.74 0.09
1 2.11 211 0.977 -9.960 0.704 9.155 -2.075 3.845 -869.883 -374.906 -2534.999 -0.325 0.241 0.372 -0.13 0.66 -0.74 0.09
1 2.12 212 1.039 -9.826 0.733 10.498 -1.984 4.303 -914.854 -329.935 -2384.946 -0.389 0.108 0.355 -0.13 0.65 -0.74 0.09
1 2.13 213 1.159 -9.826 0.862 10.284 -1.892 3.845 -914.854 -329.935 -2384.946 -0.511 0.110 0.239 -0.13 0.65 -0.74 0.09
1 2.14 214 1.140 -9.841 0.809 7.385 -0.427 5.249 -854.893 -284.964 -2474.888 -0.495 0.127 0.318 -0.13 0.65 -0.74 0.09
1 2.15 215 1.001 -9.888 0.785 5.646 -1.190 4.120 -854.893 -284.964 -2474.888 -0.359 0.176 0.351 -0.13 0.65 -0.74 0.09
1 2.16 216 0.996 -9.750 0.809 7.233 -1.526 3.998 -794.932 -224.854 -2459.897 -0.357 0.038 0.334 -0.13 0.65 -0.74 0.09
1 2.17 217 0.967 -9.711 0.713 8.789 -1.068 3.754 -794.932 -224.854 -2459.897 -0.330 0.000 0.440 -0.13 0.65 -0.74 0.09
1 2.18 218 0.781 -9.769 0.867 8.270 -2.289 3.601 -794.932 -299.955 -2429.917 -0.145 0.059 0.298 -0.13 0.65 -0.74 0.09
1 2.19 219 0.795 -9.682 0.852 6.622 -2.838 3.510 -839.903 -254.984 -2429.917 -0.160 -0.026 0.323 -0.13 0.65 -0.74 0.09
1 2.20 220 0.828 -9.668 0.761 6.561 -3.204 4.639 -839.903 -254.984 -2429.917 -0.197 -0.040 0.422 -0.13 0.65 -0.74 0.09
1 2.21 221 0.752 -9.702 0.824 7.385 -5.341 3.876 -869.883 -374.906 -2534.999 -0.127 -0.005 0.374 -0.13 0.65 -0.74 0.09
1 2.22 222 0.895 -9.754 0.852 8.728 -6.012 4.425 -869.883 -374.906 -2534.999 -0.274 0.049 0.355 -0.13 0.65 -0.74 0.09
1 2.23 223 1.034 -9.682 0.886 8.179 -5.249 6.012 -854.893 -209.863 -2549.989 -0.416 -0.022 0.332 -0.13 0.65 -0.74 0.1
1 2.24 224 0.881 -9.592 0.876 7.050 -3.815 7.324 -854.893 -209.863 -2549.989 -0.267 -0.112 0.352 -0.13 0.65 -0.74 0.1
1 2.25 225 0.838 -9.716 0.881 6.470 -3.876 7.751 -899.864 -314.945 -2474.888 -0.231 0.013 0.356 -0.13 0.65 -0.74 0.1
1 2.26 226 0.685 -9.754 0.924 7.721 -3.510 8.637 -824.913 -284.964 -2624.940 -0.085 0.052 0.322 -0.13 0.65 -0.74 0.1
1 2.27 227 0.857 -9.807 0.967 7.629 -3.296 8.392 -824.913 -284.964 -2624.940 -0.267 0.106 0.288 -0.13 0.65 -0.74 0.1
1 2.28 228 0.982 -9.845 1.006 4.364 -1.526 8.606 -899.864 -464.997 -2549.989 -0.409 0.145 0.268 -0.13 0.65 -0.75 0.1
1 2.29 229 0.967 -9.970 0.958 4.852 -1.434 8.270 -899.864 -464.997 -2549.989 -0.403 0.270 0.322 -0.12 0.65 -0.75 0.1
1 2.30 230 0.948 -9.955 1.044 5.554 -1.495 6.592 -899.864 -389.896 -2519.858 -0.391 0.256 0.242 -0.12 0.65 -0.75 0.1
1 2.31 231 0.924 -9.888 0.986 5.554 -1.984 5.341 -899.864 -389.896 -2519.858 -0.372 0.190 0.306 -0.12 0.65 -0.75 0.1
1 2.32 232 1.001 -9.831 0.982 4.730 -2.045 3.143 -824.913 -389.896 -2549.989 -0.452 0.133 0.317 -0.12 0.65 -0.75 0.1
1 2.33 233 0.843 -9.874 1.001 4.334 -1.465 0.305 -824.913 -359.916 -2594.959 -0.293 0.177 0.303 -0.12 0.65 -0.75 0.1
1 2.34 234 0.948 -9.807 1.044 4.242 -2.106 -0.244 -824.913 -359.916 -2594.959 -0.396 0.111 0.265 -0.12 0.65 -0.75 0.1
1 2.35 235 1.178 -9.826 1.087 3.815 -1.923 -1.068 -824.913 -464.997 -2669.911 -0.622 0.131 0.227 -0.12 0.65 -0.75 0.1
1 2.36 236 1.130 -9.606 0.986 2.319 -1.434 -0.244 -824.913 -314.945 -2474.888 -0.562 -0.088 0.336 -0.13 0.65 -0.75 0.1
1 2.37 237 0.958 -9.716 1.020 1.251 -0.793 -1.740 -779.942 -359.916 -2594.959 -0.383 0.023 0.305 -0.13 0.65 -0.75 0.1
1 2.38 238 0.814 -9.750 0.967 0.458 -1.587 -2.869 -779.942 -359.916 -2594.959 -0.232 0.057 0.358 -0.13 0.65 -0.75 0.1
1 2.39 239 0.690 -9.869 1.097 0.214 -1.587 -3.510 -914.854 -419.876 -2684.901 -0.100 0.177 0.228 -0.13 0.65 -0.75 0.1
1 2.40 240 0.541 -9.908 1.058 2.350 -0.916 -3.662 -944.984 -224.854 -2534.999 0.056 0.216 0.266 -0.13 0.65 -0.75 0.1
1 2.41 241 0.493 -9.912 1.159 3.174 -2.136 -4.120 -944.984 -224.854 -2534.999 0.112 0.221 0.167 -0.13 0.65 -0.75 0.1
1 2.42 242 0.589 -9.793 1.183 2.777 -1.373 -3.784 -899.864 -209.863 -2624.940 0.023 0.103 0.148 -0.13 0.64 -0.75 0.1
1 2.43 243 0.632 -9.817 1.240 0.519 -1.251 -3.357 -929.994 -359.916 -2669.911 -0.009 0.128 0.096 -0.13 0.64 -0.75 0.1
1 2.44 244 0.575 -10.037 1.288 1.160 -0.427 -2.625 -914.854 -329.935 -2609.950 0.054 0.349 0.050 -0.13 0.64 -0.75 0.1
1 2.45 245 0.599 -9.951 1.264 3.998 0.885 -1.282 -914.854 -329.935 -2609.950 0.034 0.263 0.076 -0.13 0.64 -0.75 0.1
1 2.46 246 0.551 -9.836 1.288 6.836 1.801 0.793 -854.893 -359.916 -2669.911 0.083 0.150 0.059 -0.13 0.64 -0.75 0.1
1 2.47 247 0.431 -9.850 1.422 7.233 2.289 1.434 -824.913 -239.994 -2369.956 0.201 0.165 -0.063 -0.13 0.64 -0.75 0.1
1 2.48 248 0.378 -9.888 1.585 5.219 5.981 2.716 -824.913 -239.994 -2369.956 0.250 0.205 -0.214 -0.13 0.64 -0.75 0.1
1 2.49 249 0.383 -9.682 1.700 5.432 6.897 5.127 -779.942 -389.896 -2594.959 0.241 0.001 -0.318 -0.13 0.64 -0.75 0.1
1 2.50 250 0.397 -9.711 1.705 7.751 11.505 7.111 -749.961 -464.997 -2519.858 0.206 0.032 -0.297 -0.12 0.64 -0.75 0.1
1 2.51 251 0.369 -9.817 1.810 6.653 15.411 9.308 -869.883 -299.955 -2564.979 0.220 0.138 -0.387 -0.12 0.64 -0.75 0.1
1 2.52 252 0.057 -9.654 1.695 5.646 15.778 8.942 -869.883 -299.955 -2564.979 0.513 -0.023 -0.257 -0.12 0.64 -0.75 0.1
1 2.53 253 -0.053 -9.730 1.642 3.510 14.862 7.813 -854.893 -314.945 -2549.989 0.605 0.054 -0.192 -0.12 0.64 -0.75 0.1
1 2.54 254 -0.397 -9.759 1.551 -0.336 11.658 8.728 -839.903 -374.906 -2639.930 0.931 0.083 -0.094 -0.12 0.64 -0.75 0.1
1 2.55 255 -0.436 -10.018 1.777 -0.885 6.592 8.484 -839.903 -374.906 -2639.930 0.949 0.341 -0.317 -0.12 0.64 -0.75 0.1
1 2.56 256 -0.273 -10.358 1.638 -2.075 4.303 12.024 -764.952 -419.876 -2609.950 0.766 0.680 -0.177 -0.12 0.64 -0.75 0.1
1 2.57 257 0.163 -10.722 1.748 -2.441 0.549 17.090 -839.903 -299.955 -2564.979 0.307 1.043 -0.287 -0.12 0.64 -0.75 0.1
1 2.58 258 0.469 -11.200 1.690 -0.153 -0.031 23.712 -674.860 -509.968 -2549.989 -0.057 1.518 -0.233 -0.11 0.64 -0.75 0.1
1 2.59 259 0.493 -11.148 1.561 5.341 0.000 29.755 -674.860 -509.968 -2549.989 -0.117 1.464 -0.101 -0.11 0.64 -0.75 0.1
1 2.60 260 0.464 -10.731 1.777 14.404 1.526 34.729 -794.932 -449.857 -2639.930 -0.134 1.048 -0.305 -0.11 0.64 -0.75 0.1
1 2.61 261 0.134 -10.267 1.891 24.139 6.622 37.476 -824.913 -359.916 -2594.959 0.145 0.586 -0.394 -0.11 0.64 -0.75 0.1
1 2.62 262 -0.292 -9.711 2.064 26.947 9.857 38.269 -824.913 -359.916 -2594.959 0.514 0.035 -0.525 -0.11 0.64 -0.75 0.11
1 2.63 263 -0.469 -9.390 2.088 23.102 12.848 37.537 -674.860 -389.896 -2699.891 0.631 -0.279 -0.504 -0.1 0.64 -0.75 0.11
1 2.64 264 -0.876 -9.103 1.863 19.775 16.327 36.347 -734.971 -374.906 -2684.901 0.977 -0.561 -0.239 -0.1 0.64 -0.76 0.11
1 2.65 265 -1.508 -8.878 1.456 20.050 22.034 31.403 -690.000 -524.958 -2639.930 1.484 -0.775 0.235 -0.09 0.64 -0.76 0.11
1 2.66 266 -1.920 -8.864 1.264 20.264 19.287 25.513 -690.000 -524.958 -2639.930 1.837 -0.784 0.457 -0.09 0.64 -0.76 0.11
1 2.67 267 -1.992 -8.854 1.006 20.111 16.480 19.287 -659.870 -374.906 -2639.930 1.856 -0.788 0.744 -0.09 0.63 -0.76 0.11
1 2.68 268 -2.088 -8.902 0.852 20.416 13.336 14.252 -734.971 -449.857 -2759.852 1.908 -0.734 0.923 -0.08 0.63 -0.76 0.12
1 2.69 269 -2.030 -9.194 0.680 20.538 7.202 9.857 -734.971 -449.857 -2759.852 1.814 -0.437 1.120 -0.08 0.63 -0.76 0.12
1 2.70 270 -1.427 -9.860 0.642 17.395 1.312 5.157 -509.968 -329.935 -2564.979 1.183 0.234 1.182 -0.08 0.63 -0.76 0.12
1 2.71 271 -1.365 -10.348 0.881 14.313 -4.059 4.700 -614.899 -494.978 -2819.963 1.101 0.726 0.961 -0.08 0.63 -0.76 0.12
1 2.72 272 -1.264 -10.865 1.077 23.254 -9.491 6.256 -629.890 -539.948 -2699.891 0.974 1.250 0.795 -0.08 0.63 -0.76 0.12
1 2.73 273 -1.250 -10.918 1.279 32.440 -9.857 9.735 -629.890 -539.948 -2699.891 0.954 1.311 0.633 -0.08 0.63 -0.76 0.12
1 2.74 274 -1.532 -10.319 1.585 37.750 -12.421 13.031 -659.870 -494.978 -2609.950 1.225 0.723 0.378 -0.08 0.63 -0.77 0.12
1 2.75 275 -1.753 -9.702 1.580 43.762 -11.231 12.634 -539.948 -449.857 -2714.881 1.426 0.118 0.441 -0.08 0.63 -0.77 0.12
1 2.76 276 -2.073 -9.433 1.872 40.924 -11.078 12.878 -539.948 -449.857 -2714.881 1.723 -0.136 0.211 -0.08 0.62 -0.77 0.12
1 2.77 277 -2.021 -9.467 1.920 20.722 -12.390 13.184 -599.909 -389.896 -2804.973 1.643 -0.089 0.218 -0.07 0.62 -0.77 0.12
1 2.78 278 -1.829 -9.429 1.681 14.313 -15.167 10.956 -569.929 -539.948 -2729.872 1.423 -0.119 0.493 -0.07 0.62 -0.77 0.13
1 2.79 279 -2.030 -9.414 1.322 16.998 -18.250 8.545 -569.929 -539.948 -2729.872 1.601 -0.127 0.875 -0.07 0.62 -0.77 0.13
1 2.80 280 -1.954 -9.424 1.130 21.973 -24.017 4.852 -569.929 -509.968 -2849.943 1.494 -0.105 1.113 -0.07 0.62 -0.77 0.13
1 2.81 281 -1.863 -9.309 1.173 23.682 -28.870 1.831 -614.899 -569.929 -2819.963 1.395 -0.213 1.097 -0.07 0.62 -0.77 0.13
1 2.82 282 -1.839 -9.252 1.039 23.163 -33.356 -0.061 -734.971 -674.860 -2789.982 1.369 -0.263 1.261 -0.07 0.61 -0.77 0.13
1 2.83 283 -1.982 -9.089 0.953 22.858 -39.429 -2.960 -734.971 -674.860 -2789.982 1.516 -0.419 1.376 -0.08 0.61 -0.78 0.13
1 2.84 284 -2.088 -9.189 0.694 19.318 -47.974 -6.622 -569.929 -659.870 -2954.875 1.631 -0.312 1.662 -0.08 0.61 -0.78 0.14
1 2.85 285 -1.911 -9.395 0.824 18.158 -52.307 -6.866 -674.860 -779.942 -2849.943 1.468 -0.101 1.556 -0.08 0.61 -0.78 0.14
1 2.86 286 -2.002 -9.328 0.781 17.548 -55.359 -5.066 -674.860 -779.942 -2849.943 1.576 -0.164 1.618 -0.08 0.61 -0.78 0.14
1 2.87 287 -2.021 -9.467 0.781 20.813 -59.601 -3.204 -749.961 -659.870 -2909.904 1.629 -0.017 1.657 -0.09 0.61 -0.78 0.14
1 2.88 288 -1.872 -9.343 0.924 22.278 -61.646 -3.479 -839.903 -674.860 -3014.986 1.496 -0.136 1.536 -0.09 0.61 -0.78 0.15
1 2.89 289 -1.638 -9.405 1.216 21.484 -63.446 -1.648 -764.952 -719.981 -2864.934 1.278 -0.068 1.270 -0.09 0.6 -0.78 0.15
1 2.90 290 -1.484 -9.529 1.068 16.693 -63.416 -0.793 -764.952 -719.981 -2864.934 1.142 0.063 1.444 -0.1 0.6 -0.78 0.15
1 2.91 291 -1.518 -9.668 1.015 11.963 -64.240 -0.092 -794.932 -569.929 -2819.963 1.193 0.205 1.513 -0.1 0.6 -0.78 0.16
1 2.92 292 -1.331 -9.682 1.001 16.419 -69.855 -2.350 -854.893 -809.922 -2879.924 1.024 0.222 1.538 -0.1 0.6 -0.78 0.16
1 2.93 293 -0.824 -9.740 1.188 19.348 -69.428 -4.120 -854.893 -809.922 -2879.924 0.538 0.283 1.366 -0.11 0.6 -0.78 0.16
1 2.94 294 -0.139 -9.501 1.590 20.905 -66.925 -3.571 -944.984 -839.903 -2894.914 -0.089 0.054 1.008 -0.11 0.6 -0.78 0.17
1 2.95 295 -0.134 -9.577 1.810 19.653 -60.639 -2.960 -1064.906 -869.883 -2894.914 -0.062 0.137 0.813 -0.12 0.59 -0.78 0.17
1 2.96 296 0.110 -9.520 1.781 17.120 -53.040 -1.678 -1109.877 -884.874 -2909.904 -0.277 0.085 0.866 -0.12 0.59 -0.78 0.17
1 2.97 297 0.369 -9.481 1.982 17.029 -46.448 -0.397 -1109.877 -884.874 -2909.904 -0.510 0.052 0.685 -0.12 0.59 -0.78 0.17
1 2.98 298 0.536 -9.453 1.939 19.501 -37.811 0.214 -1004.945 -884.874 -2954.875 -0.655 0.030 0.750 -0.12 0.59 -0.78 0.18
1 2.99 299 0.359 -9.180 1.791 16.632 -30.365 -1.434 -1094.887 -794.932 -2969.865 -0.458 -0.236 0.923 -0.13 0.59 -0.78 0.18
1 3.00 300 0.206 -9.208 1.681 11.810 -25.604 -3.357 -1094.887 -794.932 -2969.865 -0.285 -0.202 1.054 -0.13 0.59 -0.78 0.18
1 3.01 301 -0.153 -9.448 1.293 3.601 -21.240 -4.242 -1094.887 -869.883 -3044.966 0.093 0.042 1.457 -0.13 0.59 -0.78 0.18
1 3.02 302 -0.623 -9.496 0.809 -0.854 -22.003 -6.317 -1154.998 -809.922 -3104.927 0.595 0.087 1.931 -0.13 0.59 -0.78 0.18
1 3.03 303 -0.661 -9.319 0.986 6.134 -24.750 -7.935 -1139.857 -869.883 -2969.865 0.648 -0.094 1.743 -0.13 0.59 -0.78 0.18
1 3.04 304 -0.350 -9.472 2.394 9.369 -24.475 -8.789 -1139.857 -869.883 -2969.865 0.356 0.059 0.333 -0.13 0.59 -0.78 0.18
1 3.05 305 1.312 -11.181 4.568 -0.122 -3.113 1.434 -1304.900 -854.893 -2984.855 -1.289 1.771 -1.832 -0.14 0.58 -0.78 0.18
1 3.06 306 3.266 -10.372 3.534 -40.589 2.136 43.183 -1334.880 -809.922 -2984.855 -3.255 0.958 -0.810 -0.14 0.59 -0.78 0.18
1 3.07 307 3.295 -9.453 3.127 -30.670 4.089 49.683 -1334.880 -809.922 -2984.855 -3.340 0.024 -0.456 -0.13 0.59 -0.78 0.18
1 3.08 308 2.749 -9.649 2.452 -32.959 14.221 47.058 -1139.857 -944.984 -2969.865 -2.865 0.207 0.171 -0.13 0.59 -0.77 0.18
1 3.09 309 0.306 -9.457 2.351 -31.250 24.262 31.830 -1184.978 -779.942 -2849.943 -0.516 -0.009 0.176 -0.13 0.6 -0.77 0.18
1 3.10 310 -0.685 -9.477 1.844 -22.400 28.320 28.015 -1109.877 -884.874 -2849.943 0.429 0.000 0.641 -0.13 0.6 -0.77 0.18
1 3.11 311 -1.312 -9.108 1.987 -23.346 26.703 23.377 -1109.877 -884.874 -2849.943 1.006 -0.377 0.461 -0.12 0.6 -0.77 0.18
1 3.12 312 -1.891 -9.232 2.078 -28.595 25.024 14.679 -1199.968 -914.854 -2894.914 1.539 -0.260 0.331 -0.12 0.6 -0.77 0.18
1 3.13 313 -2.701 -9.979 2.548 -34.363 23.804 5.981 -1169.988 -869.883 -2759.852 2.312 0.476 -0.185 -0.12 0.6 -0.77 0.18
1 3.14 314 -3.137 -11.890 3.366 -44.251 29.358 7.782 -1169.988 -869.883 -2759.852 2.717 2.375 -1.057 -0.12 0.61 -0.76 0.18
1 3.15 315 -2.792 -11.694 3.141 -45.319 31.098 13.275 -1154.998 -809.922 -2879.924 2.354 2.165 -0.895 -0.11 0.61 -0.76 0.18
1 3.16 316 -3.280 -10.453 2.715 -15.289 41.657 -0.549 -974.965 -704.991 -2774.992 2.792 0.900 -0.585 -0.11 0.62 -0.76 0.18
1 3.17 317 -3.759 -10.267 2.811 -8.118 38.117 -3.571 -1184.978 -584.919 -2849.943 3.261 0.709 -0.701 -0.11 0.62 -0.76 0.17
1 3.18 318 -3.596 -10.224 3.141 -19.165 29.450 0.061 -1184.978 -584.919 -2849.943 3.091 0.663 -1.048 -0.11 0.62 -0.76 0.17
1 3.19 319 -2.591 -10.310 3.247 -34.485 21.607 1.190 -914.854 -644.880 -2789.982 2.077 0.742 -1.188 -0.1 0.62 -0.76 0.17
1 3.20 320 -1.044 -10.822 3.467 -42.938 14.435 1.617 -1094.887 -674.860 -2819.963 0.523 1.243 -1.464 -0.1 0.62 -0.76 0.17
1 3.21 321 0.407 -11.033 3.620 -29.968 14.252 3.632 -1094.887 -674.860 -2819.963 -0.933 1.441 -1.680 -0.1 0.62 -0.76 0.17
1 3.22 322 0.651 -10.698 3.577 -12.634 12.634 2.380 -854.893 -584.919 -2774.992 -1.186 1.097 -1.687 -0.1 0.63 -0.75 0.17
1 3.23 323 0.488 -10.161 3.706 -1.770 4.913 -4.028 -854.893 -584.919 -2774.992 -1.030 0.556 -1.841 -0.1 0.63 -0.75 0.16
1 3.24 324 0.206 -9.467 3.826 -5.615 -7.172 -13.580 -974.965 -629.890 -2699.891 -0.728 -0.140 -1.962 -0.1 0.63 -0.75 0.16
1 3.25 325 0.623 -9.352 3.615 -12.970 -14.008 -17.059 -974.965 -629.890 -2699.891 -1.114 -0.255 -1.746 -0.1 0.63 -0.75 0.16
1 3.26 326 1.341 -9.194 3.477 -17.944 -17.517 -18.494 -929.994 -659.870 -2594.959 -1.793 -0.416 -1.613 -0.1 0.63 -0.75 0.16
1 3.27 327 1.829 -9.170 3.333 -15.228 -13.458 -20.172 -1019.936 -644.880 -2759.852 -2.235 -0.445 -1.481 -0.11 0.63 -0.75 0.16
1 3.28 328 2.026 -9.414 3.022 -11.017 -2.197 -16.510 -1019.936 -644.880 -2759.852 -2.383 -0.204 -1.177 -0.11 0.63 -0.75 0.16
1 3.29 329 1.973 -9.539 3.069 -11.261 1.740 -17.487 -989.955 -644.880 -2714.881 -2.285 -0.082 -1.230 -0.11 0.63 -0.75 0.16
1 3.30 330 1.738 -9.596 3.079 -9.735 8.514 -21.973 -989.955 -644.880 -2714.881 -2.007 -0.027 -1.246 -0.11 0.63 -0.75 0.16
1 3.31 331 1.566 -9.496 2.801 2.533 10.468 -25.635 -1154.998 -584.919 -2624.940 -1.741 -0.130 -0.972 -0.11 0.63 -0.76 0.15
1 3.32 332 1.920 -9.371 2.701 8.759 9.979 -28.473 -1154.998 -584.919 -2624.940 -2.045 -0.253 -0.856 -0.11 0.63 -0.76 0.15
1 3.33 333 2.313 -9.309 2.854 5.219 11.749 -31.738 -1109.877 -734.971 -2669.911 -2.381 -0.312 -0.990 -0.12 0.63 -0.76 0.15
1 3.34 334 2.322 -9.319 2.710 -1.709 14.923 -34.882 -989.955 -719.981 -2609.950 -2.328 -0.300 -0.833 -0.12 0.62 -0.76 0.14
1 3.35 335 2.193 -9.309 2.476 -5.188 16.449 -34.790 -989.955 -719.981 -2609.950 -2.133 -0.309 -0.595 -0.12 0.62 -0.76 0.14
1 3.36 336 1.935 -9.094 2.289 -3.937 12.939 -39.887 -1139.857 -599.909 -2609.950 -1.810 -0.524 -0.410 -0.12 0.62 -0.76 0.14
1 3.37 337 1.891 -9.247 2.107 -5.005 13.580 -44.556 -1139.857 -599.909 -2609.950 -1.699 -0.370 -0.231 -0.12 0.62 -0.76 0.13
1 3.38 338 1.427 -9.089 1.968 -4.028 16.510 -45.075 -1199.968 -719.981 -2639.930 -1.085 -0.525 -0.097 -0.13 0.62 -0.76 0.13
1 3.39 339 1.202 -9.156 1.944 -5.737 15.869 -43.121 -1199.968 -719.981 -2639.930 -0.789 -0.456 -0.076 -0.13 0.62 -0.76 0.12
1 3.40 340 0.824 -8.921 1.757 -6.592 16.235 -42.267 -1034.926 -629.890 -2594.959 -0.345 -0.688 0.105 -0.13 0.62 -0.76 0.12
1 3.41 341 0.733 -8.797 1.824 -5.768 17.181 -40.253 -1304.900 -659.870 -2699.891 -0.193 -0.811 0.031 -0.13 0.62 -0.76 0.12
1 3.42 342 0.785 -8.931 1.623 -7.599 17.120 -37.140 -1304.900 -659.870 -2699.891 -0.189 -0.675 0.227 -0.13 0.62 -0.76 0.11
1 3.43 343 0.872 -8.931 1.518 -8.728 20.294 -30.701 -1169.988 -719.981 -2639.930 -0.225 -0.673 0.323 -0.13 0.62 -0.76 0.11
1 3.44 344 0.963 -8.969 1.384 -8.118 20.477 -27.466 -1169.988 -719.981 -2639.930 -0.272 -0.634 0.447 -0.13 0.62 -0.76 0.11
1 3.45 345 0.934 -9.079 1.432 -7.538 20.111 -26.032 -1304.900 -734.971 -2669.911 -0.204 -0.523 0.388 -0.13 0.62 -0.76 0.1
1 3.46 346 0.919 -9.223 1.288 -10.681 23.743 -19.562 -1259.929 -629.890 -2594.959 -0.122 -0.378 0.510 -0.13 0.62 -0.76 0.1
1 3.47 347 0.986 -9.295 1.207 -10.010 20.996 -17.639 -1259.929 -629.890 -2594.959 -0.166 -0.307 0.577 -0.13 0.63 -0.76 0.1
1 3.48 348 0.895 -9.433 1.135 -6.439 20.294 -15.778 -1259.929 -629.890 -2549.989 -0.052 -0.168 0.635 -0.14 0.63 -0.76 0.1
1 3.49 349 1.082 -9.424 1.154 -4.486 19.959 -13.611 -1259.929 -629.890 -2549.989 -0.220 -0.178 0.607 -0.14 0.63 -0.76 0.09
1 3.50 350 1.058 -9.338 1.192 -5.737 17.761 -11.322 -1259.929 -629.890 -2549.989 -0.181 -0.264 0.561 -0.13 0.63 -0.76 0.09
1 3.51 351 1.087 -9.477 1.144 -8.881 18.158 -9.522 -1259.929 -629.890 -2549.989 -0.195 -0.125 0.602 -0.13 0.63 -0.76 0.09
1 3.52 352 1.255 -9.275 1.082 -10.101 17.181 -7.080 -1154.998 -659.870 -2624.940 -0.350 -0.327 0.652 -0.13 0.63 -0.76 0.09
1 3.53 353 1.245 -9.386 1.111 -5.981 16.480 -5.371 -1139.857 -719.981 -2639.930 -0.321 -0.220 0.597 -0.13 0.63 -0.76 0.09
1 3.54 354 1.279 -9.304 1.192 -5.402 17.395 -3.845 -1229.949 -734.971 -2624.940 -0.348 -0.302 0.507 -0.13 0.63 -0.76 0.09
1 3.55 355 1.461 -9.261 1.164 -6.775 18.646 -2.197 -1169.988 -569.929 -2534.999 -0.525 -0.346 0.527 -0.13 0.63 -0.76 0.09
1 3.56 356 1.743 -9.319 1.269 -6.317 21.423 -0.488 -1169.988 -569.929 -2534.999 -0.805 -0.290 0.413 -0.13 0.63 -0.76 0.08
1 3.57 357 1.887 -9.223 1.116 -6.165 24.628 2.502 -1229.949 -509.968 -2549.989 -0.947 -0.387 0.558 -0.13 0.63 -0.76 0.08
1 3.58 358 1.949 -9.031 1.135 -7.355 27.618 6.561 -1229.949 -509.968 -2549.989 -1.013 -0.581 0.530 -0.13 0.63 -0.76 0.08
1 3.59 359 1.925 -8.897 1.030 -8.759 30.731 9.766 -1139.857 -749.961 -2639.930 -0.996 -0.717 0.626 -0.13 0.63 -0.76 0.08
1 3.60 360 1.968 -8.945 1.212 -15.289 35.187 10.956 -1139.857 -524.958 -2564.979 -1.065 -0.676 0.421 -0.13 0.63 -0.76 0.08
1 3.61 361 1.724 -8.912 1.001 -21.545 38.422 11.475 -1319.890 -674.860 -2684.901 -0.837 -0.714 0.610 -0.13 0.63 -0.76 0.08
1 3.62 362 1.623 -9.017 0.924 -25.238 41.779 12.421 -1229.949 -584.919 -2594.959 -0.754 -0.616 0.656 -0.12 0.64 -0.76 0.08
1 3.63 363 1.494 -9.218 0.699 -26.062 45.197 15.167 -1229.949 -584.919 -2594.959 -0.647 -0.422 0.847 -0.12 0.64 -0.76 0.08
1 3.64 364 1.456 -9.390 0.737 -25.513 47.821 17.090 -1154.998 -659.870 -2594.959 -0.635 -0.258 0.772 -0.12 0.64 -0.76 0.07
1 3.65 365 1.542 -9.706 0.824 -26.398 50.842 18.738 -1154.998 -659.870 -2594.959 -0.751 0.050 0.651 -0.12 0.64 -0.75 0.07
1 3.66 366 1.647 -9.888 0.886 -28.839 52.643 19.531 -944.984 -494.978 -2564.979 -0.887 0.224 0.552 -0.11 0.64 -0.75 0.07
1 3.67 367 1.547 -10.118 0.886 -28.656 52.338 19.440 -989.955 -494.978 -2504.868 -0.819 0.446 0.512 -0.11 0.65 -0.75 0.07
1 3.68 368 1.465 -10.066 1.001 -20.874 48.676 19.013 -869.883 -494.978 -2459.897 -0.802 0.378 0.322 -0.1 0.65 -0.75 0.07
1 3.69 369 1.350 -10.008 1.298 -13.550 44.861 18.524 -944.984 -599.909 -2429.917 -0.718 0.315 -0.000 -0.1 0.65 -0.75 0.07
1 3.70 370 1.326 -10.133 1.489 -11.749 42.389 18.585 -944.984 -599.909 -2429.917 -0.723 0.436 -0.206 -0.1 0.65 -0.75 0.06
1 3.71 371 1.149 -10.204 1.465 -16.907 39.307 18.097 -779.942 -584.919 -2369.956 -0.575 0.504 -0.195 -0.09 0.65 -0.75 0.06
1 3.72 372 0.776 -10.228 1.212 -24.414 34.821 14.130 -779.942 -584.919 -2369.956 -0.229 0.524 0.036 -0.09 0.65 -0.75 0.06
1 3.73 373 0.163 -10.501 0.924 -24.567 35.095 11.749 -929.994 -629.890 -2519.858 0.360 0.791 0.291 -0.09 0.66 -0.75 0.06
1 3.74 374 -0.081 -10.683 0.833 -19.501 30.243 12.329 -690.000 -524.958 -2354.966 0.581 0.968 0.349 -0.09 0.66 -0.75 0.06
1 3.75 375 0.488 -11.186 0.781 -18.707 22.308 9.033 -599.909 -434.867 -2369.956 -0.038 1.461 0.344 -0.08 0.66 -0.74 0.06
1 3.76 376 0.809 -11.129 0.661 -17.975 21.545 10.010 -854.893 -434.867 -2339.976 -0.375 1.400 0.437 -0.08 0.66 -0.74 0.06
1 3.77 377 0.670 -10.841 0.354 -13.489 20.538 12.177 -854.893 -434.867 -2339.976 -0.255 1.109 0.721 -0.08 0.66 -0.74 0.06
1 3.78 378 0.833 -10.611 0.283 -10.834 16.907 10.223 -690.000 -449.857 -2384.946 -0.438 0.877 0.777 -0.08 0.66 -0.74 0.06
1 3.79 379 1.121 -10.463 0.153 -12.085 14.832 7.202 -690.000 -449.857 -2384.946 -0.739 0.726 0.889 -0.08 0.66 -0.74 0.06
1 3.80 380 1.456 -10.951 0.977 -15.778 18.097 4.547 -839.903 -494.978 -2429.917 -1.081 1.212 0.041 -0.08 0.66 -0.74 0.06
1 3.81 381 0.450 -12.144 1.513 -30.121 19.531 -9.979 -764.952 -494.978 -2324.985 -0.077 2.401 -0.520 -0.08 0.67 -0.74 0.06
1 3.82 382 -0.752 -13.240 0.393 -37.171 8.148 -39.185 -734.971 -374.906 -2429.917 1.173 3.490 0.503 -0.08 0.67 -0.74 0.05
1 3.83 383 -0.627 -12.393 0.192 2.228 0.702 -34.546 -690.000 -449.857 -2324.985 1.107 2.642 0.663 -0.08 0.67 -0.74 0.05
1 3.84 384 -0.455 -11.440 0.852 25.360 3.815 -26.062 -690.000 -449.857 -2324.985 0.984 1.693 0.018 -0.08 0.67 -0.74 0.05
1 3.85 385 0.498 -10.961 1.097 17.426 8.545 -18.066 -629.890 -464.997 -2219.904 0.068 1.220 -0.186 -0.08 0.67 -0.74 0.05
1 3.86 386 1.532 -11.172 1.370 -14.496 3.571 -6.866 -629.890 -464.997 -2219.904 -0.944 1.433 -0.443 -0.08 0.67 -0.74 0.05
1 3.87 387 2.351 -12.517 1.053 -38.788 7.324 2.045 -854.893 -509.968 -2159.943 -1.755 2.777 -0.157 -0.08 0.67 -0.74 0.05
1 3.88 388 2.418 -12.077 0.757 -12.970 6.165 10.925 -749.961 -464.997 -2339.976 -1.823 2.331 0.084 -0.08 0.67 -0.74 0.05
1 3.89 389 1.973 -10.611 1.714 37.262 9.522 20.081 -704.991 -359.916 -2159.943 -1.414 0.863 -0.879 -0.08 0.67 -0.74 0.05
1 3.90 390 1.480 -10.056 2.026 42.420 11.505 18.158 -749.961 -314.945 -2219.904 -0.950 0.312 -1.129 -0.08 0.67 -0.74 0.05
1 3.91 391 0.527 -9.046 2.792 32.135 17.944 10.498 -749.961 -314.945 -2219.904 -0.012 -0.693 -1.824 -0.08 0.67 -0.74 0.05
1 3.92 392 -0.139 -8.552 2.993 23.132 19.806 11.353 -659.870 -374.906 -2324.985 0.638 -1.181 -1.965 -0.08 0.66 -0.74 0.05
1 3.93 393 -0.986 -8.208 3.280 21.759 24.109 8.972 -659.870 -374.906 -2324.985 1.463 -1.521 -2.201 -0.08 0.66 -0.74 0.05
1 3.94 394 -1.915 -7.791 3.534 34.973 25.482 -3.204 -599.909 -359.916 -2339.976 2.369 -1.933 -2.400 -0.07 0.66 -0.75 0.05
1 3.95 395 -2.318 -7.470 3.414 47.058 26.032 -10.986 -674.860 -464.997 -2219.904 2.762 -2.247 -2.222 -0.07 0.66 -0.75 0.05
1 3.96 396 -2.380 -7.355 3.108 45.349 18.066 -16.907 -629.890 -464.997 -2339.976 2.853 -2.341 -1.769 -0.07 0.65 -0.75 0.05
1 3.97 397 -2.184 -7.513 3.141 36.591 13.641 -19.379 -584.919 -524.958 -2279.865 2.681 -2.173 -1.740 -0.07 0.65 -0.75 0.04
1 3.98 398 -1.101 -8.605 3.050 1.129 4.242 -24.445 -584.919 -524.958 -2279.865 1.633 -1.075 -1.618 -0.07 0.65 -0.76 0.04
1 3.99 399 -0.551 -9.960 2.797 -15.656 2.716 -20.599 -734.971 -674.860 -2384.946 1.104 0.283 -1.355 -0.07 0.65 -0.76 0.04
1 4.00 400 -0.508 -10.559 2.193 -14.038 2.625 -11.566 -734.971 -674.860 -2384.946 1.079 0.880 -0.764 -0.07 0.65 -0.76 0.04
1 4.01 401 -0.254 -10.401 1.868 7.050 0.824 -3.387 -764.952 -644.880 -2279.865 0.836 0.722 -0.448 -0.07 0.65 -0.76 0.04
1 4.02 402 -0.201 -9.836 2.136 33.753 -2.747 4.120 -704.991 -389.896 -2339.976 0.784 0.160 -0.694 -0.07 0.65 -0.76 0.04
1 4.03 403 -0.474 -9.529 2.548 28.534 -3.815 9.186 -704.991 -389.896 -2339.976 1.048 -0.140 -1.056 -0.07 0.65 -0.76 0.04
1 4.04 404 -0.900 -9.323 2.375 3.815 -6.592 13.702 -854.893 -629.890 -2414.927 1.433 -0.334 -0.799 -0.07 0.64 -0.76 0.05
1 4.05 405 -1.006 -9.544 2.112 -3.693 -11.261 14.252 -854.893 -629.890 -2414.927 1.511 -0.114 -0.526 -0.07 0.64 -0.76 0.05
1 4.06 406 -0.852 -9.764 2.050 -2.960 -13.275 15.137 -584.919 -569.929 -2324.985 1.329 0.105 -0.465 -0.07 0.64 -0.76 0.05
1 4.07 407 -0.833 -9.888 1.676 2.472 -11.841 17.273 -584.919 -569.929 -2324.985 1.281 0.228 -0.091 -0.07 0.64 -0.76 0.05
1 4.08 408 -1.010 -9.740 1.585 11.292 -13.397 19.989 -704.991 -629.890 -2414.927 1.426 0.079 0.007 -0.07 0.64 -0.76 0.05
1 4.09 409 -0.857 -9.524 1.575 15.533 -13.397 21.210 -764.952 -599.909 -2384.946 1.238 -0.136 0.030 -0.07 0.64 -0.76 0.06
1 4.10 410 -0.886 -9.410 1.551 17.853 -13.275 20.264 -764.952 -599.909 -2384.946 1.229 -0.248 0.077 -0.07 0.64 -0.76 0.06
1 4.11 411 -0.728 -9.481 1.585 16.846 -14.526 19.135 -690.000 -599.909 -2384.946 1.036 -0.173 0.068 -0.07 0.64 -0.76 0.06
1 4.12 412 -0.417 -9.563 1.322 14.160 -15.167 19.898 -794.932 -524.958 -2384.946 0.660 -0.085 0.379 -0.07 0.64 -0.76 0.07
1 4.13 413 -0.551 -9.529 1.346 17.456 -18.127 17.761 -764.952 -644.880 -2564.979 0.766 -0.116 0.375 -0.07 0.64 -0.76 0.07
1 4.14 414 -1.130 -9.534 1.207 21.454 -23.895 15.320 -764.952 -644.880 -2564.979 1.320 -0.107 0.539 -0.07 0.64 -0.76 0.07
1 4.15 415 -1.125 -9.261 1.101 17.029 -28.168 12.024 -749.961 -629.890 -2444.907 1.294 -0.376 0.672 -0.07 0.64 -0.76 0.07
1 4.16 416 -1.427 -9.481 1.039 13.611 -29.877 12.665 -749.961 -629.890 -2474.888 1.577 -0.152 0.753 -0.07 0.64 -0.77 0.08
1 4.17 417 -1.398 -9.304 0.872 13.275 -34.180 12.848 -749.961 -629.890 -2474.888 1.528 -0.327 0.936 -0.07 0.63 -0.77 0.08
1 4.18 418 -1.480 -9.199 0.824 12.909 -38.086 11.475 -584.919 -719.981 -2354.966 1.589 -0.430 0.998 -0.07 0.63 -0.77 0.08
1 4.19 419 -1.642 -9.175 0.776 12.604 -46.082 7.477 -899.864 -734.971 -2594.959 1.722 -0.449 1.072 -0.08 0.63 -0.77 0.09
1 4.20 420 -1.532 -9.462 0.790 9.247 -51.666 6.439 -749.961 -734.971 -2519.858 1.604 -0.160 1.068 -0.08 0.63 -0.77 0.09
1 4.21 421 -1.753 -9.505 0.752 8.453 -59.204 5.371 -749.961 -734.971 -2519.858 1.819 -0.116 1.112 -0.08 0.63 -0.77 0.09
1 4.22 422 -1.824 -9.199 0.694 11.841 -60.486 3.876 -690.000 -749.961 -2459.897 1.888 -0.421 1.175 -0.08 0.63 -0.77 0.1
1 4.23 423 -1.575 -9.113 0.876 14.282 -62.470 4.272 -854.893 -734.971 -2549.989 1.638 -0.505 1.004 -0.09 0.63 -0.77 0.1
1 4.24 424 -1.293 -8.907 0.929 4.456 -65.216 5.737 -854.893 -734.971 -2549.989 1.354 -0.708 0.965 -0.09 0.63 -0.77 0.11
1 4.25 425 -1.097 -9.151 0.790 -3.998 -63.477 7.965 -764.952 -839.903 -2459.897 1.158 -0.463 1.107 -0.09 0.63 -0.76 0.11
1 4.26 426 -0.522 -9.769 0.642 -6.775 -64.606 9.094 -899.864 -779.942 -2369.956 0.580 0.149 1.228 -0.1 0.63 -0.76 0.12
1 4.27 427 -0.072 -9.668 0.709 2.960 -61.646 11.078 -1064.906 -944.984 -2429.917 0.129 0.045 1.145 -0.1 0.63 -0.76 0.12
1 4.28 428 0.225 -9.275 0.934 15.900 -55.664 12.756 -1064.906 -944.984 -2429.917 -0.169 -0.347 0.921 -0.11 0.63 -0.76 0.12
1 4.29 429 0.527 -9.074 1.116 16.388 -50.842 14.862 -974.965 -809.922 -2414.927 -0.473 -0.545 0.758 -0.11 0.63 -0.76 0.13
1 4.30 430 0.694 -9.046 1.326 4.242 -45.838 15.778 -989.955 -749.961 -2564.979 -0.644 -0.570 0.564 -0.11 0.63 -0.76 0.13
1 4.31 431 0.541 -9.137 1.279 -1.129 -41.687 17.242 -989.955 -749.961 -2564.979 -0.496 -0.479 0.612 -0.11 0.63 -0.76 0.13
1 4.32 432 0.464 -8.983 1.619 5.341 -35.217 15.472 -1034.926 -659.870 -2444.907 -0.427 -0.634 0.267 -0.12 0.62 -0.76 0.14
1 4.33 433 0.287 -8.423 1.590 15.320 -26.947 13.123 -1094.887 -914.854 -2429.917 -0.258 -1.193 0.298 -0.12 0.62 -0.76 0.14
1 4.34 434 0.000 -7.734 1.350 11.719 -26.947 6.165 -1154.998 -809.922 -2444.907 0.015 -1.874 0.583 -0.12 0.62 -0.76 0.14
1 4.35 435 -0.230 -7.695 1.312 -4.547 -31.006 -0.793 -1154.998 -809.922 -2444.907 0.247 -1.909 0.635 -0.12 0.62 -0.76 0.15
1 4.36 436 -0.460 -8.246 0.781 -21.881 -33.539 -8.118 -1034.926 -779.942 -2444.907 0.491 -1.361 1.153 -0.12 0.62 -0.76 0.15
1 4.37 437 -0.824 -8.538 0.488 -28.290 -37.079 -14.374 -1109.877 -929.994 -2549.989 0.880 -1.076 1.410 -0.12 0.62 -0.76 0.15
1 4.38 438 0.067 -11.191 5.368 -15.015 -17.639 -14.038 -1109.877 -929.994 -2549.989 0.024 1.569 -3.510 -0.13 0.62 -0.76 0.15
1 4.39 439 4.185 -15.194 4.104 -47.333 19.867 22.186 -1244.939 -914.854 -2504.868 -4.067 5.568 -2.272 -0.13 0.62 -0.76 0.15
1 4.40 440 4.022 -12.278 2.634 -24.567 23.193 48.279 -1154.998 -734.971 -2369.956 -3.996 2.625 -0.943 -0.13 0.63 -0.75 0.15
1 4.41 441 2.351 -11.603 2.322 10.101 28.717 39.734 -1109.877 -884.874 -2339.976 -2.396 1.948 -0.642 -0.12 0.63 -0.75 0.15
1 4.42 442 -2.208 -9.941 2.983 9.491 24.811 10.590 -1109.877 -884.874 -2339.976 2.119 0.293 -1.266 -0.12 0.63 -0.75 0.15
1 4.43 443 -3.740 -10.674 3.663 -25.177 25.879 -0.488 -1139.857 -719.981 -2354.966 3.628 1.027 -1.939 -0.12 0.63 -0.75 0.15
1 4.44 444 -1.681 -13.245 3.860 -74.677 22.339 2.380 -944.984 -794.932 -2429.917 1.564 3.589 -2.190 -0.12 0.63 -0.75 0.15
1 4.45 445 0.053 -13.288 2.653 -79.132 27.527 9.613 -944.984 -794.932 -2429.917 -0.181 3.612 -1.105 -0.12 0.64 -0.75 0.15
1 4.46 446 -1.743 -11.378 2.351 5.463 30.151 -10.712 -1064.906 -674.860 -2384.946 1.598 1.687 -0.897 -0.12 0.64 -0.74 0.15
1 4.47 447 -1.959 -11.109 3.352 -9.033 11.841 -19.928 -974.965 -854.893 -2339.976 1.816 1.418 -1.904 -0.11 0.64 -0.74 0.14
1 4.48 448 -2.739 -10.817 3.280 -47.669 5.615 -23.590 -944.984 -674.860 -2324.985 2.653 1.118 -1.885 -0.12 0.64 -0.74 0.14
1 4.49 449 -1.753 -10.736 3.069 -42.633 -2.167 -26.550 -944.984 -674.860 -2324.985 1.703 1.026 -1.744 -0.12 0.65 -0.74 0.14
1 4.50 450 -0.646 -10.554 3.060 -29.358 -7.629 -26.001 -1169.988 -719.981 -2279.865 0.639 0.836 -1.792 -0.12 0.65 -0.74 0.14
1 4.51 451 -0.148 -9.975 3.299 -16.327 -8.637 -21.973 -1019.936 -674.860 -2204.914 0.180 0.252 -2.069 -0.12 0.65 -0.74 0.13
1 4.52 452 0.010 -9.582 3.213 -10.986 -7.629 -18.066 -1019.936 -674.860 -2204.914 0.055 -0.142 -1.997 -0.12 0.65 -0.74 0.13
1 4.53 453 0.747 -9.515 3.223 -6.897 -8.392 -7.874 -1094.887 -674.860 -2204.914 -0.655 -0.209 -2.005 -0.12 0.65 -0.74 0.13
1 4.54 454 0.939 -9.582 3.567 -0.031 -9.949 -1.373 -1109.877 -659.870 -2039.871 -0.827 -0.141 -2.347 -0.13 0.65 -0.74 0.13
1 4.55 455 1.480 -8.864 3.390 20.874 -14.221 1.770 -1154.998 -629.890 -2159.943 -1.348 -0.853 -2.123 -0.13 0.65 -0.74 0.13
1 4.56 456 1.657 -8.509 3.572 32.929 -15.411 2.930 -1154.998 -629.890 -2159.943 -1.515 -1.200 -2.251 -0.13 0.65 -0.74 0.14
1 4.57 457 1.676 -8.102 3.726 32.318 -18.433 0.183 -1304.900 -629.890 -2189.923 -1.522 -1.597 -2.335 -0.13 0.64 -0.74 0.14
1 4.58 458 1.848 -8.102 3.869 20.752 -16.754 -3.052 -1109.877 -629.890 -2264.875 -1.677 -1.588 -2.415 -0.13 0.64 -0.74 0.14
1 4.59 459 1.987 -8.552 3.524 5.035 -10.895 -6.012 -1109.877 -629.890 -2264.875 -1.794 -1.130 -2.026 -0.13 0.64 -0.75 0.14
1 4.60 460 2.169 -9.242 3.156 -8.209 -2.838 -13.031 -1034.926 -659.870 -2339.976 -1.948 -0.437 -1.638 -0.13 0.64 -0.75 0.14
1 4.61 461 2.150 -9.548 2.955 -2.258 4.639 -17.578 -1199.968 -674.860 -2249.884 -1.895 -0.129 -1.431 -0.13 0.64 -0.75 0.14
1 4.62 462 2.073 -9.577 2.734 7.050 10.651 -22.034 -1199.968 -674.860 -2249.884 -1.779 -0.098 -1.204 -0.14 0.64 -0.75 0.14
1 4.63 463 2.073 -9.558 2.782 8.148 17.395 -27.405 -1154.998 -629.890 -2339.976 -1.688 -0.107 -1.208 -0.14 0.63 -0.75 0.13
1 4.64 464 2.241 -9.429 2.734 2.441 20.996 -28.687 -1169.988 -599.909 -2204.914 -1.806 -0.231 -1.139 -0.14 0.63 -0.75 0.13
1 4.65 465 2.011 -9.587 2.519 -3.387 23.316 -30.090 -1274.919 -719.981 -2354.966 -1.524 -0.068 -0.912 -0.14 0.63 -0.75 0.13
1 4.66 466 1.738 -9.448 2.279 -1.282 24.750 -31.464 -1274.919 -719.981 -2354.966 -1.200 -0.204 -0.668 -0.14 0.63 -0.75 0.12
1 4.67 467 1.551 -9.098 2.188 6.653 25.910 -31.677 -1184.978 -779.942 -2339.976 -0.961 -0.549 -0.567 -0.14 0.63 -0.75 0.12
1 4.68 468 1.566 -9.003 2.064 5.127 32.379 -31.494 -1274.919 -569.929 -2279.865 -0.926 -0.638 -0.424 -0.14 0.63 -0.75 0.12
1 4.69 469 1.729 -8.730 1.710 -1.801 35.950 -29.083 -1274.919 -569.929 -2279.865 -1.042 -0.905 -0.053 -0.14 0.63 -0.76 0.11
1 4.70 470 1.767 -8.821 1.365 -5.157 39.063 -28.778 -1154.998 -659.870 -2294.855 -0.996 -0.806 0.299 -0.14 0.63 -0.76 0.11
1 4.71 471 1.633 -9.094 1.235 -3.479 41.931 -27.771 -1229.949 -629.890 -2444.907 -0.821 -0.530 0.427 -0.14 0.63 -0.76 0.1
1 4.72 472 1.427 -9.084 1.044 0.092 43.854 -25.543 -1199.968 -569.929 -2279.865 -0.578 -0.537 0.618 -0.14 0.63 -0.76 0.1
1 4.73 473 1.240 -9.213 0.895 3.296 43.518 -21.942 -1199.968 -569.929 -2279.865 -0.360 -0.404 0.771 -0.14 0.63 -0.76 0.1
1 4.74 474 1.235 -9.295 0.977 4.150 41.474 -17.517 -1274.919 -599.909 -2204.914 -0.332 -0.319 0.697 -0.14 0.63 -0.76 0.09
1 4.75 475 1.288 -9.261 1.015 4.211 39.642 -15.167 -1064.906 -719.981 -2249.884 -0.366 -0.349 0.667 -0.14 0.63 -0.76 0.09
1 4.76 476 1.379 -9.256 0.934 4.517 37.720 -10.773 -1064.906 -719.981 -2249.884 -0.440 -0.351 0.757 -0.14 0.63 -0.76 0.09
1 4.77 477 1.446 -9.122 0.848 5.005 34.424 -9.338 -1199.968 -794.932 -2249.884 -0.495 -0.482 0.851 -0.14 0.63 -0.76 0.09
1 4.78 478 1.456 -9.175 1.077 5.646 32.898 -6.531 -1169.988 -599.909 -2384.946 -0.486 -0.425 0.639 -0.13 0.63 -0.76 0.08
1 4.79 479 1.398 -9.141 1.001 4.883 31.769 -4.272 -1094.887 -719.981 -2279.865 -0.424 -0.456 0.726 -0.13 0.63 -0.76 0.08
1 4.80 480 1.298 -8.935 1.025 2.319 30.487 -1.770 -1094.887 -719.981 -2279.865 -0.321 -0.660 0.710 -0.13 0.63 -0.76 0.08
1 4.81 481 1.422 -8.959 0.991 -0.214 30.182 1.465 -1019.936 -644.880 -2204.914 -0.448 -0.636 0.747 -0.13 0.63 -0.76 0.08
1 4.82 482 1.178 -8.916 0.943 -1.465 30.670 6.714 -1169.988 -719.981 -2354.966 -0.211 -0.680 0.794 -0.13 0.63 -0.76 0.08
1 4.83 483 1.010 -8.940 0.819 -2.197 31.677 11.139 -1169.988 -719.981 -2354.966 -0.055 -0.657 0.918 -0.13 0.63 -0.76 0.08
1 4.84 484 1.058 -8.979 0.848 -6.744 32.410 15.015 -1139.857 -674.860 -2249.884 -0.149 -0.625 0.880 -0.12 0.63 -0.76 0.08
1 4.85 485 0.967 -9.089 0.690 -7.233 31.647 16.174 -1094.887 -794.932 -2204.914 -0.087 -0.519 1.028 -0.12 0.63 -0.76 0.08
1 4.86 486 0.804 -9.170 0.742 -8.087 30.426 19.043 -929.994 -809.922 -2189.923 0.043 -0.443 0.963 -0.12 0.63 -0.76 0.08
1 4.87 487 0.910 -9.314 0.809 -8.820 29.694 21.545 -929.994 -809.922 -2189.923 -0.098 -0.305 0.882 -0.12 0.63 -0.76 0.08
1 4.88 488 0.819 -9.457 0.651 -11.963 28.656 23.163 -944.984 -839.903 -2279.865 -0.045 -0.167 1.025 -0.11 0.63 -0.76 0.08
1 4.89 489 1.010 -9.553 0.642 -11.993 26.978 23.865 -899.864 -629.890 -2219.904 -0.277 -0.078 1.014 -0.11 0.63 -0.76 0.08
1 4.90 490 1.202 -9.275 0.972 -5.432 26.886 26.398 -899.864 -629.890 -2219.904 -0.508 -0.362 0.664 -0.11 0.64 -0.76 0.08
1 4.91 491 1.197 -9.247 1.020 -8.514 27.313 26.398 -914.854 -674.860 -2324.985 -0.543 -0.395 0.605 -0.11 0.64 -0.76 0.08
1 4.92 492 1.293 -9.539 1.149 -18.921 28.748 24.841 -1019.936 -599.909 -2279.865 -0.717 -0.113 0.446 -0.1 0.64 -0.76 0.08
1 4.93 493 1.403 -9.845 1.192 -25.269 27.313 24.933 -899.864 -779.942 -2189.923 -0.865 0.186 0.372 -0.1 0.64 -0.76 0.08
1 4.94 494 1.427 -10.334 1.101 -26.245 24.872 21.698 -899.864 -779.942 -2189.923 -0.923 0.666 0.425 -0.1 0.64 -0.76 0.08
1 4.95 495 1.346 -10.712 1.101 -20.783 19.775 19.470 -674.860 -779.942 -2444.907 -0.870 1.038 0.388 -0.1 0.64 -0.76 0.08
1 4.96 496 1.393 -10.975 1.336 -14.893 16.510 17.975 -839.903 -794.932 -2249.884 -0.946 1.295 0.125 -0.1 0.65 -0.75 0.08
1 4.97 497 1.322 -10.928 1.374 -8.850 14.465 19.928 -839.903 -794.932 -2249.884 -0.904 1.243 0.068 -0.09 0.65 -0.75 0.08
1 4.98 498 1.547 -10.894 1.379 -5.463 11.993 15.900 -854.893 -704.991 -2294.855 -1.161 1.207 0.051 -0.09 0.65 -0.75 0.08
1 4.99 499 1.298 -10.798 1.317 -5.035 8.484 13.641 -869.883 -644.880 -2129.962 -0.961 1.107 0.100 -0.09 0.65 -0.75 0.08
1 5.00 500 0.872 -10.248 1.245 -5.707 4.883 13.153 -839.903 -599.909 -2174.933 -0.556 0.555 0.165 -0.09 0.65 -0.75 0.08
1 5.01 501 0.469 -10.080 0.776 -13.001 2.167 6.928 -839.903 -599.909 -2174.933 -0.166 0.385 0.624 -0.09 0.65 -0.75 0.08
1 5.02 502 0.407 -10.295 0.627 -23.285 -3.510 2.930 -794.932 -599.909 -2174.933 -0.110 0.597 0.746 -0.09 0.65 -0.75 0.08
1 5.03 503 1.058 -10.592 0.287 -29.389 0.763 2.380 -734.971 -494.978 -2204.914 -0.762 0.888 1.044 -0.09 0.65 -0.75 0.08
1 5.04 504 1.547 -10.908 -0.120 -22.492 13.397 11.688 -734.971 -494.978 -2204.914 -1.251 1.197 1.402 -0.09 0.65 -0.75 0.08
1 5.05 505 1.647 -10.544 -0.378 -11.139 22.247 15.198 -749.961 -629.890 -2189.923 -1.368 0.828 1.625 -0.09 0.65 -0.75 0.08
1 5.06 506 1.264 -10.444 -0.019 -6.470 24.201 13.855 -749.961 -629.890 -2189.923 -1.010 0.724 1.247 -0.09 0.66 -0.75 0.08
1 5.07 507 -0.144 -12.762 1.360 -32.715 22.583 -1.801 -614.899 -674.860 -2204.914 0.372 3.036 -0.177 -0.08 0.66 -0.74 0.08
1 5.08 508 -1.288 -14.035 0.393 -48.859 26.337 -16.968 -614.899 -674.860 -2204.914 1.522 4.303 0.733 -0.08 0.66 -0.74 0.08
1 5.09 509 -1.116 -13.580 -0.283 -8.179 15.381 -24.414 -749.961 -659.870 -2159.943 1.376 3.842 1.349 -0.08 0.66 -0.74 0.07
1 5.10 510 -0.129 -12.398 0.876 41.748 8.606 -18.799 -749.961 -434.867 -2189.923 0.424 2.661 0.200 -0.08 0.66 -0.74 0.07
1 5.11 511 1.140 -11.071 2.021 53.894 13.367 -6.378 -749.961 -434.867 -2189.923 -0.822 1.344 -0.872 -0.08 0.66 -0.74 0.07
1 5.12 512 1.686 -10.477 3.721 23.834 13.916 5.463 -629.890 -434.867 -2009.891 -1.365 0.760 -2.494 -0.08 0.66 -0.75 0.07
1 5.13 513 1.403 -10.808 3.630 -5.951 14.923 -3.418 -629.890 -434.867 -2009.891 -1.092 1.096 -2.355 -0.08 0.65 -0.75 0.07
1 5.14 514 1.025 -9.826 3.074 10.345 13.794 -6.470 -614.899 -644.880 -2129.962 -0.707 0.114 -1.805 -0.08 0.65 -0.75 0.07
1 5.15 515 0.412 -8.926 3.582 35.858 17.456 -3.418 -614.899 -644.880 -2129.962 -0.085 -0.782 -2.278 -0.08 0.65 -0.75 0.07
1 5.16 516 -0.522 -8.327 3.994 39.429 25.055 -3.815 -629.890 -389.896 -2114.972 0.852 -1.370 -2.616 -0.08 0.65 -0.75 0.07
1 5.17 517 -1.791 -7.523 4.104 34.027 26.825 -6.500 -614.899 -599.909 -2174.933 2.119 -2.163 -2.647 -0.08 0.65 -0.75 0.07
1 5.18 518 -2.897 -7.130 3.989 30.335 22.705 -10.651 -614.899 -599.909 -2174.933 3.226 -2.546 -2.470 -0.08 0.65 -0.76 0.07
1 5.19 519 -4.147 -7.135 3.639 21.698 13.336 -21.393 -749.961 -659.870 -2189.923 4.489 -2.533 -2.074 -0.08 0.64 -0.76 0.06
1 5.20 520 -4.152 -8.030 3.290 9.308 4.150 -26.795 -749.961 -659.870 -2189.923 4.520 -1.631 -1.687 -0.08 0.64 -0.76 0.06
1 5.21 521 -2.389 -9.687 2.950 -5.127 -7.538 -25.787 -614.899 -599.909 -2204.914 2.771 0.036 -1.295 -0.08 0.64 -0.76 0.06
1 5.22 522 -1.638 -10.152 2.926 -6.470 -8.575 -21.820 -614.899 -599.909 -2204.914 2.034 0.501 -1.269 -0.08 0.64 -0.76 0.06
1 5.23 523 0.024 -11.129 2.624 7.446 -2.594 -3.357 -569.929 -539.948 -2294.855 0.388 1.479 -0.966 -0.08 0.64 -0.76 0.06
1 5.24 524 0.426 -10.516 2.413 26.947 0.580 9.064 -690.000 -719.981 -2249.884 -0.012 0.869 -0.736 -0.08 0.64 -0.76 0.06
1 5.25 525 0.694 -9.802 2.840 39.581 2.777 13.763 -690.000 -719.981 -2249.884 -0.296 0.163 -1.115 -0.08 0.64 -0.76 0.06
1 5.26 526 0.536 -9.381 2.883 22.583 4.608 20.294 -779.942 -629.890 -2339.976 -0.157 -0.247 -1.092 -0.08 0.63 -0.77 0.06
1 5.27 527 0.369 -9.362 2.907 4.395 0.793 23.865 -779.942 -629.890 -2339.976 -0.016 -0.257 -1.064 -0.08 0.63 -0.77 0.07
1 5.28 528 -0.431 -9.572 2.093 0.549 -1.068 24.139 -569.929 -734.971 -2294.855 0.717 -0.043 -0.222 -0.08 0.63 -0.77 0.07
1 5.29 529 -0.852 -9.510 2.078 3.082 -2.075 25.574 -569.929 -734.971 -2294.855 1.099 -0.105 -0.200 -0.07 0.63 -0.77 0.07
1 5.30 530 -1.302 -9.472 1.777 8.087 -7.782 27.924 -749.961 -704.991 -2369.956 1.503 -0.142 0.113 -0.07 0.63 -0.77 0.07
1 5.31 531 -1.202 -9.386 1.801 8.301 -11.139 26.856 -734.971 -644.880 -2249.884 1.353 -0.227 0.101 -0.07 0.63 -0.77 0.08
1 5.32 532 -1.063 -9.338 1.642 7.843 -13.825 27.130 -734.971 -644.880 -2249.884 1.168 -0.273 0.271 -0.07 0.63 -0.77 0.08
1 5.33 533 -1.149 -9.103 1.647 7.050 -17.853 26.581 -614.899 -644.880 -2354.966 1.211 -0.506 0.277 -0.07 0.63 -0.77 0.08
1 5.34 534 -0.886 -9.031 1.580 6.561 -22.766 23.468 -614.899 -644.880 -2354.966 0.907 -0.576 0.354 -0.07 0.63 -0.77 0.08
1 5.35 535 -0.977 -8.797 1.465 6.134 -23.834 22.644 -704.991 -659.870 -2294.855 0.962 -0.809 0.478 -0.07 0.63 -0.77 0.09
1 5.36 536 -1.202 -8.777 1.365 6.378 -28.992 17.731 -599.909 -704.991 -2264.875 1.127 -0.824 0.594 -0.07 0.63 -0.77 0.09
1 5.37 537 -1.379 -8.854 1.403 4.669 -29.389 15.808 -690.000 -599.909 -2249.884 1.280 -0.746 0.563 -0.07 0.63 -0.77 0.09
1 5.38 538 -1.523 -8.548 1.173 3.448 -30.151 15.442 -659.870 -794.932 -2249.884 1.402 -1.051 0.799 -0.07 0.63 -0.77 0.1
1 5.39 539 -1.561 -8.691 1.082 1.404 -33.661 12.604 -659.870 -794.932 -2249.884 1.424 -0.906 0.894 -0.07 0.63 -0.77 0.1
1 5.40 540 -1.681 -8.859 0.867 -2.899 -36.438 11.780 -674.860 -704.991 -2264.875 1.531 -0.739 1.109 -0.07 0.63 -0.77 0.1
1 5.41 541 -1.935 -8.931 0.757 -6.683 -43.762 7.599 -674.860 -704.991 -2264.875 1.776 -0.668 1.211 -0.08 0.63 -0.77 0.1
1 5.42 542 -1.738 -8.912 0.608 -7.263 -49.378 3.815 -584.919 -719.981 -2129.962 1.568 -0.690 1.345 -0.08 0.63 -0.77 0.11
1 5.43 543 -1.528 -9.074 0.187 -11.627 -56.458 0.916 -599.909 -659.870 -2339.976 1.355 -0.535 1.729 -0.08 0.63 -0.76 0.11
1 5.44 544 -1.331 -9.175 0.268 -15.533 -59.509 -0.854 -839.903 -674.860 -2174.933 1.165 -0.440 1.620 -0.08 0.63 -0.76 0.12
1 5.45 545 -1.312 -9.285 0.125 -15.595 -58.930 -1.068 -764.952 -719.981 -2384.946 1.157 -0.336 1.732 -0.09 0.63 -0.76 0.12
1 5.46 546 -1.111 -9.457 0.057 -14.465 -60.852 -1.099 -764.952 -719.981 -2384.946 0.965 -0.170 1.767 -0.09 0.63 -0.76 0.12
1 5.47 547 -0.627 -9.611 0.235 -14.801 -65.003 0.641 -659.870 -719.981 -2384.946 0.494 -0.023 1.558 -0.09 0.63 -0.76 0.12
1 5.48 548 -0.163 -9.884 0.259 -14.313 -58.655 1.862 -659.870 -719.981 -2384.946 0.042 0.244 1.503 -0.1 0.63 -0.76 0.13
1 5.49 549 -0.134 -9.850 0.369 -8.179 -58.502 1.617 -779.942 -539.948 -2294.855 0.027 0.205 1.362 -0.1 0.63 -0.76 0.13
1 5.50 550 -0.005 -9.668 0.661 -0.641 -58.624 -0.397 -764.952 -719.981 -2129.962 -0.089 0.018 1.046 -0.11 0.63 -0.75 0.13
1 5.51 551 -0.014 -9.347 1.164 8.362 -55.054 -1.373 -869.883 -719.981 -2204.914 -0.046 -0.305 0.532 -0.11 0.63 -0.75 0.14
1 5.52 552 -0.259 -8.945 1.532 8.148 -51.422 -2.655 -869.883 -749.961 -2204.914 0.217 -0.705 0.173 -0.12 0.63 -0.75 0.14
1 5.53 553 -0.407 -8.605 1.322 6.470 -45.960 -3.143 -869.883 -749.961 -2204.914 0.382 -1.043 0.396 -0.12 0.63 -0.75 0.14
1 5.54 554 -0.287 -8.433 1.551 2.869 -39.612 -3.265 -914.854 -524.958 -2249.884 0.278 -1.214 0.175 -0.12 0.63 -0.75 0.15
1 5.55 555 -0.048 -7.987 1.513 -3.235 -32.105 -5.920 -914.854 -524.958 -2249.884 0.055 -1.659 0.216 -0.12 0.63 -0.75 0.15
1 5.56 556 0.048 -7.959 0.953 -18.280 -29.175 -7.843 -989.955 -644.880 -2174.933 -0.022 -1.689 0.769 -0.13 0.63 -0.75 0.15
1 5.57 557 0.081 -8.145 0.488 -28.046 -32.654 -13.184 -854.893 -734.971 -2414.927 -0.035 -1.506 1.212 -0.13 0.63 -0.75 0.15
1 5.58 558 -0.646 -8.806 -0.048 -36.560 -36.713 -25.360 -899.864 -629.890 -2189.923 0.759 -0.859 1.661 -0.13 0.63 -0.75 0.15
1 5.59 559 -0.967 -9.702 0.211 -35.675 -39.459 -30.579 -944.984 -599.909 -2204.914 1.126 0.027 1.343 -0.14 0.63 -0.75 0.15
1 5.60 560 0.029 -12.977 5.775 -23.621 -20.630 -28.046 -944.984 -599.909 -2204.914 0.178 3.294 -4.282 -0.14 0.64 -0.74 0.15
1 5.61 561 5.009 -18.077 2.998 -70.343 15.015 22.736 -1019.936 -599.909 -2204.914 -4.771 8.388 -1.548 -0.14 0.64 -0.74 0.15
1 5.62 562 5.234 -14.864 3.113 -55.023 18.158 58.899 -1019.936 -599.909 -2204.914 -5.052 5.157 -1.777 -0.14 0.64 -0.74 0.15
1 5.63 563 2.337 -11.287 2.610 52.582 29.602 31.342 -1139.857 -599.909 -2129.962 -2.242 1.573 -1.314 -0.14 0.64 -0.74 0.15
1 5.64 564 -0.196 -10.329 4.219 19.745 26.703 12.909 -1169.988 -494.978 -2024.881 0.232 0.625 -2.853 -0.13 0.64 -0.74 0.15
1 5.65 565 -1.695 -13.078 3.539 -69.092 23.041 13.916 -1139.857 -569.929 -1994.900 1.678 3.375 -2.159 -0.13 0.64 -0.74 0.15
1 5.66 566 -1.384 -13.212 2.806 -82.855 19.196 12.329 -1079.896 -509.968 -2189.923 1.344 3.494 -1.539 -0.13 0.65 -0.74 0.15
1 5.67 567 -2.452 -10.611 1.480 -7.080 20.111 -7.324 -1079.896 -509.968 -2189.923 2.402 0.883 -0.295 -0.13 0.65 -0.73 0.15
1 5.68 568 -3.405 -10.113 1.834 15.717 1.373 -22.644 -974.965 -629.890 -2084.992 3.370 0.386 -0.644 -0.13 0.65 -0.73 0.15
1 5.69 569 -3.668 -10.659 2.773 -21.454 -17.822 -26.245 -974.965 -629.890 -2084.992 3.661 0.934 -1.567 -0.13 0.65 -0.73 0.15
1 5.70 570 -2.581 -11.880 2.543 -60.242 -21.027 -19.531 -1019.936 -569.929 -2129.962 2.617 2.149 -1.386 -0.13 0.65 -0.73 0.15
1 5.71 571 -1.346 -11.200 2.136 -25.482 -20.264 -16.480 -1004.945 -539.948 -2039.871 1.419 1.459 -1.068 -0.13 0.65 -0.73 0.14
1 5.72 572 0.369 -9.472 3.069 15.747 -20.660 -9.644 -1154.998 -434.867 -2159.943 -0.240 -0.274 -2.051 -0.14 0.65 -0.73 0.14
1 5.73 573 0.642 -9.036 3.366 13.794 -19.440 -5.310 -1079.896 -509.968 -1964.920 -0.497 -0.706 -2.311 -0.14 0.65 -0.73 0.15
1 5.74 574 0.704 -8.888 3.285 -10.681 -15.259 8.972 -1079.896 -509.968 -1964.920 -0.554 -0.852 -2.208 -0.14 0.65 -0.73 0.15
1 5.75 575 0.867 -9.213 3.093 -12.329 -19.440 14.435 -1094.887 -449.857 -2024.881 -0.725 -0.526 -2.016 -0.14 0.65 -0.73 0.15
1 5.76 576 1.331 -9.170 3.017 3.235 -24.323 17.304 -1094.887 -449.857 -2024.881 -1.203 -0.569 -1.936 -0.14 0.65 -0.73 0.15
1 5.77 577 1.657 -8.576 3.338 24.445 -28.137 22.400 -1229.949 -389.896 -2039.871 -1.543 -1.160 -2.228 -0.14 0.65 -0.73 0.15
1 5.78 578 1.518 -8.011 3.611 35.706 -36.133 21.637 -1034.926 -359.916 -2039.871 -1.420 -1.718 -2.442 -0.14 0.65 -0.73 0.16
1 5.79 579 1.255 -7.748 3.572 22.583 -38.025 16.357 -1034.926 -359.916 -2039.871 -1.171 -1.973 -2.331 -0.15 0.64 -0.73 0.16
1 5.80 580 1.125 -8.361 3.223 -3.571 -32.898 11.749 -1229.949 -389.896 -2039.871 -1.067 -1.352 -1.919 -0.15 0.64 -0.73 0.16
1 5.81 581 1.034 -9.333 3.060 -11.841 -26.703 7.538 -1229.949 -389.896 -2039.871 -0.976 -0.379 -1.749 -0.15 0.64 -0.73 0.17
1 5.82 582 0.900 -9.750 2.706 -9.674 -18.829 2.289 -1109.877 -434.867 -2219.904 -0.838 0.037 -1.397 -0.15 0.64 -0.73 0.17
1 5.83 583 1.063 -9.879 2.461 -0.397 -11.749 -3.082 -1109.877 -434.867 -2219.904 -0.991 0.167 -1.153 -0.15 0.64 -0.73 0.17
1 5.84 584 1.288 -9.778 2.375 6.653 -5.646 -4.852 -1019.936 -374.906 -2174.933 -1.202 0.068 -1.054 -0.15 0.64 -0.73 0.17
1 5.85 585 1.346 -9.955 2.447 1.251 -2.747 -8.514 -1199.968 -449.857 -2099.982 -1.241 0.248 -1.107 -0.15 0.64 -0.73 0.17
1 5.86 586 1.255 -9.975 2.097 -3.143 -2.258 -9.338 -1199.968 -449.857 -2099.982 -1.127 0.269 -0.744 -0.15 0.64 -0.74 0.17
1 5.87 587 0.986 -9.903 1.848 0.793 -9.338 -15.595 -1094.887 -494.978 -2069.852 -0.808 0.199 -0.488 -0.16 0.64 -0.74 0.17
1 5.88 588 0.804 -9.869 1.724 5.341 -11.261 -19.013 -1094.887 -494.978 -2069.852 -0.591 0.168 -0.356 -0.16 0.64 -0.74 0.17
1 5.89 589 0.795 -9.630 1.575 7.782 -11.231 -20.813 -1304.900 -464.997 -2114.972 -0.545 -0.069 -0.196 -0.16 0.64 -0.74 0.16
1 5.90 590 0.953 -9.601 1.379 8.698 -11.658 -22.461 -1304.900 -464.997 -2114.972 -0.664 -0.095 0.015 -0.16 0.63 -0.74 0.16
1 5.91 591 1.188 -9.328 1.269 8.972 -9.338 -20.355 -1244.939 -449.857 -2129.962 -0.858 -0.365 0.138 -0.16 0.63 -0.74 0.16
1 5.92 592 1.130 -9.070 1.015 7.324 -4.669 -19.928 -1154.998 -629.890 -2084.992 -0.762 -0.620 0.405 -0.17 0.63 -0.74 0.16
1 5.93 593 1.116 -9.103 0.958 5.890 -2.686 -20.050 -1154.998 -629.890 -2084.992 -0.708 -0.583 0.474 -0.17 0.63 -0.74 0.16
1 5.94 594 1.231 -9.012 0.939 7.141 0.549 -17.609 -1199.968 -374.906 -2024.881 -0.785 -0.671 0.500 -0.17 0.63 -0.74 0.16
1 5.95 595 1.255 -8.974 0.876 9.064 2.533 -16.022 -1199.968 -449.857 -2099.982 -0.745 -0.704 0.581 -0.17 0.63 -0.74 0.16
1 5.96 596 1.336 -8.974 0.915 9.460 1.831 -14.404 -1304.900 -434.867 -2189.923 -0.796 -0.700 0.554 -0.17 0.63 -0.74 0.16
1 5.97 597 1.561 -8.816 1.044 8.392 2.380 -13.092 -1304.900 -434.867 -2189.923 -0.995 -0.855 0.437 -0.17 0.63 -0.74 0.16
1 5.98 598 1.882 -8.840 0.982 5.890 3.632 -11.963 -1394.991 -599.909 -2099.982 -1.289 -0.828 0.509 -0.17 0.63 -0.74 0.16
1 5.99 599 2.121 -8.854 0.886 5.615 5.249 -9.949 -1304.900 -359.916 -2084.992 -1.502 -0.811 0.612 -0.17 0.63 -0.74 0.16
1 6.00 600 2.265 -8.768 0.996 7.050 10.956 -4.578 -1304.900 -359.916 -2084.992 -1.621 -0.894 0.509 -0.17 0.63 -0.74 0.15
1 6.01 601 2.255 -8.763 0.996 4.425 15.167 -2.350 -1199.968 -419.876 -2099.982 -1.593 -0.897 0.517 -0.17 0.63 -0.74 0.15
1 6.02 602 2.337 -8.595 0.862 -0.336 22.400 2.106 -1319.890 -449.857 -2204.914 -1.651 -1.061 0.662 -0.17 0.63 -0.74 0.15
1 6.03 603 2.231 -8.466 1.058 -1.495 29.053 6.500 -1154.998 -539.948 -2114.972 -1.542 -1.190 0.465 -0.17 0.63 -0.75 0.15
1 6.04 604 2.045 -8.375 0.857 -6.287 36.408 10.376 -1154.998 -539.948 -2114.972 -1.373 -1.282 0.667 -0.17 0.63 -0.75 0.15
1 6.05 605 1.791 -8.390 0.776 -13.275 40.833 14.160 -1304.900 -539.948 -2084.992 -1.144 -1.271 0.742 -0.17 0.63 -0.75 0.15
1 6.06 606 1.551 -8.672 0.493 -22.430 43.030 18.433 -1304.900 -434.867 -2219.904 -0.935 -0.993 1.007 -0.17 0.63 -0.75 0.15
1 6.07 607 1.274 -8.993 0.431 -25.574 42.328 18.707 -1304.900 -434.867 -2219.904 -0.692 -0.678 1.043 -0.16 0.63 -0.74 0.15
1 6.08 608 0.948 -9.395 0.354 -24.841 41.565 17.609 -1244.939 -254.984 -2174.933 -0.400 -0.283 1.084 -0.16 0.63 -0.74 0.14
1 6.09 609 1.087 -9.706 0.287 -16.419 36.224 15.778 -1064.906 -524.958 -2129.962 -0.596 0.014 1.075 -0.16 0.64 -0.74 0.14
1 6.10 610 1.178 -9.845 0.388 -12.787 35.248 15.167 -1229.949 -434.867 -1964.920 -0.711 0.148 0.948 -0.15 0.64 -0.74 0.14
1 6.11 611 0.709 -9.917 0.436 -10.498 38.910 12.939 -1229.949 -434.867 -1964.920 -0.265 0.216 0.880 -0.15 0.64 -0.74 0.14
1 6.12 612 0.718 -9.769 0.690 -9.125 38.605 11.292 -1094.887 -494.978 -2129.962 -0.296 0.064 0.609 -0.15 0.64 -0.74 0.14
1 6.13 613 0.872 -9.955 1.010 -8.698 36.987 10.712 -1064.906 -494.978 -2069.852 -0.471 0.248 0.273 -0.15 0.64 -0.74 0.14
1 6.14 614 0.670 -10.075 1.044 -14.160 38.971 9.308 -1064.906 -494.978 -2069.852 -0.288 0.365 0.226 -0.14 0.64 -0.74 0.14
1 6.15 615 0.560 -10.233 0.752 -17.395 36.652 6.958 -1244.939 -524.958 -1949.930 -0.197 0.520 0.499 -0.14 0.65 -0.74 0.13
1 6.16 616 0.723 -10.597 0.656 -18.189 27.374 5.768 -929.994 -389.896 -2114.972 -0.387 0.876 0.541 -0.14 0.65 -0.74 0.13
1 6.17 617 0.570 -10.937 0.675 -17.853 23.071 4.395 -1034.926 -359.916 -2219.904 -0.243 1.213 0.493 -0.14 0.65 -0.74 0.13
1 6.18 618 0.024 -11.354 0.493 -17.548 13.062 -1.129 -1034.926 -359.916 -2219.904 0.299 1.626 0.652 -0.14 0.65 -0.74 0.13
1 6.19 619 0.148 -11.196 0.273 -9.338 9.888 -0.885 -974.965 -314.945 -2084.992 0.175 1.466 0.850 -0.14 0.65 -0.74 0.13
1 6.20 620 0.838 -10.951 0.464 1.892 3.235 2.014 -1004.945 -359.916 -2039.871 -0.515 1.221 0.651 -0.14 0.65 -0.74 0.13
1 6.21 621 1.116 -10.492 0.474 2.899 3.998 2.594 -1004.945 -359.916 -2039.871 -0.795 0.761 0.647 -0.14 0.65 -0.74 0.13
1 6.22 622 0.929 -10.477 0.148 -7.355 10.925 3.235 -914.854 -329.935 -2174.933 -0.609 0.747 0.974 -0.14 0.65 -0.74 0.13
1 6.23 623 0.618 -10.880 0.225 -15.259 9.918 2.380 -989.955 -374.906 -2099.982 -0.298 1.148 0.885 -0.13 0.65 -0.74 0.13
1 6.24 624 0.249 -12.886 0.766 -27.466 2.777 -12.329 -974.965 -359.916 -2039.871 0.074 3.148 0.288 -0.13 0.65 -0.73 0.13
1 6.25 625 -0.153 -13.872 0.354 -26.398 -4.242 -28.168 -974.965 -359.916 -2039.871 0.502 4.131 0.658 -0.14 0.66 -0.73 0.12
1 6.26 626 -0.354 -13.992 0.354 -2.411 -12.604 -36.835 -839.903 -329.935 -2129.962 0.750 4.250 0.627 -0.14 0.66 -0.73 0.12
1 6.27 627 -0.268 -12.996 0.766 27.252 -13.977 -35.797 -869.883 -299.955 -2099.982 0.723 3.257 0.223 -0.14 0.66 -0.73 0.12
1 6.28 628 0.283 -11.584 1.106 35.736 -3.784 -29.114 -869.883 -299.955 -2099.982 0.227 1.852 -0.069 -0.14 0.65 -0.73 0.12
1 6.29 629 1.470 -10.760 1.508 13.428 9.674 -19.379 -899.864 -209.863 -1964.920 -0.912 1.037 -0.414 -0.14 0.65 -0.74 0.12
1 6.30 630 2.275 -11.426 1.451 -20.264 18.280 -6.836 -1019.936 -299.955 -2069.852 -1.684 1.708 -0.325 -0.15 0.65 -0.74 0.12
1 6.31 631 2.356 -12.584 0.393 -36.255 23.621 -0.885 -1154.998 -239.994 -2039.871 -1.750 2.861 0.667 -0.14 0.65 -0.74 0.12
1 6.32 632 2.423 -12.321 0.527 -2.289 16.419 6.683 -1154.998 -239.994 -2039.871 -1.821 2.593 0.492 -0.14 0.65 -0.73 0.11
1 6.33 633 1.997 -11.363 1.279 38.513 17.578 14.618 -1139.857 -449.857 -2204.914 -1.409 1.636 -0.244 -0.14 0.65 -0.73 0.11
1 6.34 634 1.006 -9.965 2.308 57.129 16.693 12.299 -1034.926 -314.945 -2084.992 -0.442 0.244 -1.204 -0.14 0.65 -0.74 0.11
1 6.35 635 -0.144 -8.734 3.237 54.230 16.022 2.869 -1034.926 -314.945 -2084.992 0.693 -0.977 -2.041 -0.14 0.65 -0.74 0.12
1 6.36 636 -1.604 -7.930 3.831 43.671 18.433 -5.981 -1019.936 -329.935 -2174.933 2.148 -1.770 -2.541 -0.14 0.64 -0.74 0.12
1 6.37 637 -2.375 -7.537 3.941 40.161 22.003 -6.989 -944.984 -374.906 -2024.881 2.913 -2.150 -2.563 -0.14 0.64 -0.75 0.12
1 6.38 638 -2.864 -7.044 3.788 42.725 24.109 -9.613 -944.984 -374.906 -2024.881 3.392 -2.632 -2.326 -0.13 0.64 -0.75 0.12
1 6.39 639 -2.983 -6.862 3.673 43.152 18.158 -14.099 -1169.988 -374.906 -2249.884 3.524 -2.790 -2.066 -0.13 0.63 -0.75 0.11
1 6.40 640 -2.203 -7.183 3.769 29.511 13.031 -15.137 -974.965 -359.916 -2189.923 2.762 -2.458 -2.099 -0.13 0.63 -0.76 0.11
1 6.41 641 -0.991 -8.074 3.639 8.728 11.444 -12.665 -899.864 -239.994 -2219.904 1.570 -1.559 -1.932 -0.13 0.63 -0.76 0.11
1 6.42 642 0.335 -9.175 3.414 -8.484 12.543 -5.310 -899.864 -239.994 -2219.904 0.252 -0.455 -1.691 -0.13 0.63 -0.76 0.11
1 6.43 643 1.389 -10.204 2.945 -12.116 14.679 4.791 -914.854 -329.935 -2324.985 -0.805 0.575 -1.221 -0.13 0.63 -0.76 0.11
1 6.44 644 1.561 -10.295 2.639 14.893 17.822 19.013 -929.994 -389.896 -2264.875 -0.987 0.665 -0.917 -0.13 0.63 -0.76 0.11
1 6.45 645 0.991 -9.644 2.504 37.140 19.257 21.301 -929.994 -389.896 -2264.875 -0.445 0.015 -0.767 -0.13 0.63 -0.76 0.11
1 6.46 646 -0.153 -8.787 2.854 38.208 14.526 19.135 -1109.877 -464.997 -2294.855 0.640 -0.822 -0.989 -0.12 0.62 -0.76 0.11
1 6.47 647 -0.900 -8.595 2.864 16.083 11.841 20.325 -779.942 -359.916 -2264.875 1.352 -1.003 -0.940 -0.12 0.62 -0.77 0.11
1 6.48 648 -1.097 -8.758 2.595 -5.615 9.552 21.973 -824.913 -584.919 -2264.875 1.508 -0.837 -0.647 -0.12 0.62 -0.77 0.11
1 6.49 649 -1.245 -9.175 2.102 -16.632 6.744 23.407 -824.913 -584.919 -2264.875 1.612 -0.423 -0.159 -0.12 0.62 -0.77 0.11
1 6.50 650 -0.996 -9.711 1.642 -17.059 4.791 22.827 -1034.926 -434.867 -2264.875 1.315 0.107 0.279 -0.12 0.62 -0.76 0.12
1 6.51 651 -0.761 -10.362 1.245 -3.967 4.150 23.987 -779.942 -389.896 -2294.855 1.037 0.752 0.655 -0.11 0.62 -0.76 0.12
1 6.52 652 -0.852 -10.104 1.159 10.437 1.373 24.292 -779.942 -389.896 -2294.855 1.085 0.490 0.729 -0.11 0.63 -0.76 0.12
1 6.53 653 -1.020 -9.371 1.212 31.189 -2.075 20.752 -824.913 -359.916 -2294.855 1.170 -0.238 0.709 -0.11 0.62 -0.76 0.12
1 6.54 654 -0.919 -9.232 1.346 31.860 -3.021 19.653 -779.942 -509.968 -2294.855 1.033 -0.369 0.616 -0.11 0.62 -0.76 0.12
1 6.55 655 -0.891 -8.816 1.484 19.806 -7.538 17.334 -824.913 -464.997 -2369.956 0.973 -0.778 0.516 -0.11 0.62 -0.77 0.12
1 6.56 656 -1.149 -8.763 1.317 12.054 -9.064 15.228 -824.913 -464.997 -2369.956 1.203 -0.825 0.707 -0.11 0.62 -0.77 0.13
1 6.57 657 -1.403 -8.969 1.312 9.949 -11.963 11.871 -839.903 -449.857 -2429.917 1.432 -0.617 0.726 -0.11 0.62 -0.77 0.13
1 6.58 658 -1.437 -9.117 1.159 12.299 -14.282 12.970 -674.860 -464.997 -2264.875 1.443 -0.466 0.892 -0.11 0.62 -0.77 0.13
1 6.59 659 -1.389 -9.012 0.939 10.284 -17.853 13.306 -674.860 -464.997 -2264.875 1.372 -0.568 1.126 -0.1 0.62 -0.77 0.13
1 6.60 660 -1.298 -9.108 0.790 5.310 -20.264 12.787 -779.942 -509.968 -2414.927 1.235 -0.468 1.292 -0.1 0.62 -0.77 0.13
1 6.61 661 -1.240 -9.261 0.733 1.343 -21.607 13.245 -839.903 -494.978 -2384.946 1.157 -0.315 1.347 -0.1 0.62 -0.77 0.14
1 6.62 662 -1.748 -9.496 0.479 -1.923 -30.853 11.810 -704.991 -539.948 -2474.888 1.646 -0.083 1.590 -0.11 0.62 -0.77 0.14
1 6.63 663 -1.810 -9.266 0.292 1.129 -39.215 7.690 -704.991 -539.948 -2474.888 1.692 -0.315 1.767 -0.11 0.62 -0.77 0.14
1 6.64 664 -1.595 -9.299 0.474 3.448 -41.046 3.418 -869.883 -494.978 -2459.897 1.468 -0.283 1.577 -0.11 0.62 -0.76 0.14
1 6.65 665 -2.002 -8.902 0.565 3.937 -55.023 1.129 -690.000 -494.978 -2504.868 1.874 -0.681 1.483 -0.11 0.62 -0.76 0.15
1 6.66 666 -1.413 -8.227 0.761 -9.033 -51.941 -3.387 -690.000 -494.978 -2504.868 1.289 -1.357 1.281 -0.11 0.62 -0.76 0.15
1 6.67 667 -1.092 -8.327 0.804 -17.975 -54.718 -1.007 -869.883 -374.906 -2384.946 0.992 -1.259 1.230 -0.12 0.62 -0.76 0.15
1 6.68 668 -0.464 -9.433 0.910 -35.858 -49.652 -0.488 -779.942 -389.896 -2474.888 0.402 -0.165 1.064 -0.12 0.62 -0.76 0.15
1 6.69 669 -0.268 -9.831 0.536 -32.349 -45.563 0.793 -974.965 -434.867 -2519.858 0.218 0.220 1.379 -0.12 0.62 -0.76 0.16
1 6.70 670 -0.206 -9.587 0.551 -12.177 -43.396 -0.793 -974.965 -434.867 -2519.858 0.167 -0.034 1.315 -0.13 0.62 -0.76 0.16
1 6.71 671 -0.383 -9.146 1.053 14.526 -37.659 -5.676 -839.903 -329.935 -2459.897 0.359 -0.478 0.796 -0.13 0.62 -0.75 0.16
1 6.72 672 -0.546 -8.452 1.240 19.775 -32.806 -8.484 -974.965 -389.896 -2294.855 0.541 -1.168 0.631 -0.13 0.62 -0.75 0.16
1 6.73 673 -1.245 -7.801 1.666 2.869 -28.046 -9.430 -974.965 -389.896 -2294.855 1.264 -1.812 0.239 -0.13 0.62 -0.76 0.16
1 6.74 674 -1.403 -7.489 1.336 -16.327 -26.581 -12.421 -974.965 -509.968 -2414.927 1.445 -2.121 0.582 -0.14 0.62 -0.76 0.16
1 6.75 675 -0.651 -7.848 0.594 -39.429 -30.457 -21.027 -944.984 -449.857 -2504.868 0.753 -1.773 1.265 -0.14 0.62 -0.75 0.16
1 6.76 676 -0.326 -8.035 0.081 -45.197 -32.440 -25.971 -1064.906 -419.876 -2324.985 0.470 -1.597 1.716 -0.14 0.62 -0.75 0.16
1 6.77 677 -0.876 -8.624 -0.206 -43.945 -34.302 -30.762 -1064.906 -419.876 -2324.985 1.071 -1.020 1.937 -0.15 0.62 -0.75 0.16
1 6.78 678 -0.441 -11.057 4.468 -35.523 -24.475 -31.342 -1019.936 -494.978 -2504.868 0.692 1.403 -2.800 -0.15 0.63 -0.75 0.16
1 6.79 679 4.233 -18.019 4.516 -70.923 8.972 3.632 -1094.887 -224.854 -2324.985 -3.942 8.357 -2.905 -0.15 0.63 -0.75 0.16
1 6.80 680 6.388 -15.994 2.461 -53.925 20.020 62.866 -1094.887 -224.854 -2324.985 -6.128 6.310 -0.981 -0.15 0.63 -0.74 0.16
1 6.81 681 4.027 -13.044 2.121 55.542 20.752 41.168 -1199.968 -374.906 -2429.917 -3.860 3.341 -0.756 -0.15 0.64 -0.74 0.16
1 6.82 682 0.690 -10.918 4.061 63.477 13.153 20.508 -1199.968 -374.906 -2429.917 -0.596 1.221 -2.645 -0.15 0.64 -0.74 0.16
1 6.83 683 -4.042 -10.923 4.247 -26.367 9.338 5.615 -989.955 -374.906 -2279.865 4.074 1.246 -2.696 -0.14 0.63 -0.74 0.16
1 6.84 684 -3.409 -12.762 3.692 -74.616 -0.885 -7.172 -989.955 -374.906 -2279.865 3.439 3.076 -2.200 -0.14 0.64 -0.74 0.16
1 6.85 685 -2.174 -12.781 2.768 -60.547 -2.838 -8.331 -1019.936 -299.955 -2429.917 2.217 3.078 -1.388 -0.14 0.64 -0.74 0.16
1 6.86 686 -2.777 -11.478 2.222 -7.568 1.160 -11.902 -1079.896 -314.945 -2294.855 2.834 1.766 -0.911 -0.14 0.64 -0.74 0.16
1 6.87 687 -3.366 -10.722 2.567 10.437 -10.590 -17.242 -1079.896 -314.945 -2294.855 3.444 1.010 -1.255 -0.14 0.64 -0.74 0.16
1 6.88 688 -2.203 -10.645 3.141 -22.980 -20.020 -15.289 -1079.896 -314.945 -2189.923 2.311 0.935 -1.820 -0.15 0.64 -0.74 0.16
1 6.89 689 -0.713 -10.233 2.787 -23.773 -16.205 -9.399 -1079.896 -314.945 -2189.923 0.852 0.520 -1.491 -0.15 0.64 -0.74 0.16
1 6.90 690 0.953 -9.074 3.017 7.996 -11.597 -5.463 -1019.936 -299.955 -2249.884 -0.784 -0.643 -1.759 -0.15 0.64 -0.73 0.16
1 6.91 691 1.355 -8.414 3.117 16.693 -9.064 1.587 -1019.936 -299.955 -2249.884 -1.173 -1.300 -1.830 -0.15 0.64 -0.74 0.16
1 6.92 692 1.666 -8.485 3.687 11.871 -8.057 9.125 -1154.998 -239.994 -2159.943 -1.478 -1.222 -2.359 -0.15 0.64 -0.74 0.16
1 6.93 693 1.820 -8.658 3.812 5.768 -10.254 14.862 -944.984 -254.984 -2279.865 -1.634 -1.045 -2.450 -0.15 0.64 -0.74 0.16
1 6.94 694 1.920 -8.734 3.558 8.942 -15.533 16.754 -944.984 -254.984 -2279.865 -1.741 -0.965 -2.168 -0.15 0.64 -0.74 0.16
1 6.95 695 1.772 -8.256 3.615 26.306 -20.355 15.015 -1139.857 -104.932 -2279.865 -1.600 -1.439 -2.191 -0.15 0.64 -0.74 0.16
1 6.96 696 1.949 -8.198 3.692 29.968 -25.299 13.489 -1139.857 -104.932 -2279.865 -1.781 -1.489 -2.217 -0.15 0.63 -0.74 0.17
1 6.97 697 1.642 -8.390 3.903 13.062 -27.771 7.507 -1019.936 -224.854 -2249.884 -1.470 -1.279 -2.313 -0.15 0.63 -0.74 0.17
1 6.98 698 1.537 -8.528 3.826 6.348 -26.764 6.409 -1019.936 -224.854 -2249.884 -1.356 -1.134 -2.203 -0.16 0.63 -0.74 0.17
1 6.99 699 1.326 -9.395 3.591 -1.129 -23.071 -0.244 -1199.968 -149.902 -2384.946 -1.134 -0.264 -1.949 -0.16 0.63 -0.74 0.17
1 7.00 700 1.149 -10.013 3.453 2.289 -16.174 -3.815 -1184.978 -284.964 -2219.904 -0.940 0.356 -1.796 -0.16 0.62 -0.74 0.17
1 7.01 701 1.279 -10.008 3.046 8.484 -10.071 -5.707 -1184.978 -284.964 -2219.904 -1.050 0.355 -1.370 -0.16 0.62 -0.75 0.17
1 7.02 702 1.451 -9.678 2.993 16.876 -4.517 -9.155 -1004.945 -239.994 -2444.907 -1.202 0.030 -1.291 -0.16 0.62 -0.75 0.17
1 7.03 703 1.633 -9.572 2.840 14.526 -2.869 -10.559 -1004.945 -239.994 -2444.907 -1.361 -0.069 -1.104 -0.16 0.62 -0.75 0.17
1 7.04 704 1.662 -9.668 2.509 0.580 0.214 -14.465 -1199.968 -224.854 -2324.985 -1.333 0.038 -0.722 -0.16 0.62 -0.75 0.17
1 7.05 705 1.614 -9.668 2.418 -2.075 2.136 -17.914 -1199.968 -224.854 -2324.985 -1.252 0.040 -0.625 -0.16 0.62 -0.75 0.17
1 7.06 706 1.652 -9.596 1.805 4.791 2.808 -18.860 -1229.949 -434.867 -2339.976 -1.254 -0.029 -0.008 -0.16 0.62 -0.75 0.17
1 7.07 707 1.355 -9.453 1.743 6.958 3.876 -19.898 -1139.857 -149.902 -2279.865 -0.919 -0.169 0.065 -0.17 0.62 -0.75 0.17
1 7.08 708 1.097 -9.544 1.571 3.937 4.303 -20.386 -1139.857 -149.902 -2279.865 -0.623 -0.075 0.248 -0.17 0.62 -0.75 0.16
1 7.09 709 1.006 -9.568 1.322 -0.641 9.796 -18.524 -1169.988 -374.906 -2324.985 -0.498 -0.048 0.501 -0.17 0.62 -0.75 0.16
1 7.10 710 1.274 -9.510 1.058 2.808 11.749 -17.761 -1169.988 -374.906 -2324.985 -0.735 -0.104 0.763 -0.17 0.62 -0.75 0.16
1 7.11 711 1.216 -9.347 1.159 9.918 13.062 -15.564 -1199.968 -374.906 -2354.966 -0.649 -0.265 0.662 -0.17 0.62 -0.75 0.16
1 7.12 712 1.121 -9.060 1.073 10.773 15.686 -12.054 -1274.919 -329.935 -2279.865 -0.504 -0.545 0.772 -0.17 0.61 -0.75 0.16
1 7.13 713 1.274 -8.979 1.001 8.820 17.853 -10.315 -1259.929 -359.916 -2369.956 -0.639 -0.623 0.857 -0.17 0.61 -0.76 0.15
1 7.14 714 1.140 -8.854 1.068 5.951 20.172 -7.355 -1274.919 -179.883 -2354.966 -0.491 -0.745 0.799 -0.17 0.61 -0.76 0.15
1 7.15 715 1.269 -8.744 1.058 4.761 20.752 -5.707 -1274.919 -179.883 -2354.966 -0.611 -0.853 0.816 -0.17 0.61 -0.76 0.15
1 7.16 716 1.403 -8.720 0.977 1.526 22.675 -3.143 -1274.919 -374.906 -2384.946 -0.737 -0.875 0.903 -0.17 0.61 -0.76 0.15
1 7.17 717 1.470 -8.806 0.996 0.183 24.750 -2.380 -1274.919 -374.906 -2384.946 -0.799 -0.788 0.885 -0.17 0.61 -0.76 0.15
1 7.18 718 1.504 -8.916 0.986 -0.305 27.924 -0.549 -1274.919 -224.854 -2429.917 -0.828 -0.678 0.893 -0.16 0.61 -0.76 0.15
1 7.19 719 1.480 -8.897 0.867 2.808 32.288 2.380 -1169.988 -329.935 -2534.999 -0.805 -0.697 1.011 -0.16 0.61 -0.76 0.14
1 7.20 720 1.336 -8.998 0.828 4.944 36.133 5.188 -1184.978 -314.945 -2444.907 -0.668 -0.597 1.053 -0.16 0.62 -0.76 0.14
1 7.21 721 1.197 -8.677 0.766 5.249 36.713 6.897 -1229.949 -314.945 -2339.976 -0.542 -0.917 1.121 -0.16 0.62 -0.76 0.14
1 7.22 722 1.192 -8.643 0.656 3.204 36.957 6.470 -1229.949 -314.945 -2339.976 -0.554 -0.950 1.240 -0.16 0.62 -0.76 0.14
1 7.23 723 0.943 -8.562 0.761 -5.585 36.102 6.805 -1079.896 -284.964 -2444.907 -0.325 -1.032 1.142 -0.15 0.62 -0.76 0.14
1 7.24 724 0.292 -8.782 0.359 -18.036 33.203 7.385 -1079.896 -284.964 -2444.907 0.307 -0.814 1.537 -0.15 0.62 -0.76 0.14
1 7.25 725 0.163 -9.003 0.077 -22.553 28.717 6.470 -1259.929 -359.916 -2414.927 0.417 -0.599 1.800 -0.15 0.62 -0.76 0.14
1 7.26 726 0.211 -9.477 0.105 -23.254 23.743 5.737 -1154.998 -284.964 -2624.940 0.351 -0.132 1.737 -0.15 0.62 -0.76 0.13
1 7.27 727 0.986 -9.338 0.192 -13.367 23.560 10.407 -1079.896 -284.964 -2474.888 -0.458 -0.289 1.568 -0.14 0.62 -0.76 0.13
1 7.28 728 1.015 -8.897 0.393 -3.571 24.994 13.702 -1109.877 -209.863 -2444.907 -0.506 -0.735 1.343 -0.14 0.63 -0.76 0.13
1 7.29 729 1.087 -8.912 0.584 -10.193 28.442 14.282 -1109.877 -209.863 -2444.907 -0.600 -0.724 1.138 -0.14 0.63 -0.76 0.13
1 7.30 730 0.766 -9.280 0.699 -29.236 28.748 12.543 -929.994 -239.994 -2369.956 -0.302 -0.361 0.997 -0.14 0.63 -0.75 0.13
1 7.31 731 0.728 -10.128 0.584 -39.002 23.316 8.911 -929.994 -239.994 -2369.956 -0.285 0.477 1.059 -0.14 0.63 -0.75 0.13
1 7.32 732 0.757 -10.856 0.867 -20.722 16.693 5.463 -1004.945 -164.893 -2339.976 -0.331 1.193 0.713 -0.14 0.63 -0.75 0.13
1 7.33 733 0.867 -10.616 1.178 1.801 9.522 2.960 -974.965 -209.863 -2444.907 -0.453 0.947 0.361 -0.14 0.63 -0.75 0.13
1 7.34 734 0.862 -9.874 1.930 7.172 2.136 -1.434 -1019.936 -254.984 -2534.999 -0.453 0.206 -0.382 -0.13 0.63 -0.75 0.13
1 7.35 735 0.785 -9.908 2.002 -5.859 -1.770 -2.808 -929.994 -119.922 -2294.855 -0.369 0.241 -0.444 -0.13 0.63 -0.75 0.13
1 7.36 736 1.082 -10.099 1.710 -19.196 -2.869 -2.045 -929.994 -119.922 -2294.855 -0.658 0.431 -0.163 -0.13 0.63 -0.75 0.13
1 7.37 737 1.480 -10.410 1.393 -22.461 -4.364 -0.824 -1034.926 -239.994 -2444.907 -1.047 0.738 0.125 -0.14 0.64 -0.75 0.12
1 7.38 738 1.834 -10.736 0.982 -22.858 -3.693 1.587 -1034.926 -239.994 -2444.907 -1.391 1.059 0.503 -0.14 0.64 -0.75 0.12
1 7.39 739 2.389 -11.301 0.737 -21.149 7.263 8.026 -1004.945 -209.863 -2414.927 -1.948 1.619 0.714 -0.14 0.64 -0.75 0.12
1 7.40 740 1.705 -11.684 0.737 -22.369 12.482 12.299 -854.893 -89.941 -2294.855 -1.274 1.997 0.683 -0.14 0.64 -0.75 0.12
1 7.41 741 0.163 -13.020 1.212 -31.342 5.768 -6.928 -929.994 -119.922 -2369.956 0.240 3.322 0.140 -0.13 0.64 -0.74 0.12
1 7.42 742 0.196 -13.413 1.317 -25.147 3.479 -21.179 -899.864 -209.863 -2294.855 0.223 3.709 -0.010 -0.14 0.64 -0.74 0.12
1 7.43 743 0.220 -13.667 0.919 -17.090 4.852 -24.048 -899.864 -209.863 -2294.855 0.233 3.960 0.354 -0.14 0.65 -0.74 0.12
1 7.44 744 0.785 -12.900 0.508 -2.747 5.890 -18.066 -944.984 -149.902 -2324.985 -0.297 3.193 0.747 -0.14 0.65 -0.74 0.12
1 7.45 745 1.623 -12.249 0.848 8.881 5.981 -6.744 -944.984 -149.902 -2324.985 -1.112 2.544 0.410 -0.14 0.65 -0.74 0.12
1 7.46 746 2.864 -11.761 1.710 8.606 14.404 9.460 -899.864 -119.922 -2339.976 -2.347 2.058 -0.436 -0.14 0.65 -0.74 0.12
1 7.47 747 2.777 -11.655 2.251 7.294 18.158 11.231 -944.984 -104.932 -2279.865 -2.274 1.954 -0.962 -0.14 0.64 -0.74 0.12
1 7.48 748 1.599 -11.071 2.514 15.808 23.071 3.357 -929.994 -44.971 -2339.976 -1.129 1.372 -1.196 -0.13 0.64 -0.74 0.12
1 7.49 749 1.121 -10.592 2.600 23.285 22.675 1.770 -944.984 0.000 -2354.966 -0.658 0.897 -1.250 -0.13 0.64 -0.75 0.12
1 7.50 750 -0.038 -9.213 3.515 42.359 24.384 -2.472 -944.984 0.000 -2354.966 0.500 -0.474 -2.105 -0.13 0.64 -0.75 0.11
1 7.51 751 -0.757 -8.701 3.931 37.995 28.809 -2.869 -974.965 -119.922 -2294.855 1.216 -0.974 -2.443 -0.13 0.64 -0.75 0.11
1 7.52 752 -1.556 -8.155 3.864 28.351 28.320 -4.883 -974.965 -119.922 -2294.855 2.007 -1.509 -2.302 -0.13 0.64 -0.75 0.11
1 7.53 753 -2.495 -7.748 3.903 24.078 22.034 -14.221 -1019.936 -74.951 -2279.865 2.936 -1.906 -2.278 -0.12 0.63 -0.76 0.11
1 7.54 754 -3.309 -7.240 3.438 23.987 22.217 -18.463 -944.984 -254.984 -2459.897 3.745 -2.404 -1.756 -0.12 0.63 -0.76 0.11
1 7.55 755 -3.007 -7.307 3.084 18.372 14.404 -20.783 -944.984 -254.984 -2459.897 3.439 -2.327 -1.345 -0.12 0.63 -0.76 0.11
1 7.56 756 -1.389 -8.734 3.323 -4.639 3.906 -18.219 -1064.906 -224.854 -2504.868 1.877 -0.889 -1.537 -0.12 0.63 -0.76 0.11
1 7.57 757 -0.287 -10.061 3.242 -20.538 4.517 -9.644 -1064.906 -224.854 -2504.868 0.784 0.438 -1.455 -0.12 0.63 -0.76 0.11
1 7.58 758 0.316 -10.640 2.753 -19.714 7.294 1.892 -869.883 -254.984 -2534.999 0.182 1.014 -0.987 -0.12 0.63 -0.76 0.11
1 7.59 759 0.311 -10.109 2.145 5.798 9.857 9.308 -869.883 -254.984 -2534.999 0.180 0.478 -0.399 -0.12 0.63 -0.76 0.11
1 7.60 760 0.230 -9.419 2.399 44.647 14.099 13.397 -824.913 -209.863 -2474.888 0.244 -0.208 -0.628 -0.12 0.63 -0.76 0.11
1 7.61 761 -0.306 -9.137 2.907 31.647 15.656 15.869 -779.942 -314.945 -2594.959 0.757 -0.479 -1.070 -0.12 0.63 -0.76 0.11
1 7.62 762 -0.627 -9.266 2.538 0.580 15.533 19.196 -779.942 -314.945 -2594.959 1.050 -0.339 -0.638 -0.12 0.62 -0.77 0.11
1 7.63 763 -0.838 -9.788 1.595 -21.088 9.155 18.677 -869.883 -179.883 -2534.999 1.185 0.181 0.309 -0.11 0.62 -0.77 0.11
1 7.64 764 -1.077 -10.233 1.178 -5.829 6.073 19.379 -869.883 -179.883 -2534.999 1.387 0.620 0.699 -0.11 0.63 -0.76 0.11
1 7.65 765 -1.346 -9.960 1.025 15.503 3.448 21.362 -734.971 -179.883 -2609.950 1.616 0.345 0.848 -0.11 0.63 -0.76 0.11
1 7.66 766 -1.403 -9.635 1.288 27.618 -0.946 20.325 -734.971 -179.883 -2609.950 1.630 0.022 0.608 -0.11 0.63 -0.76 0.11
1 7.67 767 -1.350 -9.170 1.470 27.802 -6.165 19.196 -704.991 -209.863 -2594.959 1.538 -0.435 0.464 -0.1 0.62 -0.77 0.11
1 7.68 768 -1.149 -9.079 1.451 15.045 -10.590 18.036 -614.899 -104.932 -2504.868 1.300 -0.520 0.518 -0.1 0.62 -0.77 0.11
1 7.69 769 -1.010 -9.189 1.417 11.047 -13.336 17.273 -614.899 -104.932 -2504.868 1.128 -0.405 0.575 -0.1 0.62 -0.77 0.12
1 7.70 770 -0.982 -9.247 1.235 13.580 -14.374 17.548 -764.952 -224.854 -2459.897 1.069 -0.345 0.771 -0.1 0.62 -0.77 0.12
1 7.71 771 -1.365 -9.242 1.192 20.233 -16.541 15.900 -839.903 -224.854 -2534.999 1.397 -0.343 0.851 -0.1 0.62 -0.77 0.12
1 7.72 772 -1.566 -9.175 1.360 21.698 -16.876 15.503 -584.919 -224.854 -2564.979 1.572 -0.404 0.709 -0.1 0.62 -0.77 0.12
1 7.73 773 -1.686 -8.974 1.183 20.050 -19.653 16.815 -584.919 -224.854 -2564.979 1.663 -0.599 0.914 -0.1 0.62 -0.77 0.13
1 7.74 774 -1.772 -8.969 1.020 18.433 -23.071 16.724 -839.903 -374.906 -2564.979 1.720 -0.599 1.100 -0.1 0.62 -0.77 0.13
1 7.75 775 -1.753 -8.868 0.881 14.069 -28.259 12.482 -659.870 -224.854 -2714.881 1.674 -0.695 1.260 -0.1 0.62 -0.77 0.13
1 7.76 776 -1.801 -8.706 0.599 12.451 -33.051 9.430 -659.870 -224.854 -2714.881 1.700 -0.854 1.557 -0.1 0.62 -0.77 0.13
1 7.77 777 -1.714 -8.773 0.532 6.775 -36.743 8.972 -764.952 -374.906 -2639.930 1.598 -0.784 1.636 -0.1 0.62 -0.77 0.14
1 7.78 778 -1.882 -8.868 0.192 -3.174 -43.152 8.179 -854.893 -314.945 -2729.872 1.742 -0.689 1.972 -0.1 0.62 -0.77 0.14
1 7.79 779 -1.786 -9.113 -0.172 -7.294 -49.622 6.989 -794.932 -329.935 -2789.982 1.638 -0.448 2.319 -0.1 0.62 -0.77 0.14
1 7.80 780 -1.652 -9.271 0.067 -6.409 -53.864 5.402 -794.932 -329.935 -2789.982 1.500 -0.296 2.055 -0.11 0.62 -0.77 0.15
1 7.81 781 -1.317 -9.237 0.163 -0.488 -54.138 5.493 -929.994 -284.964 -2699.891 1.163 -0.334 1.939 -0.11 0.62 -0.77 0.15
1 7.82 782 -0.819 -9.256 0.359 4.028 -53.955 8.392 -824.913 -314.945 -2699.891 0.666 -0.317 1.733 -0.11 0.62 -0.76 0.15
1 7.83 783 -0.374 -9.486 0.737 -3.693 -53.192 14.954 -824.913 -314.945 -2699.891 0.217 -0.088 1.349 -0.11 0.62 -0.76 0.15
1 7.84 784 -0.326 -9.161 0.402 -8.637 -62.500 14.862 -899.864 -314.945 -2729.872 0.164 -0.416 1.673 -0.12 0.62 -0.76 0.16
1 7.85 785 -0.038 -8.964 0.656 -4.150 -59.509 11.231 -824.913 -359.916 -2729.872 -0.126 -0.621 1.379 -0.12 0.62 -0.76 0.16
1 7.86 786 0.101 -8.754 0.857 2.838 -52.490 10.620 -974.965 -284.964 -2669.911 -0.262 -0.834 1.168 -0.12 0.62 -0.76 0.17
1 7.87 787 0.239 -8.423 1.015 1.831 -51.331 9.613 -974.965 -284.964 -2669.911 -0.399 -1.163 1.017 -0.13 0.62 -0.76 0.17
1 7.88 788 -0.192 -8.251 0.943 -4.028 -48.798 7.141 -974.965 -314.945 -2804.973 0.035 -1.334 1.092 -0.13 0.62 -0.76 0.17
1 7.89 789 -0.532 -8.026 0.321 -12.817 -49.652 -2.075 -974.965 -314.945 -2699.891 0.384 -1.561 1.708 -0.13 0.62 -0.76 0.17
1 7.90 790 0.211 -9.113 2.064 -25.482 -47.913 -15.076 -974.965 -314.945 -2699.891 -0.335 -0.479 -0.056 -0.13 0.62 -0.76 0.18
1 7.91 791 2.892 -13.556 4.722 -37.109 -28.931 0.397 -944.984 -254.984 -2714.881 -2.981 3.958 -2.748 -0.14 0.62 -0.75 0.18
1 7.92 792 5.785 -15.845 4.099 -80.017 -6.348 57.282 -1079.896 -284.964 -2624.940 -5.899 6.216 -2.280 -0.14 0.62 -0.75 0.18
1 7.93 793 4.990 -14.629 3.031 -47.150 0.580 53.528 -974.965 -119.922 -2729.872 -5.184 4.984 -1.305 -0.14 0.63 -0.75 0.18
1 7.94 794 -0.144 -10.760 3.443 61.493 -4.822 8.484 -974.965 -119.922 -2729.872 -0.097 1.122 -1.683 -0.14 0.63 -0.75 0.18
1 7.95 795 -4.089 -10.166 4.118 34.088 -12.939 -13.031 -1064.906 0.000 -2684.901 3.848 0.545 -2.269 -0.14 0.62 -0.75 0.18
1 7.96 796 -6.225 -11.483 3.927 -44.922 -18.372 -23.834 -1109.877 -14.990 -2519.858 6.014 1.866 -2.053 -0.14 0.62 -0.75 0.18
1 7.97 797 -5.291 -11.876 2.706 -74.341 -11.108 -18.097 -1109.877 -14.990 -2519.858 5.122 2.241 -0.921 -0.14 0.62 -0.75 0.18
1 7.98 798 -3.036 -11.153 2.097 -14.191 0.397 -16.449 -1094.887 -149.902 -2534.999 2.900 1.496 -0.432 -0.14 0.63 -0.74 0.18
1 7.99 799 -2.059 -11.282 3.113 6.104 0.336 -12.024 -1169.988 -74.951 -2564.979 1.949 1.618 -1.490 -0.14 0.63 -0.74 0.18
1 8.00 800 -1.039 -10.544 3.625 -28.168 -0.854 -1.678 -989.955 0.000 -2564.979 0.959 0.879 -2.010 -0.14 0.63 -0.74 0.18
1 8.01 801 -0.661 -10.439 3.242 -32.929 -0.580 -3.418 -989.955 0.000 -2564.979 0.584 0.766 -1.672 -0.14 0.63 -0.74 0.18
1 8.02 802 0.215 -10.554 3.194 -23.560 -6.683 -1.465 -1154.998 -209.863 -2474.888 -0.286 0.874 -1.669 -0.15 0.63 -0.74 0.18
1 8.03 803 0.905 -10.075 3.175 -13.977 -8.148 -0.763 -1184.978 -89.941 -2519.858 -0.971 0.390 -1.679 -0.15 0.63 -0.74 0.18
1 8.04 804 1.614 -8.821 3.204 -2.686 -8.606 -2.014 -1184.978 -89.941 -2519.858 -1.671 -0.866 -1.718 -0.15 0.63 -0.74 0.18
1 8.05 805 1.705 -8.447 3.084 -1.038 -10.864 0.092 -1094.887 -29.980 -2534.999 -1.745 -1.239 -1.592 -0.15 0.63 -0.74 0.18
1 8.06 806 1.657 -8.251 3.342 -4.059 -15.869 1.709 -1244.939 -104.932 -2609.950 -1.680 -1.433 -1.838 -0.15 0.63 -0.74 0.18
1 8.07 807 1.063 -8.035 3.457 -4.517 -23.163 0.092 -1184.978 14.990 -2474.888 -1.054 -1.646 -1.934 -0.15 0.63 -0.74 0.18
1 8.08 808 0.915 -8.054 3.376 1.495 -26.703 1.221 -1184.978 14.990 -2474.888 -0.895 -1.626 -1.849 -0.15 0.63 -0.74 0.18
1 8.09 809 0.838 -7.992 3.304 6.348 -30.090 3.296 -1259.929 -119.922 -2624.940 -0.813 -1.687 -1.771 -0.15 0.63 -0.74 0.18
1 8.10 810 0.948 -8.002 3.242 3.235 -30.853 2.991 -1109.877 -89.941 -2519.858 -0.920 -1.676 -1.699 -0.16 0.63 -0.74 0.18
1 8.11 811 1.125 -8.337 3.218 -5.890 -27.130 0.458 -1109.877 -89.941 -2519.858 -1.092 -1.340 -1.673 -0.16 0.63 -0.74 0.18
1 8.12 812 1.432 -9.218 3.069 -18.311 -17.090 -3.052 -1229.949 -44.971 -2519.858 -1.383 -0.459 -1.522 -0.16 0.63 -0.74 0.18
1 8.13 813 1.920 -9.711 2.729 -20.508 -8.759 -6.531 -1274.919 -29.980 -2504.868 -1.854 0.033 -1.193 -0.16 0.63 -0.74 0.18
1 8.14 814 2.040 -9.984 2.452 -18.066 0.885 -10.223 -1274.919 -29.980 -2504.868 -1.951 0.303 -0.933 -0.16 0.63 -0.74 0.18
1 8.15 815 2.208 -10.319 2.169 -6.439 11.475 -16.693 -1259.929 -14.990 -2594.959 -2.054 0.634 -0.681 -0.16 0.63 -0.74 0.18
1 8.16 816 2.054 -10.104 1.997 -0.580 17.273 -18.555 -1079.896 -14.990 -2474.888 -1.862 0.419 -0.510 -0.16 0.63 -0.74 0.18
1 8.17 817 1.796 -9.927 1.963 1.007 19.440 -22.522 -1139.857 -224.854 -2534.999 -1.564 0.244 -0.471 -0.16 0.63 -0.74 0.17
1 8.18 818 1.461 -9.917 2.050 0.580 20.203 -28.351 -1139.857 -224.854 -2534.999 -1.185 0.236 -0.551 -0.16 0.63 -0.74 0.17
1 8.19 819 1.154 -9.831 1.891 5.066 18.463 -31.128 -1229.949 14.990 -2444.907 -0.829 0.153 -0.387 -0.16 0.63 -0.74 0.17
1 8.20 820 1.250 -9.429 1.954 10.681 17.181 -32.044 -1274.919 0.000 -2504.868 -0.876 -0.246 -0.438 -0.17 0.63 -0.74 0.16
1 8.21 821 1.077 -9.323 2.040 9.094 17.792 -31.342 -1274.919 0.000 -2504.868 -0.653 -0.347 -0.506 -0.17 0.63 -0.74 0.16
1 8.22 822 1.121 -9.003 1.791 2.960 17.487 -29.175 -1244.939 74.951 -2534.999 -0.601 -0.657 -0.221 -0.17 0.63 -0.75 0.16
1 8.23 823 1.082 -8.854 1.652 2.075 16.205 -26.398 -1274.919 -104.932 -2459.897 -0.518 -0.802 -0.074 -0.17 0.63 -0.75 0.15
1 8.24 824 0.991 -8.964 1.537 2.106 15.167 -24.933 -1274.919 -74.951 -2504.868 -0.387 -0.688 0.049 -0.17 0.63 -0.75 0.15
1 8.25 825 0.848 -9.070 1.360 0.092 14.740 -24.414 -1274.919 -74.951 -2504.868 -0.206 -0.579 0.231 -0.17 0.62 -0.75 0.15
1 8.26 826 0.785 -9.247 1.197 0.153 14.374 -22.888 -1274.919 0.000 -2609.950 -0.108 -0.399 0.396 -0.17 0.62 -0.75 0.15
1 8.27 827 0.733 -9.323 1.173 4.089 14.771 -16.754 -1439.962 -14.990 -2549.989 -0.024 -0.320 0.421 -0.17 0.62 -0.75 0.14
1 8.28 828 1.010 -9.184 1.125 5.524 13.855 -13.458 -1439.962 -14.990 -2549.989 -0.277 -0.456 0.474 -0.17 0.62 -0.75 0.14
1 8.29 829 1.523 -9.443 1.221 3.387 14.496 -10.284 -1364.861 14.990 -2594.959 -0.752 -0.192 0.394 -0.17 0.62 -0.75 0.14
1 8.30 830 1.595 -9.414 1.183 2.563 16.327 -7.599 -1424.972 -74.951 -2504.868 -0.807 -0.219 0.437 -0.17 0.62 -0.75 0.14
1 8.31 831 1.633 -9.467 1.178 2.563 16.357 -5.249 -1274.919 -104.932 -2564.979 -0.832 -0.164 0.445 -0.17 0.62 -0.75 0.14
1 8.32 832 1.738 -9.496 1.216 2.472 17.822 -3.754 -1274.919 -104.932 -2564.979 -0.926 -0.134 0.410 -0.17 0.62 -0.75 0.14
1 8.33 833 1.858 -9.448 1.259 3.235 20.355 -2.350 -1424.972 -74.951 -2609.950 -1.038 -0.181 0.371 -0.17 0.62 -0.75 0.14
1 8.34 834 1.676 -9.462 1.312 4.700 22.614 0.336 -1274.919 -179.883 -2459.897 -0.850 -0.165 0.325 -0.17 0.62 -0.75 0.13
1 8.35 835 1.427 -9.544 1.326 2.930 27.313 2.045 -1274.919 -179.883 -2459.897 -0.597 -0.082 0.318 -0.17 0.62 -0.75 0.13
1 8.36 836 0.977 -9.419 0.977 4.578 30.060 5.829 -1394.991 -74.951 -2564.979 -0.158 -0.205 0.681 -0.16 0.62 -0.75 0.13
1 8.37 837 1.015 -9.357 0.924 5.493 28.931 7.935 -1274.919 -29.980 -2534.999 -0.211 -0.267 0.742 -0.16 0.62 -0.75 0.13
1 8.38 838 0.929 -9.084 1.082 7.599 27.924 12.116 -1364.861 89.941 -2594.959 -0.144 -0.540 0.594 -0.16 0.62 -0.75 0.13
1 8.39 839 0.905 -8.888 1.092 5.707 28.778 14.404 -1364.861 89.941 -2594.959 -0.143 -0.736 0.596 -0.16 0.62 -0.75 0.13
1 8.40 840 1.097 -8.935 1.073 -1.953 29.755 17.242 -1229.949 -119.922 -2549.989 -0.363 -0.689 0.622 -0.16 0.62 -0.75 0.13
1 8.41 841 1.341 -9.175 1.049 -16.541 33.753 22.736 -1184.978 -119.922 -2624.940 -0.637 -0.453 0.640 -0.15 0.62 -0.75 0.13
1 8.42 842 1.508 -9.817 0.407 -22.430 40.772 29.358 -1184.978 -119.922 -2624.940 -0.839 0.183 1.261 -0.15 0.63 -0.75 0.13
1 8.43 843 1.824 -9.927 0.311 -19.257 44.098 33.600 -1229.949 -119.922 -2624.940 -1.198 0.285 1.324 -0.15 0.63 -0.75 0.13
1 8.44 844 1.939 -10.281 0.321 -10.651 43.793 29.480 -1139.857 -74.951 -2534.999 -1.413 0.623 1.254 -0.14 0.63 -0.75 0.13
1 8.45 845 1.532 -10.238 0.412 -8.575 43.213 24.475 -1004.945 -119.922 -2669.911 -1.046 0.574 1.142 -0.14 0.63 -0.75 0.12
1 8.46 846 0.967 -9.955 0.680 -5.707 39.307 19.836 -1004.945 -119.922 -2669.911 -0.515 0.287 0.857 -0.13 0.64 -0.75 0.12
1 8.47 847 0.713 -9.955 0.852 -6.104 35.980 15.717 -1079.896 -44.971 -2594.959 -0.292 0.284 0.673 -0.13 0.64 -0.75 0.12
1 8.48 848 0.713 -10.238 1.039 -16.510 29.266 10.101 -1064.906 29.980 -2609.950 -0.318 0.563 0.473 -0.13 0.64 -0.75 0.12
1 8.49 849 0.814 -10.530 1.183 -19.196 22.644 8.118 -1064.906 29.980 -2609.950 -0.439 0.851 0.307 -0.13 0.64 -0.75 0.12
1 8.50 850 0.819 -10.817 1.154 -18.097 19.043 5.432 -989.955 0.000 -2609.950 -0.458 1.133 0.306 -0.13 0.64 -0.75 0.12
1 8.51 851 0.546 -10.592 0.723 -11.017 15.167 5.615 -914.854 29.980 -2459.897 -0.206 0.901 0.689 -0.12 0.64 -0.75 0.12
1 8.52 852 0.397 -10.329 0.618 -6.134 13.550 7.080 -1004.945 -14.990 -2549.989 -0.068 0.635 0.780 -0.12 0.64 -0.75 0.12
1 8.53 853 0.503 -10.185 0.599 -7.355 12.817 7.782 -1004.945 -14.990 -2549.989 -0.184 0.489 0.786 -0.12 0.64 -0.75 0.12
1 8.54 854 0.929 -10.032 0.340 -13.428 12.543 8.942 -824.913 119.922 -2669.911 -0.623 0.333 1.027 -0.12 0.64 -0.75 0.12
1 8.55 855 1.212 -10.300 0.000 -20.874 10.193 11.261 -734.971 0.000 -2609.950 -0.916 0.596 1.338 -0.12 0.65 -0.75 0.11
1 8.56 856 1.786 -10.468 -0.249 -25.665 13.977 16.235 -734.971 0.000 -2609.950 -1.503 0.758 1.545 -0.12 0.65 -0.74 0.11
1 8.57 857 2.193 -10.645 -0.795 -22.583 23.041 23.407 -899.864 14.990 -2549.989 -1.926 0.929 2.043 -0.12 0.65 -0.74 0.11
1 8.58 858 2.447 -10.453 -0.958 -17.975 26.825 29.846 -899.864 14.990 -2549.989 -2.209 0.731 2.167 -0.12 0.65 -0.74 0.11
1 8.59 859 2.485 -11.105 0.053 -10.407 33.936 33.997 -824.913 119.922 -2549.989 -2.338 1.374 1.103 -0.11 0.65 -0.74 0.11
1 8.60 860 1.379 -12.187 0.584 -13.977 37.781 27.985 -824.913 119.922 -2549.989 -1.286 2.454 0.557 -0.11 0.66 -0.74 0.11
1 8.61 861 -0.412 -13.274 1.111 -15.564 31.769 9.033 -1004.945 44.971 -2474.888 0.463 3.538 0.009 -0.1 0.66 -0.74 0.11
1 8.62 862 -2.026 -13.418 1.633 5.402 19.501 -16.296 -779.942 239.994 -2444.907 2.070 3.680 -0.530 -0.1 0.66 -0.74 0.11
1 8.63 863 -2.160 -10.961 2.753 73.944 9.522 -17.944 -779.942 239.994 -2444.907 2.231 1.227 -1.625 -0.1 0.66 -0.74 0.11
1 8.64 864 -1.954 -9.812 4.535 95.032 11.444 -10.712 -659.870 104.932 -2639.930 2.054 0.089 -3.311 -0.1 0.65 -0.74 0.11
1 8.65 865 -2.136 -9.443 5.579 70.801 16.480 -13.977 -659.870 104.932 -2639.930 2.254 -0.261 -4.215 -0.1 0.65 -0.75 0.11
1 8.66 866 -1.690 -8.409 4.865 22.186 14.984 -22.369 -749.961 89.941 -2549.989 1.850 -1.267 -3.320 -0.1 0.64 -0.75 0.1
1 8.67 867 -1.484 -7.949 4.717 25.086 17.395 -19.714 -749.961 89.941 -2549.989 1.660 -1.717 -3.112 -0.1 0.64 -0.76 0.1
1 8.68 868 -1.834 -7.825 4.142 31.189 23.102 -14.099 -764.952 0.000 -2534.999 2.020 -1.830 -2.470 -0.1 0.64 -0.76 0.1
1 8.69 869 -2.088 -7.743 3.591 21.088 18.951 -14.404 -824.913 14.990 -2669.911 2.275 -1.899 -1.852 -0.1 0.63 -0.76 0.1
1 8.70 870 -1.786 -8.457 3.491 -1.953 6.836 -17.181 -824.913 14.990 -2669.911 1.984 -1.180 -1.718 -0.1 0.63 -0.76 0.1
1 8.71 871 -0.766 -10.066 3.060 -28.778 3.601 -13.336 -824.913 44.971 -2624.940 0.973 0.430 -1.283 -0.1 0.63 -0.76 0.1
1 8.72 872 -0.287 -10.573 2.437 -21.423 5.737 -6.622 -824.913 44.971 -2624.940 0.505 0.933 -0.686 -0.1 0.63 -0.76 0.1
1 8.73 873 0.115 -10.635 2.275 15.564 5.737 1.160 -839.903 74.951 -2564.979 0.112 0.990 -0.556 -0.1 0.63 -0.76 0.1
1 8.74 874 0.048 -10.181 2.524 30.701 6.073 5.096 -839.903 74.951 -2564.979 0.176 0.541 -0.774 -0.1 0.63 -0.76 0.1
1 8.75 875 -0.254 -9.812 2.437 25.696 7.446 10.162 -749.961 -14.990 -2849.943 0.466 0.181 -0.637 -0.09 0.63 -0.76 0.1
1 8.76 876 -0.508 -9.352 2.093 9.857 3.906 12.390 -584.919 0.000 -2714.881 0.699 -0.272 -0.255 -0.09 0.63 -0.76 0.1
1 8.77 877 -0.895 -9.252 2.035 1.434 2.625 14.099 -584.919 0.000 -2714.881 1.064 -0.370 -0.183 -0.09 0.63 -0.76 0.1
1 8.78 878 -1.307 -9.663 1.690 2.533 1.007 20.355 -824.913 14.990 -2774.992 1.446 0.042 0.166 -0.09 0.63 -0.76 0.1
1 8.79 879 -1.566 -9.606 1.671 9.338 -2.106 22.308 -824.913 14.990 -2774.992 1.667 -0.015 0.189 -0.09 0.63 -0.76 0.1
1 8.80 880 -1.580 -9.247 1.633 23.529 -3.815 20.935 -690.000 -74.951 -2609.950 1.596 -0.368 0.262 -0.09 0.63 -0.77 0.1
1 8.81 881 -1.638 -9.084 1.695 25.971 -4.303 19.989 -690.000 -74.951 -2609.950 1.614 -0.524 0.235 -0.09 0.63 -0.77 0.11
1 8.82 882 -1.681 -8.691 1.676 25.910 -7.904 17.151 -599.909 -44.971 -2594.959 1.621 -0.909 0.293 -0.08 0.63 -0.77 0.11
1 8.83 883 -1.657 -8.581 1.427 20.538 -10.315 15.564 -674.860 -44.971 -2669.911 1.564 -1.011 0.579 -0.08 0.63 -0.77 0.11
1 8.84 884 -1.834 -8.615 1.350 15.839 -13.001 13.275 -674.860 -44.971 -2669.911 1.710 -0.971 0.683 -0.08 0.62 -0.77 0.11
1 8.85 885 -1.499 -8.754 1.001 11.383 -17.395 9.338 -734.971 -179.883 -2684.901 1.349 -0.828 1.052 -0.08 0.62 -0.77 0.11
1 8.86 886 -1.513 -8.892 0.924 11.627 -19.745 6.714 -734.971 -179.883 -2684.901 1.344 -0.686 1.143 -0.08 0.62 -0.77 0.11
1 8.87 887 -1.389 -8.926 0.905 12.848 -22.308 5.554 -764.952 -29.980 -2789.982 1.205 -0.649 1.174 -0.08 0.62 -0.77 0.12
1 8.88 888 -1.312 -8.868 0.469 11.047 -25.086 4.028 -659.870 -179.883 -2639.930 1.112 -0.701 1.634 -0.08 0.62 -0.77 0.12
1 8.89 889 -1.250 -8.950 0.694 7.599 -27.741 3.723 -899.864 -119.922 -2699.891 1.044 -0.618 1.415 -0.08 0.62 -0.77 0.12
1 8.90 890 -1.398 -8.945 0.125 4.364 -31.372 2.594 -629.890 -89.941 -2774.992 1.190 -0.622 1.988 -0.09 0.62 -0.77 0.12
1 8.91 891 -1.408 -8.868 -0.077 0.366 -38.544 -1.221 -629.890 -89.941 -2774.992 1.200 -0.700 2.184 -0.09 0.62 -0.77 0.12
1 8.92 892 -1.144 -9.467 0.062 -7.629 -46.021 -3.265 -854.893 -119.922 -2729.872 0.944 -0.105 2.032 -0.09 0.62 -0.77 0.13
1 8.93 893 -1.092 -9.678 0.148 -8.331 -46.906 -1.770 -854.893 -119.922 -2729.872 0.903 0.101 1.924 -0.09 0.62 -0.77 0.13
1 8.94 894 -0.752 -9.563 0.043 -0.519 -48.035 -0.275 -690.000 -179.883 -2714.881 0.575 -0.019 2.005 -0.09 0.62 -0.77 0.13
1 8.95 895 -0.608 -9.261 0.670 3.540 -49.194 1.617 -869.883 -104.932 -2819.963 0.451 -0.326 1.356 -0.1 0.62 -0.77 0.13
1 8.96 896 -0.306 -9.003 0.814 -3.998 -51.331 2.441 -944.984 -224.854 -2714.881 0.158 -0.586 1.207 -0.1 0.62 -0.76 0.14
1 8.97 897 -0.120 -9.007 0.646 -7.477 -58.869 3.387 -794.932 -104.932 -2684.901 -0.017 -0.584 1.361 -0.1 0.62 -0.76 0.14
1 8.98 898 0.493 -8.634 1.063 -13.916 -60.486 1.495 -794.932 -104.932 -2684.901 -0.615 -0.961 0.926 -0.11 0.62 -0.76 0.14
1 8.99 899 0.608 -8.481 0.963 -23.132 -44.953 1.282 -1004.945 89.941 -2699.891 -0.713 -1.120 1.004 -0.11 0.62 -0.76 0.14
1 9.00 900 0.196 -8.624 0.895 -22.583 -40.100 0.824 -1004.945 89.941 -2699.891 -0.289 -0.983 1.037 -0.11 0.62 -0.76 0.15
1 9.01 901 -0.192 -8.399 0.661 -23.743 -39.490 0.854 -899.864 -284.964 -2699.891 0.110 -1.214 1.240 -0.12 0.62 -0.76 0.15
1 9.02 902 -0.733 -8.030 0.263 -29.572 -29.968 -9.094 -1079.896 -44.971 -2729.872 0.662 -1.590 1.605 -0.12 0.62 -0.76 0.15
1 9.03 903 -0.977 -7.700 -0.311 -34.332 -35.431 -17.151 -1064.906 -74.951 -2759.852 0.956 -1.937 2.092 -0.12 0.63 -0.75 0.15
1 9.04 904 -1.274 -7.523 -0.455 -40.314 -40.253 -24.231 -929.994 -14.990 -2669.911 1.291 -2.123 2.183 -0.13 0.63 -0.75 0.15
1 9.05 905 -1.456 -8.399 1.451 -38.941 -36.163 -33.630 -929.994 -14.990 -2669.911 1.524 -1.257 0.218 -0.13 0.63 -0.75 0.15
1 9.06 906 0.441 -13.604 4.477 -39.917 -20.081 -25.116 -1169.988 29.980 -2534.999 -0.312 3.939 -2.861 -0.14 0.63 -0.75 0.15
1 9.07 907 6.292 -19.169 5.607 -126.252 -13.428 64.636 -1169.988 29.980 -2534.999 -6.142 9.490 -4.076 -0.14 0.63 -0.75 0.15
1 9.08 908 4.156 -14.610 1.719 -32.898 15.533 54.718 -1139.857 29.980 -2504.868 -4.079 4.904 -0.366 -0.14 0.64 -0.74 0.15
1 9.09 909 -0.431 -10.406 2.318 85.663 10.468 7.355 -1259.929 44.971 -2414.927 0.416 0.687 -1.060 -0.13 0.65 -0.74 0.15
1 9.10 910 -5.923 -9.625 4.089 52.185 13.519 -19.043 -1094.887 149.902 -2429.917 5.887 -0.058 -2.583 -0.13 0.64 -0.74 0.16
1 9.11 911 -6.101 -10.774 4.276 -61.920 2.563 -12.848 -1079.896 119.922 -2444.907 6.089 1.097 -2.733 -0.13 0.64 -0.74 0.15
1 9.12 912 -3.386 -11.550 2.773 -121.216 -8.423 -9.186 -1079.896 119.922 -2444.907 3.392 1.854 -1.352 -0.13 0.64 -0.74 0.15
1 9.13 913 -0.943 -12.278 1.844 -91.461 -2.228 -10.162 -1184.978 89.941 -2519.858 0.966 2.557 -0.598 -0.14 0.65 -0.74 0.15
1 9.14 914 -0.661 -12.896 1.599 -30.121 3.754 -11.353 -1184.978 89.941 -2519.858 0.702 3.162 -0.466 -0.14 0.65 -0.73 0.15
1 9.15 915 -1.810 -11.320 2.677 7.019 -3.479 -1.526 -1199.968 0.000 -2384.946 1.866 1.583 -1.571 -0.14 0.65 -0.73 0.15
1 9.16 916 -1.547 -10.257 2.864 -7.294 -7.904 -2.747 -1064.906 224.854 -2384.946 1.609 0.521 -1.748 -0.14 0.65 -0.73 0.15
1 9.17 917 0.589 -10.334 2.940 -31.281 -13.916 -4.181 -1004.945 284.964 -2339.976 -0.519 0.595 -1.848 -0.14 0.65 -0.73 0.15
1 9.18 918 1.480 -10.233 2.816 -23.621 -7.751 7.507 -1199.968 104.932 -2174.933 -1.403 0.491 -1.755 -0.14 0.65 -0.73 0.15
1 9.19 919 1.729 -9.711 2.624 0.214 -0.946 18.005 -1199.968 104.932 -2174.933 -1.656 -0.032 -1.577 -0.14 0.65 -0.73 0.15
1 9.20 920 1.710 -9.290 2.935 20.752 -5.280 20.264 -1109.877 119.922 -2294.855 -1.652 -0.451 -1.866 -0.14 0.65 -0.73 0.15
1 9.21 921 1.743 -8.878 3.323 27.741 -14.648 17.548 -1109.877 119.922 -2294.855 -1.701 -0.858 -2.204 -0.14 0.65 -0.73 0.15
1 9.22 922 2.006 -7.877 3.424 24.780 -22.766 13.275 -1139.857 179.883 -2324.985 -1.973 -1.852 -2.247 -0.14 0.65 -0.73 0.16
1 9.23 923 1.858 -7.595 3.563 23.682 -26.398 12.604 -1184.978 89.941 -2264.875 -1.825 -2.127 -2.330 -0.14 0.65 -0.73 0.16
1 9.24 924 1.341 -7.643 3.654 13.062 -31.403 9.918 -1184.978 89.941 -2219.904 -1.332 -2.071 -2.352 -0.14 0.64 -0.73 0.16
1 9.25 925 1.288 -7.858 3.491 4.425 -31.036 7.538 -1094.887 149.902 -2324.985 -1.285 -1.853 -2.175 -0.14 0.64 -0.73 0.16
1 9.26 926 1.183 -8.983 3.084 -20.508 -28.473 -4.272 -1094.887 149.902 -2324.985 -1.172 -0.729 -1.773 -0.15 0.64 -0.73 0.17
1 9.27 927 1.226 -9.941 2.729 -21.973 -20.599 -12.421 -1244.939 104.932 -2354.966 -1.191 0.227 -1.435 -0.15 0.64 -0.73 0.17
1 9.28 928 1.417 -10.415 2.083 -9.277 -9.308 -16.998 -1244.939 104.932 -2354.966 -1.348 0.699 -0.805 -0.15 0.64 -0.73 0.17
1 9.29 929 1.652 -10.319 2.064 21.240 -0.275 -20.813 -1304.900 239.994 -2294.855 -1.549 0.603 -0.789 -0.15 0.64 -0.73 0.17
1 9.30 930 1.757 -9.850 2.050 28.351 3.235 -24.109 -1094.887 149.902 -2384.946 -1.618 0.138 -0.748 -0.15 0.64 -0.73 0.16
1 9.31 931 1.872 -9.601 2.236 22.308 4.028 -27.496 -1094.887 149.902 -2384.946 -1.687 -0.104 -0.887 -0.15 0.64 -0.74 0.16
1 9.32 932 1.681 -9.587 2.050 8.057 9.155 -29.480 -1259.929 119.922 -2339.976 -1.388 -0.105 -0.628 -0.16 0.63 -0.74 0.16
1 9.33 933 1.331 -9.510 1.801 3.113 10.590 -28.656 -1259.929 119.922 -2339.976 -0.986 -0.178 -0.363 -0.16 0.63 -0.74 0.16
1 9.34 934 1.178 -9.275 1.585 6.165 13.672 -28.442 -1349.871 104.932 -2204.914 -0.784 -0.409 -0.138 -0.16 0.63 -0.74 0.15
1 9.35 935 1.212 -9.108 1.465 11.139 16.022 -27.405 -1349.871 104.932 -2204.914 -0.771 -0.573 -0.004 -0.16 0.63 -0.74 0.15
1 9.36 936 1.293 -9.041 1.279 7.141 18.402 -26.398 -1184.978 164.893 -2444.907 -0.809 -0.634 0.203 -0.16 0.63 -0.74 0.15
1 9.37 937 1.144 -8.883 1.168 4.547 22.003 -23.834 -1409.981 14.990 -2264.875 -0.618 -0.788 0.328 -0.16 0.63 -0.74 0.15
1 9.38 938 1.302 -8.916 1.125 5.005 22.827 -21.851 -1409.981 14.990 -2264.875 -0.738 -0.751 0.380 -0.16 0.63 -0.75 0.15
1 9.39 939 1.432 -9.070 0.886 2.625 24.689 -18.890 -1244.939 149.902 -2279.865 -0.801 -0.591 0.636 -0.16 0.63 -0.75 0.14
1 9.40 940 1.212 -9.137 0.991 3.357 23.926 -16.113 -1244.939 149.902 -2279.865 -0.553 -0.522 0.534 -0.16 0.63 -0.75 0.14
1 9.41 941 1.235 -9.132 0.977 3.418 22.461 -13.916 -1424.972 -29.980 -2204.914 -0.554 -0.524 0.553 -0.16 0.63 -0.75 0.14
1 9.42 942 1.331 -9.228 0.718 1.404 22.308 -12.024 -1424.972 -29.980 -2204.914 -0.629 -0.426 0.816 -0.16 0.63 -0.75 0.13
1 9.43 943 1.322 -9.237 0.737 -0.854 21.027 -9.216 -1334.880 44.971 -2474.888 -0.602 -0.415 0.796 -0.16 0.63 -0.75 0.13
1 9.44 944 1.470 -9.146 0.661 2.411 20.691 -3.662 -1349.871 -104.932 -2249.884 -0.738 -0.506 0.870 -0.16 0.63 -0.75 0.13
1 9.45 945 1.532 -9.242 0.742 1.678 20.416 -2.197 -1349.871 -104.932 -2249.884 -0.793 -0.410 0.788 -0.16 0.63 -0.75 0.13
1 9.46 946 1.532 -9.223 0.814 0.580 21.973 0.000 -1364.861 119.922 -2189.923 -0.787 -0.428 0.718 -0.16 0.63 -0.75 0.13
1 9.47 947 1.633 -9.242 0.627 0.488 21.118 4.547 -1319.890 0.000 -2429.917 -0.886 -0.409 0.903 -0.16 0.63 -0.75 0.13
1 9.48 948 1.470 -9.122 0.833 2.258 22.797 8.301 -1274.919 0.000 -2279.865 -0.729 -0.529 0.696 -0.16 0.63 -0.75 0.13
1 9.49 949 1.542 -8.983 0.967 2.106 24.841 12.116 -1274.919 0.000 -2279.865 -0.813 -0.669 0.565 -0.16 0.63 -0.75 0.13
1 9.50 950 1.523 -8.744 0.996 1.648 27.161 15.808 -1364.861 -44.971 -2444.907 -0.811 -0.909 0.540 -0.15 0.63 -0.75 0.13
1 9.51 951 1.609 -8.720 0.905 -4.913 32.227 20.325 -1334.880 -89.941 -2474.888 -0.920 -0.934 0.633 -0.15 0.63 -0.75 0.13
1 9.52 952 1.609 -8.878 0.843 -12.024 35.065 23.712 -1334.880 -89.941 -2474.888 -0.952 -0.779 0.692 -0.15 0.63 -0.75 0.13
1 9.53 953 1.461 -9.122 0.555 -20.630 36.713 26.733 -1244.939 104.932 -2384.946 -0.837 -0.539 0.965 -0.15 0.63 -0.75 0.12
1 9.54 954 1.202 -9.668 0.350 -25.238 37.781 28.015 -1199.968 -149.902 -2324.985 -0.658 -0.008 1.105 -0.14 0.64 -0.75 0.12
1 9.55 955 1.322 -9.927 0.096 -21.088 39.154 29.907 -1184.978 -14.990 -2339.976 -0.822 0.242 1.319 -0.14 0.64 -0.75 0.12
1 9.56 956 1.518 -9.975 0.393 -15.381 39.551 32.837 -1184.978 -14.990 -2339.976 -1.065 0.283 0.988 -0.14 0.64 -0.75 0.12
1 9.57 957 1.595 -9.979 0.412 -12.329 42.938 32.349 -1139.857 0.000 -2429.917 -1.191 0.282 0.942 -0.13 0.64 -0.74 0.12
1 9.58 958 1.499 -9.769 0.527 -10.834 43.976 29.358 -1154.998 209.863 -2369.956 -1.141 0.066 0.806 -0.13 0.64 -0.74 0.12
1 9.59 959 1.030 -9.951 0.872 -15.808 40.009 23.926 -1154.998 209.863 -2369.956 -0.713 0.244 0.441 -0.13 0.65 -0.74 0.12
1 9.60 960 0.503 -10.214 0.862 -19.989 34.546 19.196 -1079.896 14.990 -2414.927 -0.223 0.503 0.427 -0.12 0.65 -0.74 0.12
1 9.61 961 0.393 -10.669 0.996 -22.156 20.691 11.322 -974.965 119.922 -2294.855 -0.169 0.949 0.231 -0.12 0.65 -0.74 0.12
1 9.62 962 0.134 -10.851 0.982 -20.172 13.611 7.233 -839.903 29.980 -2279.865 0.073 1.126 0.212 -0.12 0.65 -0.74 0.12
1 9.63 963 -0.225 -10.449 0.819 -13.306 8.423 4.944 -839.903 29.980 -2279.865 0.422 0.720 0.348 -0.12 0.65 -0.74 0.12
1 9.64 964 -0.115 -10.200 0.800 -7.355 6.775 2.747 -914.854 74.951 -2384.946 0.302 0.469 0.347 -0.12 0.65 -0.74 0.12
1 9.65 965 0.273 -9.946 0.393 -7.355 10.803 3.784 -929.994 164.893 -2339.976 -0.093 0.213 0.742 -0.12 0.65 -0.74 0.12
1 9.66 966 0.814 -10.094 0.034 -13.702 14.496 4.334 -929.994 164.893 -2339.976 -0.641 0.360 1.086 -0.12 0.66 -0.74 0.12
1 9.67 967 0.709 -11.239 0.584 -19.531 16.571 3.265 -989.955 104.932 -2384.946 -0.541 1.501 0.509 -0.11 0.66 -0.74 0.12
1 9.68 968 -0.910 -14.303 1.125 -38.300 20.905 -15.076 -944.984 29.980 -2279.865 1.077 4.558 -0.105 -0.11 0.66 -0.73 0.11
1 9.69 969 -1.547 -15.003 0.402 -39.459 18.799 -25.848 -944.984 104.932 -2249.884 1.743 5.252 0.562 -0.11 0.66 -0.73 0.11
1 9.70 970 -1.144 -14.284 -0.632 8.209 9.308 -32.776 -944.984 104.932 -2249.884 1.393 4.532 1.562 -0.12 0.66 -0.73 0.11
1 9.71 971 0.326 -12.627 0.043 46.875 6.317 -7.782 -929.994 119.922 -2264.875 -0.036 2.879 0.918 -0.12 0.66 -0.73 0.11
1 9.72 972 2.059 -10.875 1.269 50.263 15.411 13.275 -854.893 14.990 -2294.855 -1.767 1.134 -0.232 -0.12 0.66 -0.74 0.11
1 9.73 973 3.697 -10.722 2.926 18.005 26.795 24.048 -854.893 14.990 -2294.855 -3.431 0.988 -1.819 -0.11 0.66 -0.74 0.11
1 9.74 974 3.227 -11.794 3.486 -17.639 24.017 13.947 -839.903 224.854 -2324.985 -3.001 2.064 -2.340 -0.11 0.66 -0.74 0.11
1 9.75 975 1.489 -11.641 2.624 -25.360 24.994 -3.052 -899.864 44.971 -2294.855 -1.292 1.909 -1.489 -0.11 0.66 -0.74 0.11
1 9.76 976 -0.182 -9.898 2.672 42.664 23.895 -5.798 -839.903 179.883 -2249.884 0.382 0.163 -1.566 -0.11 0.66 -0.74 0.1
1 9.77 977 -0.709 -9.065 3.702 66.651 29.877 -3.815 -839.903 179.883 -2249.884 0.912 -0.660 -2.509 -0.11 0.65 -0.74 0.1
1 9.78 978 -1.724 -8.117 4.209 60.150 31.830 -6.592 -839.903 149.902 -2279.865 1.922 -1.593 -2.899 -0.1 0.65 -0.75 0.1
1 9.79 979 -2.926 -7.327 4.070 48.309 28.778 -14.313 -764.952 29.980 -2354.966 3.119 -2.368 -2.651 -0.1 0.65 -0.75 0.1
1 9.80 980 -4.080 -6.996 3.481 30.701 19.745 -26.917 -764.952 29.980 -2354.966 4.271 -2.685 -1.971 -0.1 0.64 -0.75 0.1
1 9.81 981 -3.328 -7.523 3.405 15.808 10.956 -31.342 -914.854 -104.932 -2429.917 3.539 -2.148 -1.833 -0.1 0.64 -0.76 0.1
1 9.82 982 -1.848 -8.979 3.414 -7.416 5.219 -27.374 -839.903 0.000 -2324.985 2.102 -0.686 -1.811 -0.1 0.64 -0.76 0.1
1 9.83 983 0.311 -10.659 2.744 -27.618 6.897 -7.904 -839.903 -74.951 -2384.946 -0.024 0.995 -1.144 -0.1 0.64 -0.76 0.09
1 9.84 984 0.599 -10.683 2.351 -10.132 9.918 5.829 -839.903 -74.951 -2384.946 -0.307 1.014 -0.781 -0.1 0.64 -0.76 0.09
1 9.85 985 0.302 -10.042 2.231 23.407 10.559 13.580 -824.913 -14.990 -2369.956 -0.024 0.372 -0.663 -0.1 0.64 -0.76 0.09
1 9.86 986 0.000 -9.180 2.552 43.396 10.345 15.106 -794.932 -149.902 -2384.946 0.256 -0.482 -0.934 -0.1 0.64 -0.76 0.09
1 9.87 987 -0.354 -8.878 2.888 33.936 9.460 17.456 -794.932 -149.902 -2384.946 0.584 -0.772 -1.198 -0.1 0.64 -0.76 0.1
1 9.88 988 -0.694 -8.878 2.753 -5.249 5.463 20.111 -1004.945 14.990 -2294.855 0.893 -0.764 -1.013 -0.09 0.63 -0.76 0.1
1 9.89 989 -1.087 -9.414 2.179 -17.273 3.693 21.301 -989.955 -29.980 -2429.917 1.249 -0.226 -0.427 -0.09 0.63 -0.76 0.1
1 9.90 990 -2.011 -9.702 1.686 -10.590 0.671 21.607 -989.955 -29.980 -2429.917 2.136 0.058 0.052 -0.09 0.63 -0.76 0.1
1 9.91 991 -2.318 -9.721 1.566 12.543 -4.517 17.822 -839.903 -179.883 -2429.917 2.356 0.074 0.159 -0.09 0.64 -0.76 0.1
