COL1	TIME	ACC_X	ACC_Y	ACC_Z	GYR_X	GYR_Y	GYR_Z	MAG_X	MAG_Y	MAG_Z	LACC_X	LACC_Y	LACC_Z	QUAT_X	QUAT_Y	QUAT_Z	QUAT_W
1 0.00 0 -0.283 -8.835 5.311 -4.608 -9.338 -2.289 -54.265 1861.337 -4243.286 0.502 0.530 -0.113 -0 -0.48 0.87 0.03
1 0.01 1 -0.297 -8.663 5.315 -4.944 -8.148 -1.343 50.667 2011.390 -4033.272 0.522 0.354 -0.123 -0 -0.48 0.87 0.03
1 0.02 2 -0.354 -8.533 5.320 -6.226 -7.629 -0.549 -174.187 1921.298 -4048.413 0.585 0.222 -0.133 -0 -0.49 0.87 0.03
1 0.03 3 -0.455 -8.639 5.344 -6.287 -8.453 -0.214 -174.336 1921.448 -4048.263 0.689 0.323 -0.164 -0 -0.49 0.87 0.03
1 0.04 4 -0.359 -8.466 5.243 -4.944 -11.292 -1.068 20.537 2056.510 -4033.123 0.600 0.143 -0.076 -0 -0.49 0.87 0.03
1 0.05 5 -0.350 -8.399 5.220 -4.913 -12.665 -1.617 20.537 2056.510 -4033.123 0.598 0.073 -0.057 -0 -0.49 0.87 0.03
1 0.06 6 -0.134 -8.414 5.387 -5.829 -13.092 -1.678 -54.265 1861.487 -4168.185 0.391 0.084 -0.230 -0 -0.49 0.87 0.03
1 0.07 7 0.144 -8.380 5.488 -6.439 -12.146 -0.732 155.599 1921.448 -3973.162 0.123 0.047 -0.337 0 -0.49 0.87 0.03
1 0.08 8 0.239 -8.323 5.311 -7.660 -9.857 0.763 95.638 1936.438 -3913.201 0.035 -0.014 -0.166 0 -0.49 0.87 0.03
1 0.09 9 0.302 -8.270 5.502 -7.507 -8.789 1.312 -129.216 2011.390 -3958.171 -0.020 -0.071 -0.365 0 -0.49 0.87 0.03
1 0.10 10 0.436 -8.165 5.339 -8.209 -9.064 1.312 -129.216 2011.390 -3958.171 -0.148 -0.181 -0.209 0 -0.49 0.87 0.03
1 0.11 11 0.302 -8.265 5.344 -9.491 -9.430 0.580 80.647 2071.500 -4123.214 -0.008 -0.084 -0.221 0 -0.49 0.87 0.03
1 0.12 12 0.383 -8.227 5.320 -13.001 -8.759 -0.122 80.647 2071.500 -4123.214 -0.075 -0.135 -0.219 0 -0.49 0.87 0.03
1 0.13 13 0.359 -8.375 5.272 -12.878 -8.087 -0.275 -69.255 1876.478 -4123.214 -0.043 0.005 -0.186 0 -0.49 0.87 0.03
1 0.14 14 0.431 -8.481 5.320 -11.688 -7.660 1.007 -39.274 1996.399 -4078.243 -0.108 0.102 -0.248 0 -0.49 0.87 0.02
1 0.15 15 0.474 -8.519 5.411 -8.850 -6.378 0.702 -39.274 1996.399 -4078.243 -0.145 0.133 -0.350 0.01 -0.49 0.87 0.02
1 0.16 16 0.479 -8.332 5.291 -6.012 -5.280 -0.305 -84.245 1966.419 -4093.233 -0.145 -0.058 -0.238 0.01 -0.49 0.87 0.02
1 0.17 17 0.541 -8.198 5.153 -5.219 -7.599 -0.214 -84.245 1966.419 -4093.233 -0.202 -0.195 -0.105 0.01 -0.49 0.87 0.02
1 0.18 18 0.608 -8.208 5.277 -7.050 -8.789 -0.458 -69.255 2071.500 -3973.162 -0.262 -0.188 -0.234 0.01 -0.49 0.87 0.02
1 0.19 19 0.666 -8.332 5.545 -10.925 -9.613 -1.801 -69.255 2071.500 -3973.162 -0.299 -0.072 -0.517 0.01 -0.49 0.87 0.02
1 0.20 20 0.704 -8.763 5.756 -11.414 -9.888 -2.319 -69.255 1876.478 -4078.243 -0.325 0.353 -0.738 0.01 -0.49 0.87 0.02
1 0.21 21 0.670 -8.907 5.703 -8.484 -11.231 -2.533 -129.216 1966.419 -3988.152 -0.278 0.491 -0.696 0.01 -0.49 0.87 0.02
1 0.22 22 0.570 -8.892 5.646 -2.075 -14.587 -2.533 -129.216 1966.419 -3988.152 -0.163 0.474 -0.645 0.01 -0.49 0.87 0.02
1 0.23 23 0.527 -8.892 5.526 6.470 -19.684 -1.251 -39.274 2071.500 -4048.263 -0.102 0.475 -0.525 0.01 -0.49 0.87 0.02
1 0.24 24 0.584 -8.739 5.440 7.477 -22.064 1.038 -39.274 2071.500 -4048.263 -0.142 0.328 -0.431 0.01 -0.49 0.87 0.02
1 0.25 25 0.536 -8.533 5.560 5.402 -23.377 4.120 -249.288 1996.399 -3898.210 -0.077 0.129 -0.539 0.01 -0.49 0.87 0.02
1 0.26 26 0.555 -8.380 5.330 2.045 -24.506 6.104 -249.288 1996.399 -3898.210 -0.081 -0.017 -0.300 0.02 -0.49 0.87 0.02
1 0.27 27 0.776 -8.691 5.387 -0.366 -28.442 7.996 -159.196 2161.442 -3958.171 -0.276 0.299 -0.351 0.02 -0.49 0.87 0.02
1 0.28 28 0.891 -8.777 5.344 2.563 -32.654 10.620 -174.336 2101.481 -3943.181 -0.377 0.386 -0.308 0.02 -0.49 0.87 0.02
1 0.29 29 1.202 -8.830 5.296 5.554 -36.286 11.688 -174.336 2101.481 -3943.181 -0.674 0.442 -0.257 0.02 -0.49 0.87 0.01
1 0.30 30 1.432 -8.682 5.425 6.928 -36.530 13.336 -384.200 1966.419 -3988.152 -0.887 0.298 -0.380 0.02 -0.49 0.87 0.01
1 0.31 31 1.729 -8.519 5.507 8.850 -33.997 15.533 -384.200 1966.419 -3988.152 -1.167 0.141 -0.454 0.03 -0.49 0.87 0.01
1 0.32 32 1.595 -8.346 5.311 10.284 -33.081 16.174 -324.239 1951.429 -4078.243 -1.018 -0.025 -0.248 0.03 -0.49 0.87 0.01
1 0.33 33 1.662 -8.433 5.200 10.529 -32.806 15.961 -324.239 1951.429 -4078.243 -1.071 0.070 -0.126 0.03 -0.49 0.87 0.01
1 0.34 34 1.891 -8.227 4.999 8.820 -35.095 14.618 -279.268 2056.510 -4093.233 -1.272 -0.119 0.100 0.04 -0.49 0.87 0
1 0.35 35 2.227 -8.222 4.980 7.233 -34.393 15.442 -294.258 2101.481 -4123.214 -1.590 -0.118 0.127 -0.04 0.49 -0.87 0
1 0.36 36 2.595 -8.097 5.014 4.700 -31.220 14.404 -294.258 2101.481 -4123.214 -1.940 -0.237 0.099 -0.04 0.49 -0.87 0
1 0.37 37 2.768 -8.160 4.856 1.770 -24.597 13.092 -234.297 1936.438 -4033.123 -2.093 -0.172 0.260 -0.04 0.49 -0.87 0
1 0.38 38 2.504 -8.294 4.851 -0.305 -15.991 9.888 -234.297 1936.438 -4033.123 -1.811 -0.037 0.264 -0.04 0.49 -0.87 0
1 0.39 39 2.299 -8.361 4.731 -0.793 -14.069 5.920 -309.249 1966.419 -3883.220 -1.590 0.030 0.381 -0.04 0.49 -0.87 0.01
1 0.40 40 2.299 -8.342 4.559 -0.610 -14.862 2.930 -309.249 1966.419 -3883.220 -1.574 0.010 0.550 -0.05 0.49 -0.87 0.01
1 0.41 41 2.332 -8.370 4.410 -0.916 -14.252 -0.916 -294.258 1951.429 -4003.142 -1.566 0.037 0.690 -0.05 0.49 -0.87 0.01
1 0.42 42 2.299 -8.308 4.458 -2.167 -10.834 -3.540 -399.340 2026.530 -4048.263 -1.507 -0.026 0.636 -0.05 0.49 -0.87 0.01
1 0.43 43 2.375 -8.351 4.702 -4.852 -6.287 -6.195 -399.340 2026.530 -4048.263 -1.558 0.015 0.385 -0.05 0.49 -0.87 0.01
1 0.44 44 2.174 -8.437 4.626 -6.287 -3.204 -6.805 -444.311 1951.429 -4003.142 -1.332 0.099 0.453 -0.05 0.49 -0.87 0.01
1 0.45 45 2.059 -8.404 4.702 -6.317 -0.946 -6.989 -444.311 1951.429 -4003.142 -1.195 0.061 0.366 -0.05 0.49 -0.87 0
1 0.46 46 1.872 -8.442 4.635 -3.387 1.129 -5.035 -324.239 2071.500 -4048.263 -0.989 0.096 0.424 -0.05 0.49 -0.87 0
1 0.47 47 1.863 -8.394 4.741 -1.404 1.862 -3.845 -324.239 2071.500 -4048.263 -0.965 0.045 0.312 -0.05 0.49 -0.87 0
1 0.48 48 1.877 -8.260 4.731 -2.197 3.723 -1.587 -399.340 2071.500 -3973.162 -0.959 -0.090 0.316 -0.05 0.49 -0.87 0
1 0.49 49 1.805 -8.299 4.707 -5.676 6.134 -1.465 -474.291 1921.448 -4003.142 -0.881 -0.053 0.336 -0.05 0.49 -0.87 0
1 0.50 50 1.824 -8.356 4.846 -7.874 9.277 -0.366 -474.291 1921.448 -4003.142 -0.896 0.000 0.189 0.05 -0.49 0.87 0
1 0.51 51 1.772 -8.567 4.827 -7.294 10.742 0.153 -414.330 2056.510 -4168.185 -0.843 0.205 0.199 0.05 -0.49 0.87 0
1 0.52 52 1.681 -8.720 4.980 0.549 12.543 1.831 -354.219 1891.468 -4063.253 -0.753 0.354 0.039 0.05 -0.49 0.87 0
1 0.53 53 1.642 -8.629 5.277 4.517 12.909 3.723 -384.200 2056.510 -4243.136 -0.719 0.263 -0.258 0.05 -0.49 0.87 0
1 0.54 54 1.700 -8.538 5.186 6.348 12.817 6.683 -384.200 2056.510 -4243.136 -0.784 0.174 -0.161 0.05 -0.49 0.87 0
1 0.55 55 1.528 -8.519 5.354 5.371 14.099 8.820 -579.073 1846.197 -4003.442 -0.623 0.160 -0.318 0.05 -0.49 0.87 0
1 0.56 56 1.585 -8.394 5.435 0.610 16.022 10.925 -309.099 2011.240 -4063.553 -0.716 0.044 -0.380 0.05 -0.49 0.87 0
1 0.57 57 1.417 -8.505 5.765 -2.808 18.036 12.787 -309.099 2011.240 -4063.553 -0.571 0.155 -0.706 0.05 -0.49 0.87 0
1 0.58 58 1.164 -8.758 5.837 -5.005 18.616 12.299 -489.131 2131.162 -3988.452 -0.342 0.407 -0.776 0.05 -0.49 0.87 0
1 0.59 59 1.087 -8.811 5.832 -5.280 17.822 11.444 -384.050 2011.240 -4063.553 -0.292 0.457 -0.772 0.04 -0.49 0.87 0
1 0.60 60 0.781 -8.816 5.809 -1.801 12.726 8.545 -414.180 1891.168 -4138.504 -0.010 0.459 -0.748 0.04 -0.49 0.87 0
1 0.61 61 0.651 -8.787 5.761 1.099 8.484 7.355 -414.180 1891.168 -4138.504 0.097 0.429 -0.699 0.04 -0.49 0.87 0
1 0.62 62 0.666 -8.538 5.636 2.045 6.042 5.188 -249.138 1951.279 -3898.510 0.066 0.182 -0.569 0.04 -0.49 0.87 0
1 0.63 63 0.804 -8.375 5.502 1.312 6.531 3.540 -249.138 1921.148 -4048.562 -0.096 0.026 -0.420 0.04 -0.49 0.87 0
1 0.64 64 1.149 -8.289 5.507 -0.671 7.935 3.082 -249.138 1921.148 -4048.562 -0.450 -0.057 -0.418 0.04 -0.49 0.87 0
1 0.65 65 1.293 -8.366 5.555 -1.190 8.728 2.014 -249.138 2071.201 -4078.543 -0.600 0.021 -0.463 0.04 -0.49 0.87 0
1 0.66 66 1.389 -8.160 5.430 0.427 9.125 1.465 -294.108 2101.181 -4078.543 -0.701 -0.183 -0.335 0.04 -0.49 0.87 0.01
1 0.67 67 1.652 -8.030 5.382 6.042 12.421 -2.380 -324.089 2026.230 -4078.543 -0.967 -0.309 -0.281 0.04 -0.49 0.87 0.01
1 0.68 68 1.676 -8.011 5.253 7.568 15.015 -4.303 -324.089 2026.230 -4078.543 -0.991 -0.322 -0.141 0.04 -0.49 0.87 0.01
1 0.69 69 1.446 -7.853 5.334 7.904 18.524 -5.890 -294.108 1996.250 -4048.562 -0.759 -0.471 -0.209 0.04 -0.49 0.87 0.01
1 0.70 70 1.135 -7.863 5.473 3.540 23.682 -6.958 -219.157 1996.250 -4123.514 -0.450 -0.444 -0.318 0.03 -0.49 0.87 0.01
1 0.71 71 0.857 -7.959 5.459 -0.702 25.971 -9.369 -219.157 1996.250 -4123.514 -0.177 -0.342 -0.294 0.03 -0.49 0.87 0.01
1 0.72 72 0.723 -8.160 5.392 -2.655 25.360 -11.231 -219.157 1951.279 -4048.562 -0.049 -0.138 -0.222 0.03 -0.49 0.87 0.01
1 0.73 73 0.661 -8.452 5.358 -2.563 25.330 -14.648 -324.089 1951.279 -4003.442 0.010 0.155 -0.186 0.03 -0.48 0.87 0.02
1 0.74 74 0.455 -8.581 5.421 0.336 26.886 -17.548 -234.147 2056.210 -3988.452 0.216 0.286 -0.245 0.03 -0.48 0.87 0.02
1 0.75 75 0.182 -8.835 5.354 3.937 29.205 -20.844 -234.147 2056.210 -3988.452 0.489 0.544 -0.172 0.03 -0.48 0.87 0.02
1 0.76 76 0.120 -8.849 5.334 6.104 26.428 -21.240 -160.246 2087.390 -4136.405 0.552 0.564 -0.145 0.03 -0.48 0.87 0.02
1 0.77 77 0.134 -8.878 5.272 7.629 22.400 -21.118 -145.255 1952.478 -4001.493 0.540 0.599 -0.072 0.03 -0.48 0.87 0.03
1 0.78 78 0.445 -8.854 5.258 13.763 22.156 -18.158 -145.255 1952.478 -4001.493 0.237 0.592 -0.031 0.02 -0.48 0.88 0.03
1 0.79 79 0.441 -8.643 5.291 15.442 27.618 -15.137 -160.246 2162.491 -4031.474 0.243 0.394 -0.045 0.02 -0.48 0.88 0.03
1 0.80 80 0.364 -8.619 5.540 14.465 32.501 -11.658 -115.125 1997.449 -4151.396 0.313 0.384 -0.271 0.02 -0.48 0.88 0.03
1 0.81 81 0.129 -8.586 5.445 10.529 33.814 -8.087 -115.125 2072.400 -4151.396 0.533 0.363 -0.154 0.02 -0.48 0.88 0.04
1 0.82 82 -0.345 -8.414 5.224 6.653 29.480 -6.134 -115.125 2072.400 -4151.396 0.986 0.200 0.082 0.02 -0.48 0.88 0.04
1 0.83 83 -0.455 -8.375 5.176 8.301 25.330 -5.585 -55.164 1967.468 -3956.373 1.074 0.168 0.142 0.01 -0.48 0.88 0.04
1 0.84 84 -0.718 -8.409 5.033 12.024 21.210 -5.554 -10.193 1787.436 -3911.402 1.316 0.207 0.298 0.01 -0.48 0.88 0.04
1 0.85 85 -0.656 -8.294 5.191 15.839 16.327 -3.815 -10.193 1787.436 -3911.402 1.216 0.113 0.175 0.01 -0.48 0.88 0.04
1 0.86 86 -0.560 -8.083 5.153 15.656 14.160 -2.899 -10.193 1892.367 -4061.454 1.103 -0.085 0.235 0.01 -0.47 0.88 0.04
1 0.87 87 -0.455 -8.117 5.287 13.611 11.780 -1.770 -55.164 1937.488 -4091.435 0.982 -0.039 0.122 0.01 -0.47 0.88 0.04
1 0.88 88 -0.273 -7.949 5.243 10.986 9.827 -0.244 -40.174 1757.455 -4151.396 0.785 -0.195 0.183 0.01 -0.47 0.88 0.04
1 0.89 89 -0.053 -7.877 5.162 7.477 8.301 2.533 -40.174 1757.455 -4151.396 0.551 -0.258 0.279 0 -0.47 0.88 0.04
1 0.90 90 -0.187 -7.930 5.100 -1.953 9.644 2.808 19.637 1937.488 -4166.386 0.671 -0.200 0.351 0 -0.47 0.88 0.04
1 0.91 91 -0.249 -7.882 4.899 -7.141 9.399 1.312 -10.193 1817.416 -4091.435 0.718 -0.248 0.553 0 -0.47 0.88 0.04
1 0.92 92 -0.637 -8.016 4.932 -8.148 2.960 -1.770 -10.193 1817.416 -4091.435 1.079 -0.128 0.501 0 -0.47 0.88 0.05
1 0.93 93 -0.656 -8.251 4.951 -6.622 -1.892 -3.510 -10.193 1862.387 -4166.386 1.092 0.100 0.472 0 -0.47 0.88 0.05
1 0.94 94 -0.627 -8.370 5.129 -4.700 -4.517 -4.395 94.588 1817.416 -4241.487 1.063 0.213 0.285 0 -0.47 0.88 0.05
1 0.95 95 -0.479 -8.576 5.181 -2.747 -6.104 -3.571 94.588 1817.416 -4241.487 0.916 0.415 0.226 0 -0.47 0.88 0.05
1 0.96 96 -0.421 -8.768 5.114 -2.228 -6.500 -0.458 49.618 1892.367 -4136.405 0.861 0.604 0.289 0 -0.47 0.88 0.05
1 0.97 97 -0.493 -8.715 5.181 -4.272 -7.813 2.045 -10.193 1937.488 -4136.405 0.933 0.548 0.217 0 -0.47 0.88 0.05
1 0.98 98 -0.263 -8.619 5.081 -3.845 -9.827 4.059 -70.154 1847.396 -4121.415 0.701 0.447 0.311 0 -0.47 0.88 0.04
1 0.99 99 0.034 -8.505 5.397 -1.831 -10.925 5.554 -70.154 1847.396 -4121.415 0.400 0.328 -0.012 0 -0.47 0.88 0.04
1 1.00 100 0.220 -8.672 5.550 0.275 -7.446 5.188 19.637 1892.367 -4031.474 0.211 0.491 -0.171 0 -0.47 0.88 0.04
1 1.01 101 0.101 -8.797 5.555 -0.824 -4.089 7.019 109.579 1877.377 -4046.464 0.328 0.616 -0.176 0 -0.47 0.88 0.04
1 1.02 102 -0.139 -8.672 5.627 -3.387 -1.892 9.094 109.579 1877.377 -4046.464 0.560 0.490 -0.250 0 -0.48 0.88 0.04
1 1.03 103 -0.469 -8.595 5.454 -2.441 -1.770 8.423 -130.265 1862.387 -3986.503 0.877 0.410 -0.081 0 -0.48 0.88 0.04
1 1.04 104 -0.579 -8.418 5.243 1.434 -8.911 6.409 -85.145 1817.416 -4136.405 0.974 0.231 0.128 0 -0.48 0.88 0.04
1 1.05 105 -0.335 -8.380 5.234 2.625 -13.458 5.829 -70.154 1952.478 -4151.396 0.721 0.193 0.139 0 -0.48 0.88 0.04
1 1.06 106 -0.048 -8.246 5.449 0.946 -12.146 7.385 -70.154 1952.478 -4151.396 0.430 0.061 -0.074 0 -0.48 0.88 0.04
1 1.07 107 0.484 -8.284 5.603 -8.911 -5.798 11.810 4.647 1757.455 -4076.444 -0.110 0.098 -0.228 0 -0.48 0.88 0.04
1 1.08 108 0.757 -8.457 5.627 -15.442 -1.617 15.839 -10.193 1817.416 -4061.454 -0.394 0.262 -0.264 0 -0.48 0.88 0.04
1 1.09 109 0.728 -8.619 5.617 -18.890 1.160 18.402 -10.193 1817.416 -4061.454 -0.382 0.412 -0.273 0 -0.48 0.88 0.03
1 1.10 110 0.627 -8.706 5.631 -17.151 2.106 18.372 -145.255 1877.377 -4121.415 -0.303 0.483 -0.310 0 -0.48 0.88 0.03
1 1.11 111 0.374 -8.710 5.469 -7.629 2.258 16.632 34.627 1922.498 -4076.444 -0.070 0.475 -0.166 0 -0.48 0.88 0.03
1 1.12 112 0.000 -8.686 5.478 -3.998 -0.702 16.693 4.647 2102.380 -4076.444 0.282 0.443 -0.186 -0 -0.48 0.88 0.03
1 1.13 113 -0.306 -8.485 5.469 -5.829 -4.639 18.005 4.647 2102.380 -4076.444 0.567 0.238 -0.182 -0 -0.48 0.88 0.03
1 1.14 114 -0.517 -8.270 5.488 -14.038 -7.782 20.172 -10.193 1967.468 -4091.435 0.735 0.011 -0.217 -0 -0.48 0.88 0.03
1 1.15 115 -0.881 -8.476 5.536 -16.663 -6.500 21.271 34.627 1922.498 -4046.464 1.073 0.206 -0.281 -0 -0.48 0.88 0.03
1 1.16 116 -1.015 -8.476 5.421 -15.472 -5.280 22.675 34.627 1922.498 -4046.464 1.178 0.193 -0.185 -0 -0.48 0.88 0.02
1 1.17 117 -1.207 -8.543 5.239 -10.925 -5.981 23.163 109.579 2072.400 -4121.415 1.337 0.249 -0.020 -0 -0.48 0.88 0.02
1 1.18 118 -1.398 -8.442 5.306 -5.676 -10.254 22.797 -145.255 2027.429 -4121.415 1.495 0.141 -0.098 -0.01 -0.48 0.87 0.02
1 1.19 119 -1.063 -8.308 5.502 -1.007 -16.998 20.508 94.588 2012.439 -4136.405 1.130 0.004 -0.299 -0.01 -0.48 0.87 0.02
1 1.20 120 -0.690 -8.021 5.435 0.580 -19.287 17.395 94.588 2012.439 -4136.405 0.733 -0.284 -0.232 -0.01 -0.48 0.87 0.02
1 1.21 121 -0.455 -7.777 5.516 1.129 -19.074 13.702 -85.145 1967.468 -4061.454 0.483 -0.526 -0.310 -0.01 -0.48 0.87 0.01
1 1.22 122 -0.527 -7.437 5.583 1.038 -17.639 8.209 34.627 2072.400 -4046.464 0.544 -0.859 -0.366 -0 -0.48 0.88 0.01
1 1.23 123 -0.757 -7.212 5.373 1.251 -16.327 4.669 34.627 2072.400 -4046.464 0.775 -1.080 -0.148 -0 -0.48 0.88 0.01
1 1.24 124 -0.852 -7.154 5.416 2.106 -17.120 3.021 19.637 1937.488 -3986.503 0.873 -1.132 -0.184 -0 -0.48 0.88 0.01
1 1.25 125 -0.924 -6.991 5.416 1.984 -17.273 0.031 -70.154 2027.429 -4001.493 0.949 -1.290 -0.175 -0 -0.48 0.88 0.01
1 1.26 126 -0.934 -6.982 5.454 -3.601 -17.517 -6.073 -55.164 1817.416 -3986.503 0.967 -1.294 -0.205 -0 -0.48 0.88 0.01
1 1.27 127 -0.895 -7.073 5.330 -6.989 -19.409 -10.925 -55.164 1817.416 -3986.503 0.945 -1.202 -0.080 -0 -0.48 0.88 0.01
1 1.28 128 -0.795 -7.298 5.425 -10.468 -22.980 -17.242 -145.255 2027.429 -4076.444 0.865 -0.978 -0.177 0 -0.48 0.88 0.01
1 1.29 129 -0.450 -7.365 5.488 -8.881 -30.090 -24.262 19.637 1967.468 -4091.435 0.593 -0.920 -0.255 0.01 -0.48 0.88 0.01
1 1.30 130 -0.244 -7.216 5.564 -5.249 -34.607 -28.351 19.637 1967.468 -4091.435 0.440 -1.071 -0.337 0.01 -0.48 0.88 0.01
1 1.31 131 0.024 -7.465 5.856 -3.662 -39.246 -33.295 -160.246 2012.439 -4031.474 0.234 -0.820 -0.630 0.01 -0.48 0.88 0.01
1 1.32 132 0.646 -7.643 6.206 -7.751 -39.520 -37.903 -10.193 2057.410 -4136.405 -0.314 -0.641 -0.979 0.02 -0.48 0.88 0.01
1 1.33 133 1.355 -8.284 6.733 -18.799 -37.720 -39.765 -175.236 2027.429 -4121.415 -0.941 0.001 -1.512 0.02 -0.48 0.88 0.01
1 1.34 134 3.261 -10.679 6.709 -50.537 -35.034 -27.649 -175.236 2027.429 -4121.415 -2.762 2.386 -1.511 0.02 -0.48 0.87 0.01
1 1.35 135 4.525 -11.813 6.096 -54.444 -30.792 -6.928 -370.259 2072.400 -4046.464 -3.958 3.488 -0.957 0.03 -0.49 0.87 0.01
1 1.36 136 4.104 -10.813 5.679 9.308 -9.796 1.221 -145.255 1997.449 -3971.513 -3.481 2.423 -0.652 0.03 -0.49 0.87 0.01
1 1.37 137 2.868 -9.414 5.507 54.505 1.862 -8.331 -145.255 1997.449 -3971.513 -2.239 1.043 -0.450 0.03 -0.49 0.87 0.01
1 1.38 138 1.906 -8.485 5.267 57.099 -2.228 -11.536 -355.269 2087.390 -3956.373 -1.264 0.162 -0.135 0.03 -0.49 0.87 0.01
1 1.39 139 1.077 -8.026 5.291 20.722 -8.972 -6.775 -355.269 2087.390 -3956.373 -0.407 -0.257 -0.096 0.03 -0.48 0.87 0.01
1 1.40 140 0.397 -8.686 5.502 -38.208 -2.319 2.167 -235.197 1892.367 -3986.503 0.293 0.414 -0.294 0.03 -0.48 0.87 0.01
1 1.41 141 -0.129 -9.529 4.894 -38.452 4.883 7.019 -235.197 1892.367 -3986.503 0.823 1.234 0.277 0.03 -0.48 0.87 0.01
1 1.42 142 -0.431 -9.678 4.243 -4.120 2.899 9.430 -355.269 2057.410 -3986.503 1.110 1.350 0.878 0.03 -0.49 0.87 0.01
1 1.43 143 -0.244 -9.017 3.812 42.694 -10.620 3.906 -310.148 2012.439 -3956.373 0.902 0.673 1.286 0.03 -0.49 0.87 0.01
1 1.44 144 1.125 -7.183 4.501 71.808 -32.806 -8.972 -310.148 2012.439 -3956.373 -0.459 -1.095 0.702 0.03 -0.48 0.87 0.01
1 1.45 145 2.332 -6.512 5.129 46.753 -33.539 -12.054 -295.158 2027.429 -3971.513 -1.626 -1.709 0.158 0.04 -0.48 0.88 0.01
1 1.46 146 2.873 -6.632 5.684 0.610 -22.980 -7.233 -295.158 2027.429 -3971.513 -2.126 -1.558 -0.354 0.04 -0.48 0.88 0.01
1 1.47 147 3.069 -7.413 5.478 -39.917 -9.918 -0.275 -370.259 1757.455 -4076.444 -2.284 -0.779 -0.156 0.04 -0.48 0.88 0.01
1 1.48 148 2.284 -9.347 4.698 -48.676 3.052 11.749 -370.259 1757.455 -4076.444 -1.477 1.124 0.571 0.04 -0.48 0.88 0.01
1 1.49 149 1.676 -9.946 4.300 -15.869 3.571 16.541 -355.269 1937.488 -3986.503 -0.867 1.681 0.903 0.04 -0.48 0.87 0.01
1 1.50 150 1.140 -9.807 4.449 22.644 -4.089 22.461 -295.158 2027.429 -4001.493 -0.348 1.519 0.720 0.04 -0.48 0.87 0.01
1 1.51 151 1.053 -8.375 4.798 40.375 -18.951 27.222 -295.158 2027.429 -4001.493 -0.308 0.123 0.435 0.04 -0.48 0.88 0.01
1 1.52 152 1.212 -7.628 4.789 24.048 -22.888 23.712 -280.167 1862.387 -4031.474 -0.480 -0.599 0.486 0.04 -0.48 0.88 0
1 1.53 153 1.652 -7.236 4.860 1.740 -23.560 19.592 -280.167 1862.387 -4031.474 -0.926 -0.978 0.435 0.04 -0.48 0.88 0
1 1.54 154 2.016 -7.614 4.774 -13.214 -22.980 15.564 -445.210 1922.498 -4151.396 -1.287 -0.602 0.517 -0.04 0.48 -0.88 0
1 1.55 155 2.332 -8.380 4.669 -12.695 -24.170 9.277 -520.161 2072.400 -4046.464 -1.592 0.152 0.602 -0.04 0.48 -0.88 0
1 1.56 156 2.787 -8.773 4.927 -0.549 -25.269 4.822 -370.259 2072.400 -4076.444 -2.030 0.532 0.322 -0.05 0.48 -0.88 0
1 1.57 157 2.820 -8.758 5.033 11.139 -22.278 1.617 -415.229 2087.390 -4031.474 -2.037 0.513 0.205 -0.05 0.48 -0.88 0.01
1 1.58 158 2.734 -8.552 5.492 14.679 -12.177 -0.183 -415.229 2087.390 -4031.474 -1.889 0.325 -0.235 -0.05 0.48 -0.88 0.01
1 1.59 159 2.236 -8.370 5.497 7.385 -5.981 -0.153 -385.249 1892.367 -3986.503 -1.368 0.156 -0.224 -0.05 0.48 -0.88 0.01
1 1.60 160 1.733 -8.437 5.459 -2.686 -4.150 -0.275 -385.249 1892.367 -3986.503 -0.849 0.229 -0.179 -0.05 0.48 -0.88 0.01
1 1.61 161 1.647 -8.509 5.253 -8.484 -7.874 0.153 -310.148 1892.367 -4136.405 -0.750 0.299 0.021 -0.05 0.48 -0.88 0
1 1.62 162 1.791 -8.849 5.153 -7.050 -10.254 1.953 -535.151 1937.488 -3986.503 -0.881 0.632 0.110 -0.06 0.48 -0.88 0
1 1.63 163 2.275 -8.754 5.536 4.669 -3.662 7.690 -520.161 1847.396 -3971.513 -1.354 0.531 -0.283 -0.06 0.48 -0.88 0.01
1 1.64 164 2.318 -8.519 5.545 9.918 7.538 10.223 -520.161 1802.426 -4256.477 -1.392 0.298 -0.292 -0.06 0.48 -0.88 0.01
1 1.65 165 2.006 -8.117 5.737 9.216 19.867 11.200 -520.161 1802.426 -4256.477 -1.087 -0.097 -0.471 -0.06 0.48 -0.88 0.01
1 1.66 166 1.077 -7.786 5.718 0.885 26.001 6.866 -460.200 1862.387 -4091.435 -0.199 -0.412 -0.421 -0.05 0.48 -0.88 0.01
1 1.67 167 1.068 -7.599 5.545 -3.021 22.827 5.066 -460.200 1862.387 -4091.435 -0.215 -0.596 -0.240 -0.05 0.48 -0.88 0
1 1.68 168 1.049 -7.604 5.516 -3.326 20.538 2.472 -550.142 1922.498 -4121.415 -0.218 -0.592 -0.209 -0.05 0.48 -0.88 0
1 1.69 169 1.379 -7.437 5.536 -0.793 25.116 -1.221 -490.181 1967.468 -4031.474 -0.564 -0.759 -0.225 -0.05 0.48 -0.88 0
1 1.70 170 1.121 -7.197 5.248 1.007 40.924 -8.240 -370.259 1952.478 -4121.415 -0.321 -0.995 0.070 -0.05 0.48 -0.88 0
1 1.71 171 0.378 -6.982 5.143 -2.014 47.882 -13.886 -250.187 1877.377 -4001.493 0.403 -1.205 0.186 0.05 -0.48 0.88 0
1 1.72 172 -0.230 -6.982 4.813 -10.193 46.845 -22.827 -250.187 1877.377 -4001.493 0.992 -1.202 0.525 0.04 -0.48 0.88 0
1 1.73 173 -0.350 -7.954 4.827 -25.635 36.621 -36.072 -370.259 1727.475 -3971.513 1.103 -0.243 0.491 0.04 -0.48 0.88 0.01
1 1.74 174 0.287 -9.127 4.994 -31.220 30.792 -38.208 -370.259 1727.475 -3971.513 0.477 0.912 0.294 0.04 -0.48 0.88 0.01
1 1.75 175 1.106 -10.248 5.229 -26.428 31.586 -35.614 -220.207 1847.396 -4076.444 -0.323 2.010 0.022 0.04 -0.48 0.88 0.02
1 1.76 176 1.619 -10.664 5.200 -10.712 37.232 -25.787 -355.269 2012.439 -4091.435 -0.819 2.413 0.027 0.03 -0.48 0.88 0.02
1 1.77 177 1.403 -10.291 5.100 6.683 43.579 -18.555 -310.148 2057.410 -4061.454 -0.604 2.039 0.126 0.03 -0.48 0.88 0.02
1 1.78 178 0.623 -9.237 4.401 9.918 43.701 -13.397 -355.269 2057.410 -4136.405 0.163 0.996 0.843 0.03 -0.48 0.88 0.03
1 1.79 179 0.192 -8.773 4.042 -2.777 40.100 -12.756 -355.269 2057.410 -4136.405 0.577 0.540 1.219 0.03 -0.48 0.88 0.03
1 1.80 180 -0.158 -9.132 3.754 -21.668 36.713 -11.627 -175.236 1997.449 -4151.396 0.890 0.882 1.485 0.02 -0.48 0.88 0.03
1 1.81 181 -0.359 -9.917 3.615 -22.095 37.293 -8.484 -175.236 1997.449 -4151.396 1.071 1.644 1.590 0.02 -0.48 0.87 0.04
1 1.82 182 -0.627 -10.329 3.620 -12.421 34.302 -1.495 -205.216 2012.439 -4031.474 1.311 2.033 1.551 0.02 -0.49 0.87 0.04
1 1.83 183 -0.785 -10.396 3.778 -0.793 28.320 6.470 -115.125 1997.449 -4046.464 1.438 2.088 1.379 0.02 -0.49 0.87 0.04
1 1.84 184 -0.819 -9.635 4.219 8.179 18.768 15.289 -235.197 1967.468 -4061.454 1.440 1.328 0.944 0.01 -0.49 0.87 0.04
1 1.85 185 -0.311 -9.266 4.319 3.937 16.907 17.151 34.627 1877.377 -4076.444 0.893 0.961 0.850 0.01 -0.49 0.87 0.04
1 1.86 186 -0.024 -8.955 4.195 -1.343 18.433 17.700 34.627 1877.377 -4076.444 0.562 0.647 0.976 0.01 -0.49 0.87 0.04
1 1.87 187 0.005 -8.797 4.161 -5.524 21.698 18.555 -145.255 2072.400 -4001.493 0.492 0.483 1.004 0.01 -0.49 0.87 0.04
1 1.88 188 -0.067 -8.615 4.089 -5.981 22.919 18.829 -145.255 2072.400 -4001.493 0.476 0.283 1.054 0 -0.49 0.87 0.04
1 1.89 189 -0.340 -8.653 4.133 -6.561 20.905 19.501 -40.174 1922.498 -4226.497 0.705 0.312 0.999 0 -0.49 0.87 0.04
1 1.90 190 -0.369 -8.572 4.185 -8.240 19.928 20.447 -40.174 1877.377 -4046.464 0.689 0.220 0.933 -0 -0.49 0.87 0.04
1 1.91 191 -0.613 -8.442 4.291 -9.766 21.393 21.545 -55.164 1892.367 -4031.474 0.886 0.081 0.813 -0 -0.49 0.87 0.04
1 1.92 192 -0.747 -8.581 4.180 -10.559 21.790 18.921 -55.164 2012.439 -3956.373 0.970 0.208 0.907 -0.01 -0.49 0.87 0.03
1 1.93 193 -0.919 -8.653 4.147 -8.667 19.440 16.022 -55.164 2012.439 -3956.373 1.095 0.269 0.924 -0.01 -0.49 0.87 0.03
1 1.94 194 -1.020 -8.758 4.147 -6.531 15.442 14.801 169.689 2057.410 -4136.405 1.151 0.364 0.908 -0.01 -0.49 0.87 0.03
1 1.95 195 -0.867 -8.701 4.214 -1.434 7.935 12.512 169.689 2057.410 -4136.405 0.924 0.291 0.818 -0.01 -0.49 0.87 0.03
1 1.96 196 -0.795 -8.581 4.104 0.702 5.280 12.909 124.719 2087.390 -4031.474 0.824 0.168 0.922 -0.02 -0.49 0.87 0.03
1 1.97 197 -0.776 -8.337 4.128 -0.031 3.326 11.963 19.637 2012.439 -3881.421 0.779 -0.079 0.894 -0.02 -0.49 0.87 0.03
1 1.98 198 -0.608 -8.179 3.989 -2.014 2.869 11.353 19.637 2012.439 -3881.421 0.588 -0.240 1.028 -0.02 -0.49 0.87 0.03
1 1.99 199 -0.670 -8.366 4.032 -8.514 3.265 7.690 109.579 1922.498 -4046.464 0.631 -0.058 0.977 -0.02 -0.49 0.87 0.03
1 2.00 200 -0.857 -8.586 4.013 -9.430 1.678 5.676 109.579 1922.498 -4046.464 0.800 0.155 0.983 -0.02 -0.49 0.87 0.03
1 2.01 201 -0.872 -8.696 3.936 -8.301 -4.486 3.265 79.598 2072.400 -4121.415 0.801 0.256 1.043 -0.02 -0.5 0.87 0.03
1 2.02 202 -0.843 -8.768 4.075 -5.280 -11.169 -2.197 79.598 2072.400 -4121.415 0.765 0.310 0.875 -0.02 -0.5 0.87 0.03
1 2.03 203 -0.675 -8.754 4.042 -4.944 -13.672 -3.723 169.689 1892.367 -4091.435 0.604 0.289 0.897 -0.02 -0.5 0.87 0.03
1 2.04 204 -0.287 -8.777 4.094 -5.066 -12.878 -4.822 79.598 2102.380 -4151.396 0.228 0.307 0.833 -0.02 -0.5 0.87 0.03
1 2.05 205 -0.259 -8.701 4.180 -6.805 -9.430 -4.913 79.598 2102.380 -4151.396 0.212 0.223 0.736 -0.02 -0.5 0.87 0.03
1 2.06 206 0.081 -8.777 4.257 -7.965 -7.355 -4.425 34.627 2072.400 -4001.493 -0.115 0.292 0.646 -0.02 -0.5 0.87 0.03
1 2.07 207 0.163 -8.964 4.271 -7.660 -4.791 -2.258 34.627 2072.400 -4001.493 -0.185 0.471 0.618 -0.02 -0.5 0.87 0.03
1 2.08 208 0.115 -8.912 4.401 -5.554 -3.326 -0.153 79.598 2102.380 -4151.396 -0.128 0.410 0.475 -0.02 -0.5 0.86 0.03
1 2.09 209 0.201 -8.955 4.204 -4.364 0.153 1.282 79.598 2102.380 -4151.396 -0.207 0.447 0.659 -0.02 -0.5 0.86 0.03
1 2.10 210 -0.163 -8.701 4.252 -5.859 5.249 2.899 -10.193 1862.387 -4091.435 0.156 0.183 0.593 -0.01 -0.5 0.86 0.02
1 2.11 211 -0.560 -8.701 4.080 -8.331 7.263 3.479 -10.193 2087.390 -4061.454 0.545 0.176 0.754 -0.02 -0.5 0.86 0.02
1 2.12 212 -0.757 -8.691 4.224 -11.292 8.057 3.571 -10.193 2087.390 -4061.454 0.729 0.158 0.596 -0.02 -0.5 0.86 0.02
1 2.13 213 -1.058 -8.739 4.238 -12.909 7.050 2.808 94.588 1937.488 -3911.402 1.017 0.196 0.563 -0.02 -0.5 0.86 0.02
1 2.14 214 -1.092 -8.979 4.324 -11.810 5.554 3.326 94.588 1937.488 -3911.402 1.035 0.424 0.457 -0.02 -0.51 0.86 0.02
1 2.15 215 -1.049 -9.117 4.286 -8.484 6.897 2.869 79.598 2072.400 -3941.382 0.977 0.552 0.476 -0.02 -0.51 0.86 0.02
1 2.16 216 -1.030 -9.232 4.473 -3.967 7.599 3.967 79.598 2072.400 -3941.382 0.942 0.659 0.274 -0.02 -0.51 0.86 0.02
1 2.17 217 -1.063 -9.184 4.410 -0.854 5.951 2.625 -70.154 2222.452 -3866.431 0.943 0.603 0.321 -0.02 -0.51 0.86 0.02
1 2.18 218 -1.020 -9.184 4.458 -1.465 4.211 2.747 19.637 2207.462 -4031.474 0.886 0.601 0.269 -0.02 -0.51 0.86 0.02
1 2.19 219 -1.111 -9.184 4.396 -2.899 3.235 2.960 19.637 2207.462 -4031.474 0.964 0.599 0.327 -0.02 -0.51 0.86 0.02
1 2.20 220 -1.149 -9.285 4.358 -5.096 2.930 2.472 169.689 2132.511 -3776.490 0.991 0.696 0.358 -0.02 -0.51 0.86 0.02
1 2.21 221 -1.288 -9.410 4.238 -6.653 3.754 2.838 169.689 2132.511 -3776.490 1.117 0.815 0.467 -0.02 -0.51 0.86 0.02
1 2.22 222 -1.312 -9.812 4.252 -7.965 1.862 1.648 124.719 2132.511 -3911.402 1.127 1.210 0.440 -0.02 -0.51 0.86 0.02
1 2.23 223 -1.355 -10.056 4.204 -8.362 0.031 1.862 124.719 2132.511 -3911.402 1.159 1.447 0.474 -0.02 -0.51 0.86 0.02
1 2.24 224 -1.010 -10.142 3.951 -5.035 -3.693 3.204 109.579 2102.380 -3821.460 0.806 1.522 0.707 -0.02 -0.51 0.86 0.02
1 2.25 225 -0.848 -10.018 3.884 -3.479 -4.669 3.235 124.719 2132.511 -3836.451 0.642 1.395 0.770 -0.02 -0.51 0.86 0.02
1 2.26 226 -0.766 -9.898 3.927 -5.402 -4.211 3.876 124.719 2132.511 -3836.451 0.557 1.271 0.719 -0.02 -0.51 0.86 0.02
1 2.27 227 -0.474 -9.740 3.534 -10.376 -2.167 2.930 109.579 2147.501 -3971.513 0.260 1.105 1.096 -0.02 -0.51 0.86 0.02
1 2.28 228 -0.441 -9.946 3.122 -16.571 1.160 1.465 169.689 1967.468 -3806.470 0.222 1.299 1.485 -0.02 -0.51 0.86 0.02
1 2.29 229 -0.656 -10.085 2.883 -17.334 1.251 0.092 184.680 2147.501 -3971.513 0.434 1.421 1.693 -0.02 -0.52 0.86 0.02
1 2.30 230 -0.800 -10.295 2.907 -12.573 1.892 -1.526 184.680 2147.501 -3971.513 0.575 1.614 1.634 -0.02 -0.52 0.86 0.02
1 2.31 231 -1.020 -10.204 3.285 -8.209 2.380 -1.434 19.637 2087.390 -3836.451 0.793 1.506 1.224 -0.03 -0.52 0.85 0.02
1 2.32 232 -0.843 -10.520 4.434 -8.118 0.610 1.343 109.579 2267.423 -3971.513 0.609 1.802 0.036 -0.03 -0.52 0.85 0.02
1 2.33 233 -0.599 -10.937 5.373 -14.343 0.000 8.331 109.579 2267.423 -3971.513 0.362 2.213 -0.914 -0.03 -0.52 0.85 0.02
1 2.34 234 -0.105 -11.277 5.291 -23.743 -0.793 18.433 124.719 2162.491 -3956.373 -0.145 2.543 -0.855 -0.03 -0.52 0.85 0.02
1 2.35 235 0.125 -11.402 4.401 -23.316 1.068 20.905 19.637 2132.511 -3881.421 -0.401 2.652 0.004 -0.03 -0.52 0.85 0.02
1 2.36 236 0.115 -10.669 3.491 4.028 -1.678 12.299 184.680 2102.380 -3896.412 -0.418 1.907 0.888 -0.03 -0.53 0.85 0.01
1 2.37 237 -0.005 -9.831 3.726 22.888 -9.460 4.272 184.680 2102.380 -3896.412 -0.317 1.069 0.652 -0.03 -0.53 0.85 0.01
1 2.38 238 -0.101 -8.998 4.506 27.954 -15.442 -0.214 229.650 2147.501 -3821.460 -0.224 0.249 -0.101 -0.03 -0.52 0.85 0.01
1 2.39 239 -0.014 -8.658 5.943 6.287 -7.904 1.190 199.670 2057.410 -3911.402 -0.287 -0.059 -1.475 -0.03 -0.52 0.85 0.01
1 2.40 240 -0.129 -8.739 6.005 -9.003 0.824 0.549 199.670 2057.410 -3911.402 -0.167 0.028 -1.525 -0.03 -0.52 0.85 0.01
1 2.41 241 -0.713 -9.223 5.775 -12.299 1.526 0.183 34.627 2177.481 -3746.509 0.417 0.509 -1.300 -0.03 -0.52 0.85 0.01
1 2.42 242 -1.188 -9.161 5.713 0.244 -6.439 0.122 34.627 2267.423 -3896.412 0.891 0.443 -1.246 -0.02 -0.52 0.85 0.01
1 2.43 243 -0.910 -8.701 6.345 34.424 -26.978 4.364 184.680 2222.452 -3866.431 0.621 -0.013 -1.869 -0.02 -0.52 0.85 0.01
1 2.44 244 -0.292 -7.729 6.733 53.772 -36.957 12.329 184.680 2222.452 -3866.431 0.016 -0.964 -2.217 -0.02 -0.52 0.85 0.01
1 2.45 245 0.484 -6.216 6.508 57.160 -36.530 19.043 -8.694 2086.041 -3733.618 -0.749 -2.438 -1.916 -0.02 -0.52 0.86 0.01
1 2.46 246 1.279 -4.377 6.254 34.790 -21.118 22.614 -38.675 2071.051 -3748.608 -1.542 -4.185 -1.492 -0.02 -0.51 0.86 0
1 2.47 247 1.293 -3.989 6.019 9.247 -7.111 23.041 -38.675 2071.051 -3748.608 -1.572 -4.549 -1.217 -0.02 -0.5 0.86 0
1 2.48 248 1.077 -4.597 5.919 -25.971 1.068 23.102 -8.694 2011.090 -3883.520 -1.383 -3.939 -1.114 0.02 0.5 -0.86 0
1 2.49 249 0.680 -5.890 5.938 -59.082 2.563 24.414 126.068 2011.090 -3778.588 -1.017 -2.670 -1.178 0.02 0.51 -0.86 0
1 2.50 250 0.244 -8.629 5.526 -74.372 -5.066 17.365 -8.694 2011.090 -3883.520 -0.614 0.024 -0.851 0.02 0.51 -0.86 0
1 2.51 251 0.168 -10.501 5.334 -45.624 -8.881 4.852 -8.694 2011.090 -3883.520 -0.554 1.850 -0.746 0.02 0.52 -0.86 0.01
1 2.52 252 0.244 -11.430 5.167 -1.251 -10.925 -2.777 81.097 2071.051 -3718.627 -0.632 2.744 -0.647 0.02 0.52 -0.85 0.01
1 2.53 253 0.383 -11.014 5.334 34.210 -14.862 -2.228 -38.675 2071.051 -3793.579 -0.761 2.319 -0.829 0.02 0.52 -0.85 0.01
1 2.54 254 0.474 -9.022 5.411 32.806 -20.813 7.446 -38.675 2071.051 -3793.579 -0.828 0.376 -0.811 0.02 0.51 -0.86 0.01
1 2.55 255 0.335 -8.423 5.162 4.791 -20.844 8.362 21.136 2161.142 -3958.621 -0.680 -0.202 -0.523 0.01 0.51 -0.86 0.01
1 2.56 256 0.239 -8.308 4.659 -16.449 -20.813 4.730 -68.805 2101.031 -3718.627 -0.573 -0.315 -0.016 0.01 0.51 -0.86 0.01
1 2.57 257 -0.110 -8.849 3.975 -15.656 -25.299 -0.153 -128.766 2086.041 -3808.569 -0.208 0.215 0.650 0.01 0.51 -0.86 0.01
1 2.58 258 0.029 -8.763 3.955 11.566 -38.544 -9.399 -128.766 2086.041 -3808.569 -0.324 0.119 0.652 0.01 0.51 -0.86 0.01
1 2.59 259 0.488 -8.576 4.286 26.428 -45.105 -16.968 -68.805 1951.129 -3823.559 -0.746 -0.065 0.329 0.01 0.51 -0.86 0.01
1 2.60 260 0.919 -8.155 4.779 26.032 -43.427 -17.395 -68.805 1951.129 -3793.579 -1.123 -0.472 -0.134 0 0.51 -0.86 0.01
1 2.61 261 1.355 -7.954 4.808 7.751 -33.783 -14.526 -68.805 1951.129 -3793.579 -1.438 -0.640 -0.098 -0 0.51 -0.86 0.02
1 2.62 262 1.240 -8.174 4.391 -2.014 -26.703 -11.993 -203.717 2131.012 -3883.520 -1.270 -0.414 0.329 -0.01 0.51 -0.86 0.02
1 2.63 263 1.283 -8.212 4.152 -1.587 -23.163 -10.864 -248.688 1951.129 -3718.627 -1.269 -0.377 0.567 -0.01 0.51 -0.86 0.02
1 2.64 264 1.039 -8.117 4.065 3.723 -22.156 -11.688 -143.756 2071.051 -3793.579 -0.983 -0.473 0.652 -0.01 0.51 -0.86 0.02
1 2.65 265 1.221 -7.983 4.089 8.240 -22.949 -12.787 -143.756 2071.051 -3793.579 -1.124 -0.604 0.633 -0.01 0.51 -0.86 0.02
1 2.66 266 1.580 -7.786 4.305 2.533 -21.118 -15.686 -248.688 2071.051 -3868.530 -1.441 -0.794 0.427 -0.02 0.51 -0.86 0.02
1 2.67 267 1.963 -7.791 4.358 -6.134 -18.738 -16.663 -383.750 2086.041 -3778.588 -1.778 -0.786 0.380 -0.02 0.51 -0.86 0.01
1 2.68 268 2.035 -7.916 4.027 -11.383 -14.893 -18.768 -383.750 2086.041 -3778.588 -1.753 -0.668 0.692 -0.02 0.51 -0.86 0.01
1 2.69 269 2.160 -7.815 3.898 -8.362 -12.207 -19.653 -353.770 2056.061 -3838.549 -1.829 -0.776 0.806 -0.03 0.51 -0.86 0.01
1 2.70 270 2.126 -7.753 3.740 -1.892 -6.531 -19.348 -323.789 2101.031 -3898.660 -1.747 -0.842 0.954 -0.03 0.51 -0.86 0.01
1 2.71 271 1.982 -7.523 3.553 0.427 -0.244 -19.013 -323.789 2101.031 -3898.660 -1.560 -1.072 1.137 -0.03 0.51 -0.86 0.01
1 2.72 272 1.695 -7.580 3.735 -6.317 8.972 -18.189 -368.760 1921.148 -3868.530 -1.248 -1.012 0.956 -0.03 0.51 -0.86 0.01
1 2.73 273 1.484 -7.858 3.884 -14.496 12.573 -17.273 -383.750 1936.139 -3628.536 -1.018 -0.735 0.804 -0.03 0.51 -0.86 0.01
1 2.74 274 1.408 -8.217 4.003 -21.118 15.381 -16.022 -368.760 2026.080 -3793.579 -0.925 -0.383 0.670 -0.03 0.51 -0.86 0.01
1 2.75 275 1.523 -8.624 4.003 -21.820 17.242 -14.069 -368.760 2026.080 -3793.579 -1.021 0.011 0.644 -0.03 0.51 -0.86 0
1 2.76 276 1.623 -8.955 4.051 -12.939 18.066 -11.719 -383.750 2056.061 -3808.569 -1.094 0.313 0.541 -0.03 0.51 -0.86 0
1 2.77 277 1.710 -9.113 4.128 -7.019 20.142 -10.223 -278.668 2056.061 -3703.637 -1.170 0.463 0.448 0.03 -0.52 0.86 0
1 2.78 278 1.642 -9.208 4.324 -4.272 20.935 -10.010 -278.668 2056.061 -3703.637 -1.095 0.555 0.243 0.03 -0.52 0.86 0
1 2.79 279 1.638 -8.840 4.482 -4.639 23.651 -8.667 -398.740 2146.002 -3793.579 -1.083 0.183 0.079 0.03 -0.52 0.86 0
1 2.80 280 1.293 -8.777 4.487 -6.958 24.414 -8.667 -398.740 2101.031 -3613.546 -0.735 0.119 0.069 0.03 -0.52 0.86 0.01
1 2.81 281 0.996 -8.576 4.372 -8.484 23.529 -10.864 -173.737 1951.129 -3718.627 -0.436 -0.085 0.178 0.03 -0.52 0.86 0.01
1 2.82 282 0.685 -8.634 4.176 -10.681 21.149 -13.214 -173.737 1951.129 -3718.627 -0.122 -0.032 0.366 0.03 -0.52 0.86 0.01
1 2.83 283 0.493 -8.955 4.180 -12.146 17.639 -16.205 -353.770 2011.090 -3658.517 0.082 0.277 0.336 0.03 -0.52 0.85 0.01
1 2.84 284 0.484 -9.371 4.286 -14.191 13.397 -18.280 -278.668 2011.090 -3658.517 0.103 0.686 0.215 0.03 -0.52 0.85 0.02
1 2.85 285 0.479 -9.821 4.190 -16.571 10.956 -20.783 -278.668 2011.090 -3658.517 0.123 1.126 0.290 0.03 -0.52 0.85 0.02
1 2.86 286 0.685 -10.339 4.061 -15.686 7.874 -21.210 -443.711 2266.074 -3688.647 -0.063 1.633 0.396 0.03 -0.52 0.85 0.02
1 2.87 287 1.058 -10.999 3.749 -6.287 5.493 -19.562 -203.268 1965.370 -3779.788 -0.413 2.286 0.690 0.03 -0.52 0.85 0.02
1 2.88 288 1.250 -11.153 3.668 1.953 5.005 -16.754 -293.209 2070.451 -3749.807 -0.581 2.437 0.762 0.03 -0.52 0.85 0.02
1 2.89 289 1.389 -11.114 3.486 9.644 4.639 -13.031 -293.209 2070.451 -3749.807 -0.699 2.401 0.946 0.03 -0.52 0.85 0.02
1 2.90 290 1.384 -10.894 3.127 16.113 3.357 -7.599 -293.209 2100.432 -3719.827 -0.666 2.199 1.337 0.03 -0.52 0.85 0.03
1 2.91 291 1.312 -10.774 3.194 17.853 2.899 -2.991 -203.268 2160.393 -3704.836 -0.587 2.092 1.294 0.03 -0.52 0.85 0.03
1 2.92 292 1.341 -10.410 3.457 21.515 0.885 -1.740 -203.268 2160.393 -3704.836 -0.614 1.743 1.057 0.03 -0.52 0.85 0.03
1 2.93 293 1.010 -10.391 4.698 22.827 -3.937 -5.096 -323.189 1995.500 -3614.745 -0.280 1.740 -0.153 0.03 -0.52 0.86 0.03
1 2.94 294 -0.014 -10.506 5.976 6.195 -23.438 -23.773 -323.189 1950.379 -3824.758 0.761 1.871 -1.402 0.03 -0.52 0.86 0.03
1 2.95 295 -0.302 -10.846 5.555 -10.407 -34.699 -23.285 -308.199 2010.490 -3599.755 1.090 2.222 -0.968 0.03 -0.51 0.86 0.03
1 2.96 296 -0.034 -10.530 4.204 -15.411 -41.107 -13.275 -308.199 2010.490 -3599.755 0.879 1.905 0.371 0.03 -0.52 0.86 0.03
1 2.97 297 0.187 -9.793 3.769 -2.563 -36.987 -7.263 -308.199 1965.370 -3659.866 0.707 1.160 0.782 0.04 -0.52 0.86 0.03
1 2.98 298 0.120 -7.968 4.434 22.583 -20.477 6.409 -413.281 2010.490 -3704.836 0.828 -0.662 0.111 0.04 -0.52 0.86 0.02
1 2.99 299 0.388 -7.130 5.018 18.097 -18.829 5.157 -413.281 2010.490 -3704.836 0.559 -1.486 -0.445 0.04 -0.51 0.86 0.02
1 3.00 300 0.991 -7.097 5.722 -6.073 -28.320 0.366 -353.320 2055.461 -3599.755 -0.037 -1.509 -1.132 0.04 -0.51 0.86 0.02
1 3.01 301 1.887 -7.532 6.412 -30.151 -40.802 -2.380 -533.203 1965.370 -3524.804 -0.909 -1.076 -1.832 0.05 -0.51 0.86 0.02
1 3.02 302 3.184 -7.920 7.154 -27.527 -33.783 -3.845 -473.242 2100.432 -3644.875 -2.170 -0.703 -2.609 0.05 -0.52 0.86 0.02
1 3.03 303 3.443 -7.872 7.848 -2.747 -15.289 -9.949 -473.242 2100.432 -3644.875 -2.394 -0.766 -3.341 0.05 -0.52 0.85 0.02
1 3.04 304 3.113 -7.499 8.050 25.452 1.587 -17.120 -458.251 1890.418 -3554.784 -2.038 -1.144 -3.557 0.05 -0.52 0.85 0.02
1 3.05 305 2.078 -5.995 7.604 41.290 7.050 -26.032 -518.212 2100.432 -3689.846 -0.957 -2.599 -3.031 0.05 -0.51 0.86 0.02
1 3.06 306 1.231 -4.961 6.805 21.423 -1.678 -32.684 -518.212 2100.432 -3689.846 -0.067 -3.587 -2.155 0.06 -0.51 0.86 0.02
1 3.07 307 0.824 -4.731 6.512 -13.153 -10.223 -39.673 -623.294 2025.480 -3689.846 0.392 -3.793 -1.833 0.06 -0.51 0.86 0.03
1 3.08 308 0.690 -5.588 6.637 -46.021 -10.132 -44.830 -398.291 2145.402 -3689.846 0.588 -2.943 -1.987 0.06 -0.51 0.86 0.03
1 3.09 309 1.255 -8.643 6.220 -67.261 0.671 -53.803 -473.242 1950.379 -3719.827 0.090 0.085 -1.639 0.06 -0.51 0.86 0.03
1 3.10 310 2.078 -11.210 5.923 -46.631 6.561 -52.826 -473.242 1950.379 -3719.827 -0.666 2.625 -1.413 0.06 -0.52 0.85 0.03
1 3.11 311 2.212 -12.067 5.909 -2.899 3.021 -33.875 -548.193 1950.379 -3614.745 -0.733 3.461 -1.461 0.07 -0.52 0.85 0.04
1 3.12 312 2.121 -10.123 5.890 37.750 -1.892 -0.427 -578.173 1995.500 -3644.875 -0.570 1.539 -1.424 0.07 -0.52 0.85 0.04
1 3.13 313 1.738 -8.773 5.698 23.529 5.310 9.308 -578.173 1995.500 -3644.875 -0.190 0.213 -1.184 0.07 -0.51 0.85 0.04
1 3.14 314 1.030 -8.390 5.435 -6.744 15.228 16.907 -713.235 2010.490 -3599.755 0.500 -0.159 -0.893 0.07 -0.51 0.85 0.04
1 3.15 315 0.364 -8.892 5.038 -26.001 18.890 23.102 -713.235 2010.490 -3599.755 1.128 0.335 -0.501 0.06 -0.51 0.85 0.04
1 3.16 316 -0.297 -8.907 4.281 -10.468 12.695 25.452 -698.245 1875.428 -3569.774 1.738 0.327 0.231 0.06 -0.52 0.85 0.04
1 3.17 317 -0.215 -8.749 4.156 15.411 8.575 24.475 -698.245 1875.428 -3569.774 1.601 0.152 0.341 0.06 -0.52 0.85 0.04
1 3.18 318 0.029 -7.973 4.233 35.401 8.698 24.078 -353.320 2055.461 -3554.784 1.305 -0.624 0.277 0.06 -0.52 0.85 0.04
1 3.19 319 0.364 -7.101 4.635 41.199 14.496 24.872 -578.173 2070.451 -3569.774 0.922 -1.480 -0.082 0.06 -0.51 0.86 0.04
1 3.20 320 0.321 -6.153 4.520 21.301 28.351 27.557 -578.173 2070.451 -3569.774 0.868 -2.384 0.143 0.05 -0.51 0.86 0.03
1 3.21 321 -0.053 -5.919 4.128 -2.991 33.936 30.212 -563.183 2085.441 -3554.784 1.183 -2.611 0.562 0.05 -0.51 0.86 0.03
1 3.22 322 -0.982 -6.235 3.788 -27.039 34.241 32.623 -563.183 2085.441 -3554.784 2.048 -2.307 0.897 0.04 -0.51 0.86 0.03
1 3.23 323 -1.446 -6.594 3.567 -44.129 27.374 33.539 -638.284 2010.490 -3599.755 2.446 -1.975 1.082 0.04 -0.51 0.86 0.03
1 3.24 324 -1.508 -7.777 3.740 -45.197 12.695 30.151 -638.284 2010.490 -3599.755 2.447 -0.829 0.854 0.04 -0.51 0.86 0.03
1 3.25 325 -0.986 -8.485 3.850 -32.715 5.463 28.656 -473.242 1995.500 -3434.862 1.875 -0.157 0.685 0.04 -0.52 0.85 0.03
1 3.26 326 -0.254 -8.859 3.840 -15.686 1.801 27.008 -533.203 2130.412 -3599.755 1.091 0.187 0.647 0.03 -0.52 0.85 0.03
1 3.27 327 0.316 -8.562 3.960 0.122 1.373 25.208 -533.203 2130.412 -3599.755 0.430 -0.137 0.490 0.03 -0.52 0.85 0.02
1 3.28 328 0.374 -8.141 3.773 -0.702 3.662 23.834 -443.261 2145.402 -3539.794 0.336 -0.562 0.677 0.03 -0.52 0.85 0.02
1 3.29 329 0.053 -7.944 3.534 -10.559 1.740 22.278 -443.261 2145.402 -3539.794 0.621 -0.763 0.912 0.03 -0.52 0.85 0.02
1 3.30 330 -0.153 -7.781 3.405 -22.827 -1.617 18.433 -398.291 2070.451 -3569.774 0.799 -0.937 1.024 0.03 -0.52 0.85 0.02
1 3.31 331 -0.168 -8.064 2.959 -28.931 -11.047 11.749 -398.291 2100.432 -3569.774 0.793 -0.672 1.437 0.03 -0.52 0.85 0.01
1 3.32 332 -0.086 -8.232 2.892 -25.818 -15.991 7.599 -323.189 1995.500 -3689.846 0.701 -0.525 1.465 0.03 -0.53 0.85 0.01
1 3.33 333 -0.105 -8.399 2.859 -21.454 -18.768 4.944 -368.310 2175.383 -3614.745 0.719 -0.375 1.463 0.03 -0.53 0.85 0.01
1 3.34 334 -0.163 -8.303 2.969 -20.294 -21.912 1.984 -368.310 2175.383 -3614.745 0.788 -0.500 1.291 0.03 -0.53 0.85 0.01
1 3.35 335 -0.163 -8.169 3.065 -24.506 -24.384 0.153 -458.251 2010.490 -3629.735 0.802 -0.648 1.165 0.03 -0.53 0.85 0.01
1 3.36 336 -0.244 -8.337 3.199 -31.128 -26.215 -0.488 -458.251 2010.490 -3629.735 0.900 -0.496 0.995 0.03 -0.53 0.84 0.01
1 3.37 337 0.077 -8.591 3.323 -36.194 -25.726 0.793 -473.242 2100.432 -3359.761 0.594 -0.264 0.823 0.04 -0.54 0.84 0.01
1 3.38 338 0.326 -8.902 3.548 -38.818 -19.165 0.732 -518.212 2175.383 -3389.742 0.355 0.022 0.542 0.04 -0.54 0.84 0.01
1 3.39 339 0.335 -9.433 3.903 -36.041 -11.780 0.122 -488.232 2310.445 -3554.784 0.354 0.529 0.131 0.04 -0.54 0.84 0
1 3.40 340 0.330 -9.979 3.836 -31.128 -4.761 -2.045 -473.242 2220.503 -3359.761 0.365 1.051 0.145 0.04 -0.54 0.84 0
1 3.41 341 0.412 -10.477 4.104 -25.299 0.732 -3.845 -473.242 2220.503 -3359.761 0.287 1.529 -0.170 0.04 -0.55 0.84 0
1 3.42 342 0.230 -10.837 3.836 -16.083 0.854 -4.547 -518.212 2175.383 -3389.742 0.478 1.861 0.034 0.04 -0.55 0.84 0
1 3.43 343 0.278 -11.090 3.673 -11.322 -2.380 -6.317 -518.212 2175.383 -3389.742 0.438 2.107 0.178 0.04 -0.55 0.83 0
1 3.44 344 0.393 -11.354 3.529 -7.507 -2.502 -7.233 -458.251 2130.412 -3404.882 0.335 2.366 0.309 0.04 -0.55 0.83 0
1 3.45 345 0.551 -11.454 3.069 -4.059 -2.197 -3.967 -413.281 2355.416 -3374.751 0.189 2.464 0.761 0.04 -0.55 0.83 0
1 3.46 346 0.254 -11.746 2.490 -1.678 -2.869 -1.129 -548.193 2295.455 -3494.823 0.492 2.756 1.337 0.04 -0.55 0.83 0
1 3.47 347 0.201 -11.823 1.853 -1.648 -3.815 2.594 -518.212 2265.474 -3359.761 0.550 2.832 1.973 0.04 -0.55 0.83 0
1 3.48 348 0.038 -12.034 1.858 2.441 -7.782 11.169 -518.212 2265.474 -3359.761 0.707 3.042 1.967 0.04 -0.55 0.83 0
1 3.49 349 -0.038 -12.067 1.906 9.369 -7.568 14.404 -458.251 2280.464 -3269.820 0.773 3.077 1.925 0.04 -0.55 0.83 0
1 3.50 350 -0.618 -11.837 1.963 18.860 -9.766 14.496 -456.902 2278.216 -3273.567 1.337 2.853 1.884 0.04 -0.55 0.83 0
1 3.51 351 -1.006 -11.694 3.668 34.332 -13.641 14.435 -516.863 2218.105 -3438.460 1.712 2.722 0.210 -0.04 0.55 -0.84 0
1 3.52 352 -0.340 -12.374 6.316 48.584 -12.421 14.069 -411.782 2278.216 -3348.519 1.036 3.424 -2.384 -0.04 0.55 -0.84 0
1 3.53 353 1.082 -12.374 8.854 32.562 7.050 47.119 -381.801 2428.118 -3378.499 -0.402 3.451 -4.859 -0.04 0.54 -0.84 0
1 3.54 354 2.940 -11.378 6.469 8.179 7.477 75.501 -471.893 2173.134 -3438.460 -2.315 2.473 -2.426 -0.04 0.54 -0.84 0.01
1 3.55 355 3.635 -9.970 4.860 -32.318 16.754 75.257 -471.893 2173.134 -3438.460 -3.108 1.070 -0.791 -0.04 0.54 -0.84 0.01
1 3.56 356 3.256 -8.643 4.516 -16.541 43.091 34.546 -441.762 2218.105 -3393.489 -2.939 -0.300 -0.520 -0.03 0.54 -0.84 0.02
1 3.57 357 2.131 -8.543 5.186 10.681 36.377 24.841 -441.762 2218.105 -3393.489 -1.857 -0.404 -1.196 -0.03 0.54 -0.84 0.02
1 3.58 358 1.063 -8.543 5.904 15.137 19.898 27.741 -411.782 2158.144 -3378.499 -0.826 -0.392 -1.886 -0.03 0.54 -0.84 0.02
1 3.59 359 0.287 -8.121 6.244 6.348 11.932 25.177 -411.782 2083.193 -3408.479 -0.090 -0.801 -2.195 -0.02 0.54 -0.84 0.02
1 3.60 360 -0.934 -8.303 6.967 10.681 21.332 17.273 -516.863 2218.105 -3363.509 1.094 -0.609 -2.895 -0.02 0.54 -0.84 0.02
1 3.61 361 -1.475 -8.260 7.518 27.985 22.064 20.538 -486.883 2158.144 -3378.499 1.596 -0.639 -3.415 -0.02 0.54 -0.84 0.02
1 3.62 362 -1.959 -7.801 7.389 46.417 7.141 31.983 -486.883 2158.144 -3378.499 2.039 -1.083 -3.253 -0.02 0.54 -0.84 0.02
1 3.63 363 -1.719 -7.427 7.240 47.241 -10.651 45.136 -246.889 2173.134 -3543.542 1.754 -1.429 -3.045 -0.02 0.53 -0.84 0.02
1 3.64 364 -0.742 -6.589 6.785 11.322 -15.228 53.772 -246.889 2173.134 -3543.542 0.649 -2.197 -2.446 -0.01 0.53 -0.85 0.03
1 3.65 365 -0.129 -6.532 6.651 -6.500 -3.418 53.559 -276.870 2203.115 -3483.581 -0.033 -2.238 -2.281 -0.01 0.53 -0.85 0.03
1 3.66 366 0.661 -6.752 6.503 -5.463 8.423 48.309 -306.850 2203.115 -3528.551 -0.893 -2.010 -2.120 -0.01 0.53 -0.85 0.04
1 3.67 367 0.919 -7.719 6.110 -2.136 12.543 39.246 -321.840 2068.203 -3438.460 -1.214 -1.033 -1.712 -0.01 0.52 -0.85 0.04
1 3.68 368 0.532 -9.716 6.086 -13.123 6.561 26.703 -291.860 2263.076 -3573.522 -0.874 0.971 -1.677 -0.01 0.52 -0.85 0.04
1 3.69 369 -0.148 -10.597 5.742 -9.186 2.502 15.350 -291.860 2263.076 -3573.522 -0.233 1.849 -1.341 -0 0.52 -0.85 0.04
1 3.70 370 -0.441 -10.276 5.052 19.318 -5.981 6.775 -231.899 2233.095 -3408.479 0.032 1.522 -0.666 -0 0.53 -0.85 0.05
1 3.71 371 -0.129 -8.983 4.520 50.903 -24.201 -1.465 -231.899 2233.095 -3408.479 -0.280 0.267 -0.060 -0 0.52 -0.85 0.05
1 3.72 372 0.699 -8.260 4.635 41.840 -32.013 -9.186 -201.769 2128.164 -3408.479 -1.084 -0.422 -0.107 -0.01 0.52 -0.85 0.05
1 3.73 373 1.250 -7.954 4.822 24.658 -32.257 -16.602 -156.798 2308.196 -3453.450 -1.590 -0.702 -0.240 -0.01 0.52 -0.86 0.05
1 3.74 374 1.575 -7.959 4.793 15.595 -25.177 -20.935 -156.798 2308.196 -3453.450 -1.859 -0.681 -0.177 -0.01 0.51 -0.86 0.05
1 3.75 375 1.307 -7.767 4.037 28.351 -11.231 -27.222 -156.798 2053.212 -3558.532 -1.532 -0.860 0.606 -0.02 0.51 -0.86 0.05
1 3.76 376 0.579 -7.216 3.788 46.600 -8.087 -33.539 -156.798 2053.212 -3558.532 -0.746 -1.393 0.891 -0.02 0.51 -0.86 0.05
1 3.77 377 0.024 -6.498 3.649 62.348 -10.956 -38.727 -231.899 2083.193 -3558.532 -0.136 -2.082 1.086 -0.02 0.51 -0.86 0.05
1 3.78 378 -0.081 -5.358 3.917 56.183 -19.806 -41.992 -231.899 2083.193 -3558.532 0.091 -3.129 0.982 -0.02 0.5 -0.87 0.04
1 3.79 379 0.493 -5.181 4.185 26.550 -22.369 -44.495 -276.870 2008.092 -3483.581 -0.412 -3.267 0.780 -0.03 0.5 -0.87 0.04
1 3.80 380 1.590 -5.713 4.353 -12.695 -19.318 -46.600 -516.863 1993.102 -3498.571 -1.432 -2.722 0.635 -0.03 0.49 -0.87 0.04
1 3.81 381 2.562 -7.197 4.324 -44.830 -9.735 -47.394 -516.863 1993.102 -3498.571 -2.330 -1.252 0.636 -0.03 0.5 -0.87 0.03
1 3.82 382 3.304 -9.472 4.094 -41.229 11.017 -40.589 -515.214 2140.006 -3652.071 -3.006 0.989 0.804 -0.04 0.5 -0.87 0.03
1 3.83 383 2.916 -9.946 3.730 -5.035 23.804 -33.356 -515.214 2140.006 -3652.071 -2.547 1.430 1.106 -0.04 0.5 -0.86 0.03
1 3.84 384 2.160 -8.950 3.390 31.860 27.954 -26.825 -545.195 2065.055 -3472.188 -1.759 0.426 1.428 -0.04 0.5 -0.86 0.03
1 3.85 385 1.561 -7.398 3.137 42.999 27.680 -25.208 -545.195 2065.055 -3472.188 -1.136 -1.109 1.710 -0.04 0.5 -0.86 0.02
1 3.86 386 1.106 -5.799 3.098 6.195 20.569 -29.968 -470.244 2065.055 -3577.120 -0.639 -2.654 1.839 -0.04 0.5 -0.87 0.02
1 3.87 387 1.173 -5.914 3.041 -32.654 18.219 -31.067 -380.152 2154.996 -3667.061 -0.681 -2.538 1.894 -0.04 0.5 -0.87 0.01
1 3.88 388 1.365 -6.771 2.978 -56.946 19.562 -31.311 -380.152 2154.996 -3667.061 -0.845 -1.708 1.908 -0.04 0.5 -0.87 0.01
1 3.89 389 1.346 -8.323 2.773 -50.232 25.787 -28.687 -320.191 2140.006 -3652.071 -0.800 -0.197 2.039 -0.04 0.5 -0.86 0.01
1 3.90 390 1.221 -9.017 2.955 -25.726 31.616 -24.017 -320.191 2140.006 -3652.071 -0.654 0.460 1.789 -0.04 0.51 -0.86 0.01
1 3.91 391 1.140 -9.122 3.381 -5.524 36.133 -18.524 -365.162 1945.133 -3652.071 -0.555 0.540 1.314 -0.04 0.51 -0.86 0
1 3.92 392 1.044 -8.878 3.941 -7.050 38.574 -14.252 -365.162 1945.133 -3652.071 -0.454 0.282 0.727 0.03 -0.51 0.86 0
1 3.93 393 0.737 -9.070 4.022 -13.702 38.513 -12.665 -320.191 2140.006 -3547.139 -0.153 0.465 0.631 0.03 -0.51 0.86 0.01
1 3.94 394 0.215 -9.395 3.697 -25.604 35.095 -9.460 -485.234 1960.123 -3487.178 0.358 0.773 0.926 0.03 -0.51 0.86 0.01
1 3.95 395 -0.096 -9.682 3.726 -18.219 29.480 -10.590 -485.234 1960.123 -3487.178 0.657 1.041 0.862 0.03 -0.51 0.86 0.01
1 3.96 396 -0.364 -9.850 3.855 -5.707 20.722 -10.376 -410.133 2125.016 -3412.077 0.915 1.195 0.709 0.03 -0.52 0.86 0.01
1 3.97 397 -0.306 -9.687 4.190 0.763 3.510 -9.827 -410.133 2125.016 -3412.077 0.853 1.027 0.364 0.03 -0.52 0.86 0.01
1 3.98 398 0.072 -9.654 4.233 -6.195 -6.073 -8.820 -230.100 2080.045 -3562.129 0.477 0.992 0.317 0.03 -0.52 0.86 0.01
1 3.99 399 0.503 -9.730 4.166 -14.404 -10.223 -3.235 -230.100 2080.045 -3562.129 0.056 1.064 0.375 0.03 -0.52 0.86 0.01
1 4.00 400 0.939 -10.295 3.840 -17.914 -8.759 2.563 -395.143 2095.035 -3502.168 -0.363 1.604 0.650 0.03 -0.52 0.85 0.01
1 4.01 401 0.886 -10.597 3.620 -12.878 -9.308 3.937 -350.172 2230.097 -3562.129 -0.307 1.892 0.845 0.03 -0.52 0.85 0.01
1 4.02 402 1.006 -11.052 3.539 -5.341 -12.634 4.913 -350.172 2230.097 -3562.129 -0.424 2.340 0.912 0.03 -0.52 0.85 0.01
1 4.03 403 1.231 -11.263 3.510 -0.366 -18.555 9.155 -275.221 2154.996 -3457.198 -0.647 2.548 0.935 0.03 -0.52 0.85 0.01
1 4.04 404 1.853 -11.215 3.271 8.057 -20.722 16.235 -320.191 2215.107 -3502.168 -1.270 2.501 1.175 0.03 -0.52 0.85 0.01
1 4.05 405 2.322 -11.071 3.180 14.313 -17.090 19.013 -470.244 2140.006 -3577.120 -1.744 2.361 1.275 0.03 -0.52 0.85 0.01
1 4.06 406 2.514 -10.535 3.050 22.644 -11.017 20.630 -470.244 2140.006 -3577.120 -1.947 1.833 1.421 0.03 -0.52 0.85 0
1 4.07 407 2.131 -9.654 3.247 34.241 -4.517 18.402 -440.113 2095.035 -3292.155 -1.603 0.984 1.292 0.03 -0.52 0.86 0
1 4.08 408 1.331 -8.864 5.014 39.398 -3.448 10.040 -380.152 2080.045 -3487.178 -0.810 0.213 -0.439 -0.03 0.52 -0.86 0
1 4.09 409 -0.177 -8.610 6.498 33.081 -9.033 -14.710 -380.152 2080.045 -3487.178 0.702 -0.013 -1.872 -0.03 0.51 -0.86 0
1 4.10 410 -1.489 -8.682 7.714 0.092 -30.731 -44.922 -395.143 2140.006 -3547.139 2.055 0.081 -3.051 0.03 -0.51 0.86 0
1 4.11 411 -1.743 -8.706 6.651 -28.656 -50.659 -43.152 -380.152 2050.064 -3607.100 2.397 0.105 -2.000 0.04 -0.51 0.86 0
1 4.12 412 -1.231 -7.834 4.405 -39.642 -54.474 -37.842 -410.133 2080.045 -3667.061 1.978 -0.786 0.196 0.04 -0.51 0.86 0
1 4.13 413 -0.699 -7.245 5.296 -6.348 -45.197 -26.459 -410.133 2080.045 -3667.061 1.519 -1.398 -0.751 0.05 -0.52 0.86 0
1 4.14 414 -0.120 -6.551 7.259 16.632 -29.266 -33.600 -470.244 2170.136 -3442.058 1.005 -2.099 -2.739 0.05 -0.52 0.85 0
1 4.15 415 1.408 -6.795 8.414 -8.148 -23.773 -44.098 -515.214 2140.006 -3622.090 -0.400 -1.808 -3.829 0.06 -0.51 0.86 0
1 4.16 416 2.514 -7.671 8.165 -45.563 -32.837 -44.861 -515.214 2140.006 -3622.090 -1.431 -0.928 -3.592 0.06 -0.51 0.86 0.01
1 4.17 417 3.749 -8.945 8.414 -67.444 -41.596 -52.429 -575.175 2140.006 -3577.120 -2.579 0.317 -3.916 0.06 -0.52 0.85 0.01
1 4.18 418 4.808 -10.051 8.490 -46.326 -27.008 -59.784 -605.156 2050.064 -3457.198 -3.538 1.390 -4.085 0.07 -0.52 0.85 0.01
1 4.19 419 4.185 -10.286 7.307 21.820 6.805 -64.026 -560.185 2200.117 -3382.097 -2.819 1.614 -2.951 0.07 -0.52 0.85 0.01
1 4.20 420 2.706 -9.343 6.407 37.567 6.683 -54.962 -560.185 2200.117 -3382.097 -1.255 0.693 -2.034 0.08 -0.52 0.85 0.02
1 4.21 421 1.403 -8.193 6.369 21.210 -2.380 -47.791 -680.107 2200.117 -3382.097 0.120 -0.418 -1.945 0.08 -0.52 0.85 0.02
1 4.22 422 1.221 -8.557 6.709 -22.369 -0.610 -46.570 -770.198 2095.035 -3442.058 0.431 -0.004 -2.236 0.08 -0.51 0.85 0.03
1 4.23 423 1.504 -9.836 6.589 -31.464 3.601 -30.975 -769.749 2092.787 -3445.206 0.203 1.272 -2.141 0.08 -0.52 0.85 0.03
1 4.24 424 1.743 -10.808 6.043 -16.754 3.357 -6.165 -784.739 2047.816 -3415.225 -0.005 2.231 -1.631 0.08 -0.52 0.85 0.03
1 4.25 425 1.580 -10.506 5.689 8.881 4.578 17.395 -784.739 2122.767 -3490.176 0.155 1.923 -1.288 0.08 -0.52 0.85 0.03
1 4.26 426 0.804 -9.060 5.430 23.926 9.430 31.525 -814.719 2122.767 -3415.225 0.900 0.482 -1.008 0.08 -0.52 0.85 0.03
1 4.27 427 0.196 -8.366 5.234 14.038 11.261 28.809 -814.719 2122.767 -3415.225 1.462 -0.203 -0.777 0.08 -0.52 0.85 0.03
1 4.28 428 -0.220 -7.925 4.832 5.951 10.864 26.917 -694.797 2167.888 -3475.186 1.825 -0.638 -0.344 0.08 -0.51 0.85 0.03
1 4.29 429 -0.048 -6.929 4.348 15.900 9.308 26.093 -784.739 2197.868 -3490.176 1.546 -1.633 0.178 0.07 -0.51 0.85 0.03
1 4.30 430 0.077 -6.163 4.372 32.654 13.367 23.651 -784.739 2197.868 -3490.176 1.382 -2.390 0.184 0.07 -0.51 0.86 0.02
1 4.31 431 0.120 -5.684 4.516 43.671 22.064 23.926 -859.840 2122.767 -3535.147 1.297 -2.848 0.093 0.07 -0.51 0.86 0.02
1 4.32 432 -0.139 -5.205 4.449 39.307 30.304 27.710 -724.778 2137.757 -3445.206 1.507 -3.300 0.224 0.07 -0.51 0.86 0.02
1 4.33 433 -0.872 -4.851 4.070 17.487 32.868 33.417 -634.836 1957.875 -3610.098 2.179 -3.634 0.655 0.07 -0.5 0.86 0.02
1 4.34 434 -1.681 -5.196 3.620 -32.440 25.665 41.077 -634.836 1957.875 -3610.098 2.920 -3.288 1.126 0.06 -0.5 0.86 0.02
1 4.35 435 -2.030 -5.751 3.611 -57.709 17.883 44.159 -514.765 2092.787 -3445.206 3.199 -2.757 1.111 0.06 -0.51 0.86 0.02
1 4.36 436 -1.820 -6.795 3.702 -60.364 9.003 38.788 -769.749 2137.757 -3550.137 2.853 -1.809 0.874 0.05 -0.51 0.86 0.01
1 4.37 437 -1.494 -7.920 3.711 -51.758 7.507 35.614 -769.749 2137.757 -3550.137 2.473 -0.728 0.793 0.05 -0.52 0.85 0.01
1 4.38 438 -0.656 -9.649 3.697 -16.052 -0.061 28.565 -514.765 2062.806 -3580.118 1.576 0.970 0.762 0.05 -0.52 0.85 0.01
1 4.39 439 -0.129 -9.826 3.644 -2.106 -10.712 27.039 -649.827 2287.810 -3580.118 1.001 1.132 0.793 0.05 -0.52 0.85 0.01
1 4.40 440 0.283 -9.295 3.673 1.740 -20.294 26.856 -439.813 2212.858 -3400.235 0.555 0.592 0.755 0.05 -0.52 0.85 0
1 4.41 441 0.804 -8.102 3.405 -6.622 -24.262 21.393 -439.813 2212.858 -3400.235 0.008 -0.606 1.016 0.05 -0.52 0.85 0
1 4.42 442 0.924 -7.925 2.983 -16.022 -21.851 17.975 -514.765 2092.787 -3400.235 -0.126 -0.791 1.424 -0.05 0.52 -0.85 0
1 4.43 443 0.824 -7.805 2.888 -24.933 -22.034 15.137 -544.745 2257.829 -3445.206 -0.034 -0.922 1.500 -0.05 0.52 -0.85 0
1 4.44 444 0.632 -8.097 2.902 -31.952 -27.649 8.759 -544.745 2257.829 -3445.206 0.152 -0.666 1.413 -0.05 0.53 -0.85 0.01
1 4.45 445 0.608 -8.126 2.595 -31.799 -30.029 4.456 -469.794 2332.780 -3580.118 0.185 -0.659 1.674 -0.05 0.53 -0.85 0.01
1 4.46 446 0.417 -8.289 2.691 -30.335 -30.823 2.136 -544.745 2362.761 -3400.235 0.392 -0.517 1.534 -0.05 0.53 -0.85 0.01
1 4.47 447 -0.129 -8.509 2.715 -27.924 -29.572 -0.214 -544.745 2362.761 -3400.235 0.955 -0.315 1.467 -0.06 0.53 -0.84 0.01
1 4.48 448 -0.263 -8.888 3.055 -25.421 -30.243 -3.845 -604.706 2347.771 -3415.225 1.107 0.045 1.084 -0.06 0.53 -0.84 0.01
1 4.49 449 -0.350 -9.204 3.486 -23.682 -31.738 -5.219 -559.735 2302.800 -3415.225 1.210 0.341 0.608 -0.06 0.54 -0.84 0.01
1 4.50 450 -0.326 -9.515 3.553 -22.522 -33.447 -5.951 -574.726 2362.761 -3445.206 1.205 0.635 0.499 -0.06 0.54 -0.84 0.01
1 4.51 451 0.105 -9.955 3.649 -16.388 -33.264 -5.371 -574.726 2362.761 -3445.206 0.813 1.047 0.331 -0.07 0.54 -0.84 0.02
1 4.52 452 0.541 -10.396 3.764 -10.712 -29.083 -3.601 -709.788 2377.751 -3415.225 0.397 1.477 0.187 -0.07 0.54 -0.84 0.02
1 4.53 453 0.900 -10.707 3.836 -5.768 -20.050 0.214 -784.739 2497.823 -3355.114 0.059 1.784 0.100 -0.07 0.54 -0.84 0.02
1 4.54 454 0.982 -11.062 3.903 -4.639 -6.348 7.324 -784.589 2497.223 -3356.763 -0.014 2.135 0.025 -0.07 0.54 -0.84 0.02
1 4.55 455 0.953 -11.382 3.821 -7.599 7.996 12.238 -694.647 2332.181 -3326.783 0.005 2.452 0.100 -0.07 0.54 -0.84 0.02
1 4.56 456 0.306 -11.675 3.290 -12.970 21.088 13.245 -814.569 2302.200 -3461.845 0.628 2.738 0.623 -0.07 0.54 -0.84 0.02
1 4.57 457 -0.014 -12.173 2.744 -11.414 19.623 14.069 -634.537 2347.171 -3461.845 0.919 3.228 1.156 -0.07 0.54 -0.84 0.02
1 4.58 458 0.101 -12.340 2.126 -4.303 9.338 14.679 -634.537 2347.171 -3461.845 0.774 3.387 1.761 -0.07 0.55 -0.84 0.02
1 4.59 459 0.546 -12.402 1.614 17.273 -6.622 10.071 -619.546 2482.233 -3506.815 0.285 3.447 2.277 -0.07 0.55 -0.84 0.02
1 4.60 460 0.383 -12.268 2.088 32.745 -9.094 7.568 -769.599 2512.213 -3401.884 0.440 3.325 1.833 -0.07 0.54 -0.84 0.02
1 4.61 461 0.273 -11.933 5.085 48.859 -7.629 6.989 -769.599 2512.213 -3401.884 0.547 3.011 -1.115 -0.07 0.54 -0.84 0.02
1 4.62 462 1.073 -13.173 8.337 49.164 4.974 9.888 -649.527 2482.233 -3506.815 -0.258 4.284 -4.294 -0.07 0.54 -0.84 0.03
1 4.63 463 3.338 -12.857 9.189 1.312 38.513 58.472 -724.628 2362.161 -3371.753 -2.550 3.990 -5.091 -0.06 0.54 -0.84 0.03
1 4.64 464 4.051 -12.153 5.588 -33.569 39.307 79.254 -814.569 2467.243 -3461.845 -3.350 3.285 -1.477 -0.06 0.54 -0.84 0.03
1 4.65 465 4.195 -9.989 2.600 -31.189 56.336 60.181 -814.569 2467.243 -3461.845 -3.622 1.099 1.484 -0.06 0.54 -0.84 0.03
1 4.66 466 2.433 -7.844 2.926 45.441 57.099 19.348 -724.628 2287.210 -3401.884 -2.057 -1.074 1.121 -0.04 0.54 -0.84 0.03
1 4.67 467 0.857 -6.934 5.301 69.794 38.208 13.458 -544.595 2437.112 -3476.835 -0.526 -1.952 -1.181 -0.04 0.54 -0.84 0.03
1 4.68 468 0.091 -6.709 7.245 45.227 28.870 14.465 -544.595 2437.112 -3476.835 0.200 -2.134 -3.032 -0.04 0.53 -0.84 0.03
1 4.69 469 -0.460 -6.953 8.165 -9.674 35.370 14.191 -574.576 2437.112 -3371.753 0.712 -1.859 -3.884 -0.04 0.53 -0.85 0.03
1 4.70 470 -1.647 -7.916 7.590 -48.371 43.976 10.742 -348.523 2300.851 -3494.224 1.853 -0.896 -3.306 -0.03 0.53 -0.85 0.03
1 4.71 471 -1.815 -8.595 6.934 -18.036 32.044 19.898 -348.523 2375.952 -3614.146 1.977 -0.247 -2.712 -0.03 0.53 -0.85 0.03
1 4.72 472 -1.374 -8.481 6.469 36.682 6.683 39.093 -348.523 2375.952 -3614.146 1.492 -0.380 -2.284 -0.03 0.53 -0.84 0.03
1 4.73 473 -0.043 -6.733 6.848 74.402 -6.775 45.960 -438.464 2360.962 -3554.185 0.040 -2.062 -2.523 -0.02 0.53 -0.85 0.04
1 4.74 474 0.867 -5.674 7.350 45.258 10.315 41.168 -273.422 2420.923 -3494.224 -0.929 -3.062 -2.912 -0.02 0.52 -0.85 0.04
1 4.75 475 1.408 -5.081 7.240 -0.824 29.175 33.753 -273.422 2420.923 -3494.224 -1.528 -3.619 -2.730 -0.02 0.52 -0.85 0.04
1 4.76 476 1.389 -6.019 6.474 -36.865 33.234 25.757 -273.422 2375.952 -3614.146 -1.561 -2.672 -1.950 -0.02 0.52 -0.85 0.04
1 4.77 477 0.958 -8.581 6.163 -57.862 26.520 20.813 -318.393 2405.933 -3584.165 -1.171 -0.128 -1.674 -0.01 0.52 -0.85 0.04
1 4.78 478 -0.096 -12.067 5.622 -30.396 19.928 5.035 -198.471 2495.874 -3539.194 -0.149 3.327 -1.197 -0.01 0.52 -0.85 0.04
1 4.79 479 -0.575 -11.842 5.655 27.344 9.491 4.608 -198.471 2495.874 -3539.194 0.306 3.075 -1.284 -0.01 0.53 -0.85 0.04
1 4.80 480 -0.421 -8.950 5.066 63.568 -14.282 8.270 -168.490 2510.864 -3554.185 0.131 0.232 -0.599 -0.01 0.52 -0.85 0.04
1 4.81 481 -0.354 -8.366 4.918 53.681 -20.722 3.357 -198.471 2375.952 -3494.224 0.068 -0.310 -0.369 -0.01 0.52 -0.85 0.04
1 4.82 482 0.388 -7.662 4.635 11.871 -30.487 -11.749 -198.471 2375.952 -3494.224 -0.648 -0.989 -0.038 -0.01 0.52 -0.86 0.05
1 4.83 483 0.704 -7.805 4.664 0.519 -31.891 -16.876 -138.510 2360.962 -3734.217 -0.919 -0.838 -0.050 -0.01 0.51 -0.86 0.05
1 4.84 484 1.144 -8.184 4.616 8.301 -29.205 -18.707 -153.500 2225.900 -3539.194 -1.308 -0.457 0.005 -0.02 0.51 -0.86 0.05
1 4.85 485 0.752 -8.064 4.468 39.520 -17.365 -18.799 -243.441 2285.861 -3704.237 -0.860 -0.566 0.174 -0.02 0.51 -0.86 0.05
1 4.86 486 0.115 -7.216 4.233 55.756 -11.810 -17.487 -243.441 2285.861 -3704.237 -0.174 -1.389 0.456 -0.02 0.51 -0.86 0.04
1 4.87 487 -0.393 -6.230 3.864 60.822 -12.756 -19.959 -198.471 2270.871 -3674.256 0.370 -2.337 0.895 -0.02 0.51 -0.86 0.04
1 4.88 488 0.220 -5.057 3.668 35.950 -24.536 -26.032 -288.412 2330.981 -3629.286 -0.164 -3.424 1.243 -0.03 0.5 -0.87 0.04
1 4.89 489 1.408 -5.224 3.970 -0.031 -30.243 -31.189 -288.412 2330.981 -3629.286 -1.296 -3.234 0.978 -0.03 0.5 -0.87 0.04
1 4.90 490 2.835 -6.144 4.214 -37.995 -27.130 -33.783 -348.523 2075.848 -3719.227 -2.657 -2.321 0.721 -0.03 0.5 -0.87 0.04
1 4.91 491 3.816 -7.633 4.329 -59.906 -11.261 -35.034 -348.523 2075.848 -3719.227 -3.576 -0.864 0.548 -0.04 0.5 -0.86 0.04
1 4.92 492 3.280 -9.668 3.754 -42.908 19.623 -34.241 -378.503 2195.919 -3719.227 -2.975 1.129 1.045 -0.04 0.5 -0.86 0.04
1 4.93 493 1.997 -9.659 3.318 -5.981 29.053 -26.917 -378.503 2195.919 -3719.227 -1.629 1.085 1.413 -0.04 0.51 -0.86 0.03
1 4.94 494 0.642 -8.399 2.950 25.299 23.895 -20.660 -348.523 2270.871 -3719.227 -0.255 -0.184 1.764 -0.04 0.51 -0.86 0.03
1 4.95 495 0.306 -6.441 2.931 19.806 8.057 -23.316 -438.464 2255.880 -3734.217 0.117 -2.111 1.836 -0.04 0.51 -0.86 0.02
1 4.96 496 0.838 -6.086 3.213 -11.108 3.448 -27.771 -438.464 2255.880 -3734.217 -0.387 -2.454 1.572 -0.04 0.5 -0.86 0.02
1 4.97 497 1.101 -6.647 3.433 -40.711 7.172 -27.313 -288.412 2285.861 -3659.266 -0.616 -1.905 1.329 -0.04 0.51 -0.86 0.02
1 4.98 498 1.432 -7.571 3.520 -50.110 12.238 -25.848 -288.412 2285.861 -3659.266 -0.916 -1.011 1.185 -0.04 0.51 -0.86 0.02
1 4.99 499 1.336 -8.423 3.180 -36.896 17.578 -23.254 -288.412 2285.861 -3734.217 -0.796 -0.190 1.464 -0.04 0.51 -0.86 0.02
1 5.00 500 1.168 -8.878 3.371 -0.885 24.536 -19.562 -288.412 2285.861 -3734.217 -0.604 0.242 1.227 -0.04 0.51 -0.86 0.01
1 5.01 501 1.006 -8.634 3.649 12.695 27.771 -16.785 -468.445 2285.861 -3659.266 -0.425 -0.008 0.936 -0.04 0.51 -0.86 0.01
1 5.02 502 0.996 -8.471 3.979 10.132 27.680 -14.252 -378.503 2300.851 -3569.175 -0.405 -0.165 0.616 -0.04 0.51 -0.86 0.01
1 5.03 503 0.407 -8.576 4.415 -8.789 23.224 -9.552 -378.503 2300.851 -3569.175 0.188 -0.050 0.196 -0.04 0.51 -0.86 0
1 5.04 504 0.172 -8.634 4.065 -15.656 17.273 -4.425 -303.402 2195.919 -3644.276 0.418 -0.000 0.533 -0.04 0.51 -0.86 0
1 5.05 505 0.034 -8.730 3.754 -15.350 9.918 -0.977 -303.402 2195.919 -3644.276 0.549 0.085 0.824 -0.04 0.51 -0.86 0
1 5.06 506 0.072 -8.734 3.558 -14.099 2.716 -1.099 -408.484 2420.923 -3674.256 0.504 0.077 0.999 -0.04 0.52 -0.86 0
1 5.07 507 0.388 -9.137 3.788 -18.707 -2.563 0.244 -408.484 2420.923 -3674.256 0.185 0.467 0.745 -0.04 0.52 -0.86 0
1 5.08 508 0.594 -9.702 3.931 -25.879 -3.784 1.862 -348.523 2420.923 -3674.256 -0.021 1.018 0.574 -0.04 0.52 -0.85 0
1 5.09 509 0.795 -10.449 3.979 -29.663 -4.211 4.578 -288.412 2435.913 -3479.233 -0.222 1.746 0.489 -0.04 0.52 -0.85 0
1 5.10 510 0.905 -11.406 3.606 -17.365 -7.904 8.545 -288.412 2435.913 -3479.233 -0.338 2.663 0.784 -0.04 0.52 -0.85 0
1 5.11 511 1.250 -11.823 3.424 -0.793 -10.468 9.827 -438.464 2330.981 -3764.198 -0.689 3.071 0.949 -0.04 0.52 -0.85 0
1 5.12 512 1.484 -11.871 3.477 15.533 -11.963 11.536 -438.464 2330.981 -3764.198 -0.929 3.121 0.902 -0.04 0.52 -0.85 0.01
1 5.13 513 1.719 -11.665 3.400 26.733 -9.033 14.435 -363.513 2360.962 -3659.266 -1.172 2.927 1.004 -0.04 0.52 -0.85 0.01
1 5.14 514 1.891 -10.722 3.084 30.396 -3.235 17.792 -228.451 2345.972 -3674.256 -1.358 2.002 1.358 -0.04 0.52 -0.85 0.01
1 5.15 515 2.045 -10.305 2.854 29.511 2.808 17.212 -363.513 2405.933 -3659.266 -1.531 1.606 1.630 -0.04 0.52 -0.85 0.01
1 5.16 516 1.810 -9.635 2.653 28.717 8.514 15.045 -438.464 2360.962 -3659.266 -1.320 0.956 1.872 -0.04 0.52 -0.85 0.01
1 5.17 517 0.967 -8.667 3.749 21.607 9.796 9.979 -438.464 2360.962 -3659.266 -0.510 0.016 0.831 -0.03 0.51 -0.86 0.01
1 5.18 518 -0.330 -8.940 5.981 21.515 2.869 -4.272 -318.393 2330.981 -3704.237 0.777 0.300 -1.378 -0.03 0.51 -0.86 0.01
1 5.19 519 -2.011 -9.682 7.868 -6.195 -14.069 -44.495 -318.393 2330.981 -3704.237 2.473 1.059 -3.236 -0.03 0.51 -0.86 0.01
1 5.20 520 -2.069 -10.793 7.595 -39.826 -42.481 -61.371 -348.523 2345.972 -3824.159 2.615 2.162 -2.985 -0.04 0.51 -0.86 0.01
1 5.21 521 -1.954 -10.827 5.354 -37.995 -59.143 -43.488 -123.520 2270.871 -3674.256 2.610 2.173 -0.802 -0.04 0.52 -0.86 0.01
1 5.22 522 0.120 -9.247 4.841 16.724 -70.954 -28.748 -288.412 2330.981 -3809.168 0.636 0.576 -0.337 -0.05 0.52 -0.85 0
1 5.23 523 0.819 -7.738 6.852 43.640 -48.706 -21.057 -348.523 2225.900 -3824.159 0.024 -0.926 -2.351 -0.05 0.52 -0.85 0.01
1 5.24 524 1.915 -6.924 7.781 3.510 -25.787 -24.078 -348.523 2225.900 -3824.159 -0.955 -1.670 -3.170 -0.06 0.51 -0.86 0.01
1 5.25 525 2.260 -7.145 7.403 -19.989 -32.013 -23.316 -483.435 2375.952 -3794.178 -1.242 -1.437 -2.782 -0.06 0.51 -0.86 0
1 5.26 526 4.156 -8.423 7.609 -59.174 -54.505 -21.118 -483.435 2375.952 -3794.178 -3.064 -0.176 -3.038 -0.07 0.51 -0.86 0
1 5.27 527 5.507 -8.878 8.270 -35.339 -36.682 -22.675 -513.416 2285.861 -3809.168 -4.350 0.244 -3.780 -0.07 0.52 -0.85 0
1 5.28 528 5.574 -8.423 8.006 14.008 -1.465 -29.907 -558.386 2300.851 -3749.208 -4.365 -0.221 -3.551 -0.07 0.52 -0.85 0
1 5.29 529 3.831 -7.312 6.800 50.415 20.966 -45.777 -468.445 2480.884 -3734.217 -2.582 -1.308 -2.309 -0.08 0.52 -0.85 0
1 5.30 530 2.270 -6.690 6.484 27.649 10.132 -51.575 -678.458 2345.972 -3749.208 -0.977 -1.887 -1.923 0.08 -0.51 0.86 0
1 5.31 531 1.149 -6.709 6.647 -10.254 -1.465 -55.512 -678.458 2345.972 -3749.208 0.217 -1.822 -2.020 0.08 -0.51 0.86 0.01
1 5.32 532 0.383 -8.375 7.039 -42.420 5.981 -58.228 -693.448 2360.962 -3734.217 1.133 -0.133 -2.418 0.08 -0.51 0.86 0.01
1 5.33 533 -0.072 -9.936 6.522 -31.952 12.695 -53.864 -693.448 2360.962 -3734.217 1.654 1.418 -1.943 0.08 -0.51 0.86 0.02
1 5.34 534 -0.192 -10.894 6.029 -3.113 6.622 -36.377 -603.507 2345.972 -3794.178 1.832 2.371 -1.479 0.08 -0.51 0.86 0.02
1 5.35 535 -0.029 -10.554 5.866 25.635 -7.202 -10.895 -738.419 2300.851 -3719.227 1.707 2.043 -1.307 0.08 -0.51 0.86 0.03
1 5.36 536 0.383 -8.849 6.110 28.473 -4.181 11.444 -543.396 2405.933 -3839.149 1.309 0.361 -1.515 0.09 -0.51 0.86 0.03
1 5.37 537 0.249 -8.145 5.746 13.397 9.552 18.036 -768.399 2405.933 -3764.198 1.437 -0.323 -1.111 0.09 -0.51 0.86 0.03
1 5.38 538 -0.278 -7.710 5.167 3.021 17.487 22.339 -768.549 2406.232 -3763.598 1.927 -0.747 -0.498 0.08 -0.5 0.86 0.02
1 5.39 539 -0.230 -7.231 4.386 10.010 16.235 25.879 -813.520 2226.200 -3853.540 1.772 -1.227 0.317 0.08 -0.5 0.86 0.02
1 5.40 540 -0.096 -6.934 4.439 21.362 15.900 26.886 -813.520 2226.200 -3853.540 1.593 -1.520 0.287 0.08 -0.5 0.86 0.02
1 5.41 541 0.273 -6.551 4.506 26.215 19.806 29.144 -768.549 2256.180 -3733.468 1.177 -1.892 0.254 0.07 -0.5 0.86 0.02
1 5.42 542 0.292 -6.345 4.468 21.301 25.147 33.447 -723.579 2256.180 -3808.569 1.104 -2.084 0.332 0.07 -0.5 0.86 0.02
1 5.43 543 0.072 -6.125 4.133 5.890 29.877 38.605 -633.487 2301.151 -3898.510 1.261 -2.298 0.697 0.07 -0.5 0.86 0.02
1 5.44 544 -0.474 -5.933 3.869 -22.827 32.776 47.913 -573.526 2211.209 -3838.549 1.732 -2.495 0.970 0.07 -0.5 0.86 0.02
1 5.45 545 -0.991 -6.220 3.951 -37.933 30.090 50.018 -573.526 2211.209 -3838.549 2.165 -2.229 0.873 0.06 -0.5 0.86 0.01
1 5.46 546 -1.140 -6.881 4.061 -44.495 25.299 47.058 -528.556 2196.219 -3793.579 2.227 -1.602 0.724 0.06 -0.5 0.86 0.01
1 5.47 547 -0.603 -8.495 4.118 -39.398 18.189 36.957 -528.556 2196.219 -3793.579 1.539 -0.064 0.562 0.05 -0.51 0.86 0.01
1 5.48 548 -0.249 -9.548 3.931 -25.635 14.374 31.921 -468.445 2331.281 -3763.598 1.115 0.957 0.703 0.05 -0.51 0.86 0.01
1 5.49 549 0.005 -9.941 3.922 -8.759 7.324 28.748 -513.565 2406.232 -3808.569 0.802 1.327 0.682 0.05 -0.51 0.86 0
1 5.50 550 -0.057 -9.199 3.764 6.805 -0.305 24.902 -318.393 2436.213 -3703.787 0.817 0.575 0.828 0.04 -0.51 0.86 0
1 5.51 551 -0.350 -7.944 3.534 9.247 -11.414 19.409 -363.363 2436.213 -3808.719 1.073 -0.680 1.063 0.04 -0.51 0.86 0
1 5.52 552 -0.244 -7.408 3.539 -3.754 -15.930 13.947 -363.363 2436.213 -3808.719 0.942 -1.214 1.067 -0.04 0.51 -0.86 0
1 5.53 553 -0.254 -7.437 3.371 -19.470 -18.494 9.033 -438.314 2406.232 -3958.771 0.942 -1.186 1.234 -0.04 0.51 -0.86 0
1 5.54 554 0.038 -8.083 3.036 -30.335 -22.644 4.242 -438.314 2406.232 -3958.771 0.657 -0.571 1.511 -0.04 0.52 -0.86 0
1 5.55 555 -0.053 -8.346 2.701 -27.832 -26.611 3.632 -393.344 2361.112 -3808.719 0.760 -0.328 1.804 -0.05 0.52 -0.85 0.01
1 5.56 556 -0.101 -8.610 2.639 -20.233 -28.137 4.334 -213.311 2436.213 -3883.670 0.821 -0.082 1.830 -0.05 0.52 -0.85 0.01
1 5.57 557 -0.369 -8.457 2.428 -14.435 -30.609 4.547 -213.311 2436.213 -3883.670 1.099 -0.254 2.004 -0.05 0.52 -0.85 0.01
1 5.58 558 -0.560 -8.409 2.811 -14.648 -33.264 3.662 -393.344 2481.184 -3913.650 1.303 -0.314 1.595 -0.05 0.52 -0.85 0.01
1 5.59 559 -0.436 -8.581 3.285 -19.165 -33.417 2.167 -393.344 2481.184 -3913.650 1.189 -0.156 1.089 -0.05 0.52 -0.85 0.01
1 5.60 560 -0.345 -8.792 3.572 -24.780 -30.975 3.448 -483.435 2421.223 -3898.660 1.108 0.038 0.767 -0.05 0.53 -0.85 0.01
1 5.61 561 -0.101 -9.539 3.534 -27.344 -29.450 8.911 -483.435 2421.223 -3898.660 0.877 0.746 0.723 -0.06 0.53 -0.85 0.02
1 5.62 562 0.005 -9.975 3.366 -24.262 -28.442 11.688 -678.308 2466.193 -3748.758 0.771 1.161 0.847 -0.06 0.53 -0.85 0.02
1 5.63 563 0.306 -10.286 3.654 -18.005 -27.008 10.651 -528.406 2541.145 -3793.729 0.467 1.452 0.519 -0.06 0.53 -0.84 0.02
1 5.64 564 0.752 -10.616 3.951 -11.871 -21.057 10.651 -528.406 2541.145 -3793.729 0.022 1.770 0.194 -0.06 0.53 -0.84 0.02
1 5.65 565 1.053 -10.942 4.085 -7.599 -12.695 11.108 -603.357 2616.096 -3793.729 -0.281 2.088 0.045 -0.06 0.53 -0.84 0.02
1 5.66 566 1.068 -11.172 4.022 -3.510 0.610 11.444 -603.357 2616.096 -3793.729 -0.304 2.313 0.098 -0.06 0.53 -0.84 0.02
1 5.67 567 0.599 -11.234 3.424 1.099 5.981 11.353 -573.376 2631.236 -3763.748 0.151 2.372 0.692 -0.06 0.54 -0.84 0.02
1 5.68 568 0.072 -10.856 2.251 9.949 0.763 9.155 -573.376 2631.236 -3763.748 0.643 1.996 1.876 -0.06 0.53 -0.84 0.02
1 5.69 569 0.158 -10.813 2.016 12.329 -2.655 8.057 -648.328 2586.115 -3733.768 0.547 1.959 2.127 -0.06 0.53 -0.84 0.03
1 5.70 570 -0.369 -10.564 1.796 16.388 -11.200 8.728 -483.435 2541.145 -3853.689 1.068 1.720 2.368 -0.06 0.53 -0.84 0.03
1 5.71 571 -0.599 -10.583 4.525 18.890 -12.634 10.254 -483.435 2541.145 -3853.689 1.286 1.739 -0.359 -0.06 0.53 -0.84 0.03
1 5.72 572 0.096 -12.441 7.858 19.745 -1.129 10.864 -678.308 2541.145 -3793.729 0.581 3.606 -3.670 -0.06 0.53 -0.84 0.03
1 5.73 573 3.108 -14.203 9.831 -31.860 35.217 65.705 -678.308 2541.145 -3793.729 -2.454 5.373 -5.630 -0.06 0.53 -0.84 0.03
1 5.74 574 4.516 -13.609 6.101 -32.837 38.117 97.351 -483.435 2541.145 -3973.761 -3.951 4.756 -1.936 -0.05 0.53 -0.84 0.03
1 5.75 575 4.918 -10.750 3.103 -18.250 46.875 79.712 -483.435 2541.145 -3973.761 -4.502 1.871 1.023 -0.05 0.54 -0.84 0.04
1 5.76 576 3.060 -8.107 2.380 47.241 53.131 23.712 -528.406 2616.096 -3973.761 -2.890 -0.783 1.741 -0.04 0.54 -0.84 0.04
1 5.77 577 1.082 -7.288 4.353 55.359 34.760 16.327 -408.334 2616.096 -3898.660 -0.946 -1.573 -0.170 -0.03 0.53 -0.84 0.04
1 5.78 578 -0.057 -7.365 6.517 17.914 22.614 13.275 -408.334 2616.096 -3898.660 0.153 -1.464 -2.266 -0.03 0.53 -0.85 0.04
1 5.79 579 -0.713 -8.476 7.561 -36.621 30.212 7.019 -438.314 2556.135 -3838.699 0.778 -0.343 -3.287 -0.03 0.53 -0.85 0.04
1 5.80 580 -2.275 -10.348 6.996 -62.012 47.272 -3.021 -303.402 2646.226 -3793.729 2.309 1.505 -2.774 -0.03 0.53 -0.84 0.04
1 5.81 581 -3.165 -11.009 6.316 -12.482 34.851 5.066 -213.311 2556.135 -3733.768 3.173 2.124 -2.180 -0.02 0.54 -0.84 0.04
1 5.82 582 -3.486 -10.401 6.014 60.608 2.502 24.567 -213.311 2556.135 -3733.768 3.466 1.499 -1.915 -0.02 0.54 -0.84 0.03
1 5.83 583 -2.126 -7.532 6.551 110.169 -40.711 41.748 -303.402 2616.096 -3823.709 2.040 -1.276 -2.256 -0.02 0.53 -0.85 0.04
1 5.84 584 -0.034 -5.923 7.207 73.303 -40.589 45.868 11.542 2511.164 -3808.719 -0.088 -2.810 -2.762 -0.02 0.52 -0.85 0.04
1 5.85 585 1.920 -4.568 7.418 12.054 -18.555 49.042 11.542 2511.164 -3808.719 -2.083 -4.112 -2.871 -0.02 0.52 -0.85 0.05
1 5.86 586 2.725 -4.860 6.934 -33.630 8.148 44.983 -168.340 2436.213 -3913.650 -2.930 -3.803 -2.358 -0.02 0.52 -0.85 0.05
1 5.87 587 1.949 -7.978 5.684 -56.000 19.959 38.788 -108.379 2406.232 -3913.650 -2.200 -0.698 -1.134 -0.02 0.52 -0.85 0.05
1 5.88 588 0.862 -10.137 5.354 -39.520 10.956 31.555 -78.399 2496.174 -3973.761 -1.160 1.434 -0.858 -0.02 0.52 -0.85 0.05
1 5.89 589 0.034 -10.999 5.473 -0.427 1.923 19.959 -78.399 2496.174 -3973.761 -0.371 2.271 -1.031 -0.01 0.52 -0.85 0.06
1 5.90 590 -0.374 -10.248 5.339 43.518 -6.866 10.712 11.542 2511.164 -3838.699 0.003 1.513 -0.911 -0.01 0.52 -0.85 0.06
1 5.91 591 0.158 -8.136 4.688 66.834 -22.461 -0.702 -63.409 2511.164 -3838.699 -0.537 -0.530 -0.127 -0.01 0.52 -0.85 0.06
1 5.92 592 0.608 -7.255 4.473 46.143 -28.961 -8.942 -63.409 2511.164 -3838.699 -0.963 -1.365 0.176 -0.01 0.51 -0.86 0.06
1 5.93 593 1.149 -6.896 4.549 19.562 -31.372 -17.456 11.542 2511.164 -3913.650 -1.466 -1.696 0.155 -0.02 0.51 -0.86 0.06
1 5.94 594 1.312 -7.058 4.755 2.930 -29.633 -22.766 -123.370 2466.193 -4003.742 -1.580 -1.522 -0.029 -0.02 0.51 -0.86 0.06
1 5.95 595 1.044 -7.513 4.219 5.127 -20.142 -24.719 -138.360 2436.213 -3913.650 -1.261 -1.067 0.512 -0.02 0.51 -0.86 0.06
1 5.96 596 0.335 -7.537 3.802 19.501 -14.984 -28.046 -138.360 2436.213 -3913.650 -0.504 -1.041 0.934 -0.02 0.51 -0.86 0.06
1 5.97 597 -0.278 -7.202 3.582 35.736 -14.130 -31.159 -108.379 2286.161 -3913.650 0.157 -1.365 1.176 -0.03 0.51 -0.86 0.06
1 5.98 598 -0.546 -6.364 3.596 39.978 -25.024 -31.769 -198.321 2466.193 -4003.742 0.532 -2.147 1.261 -0.03 0.5 -0.86 0.05
1 5.99 599 -0.172 -5.981 3.850 23.102 -34.454 -33.447 -198.321 2466.193 -4003.742 0.221 -2.502 1.057 -0.03 0.5 -0.86 0.05
1 6.00 600 0.886 -6.211 4.089 -6.531 -35.065 -34.485 -318.393 2406.232 -4093.683 -0.766 -2.258 0.840 -0.04 0.5 -0.87 0.05
1 6.01 601 2.289 -7.446 4.377 -32.684 -26.764 -34.882 -213.311 2286.161 -3913.650 -2.097 -1.032 0.535 -0.04 0.5 -0.86 0.05
1 6.02 602 2.859 -8.849 4.267 -40.589 -13.397 -33.234 -213.311 2286.161 -3913.650 -2.596 0.346 0.599 -0.04 0.5 -0.86 0.05
1 6.03 603 2.892 -10.161 3.778 -7.446 6.500 -23.438 -439.664 2332.630 -4135.056 -2.561 1.632 1.036 -0.05 0.5 -0.86 0.04
1 6.04 604 2.351 -9.362 3.524 26.337 11.444 -14.191 -244.641 2437.562 -4015.134 -1.978 0.821 1.267 -0.05 0.5 -0.86 0.04
1 6.05 605 1.413 -7.403 3.357 35.339 10.498 -13.672 -304.751 2422.572 -4105.076 -1.004 -1.098 1.502 -0.05 0.5 -0.86 0.04
1 6.06 606 1.480 -6.541 3.448 10.956 10.834 -16.693 -304.751 2422.572 -4105.076 -1.060 -1.935 1.453 -0.05 0.5 -0.87 0.04
1 6.07 607 1.403 -6.632 3.400 -18.646 10.407 -18.555 -319.742 2437.562 -4060.105 -0.968 -1.840 1.507 -0.05 0.5 -0.87 0.04
1 6.08 608 1.384 -7.240 3.323 -35.828 11.963 -19.714 -409.683 2422.572 -3970.164 -0.931 -1.248 1.554 -0.05 0.5 -0.86 0.03
1 6.09 609 1.336 -7.729 3.007 -32.837 15.045 -20.355 -409.683 2377.601 -4105.076 -0.866 -0.784 1.825 -0.05 0.5 -0.86 0.03
1 6.10 610 1.389 -7.829 2.816 -9.369 19.104 -17.304 -409.683 2377.601 -4105.076 -0.904 -0.703 1.981 -0.05 0.5 -0.86 0.03
1 6.11 611 1.398 -7.384 3.036 -1.404 21.942 -15.411 -454.654 2347.621 -4105.076 -0.902 -1.156 1.745 -0.05 0.5 -0.86 0.03
1 6.12 612 1.465 -7.307 3.386 -16.541 26.154 -12.848 -394.693 2512.663 -4060.105 -0.964 -1.235 1.390 -0.04 0.5 -0.86 0.02
1 6.13 613 1.408 -7.604 3.625 -25.757 27.466 -12.024 -394.693 2512.663 -4060.105 -0.909 -0.952 1.127 -0.04 0.51 -0.86 0.02
1 6.14 614 1.638 -8.682 3.984 -46.234 27.802 -10.468 -139.709 2512.663 -4165.037 -1.138 0.098 0.718 -0.04 0.51 -0.86 0.02
1 6.15 615 1.580 -9.577 3.922 -42.542 28.290 -11.322 -349.722 2467.692 -4150.046 -1.078 0.960 0.719 -0.04 0.51 -0.86 0.02
1 6.16 616 1.427 -10.137 3.989 -16.846 27.741 -15.106 -304.751 2497.673 -4045.115 -0.920 1.492 0.597 -0.04 0.51 -0.86 0.01
1 6.17 617 0.934 -10.305 4.224 0.000 23.499 -18.890 -304.751 2497.673 -4045.115 -0.423 1.645 0.334 -0.04 0.52 -0.86 0.01
1 6.18 618 0.541 -10.243 4.142 1.556 17.487 -22.736 -214.660 2512.663 -4090.085 -0.023 1.582 0.415 -0.04 0.52 -0.86 0.01
1 6.19 619 0.402 -10.362 3.927 -8.270 10.101 -23.956 -319.742 2512.663 -4135.056 0.133 1.706 0.636 -0.04 0.52 -0.86 0.01
1 6.20 620 0.067 -10.908 3.668 -21.515 2.228 -21.027 -319.742 2512.663 -4135.056 0.520 2.242 0.869 -0.04 0.52 -0.86 0
1 6.21 621 0.086 -11.636 3.453 -17.181 -0.824 -17.395 -304.751 2647.575 -4075.095 0.527 2.958 1.058 -0.04 0.52 -0.85 0
1 6.22 622 0.340 -12.067 3.213 -0.824 -2.502 -7.629 -229.650 2617.595 -4075.095 0.296 3.381 1.280 0.04 -0.52 0.85 0
1 6.23 623 0.958 -12.043 3.204 19.226 -2.014 4.181 -229.650 2617.595 -4075.095 -0.314 3.362 1.297 0.04 -0.52 0.85 0
1 6.24 624 1.805 -11.684 3.026 32.196 2.319 18.738 -319.742 2512.663 -4090.085 -1.169 3.019 1.506 0.04 -0.52 0.86 0
1 6.25 625 2.246 -11.574 3.247 29.389 5.341 23.682 -289.611 2677.556 -4090.085 -1.633 2.929 1.329 -0.04 0.51 -0.86 0
1 6.26 626 2.332 -11.220 4.832 27.008 10.620 20.142 -304.751 2542.644 -4105.076 -1.752 2.595 -0.214 -0.04 0.51 -0.86 0
1 6.27 627 0.828 -11.813 7.920 27.283 8.759 -24.445 -304.751 2542.644 -4105.076 -0.299 3.230 -3.222 -0.03 0.51 -0.86 0
1 6.28 628 0.034 -11.454 8.447 23.590 -24.292 -29.724 -274.621 2542.644 -4045.115 0.534 2.892 -3.713 -0.03 0.51 -0.86 0
1 6.29 629 -0.546 -9.932 6.910 9.064 -38.635 -17.151 -214.660 2482.683 -4135.056 1.170 1.388 -2.149 0.04 -0.51 0.86 0
1 6.30 630 -1.025 -8.399 4.568 -16.357 -37.140 -28.107 -214.660 2482.683 -4135.056 1.703 -0.140 0.193 0.04 -0.51 0.86 0
1 6.31 631 -1.030 -7.566 3.266 -12.604 -22.583 -15.137 -364.712 2407.582 -4060.105 1.767 -0.984 1.467 0.04 -0.51 0.86 0
1 6.32 632 -0.939 -5.900 4.942 9.796 -14.252 -3.387 -274.621 2572.624 -4225.147 1.715 -2.661 -0.235 0.05 -0.51 0.86 0
1 6.33 633 -0.560 -5.545 6.426 5.463 -16.907 -15.320 -379.703 2542.644 -4225.147 1.355 -3.010 -1.714 0.05 -0.51 0.86 0
1 6.34 634 0.340 -6.292 7.178 -26.245 -28.168 -25.147 -379.703 2542.644 -4225.147 0.482 -2.255 -2.454 0.05 -0.51 0.86 0
1 6.35 635 2.284 -7.671 7.532 -58.624 -33.966 -22.858 -409.683 2377.601 -4105.076 -1.361 -0.897 -2.866 0.05 -0.51 0.86 0
1 6.36 636 3.194 -8.548 8.026 -46.112 -26.764 -29.480 -454.654 2497.673 -4150.046 -2.213 -0.051 -3.428 0.06 -0.51 0.86 0
1 6.37 637 3.639 -8.773 8.016 -5.371 -7.935 -35.858 -454.654 2497.673 -4150.046 -2.601 0.153 -3.470 0.06 -0.51 0.86 0.01
1 6.38 638 3.414 -8.150 7.346 36.835 8.362 -42.572 -544.745 2587.614 -4135.056 -2.323 -0.458 -2.790 0.06 -0.51 0.86 0.01
1 6.39 639 2.097 -6.608 6.201 37.872 -0.793 -54.505 -604.706 2497.673 -4075.095 -0.954 -1.962 -1.587 0.06 -0.51 0.86 0.01
1 6.40 640 1.317 -5.837 6.354 1.648 -13.458 -59.082 -574.726 2482.683 -4195.167 -0.093 -2.682 -1.668 0.06 -0.51 0.86 0.01
1 6.41 641 0.551 -6.058 6.642 -35.034 -12.268 -58.747 -574.726 2482.683 -4195.167 0.764 -2.432 -1.926 0.07 -0.5 0.86 0.02
1 6.42 642 0.350 -9.007 6.321 -56.244 7.538 -65.033 -634.687 2377.601 -4000.144 1.126 0.504 -1.678 0.07 -0.51 0.86 0.03
1 6.43 643 0.565 -11.622 5.842 -38.574 8.575 -58.716 -619.696 2437.562 -4135.056 0.985 3.100 -1.259 0.07 -0.51 0.86 0.03
1 6.44 644 1.034 -12.513 5.742 3.571 -7.141 -28.565 -619.696 2437.562 -4135.056 0.582 3.984 -1.193 0.08 -0.51 0.85 0.04
1 6.45 645 1.480 -11.196 5.962 39.246 -19.440 7.538 -724.628 2677.556 -4135.056 0.170 2.682 -1.397 0.08 -0.51 0.86 0.04
1 6.46 646 1.346 -8.643 6.019 36.682 -2.930 27.741 -634.687 2647.575 -4180.177 0.300 0.157 -1.402 0.08 -0.51 0.86 0.03
1 6.47 647 0.766 -7.762 5.560 13.184 11.200 28.534 -769.749 2677.556 -4060.105 0.850 -0.701 -0.890 0.08 -0.51 0.86 0.03
1 6.48 648 0.062 -7.647 4.856 -3.784 13.184 29.297 -769.749 2677.556 -4060.105 1.508 -0.804 -0.150 0.07 -0.5 0.86 0.03
1 6.49 649 0.014 -7.384 4.401 0.244 4.974 29.022 -634.687 2722.676 -4225.147 1.447 -1.081 0.316 0.07 -0.5 0.86 0.03
1 6.50 650 0.148 -7.255 4.405 15.320 3.021 28.534 -634.687 2542.644 -4000.144 1.267 -1.213 0.320 0.07 -0.5 0.86 0.03
1 6.51 651 0.809 -6.852 4.554 29.724 8.392 28.534 -634.687 2542.644 -4000.144 0.567 -1.607 0.199 0.07 -0.5 0.86 0.02
1 6.52 652 0.867 -6.517 4.453 32.929 17.548 29.083 -739.618 2542.644 -4150.046 0.466 -1.924 0.344 0.07 -0.5 0.86 0.02
1 6.53 653 0.383 -6.187 4.468 10.437 27.741 31.921 -529.755 2497.673 -4075.095 0.897 -2.236 0.375 0.06 -0.5 0.86 0.02
1 6.54 654 -1.101 -6.350 4.329 -16.907 26.398 35.767 -709.638 2542.644 -4225.147 2.322 -2.067 0.541 0.06 -0.5 0.86 0.02
1 6.55 655 -1.959 -6.876 4.156 -43.091 18.951 38.483 -709.638 2542.644 -4225.147 3.114 -1.553 0.707 0.06 -0.5 0.86 0.02
1 6.56 656 -2.260 -8.165 3.816 -51.850 -0.244 34.302 -517.013 2753.406 -4188.122 3.296 -0.343 0.937 0.05 -0.5 0.86 0.02
1 6.57 657 -1.887 -8.739 3.716 -44.190 -5.981 32.684 -532.003 2573.523 -4323.184 2.858 0.189 0.974 0.05 -0.51 0.86 0.01
1 6.58 658 -0.441 -9.477 3.438 -0.244 -18.646 30.487 -532.003 2573.523 -4323.184 1.361 0.901 1.214 0.05 -0.51 0.86 0.01
1 6.59 659 0.321 -9.026 3.673 20.233 -23.987 29.083 -606.955 2648.475 -4098.180 0.562 0.445 0.977 0.05 -0.51 0.86 0.01
1 6.60 660 0.833 -7.906 3.658 8.453 -26.093 28.229 -546.994 2633.484 -4083.190 0.023 -0.668 1.009 0.05 -0.51 0.86 0
1 6.61 661 0.948 -7.437 3.635 -15.259 -25.696 24.384 -561.984 2573.523 -4038.069 -0.112 -1.134 1.043 0.05 -0.51 0.86 0
1 6.62 662 0.675 -7.432 3.218 -36.224 -24.414 22.217 -561.984 2573.523 -4038.069 0.147 -1.148 1.446 -0.05 0.51 -0.86 0
1 6.63 663 0.450 -7.805 2.734 -41.870 -27.496 18.127 -546.994 2678.455 -4083.190 0.360 -0.799 1.886 -0.05 0.51 -0.86 0
1 6.64 664 0.283 -8.083 2.222 -27.832 -34.577 12.421 -546.994 2588.514 -4128.161 0.524 -0.579 2.290 -0.05 0.52 -0.85 0.01
1 6.65 665 0.187 -8.102 2.342 -16.174 -35.919 9.857 -546.994 2588.514 -4128.161 0.629 -0.578 2.134 -0.05 0.52 -0.85 0.01
1 6.66 666 0.067 -8.121 2.509 -13.733 -36.957 7.141 -742.017 2648.475 -4143.151 0.761 -0.569 1.943 -0.06 0.52 -0.85 0.01
1 6.67 667 -0.125 -8.284 2.715 -19.836 -36.987 3.510 -742.017 2648.475 -4143.151 0.971 -0.417 1.714 -0.06 0.52 -0.85 0.01
1 6.68 668 -0.364 -8.974 2.955 -32.227 -38.574 -1.465 -576.974 2753.406 -4188.122 1.232 0.258 1.441 -0.06 0.52 -0.85 0.02
1 6.69 669 -0.378 -9.687 3.227 -29.785 -40.344 -4.944 -576.974 2753.406 -4188.122 1.266 0.947 1.114 -0.06 0.52 -0.85 0.02
1 6.70 670 -0.024 -10.362 3.663 -16.876 -41.809 -5.768 -681.906 2768.396 -4143.151 0.936 1.597 0.624 -0.07 0.53 -0.85 0.02
1 6.71 671 0.560 -10.372 3.840 12.207 -42.816 3.174 -576.974 2753.406 -3978.108 0.409 1.590 0.399 -0.07 0.53 -0.85 0.02
1 6.72 672 0.608 -9.903 3.726 22.705 -42.908 8.606 -576.974 2753.406 -3978.108 0.383 1.131 0.530 -0.07 0.53 -0.85 0.02
1 6.73 673 0.872 -9.433 3.740 19.806 -38.086 11.566 -621.945 2783.387 -3978.108 0.132 0.672 0.534 -0.08 0.53 -0.85 0.03
1 6.74 674 0.733 -9.170 3.759 6.104 -30.914 12.146 -621.945 2783.387 -3978.108 0.277 0.415 0.528 -0.08 0.52 -0.85 0.03
1 6.75 675 1.087 -9.668 3.548 -16.113 -20.691 14.038 -801.978 2828.507 -3978.108 -0.076 0.911 0.734 -0.08 0.52 -0.85 0.03
1 6.76 676 1.173 -10.104 3.247 -24.353 -16.602 15.228 -801.978 2828.507 -3978.108 -0.166 1.335 1.011 -0.08 0.53 -0.85 0.03
1 6.77 677 1.346 -10.674 2.667 -23.468 -13.733 14.282 -697.046 2858.488 -3948.128 -0.346 1.885 1.551 -0.08 0.53 -0.85 0.03
1 6.78 678 1.566 -11.421 2.222 -13.886 -10.437 13.702 -876.929 2753.406 -4053.060 -0.576 2.612 1.958 -0.08 0.53 -0.84 0.03
1 6.79 679 1.590 -12.072 1.963 10.742 -7.080 16.785 -876.929 2753.406 -4053.060 -0.626 3.248 2.190 -0.08 0.53 -0.84 0.04
1 6.80 680 1.197 -11.928 2.002 25.208 -5.005 17.548 -786.987 2798.527 -4038.069 -0.252 3.112 2.172 -0.08 0.53 -0.84 0.04
1 6.81 681 0.503 -11.780 2.361 34.729 -4.944 14.923 -786.987 2798.527 -4038.069 0.423 2.980 1.851 -0.08 0.53 -0.84 0.04
1 6.82 682 0.062 -11.665 5.818 49.622 -7.751 11.871 -846.948 2933.439 -4053.060 0.849 2.888 -1.555 -0.08 0.53 -0.85 0.04
1 6.83 683 1.461 -13.063 10.832 21.912 18.097 21.973 -846.948 2933.439 -4053.060 -0.559 4.320 -6.497 -0.08 0.52 -0.85 0.04
1 6.84 684 3.271 -13.245 8.725 -17.242 24.689 69.947 -846.948 2903.458 -4053.060 -2.399 4.524 -4.342 -0.08 0.52 -0.85 0.04
1 6.85 685 3.989 -12.666 5.416 -65.888 17.181 93.964 -727.026 2753.406 -4053.060 -3.211 3.933 -1.038 -0.07 0.52 -0.85 0.05
1 6.86 686 4.085 -10.233 2.959 -20.905 49.072 50.415 -727.026 2753.406 -4053.060 -3.568 1.408 1.270 -0.06 0.53 -0.84 0.05
1 6.87 687 2.682 -9.132 4.444 45.868 41.901 27.069 -636.935 2798.527 -3918.147 -2.254 0.302 -0.214 -0.06 0.53 -0.84 0.05
1 6.88 688 1.413 -7.662 5.871 75.531 22.858 26.062 -636.935 2798.527 -3918.147 -1.035 -1.131 -1.561 -0.06 0.53 -0.85 0.05
1 6.89 689 0.350 -6.891 7.068 50.415 17.822 25.024 -576.974 2828.507 -3903.157 -0.009 -1.850 -2.649 -0.05 0.52 -0.85 0.06
1 6.90 690 -1.470 -6.738 7.470 -25.879 33.386 4.578 -472.042 2753.406 -3948.128 1.770 -1.968 -2.980 -0.05 0.52 -0.85 0.06
1 6.91 691 -2.629 -7.614 7.317 -46.448 38.483 0.244 -606.955 2798.527 -3993.099 2.893 -1.089 -2.819 -0.05 0.52 -0.85 0.06
1 6.92 692 -3.184 -8.141 6.776 -26.367 21.790 10.590 -606.955 2888.468 -4098.180 3.407 -0.580 -2.311 -0.05 0.52 -0.85 0.05
1 6.93 693 -2.500 -7.987 6.000 43.335 -20.935 30.426 -606.955 2888.468 -4098.180 2.668 -0.750 -1.564 -0.04 0.52 -0.85 0.06
1 6.94 694 -1.178 -7.078 6.000 60.120 -28.076 38.361 -576.974 2858.488 -4053.060 1.297 -1.620 -1.485 -0.04 0.52 -0.85 0.06
1 6.95 695 0.321 -6.062 6.374 43.793 -15.747 41.626 -576.974 2858.488 -4053.060 -0.247 -2.588 -1.769 -0.04 0.51 -0.85 0.06
1 6.96 696 1.518 -5.138 6.589 16.876 2.838 38.300 -472.042 2828.507 -4083.190 -1.492 -3.481 -1.926 -0.04 0.51 -0.86 0.07
1 6.97 697 1.987 -5.627 6.196 -12.909 15.961 34.638 -472.042 2828.507 -4083.190 -2.014 -2.985 -1.519 -0.04 0.51 -0.86 0.07
1 6.98 698 1.791 -8.241 5.464 -61.127 12.146 30.426 -396.941 2753.406 -4008.089 -1.875 -0.385 -0.814 -0.04 0.51 -0.86 0.07
1 6.99 699 1.216 -10.597 5.014 -65.766 9.796 16.846 -441.912 2753.406 -4008.089 -1.344 1.937 -0.429 -0.04 0.51 -0.85 0.07
1 7.00 700 0.503 -12.187 4.496 10.345 7.935 -5.127 -441.912 2753.406 -4008.089 -0.668 3.458 -0.045 -0.03 0.52 -0.85 0.07
1 7.01 701 0.436 -11.698 4.382 64.575 -3.265 -3.723 -321.990 2828.507 -3903.157 -0.598 2.988 0.106 -0.03 0.52 -0.85 0.07
1 7.02 702 0.661 -8.950 4.089 70.496 -11.627 -2.563 -321.990 2828.507 -3903.157 -0.814 0.288 0.492 -0.03 0.51 -0.85 0.07
1 7.03 703 1.073 -7.777 4.315 38.056 -14.557 -10.620 -487.033 3068.501 -3993.099 -1.205 -0.843 0.347 -0.04 0.51 -0.86 0.07
1 7.04 704 1.403 -7.844 4.176 -7.904 -8.270 -20.630 -321.990 2783.387 -3978.108 -1.499 -0.755 0.525 -0.04 0.51 -0.86 0.07
1 7.05 705 1.197 -8.308 3.745 -6.683 -3.387 -23.560 -411.932 2768.396 -4038.069 -1.250 -0.292 0.954 -0.04 0.51 -0.86 0.07
1 7.06 706 0.967 -8.514 3.433 15.747 -1.617 -27.374 -366.961 2783.387 -3978.108 -0.975 -0.092 1.254 -0.04 0.51 -0.86 0.07
1 7.07 707 0.326 -8.188 3.184 41.931 -1.099 -30.701 -366.961 2783.387 -3978.108 -0.289 -0.413 1.511 -0.04 0.51 -0.86 0.07
1 7.08 708 -0.182 -7.058 3.409 59.937 -3.937 -32.105 -472.042 2858.488 -3873.177 0.307 -1.479 1.401 -0.04 0.5 -0.86 0.06
1 7.09 709 0.062 -6.302 3.749 43.701 -7.263 -32.044 -472.042 2858.488 -3873.177 0.110 -2.191 1.137 -0.05 0.5 -0.86 0.06
1 7.10 710 0.728 -6.273 3.836 12.939 -5.890 -32.532 -456.902 2798.527 -4098.180 -0.508 -2.191 1.099 -0.05 0.5 -0.86 0.06
1 7.11 711 1.451 -6.838 3.596 -17.365 -1.526 -31.677 -441.912 2678.455 -4128.161 -1.185 -1.620 1.346 -0.05 0.5 -0.87 0.06
1 7.12 712 2.217 -8.318 3.137 -32.318 11.200 -29.511 -532.003 2723.426 -4068.200 -1.909 -0.156 1.777 -0.05 0.5 -0.86 0.06
1 7.13 713 2.160 -9.055 2.854 -18.189 21.881 -25.269 -517.013 2753.406 -4083.190 -1.818 0.559 2.019 -0.05 0.5 -0.86 0.05
1 7.14 714 1.633 -8.739 2.768 5.066 30.121 -21.149 -517.013 2753.406 -4083.190 -1.256 0.223 2.067 -0.05 0.5 -0.86 0.05
1 7.15 715 0.656 -7.671 2.739 17.670 29.572 -21.881 -651.925 2678.455 -3978.108 -0.247 -0.843 2.096 -0.05 0.5 -0.86 0.05
1 7.16 716 0.728 -7.231 2.782 6.042 23.468 -24.323 -651.925 2678.455 -3978.108 -0.309 -1.270 2.076 -0.05 0.5 -0.86 0.04
1 7.17 717 0.972 -7.121 2.777 -11.536 19.440 -24.872 -546.994 2633.484 -4083.190 -0.537 -1.377 2.085 -0.05 0.5 -0.86 0.04
1 7.18 718 1.336 -7.322 2.653 -25.574 22.064 -22.003 -517.013 2708.436 -4008.089 -0.883 -1.185 2.192 -0.05 0.5 -0.86 0.04
1 7.19 719 1.293 -7.705 2.418 -24.323 27.344 -19.135 -456.902 2573.523 -4038.069 -0.828 -0.819 2.395 -0.05 0.5 -0.86 0.04
1 7.20 720 1.063 -7.786 2.466 -15.808 28.473 -19.043 -561.984 2723.426 -4038.069 -0.592 -0.755 2.317 -0.05 0.5 -0.86 0.03
1 7.21 721 0.996 -7.825 2.686 -8.148 27.557 -20.996 -561.984 2723.426 -4038.069 -0.520 -0.727 2.076 -0.05 0.5 -0.86 0.03
1 7.22 722 0.915 -8.059 3.304 -7.996 26.428 -22.095 -487.033 2768.396 -4098.180 -0.432 -0.498 1.449 -0.05 0.51 -0.86 0.03
1 7.23 723 0.694 -8.509 4.037 -17.487 27.496 -21.515 -487.033 2768.396 -4098.180 -0.190 -0.058 0.694 -0.04 0.51 -0.86 0.02
1 7.24 724 0.551 -9.137 4.262 -21.576 27.741 -20.386 -456.902 2723.426 -4038.069 -0.035 0.555 0.443 -0.04 0.51 -0.86 0.02
1 7.25 725 0.297 -9.520 4.070 -17.029 25.848 -18.097 -456.902 2843.498 -4068.200 0.226 0.923 0.606 -0.04 0.51 -0.86 0.02
1 7.26 726 0.211 -9.486 3.917 -3.632 19.775 -16.357 -396.941 2708.436 -4008.089 0.318 0.878 0.738 -0.04 0.51 -0.86 0.02
1 7.27 727 0.374 -9.429 3.874 9.338 4.913 -15.228 -546.994 2858.488 -3978.108 0.162 0.819 0.777 -0.04 0.51 -0.86 0.01
1 7.28 728 0.886 -9.237 3.898 0.549 -3.296 -13.306 -546.994 2858.488 -3978.108 -0.337 0.631 0.758 -0.04 0.51 -0.86 0.01
1 7.29 729 1.360 -9.596 3.807 -18.524 -5.005 -12.390 -606.955 2843.498 -3918.147 -0.793 0.991 0.848 -0.04 0.51 -0.86 0.01
1 7.30 730 1.810 -10.942 3.534 -33.325 5.219 -6.775 -606.955 2843.498 -3918.147 -1.197 2.302 1.051 -0.04 0.51 -0.86 0.01
1 7.31 731 1.614 -11.986 5.483 -17.090 17.120 -1.984 -546.994 2708.436 -4053.060 -0.999 3.326 -0.937 -0.04 0.52 -0.86 0.01
1 7.32 732 -0.091 -14.203 8.821 6.409 34.607 -43.121 -621.945 2783.387 -4053.060 0.700 5.538 -4.284 -0.04 0.52 -0.86 0.01
1 7.33 733 -1.748 -16.367 10.367 14.740 0.488 -93.598 -532.003 2843.498 -3888.167 2.420 7.713 -5.819 -0.04 0.52 -0.86 0
1 7.34 734 -1.513 -15.146 7.628 53.253 -61.615 13.672 -456.902 2798.527 -3963.118 2.302 6.520 -3.046 0.05 -0.51 0.86 0
1 7.35 735 1.504 -8.940 3.639 44.403 -57.770 36.621 -456.902 2798.527 -3963.118 -0.670 0.351 1.006 -0.05 0.51 -0.86 0
1 7.36 736 2.337 -7.034 4.884 23.651 -7.538 28.137 -636.935 2888.468 -3813.066 -1.503 -1.524 -0.184 -0.05 0.51 -0.86 0.01
1 7.37 737 2.016 -6.445 6.029 -18.982 54.596 4.395 -636.935 2888.468 -3813.066 -1.240 -2.094 -1.283 -0.05 0.51 -0.86 0.01
1 7.38 738 1.240 -7.547 6.398 -49.774 33.875 -14.740 -786.987 2843.498 -3918.147 -0.488 -1.003 -1.667 -0.05 0.51 -0.86 0.01
1 7.39 739 1.891 -8.854 6.637 -64.789 -3.845 -21.240 -681.906 2723.426 -3963.118 -1.128 0.275 -1.961 -0.05 0.51 -0.86 0
1 7.40 740 3.031 -9.663 7.078 -58.777 -23.010 -30.243 -606.955 2798.527 -3993.099 -2.227 1.046 -2.481 -0.05 0.51 -0.86 0
1 7.41 741 3.922 -10.027 7.825 -25.299 -13.397 -48.126 -517.013 2828.507 -3798.076 -3.056 1.378 -3.299 -0.05 0.52 -0.85 0
1 7.42 742 3.141 -8.399 8.179 50.965 25.848 -60.089 -517.013 2828.507 -3798.076 -2.201 -0.251 -3.670 0.06 -0.52 0.85 0
1 7.43 743 1.283 -6.402 7.561 71.747 38.788 -61.554 -712.036 2768.396 -3888.167 -0.276 -2.211 -2.996 0.06 -0.51 0.86 0.01
1 7.44 744 -1.805 -4.353 6.350 14.496 28.320 -70.343 -712.036 2768.396 -3888.167 2.929 -4.144 -1.597 0.06 -0.5 0.86 0.02
1 7.45 745 -2.811 -4.362 5.991 -48.584 14.343 -74.768 -621.945 2828.507 -3903.157 4.010 -4.121 -1.234 0.06 -0.5 0.86 0.02
1 7.46 746 -2.691 -5.880 5.900 -92.255 2.716 -75.653 -621.945 2678.455 -3873.177 3.981 -2.633 -1.220 0.06 -0.51 0.86 0.03
1 7.47 747 -1.288 -8.840 5.536 -94.208 0.732 -72.449 -621.945 2678.455 -3873.177 2.677 0.275 -0.980 0.06 -0.51 0.86 0.03
1 7.48 748 1.427 -12.608 5.339 -22.156 7.080 -53.742 -771.997 2633.484 -3828.056 0.031 4.001 -0.886 0.06 -0.52 0.85 0.04
1 7.49 749 2.265 -11.976 6.048 33.844 6.622 -21.515 -771.997 2633.484 -3828.056 -0.732 3.358 -1.641 0.07 -0.52 0.85 0.04
1 7.50 750 2.193 -9.433 6.421 52.612 8.942 1.831 -786.987 2888.468 -3813.066 -0.624 0.838 -1.983 0.07 -0.52 0.85 0.04
1 7.51 751 1.944 -7.599 6.048 30.365 17.792 5.157 -786.987 2888.468 -3813.066 -0.376 -0.959 -1.539 0.07 -0.52 0.85 0.04
1 7.52 752 1.044 -7.192 5.315 -17.792 31.983 5.066 -787.287 2798.677 -3705.736 0.488 -1.328 -0.722 0.06 -0.51 0.86 0.05
1 7.53 753 0.426 -7.441 4.942 -29.999 34.607 9.644 -622.245 2708.735 -3795.827 1.074 -1.090 -0.359 0.06 -0.51 0.86 0.05
1 7.54 754 0.177 -7.844 4.520 -22.278 32.166 10.162 -622.245 2708.735 -3795.827 1.280 -0.707 0.041 0.06 -0.51 0.85 0.05
1 7.55 755 0.316 -7.973 4.334 -3.418 29.694 7.996 -727.176 2678.755 -3795.827 1.098 -0.591 0.216 0.06 -0.51 0.85 0.05
1 7.56 756 0.613 -7.418 4.362 20.813 31.067 6.226 -727.176 2678.755 -3795.827 0.763 -1.147 0.198 0.05 -0.51 0.85 0.05
1 7.57 757 0.546 -6.776 4.358 20.722 36.133 5.463 -787.287 2798.677 -3780.837 0.798 -1.777 0.235 0.05 -0.51 0.86 0.05
1 7.58 758 0.230 -6.465 4.319 4.639 40.344 2.777 -787.287 2798.677 -3780.837 1.083 -2.073 0.310 0.05 -0.51 0.86 0.05
1 7.59 759 -0.804 -6.560 4.104 -34.851 40.558 0.061 -652.225 2783.687 -3795.827 2.054 -1.980 0.538 0.04 -0.51 0.86 0.05
1 7.60 760 -1.614 -7.475 3.927 -54.169 33.966 -0.702 -652.225 2708.735 -3720.726 2.836 -1.093 0.671 0.04 -0.51 0.86 0.05
1 7.61 761 -1.987 -8.672 3.797 -56.763 25.299 0.519 -652.225 2708.735 -3720.726 3.188 0.066 0.733 0.04 -0.52 0.85 0.05
1 7.62 762 -1.963 -9.568 3.443 -40.833 15.137 4.974 -697.196 2678.755 -4050.811 3.125 0.920 1.020 0.04 -0.52 0.85 0.05
1 7.63 763 -1.341 -9.582 3.237 0.366 0.488 11.231 -442.212 2678.755 -3750.856 2.463 0.905 1.178 0.03 -0.52 0.85 0.05
1 7.64 764 -0.752 -8.730 3.213 14.343 -7.874 13.519 -517.163 2828.657 -3825.808 1.838 0.040 1.186 0.03 -0.52 0.85 0.05
1 7.65 765 -0.469 -7.858 3.553 5.981 -13.641 13.001 -517.163 2828.657 -3825.808 1.526 -0.831 0.855 0.03 -0.52 0.85 0.05
1 7.66 766 -0.120 -7.700 3.362 -28.107 -14.587 11.871 -442.212 2783.687 -3825.808 1.150 -0.996 1.037 0.03 -0.52 0.85 0.05
1 7.67 767 0.010 -8.203 2.935 -41.565 -13.428 12.299 -457.202 2618.644 -3735.716 1.015 -0.517 1.419 0.03 -0.53 0.85 0.05
1 7.68 768 0.072 -8.739 2.524 -39.368 -16.113 12.726 -457.202 2618.644 -3735.716 0.945 -0.009 1.774 0.03 -0.53 0.85 0.04
1 7.69 769 -0.038 -8.859 2.548 -25.543 -21.332 12.970 -562.284 2768.696 -3705.736 1.043 0.080 1.691 0.03 -0.53 0.85 0.04
1 7.70 770 -0.034 -8.739 2.739 -11.658 -26.184 12.360 -682.206 2798.677 -3630.785 1.029 -0.061 1.457 0.03 -0.53 0.84 0.04
1 7.71 771 -0.077 -8.203 2.897 -7.813 -27.008 10.193 -727.176 2858.638 -3645.775 1.066 -0.609 1.276 0.04 -0.53 0.84 0.04
1 7.72 772 -0.144 -7.949 2.773 -17.273 -26.489 7.263 -727.176 2858.638 -3645.775 1.133 -0.870 1.384 0.04 -0.54 0.84 0.04
1 7.73 773 -0.278 -8.155 2.883 -29.297 -25.543 2.014 -547.293 2903.758 -3690.746 1.274 -0.674 1.252 0.04 -0.54 0.84 0.03
1 7.74 774 -0.172 -9.175 2.854 -34.973 -25.574 -5.463 -547.293 2783.687 -3615.794 1.196 0.307 1.190 0.04 -0.54 0.84 0.03
1 7.75 775 0.125 -9.869 2.983 -26.093 -24.628 -6.470 -547.293 2783.687 -3615.794 0.915 0.978 1.006 0.04 -0.54 0.84 0.03
1 7.76 776 0.412 -10.664 3.199 -10.895 -21.607 -4.272 -637.235 2843.647 -3780.837 0.643 1.757 0.749 0.04 -0.54 0.84 0.03
1 7.77 777 0.718 -10.923 3.424 4.700 -18.311 -1.282 -622.245 2858.638 -3720.726 0.351 2.010 0.508 0.05 -0.55 0.84 0.03
1 7.78 778 0.699 -10.808 3.984 18.768 -9.338 2.441 -607.254 2843.647 -3630.785 0.382 1.901 -0.042 0.05 -0.54 0.84 0.03
1 7.79 779 0.536 -10.458 4.008 16.602 -5.707 5.005 -607.254 2843.647 -3630.785 0.550 1.563 -0.042 0.05 -0.54 0.84 0.03
1 7.80 780 0.278 -10.305 3.874 8.026 -5.035 6.042 -742.167 2798.677 -3630.785 0.807 1.420 0.116 0.05 -0.54 0.84 0.03
1 7.81 781 -0.067 -10.401 3.256 -6.897 -7.477 7.385 -817.268 2843.647 -3600.804 1.144 1.522 0.749 0.05 -0.54 0.84 0.03
1 7.82 782 0.105 -10.578 2.777 -10.345 -12.054 8.850 -817.268 2843.647 -3600.804 0.967 1.694 1.217 0.05 -0.54 0.84 0.02
1 7.83 783 0.297 -10.789 2.490 -6.775 -15.686 9.857 -697.196 2828.657 -3495.723 0.772 1.898 1.491 0.05 -0.54 0.84 0.02
1 7.84 784 0.699 -10.932 2.212 1.984 -14.923 9.583 -637.235 2693.745 -3630.785 0.366 2.038 1.761 0.05 -0.54 0.84 0.02
1 7.85 785 0.939 -10.985 2.375 11.292 -10.162 10.193 -697.196 2783.687 -3435.762 0.123 2.092 1.604 0.05 -0.54 0.84 0.02
1 7.86 786 0.316 -10.971 2.102 20.935 -2.350 11.871 -697.196 2783.687 -3435.762 0.737 2.085 1.895 0.05 -0.54 0.84 0.02
1 7.87 787 0.053 -10.640 2.140 25.665 0.183 12.146 -697.196 2753.706 -3615.794 0.987 1.766 1.884 0.05 -0.54 0.84 0.02
1 7.88 788 -0.694 -9.524 3.644 35.065 4.120 12.268 -742.167 2843.647 -3630.785 1.698 0.677 0.449 0.05 -0.54 0.84 0.02
1 7.89 789 -0.206 -9.347 6.249 47.455 13.306 13.092 -742.167 2843.647 -3630.785 1.178 0.517 -2.110 0.05 -0.54 0.84 0.01
1 7.90 790 1.279 -10.434 8.979 28.717 32.806 22.949 -622.245 2783.687 -3690.746 -0.341 1.633 -4.771 0.05 -0.53 0.85 0.01
1 7.91 791 3.314 -11.071 9.060 -12.054 42.786 62.592 -697.196 2828.657 -3615.794 -2.442 2.279 -4.820 0.04 -0.53 0.85 0.01
1 7.92 792 5.789 -11.526 5.799 -99.915 31.403 100.312 -577.274 2678.755 -3750.856 -5.042 2.709 -1.588 0.04 -0.53 0.85 0.01
1 7.93 793 6.220 -10.224 5.028 -78.827 47.028 76.691 -577.274 2678.755 -3750.856 -5.627 1.341 -0.931 0.03 -0.54 0.84 0
1 7.94 794 5.129 -9.295 5.430 14.954 69.550 41.321 -622.245 2753.706 -3720.726 -4.677 0.349 -1.453 0.03 -0.54 0.84 0
1 7.95 795 2.701 -8.361 5.627 81.879 66.162 38.544 -457.202 2918.749 -3735.716 -2.355 -0.593 -1.658 -0.02 0.55 -0.84 0
1 7.96 796 -0.244 -6.551 6.570 48.737 33.478 41.443 -457.202 2918.749 -3735.716 0.420 -2.304 -2.375 -0.01 0.53 -0.84 0
1 7.97 797 -1.757 -6.244 7.839 -22.553 31.067 21.668 -412.231 2648.774 -3705.736 1.864 -2.581 -3.580 -0.01 0.53 -0.85 0
1 7.98 798 -2.404 -7.662 8.418 -74.524 38.391 11.353 -382.251 2768.696 -3600.804 2.453 -1.175 -4.182 -0.01 0.53 -0.85 0
1 7.99 799 -2.562 -9.362 7.341 -74.219 29.877 25.421 -352.570 2543.843 -3734.967 2.570 0.475 -3.210 -0 0.54 -0.84 0
1 8.00 800 -2.418 -10.238 5.325 -9.094 -2.899 51.788 -352.570 2543.843 -3734.967 2.369 1.311 -1.283 0 0.54 -0.84 0
1 8.01 801 -1.887 -9.553 5.196 35.736 -12.573 55.695 -292.609 2588.813 -3644.875 1.771 0.614 -1.182 0 0.54 -0.84 0.01
1 8.02 802 -0.555 -8.064 5.861 62.958 -16.052 51.941 -217.508 2753.856 -3614.895 0.371 -0.858 -1.811 0 0.54 -0.84 0.01
1 8.03 803 1.710 -6.599 7.025 46.234 -15.015 43.244 -217.508 2753.856 -3614.895 -2.011 -2.232 -2.785 0.01 0.53 -0.85 0.02
1 8.04 804 2.543 -7.168 7.101 -12.695 -6.866 46.265 -172.538 2828.807 -3689.846 -2.882 -1.627 -2.794 0.01 0.53 -0.85 0.02
1 8.05 805 2.433 -9.012 6.599 -70.740 3.235 47.394 -247.489 2633.784 -3644.875 -2.811 0.211 -2.305 0.01 0.53 -0.85 0.03
1 8.06 806 1.350 -10.995 5.574 -76.569 11.475 41.840 -247.489 2633.784 -3644.875 -1.795 2.147 -1.383 0.01 0.53 -0.84 0.03
1 8.07 807 -0.441 -11.497 4.396 17.548 3.387 30.853 -217.508 2678.905 -3689.846 -0.065 2.612 -0.294 0.01 0.54 -0.84 0.03
1 8.08 808 -0.876 -9.951 4.396 72.998 -19.409 23.834 -82.596 2648.774 -3704.836 0.323 1.067 -0.295 0.01 0.54 -0.84 0.03
1 8.09 809 -0.517 -8.279 4.415 78.247 -39.734 13.397 -142.557 2633.784 -3644.875 -0.062 -0.562 -0.228 0.01 0.53 -0.84 0.04
1 8.10 810 0.168 -7.106 4.813 48.859 -46.784 1.923 -142.557 2633.784 -3644.875 -0.745 -1.681 -0.513 0.01 0.53 -0.85 0.04
1 8.11 811 0.948 -7.006 4.726 -0.793 -39.948 -7.813 52.016 2693.895 -3599.605 -1.463 -1.726 -0.307 0 0.52 -0.85 0.04
1 8.12 812 0.963 -7.614 4.568 -11.200 -33.539 -11.688 -142.707 2558.833 -3644.576 -1.438 -1.121 -0.151 0 0.52 -0.85 0.04
1 8.13 813 0.632 -8.040 3.931 1.068 -30.914 -16.174 -142.707 2558.833 -3644.576 -1.063 -0.701 0.479 -0 0.52 -0.85 0.04
1 8.14 814 0.354 -8.045 3.611 25.879 -31.891 -19.989 -292.759 2513.862 -3749.657 -0.732 -0.692 0.812 -0 0.52 -0.85 0.04
1 8.15 815 0.484 -7.015 3.304 51.270 -37.567 -24.597 -307.750 2573.823 -3839.599 -0.807 -1.701 1.164 -0.01 0.52 -0.85 0.04
1 8.16 816 1.326 -6.369 3.606 43.366 -36.835 -24.262 -247.789 2588.963 -3719.677 -1.592 -2.313 0.932 -0.01 0.52 -0.85 0.04
1 8.17 817 2.045 -6.005 4.089 14.587 -29.236 -23.224 -247.789 2588.963 -3719.677 -2.251 -2.645 0.513 -0.01 0.51 -0.86 0.04
1 8.18 818 2.514 -6.747 4.238 -38.574 -7.446 -19.745 -247.789 2438.911 -3794.628 -2.622 -1.895 0.381 -0.02 0.51 -0.86 0.04
1 8.19 819 2.093 -8.141 3.635 -56.610 6.531 -16.022 -322.740 2513.862 -3794.628 -2.173 -0.533 0.926 -0.02 0.52 -0.85 0.04
1 8.20 820 1.216 -9.208 3.007 -49.439 12.909 -13.733 -322.740 2513.862 -3794.628 -1.273 0.495 1.478 -0.02 0.52 -0.85 0.04
1 8.21 821 0.498 -9.668 2.409 -20.325 13.641 -10.407 -443.111 2484.332 -3823.409 -0.534 0.922 2.012 -0.02 0.52 -0.85 0.04
1 8.22 822 0.187 -8.897 2.452 23.651 6.866 -8.484 -473.092 2514.312 -3688.497 -0.213 0.136 1.940 -0.02 0.52 -0.85 0.04
1 8.23 823 0.153 -7.939 2.868 24.872 2.167 -8.911 -323.189 2514.312 -3718.478 -0.171 -0.816 1.534 -0.02 0.52 -0.85 0.04
1 8.24 824 0.326 -7.523 3.251 2.991 2.106 -7.141 -323.189 2514.312 -3718.478 -0.332 -1.217 1.182 -0.02 0.52 -0.85 0.04
1 8.25 825 0.603 -7.882 3.199 -36.530 2.197 -1.068 -293.209 2439.361 -3688.497 -0.594 -0.863 1.224 -0.02 0.52 -0.85 0.04
1 8.26 826 0.661 -8.658 3.031 -41.565 1.740 2.655 -443.111 2484.332 -3688.497 -0.652 -0.113 1.341 -0.02 0.53 -0.85 0.04
1 8.27 827 0.728 -9.309 2.935 -27.802 1.740 7.874 -443.111 2484.332 -3688.497 -0.720 0.509 1.378 -0.02 0.53 -0.85 0.04
1 8.28 828 0.584 -9.242 3.290 -4.517 3.204 13.489 -308.199 2499.322 -3733.468 -0.584 0.424 0.986 -0.02 0.53 -0.85 0.04
1 8.29 829 0.575 -8.902 3.366 10.986 4.791 18.890 -248.088 2589.263 -3643.376 -0.592 0.081 0.902 -0.02 0.53 -0.85 0.04
1 8.30 830 0.172 -8.141 3.433 7.446 5.829 20.142 -323.189 2589.263 -3718.478 -0.214 -0.675 0.847 -0.02 0.53 -0.85 0.04
1 8.31 831 -0.134 -7.916 3.443 -4.486 5.188 19.043 -323.189 2589.263 -3718.478 0.067 -0.896 0.846 -0.02 0.53 -0.85 0.04
1 8.32 832 -0.589 -8.097 3.366 -15.076 -2.228 15.503 -413.131 2619.244 -3658.367 0.470 -0.721 0.907 -0.02 0.53 -0.85 0.04
1 8.33 833 -0.814 -8.155 3.477 -13.153 -11.536 10.132 -368.160 2439.361 -3748.458 0.680 -0.672 0.778 -0.02 0.53 -0.85 0.04
1 8.34 834 -0.900 -8.452 3.836 -10.132 -20.142 7.019 -368.160 2439.361 -3748.458 0.760 -0.383 0.403 -0.02 0.53 -0.85 0.05
1 8.35 835 -0.843 -8.710 3.998 -10.407 -26.978 5.585 -368.160 2589.263 -3823.409 0.703 -0.131 0.226 -0.02 0.53 -0.84 0.05
1 8.36 836 -0.512 -9.256 4.056 -19.714 -32.044 7.324 -383.150 2469.341 -3733.468 0.378 0.408 0.154 -0.02 0.53 -0.84 0.05
1 8.37 837 -0.014 -9.826 3.907 -25.696 -32.135 10.040 -413.131 2619.244 -3598.406 -0.111 0.966 0.279 -0.02 0.53 -0.84 0.05
1 8.38 838 0.321 -10.420 3.860 -24.536 -31.769 12.939 -413.131 2619.244 -3598.406 -0.440 1.544 0.293 -0.03 0.54 -0.84 0.05
1 8.39 839 0.800 -11.028 3.898 -14.587 -30.274 15.442 -368.160 2484.332 -3748.458 -0.913 2.135 0.218 -0.03 0.54 -0.84 0.05
1 8.40 840 1.413 -11.277 3.596 7.721 -24.994 18.555 -518.212 2589.263 -3823.409 -1.532 2.373 0.495 -0.03 0.54 -0.84 0.06
1 8.41 841 1.992 -11.066 3.371 18.097 -24.262 20.386 -518.212 2589.263 -3823.409 -2.122 2.170 0.736 -0.03 0.54 -0.84 0.06
1 8.42 842 2.289 -10.712 3.323 21.271 -22.369 19.836 -368.160 2484.332 -3643.376 -2.431 1.829 0.812 -0.03 0.54 -0.84 0.06
1 8.43 843 2.586 -10.449 3.457 18.372 -19.928 19.653 -488.082 2379.250 -3598.406 -2.740 1.580 0.709 -0.03 0.54 -0.84 0.07
1 8.44 844 2.706 -10.568 4.224 12.604 -14.618 20.691 -443.111 2514.312 -3643.376 -2.874 1.711 -0.032 -0.03 0.53 -0.84 0.07
1 8.45 845 2.160 -10.928 5.464 14.374 -9.735 14.160 -443.111 2514.312 -3643.376 -2.345 2.080 -1.253 -0.03 0.53 -0.84 0.07
1 8.46 846 0.943 -11.339 6.785 18.982 -14.771 -0.763 -578.173 2439.361 -3748.458 -1.144 2.502 -2.555 -0.03 0.53 -0.84 0.07
1 8.47 847 -0.311 -10.889 7.054 18.341 -41.992 -14.557 -458.102 2499.322 -3628.386 0.148 2.077 -2.768 -0.04 0.53 -0.84 0.07
1 8.48 848 -0.527 -9.668 5.847 12.207 -59.418 -14.771 -458.102 2499.322 -3628.386 0.415 0.868 -1.537 -0.04 0.53 -0.85 0.08
1 8.49 849 0.043 -8.739 5.119 10.712 -68.482 -10.010 -473.092 2409.230 -3718.478 -0.094 -0.053 -0.791 -0.04 0.53 -0.85 0.08
1 8.50 850 0.704 -7.585 5.598 16.205 -65.247 1.129 -473.092 2409.230 -3718.478 -0.699 -1.197 -1.248 -0.05 0.52 -0.85 0.08
1 8.51 851 1.413 -6.115 6.364 12.329 -51.575 8.789 -653.125 2484.332 -3613.396 -1.367 -2.650 -1.980 -0.05 0.52 -0.85 0.08
1 8.52 852 1.662 -5.967 6.421 -8.148 -53.894 6.561 -653.125 2484.332 -3613.396 -1.582 -2.780 -2.002 -0.06 0.52 -0.85 0.09
1 8.53 853 2.050 -6.517 6.623 -28.717 -61.127 3.540 -788.187 2499.322 -3913.500 -1.933 -2.220 -2.186 -0.06 0.52 -0.85 0.09
1 8.54 854 2.729 -7.212 6.570 -28.473 -60.028 -0.885 -713.085 2424.221 -3658.367 -2.507 -1.543 -2.171 -0.07 0.52 -0.85 0.09
1 8.55 855 2.739 -7.762 6.580 -3.479 -52.246 -2.747 -713.085 2424.221 -3658.367 -2.456 -0.997 -2.194 -0.07 0.52 -0.85 0.09
1 8.56 856 1.882 -7.623 6.383 23.468 -47.943 -8.057 -728.076 2364.260 -3748.458 -1.540 -1.124 -1.978 -0.08 0.52 -0.85 0.1
1 8.57 857 0.742 -7.398 6.431 34.363 -50.659 -14.374 -728.076 2364.260 -3748.458 -0.340 -1.320 -1.975 -0.08 0.52 -0.85 0.1
1 8.58 858 -0.302 -7.465 6.412 22.156 -60.578 -16.327 -818.167 2349.719 -3807.220 0.765 -1.221 -1.899 -0.09 0.51 -0.85 0.1
1 8.59 859 -1.374 -8.260 6.608 -14.801 -72.663 -18.860 -818.167 2349.719 -3807.220 1.900 -0.405 -2.062 -0.09 0.51 -0.85 0.1
1 8.60 860 -1.461 -9.759 6.244 -27.313 -74.372 -15.961 -893.118 2304.749 -3807.220 2.050 1.097 -1.699 -0.1 0.51 -0.85 0.1
1 8.61 861 -1.408 -11.172 5.473 -17.792 -80.445 -2.197 -968.219 2499.622 -3777.239 2.065 2.497 -0.961 -0.1 0.51 -0.85 0.1
1 8.62 862 -0.809 -11.325 5.196 21.790 -97.596 29.297 -968.219 2499.622 -3777.239 1.574 2.638 -0.725 -0.11 0.51 -0.85 0.11
1 8.63 863 -0.177 -10.453 5.435 37.415 -103.272 44.953 -1028.180 2484.631 -3687.148 0.967 1.781 -0.939 -0.12 0.51 -0.85 0.12
1 8.64 864 0.421 -9.678 5.478 32.288 -100.495 57.282 -1028.180 2484.631 -3687.148 0.376 1.026 -0.944 -0.12 0.5 -0.85 0.12
1 8.65 865 0.417 -9.237 5.119 17.944 -95.215 66.132 -1268.174 2229.647 -3657.167 0.372 0.599 -0.558 -0.13 0.5 -0.85 0.13
1 8.66 866 -0.254 -9.338 4.654 9.796 -92.865 78.278 -1268.174 2229.647 -3657.167 1.015 0.704 -0.081 -0.13 0.5 -0.84 0.14
1 8.67 867 -0.579 -9.261 4.425 17.914 -95.642 82.855 -1253.184 2334.729 -3687.148 1.300 0.626 0.153 -0.13 0.5 -0.84 0.15
1 8.68 868 -0.675 -8.983 4.257 30.701 -100.891 86.029 -1208.213 2334.729 -3642.177 1.347 0.350 0.331 -0.13 0.5 -0.84 0.16
1 8.69 869 -0.570 -8.567 4.267 42.938 -108.948 89.722 -1208.213 2334.729 -3642.177 1.139 -0.040 0.385 -0.14 0.49 -0.84 0.18
1 8.70 870 -0.297 -8.045 4.109 43.976 -111.695 90.943 -1328.135 2334.729 -3612.197 0.818 -0.540 0.589 -0.14 0.49 -0.84 0.19
1 8.71 871 -0.196 -7.422 3.788 38.208 -114.136 91.278 -1327.985 2334.879 -3611.897 0.674 -1.139 0.958 -0.14 0.49 -0.84 0.2
1 8.72 872 -0.239 -6.876 3.577 27.557 -116.669 91.919 -1343.125 2229.797 -3551.936 0.682 -1.664 1.209 -0.15 0.48 -0.84 0.21
1 8.73 873 -0.455 -6.919 3.697 11.993 -120.392 92.041 -1343.125 2229.797 -3551.936 0.864 -1.609 1.114 -0.15 0.48 -0.83 0.22
1 8.74 874 -0.105 -7.753 3.984 -9.644 -122.223 90.699 -1508.018 2334.879 -3566.926 0.484 -0.775 0.831 -0.16 0.48 -0.83 0.23
1 8.75 875 0.148 -8.878 4.046 -14.862 -121.216 91.278 -1628.089 2274.768 -3446.854 0.202 0.342 0.754 -0.16 0.48 -0.83 0.24
1 8.76 876 0.230 -9.716 3.754 -3.510 -125.824 93.415 -1628.089 2274.768 -3446.854 0.057 1.149 0.996 -0.17 0.48 -0.82 0.26
1 8.77 877 0.412 -9.659 3.520 12.085 -134.980 91.614 -1388.096 2484.781 -3431.864 -0.154 1.084 1.218 -0.17 0.48 -0.82 0.27
1 8.78 878 0.536 -9.453 3.544 22.125 -143.311 89.020 -1388.096 2484.781 -3431.864 -0.296 0.880 1.199 -0.18 0.48 -0.81 0.28
1 8.79 879 0.881 -8.950 3.706 21.454 -145.783 87.281 -1688.050 2439.811 -3491.825 -0.649 0.386 1.052 -0.19 0.47 -0.81 0.29
1 8.80 880 1.092 -8.653 3.845 8.789 -139.191 85.266 -1658.070 2514.762 -3356.913 -0.863 0.096 0.927 -0.19 0.47 -0.81 0.3
1 8.81 881 0.996 -8.629 3.697 3.357 -132.050 82.520 -1762.702 2439.960 -3356.613 -0.770 0.075 1.080 -0.2 0.47 -0.8 0.31
1 8.82 882 0.828 -8.548 3.563 5.402 -128.540 77.820 -1822.812 2380.000 -3371.604 -0.606 -0.008 1.211 -0.2 0.46 -0.8 0.32
1 8.83 883 0.781 -8.830 3.477 10.254 -129.090 74.005 -1822.812 2380.000 -3371.604 -0.561 0.272 1.293 -0.21 0.46 -0.8 0.33
1 8.84 884 0.924 -8.926 3.730 15.015 -131.287 70.252 -1987.705 2560.032 -3311.643 -0.698 0.372 1.047 -0.22 0.46 -0.79 0.35
1 8.85 885 0.977 -8.974 3.845 14.740 -131.470 68.115 -1987.705 2560.032 -3311.643 -0.741 0.425 0.941 -0.22 0.45 -0.78 0.36
1 8.86 886 1.393 -8.959 3.907 15.106 -131.379 65.949 -1867.783 2484.931 -3176.581 -1.144 0.416 0.888 -0.23 0.45 -0.78 0.37
1 8.87 887 1.810 -8.974 4.118 15.961 -130.127 63.629 -2017.686 2484.931 -3206.561 -1.540 0.436 0.686 -0.23 0.45 -0.78 0.38
1 8.88 888 2.289 -8.825 4.410 22.614 -122.254 64.392 -2032.826 2575.022 -3086.639 -1.996 0.296 0.406 -0.24 0.44 -0.77 0.38
1 8.89 889 2.270 -8.658 4.554 24.841 -113.465 64.057 -2182.728 2575.022 -3086.639 -1.955 0.140 0.282 -0.24 0.44 -0.77 0.39
1 8.90 890 1.872 -8.461 4.535 21.179 -104.340 63.294 -2181.679 2575.172 -3086.040 -1.540 -0.042 0.325 -0.25 0.44 -0.77 0.4
1 8.91 891 1.034 -8.275 4.597 7.721 -97.962 60.089 -2181.679 2620.143 -3116.020 -0.685 -0.208 0.298 -0.26 0.43 -0.76 0.41
1 8.92 892 0.623 -8.375 4.712 -0.977 -95.276 56.183 -2181.679 2620.143 -3116.020 -0.270 -0.107 0.184 -0.26 0.43 -0.76 0.42
1 8.93 893 0.235 -8.773 4.918 -5.005 -91.980 53.925 -2151.698 2470.241 -2891.017 0.119 0.287 -0.029 -0.26 0.43 -0.75 0.43
1 8.94 894 -0.115 -9.295 4.813 -3.876 -88.867 52.979 -2241.640 2635.283 -2920.997 0.468 0.802 0.065 -0.27 0.42 -0.75 0.43
1 8.95 895 -0.239 -9.864 4.439 7.019 -88.501 53.497 -2196.669 2680.254 -2801.075 0.587 1.367 0.430 -0.27 0.42 -0.75 0.44
1 8.96 896 -0.364 -10.051 4.233 15.411 -90.790 53.436 -2121.718 2590.163 -2771.095 0.703 1.552 0.634 -0.27 0.42 -0.74 0.44
1 8.97 897 -0.359 -9.994 4.329 22.553 -93.048 52.765 -2121.718 2590.163 -2771.095 0.697 1.503 0.553 -0.28 0.42 -0.74 0.45
1 8.98 898 -0.230 -9.687 3.941 28.351 -98.206 50.598 -2241.640 2710.234 -2771.095 0.573 1.225 0.990 -0.28 0.41 -0.73 0.46
1 8.99 899 -0.177 -9.448 3.797 28.839 -102.173 50.690 -2241.640 2710.234 -2771.095 0.525 1.000 1.157 -0.29 0.41 -0.73 0.47
1 9.00 900 -0.038 -9.299 3.505 25.635 -104.676 50.934 -2361.711 2650.273 -2786.085 0.396 0.865 1.471 -0.29 0.4 -0.73 0.48
1 9.01 901 -0.206 -9.271 3.218 22.980 -106.751 52.338 -2361.711 2695.244 -2831.056 0.575 0.846 1.775 -0.29 0.4 -0.72 0.48
1 9.02 902 -0.436 -9.462 3.184 20.142 -109.803 53.284 -2391.692 2680.254 -2695.994 0.816 1.045 1.821 -0.3 0.4 -0.72 0.49
1 9.03 903 -0.895 -9.395 2.782 18.555 -120.728 56.122 -2421.672 2830.156 -2695.994 1.287 0.983 2.230 -0.3 0.39 -0.72 0.49
1 9.04 904 -1.015 -9.343 3.213 18.951 -131.134 59.174 -2421.672 2830.156 -2695.994 1.419 0.934 1.804 -0.3 0.39 -0.71 0.5
1 9.05 905 -0.843 -9.563 4.698 20.783 -136.170 59.570 -2361.711 2725.225 -2576.072 1.261 1.156 0.321 -0.31 0.39 -0.71 0.51
1 9.06 906 0.651 -10.592 6.493 15.656 -123.902 68.207 -2362.161 2725.225 -2576.072 -0.199 2.201 -1.452 -0.32 0.38 -0.7 0.52
1 9.07 907 1.973 -11.047 6.795 6.012 -125.672 86.975 -2482.083 2845.146 -2396.189 -1.518 2.662 -1.744 -0.32 0.37 -0.69 0.53
1 9.08 908 3.639 -10.856 6.924 3.754 -127.930 90.485 -2497.073 2905.257 -2411.179 -3.201 2.469 -1.874 -0.32 0.37 -0.68 0.54
1 9.09 909 5.057 -10.645 6.886 9.674 -123.810 89.234 -2512.063 2965.218 -2321.088 -4.634 2.256 -1.837 -0.33 0.37 -0.68 0.55
1 9.10 910 5.492 -8.279 5.967 27.222 -128.174 94.208 -2587.165 2890.267 -2276.117 -5.090 -0.105 -0.908 -0.33 0.36 -0.67 0.56
1 9.11 911 4.228 -6.426 5.521 33.753 -117.066 74.066 -2587.165 2890.267 -2276.117 -3.848 -1.944 -0.438 -0.33 0.36 -0.66 0.56
1 9.12 912 2.696 -6.019 5.603 24.536 -109.711 58.258 -2587.165 2965.218 -2201.166 -2.306 -2.326 -0.480 -0.34 0.35 -0.66 0.57
1 9.13 913 1.288 -6.263 5.593 -1.831 -114.930 55.390 -2587.165 2965.218 -2201.166 -0.862 -2.056 -0.431 -0.34 0.35 -0.65 0.58
1 9.14 914 -0.464 -7.408 5.794 -38.635 -123.780 48.340 -2660.317 3040.020 -2171.036 0.940 -0.928 -0.663 -0.35 0.34 -0.64 0.59
1 9.15 915 -1.293 -8.658 5.923 -35.980 -127.625 44.037 -2585.366 2995.049 -1916.052 1.802 0.293 -0.844 -0.36 0.34 -0.64 0.59
1 9.16 916 -1.872 -9.606 5.603 -7.141 -132.233 49.683 -2525.255 3055.010 -1976.013 2.411 1.217 -0.565 -0.36 0.33 -0.63 0.6
1 9.17 917 -2.164 -9.405 5.363 33.295 -139.191 61.554 -2735.268 3114.971 -2020.983 2.740 1.014 -0.333 -0.37 0.33 -0.62 0.61
1 9.18 918 -1.197 -7.379 5.057 70.954 -141.236 80.597 -2735.268 3114.971 -2020.983 1.798 -0.984 0.017 -0.37 0.32 -0.62 0.61
1 9.19 919 -0.043 -5.909 4.918 63.294 -136.139 87.006 -2630.336 3190.072 -1886.071 0.638 -2.409 0.230 -0.37 0.32 -0.61 0.62
1 9.20 920 1.714 -5.440 5.014 8.179 -129.181 92.438 -2630.336 3190.072 -1886.071 -1.132 -2.806 0.251 -0.37 0.3 -0.6 0.64
1 9.21 921 2.184 -6.484 5.172 -36.408 -125.183 93.842 -2585.366 3190.072 -1811.120 -1.615 -1.772 0.078 -0.38 0.3 -0.59 0.65
1 9.22 922 2.399 -8.567 5.023 -56.458 -122.406 92.194 -2630.336 3190.072 -1736.019 -1.850 0.269 0.162 -0.38 0.3 -0.58 0.65
1 9.23 923 2.600 -10.324 4.774 -40.772 -121.308 89.020 -2630.037 3190.072 -1736.019 -2.057 1.977 0.332 -0.39 0.3 -0.57 0.66
1 9.24 924 2.801 -11.363 4.908 23.987 -119.141 78.186 -2600.056 3400.085 -1540.996 -2.276 2.985 0.149 -0.39 0.29 -0.56 0.66
1 9.25 925 2.955 -10.339 5.028 51.850 -119.812 72.876 -2600.056 3400.085 -1540.996 -2.438 1.965 0.037 -0.4 0.29 -0.56 0.67
1 9.26 926 2.576 -9.036 5.071 45.990 -122.712 71.076 -2720.128 3354.964 -1421.074 -2.061 0.694 0.046 -0.4 0.28 -0.55 0.68
1 9.27 927 1.963 -8.342 4.889 20.691 -125.702 69.031 -2720.128 3354.964 -1421.074 -1.443 0.034 0.283 -0.4 0.28 -0.54 0.68
1 9.28 928 1.408 -8.552 4.386 0.336 -132.752 66.803 -2557.484 3220.502 -1300.703 -0.836 0.259 0.803 -0.4 0.27 -0.53 0.69
1 9.29 929 1.283 -8.964 4.152 10.590 -139.069 64.942 -2572.474 3430.515 -1465.595 -0.683 0.665 1.025 -0.41 0.26 -0.52 0.7
1 9.30 930 1.398 -9.180 4.214 27.161 -145.874 60.944 -2572.474 3430.515 -1465.595 -0.762 0.882 0.962 -0.41 0.26 -0.52 0.71
1 9.31 931 1.719 -8.916 4.195 37.201 -148.530 59.479 -2602.455 3475.486 -1240.592 -1.037 0.633 0.997 -0.42 0.25 -0.51 0.71
1 9.32 932 2.193 -8.193 4.176 38.086 -149.476 57.678 -2602.455 3475.486 -1240.592 -1.459 -0.070 1.042 -0.42 0.24 -0.5 0.72
1 9.33 933 2.322 -7.705 4.224 32.227 -147.858 57.709 -2467.542 3670.509 -1060.709 -1.531 -0.537 1.020 -0.42 0.23 -0.49 0.72
1 9.34 934 2.567 -7.398 4.224 25.818 -145.844 58.258 -2466.343 3670.059 -1060.859 -1.717 -0.825 1.039 -0.43 0.23 -0.49 0.73
1 9.35 935 3.122 -7.576 4.295 13.702 -136.109 60.242 -2466.343 3820.111 -1105.830 -2.159 -0.625 0.982 -0.43 0.21 -0.47 0.74
1 9.36 936 3.256 -7.753 4.425 6.195 -126.404 63.172 -2481.333 3534.997 -970.917 -2.245 -0.448 0.845 -0.44 0.2 -0.47 0.74
1 9.37 937 3.472 -7.911 4.324 3.754 -117.798 63.477 -2481.333 3534.997 -970.917 -2.422 -0.295 0.930 -0.44 0.2 -0.46 0.75
1 9.38 938 3.419 -8.107 4.420 5.768 -111.023 61.371 -2436.363 3534.997 -1015.888 -2.337 -0.105 0.817 -0.44 0.19 -0.45 0.75
1 9.39 939 3.381 -8.078 4.113 11.322 -106.568 57.343 -2391.242 3745.010 -925.947 -2.268 -0.139 1.110 -0.45 0.19 -0.44 0.75
1 9.40 940 3.572 -7.863 3.975 12.421 -105.927 54.199 -2406.232 3805.121 -805.875 -2.429 -0.356 1.239 -0.45 0.18 -0.44 0.76
1 9.41 941 3.946 -7.738 3.850 9.186 -102.661 50.568 -2406.232 3805.121 -805.875 -2.770 -0.482 1.354 -0.45 0.18 -0.43 0.76
1 9.42 942 4.056 -7.757 4.013 1.495 -92.011 45.532 -2331.281 3760.000 -1015.888 -2.803 -0.470 1.162 -0.46 0.17 -0.42 0.77
1 9.43 943 3.778 -7.997 4.056 -1.984 -83.985 43.427 -2256.330 3805.121 -730.924 -2.487 -0.238 1.097 -0.46 0.16 -0.41 0.77
1 9.44 944 3.405 -8.279 4.113 -1.556 -78.491 40.619 -2256.330 3805.121 -730.924 -2.082 0.034 1.016 -0.46 0.16 -0.41 0.77
1 9.45 945 2.806 -8.509 4.161 1.007 -76.233 39.368 -2256.330 3805.121 -775.895 -1.456 0.254 0.945 -0.46 0.15 -0.41 0.77
1 9.46 946 2.567 -8.734 4.286 4.486 -75.287 39.765 -2226.350 3865.082 -700.943 -1.194 0.472 0.802 -0.47 0.15 -0.4 0.77
1 9.47 947 2.452 -8.658 4.176 5.493 -73.212 44.006 -2316.291 3880.072 -535.901 -1.062 0.389 0.898 -0.47 0.15 -0.4 0.78
1 9.48 948 2.538 -8.447 4.118 4.974 -71.930 46.387 -2315.092 3879.473 -536.351 -1.136 0.172 0.941 -0.47 0.14 -0.39 0.78
1 9.49 949 2.504 -8.346 4.147 4.364 -69.275 47.241 -2180.030 3834.502 -656.272 -1.097 0.064 0.899 -0.47 0.14 -0.39 0.78
1 9.50 950 2.442 -8.346 4.065 -0.427 -64.697 46.265 -2165.040 3774.391 -536.351 -1.030 0.047 0.951 -0.48 0.14 -0.38 0.78
1 9.51 951 2.543 -8.370 3.994 -3.784 -61.249 44.739 -2165.040 3774.391 -536.351 -1.132 0.059 1.003 -0.48 0.13 -0.37 0.79
1 9.52 952 2.418 -8.471 3.970 -7.111 -59.265 44.464 -2060.108 3924.443 -536.351 -1.008 0.145 1.003 -0.48 0.13 -0.37 0.79
1 9.53 953 2.389 -8.739 3.769 -8.423 -58.167 42.786 -2180.030 3939.434 -581.321 -0.982 0.396 1.177 -0.48 0.13 -0.36 0.79
1 9.54 954 2.236 -8.926 3.764 -9.399 -59.906 40.222 -2105.079 3834.502 -521.360 -0.831 0.566 1.152 -0.48 0.13 -0.36 0.79
1 9.55 955 2.045 -9.223 3.572 -12.238 -63.599 38.605 -2105.079 3834.502 -521.360 -0.639 0.844 1.313 -0.48 0.13 -0.35 0.79
1 9.56 956 2.121 -9.587 3.740 -14.404 -68.665 39.398 -1985.007 3819.362 -491.230 -0.712 1.188 1.109 -0.49 0.12 -0.35 0.79
1 9.57 957 2.270 -9.908 3.840 -12.482 -72.113 46.509 -1865.085 3879.473 -311.347 -0.853 1.462 0.925 -0.49 0.12 -0.34 0.79
1 9.58 958 2.447 -9.874 3.773 -7.172 -72.144 52.307 -1866.884 3880.672 -310.448 -1.039 1.411 0.963 -0.49 0.12 -0.33 0.79
1 9.59 959 2.830 -9.726 3.596 -3.143 -71.411 59.204 -1866.884 4030.724 -385.399 -1.439 1.248 1.118 -0.5 0.11 -0.33 0.8
1 9.60 960 2.969 -9.673 3.357 -1.465 -70.160 65.338 -1851.894 4015.734 -295.458 -1.600 1.179 1.335 -0.5 0.11 -0.32 0.8
1 9.61 961 3.247 -9.357 3.333 -1.709 -69.000 71.747 -1896.864 4060.705 -340.428 -1.903 0.844 1.332 -0.5 0.11 -0.31 0.8
1 9.62 962 3.539 -8.734 3.352 -1.495 -63.202 76.569 -1896.864 4060.705 -340.428 -2.228 0.202 1.287 -0.5 0.11 -0.31 0.8
1 9.63 963 3.649 -8.624 3.754 -3.174 -59.998 75.073 -1821.763 4090.685 -295.458 -2.376 0.074 0.862 -0.5 0.11 -0.3 0.8
1 9.64 964 3.558 -8.734 5.210 -10.559 -58.747 65.949 -1536.799 4000.744 -235.497 -2.357 0.149 -0.639 -0.51 0.1 -0.29 0.81
1 9.65 965 3.208 -9.180 6.321 -17.975 -62.287 52.796 -1536.799 4000.744 -235.497 -2.030 0.578 -1.775 -0.51 0.1 -0.28 0.81
1 9.66 966 2.988 -9.678 6.421 -22.797 -69.489 41.748 -1536.799 4000.744 -355.418 -1.831 1.055 -1.911 -0.51 0.1 -0.27 0.81
1 9.67 967 2.820 -9.884 5.861 -21.790 -76.081 38.361 -1506.818 4150.646 -310.448 -1.667 1.238 -1.393 -0.51 0.1 -0.27 0.81
1 9.68 968 2.351 -9.151 4.856 -8.545 -75.531 39.856 -1551.789 4165.636 -220.506 -1.195 0.486 -0.426 -0.51 0.1 -0.26 0.81
1 9.69 969 1.561 -8.260 5.018 -2.411 -70.893 38.727 -1551.789 4165.636 -220.506 -0.405 -0.418 -0.615 -0.52 0.09 -0.26 0.81
1 9.70 970 0.781 -7.595 5.445 -1.984 -69.733 34.851 -1506.818 4225.747 -205.516 0.379 -1.090 -1.056 -0.52 0.09 -0.25 0.81
1 9.71 971 0.259 -7.231 5.588 -7.019 -76.142 28.351 -1446.857 4165.636 -295.458 0.902 -1.458 -1.207 -0.52 0.09 -0.25 0.81
1 9.72 972 0.752 -7.667 5.660 -15.778 -89.905 26.520 -1447.157 4166.236 -295.158 0.432 -1.032 -1.304 -0.52 0.08 -0.24 0.82
1 9.73 973 1.537 -7.939 6.149 -14.435 -90.210 28.992 -1357.216 4301.298 -175.236 -0.333 -0.769 -1.818 -0.52 0.07 -0.23 0.82
1 9.74 974 1.915 -8.026 6.800 -7.843 -79.865 29.633 -1372.206 4241.187 -40.174 -0.690 -0.689 -2.489 -0.52 0.07 -0.23 0.82
1 9.75 975 1.710 -8.054 6.886 3.845 -69.184 24.841 -1372.206 4091.285 64.608 -0.467 -0.660 -2.579 -0.53 0.07 -0.22 0.82
1 9.76 976 0.800 -7.887 6.517 13.458 -68.970 16.144 -1372.206 4091.285 64.608 0.458 -0.822 -2.204 -0.53 0.06 -0.22 0.82
1 9.77 977 0.498 -7.796 6.067 7.874 -79.499 11.505 -1297.255 4241.187 -40.174 0.782 -0.899 -1.731 -0.52 0.06 -0.22 0.82
1 9.78 978 0.393 -7.959 6.105 -3.723 -90.027 10.071 -1327.235 4346.269 -55.164 0.917 -0.724 -1.754 -0.52 0.05 -0.21 0.82
1 9.79 979 0.848 -9.094 6.603 -14.679 -87.525 10.712 -1327.235 4346.269 -55.164 0.541 0.412 -2.274 -0.53 0.04 -0.2 0.82
1 9.80 980 1.063 -10.310 6.584 -11.353 -78.491 16.876 -1282.265 4271.167 -100.285 0.367 1.617 -2.291 -0.53 0.04 -0.2 0.82
1 9.81 981 1.149 -11.071 6.283 -3.143 -74.799 31.006 -1222.154 4241.187 -10.193 0.306 2.369 -2.018 -0.53 0.04 -0.2 0.82
1 9.82 982 0.919 -10.860 5.689 8.514 -76.142 49.011 -1222.154 4241.187 -10.193 0.537 2.151 -1.440 -0.53 0.03 -0.19 0.82
1 9.83 983 0.661 -9.836 5.200 17.120 -76.691 69.367 -1282.265 4301.298 49.618 0.775 1.122 -0.952 -0.53 0.03 -0.18 0.83
1 9.84 984 0.426 -9.362 4.856 9.522 -73.792 79.682 -1222.154 4211.207 -40.174 0.972 0.646 -0.600 -0.53 0.03 -0.18 0.83
1 9.85 985 0.263 -9.127 4.477 0.031 -72.388 86.640 -1057.261 4271.167 -25.184 1.081 0.403 -0.220 -0.53 0.03 -0.17 0.83
1 9.86 986 -0.005 -8.892 4.219 -2.838 -71.411 89.356 -1057.261 4271.167 -25.184 1.275 0.154 0.030 -0.53 0.02 -0.16 0.83
1 9.87 987 0.053 -8.849 4.089 7.660 -71.350 88.196 -1027.880 4227.546 125.318 1.056 0.076 0.134 -0.53 0.02 -0.14 0.83
1 9.88 988 0.608 -8.629 4.295 16.754 -71.350 86.334 -937.789 4287.507 110.328 0.422 -0.153 -0.069 -0.53 0.02 -0.13 0.84
1 9.89 989 1.154 -8.495 4.334 23.163 -70.191 83.344 -937.789 4287.507 110.328 -0.197 -0.287 -0.091 -0.53 0.02 -0.13 0.84
1 9.90 990 1.671 -7.892 4.338 23.956 -68.360 76.721 -817.867 4317.487 -9.594 -0.778 -0.885 -0.072 -0.53 0.02 -0.12 0.84
1 9.91 991 2.002 -7.456 4.176 20.508 -64.545 72.449 -877.828 4377.448 50.367 -1.162 -1.313 0.118 -0.53 0.02 -0.11 0.84
1 9.92 992 1.839 -7.437 4.190 13.275 -58.136 69.550 -637.834 4362.458 35.377 -1.045 -1.324 0.129 -0.53 0.02 -0.1 0.84
1 9.93 993 1.379 -7.336 4.080 1.556 -50.598 67.902 -637.834 4362.458 35.377 -0.639 -1.422 0.255 -0.53 0.02 -0.1 0.84
1 9.94 994 0.675 -7.844 3.893 -11.353 -47.272 60.944 -533.053 4289.156 -8.844 -0.047 -0.928 0.432 -0.53 0.01 -0.08 0.84
1 9.95 995 0.311 -8.442 3.687 -14.648 -49.103 56.305 -563.033 4319.136 -188.877 0.269 -0.343 0.617 -0.53 0.01 -0.08 0.84
1 9.96 996 0.335 -8.754 3.587 -10.223 -53.223 50.995 -563.033 4319.136 -188.877 0.203 -0.045 0.694 -0.53 0.01 -0.07 0.84
1 9.97 997 0.670 -8.734 3.491 -1.404 -58.106 45.960 -473.092 4424.218 -53.815 -0.164 -0.076 0.771 -0.53 0.01 -0.07 0.84
