COL1	TIME	ACC_X	ACC_Y	ACC_Z	GYR_X	GYR_Y	GYR_Z	MAG_X	MAG_Y	MAG_Z	LACC_X	LACC_Y	LACC_Z	QUAT_X	QUAT_Y	QUAT_Z	QUAT_W
1 0.00 0 -0.172 -9.572 1.772 1.160 -0.610 2.594 749.961 1079.896 4094.133 -0.093 -0.076 -0.073 -0.05 -0.64 0.77 0.04
1 0.01 1 -0.211 -9.687 1.767 0.854 -1.068 2.899 779.942 1049.916 4019.032 -0.054 0.039 -0.067 -0.05 -0.64 0.77 0.04
1 0.02 2 -0.326 -9.730 1.863 1.007 -0.793 3.174 779.942 1049.916 4019.032 0.062 0.083 -0.163 -0.05 -0.64 0.77 0.04
1 0.03 3 -0.187 -9.735 1.690 1.526 -0.793 2.991 779.942 1004.945 4019.032 -0.078 0.088 0.011 -0.05 -0.64 0.77 0.04
1 0.04 4 -0.283 -9.649 1.753 0.977 -1.465 3.052 734.971 1094.887 4154.094 0.015 0.002 -0.050 -0.05 -0.64 0.77 0.04
1 0.05 5 -0.345 -9.654 1.757 0.519 -0.305 2.655 734.971 1094.887 4154.094 0.075 0.007 -0.053 -0.05 -0.64 0.77 0.04
1 0.06 6 -0.215 -9.668 1.801 0.610 -0.153 2.502 749.961 974.965 4064.002 -0.055 0.021 -0.096 -0.05 -0.64 0.77 0.04
1 0.07 7 -0.211 -9.639 1.781 0.244 -0.641 2.289 719.981 1079.896 4124.113 -0.060 -0.007 -0.076 -0.05 -0.64 0.77 0.04
1 0.08 8 -0.249 -9.601 1.733 0.275 -1.129 2.533 749.961 1004.945 4019.032 -0.021 -0.045 -0.027 -0.05 -0.64 0.77 0.04
1 0.09 9 -0.249 -9.587 1.791 0.244 -0.854 2.136 749.961 1004.945 4019.032 -0.021 -0.060 -0.084 -0.05 -0.64 0.77 0.04
1 0.10 10 -0.354 -9.620 1.772 -0.061 -0.854 1.404 839.903 989.955 4049.012 0.084 -0.026 -0.064 -0.05 -0.64 0.77 0.04
1 0.11 11 -0.278 -9.711 1.868 -0.153 -1.007 1.953 629.890 1019.936 4004.042 0.008 0.065 -0.158 -0.05 -0.64 0.77 0.04
1 0.12 12 -0.316 -9.673 1.743 -0.397 -0.122 1.862 629.890 1019.936 4004.042 0.047 0.027 -0.033 -0.05 -0.64 0.77 0.04
1 0.13 13 -0.172 -9.611 1.733 0.244 -0.732 2.533 659.870 914.854 4259.025 -0.098 -0.035 -0.024 -0.05 -0.64 0.77 0.04
1 0.14 14 -0.297 -9.682 1.729 -0.244 -0.275 2.136 779.942 1004.945 4199.064 0.027 0.037 -0.019 -0.05 -0.64 0.77 0.04
1 0.15 15 -0.249 -9.702 1.791 -0.214 -0.366 1.953 824.913 1004.945 4019.032 -0.021 0.056 -0.081 -0.05 -0.64 0.77 0.04
1 0.16 16 -0.287 -9.601 1.652 -0.061 -1.007 1.587 824.913 1004.945 4019.032 0.017 -0.045 0.058 -0.05 -0.64 0.77 0.04
1 0.17 17 -0.182 -9.678 1.743 0.183 -0.580 1.099 629.890 1214.958 4079.143 -0.088 0.032 -0.033 -0.05 -0.64 0.77 0.04
1 0.18 18 -0.239 -9.673 1.762 0.000 -0.702 1.617 719.981 1124.867 4019.032 -0.031 0.027 -0.052 -0.05 -0.64 0.77 0.04
1 0.19 19 -0.182 -9.730 1.772 -0.244 0.305 1.465 719.981 1124.867 4019.032 -0.088 0.085 -0.062 -0.05 -0.64 0.77 0.04
1 0.20 20 -0.158 -9.764 1.901 -1.312 -0.214 1.404 644.880 1199.968 3959.071 -0.112 0.118 -0.191 -0.05 -0.64 0.77 0.04
1 0.21 21 -0.369 -9.654 1.786 -0.916 -0.366 1.465 599.909 1274.919 4019.032 0.099 0.008 -0.077 -0.05 -0.64 0.77 0.04
1 0.22 22 -0.268 -9.639 1.772 0.092 -0.366 0.977 719.981 1049.916 4019.032 -0.002 -0.007 -0.063 -0.05 -0.64 0.77 0.04
1 0.23 23 -0.225 -9.678 1.733 0.397 -0.793 1.068 719.981 1049.916 4019.032 -0.045 0.032 -0.024 -0.05 -0.64 0.77 0.04
1 0.24 24 -0.283 -9.673 1.777 0.061 -1.129 1.495 689.851 1169.988 4184.074 0.012 0.027 -0.067 -0.05 -0.64 0.77 0.04
1 0.25 25 -0.283 -9.639 1.710 0.183 -0.519 1.495 599.909 1079.896 4019.032 0.012 -0.007 -0.000 -0.05 -0.64 0.77 0.04
1 0.26 26 -0.292 -9.654 1.743 -0.061 -0.244 1.801 599.909 1079.896 4019.032 0.022 0.008 -0.033 -0.05 -0.64 0.77 0.04
1 0.27 27 -0.254 -9.668 1.786 -0.092 -0.092 1.831 734.971 1019.936 4109.123 -0.017 0.022 -0.076 -0.05 -0.64 0.77 0.04
1 0.28 28 -0.335 -9.678 1.762 0.244 -0.488 1.465 734.971 1139.857 4109.123 0.065 0.032 -0.051 -0.05 -0.64 0.77 0.04
1 0.29 29 -0.316 -9.750 1.710 0.763 -0.336 1.678 734.971 1139.857 4109.123 0.045 0.104 0.002 -0.05 -0.64 0.77 0.04
1 0.30 30 -0.239 -9.539 1.791 -0.092 -0.244 1.617 689.851 1064.906 4184.074 -0.031 -0.107 -0.080 -0.05 -0.64 0.77 0.04
1 0.31 31 -0.292 -9.625 1.700 -0.458 -0.793 0.671 689.851 989.955 4154.094 0.022 -0.021 0.012 -0.05 -0.64 0.77 0.04
1 0.32 32 -0.326 -9.630 1.829 -0.366 -0.732 1.465 779.942 1199.968 4199.064 0.056 -0.016 -0.119 -0.05 -0.64 0.77 0.04
1 0.33 33 -0.215 -9.654 1.733 -0.092 -0.305 1.160 779.942 1199.968 4199.064 -0.054 0.008 -0.023 -0.05 -0.64 0.77 0.04
1 0.34 34 -0.350 -9.582 1.820 0.061 -0.702 0.977 749.961 1049.916 4064.002 0.081 -0.064 -0.110 -0.05 -0.64 0.77 0.04
1 0.35 35 -0.335 -9.668 1.848 -0.549 -0.092 1.404 554.938 1019.936 4079.143 0.066 0.022 -0.138 -0.05 -0.64 0.77 0.04
1 0.36 36 -0.206 -9.654 1.786 -0.183 -0.916 1.617 554.938 1019.936 4079.143 -0.064 0.008 -0.076 -0.05 -0.64 0.77 0.04
1 0.37 37 -0.364 -9.654 1.724 -0.488 0.000 2.106 809.922 1094.887 4109.123 0.094 0.008 -0.013 -0.05 -0.64 0.77 0.04
1 0.38 38 -0.215 -9.697 1.815 0.305 0.061 1.831 809.922 1064.906 4154.094 -0.055 0.051 -0.104 -0.05 -0.64 0.77 0.04
1 0.39 39 -0.177 -9.625 1.863 0.214 0.122 2.777 809.922 1214.958 4184.074 -0.093 -0.021 -0.152 -0.05 -0.64 0.77 0.04
1 0.40 40 -0.297 -9.702 1.777 0.824 0.031 1.801 809.922 1214.958 4184.074 0.024 0.056 -0.065 -0.05 -0.64 0.77 0.04
1 0.41 41 -0.201 -9.687 1.810 0.427 -0.122 2.228 734.971 1064.906 4004.042 -0.072 0.042 -0.099 -0.05 -0.64 0.77 0.04
1 0.42 42 -0.244 -9.697 1.796 0.580 -0.153 2.045 719.981 974.965 4019.032 -0.028 0.051 -0.083 -0.05 -0.64 0.77 0.04
1 0.43 43 -0.326 -9.577 1.705 0.488 0.031 1.526 719.981 974.965 4019.032 0.053 -0.068 0.008 -0.05 -0.64 0.77 0.04
1 0.44 44 -0.311 -9.649 1.710 0.244 0.366 1.587 674.860 1124.867 3989.051 0.039 0.004 0.003 -0.05 -0.64 0.77 0.04
1 0.45 45 -0.292 -9.668 1.719 0.702 0.214 1.465 854.893 1154.848 4064.002 0.020 0.023 -0.006 -0.05 -0.64 0.77 0.04
1 0.46 46 -0.311 -9.668 1.724 0.397 0.549 1.709 839.903 1019.936 4079.143 0.039 0.023 -0.011 -0.05 -0.64 0.77 0.04
1 0.47 47 -0.283 -9.721 1.733 0.397 0.488 2.075 839.903 1019.936 4079.143 0.010 0.076 -0.021 -0.05 -0.64 0.77 0.04
1 0.48 48 -0.316 -9.678 1.820 0.092 0.397 1.740 734.971 1094.887 4154.094 0.043 0.033 -0.106 -0.05 -0.64 0.77 0.04
1 0.49 49 -0.192 -9.721 1.700 0.122 0.793 1.831 734.971 1094.887 4109.123 -0.082 0.076 0.013 -0.05 -0.64 0.77 0.04
1 0.50 50 -0.287 -9.577 1.719 0.183 0.458 2.075 734.971 1094.887 4109.123 0.013 -0.068 -0.007 -0.05 -0.64 0.77 0.04
1 0.51 51 -0.268 -9.644 1.815 0.214 0.366 1.862 734.971 1094.887 4109.123 -0.006 -0.001 -0.103 -0.05 -0.64 0.77 0.04
1 0.52 52 -0.311 -9.635 1.762 -0.275 0.519 1.923 914.854 1019.936 4184.074 0.037 -0.011 -0.049 -0.05 -0.64 0.77 0.04
1 0.53 53 -0.263 -9.601 1.743 -0.488 0.824 2.441 689.851 1094.887 4109.123 -0.012 -0.044 -0.030 -0.05 -0.64 0.77 0.04
1 0.54 54 -0.268 -9.659 1.671 -0.458 0.397 2.350 689.851 1094.887 4109.123 -0.008 0.013 0.040 -0.05 -0.64 0.77 0.04
1 0.55 55 -0.196 -9.687 1.710 0.122 0.946 3.052 719.981 1124.867 4094.133 -0.083 0.041 -0.001 -0.05 -0.64 0.77 0.04
1 0.56 56 -0.316 -9.682 1.815 -0.153 0.610 2.899 659.870 1064.906 4184.074 0.035 0.037 -0.106 -0.05 -0.64 0.77 0.04
1 0.57 57 -0.292 -9.587 1.753 0.305 0.580 1.892 659.870 1064.906 4184.074 0.009 -0.059 -0.044 -0.05 -0.64 0.77 0.04
1 0.58 58 -0.259 -9.620 1.705 -0.336 0.610 2.319 584.919 1139.857 4079.143 -0.026 -0.026 0.003 -0.05 -0.64 0.77 0.04
1 0.59 59 -0.115 -9.750 1.772 -0.214 0.000 1.556 809.922 1094.887 4184.074 -0.170 0.104 -0.065 -0.05 -0.64 0.77 0.04
1 0.60 60 -0.239 -9.797 1.743 -0.366 0.549 1.740 824.913 1199.968 4064.002 -0.045 0.152 -0.036 -0.05 -0.64 0.77 0.04
1 0.61 61 -0.402 -9.687 1.748 0.183 -0.214 1.373 824.913 1199.968 4064.002 0.117 0.041 -0.042 -0.05 -0.64 0.77 0.04
1 0.62 62 -0.311 -9.644 1.719 0.732 0.366 0.702 719.981 974.965 4274.016 0.026 -0.002 -0.013 -0.05 -0.64 0.77 0.04
1 0.63 63 -0.249 -9.692 1.767 -0.275 0.427 0.549 689.851 1169.988 4154.094 -0.036 0.046 -0.061 -0.05 -0.64 0.77 0.04
1 0.64 64 -0.335 -9.673 1.729 0.183 -0.275 1.038 689.851 1169.988 4154.094 0.052 0.027 -0.023 -0.05 -0.64 0.77 0.04
1 0.65 65 -0.321 -9.807 1.695 0.275 -0.122 1.007 689.851 1064.906 4049.012 0.038 0.161 0.010 -0.05 -0.64 0.77 0.04
1 0.66 66 -0.354 -9.783 1.733 0.336 -0.092 0.946 599.909 1124.867 3914.100 0.071 0.137 -0.029 -0.05 -0.64 0.77 0.04
1 0.67 67 -0.354 -9.649 1.662 0.336 0.061 1.526 689.851 1064.906 4079.143 0.071 0.002 0.042 -0.05 -0.64 0.77 0.04
1 0.68 68 -0.426 -9.668 1.652 0.275 -0.916 2.350 689.851 1064.906 4079.143 0.142 0.022 0.052 -0.05 -0.64 0.77 0.04
1 0.69 69 -0.306 -9.524 1.719 -0.610 -0.488 1.740 809.922 1169.988 4079.143 0.022 -0.122 -0.015 -0.05 -0.64 0.77 0.04
1 0.70 70 -0.359 -9.726 1.772 -0.092 -0.702 1.831 809.922 1064.906 4109.123 0.074 0.079 -0.066 -0.05 -0.64 0.77 0.04
1 0.71 71 -0.292 -9.635 1.738 0.214 -0.763 1.740 809.922 1064.906 4109.123 0.006 -0.012 -0.033 -0.05 -0.64 0.77 0.04
1 0.72 72 -0.335 -9.601 1.777 0.549 -0.580 2.258 749.961 1079.896 3989.051 0.049 -0.045 -0.071 -0.05 -0.64 0.77 0.04
1 0.73 73 -0.330 -9.649 1.609 -0.397 -0.641 1.862 764.952 1139.857 4109.123 0.044 0.003 0.097 -0.05 -0.64 0.77 0.04
1 0.74 74 -0.259 -9.668 1.705 -0.244 -1.251 2.045 674.860 1229.949 4244.035 -0.028 0.022 -0.000 -0.05 -0.64 0.77 0.04
1 0.75 75 -0.144 -9.673 1.609 0.153 -1.007 2.472 674.860 1229.949 4244.035 -0.143 0.027 0.096 -0.05 -0.64 0.77 0.04
1 0.76 76 -0.158 -9.740 1.714 0.580 -1.190 1.984 629.890 1094.887 4184.074 -0.128 0.094 -0.010 -0.05 -0.64 0.77 0.04
1 0.77 77 -0.402 -9.477 1.733 0.702 -1.282 2.228 779.942 1229.949 4064.002 0.117 -0.170 -0.029 -0.05 -0.64 0.77 0.04
1 0.78 78 -0.077 -9.577 1.820 1.343 -0.946 2.533 779.942 1229.949 4064.002 -0.209 -0.069 -0.115 -0.05 -0.64 0.77 0.04
1 0.79 79 -0.192 -9.673 1.729 0.580 -0.763 2.930 734.971 989.955 4214.055 -0.094 0.027 -0.023 -0.05 -0.64 0.77 0.04
1 0.80 80 -0.273 -9.659 1.844 0.763 -0.916 3.479 644.880 1079.896 4169.084 -0.013 0.013 -0.137 -0.05 -0.64 0.77 0.04
1 0.81 81 -0.292 -9.644 1.666 1.038 -0.275 2.991 764.952 989.955 4109.123 0.005 -0.002 0.041 -0.05 -0.64 0.77 0.04
1 0.82 82 -0.350 -9.697 1.710 0.366 -1.068 2.045 764.952 989.955 4109.123 0.061 0.051 -0.002 -0.05 -0.64 0.77 0.04
1 0.83 83 -0.263 -9.548 1.786 0.000 -0.732 1.892 629.890 1139.857 4109.123 -0.025 -0.097 -0.078 -0.05 -0.64 0.77 0.04
1 0.84 84 -0.311 -9.754 1.781 -0.153 -0.641 1.404 734.971 1094.887 4049.012 0.023 0.109 -0.073 -0.05 -0.64 0.77 0.04
1 0.85 85 -0.292 -9.706 1.810 0.427 -0.793 1.587 734.971 1094.887 4049.012 0.004 0.061 -0.101 -0.05 -0.64 0.77 0.04
1 0.86 86 -0.297 -9.682 1.772 -0.092 -1.068 0.977 719.981 1154.848 4244.035 0.008 0.037 -0.062 -0.05 -0.64 0.77 0.04
1 0.87 87 -0.278 -9.692 1.762 -0.427 -1.038 1.434 719.981 1154.848 4244.035 -0.011 0.047 -0.051 -0.05 -0.64 0.77 0.04
1 0.88 88 -0.302 -9.740 1.700 0.397 -1.282 1.556 839.903 1139.857 4079.143 0.012 0.095 0.011 -0.05 -0.64 0.77 0.04
1 0.89 89 -0.278 -9.572 1.705 1.038 -1.007 1.648 839.903 1139.857 4079.143 -0.012 -0.073 0.007 -0.05 -0.64 0.77 0.04
1 0.90 90 -0.292 -9.625 1.767 0.732 -1.038 0.702 719.981 1154.848 3959.071 0.003 -0.020 -0.056 -0.05 -0.64 0.77 0.04
1 0.91 91 -0.321 -9.582 1.786 0.763 -1.190 0.977 734.971 1064.906 4004.042 0.032 -0.063 -0.075 -0.05 -0.64 0.77 0.04
1 0.92 92 -0.354 -9.644 1.662 0.397 -1.495 1.373 734.971 1064.906 4004.042 0.065 -0.001 0.051 -0.05 -0.64 0.77 0.04
1 0.93 93 -0.402 -9.706 1.710 0.824 -1.587 1.831 779.942 1124.867 4124.113 0.112 0.062 0.003 -0.05 -0.64 0.77 0.04
1 0.94 94 -0.412 -9.764 1.748 0.732 -1.495 1.862 779.942 1124.867 4124.113 0.121 0.119 -0.035 -0.05 -0.64 0.77 0.04
1 0.95 95 -0.359 -9.663 1.695 0.793 -1.251 1.617 734.971 1169.988 4154.094 0.068 0.019 0.018 -0.05 -0.64 0.77 0.04
1 0.96 96 -0.335 -9.644 1.705 0.153 -1.617 2.258 734.971 1169.988 4154.094 0.043 -0.001 0.008 -0.05 -0.64 0.77 0.04
1 0.97 97 -0.340 -9.726 1.690 1.007 -1.190 1.465 764.952 1094.887 4259.025 0.048 0.081 0.023 -0.05 -0.64 0.77 0.04
1 0.98 98 -0.330 -9.726 1.738 1.343 -2.289 1.892 659.870 1139.857 4004.042 0.038 0.081 -0.026 -0.05 -0.64 0.77 0.04
1 0.99 99 -0.326 -9.649 1.743 1.190 -2.197 1.587 659.870 1139.857 4004.042 0.033 0.005 -0.028 -0.05 -0.64 0.77 0.04
1 1.00 100 -0.297 -9.740 1.824 1.099 -1.892 1.862 779.942 1049.916 4169.084 0.004 0.096 -0.109 -0.05 -0.64 0.77 0.04
1 1.01 101 -0.359 -9.750 1.791 1.160 -1.801 1.953 779.942 1049.916 4169.084 0.066 0.105 -0.074 -0.05 -0.64 0.77 0.04
1 1.02 102 -0.321 -9.702 1.753 0.671 -2.228 2.441 959.975 1004.945 4094.133 0.028 0.058 -0.035 -0.05 -0.64 0.77 0.04
1 1.03 103 -0.225 -9.745 1.671 0.580 -1.099 2.228 959.975 1004.945 4094.133 -0.068 0.101 0.047 -0.05 -0.64 0.77 0.04
1 1.04 104 -0.263 -9.639 1.796 1.373 -1.343 2.167 839.903 1019.936 3974.061 -0.030 -0.004 -0.078 -0.05 -0.64 0.77 0.04
1 1.05 105 -0.316 -9.644 1.681 1.465 -1.343 2.808 809.922 1139.857 3974.061 0.023 0.000 0.037 -0.05 -0.64 0.77 0.04
1 1.06 106 -0.335 -9.534 1.815 1.160 -0.793 1.862 809.922 1139.857 3974.061 0.042 -0.110 -0.096 -0.05 -0.64 0.77 0.04
1 1.07 107 -0.306 -9.706 1.839 1.038 -0.885 2.625 839.903 1064.906 4109.123 0.014 0.063 -0.119 -0.05 -0.64 0.77 0.04
1 1.08 108 -0.364 -9.625 1.772 1.129 -1.068 2.777 839.903 1064.906 4109.123 0.071 -0.018 -0.051 -0.05 -0.64 0.77 0.04
1 1.09 109 -0.220 -9.582 1.628 1.740 -0.793 2.289 764.952 989.955 4154.094 -0.073 -0.061 0.093 -0.05 -0.64 0.77 0.04
1 1.10 110 -0.215 -9.592 1.762 1.770 -1.770 2.716 779.942 1124.867 4064.002 -0.078 -0.052 -0.041 -0.05 -0.64 0.77 0.04
1 1.11 111 -0.345 -9.726 1.738 1.099 -1.007 1.984 644.880 1049.916 4019.032 0.050 0.083 -0.015 -0.05 -0.64 0.77 0.04
1 1.12 112 -0.235 -9.668 1.796 1.343 -0.946 2.045 689.851 1094.887 4109.123 -0.061 0.025 -0.073 -0.05 -0.64 0.77 0.04
1 1.13 113 -0.364 -9.678 1.748 1.038 -0.702 1.617 689.851 1094.887 4109.123 0.069 0.035 -0.024 -0.05 -0.64 0.77 0.04
1 1.14 114 -0.302 -9.783 1.690 0.977 -1.282 0.763 809.922 1244.939 4079.143 0.007 0.140 0.034 -0.05 -0.64 0.77 0.04
1 1.15 115 -0.383 -9.716 1.729 -0.183 -1.434 1.190 809.922 1244.939 4079.143 0.088 0.073 -0.005 -0.05 -0.64 0.77 0.04
1 1.16 116 -0.283 -9.615 1.777 0.366 -1.160 1.343 764.952 1019.936 4049.012 -0.012 -0.027 -0.052 -0.05 -0.64 0.77 0.04
1 1.17 117 -0.383 -9.726 1.767 1.190 -1.129 1.251 689.851 1139.857 4154.094 0.089 0.083 -0.042 -0.05 -0.64 0.77 0.04
1 1.18 118 -0.297 -9.654 1.733 1.312 -0.793 1.129 824.913 1154.848 4019.032 0.002 0.011 -0.009 -0.05 -0.64 0.77 0.04
1 1.19 119 -0.292 -9.582 1.815 0.366 -1.038 1.221 809.922 1019.936 4214.055 -0.003 -0.061 -0.090 -0.05 -0.64 0.77 0.04
1 1.20 120 -0.163 -9.587 1.786 -0.031 -1.190 1.038 809.922 1019.936 4214.055 -0.131 -0.056 -0.060 -0.05 -0.64 0.77 0.04
1 1.21 121 -0.081 -9.649 1.868 -0.458 -1.495 1.007 779.942 1049.916 4169.084 -0.213 0.007 -0.141 -0.05 -0.64 0.77 0.04
1 1.22 122 -0.302 -9.706 1.743 0.092 -1.831 0.580 779.942 1049.916 4169.084 0.009 0.064 -0.017 -0.05 -0.64 0.77 0.04
1 1.23 123 -0.254 -9.639 1.810 -0.275 -1.648 0.549 629.890 989.955 4214.055 -0.037 -0.003 -0.084 -0.05 -0.64 0.77 0.04
1 1.24 124 -0.206 -9.663 1.724 -0.946 -2.869 -0.214 599.909 1154.848 4064.002 -0.083 0.021 0.002 -0.05 -0.64 0.77 0.04
1 1.25 125 -0.263 -9.706 1.690 -0.671 -2.563 -0.824 854.893 1124.867 4064.002 -0.023 0.064 0.034 -0.05 -0.64 0.77 0.04
1 1.26 126 -0.287 -9.702 1.767 0.000 -2.625 -1.068 764.952 944.984 4154.094 0.006 0.058 -0.044 -0.05 -0.64 0.77 0.04
1 1.27 127 -0.225 -9.740 1.633 0.427 -3.418 -1.770 764.952 944.984 4154.094 -0.052 0.097 0.090 -0.05 -0.64 0.77 0.04
1 1.28 128 -0.072 -9.673 1.805 0.671 -3.998 -1.770 719.981 1079.896 4019.032 -0.192 0.029 -0.082 -0.05 -0.64 0.77 0.04
1 1.29 129 -0.273 -9.639 1.805 0.244 -4.181 -2.167 719.981 1079.896 4019.032 0.016 -0.004 -0.081 -0.05 -0.64 0.77 0.04
1 1.30 130 -0.110 -9.769 1.642 0.519 -4.761 -2.167 599.909 1124.867 4169.084 -0.140 0.125 0.082 -0.05 -0.64 0.77 0.04
1 1.31 131 -0.330 -9.754 1.796 1.038 -6.836 -3.265 869.883 1139.857 4049.012 0.088 0.110 -0.071 -0.05 -0.64 0.77 0.04
1 1.32 132 -0.263 -9.802 1.891 1.190 -7.935 -5.249 779.942 1079.896 4169.084 0.030 0.158 -0.166 -0.05 -0.64 0.77 0.04
1 1.33 133 -0.283 -9.706 1.982 1.465 -8.698 -5.707 839.903 1094.887 4079.143 0.061 0.063 -0.254 -0.05 -0.64 0.77 0.04
1 1.34 134 -0.244 -9.788 1.834 1.740 -10.773 -2.747 839.903 1094.887 4079.143 0.035 0.144 -0.103 -0.05 -0.64 0.77 0.04
1 1.35 135 -0.220 -9.888 1.858 2.808 -13.336 -1.709 824.913 1049.916 4244.035 0.030 0.245 -0.121 -0.05 -0.64 0.77 0.04
1 1.36 136 -0.072 -9.836 1.762 3.815 -15.106 -3.326 824.913 1049.916 4244.035 -0.110 0.193 -0.021 -0.04 -0.64 0.77 0.04
1 1.37 137 -0.077 -9.817 1.738 4.700 -15.808 -1.068 629.890 1064.906 4079.143 -0.094 0.175 0.009 -0.04 -0.64 0.77 0.04
1 1.38 138 0.019 -9.682 1.719 5.859 -16.968 -0.153 689.851 1094.887 4079.143 -0.181 0.042 0.035 -0.04 -0.64 0.77 0.04
1 1.39 139 0.115 -9.778 1.772 7.507 -18.799 0.427 779.942 1049.916 4019.032 -0.269 0.139 -0.009 -0.04 -0.64 0.77 0.04
1 1.40 140 0.153 -9.740 1.743 7.721 -18.982 1.953 674.860 1079.896 4064.002 -0.299 0.103 0.031 -0.04 -0.64 0.77 0.04
1 1.41 141 0.297 -9.630 1.796 8.545 -19.470 3.540 674.860 1079.896 4064.002 -0.435 -0.005 -0.012 -0.04 -0.64 0.77 0.04
1 1.42 142 0.579 -9.649 1.781 7.813 -18.646 4.486 554.938 1214.958 4049.012 -0.707 0.018 0.025 -0.04 -0.64 0.77 0.03
1 1.43 143 0.565 -9.620 1.714 7.690 -17.548 6.348 554.938 1214.958 4049.012 -0.687 -0.009 0.103 -0.04 -0.64 0.77 0.03
1 1.44 144 0.603 -9.410 1.724 7.019 -18.036 5.127 599.909 1199.968 4124.113 -0.722 -0.218 0.103 -0.04 -0.64 0.77 0.03
1 1.45 145 0.656 -9.505 1.729 6.134 -17.731 2.594 584.919 1019.936 4049.012 -0.768 -0.121 0.107 -0.03 -0.64 0.77 0.03
1 1.46 146 0.627 -9.625 1.676 5.463 -17.517 1.770 689.851 1094.887 4109.123 -0.730 0.000 0.167 -0.03 -0.64 0.77 0.03
1 1.47 147 0.656 -9.477 1.513 6.012 -16.907 1.984 629.890 1064.906 4079.143 -0.749 -0.147 0.336 -0.03 -0.64 0.77 0.03
1 1.48 148 0.876 -9.620 1.652 5.463 -16.083 1.282 629.890 1064.906 4079.143 -0.959 -0.002 0.203 -0.03 -0.64 0.77 0.03
1 1.49 149 0.852 -9.606 1.609 4.364 -14.984 -0.488 584.919 1169.988 4004.042 -0.923 -0.015 0.253 -0.03 -0.64 0.77 0.03
1 1.50 150 0.867 -9.510 1.666 4.425 -13.001 -1.678 584.919 1169.988 4004.042 -0.908 -0.110 0.202 -0.03 -0.64 0.77 0.03
1 1.51 151 0.876 -9.505 1.585 6.104 -12.024 -0.763 644.880 1079.896 4094.133 -0.903 -0.114 0.288 -0.03 -0.64 0.77 0.03
1 1.52 152 0.752 -9.486 1.484 7.935 -11.658 0.183 659.870 1064.906 4079.143 -0.766 -0.132 0.395 -0.03 -0.64 0.77 0.03
1 1.53 153 0.723 -9.223 1.413 8.301 -11.505 0.336 734.971 914.854 3974.061 -0.726 -0.394 0.476 -0.03 -0.63 0.77 0.03
1 1.54 154 0.900 -9.146 1.710 5.859 -10.803 0.427 569.929 1079.896 4019.032 -0.893 -0.468 0.188 -0.02 -0.63 0.77 0.03
1 1.55 155 0.685 -9.165 1.762 3.052 -9.003 -1.434 569.929 1079.896 4019.032 -0.666 -0.448 0.143 -0.02 -0.63 0.77 0.03
1 1.56 156 0.781 -9.237 1.853 1.007 -8.087 -1.282 599.909 1124.867 4124.113 -0.750 -0.375 0.057 -0.02 -0.63 0.77 0.03
1 1.57 157 0.627 -9.457 1.834 2.014 -6.470 -0.793 599.909 1124.867 4124.113 -0.572 -0.154 0.077 -0.02 -0.63 0.77 0.03
1 1.58 158 0.680 -9.410 1.796 4.120 -5.859 -1.404 464.847 929.994 3914.100 -0.615 -0.202 0.118 -0.02 -0.63 0.77 0.03
1 1.59 159 0.642 -9.338 1.949 6.256 -4.608 -2.136 539.948 1199.968 3884.120 -0.566 -0.272 -0.030 -0.02 -0.63 0.77 0.03
1 1.60 160 0.493 -9.252 2.011 6.836 -3.632 -2.899 479.987 1019.936 4079.143 -0.406 -0.356 -0.083 -0.02 -0.63 0.77 0.03
1 1.61 161 0.417 -9.108 2.069 6.531 -2.563 -3.906 509.968 944.984 3974.061 -0.319 -0.498 -0.130 -0.02 -0.63 0.77 0.03
1 1.62 162 0.244 -9.175 2.054 2.930 -1.862 -6.531 509.968 944.984 3974.061 -0.134 -0.429 -0.106 -0.02 -0.63 0.77 0.03
1 1.63 163 0.148 -9.151 2.078 0.732 -1.801 -8.911 509.968 914.854 3929.090 -0.025 -0.451 -0.124 -0.02 -0.63 0.77 0.03
1 1.64 164 0.120 -9.405 2.011 -1.221 -1.678 -10.773 509.968 914.854 3929.090 0.020 -0.197 -0.054 -0.02 -0.63 0.77 0.03
1 1.65 165 0.115 -9.577 2.045 -3.510 -0.305 -13.062 404.886 944.984 3974.061 0.062 -0.024 -0.091 -0.02 -0.63 0.77 0.04
1 1.66 166 0.148 -9.750 2.064 -4.669 0.854 -13.763 329.935 1019.936 3899.110 0.050 0.147 -0.115 -0.02 -0.63 0.77 0.04
1 1.67 167 0.235 -9.912 2.222 -6.561 1.495 -14.191 329.935 1019.936 3899.110 -0.015 0.309 -0.280 -0.02 -0.63 0.77 0.04
1 1.68 168 0.259 -10.434 2.308 -8.881 3.448 -14.099 449.857 1094.887 4154.094 -0.016 0.830 -0.375 -0.02 -0.63 0.77 0.04
1 1.69 169 0.211 -10.611 2.433 -9.460 4.456 -11.597 449.857 1094.887 4154.094 0.053 1.005 -0.511 -0.02 -0.63 0.77 0.04
1 1.70 170 0.201 -10.856 2.437 -5.859 5.920 -7.568 509.968 1139.857 3899.110 0.082 1.247 -0.530 -0.01 -0.63 0.77 0.04
1 1.71 171 0.292 -10.578 2.313 1.465 7.263 -3.387 509.968 1139.857 3899.110 0.012 0.968 -0.417 -0.02 -0.63 0.77 0.04
1 1.72 172 0.393 -10.195 2.160 14.221 12.390 -0.061 404.886 1019.936 3929.090 -0.088 0.587 -0.252 -0.02 -0.63 0.77 0.04
1 1.73 173 0.163 -9.682 1.887 20.081 16.754 0.763 314.945 1124.867 4064.002 0.140 0.080 0.045 -0.02 -0.63 0.77 0.04
1 1.74 174 0.081 -9.228 1.657 21.637 21.484 1.343 314.945 1124.867 4064.002 0.216 -0.369 0.305 -0.02 -0.63 0.77 0.04
1 1.75 175 -0.417 -9.079 1.068 18.921 22.003 2.777 389.896 974.965 4094.133 0.705 -0.512 0.923 -0.02 -0.63 0.77 0.05
1 1.76 176 -0.527 -8.969 0.742 5.066 17.426 3.174 389.896 974.965 4094.133 0.801 -0.618 1.269 -0.02 -0.63 0.77 0.05
1 1.77 177 -0.666 -9.170 0.776 -7.385 15.442 4.486 494.978 974.965 4094.133 0.926 -0.417 1.239 -0.02 -0.63 0.77 0.05
1 1.78 178 -0.646 -9.453 0.795 -18.829 14.252 6.134 494.978 974.965 4094.133 0.891 -0.138 1.206 -0.02 -0.63 0.77 0.05
1 1.79 179 -0.656 -9.960 0.752 -24.689 12.146 7.568 554.938 1094.887 3974.061 0.865 0.353 1.173 -0.03 -0.63 0.77 0.05
1 1.80 180 -0.560 -10.300 0.905 -19.440 11.383 8.759 509.968 989.955 3974.061 0.750 0.684 0.976 -0.03 -0.64 0.77 0.05
1 1.81 181 -0.579 -10.315 0.814 -11.017 9.888 11.383 509.968 989.955 3974.061 0.748 0.692 1.033 -0.03 -0.64 0.77 0.05
1 1.82 182 -0.589 -10.238 0.848 -4.120 7.721 12.451 629.890 1139.857 4004.042 0.734 0.610 0.977 -0.03 -0.64 0.77 0.05
1 1.83 183 -0.723 -10.061 0.862 -3.571 5.157 13.184 629.890 1139.857 4004.042 0.843 0.430 0.949 -0.03 -0.64 0.77 0.05
1 1.84 184 -0.838 -9.994 0.867 -8.118 5.096 14.374 419.876 1229.949 4064.002 0.933 0.361 0.932 -0.03 -0.64 0.77 0.05
1 1.85 185 -0.776 -10.224 0.919 -12.787 6.256 15.869 419.876 1229.949 4064.002 0.845 0.587 0.861 -0.03 -0.64 0.77 0.05
1 1.86 186 -0.996 -10.032 0.790 -10.864 5.920 15.137 599.909 1124.867 4064.002 1.007 0.386 0.937 -0.04 -0.64 0.77 0.04
1 1.87 187 -1.274 -10.061 0.709 -4.334 4.974 13.641 659.870 1064.906 4049.012 1.256 0.410 0.997 -0.04 -0.64 0.76 0.04
1 1.88 188 -1.212 -9.893 0.646 1.526 1.404 12.451 659.870 1064.906 4049.012 1.165 0.241 1.046 -0.04 -0.64 0.76 0.04
1 1.89 189 -1.207 -9.864 0.632 2.625 -1.251 12.604 539.948 1079.896 3989.051 1.136 0.211 1.055 -0.04 -0.64 0.76 0.04
1 1.90 190 -0.939 -9.678 0.752 -3.052 -4.517 12.634 674.860 1079.896 4094.133 0.843 0.023 0.929 -0.04 -0.64 0.76 0.04
1 1.91 191 -0.713 -9.515 0.876 -8.057 -4.517 11.871 734.971 1139.857 4079.143 0.596 -0.141 0.794 -0.04 -0.64 0.76 0.04
1 1.92 192 -0.733 -9.601 0.886 -11.231 -3.540 11.047 734.971 1139.857 4079.143 0.595 -0.057 0.767 -0.04 -0.64 0.76 0.04
1 1.93 193 -0.517 -9.711 0.886 -10.803 -2.533 9.766 599.909 1199.968 4094.133 0.347 0.046 0.722 -0.04 -0.65 0.76 0.04
1 1.94 194 -0.259 -9.716 0.752 -5.188 -3.937 8.026 569.929 1229.949 4169.084 0.075 0.048 0.838 -0.04 -0.65 0.76 0.04
1 1.95 195 -0.196 -9.673 0.977 -1.617 -4.150 7.019 569.929 1229.949 4169.084 0.005 0.003 0.600 -0.04 -0.65 0.76 0.04
1 1.96 196 -0.172 -9.529 1.058 0.183 -3.082 5.249 554.938 1169.988 3899.110 -0.026 -0.142 0.512 -0.04 -0.65 0.76 0.03
1 1.97 197 -0.134 -9.366 0.977 1.373 -0.183 4.242 554.938 1169.988 4049.012 -0.068 -0.305 0.591 -0.04 -0.65 0.76 0.03
1 1.98 198 -0.215 -9.481 1.001 -0.580 2.167 4.028 629.890 1214.958 4109.123 0.010 -0.191 0.565 -0.04 -0.65 0.76 0.03
1 1.99 199 -0.206 -9.529 0.934 -3.052 2.563 3.693 629.890 1214.958 4109.123 -0.003 -0.143 0.628 -0.04 -0.65 0.76 0.03
1 2.00 200 -0.302 -9.721 0.963 -4.944 2.533 3.998 554.938 1139.857 4259.025 0.084 0.045 0.580 -0.04 -0.65 0.76 0.03
1 2.01 201 -0.201 -9.711 1.149 -5.463 2.502 3.632 629.890 1139.857 4049.012 -0.021 0.034 0.381 -0.04 -0.65 0.76 0.03
1 2.02 202 -0.292 -9.903 1.173 -4.242 2.594 2.472 629.890 1139.857 4049.012 0.068 0.224 0.346 -0.04 -0.65 0.76 0.03
1 2.03 203 -0.402 -9.970 1.231 -3.784 2.594 1.495 659.870 1289.910 4154.094 0.176 0.290 0.280 -0.04 -0.65 0.76 0.03
1 2.04 204 -0.541 -10.027 1.207 -1.770 3.967 1.923 554.938 1169.988 3929.090 0.313 0.346 0.296 -0.04 -0.65 0.76 0.03
1 2.05 205 -0.603 -10.008 1.197 1.495 4.883 1.434 659.870 1139.857 4154.094 0.371 0.326 0.299 -0.05 -0.65 0.76 0.03
1 2.06 206 -0.694 -9.922 1.068 4.181 5.615 3.845 659.870 1139.857 4154.094 0.459 0.239 0.425 -0.05 -0.65 0.76 0.03
1 2.07 207 -0.728 -9.716 1.015 6.195 5.035 5.463 674.860 1124.867 4199.064 0.486 0.034 0.479 -0.05 -0.65 0.76 0.03
1 2.08 208 -0.876 -9.529 1.063 5.920 2.625 6.653 719.981 1229.949 4199.064 0.614 -0.151 0.440 -0.05 -0.65 0.76 0.03
1 2.09 209 -0.972 -9.376 1.025 5.035 2.014 6.928 719.981 1229.949 4199.064 0.697 -0.303 0.483 -0.05 -0.65 0.76 0.03
1 2.10 210 -0.838 -9.390 0.996 2.533 0.702 7.507 824.913 1154.848 4064.002 0.549 -0.288 0.513 -0.05 -0.65 0.76 0.03
1 2.11 211 -0.939 -9.481 0.924 2.014 -0.854 8.026 674.860 1004.945 4169.084 0.636 -0.197 0.584 -0.05 -0.65 0.76 0.03
1 2.12 212 -0.862 -9.587 1.173 0.946 -2.563 6.470 689.851 1019.936 4109.123 0.546 -0.092 0.333 -0.05 -0.65 0.76 0.03
1 2.13 213 -0.872 -9.682 1.092 1.709 -3.021 4.913 689.851 1019.936 4109.123 0.544 0.004 0.412 -0.05 -0.65 0.76 0.03
1 2.14 214 -0.895 -9.745 1.092 3.510 -2.930 4.120 734.971 1169.988 4079.143 0.558 0.067 0.411 -0.05 -0.65 0.76 0.03
1 2.15 215 -0.862 -9.831 0.900 4.669 -3.998 1.923 629.890 1214.958 4004.042 0.512 0.154 0.606 -0.05 -0.65 0.76 0.03
1 2.16 216 -0.690 -9.740 1.140 6.256 -3.296 1.495 629.890 1214.958 4004.042 0.337 0.063 0.370 -0.05 -0.65 0.76 0.03
1 2.17 217 -0.819 -9.697 1.049 7.904 -1.862 0.549 764.952 1064.906 4109.123 0.465 0.021 0.467 -0.05 -0.65 0.76 0.03
1 2.18 218 -0.761 -9.697 0.982 7.416 -0.793 0.519 809.922 1214.958 4214.055 0.406 0.022 0.541 -0.05 -0.65 0.76 0.03
1 2.19 219 -0.781 -9.668 0.785 8.270 1.221 2.258 689.851 1094.887 4109.123 0.423 -0.005 0.743 -0.05 -0.65 0.76 0.03
1 2.20 220 -0.752 -9.721 0.455 7.385 1.343 4.578 689.851 1094.887 4109.123 0.391 0.048 1.079 -0.05 -0.65 0.76 0.03
1 2.21 221 -0.757 -9.773 0.345 7.874 2.045 5.676 584.919 1064.906 4109.123 0.388 0.102 1.192 -0.05 -0.65 0.76 0.03
1 2.22 222 -0.637 -9.735 0.536 6.897 1.282 6.531 644.880 1124.867 4019.032 0.250 0.065 1.004 -0.05 -0.65 0.76 0.03
1 2.23 223 -0.646 -9.721 0.991 2.930 -0.458 8.240 644.880 1124.867 4019.032 0.248 0.051 0.548 -0.05 -0.65 0.76 0.03
1 2.24 224 -0.795 -9.979 1.733 1.129 -5.554 10.284 719.981 1004.945 4094.133 0.385 0.310 -0.195 -0.05 -0.65 0.76 0.03
1 2.25 225 -0.417 -10.813 2.318 -4.425 -10.284 14.008 599.909 1124.867 3884.120 -0.007 1.144 -0.778 -0.05 -0.65 0.76 0.03
1 2.26 226 0.369 -12.125 2.706 -12.024 -7.538 19.043 599.909 899.864 4094.133 -0.810 2.455 -1.175 -0.05 -0.65 0.76 0.03
1 2.27 227 0.378 -12.024 2.136 -2.747 13.641 22.186 599.909 899.864 4094.133 -0.845 2.352 -0.625 -0.05 -0.65 0.76 0.03
1 2.28 228 -0.168 -11.363 1.302 19.745 25.269 19.562 644.880 1124.867 4199.064 -0.331 1.692 0.197 -0.06 -0.65 0.76 0.03
1 2.29 229 -0.876 -10.262 0.613 35.217 21.607 12.482 674.860 1154.848 4124.113 0.344 0.595 0.904 -0.06 -0.65 0.76 0.03
1 2.30 230 -1.274 -9.524 0.623 26.917 -0.793 1.648 674.860 1154.848 4124.113 0.701 -0.127 0.979 -0.06 -0.64 0.76 0.03
1 2.31 231 -1.216 -9.611 0.862 2.075 -8.820 -3.723 569.929 1049.916 4124.113 0.641 -0.036 0.764 -0.06 -0.64 0.76 0.03
1 2.32 232 -1.087 -10.262 1.274 -18.616 -7.538 -3.143 764.952 1019.936 4109.123 0.517 0.613 0.341 -0.06 -0.64 0.76 0.03
1 2.33 233 -1.585 -11.368 1.580 -21.576 -0.885 3.387 719.981 1049.916 4169.084 1.020 1.713 0.003 -0.06 -0.64 0.76 0.03
1 2.34 234 -1.829 -11.282 1.164 -2.594 10.651 12.268 719.981 1049.916 4169.084 1.258 1.623 0.389 -0.06 -0.65 0.76 0.03
1 2.35 235 -2.140 -10.793 0.809 16.876 11.444 13.123 809.922 1019.936 4109.123 1.553 1.133 0.732 -0.06 -0.65 0.76 0.03
1 2.36 236 -2.145 -10.042 0.690 24.719 4.028 10.437 689.851 1064.906 4004.042 1.538 0.385 0.869 -0.06 -0.65 0.76 0.03
1 2.37 237 -1.714 -9.932 1.111 2.655 -12.146 11.353 689.851 1064.906 4004.042 1.058 0.286 0.493 -0.06 -0.64 0.76 0.02
1 2.38 238 -1.140 -10.415 1.513 -12.939 -18.738 10.223 719.981 1049.916 4169.084 0.466 0.770 0.084 -0.06 -0.64 0.76 0.02
1 2.39 239 -0.536 -11.109 1.676 -12.054 -17.212 8.514 749.961 974.965 4064.002 -0.146 1.461 -0.099 -0.06 -0.64 0.76 0.02
1 2.40 240 -0.541 -11.368 2.016 -3.082 -5.737 9.308 674.860 1079.896 4064.002 -0.148 1.718 -0.453 -0.06 -0.65 0.76 0.02
1 2.41 241 -0.819 -10.722 1.844 8.850 2.167 8.392 674.860 1079.896 4064.002 0.119 1.072 -0.281 -0.06 -0.65 0.76 0.02
1 2.42 242 -1.207 -10.075 1.494 15.625 -3.876 1.038 674.860 1004.945 4169.084 0.498 0.429 0.084 -0.06 -0.64 0.76 0.02
1 2.43 243 -1.212 -9.769 1.633 11.932 -15.839 -6.195 764.952 989.955 4154.094 0.498 0.127 -0.033 -0.06 -0.64 0.76 0.02
1 2.44 244 -0.685 -9.649 2.212 6.683 -27.313 -4.822 764.952 989.955 4154.094 -0.005 0.011 -0.575 -0.06 -0.64 0.76 0.02
1 2.45 245 -0.378 -9.611 2.533 5.341 -25.879 -3.540 719.981 1049.916 4094.133 -0.295 -0.025 -0.880 -0.06 -0.64 0.76 0.02
1 2.46 246 0.043 -9.453 2.576 6.928 -20.477 -2.014 824.913 899.864 4019.032 -0.701 -0.181 -0.906 -0.06 -0.64 0.76 0.02
1 2.47 247 -0.005 -9.103 2.806 9.674 -15.533 -2.319 824.913 899.864 4019.032 -0.638 -0.529 -1.116 -0.06 -0.64 0.77 0.02
1 2.48 248 -0.182 -8.595 2.648 11.780 -13.214 -1.465 824.913 929.994 4064.002 -0.447 -1.033 -0.934 -0.05 -0.64 0.77 0.02
1 2.49 249 -0.436 -8.337 2.816 12.360 -14.893 -1.801 509.968 914.854 4004.042 -0.182 -1.288 -1.076 -0.05 -0.64 0.77 0.02
1 2.50 250 -0.345 -8.074 2.648 13.550 -16.876 -1.099 719.981 929.994 4019.032 -0.263 -1.547 -0.886 -0.05 -0.64 0.77 0.01
1 2.51 251 -0.053 -7.839 2.763 14.984 -19.196 -0.153 719.981 929.994 4019.032 -0.547 -1.779 -0.980 -0.05 -0.64 0.77 0.01
1 2.52 252 0.565 -7.815 3.098 11.597 -18.951 0.519 644.880 974.965 4019.032 -1.149 -1.796 -1.271 -0.05 -0.64 0.77 0.01
1 2.53 253 1.006 -7.729 3.338 6.500 -15.625 0.519 569.929 929.994 3959.071 -1.583 -1.879 -1.495 -0.05 -0.64 0.77 0.01
1 2.54 254 1.566 -7.983 3.491 0.244 -9.186 0.366 569.929 929.994 3959.071 -2.137 -1.624 -1.640 -0.05 -0.64 0.77 0.01
1 2.55 255 1.551 -8.323 3.266 -5.249 -1.495 -1.984 509.968 869.883 4049.012 -2.103 -1.283 -1.403 -0.05 -0.63 0.77 0.01
1 2.56 256 1.255 -8.663 3.041 -9.735 8.301 -3.601 659.870 869.883 4109.123 -1.785 -0.944 -1.175 -0.05 -0.63 0.77 0.01
1 2.57 257 0.809 -8.892 2.883 -9.399 9.491 -4.700 509.968 764.952 4079.143 -1.321 -0.716 -1.022 -0.05 -0.63 0.77 0.01
1 2.58 258 0.460 -9.060 2.916 -9.277 8.637 -4.944 509.968 764.952 4079.143 -0.955 -0.550 -1.061 -0.05 -0.64 0.77 0.02
1 2.59 259 0.220 -9.400 2.864 -11.871 6.195 -8.637 584.919 914.854 4079.143 -0.686 -0.214 -1.024 -0.05 -0.64 0.77 0.02
1 2.60 260 0.053 -9.951 2.883 -14.404 5.585 -10.895 569.929 929.994 4019.032 -0.498 0.333 -1.054 -0.04 -0.64 0.77 0.02
1 2.61 261 0.010 -10.262 2.787 -14.404 6.683 -12.299 569.929 929.994 4019.032 -0.434 0.640 -0.974 -0.04 -0.64 0.77 0.02
1 2.62 262 -0.005 -10.473 2.744 -8.637 7.080 -11.566 539.948 899.864 4094.133 -0.398 0.847 -0.945 -0.04 -0.64 0.77 0.02
1 2.63 263 -0.263 -10.204 2.768 2.533 6.958 -7.843 464.847 929.994 4094.133 -0.122 0.577 -0.976 -0.04 -0.64 0.77 0.02
1 2.64 264 -0.263 -10.003 2.471 6.287 5.890 -7.202 599.909 824.913 4349.117 -0.109 0.377 -0.673 -0.04 -0.64 0.77 0.02
1 2.65 265 -0.321 -9.740 2.370 6.470 4.150 -8.667 599.909 824.913 4349.117 -0.039 0.115 -0.560 -0.04 -0.64 0.77 0.02
1 2.66 266 -0.091 -9.462 2.217 4.791 1.740 -7.935 629.890 1019.936 4214.055 -0.240 -0.159 -0.384 -0.04 -0.64 0.77 0.03
1 2.67 267 -0.034 -9.333 2.174 5.219 0.580 -5.951 659.870 869.883 4184.074 -0.282 -0.287 -0.331 -0.04 -0.64 0.77 0.03
1 2.68 268 0.091 -9.103 2.145 5.646 -0.092 -4.211 659.870 869.883 4184.074 -0.394 -0.516 -0.293 -0.04 -0.64 0.77 0.03
1 2.69 269 0.239 -8.979 2.217 5.768 -0.122 -5.249 584.919 1064.906 4079.143 -0.529 -0.638 -0.355 -0.04 -0.63 0.77 0.03
1 2.70 270 0.215 -8.983 2.040 4.028 -1.282 -8.240 659.870 839.903 4289.006 -0.491 -0.632 -0.166 -0.04 -0.63 0.77 0.03
1 2.71 271 0.460 -9.113 1.896 3.143 -1.526 -8.972 554.938 794.932 4079.143 -0.718 -0.501 -0.014 -0.04 -0.63 0.77 0.03
1 2.72 272 0.441 -9.012 1.872 4.425 -1.404 -6.683 554.938 794.932 4079.143 -0.678 -0.601 0.015 -0.04 -0.63 0.77 0.03
1 2.73 273 0.656 -8.797 1.733 6.989 -2.167 -4.395 539.948 929.994 4064.002 -0.859 -0.815 0.170 -0.04 -0.63 0.77 0.03
1 2.74 274 0.632 -8.758 1.714 8.026 -3.296 -5.524 494.978 929.994 4094.133 -0.819 -0.851 0.199 -0.04 -0.63 0.77 0.03
1 2.75 275 0.838 -8.595 1.590 5.096 -3.052 -4.608 494.978 929.994 4094.133 -1.008 -1.012 0.334 -0.04 -0.63 0.77 0.03
1 2.76 276 0.924 -8.763 1.614 2.808 -3.479 -5.096 419.876 974.965 4169.084 -1.080 -0.844 0.316 -0.04 -0.63 0.77 0.03
1 2.77 277 1.125 -8.931 1.499 -0.946 -2.686 -5.341 494.978 929.994 4169.084 -1.262 -0.676 0.431 -0.04 -0.63 0.77 0.03
1 2.78 278 1.121 -9.003 1.532 -1.923 -1.190 -3.967 539.948 899.864 4274.016 -1.236 -0.605 0.395 -0.03 -0.63 0.77 0.03
1 2.79 279 1.068 -9.017 1.427 -2.563 0.427 -3.937 539.948 899.864 4274.016 -1.165 -0.592 0.495 -0.03 -0.63 0.77 0.03
1 2.80 280 0.905 -9.055 1.331 -2.960 2.197 -3.937 314.945 899.864 4244.035 -0.969 -0.557 0.575 -0.03 -0.63 0.77 0.04
1 2.81 281 0.723 -9.170 1.355 -3.448 2.625 -3.845 464.847 854.893 4064.002 -0.772 -0.444 0.543 -0.03 -0.63 0.77 0.04
1 2.82 282 0.670 -9.103 1.283 -3.998 4.272 -4.089 464.847 854.893 4064.002 -0.707 -0.513 0.606 -0.03 -0.63 0.77 0.04
1 2.83 283 0.565 -9.108 1.188 -4.547 5.432 -2.838 464.847 929.994 4124.113 -0.590 -0.510 0.691 -0.03 -0.63 0.77 0.04
1 2.84 284 0.522 -8.921 0.943 -6.195 7.568 1.434 389.896 749.961 4019.032 -0.538 -0.700 0.922 -0.03 -0.64 0.77 0.04
1 2.85 285 0.848 -8.912 0.848 -8.972 9.827 2.106 329.935 1019.936 4109.123 -0.860 -0.712 1.003 -0.03 -0.64 0.77 0.04
1 2.86 286 0.785 -8.955 0.776 -12.451 12.238 3.418 329.935 1019.936 4109.123 -0.796 -0.673 1.057 -0.03 -0.64 0.77 0.04
1 2.87 287 0.824 -9.017 0.699 -16.815 15.778 5.341 419.876 974.965 4124.113 -0.834 -0.615 1.109 -0.03 -0.64 0.77 0.04
1 2.88 288 1.049 -9.453 1.183 -24.323 19.836 4.944 329.935 944.984 4004.042 -1.063 -0.191 0.559 -0.03 -0.64 0.77 0.04
1 2.89 289 1.044 -9.620 1.427 -26.886 20.660 4.761 329.935 944.984 4004.042 -1.061 -0.031 0.274 -0.04 -0.64 0.76 0.04
1 2.90 290 0.919 -9.812 1.518 -24.628 21.484 4.028 479.987 1064.906 4214.055 -0.938 0.153 0.141 -0.04 -0.64 0.76 0.04
1 2.91 291 0.819 -9.855 1.537 -18.036 20.660 1.892 479.987 1064.906 4214.055 -0.838 0.190 0.087 -0.04 -0.64 0.76 0.04
1 2.92 292 0.704 -9.912 1.365 -8.118 18.982 -0.946 629.890 944.984 4184.074 -0.721 0.244 0.233 -0.04 -0.65 0.76 0.04
1 2.93 293 0.474 -9.740 1.269 -6.928 18.189 -4.608 629.890 944.984 4184.074 -0.487 0.068 0.312 -0.04 -0.65 0.76 0.04
1 2.94 294 0.125 -9.529 1.413 -10.407 15.625 -7.080 449.857 944.984 4154.094 -0.130 -0.144 0.156 -0.04 -0.65 0.76 0.05
1 2.95 295 0.010 -9.433 1.322 -12.878 8.453 -7.111 659.870 1214.958 4289.006 0.005 -0.246 0.211 -0.04 -0.65 0.76 0.05
1 2.96 296 0.244 -9.481 1.240 -14.160 6.012 -6.897 659.870 1214.958 4289.006 -0.218 -0.201 0.271 -0.04 -0.65 0.76 0.05
1 2.97 297 0.407 -9.630 0.943 -14.160 5.219 -7.416 479.987 944.984 4364.107 -0.369 -0.056 0.544 -0.04 -0.65 0.76 0.05
1 2.98 298 0.397 -9.888 0.747 -14.099 7.324 -7.050 479.987 944.984 4364.107 -0.344 0.198 0.715 -0.04 -0.65 0.76 0.05
1 2.99 299 0.804 -9.922 0.589 -14.191 9.186 -5.615 554.938 1019.936 4439.058 -0.737 0.228 0.845 -0.04 -0.65 0.76 0.05
1 3.00 300 1.063 -9.955 0.374 -15.595 10.284 -10.712 554.938 1019.936 4439.058 -0.982 0.257 1.033 -0.04 -0.65 0.75 0.05
1 3.01 301 1.159 -9.955 0.407 -11.810 10.223 -9.186 539.948 1049.916 4304.146 -1.057 0.253 0.969 -0.04 -0.65 0.75 0.05
1 3.02 302 1.164 -9.917 0.445 -10.162 10.590 -9.003 494.978 1049.916 4274.016 -1.039 0.211 0.903 -0.04 -0.66 0.75 0.05
1 3.03 303 1.168 -9.903 1.877 -13.977 10.925 -8.759 494.978 1049.916 4274.016 -1.001 0.192 -0.571 -0.04 -0.66 0.75 0.06
1 3.04 304 1.144 -10.334 2.921 -17.670 8.209 -12.604 479.987 944.984 4259.025 -0.955 0.621 -1.632 -0.04 -0.66 0.75 0.06
1 3.05 305 0.560 -10.942 3.477 -24.780 7.019 -28.565 479.987 944.984 4259.025 -0.347 1.226 -2.217 -0.04 -0.66 0.75 0.06
1 3.06 306 -1.111 -12.991 2.921 -30.151 9.827 -43.396 464.847 1004.945 4409.078 1.376 3.271 -1.700 -0.04 -0.66 0.75 0.06
1 3.07 307 -1.590 -13.106 1.556 -24.445 10.071 -18.707 464.847 1004.945 4409.078 1.916 3.382 -0.383 -0.03 -0.66 0.75 0.06
1 3.08 308 -1.499 -12.264 1.374 4.059 -0.244 -8.606 464.847 1079.896 4349.117 1.861 2.536 -0.243 -0.03 -0.66 0.74 0.07
1 3.09 309 -0.977 -11.220 2.294 28.259 -11.017 0.031 479.987 1139.857 4439.058 1.357 1.492 -1.169 -0.03 -0.66 0.74 0.07
1 3.10 310 -0.187 -10.339 2.773 23.285 -15.686 -15.869 479.987 1139.857 4439.058 0.585 0.621 -1.568 -0.03 -0.66 0.75 0.07
1 3.11 311 -0.211 -10.645 1.944 -4.761 -10.529 -30.731 479.987 1094.887 4394.087 0.639 0.933 -0.707 -0.03 -0.66 0.75 0.07
1 3.12 312 -0.421 -10.655 1.197 -17.181 -11.414 -32.105 479.987 1094.887 4394.087 0.901 0.943 0.024 -0.03 -0.66 0.75 0.07
1 3.13 313 0.292 -10.477 0.618 -1.312 -20.630 -29.114 389.896 1199.968 4304.146 0.236 0.765 0.579 -0.02 -0.66 0.75 0.07
1 3.14 314 0.800 -10.022 0.977 22.095 -26.001 -16.907 389.896 1199.968 4304.146 -0.228 0.313 0.220 -0.02 -0.66 0.75 0.07
1 3.15 315 1.336 -9.587 1.125 16.785 -23.621 -13.001 404.886 1094.887 4259.025 -0.729 -0.118 0.096 -0.02 -0.66 0.75 0.07
1 3.16 316 1.456 -9.338 1.355 5.035 -20.142 -11.841 329.935 944.984 4364.107 -0.817 -0.362 -0.110 -0.02 -0.66 0.75 0.07
1 3.17 317 1.279 -9.050 1.609 -10.345 -20.691 -10.834 329.935 944.984 4364.107 -0.582 -0.644 -0.358 -0.01 -0.66 0.75 0.07
1 3.18 318 1.125 -9.290 1.906 -14.191 -21.057 -11.292 314.945 1004.945 4304.146 -0.402 -0.405 -0.671 -0.01 -0.66 0.75 0.07
1 3.19 319 1.082 -9.611 2.322 -12.329 -19.623 -8.881 314.945 1004.945 4304.146 -0.334 -0.085 -1.106 -0.01 -0.66 0.75 0.07
1 3.20 320 1.135 -9.716 2.983 -5.676 -15.991 -5.554 104.932 1079.896 4349.117 -0.366 0.021 -1.777 -0.01 -0.66 0.75 0.07
1 3.21 321 0.790 -9.773 3.084 -0.977 -8.911 2.228 104.932 1079.896 4349.117 -0.008 0.080 -1.875 -0 -0.66 0.75 0.07
1 3.22 322 0.364 -9.558 3.204 -0.580 -1.007 8.698 374.906 1169.988 4214.055 0.417 -0.134 -1.983 -0 -0.66 0.75 0.07
1 3.23 323 -0.096 -9.319 3.050 -0.702 -1.221 5.157 104.932 1049.916 4304.146 0.865 -0.373 -1.816 -0 -0.66 0.75 0.06
1 3.24 324 -0.565 -9.208 2.921 -1.556 2.106 -6.012 104.932 1049.916 4304.146 1.322 -0.481 -1.662 -0 -0.66 0.75 0.06
1 3.25 325 -0.728 -9.237 2.844 0.519 3.479 -3.601 134.912 1229.949 4454.048 1.484 -0.451 -1.575 -0 -0.66 0.75 0.06
1 3.26 326 -0.694 -9.094 2.677 0.671 1.190 -3.418 134.912 1229.949 4454.048 1.447 -0.593 -1.395 -0 -0.66 0.75 0.06
1 3.27 327 -0.819 -9.079 2.801 -2.136 -0.031 -3.632 224.854 989.955 4469.039 1.568 -0.606 -1.508 -0 -0.66 0.75 0.06
1 3.28 328 -0.881 -9.338 2.926 -7.019 -2.106 -6.317 239.994 899.864 4349.117 1.626 -0.347 -1.625 -0 -0.66 0.75 0.06
1 3.29 329 -0.958 -9.453 2.969 -5.157 -4.059 -5.981 284.964 1079.896 4244.035 1.703 -0.232 -1.666 -0 -0.66 0.75 0.06
1 3.30 330 -1.006 -9.625 2.859 -1.709 -6.714 -4.181 194.873 1094.887 4334.126 1.750 -0.059 -1.552 -0 -0.66 0.75 0.06
1 3.31 331 -1.020 -9.453 2.868 -1.160 -8.789 -2.563 194.873 1094.887 4334.126 1.761 -0.231 -1.555 -0 -0.66 0.75 0.06
1 3.32 332 -0.632 -9.462 2.806 -5.554 -11.993 3.448 224.854 1064.906 4469.039 1.361 -0.220 -1.478 -0 -0.66 0.75 0.06
1 3.33 333 -0.177 -9.548 2.744 -12.360 -10.956 8.392 224.854 1064.906 4469.039 0.894 -0.135 -1.417 -0 -0.66 0.75 0.06
1 3.34 334 0.120 -9.592 2.624 -17.304 -8.820 13.214 104.932 1049.916 4409.078 0.581 -0.094 -1.308 -0 -0.66 0.75 0.06
1 3.35 335 0.172 -9.726 2.696 -25.696 -1.923 12.939 104.932 1049.916 4379.097 0.509 0.036 -1.400 -0 -0.66 0.75 0.06
1 3.36 336 0.072 -9.884 2.548 -36.041 8.698 11.322 284.964 1049.916 4409.078 0.590 0.188 -1.283 -0 -0.66 0.75 0.06
1 3.37 337 -0.297 -10.262 2.528 -34.760 11.169 10.040 179.883 1124.867 4409.078 0.938 0.560 -1.305 -0.01 -0.66 0.75 0.06
1 3.38 338 -0.646 -10.784 2.275 -27.618 9.308 11.444 179.883 1124.867 4409.078 1.266 1.075 -1.094 -0.01 -0.66 0.75 0.06
1 3.39 339 -0.666 -11.133 1.805 -4.791 3.265 18.036 284.964 1004.945 4484.029 1.249 1.414 -0.695 -0.01 -0.67 0.74 0.05
1 3.40 340 -0.493 -10.784 1.719 10.315 2.106 22.675 284.964 1004.945 4484.029 1.051 1.063 -0.610 -0.01 -0.67 0.74 0.05
1 3.41 341 -0.259 -10.248 1.690 19.562 2.838 22.705 224.854 1064.906 4619.091 0.780 0.527 -0.560 -0.01 -0.67 0.74 0.05
1 3.42 342 -0.201 -9.592 1.820 21.149 4.822 23.285 239.994 1124.867 4589.110 0.685 -0.127 -0.655 -0.01 -0.66 0.75 0.05
1 3.43 343 -0.038 -9.386 1.595 14.374 5.219 21.637 209.863 1049.916 4349.117 0.485 -0.331 -0.396 -0.01 -0.66 0.75 0.05
1 3.44 344 -0.043 -9.347 1.475 8.698 5.219 21.057 269.974 1019.936 4619.091 0.455 -0.367 -0.250 -0.01 -0.66 0.75 0.05
1 3.45 345 0.105 -9.299 1.346 5.829 6.287 19.287 269.974 1019.936 4619.091 0.274 -0.414 -0.103 -0.02 -0.66 0.75 0.05
1 3.46 346 -0.177 -9.558 1.489 6.104 8.179 16.785 179.883 1049.916 4529.000 0.498 -0.155 -0.228 -0.02 -0.66 0.75 0.05
1 3.47 347 -0.316 -9.649 1.446 7.935 8.911 12.909 179.883 1049.916 4529.000 0.609 -0.064 -0.174 -0.02 -0.66 0.75 0.04
1 3.48 348 -0.484 -9.706 1.350 12.024 9.064 11.017 329.935 1019.936 4544.140 0.755 -0.005 -0.064 -0.02 -0.66 0.75 0.04
1 3.49 349 -0.891 -9.601 1.130 13.367 8.575 13.123 239.994 1079.896 4484.029 1.139 -0.108 0.175 -0.02 -0.66 0.75 0.04
1 3.50 350 -0.862 -9.343 1.087 14.160 2.563 12.390 239.994 974.965 4484.029 1.083 -0.365 0.236 -0.02 -0.66 0.75 0.04
1 3.51 351 -0.709 -9.266 1.068 13.306 -0.305 12.726 329.935 989.955 4439.058 0.905 -0.440 0.274 -0.02 -0.66 0.75 0.04
1 3.52 352 -0.589 -9.213 1.125 12.085 -2.228 12.787 329.935 989.955 4439.058 0.762 -0.490 0.235 -0.02 -0.66 0.75 0.04
1 3.53 353 -0.354 -9.314 1.111 9.277 -2.808 13.458 464.847 1154.848 4304.146 0.484 -0.386 0.279 -0.03 -0.65 0.75 0.04
1 3.54 354 -0.263 -9.280 1.111 8.087 -2.808 14.587 464.847 1154.848 4304.146 0.373 -0.419 0.289 -0.03 -0.65 0.75 0.04
1 3.55 355 -0.120 -9.299 0.996 9.522 -4.150 11.383 359.916 1049.916 4409.078 0.209 -0.398 0.414 -0.03 -0.65 0.76 0.04
1 3.56 356 -0.048 -9.266 1.058 11.169 -3.357 8.179 194.873 989.955 4619.091 0.123 -0.430 0.363 -0.03 -0.65 0.76 0.04
1 3.57 357 -0.115 -9.175 0.977 11.414 -2.167 7.721 359.916 1154.848 4454.048 0.181 -0.519 0.458 -0.03 -0.65 0.76 0.04
1 3.58 358 -0.062 -9.103 0.848 10.132 -1.709 4.517 269.974 1094.887 4544.140 0.120 -0.589 0.600 -0.03 -0.65 0.76 0.04
1 3.59 359 -0.057 -9.146 0.910 10.376 -2.136 3.021 269.974 1094.887 4544.140 0.110 -0.544 0.549 -0.03 -0.65 0.76 0.04
1 3.60 360 -0.019 -8.907 0.958 11.261 -0.702 1.038 329.935 989.955 4364.107 0.069 -0.780 0.524 -0.03 -0.65 0.76 0.03
1 3.61 361 -0.072 -8.323 0.766 13.001 2.472 -0.916 329.935 989.955 4364.107 0.124 -1.362 0.732 -0.03 -0.65 0.76 0.03
1 3.62 362 -0.062 -8.279 0.388 16.602 3.326 -5.585 479.987 914.854 4469.039 0.121 -1.402 1.131 -0.03 -0.65 0.76 0.04
1 3.63 363 -0.125 -8.030 0.163 15.320 -0.488 -6.104 389.896 1004.945 4529.000 0.194 -1.647 1.380 -0.03 -0.65 0.76 0.04
1 3.64 364 -0.125 -8.677 0.263 4.639 -6.500 -5.310 239.994 929.994 4484.029 0.205 -0.997 1.300 -0.03 -0.65 0.76 0.04
1 3.65 365 -0.043 -9.232 0.709 -10.345 -7.538 -2.747 314.945 1004.945 4304.146 0.136 -0.440 0.865 -0.02 -0.65 0.76 0.04
1 3.66 366 -0.206 -10.219 0.766 -21.210 -8.667 -2.411 314.945 1004.945 4304.146 0.306 0.544 0.791 -0.02 -0.65 0.76 0.04
1 3.67 367 -0.057 -11.153 1.034 -22.339 -9.033 -4.364 329.935 914.854 4334.126 0.163 1.472 0.487 -0.02 -0.65 0.76 0.04
1 3.68 368 0.464 -11.622 1.317 -3.265 -2.899 -0.488 329.935 914.854 4334.126 -0.341 1.932 0.145 -0.02 -0.65 0.76 0.04
1 3.69 369 0.800 -10.980 1.590 11.322 6.744 5.005 299.955 839.903 4439.058 -0.674 1.291 -0.128 -0.02 -0.65 0.76 0.04
1 3.70 370 0.445 -10.080 1.470 17.883 16.968 8.545 224.854 869.883 4364.107 -0.328 0.393 0.012 -0.02 -0.65 0.76 0.04
1 3.71 371 0.010 -9.453 1.025 16.541 23.468 8.698 224.854 869.883 4364.107 0.094 -0.230 0.482 -0.02 -0.65 0.76 0.04
1 3.72 372 -0.541 -8.983 0.445 9.155 20.386 3.601 209.863 1079.896 4454.048 0.628 -0.697 1.079 -0.03 -0.65 0.76 0.04
1 3.73 373 -0.905 -9.338 0.220 5.463 14.740 -0.153 209.863 1079.896 4454.048 0.978 -0.341 1.312 -0.03 -0.65 0.76 0.04
1 3.74 374 -1.140 -9.534 0.608 -0.793 7.141 -0.763 284.964 974.965 4484.029 1.204 -0.145 0.924 -0.03 -0.65 0.76 0.04
1 3.75 375 -1.049 -10.362 2.222 -5.432 -8.209 -1.953 284.964 974.965 4484.029 1.105 0.681 -0.707 -0.03 -0.65 0.76 0.04
1 3.76 376 -0.321 -11.248 3.065 -8.362 -14.893 10.040 464.847 1049.916 4379.097 0.377 1.565 -1.556 -0.03 -0.65 0.76 0.04
1 3.77 377 0.393 -11.938 3.812 -16.602 -7.782 27.344 419.876 854.893 4304.146 -0.352 2.252 -2.319 -0.03 -0.65 0.76 0.04
1 3.78 378 0.412 -11.622 3.127 -9.949 10.529 37.476 419.876 854.893 4304.146 -0.413 1.932 -1.660 -0.03 -0.65 0.76 0.03
1 3.79 379 -0.397 -10.549 1.106 33.783 29.480 46.723 239.994 974.965 4484.029 0.337 0.859 0.355 -0.03 -0.65 0.76 0.03
1 3.80 380 -1.020 -9.290 0.757 51.026 24.048 40.100 239.994 974.965 4484.029 0.886 -0.394 0.740 -0.04 -0.65 0.76 0.03
1 3.81 381 -1.231 -8.648 0.929 41.870 9.644 28.717 269.974 914.854 4499.019 1.024 -1.024 0.633 -0.04 -0.65 0.76 0.03
1 3.82 382 -1.197 -8.998 1.714 8.026 -5.707 23.224 269.974 914.854 4499.019 0.940 -0.663 -0.089 -0.04 -0.64 0.76 0.03
1 3.83 383 -0.637 -10.770 2.696 -43.183 -6.378 20.935 374.906 794.932 4499.019 0.312 1.110 -1.072 -0.04 -0.64 0.76 0.02
1 3.84 384 -0.680 -12.091 2.744 -48.859 12.146 23.010 464.847 854.893 4349.117 0.326 2.422 -1.190 -0.04 -0.65 0.76 0.02
1 3.85 385 -1.192 -12.651 2.691 -26.459 30.090 20.691 464.847 854.893 4349.117 0.803 2.973 -1.204 -0.05 -0.65 0.76 0.02
1 3.86 386 -2.275 -12.287 2.050 0.031 32.745 20.935 449.857 869.883 4394.087 1.850 2.606 -0.594 -0.05 -0.65 0.76 0.02
1 3.87 387 -2.495 -11.497 1.911 15.045 7.874 19.196 449.857 869.883 4394.087 2.035 1.818 -0.451 -0.05 -0.65 0.76 0.02
1 3.88 388 -1.690 -10.942 2.050 10.895 -7.385 15.289 584.919 914.854 4334.126 1.202 1.267 -0.570 -0.05 -0.65 0.76 0.02
1 3.89 389 -0.594 -10.286 2.078 6.073 -12.787 6.928 584.919 914.854 4334.126 0.084 0.614 -0.582 -0.05 -0.65 0.76 0.02
1 3.90 390 0.464 -10.061 2.351 6.897 -6.500 -4.334 314.945 1049.916 4379.097 -0.975 0.394 -0.827 -0.05 -0.65 0.76 0.02
1 3.91 391 0.733 -9.678 2.342 7.507 0.214 -9.460 479.987 914.854 4544.140 -1.223 0.012 -0.801 -0.05 -0.65 0.76 0.02
1 3.92 392 0.541 -9.343 2.265 10.864 4.456 -13.153 479.987 914.854 4544.140 -1.004 -0.322 -0.707 -0.05 -0.65 0.76 0.02
1 3.93 393 0.172 -8.955 1.915 14.282 5.585 -11.200 584.919 839.903 4439.058 -0.608 -0.708 -0.337 -0.05 -0.65 0.76 0.02
1 3.94 394 -0.072 -8.351 1.944 18.585 -1.068 0.702 584.919 839.903 4439.058 -0.345 -1.308 -0.341 -0.05 -0.64 0.76 0.02
1 3.95 395 -0.211 -8.016 1.982 14.587 -6.989 2.563 629.890 944.984 4259.025 -0.201 -1.638 -0.351 -0.05 -0.64 0.76 0.02
1 3.96 396 0.110 -7.868 2.275 4.700 -12.054 1.678 629.890 944.984 4259.025 -0.521 -1.783 -0.620 -0.05 -0.64 0.76 0.02
1 3.97 397 0.239 -8.236 2.672 -10.742 -12.573 -0.366 479.987 794.932 4364.107 -0.643 -1.413 -1.010 -0.05 -0.64 0.76 0.02
1 3.98 398 0.584 -8.423 2.701 -16.846 -6.714 1.526 464.847 824.913 4529.000 -0.982 -1.230 -1.057 -0.05 -0.64 0.76 0.02
1 3.99 399 0.637 -8.548 2.557 -14.648 0.397 5.432 464.847 824.913 4529.000 -1.027 -1.108 -0.929 -0.04 -0.64 0.76 0.02
1 4.00 400 0.848 -8.447 2.241 -3.906 4.944 9.857 494.978 899.864 4454.048 -1.238 -1.211 -0.624 -0.04 -0.64 0.76 0.02
1 4.01 401 0.843 -8.241 2.174 8.575 4.669 10.071 494.978 899.864 4454.048 -1.243 -1.416 -0.555 -0.05 -0.64 0.76 0.02
1 4.02 402 1.025 -8.380 2.107 13.733 2.411 3.357 554.938 1019.936 4499.019 -1.437 -1.274 -0.473 -0.05 -0.64 0.76 0.02
1 4.03 403 0.958 -8.457 2.303 4.822 4.089 -0.610 554.938 1019.936 4499.019 -1.376 -1.194 -0.650 -0.05 -0.64 0.76 0.02
1 4.04 404 0.752 -9.165 2.361 -16.998 13.275 -5.035 479.987 944.984 4499.019 -1.154 -0.485 -0.701 -0.05 -0.64 0.76 0.02
1 4.05 405 0.364 -9.568 2.370 -24.048 18.066 -5.829 479.987 989.955 4469.039 -0.752 -0.087 -0.736 -0.05 -0.64 0.76 0.02
1 4.06 406 0.005 -9.936 2.203 -19.531 18.921 -5.890 479.987 989.955 4469.039 -0.382 0.276 -0.600 -0.05 -0.65 0.76 0.03
1 4.07 407 -0.215 -10.113 1.968 -6.714 13.977 -6.653 464.847 929.994 4409.078 -0.153 0.449 -0.388 -0.05 -0.65 0.76 0.03
1 4.08 408 -0.536 -9.788 1.963 10.010 4.639 -9.369 509.968 839.903 4364.107 0.178 0.122 -0.387 -0.05 -0.65 0.76 0.03
1 4.09 409 -0.565 -9.429 1.925 10.620 0.214 -10.071 539.948 929.994 4454.048 0.219 -0.235 -0.335 -0.05 -0.65 0.76 0.03
1 4.10 410 -0.517 -9.395 1.882 4.486 -1.190 -10.010 539.948 929.994 4454.048 0.187 -0.266 -0.273 -0.05 -0.64 0.76 0.03
1 4.11 411 -0.508 -9.280 1.973 -3.143 -1.617 -8.850 494.978 824.913 4349.117 0.193 -0.380 -0.353 -0.05 -0.64 0.76 0.03
1 4.12 412 -0.273 -9.381 1.978 -12.421 -2.258 -8.972 554.938 794.932 4439.058 -0.012 -0.282 -0.368 -0.05 -0.64 0.76 0.03
1 4.13 413 -0.254 -9.702 2.011 -13.550 -3.418 -10.315 554.938 794.932 4439.058 -0.013 0.036 -0.419 -0.04 -0.65 0.76 0.03
1 4.14 414 -0.043 -9.826 1.820 -7.690 -4.700 -10.925 539.948 1004.945 4484.029 -0.205 0.157 -0.243 -0.04 -0.65 0.76 0.03
1 4.15 415 0.215 -9.659 1.686 -0.702 -5.859 -11.108 464.847 929.994 4559.130 -0.442 -0.013 -0.118 -0.04 -0.65 0.76 0.03
1 4.16 416 0.220 -9.697 1.614 5.890 -6.989 -11.017 284.964 854.893 4484.029 -0.423 0.025 -0.045 -0.04 -0.65 0.76 0.03
1 4.17 417 0.201 -9.467 1.566 4.211 -5.096 -9.644 284.964 854.893 4484.029 -0.381 -0.204 0.010 -0.04 -0.65 0.76 0.03
1 4.18 418 0.254 -9.376 1.451 -0.671 -3.418 -6.897 464.847 974.965 4454.048 -0.412 -0.294 0.132 -0.04 -0.65 0.76 0.03
1 4.19 419 0.311 -9.443 1.508 -6.531 -3.418 -4.974 329.935 869.883 4439.058 -0.440 -0.229 0.067 -0.04 -0.65 0.76 0.03
1 4.20 420 0.397 -9.663 1.470 -5.219 -3.906 -4.669 329.935 869.883 4439.058 -0.513 -0.010 0.095 -0.04 -0.65 0.76 0.03
1 4.21 421 0.570 -9.764 1.609 -0.977 -3.632 -3.815 404.886 1019.936 4544.140 -0.670 0.089 -0.052 -0.04 -0.65 0.76 0.03
1 4.22 422 0.752 -9.874 1.575 5.005 -1.465 -1.617 404.886 869.883 4574.120 -0.838 0.199 -0.018 -0.04 -0.65 0.76 0.03
1 4.23 423 0.867 -9.501 1.528 8.453 1.068 2.167 449.857 839.903 4649.071 -0.944 -0.173 0.038 -0.03 -0.65 0.76 0.03
1 4.24 424 0.785 -9.457 1.642 7.172 2.777 0.702 449.857 839.903 4649.071 -0.857 -0.215 -0.065 -0.03 -0.65 0.76 0.03
1 4.25 425 0.694 -9.390 1.700 3.906 3.448 0.916 404.886 839.903 4469.039 -0.759 -0.280 -0.112 -0.03 -0.65 0.76 0.04
1 4.26 426 0.522 -9.572 1.638 0.916 3.906 -0.092 479.987 944.984 4469.039 -0.574 -0.096 -0.039 -0.03 -0.65 0.76 0.04
1 4.27 427 0.421 -9.496 1.494 1.373 3.906 0.122 479.987 944.984 4469.039 -0.468 -0.173 0.105 -0.03 -0.65 0.76 0.04
1 4.28 428 0.393 -9.414 1.585 3.632 3.815 0.488 359.916 854.893 4454.048 -0.434 -0.254 0.016 -0.03 -0.65 0.76 0.04
1 4.29 429 0.302 -9.319 1.489 4.456 4.761 0.092 479.987 839.903 4439.058 -0.339 -0.349 0.116 -0.03 -0.65 0.76 0.04
1 4.30 430 0.148 -9.213 1.489 2.655 5.646 -0.153 389.896 929.994 4529.000 -0.182 -0.454 0.121 -0.03 -0.65 0.76 0.04
1 4.31 431 0.321 -9.285 1.422 -1.617 6.989 -1.953 389.896 929.994 4529.000 -0.352 -0.381 0.192 -0.03 -0.65 0.76 0.04
1 4.32 432 0.302 -9.252 1.326 -5.707 7.080 -3.784 359.916 854.893 4529.000 -0.328 -0.415 0.285 -0.03 -0.65 0.76 0.04
1 4.33 433 0.283 -9.410 1.331 -6.989 7.446 -4.974 374.906 794.932 4394.087 -0.293 -0.261 0.258 -0.03 -0.65 0.76 0.04
1 4.34 434 0.311 -9.524 1.188 -5.096 6.714 -4.791 374.906 794.932 4394.087 -0.311 -0.148 0.388 -0.03 -0.65 0.76 0.04
1 4.35 435 0.455 -9.501 1.044 -2.167 6.104 -4.517 464.847 779.942 4379.097 -0.445 -0.174 0.522 -0.03 -0.65 0.76 0.04
1 4.36 436 0.579 -9.410 1.025 -0.275 6.012 -3.967 299.955 764.952 4439.058 -0.558 -0.266 0.535 -0.03 -0.65 0.76 0.04
1 4.37 437 0.690 -9.386 1.159 -0.793 7.050 -2.502 419.876 779.942 4559.130 -0.658 -0.290 0.396 -0.03 -0.65 0.76 0.04
1 4.38 438 0.934 -9.323 1.212 -5.035 9.674 -0.397 419.876 779.942 4559.130 -0.894 -0.353 0.338 -0.03 -0.65 0.76 0.04
1 4.39 439 1.049 -9.649 1.235 -8.179 12.116 1.099 404.886 869.883 4499.019 -1.000 -0.029 0.305 -0.03 -0.65 0.76 0.04
1 4.40 440 1.073 -9.802 1.279 -8.728 14.862 2.625 389.896 824.913 4484.029 -1.015 0.119 0.231 -0.03 -0.65 0.76 0.04
1 4.41 441 0.886 -9.797 1.269 -4.944 16.205 2.197 389.896 824.913 4484.029 -0.826 0.113 0.229 -0.03 -0.65 0.76 0.05
1 4.42 442 0.943 -9.783 1.417 -0.671 15.564 3.357 419.876 779.942 4484.029 -0.882 0.097 0.074 -0.04 -0.65 0.76 0.05
1 4.43 443 0.939 -9.726 1.604 2.502 14.526 4.547 464.847 1049.916 4454.048 -0.877 0.040 -0.113 -0.04 -0.65 0.76 0.05
1 4.44 444 0.790 -9.673 1.623 4.486 14.954 3.387 299.955 914.854 4499.019 -0.730 -0.012 -0.128 -0.04 -0.65 0.76 0.05
1 4.45 445 0.464 -9.754 1.389 5.585 16.602 1.251 299.955 914.854 4499.019 -0.405 0.070 0.113 -0.04 -0.65 0.76 0.05
1 4.46 446 0.101 -9.874 1.326 6.317 16.907 -3.723 389.896 899.864 4529.000 -0.042 0.191 0.182 -0.04 -0.65 0.76 0.05
1 4.47 447 -0.283 -9.433 1.058 10.803 14.801 -3.906 419.876 779.942 4559.130 0.346 -0.248 0.458 -0.04 -0.65 0.76 0.05
1 4.48 448 -0.302 -9.194 0.929 7.996 4.669 -5.859 419.876 779.942 4559.130 0.371 -0.484 0.609 -0.04 -0.65 0.76 0.05
1 4.49 449 -0.014 -9.237 0.718 6.714 -2.197 -5.280 419.876 1004.945 4454.048 0.092 -0.440 0.826 -0.04 -0.65 0.76 0.05
1 4.50 450 0.541 -9.481 0.939 4.974 -5.310 -4.456 494.978 779.942 4484.029 -0.452 -0.195 0.609 -0.04 -0.65 0.76 0.05
1 4.51 451 0.843 -9.711 0.948 2.655 -2.991 -2.289 494.978 779.942 4484.029 -0.740 0.035 0.601 -0.04 -0.65 0.76 0.05
1 4.52 452 0.967 -9.941 0.809 1.221 3.784 2.655 419.876 899.864 4484.029 -0.853 0.265 0.738 -0.04 -0.65 0.76 0.05
1 4.53 453 0.867 -10.056 0.704 1.831 6.348 6.348 389.896 779.942 4589.110 -0.747 0.379 0.839 -0.04 -0.65 0.76 0.05
1 4.54 454 0.804 -9.884 0.594 3.113 5.737 7.385 299.955 689.851 4544.140 -0.687 0.206 0.944 -0.04 -0.65 0.76 0.05
1 4.55 455 0.623 -10.300 0.508 3.174 2.258 6.348 299.955 689.851 4544.140 -0.513 0.621 1.023 -0.04 -0.65 0.76 0.05
1 4.56 456 0.627 -10.310 0.378 1.892 -1.434 5.310 509.968 989.955 4439.058 -0.521 0.630 1.147 -0.04 -0.65 0.76 0.05
1 4.57 457 0.785 -10.315 0.316 -0.580 -3.326 0.702 479.987 989.955 4469.039 -0.679 0.633 1.200 -0.04 -0.65 0.76 0.05
1 4.58 458 0.833 -10.391 0.345 -1.984 -3.601 -5.585 479.987 989.955 4469.039 -0.717 0.708 1.160 -0.04 -0.65 0.76 0.05
1 4.59 459 1.034 -10.760 0.560 -0.092 -3.326 -11.505 464.847 824.913 4484.029 -0.898 1.075 0.932 -0.04 -0.65 0.76 0.05
1 4.60 460 1.259 -10.583 1.355 2.350 -6.378 -13.336 509.968 914.854 4439.058 -1.100 0.898 0.132 -0.03 -0.65 0.76 0.05
1 4.61 461 1.360 -10.789 2.452 5.249 -9.522 -13.763 374.906 869.883 4544.140 -1.169 1.104 -0.967 -0.03 -0.65 0.76 0.05
1 4.62 462 1.010 -11.421 2.725 8.331 -10.010 -18.921 374.906 869.883 4544.140 -0.796 1.737 -1.234 -0.03 -0.65 0.76 0.05
1 4.63 463 -0.024 -13.020 2.514 3.357 -7.660 -22.278 404.886 914.854 4619.091 0.309 3.341 -1.007 -0.03 -0.65 0.76 0.05
1 4.64 464 -0.297 -13.173 2.107 11.475 -2.411 -9.430 284.964 854.893 4454.048 0.615 3.496 -0.594 -0.03 -0.65 0.76 0.06
1 4.65 465 -0.081 -12.149 1.551 32.715 -0.702 4.639 284.964 854.893 4454.048 0.410 2.475 -0.016 -0.03 -0.65 0.76 0.06
1 4.66 466 0.627 -10.343 1.915 50.110 -1.862 4.089 374.906 944.984 4469.039 -0.303 0.679 -0.325 -0.02 -0.65 0.76 0.05
1 4.67 467 0.977 -9.338 2.466 42.328 6.470 -5.066 569.929 854.893 4529.000 -0.653 -0.314 -0.798 -0.02 -0.64 0.76 0.05
1 4.68 468 0.172 -9.841 2.227 19.898 12.512 -1.129 374.906 944.984 4499.019 0.161 0.202 -0.485 -0.02 -0.64 0.77 0.06
1 4.69 469 -0.110 -9.807 1.705 6.409 3.113 -3.021 374.906 944.984 4499.019 0.448 0.176 0.077 -0.02 -0.64 0.77 0.06
1 4.70 470 0.354 -10.171 1.757 2.533 -9.308 -11.169 449.857 794.932 4499.019 -0.002 0.543 0.039 -0.02 -0.64 0.77 0.06
1 4.71 471 0.800 -10.334 1.992 9.644 -6.165 -6.500 359.916 824.913 4454.048 -0.426 0.708 -0.191 -0.02 -0.64 0.77 0.06
1 4.72 472 0.996 -10.109 2.289 15.717 -3.693 -0.458 359.916 824.913 4454.048 -0.608 0.486 -0.472 -0.02 -0.64 0.77 0.06
1 4.73 473 0.771 -10.008 2.811 13.123 -3.296 3.021 389.896 824.913 4349.117 -0.376 0.391 -0.969 -0.02 -0.64 0.77 0.06
1 4.74 474 0.599 -9.271 3.381 8.362 -4.822 6.287 389.896 779.942 4454.048 -0.203 -0.342 -1.514 -0.02 -0.64 0.77 0.06
1 4.75 475 0.311 -8.821 3.515 5.554 -2.197 4.608 389.896 824.913 4529.000 0.080 -0.787 -1.625 -0.02 -0.63 0.77 0.06
1 4.76 476 0.048 -8.600 3.529 1.343 3.052 2.380 389.896 824.913 4529.000 0.339 -1.004 -1.617 -0.02 -0.63 0.77 0.06
1 4.77 477 -0.316 -8.074 3.165 -3.387 10.498 -1.129 389.896 674.860 4409.078 0.697 -1.525 -1.226 -0.02 -0.63 0.77 0.06
1 4.78 478 -0.646 -7.705 2.888 -3.876 12.451 -2.899 269.974 644.880 4394.087 1.029 -1.895 -0.953 -0.02 -0.63 0.77 0.06
1 4.79 479 -0.958 -7.595 2.768 -3.998 11.658 -5.096 269.974 644.880 4394.087 1.344 -2.006 -0.839 -0.02 -0.63 0.77 0.06
1 4.80 480 -1.686 -7.623 2.653 -5.920 5.859 -10.498 419.876 629.890 4304.146 2.080 -1.978 -0.731 -0.02 -0.63 0.77 0.06
1 4.81 481 -1.906 -8.279 2.404 -14.313 -3.876 -13.855 389.896 899.864 4274.016 2.319 -1.324 -0.494 -0.02 -0.63 0.77 0.06
1 4.82 482 -2.002 -9.026 2.552 -35.889 -16.174 -13.214 329.935 614.899 4439.058 2.431 -0.581 -0.666 -0.02 -0.64 0.77 0.06
1 4.83 483 -2.117 -10.018 2.495 -42.267 -21.820 -10.681 329.935 614.899 4439.058 2.554 0.403 -0.651 -0.02 -0.64 0.77 0.06
1 4.84 484 -1.700 -10.401 2.643 -24.109 -25.574 -2.380 359.916 749.961 4484.029 2.153 0.766 -0.911 -0.02 -0.64 0.76 0.06
1 4.85 485 -1.192 -10.066 2.615 -5.249 -25.818 3.265 329.935 914.854 4544.140 1.648 0.426 -0.911 -0.02 -0.64 0.76 0.06
1 4.86 486 -0.723 -9.558 2.739 5.768 -24.963 6.256 329.935 914.854 4544.140 1.170 -0.082 -1.033 -0.01 -0.64 0.76 0.05
1 4.87 487 -0.340 -9.242 2.864 5.890 -22.003 7.965 314.945 779.942 4634.081 0.779 -0.396 -1.143 -0.01 -0.64 0.76 0.05
1 4.88 488 -0.402 -8.979 2.672 -3.357 -21.454 14.160 389.896 899.864 4634.081 0.830 -0.657 -0.938 -0.01 -0.64 0.77 0.05
1 4.89 489 -0.713 -9.180 2.361 -8.270 -21.454 15.167 209.863 899.864 4379.097 1.123 -0.456 -0.623 -0.01 -0.64 0.77 0.05
1 4.90 490 -0.886 -9.213 2.088 -9.705 -21.637 16.052 209.863 899.864 4379.097 1.275 -0.425 -0.358 -0.01 -0.64 0.77 0.05
1 4.91 491 -1.188 -9.343 2.054 -10.315 -21.637 16.174 374.906 719.981 4499.019 1.552 -0.299 -0.336 -0.01 -0.64 0.77 0.04
1 4.92 492 -1.269 -9.371 2.030 -13.886 -21.942 19.836 194.873 794.932 4439.058 1.575 -0.277 -0.343 -0.01 -0.64 0.76 0.04
1 4.93 493 -1.264 -9.395 2.006 -19.653 -23.224 20.783 194.873 794.932 4439.058 1.537 -0.258 -0.339 -0.01 -0.64 0.76 0.04
1 4.94 494 -0.881 -9.371 1.863 -23.834 -24.597 19.806 239.994 824.913 4484.029 1.121 -0.288 -0.225 -0.01 -0.65 0.76 0.03
1 4.95 495 -0.326 -9.639 1.824 -24.963 -24.658 20.691 284.964 704.991 4484.029 0.537 -0.027 -0.223 -0.01 -0.65 0.76 0.03
1 4.96 496 0.110 -9.860 1.963 -22.736 -23.010 22.217 224.854 719.981 4499.019 0.073 0.187 -0.399 -0.01 -0.65 0.76 0.03
1 4.97 497 0.460 -9.726 2.102 -17.487 -18.799 21.240 224.854 719.981 4499.019 -0.303 0.047 -0.572 -0.01 -0.65 0.76 0.03
1 4.98 498 0.417 -9.520 1.987 -13.275 -13.916 19.257 224.854 1019.936 4499.019 -0.283 -0.163 -0.482 -0.01 -0.65 0.76 0.02
1 4.99 499 0.067 -9.386 1.824 -8.057 -9.979 15.656 284.964 974.965 4589.110 0.026 -0.302 -0.350 -0.01 -0.65 0.76 0.02
1 5.00 500 -0.326 -9.510 1.551 -5.035 -10.681 13.763 284.964 974.965 4589.110 0.400 -0.179 -0.087 -0.01 -0.65 0.76 0.02
1 5.01 501 -0.690 -9.596 1.571 -3.845 -12.390 13.886 329.935 839.903 4544.140 0.745 -0.094 -0.112 -0.01 -0.65 0.76 0.02
1 5.02 502 -0.867 -9.433 1.619 -3.448 -16.510 13.336 329.935 839.903 4544.140 0.901 -0.258 -0.165 -0.01 -0.65 0.76 0.02
1 5.03 503 -0.704 -9.529 1.681 -6.348 -19.836 14.313 329.935 944.984 4574.120 0.718 -0.163 -0.232 -0.01 -0.65 0.76 0.02
1 5.04 504 -0.393 -9.563 1.724 -6.012 -20.599 14.954 329.935 944.984 4574.120 0.388 -0.131 -0.282 -0.01 -0.65 0.76 0.01
1 5.05 505 -0.182 -9.486 1.705 0.549 -20.264 13.825 194.873 944.984 4679.052 0.158 -0.208 -0.271 -0.01 -0.65 0.76 0.01
1 5.06 506 -0.034 -9.534 1.571 10.712 -18.219 12.970 269.974 914.854 4619.091 -0.018 -0.159 -0.127 -0.01 -0.65 0.76 0.01
1 5.07 507 -0.139 -9.438 1.461 13.397 -15.472 12.360 269.974 914.854 4619.091 0.074 -0.252 0.001 -0.01 -0.65 0.76 0.01
1 5.08 508 -0.273 -9.381 1.355 13.092 -14.160 11.169 359.916 779.942 4664.062 0.195 -0.306 0.126 -0.01 -0.65 0.76 0.01
1 5.09 509 -0.268 -9.228 1.365 9.491 -13.733 7.629 359.916 779.942 4664.062 0.179 -0.457 0.134 -0.01 -0.65 0.76 0.01
1 5.10 510 -0.259 -9.405 1.259 4.395 -12.939 5.524 314.945 1004.945 4589.110 0.162 -0.278 0.250 -0.01 -0.65 0.76 0
1 5.11 511 -0.086 -9.395 1.154 0.732 -10.773 5.432 314.945 1004.945 4589.110 -0.014 -0.286 0.361 -0.01 -0.65 0.76 0
1 5.12 512 -0.072 -9.347 1.293 -0.244 -9.247 2.258 269.974 914.854 4619.091 -0.032 -0.335 0.221 -0.01 -0.65 0.76 0
1 5.13 513 0.158 -9.266 1.192 -1.312 -6.561 1.160 359.916 974.965 4589.110 -0.262 -0.416 0.319 -0.01 -0.65 0.76 0
1 5.14 514 0.038 -8.706 0.977 -1.251 -4.730 -4.211 359.916 974.965 4589.110 -0.132 -0.978 0.527 -0.01 -0.65 0.76 0
1 5.15 515 0.057 -8.629 1.082 -2.502 -5.096 -8.575 374.906 914.854 4649.071 -0.140 -1.055 0.418 -0.01 -0.65 0.76 0
1 5.16 516 0.096 -8.586 1.140 -5.188 -7.599 -10.559 374.906 914.854 4649.071 -0.161 -1.099 0.355 -0.01 -0.65 0.76 0
1 5.17 517 0.014 -9.070 1.192 -7.050 -10.925 -12.085 104.932 974.965 4379.097 -0.058 -0.617 0.292 -0.01 -0.65 0.76 0.01
1 5.18 518 0.110 -9.730 1.288 -9.033 -13.611 -12.543 104.932 974.965 4379.097 -0.131 0.041 0.183 -0.01 -0.65 0.76 0.01
1 5.19 519 0.038 -10.147 1.542 -6.378 -12.268 -13.001 149.902 944.984 4724.022 -0.034 0.456 -0.085 -0 -0.65 0.76 0.01
1 5.20 520 -0.062 -10.688 1.810 -4.547 -10.712 -12.054 134.912 824.913 4634.081 0.115 0.994 -0.373 -0 -0.65 0.76 0.01
1 5.21 521 -0.105 -10.707 1.848 0.031 -7.690 -7.629 134.912 824.913 4634.081 0.176 1.013 -0.414 -0 -0.65 0.76 0.01
1 5.22 522 -0.148 -10.549 1.987 8.820 -0.641 -0.397 104.932 854.893 4634.081 0.229 0.856 -0.545 -0 -0.65 0.76 0.01
1 5.23 523 -0.206 -10.099 1.810 11.322 5.310 6.409 104.932 854.893 4634.081 0.285 0.409 -0.352 -0 -0.65 0.76 0.01
1 5.24 524 -0.374 -9.529 1.341 10.529 9.491 12.878 119.922 794.932 4619.091 0.440 -0.159 0.135 -0 -0.65 0.76 0.01
1 5.25 525 -0.536 -9.285 1.058 9.979 8.118 13.702 119.922 794.932 4619.091 0.583 -0.401 0.432 -0 -0.65 0.76 0.01
1 5.26 526 -0.527 -9.228 0.761 8.606 5.005 13.977 119.922 1019.936 4649.071 0.549 -0.456 0.741 -0 -0.65 0.76 0.01
1 5.27 527 -0.599 -9.055 0.862 7.629 1.953 13.306 239.994 854.893 4454.048 0.597 -0.628 0.650 -0.01 -0.65 0.76 0.01
1 5.28 528 -0.493 -9.089 0.699 7.477 -1.068 13.031 239.994 854.893 4454.048 0.450 -0.592 0.825 -0.01 -0.65 0.76 0.01
1 5.29 529 -0.565 -8.959 0.594 5.066 -1.617 13.794 269.974 944.984 4619.091 0.501 -0.721 0.934 -0.01 -0.65 0.76 0
1 5.30 530 -0.761 -9.022 0.570 2.289 -1.740 14.587 269.974 944.984 4619.091 0.676 -0.658 0.958 -0.01 -0.65 0.76 0
1 5.31 531 -0.934 -9.194 0.297 -2.472 -0.885 15.106 179.883 899.864 4529.000 0.823 -0.486 1.225 -0.01 -0.65 0.76 0
1 5.32 532 -1.255 -9.462 0.081 -8.087 -0.366 17.944 149.902 839.903 4544.140 1.117 -0.220 1.427 -0.01 -0.65 0.76 0
1 5.33 533 -1.413 -9.721 0.426 -10.529 -1.617 20.355 29.980 974.965 4559.130 1.243 0.036 1.061 -0.01 -0.65 0.76 0
1 5.34 534 -1.973 -10.042 1.547 -10.529 -7.507 24.201 209.863 1079.896 4634.081 1.768 0.354 -0.084 0.01 0.65 -0.76 0
1 5.35 535 -1.240 -12.082 2.241 -8.789 -22.186 39.856 209.863 1079.896 4634.081 0.953 2.391 -0.808 0.02 0.65 -0.76 0
1 5.36 536 -0.215 -14.203 3.223 -32.471 -21.790 55.603 134.912 1004.945 4559.130 -0.130 4.512 -1.809 0.02 0.65 -0.76 0.01
1 5.37 537 0.215 -14.940 2.792 -34.577 -5.951 60.150 134.912 1004.945 4559.130 -0.640 5.244 -1.433 0.02 0.66 -0.75 0.01
1 5.38 538 0.225 -13.834 1.781 9.491 9.796 50.293 299.955 914.854 4619.091 -0.735 4.137 -0.460 0.02 0.66 -0.75 0.02
1 5.39 539 -0.460 -10.736 0.747 56.030 25.452 13.733 314.945 854.893 4589.110 -0.117 1.047 0.603 0.02 0.66 -0.75 0.02
1 5.40 540 -0.713 -9.716 0.354 43.244 12.085 -2.167 299.955 989.955 4619.091 0.106 0.039 1.066 0.03 0.65 -0.76 0.02
1 5.41 541 -0.809 -9.544 0.819 12.390 -11.566 -11.841 389.896 929.994 4529.000 0.198 -0.124 0.664 0.03 0.65 -0.76 0.02
1 5.42 542 -0.713 -10.530 1.590 -5.707 -23.529 -6.653 389.896 929.994 4529.000 0.119 0.865 -0.084 0.03 0.65 -0.76 0.01
1 5.43 543 -0.632 -11.641 2.313 -3.052 -9.827 7.629 359.916 974.965 4634.081 0.062 1.972 -0.822 0.03 0.65 -0.76 0.02
1 5.44 544 -0.948 -11.411 1.930 7.996 6.531 9.644 359.916 974.965 4634.081 0.369 1.742 -0.440 0.03 0.65 -0.76 0.02
1 5.45 545 -1.068 -10.525 1.532 19.043 9.827 1.862 299.955 869.883 4574.120 0.478 0.860 -0.027 0.03 0.65 -0.76 0.02
1 5.46 546 -0.723 -9.946 1.298 14.679 -3.815 -9.094 239.994 899.864 4589.110 0.131 0.285 0.235 0.03 0.65 -0.76 0.01
1 5.47 547 -0.393 -9.955 1.379 7.904 -14.618 -9.308 374.906 839.903 4574.120 -0.188 0.297 0.176 0.03 0.65 -0.76 0.01
1 5.48 548 0.010 -9.908 1.609 10.925 -18.219 -0.732 314.945 929.994 4559.130 -0.569 0.250 -0.040 0.03 0.65 -0.76 0.01
1 5.49 549 0.498 -9.366 1.963 17.151 -11.597 1.923 314.945 929.994 4559.130 -1.043 -0.289 -0.380 0.02 0.65 -0.76 0.01
1 5.50 550 0.091 -8.902 2.179 20.264 5.005 -6.866 209.863 1049.916 4664.062 -0.614 -0.745 -0.536 0.02 0.64 -0.76 0.01
1 5.51 551 -0.412 -9.026 2.265 14.954 9.827 -11.292 209.863 1049.916 4664.062 -0.094 -0.616 -0.589 0.02 0.64 -0.77 0.01
1 5.52 552 -1.020 -8.993 1.997 10.101 5.615 -7.782 269.974 989.955 4439.058 0.529 -0.646 -0.298 0.02 0.64 -0.77 0.01
1 5.53 553 -1.350 -8.629 1.968 6.653 -3.296 -1.434 329.935 944.984 4544.140 0.864 -1.008 -0.254 0.02 0.64 -0.77 0.01
1 5.54 554 -0.872 -8.131 2.203 6.775 -15.411 7.080 134.912 824.913 4454.048 0.386 -1.504 -0.479 0.02 0.64 -0.77 0.01
1 5.55 555 -0.397 -7.667 2.576 9.552 -16.876 16.937 59.961 824.913 4454.048 -0.089 -1.967 -0.842 0.02 0.64 -0.77 0.01
1 5.56 556 0.081 -7.255 2.701 9.491 -15.503 19.226 59.961 824.913 4454.048 -0.583 -2.375 -0.953 0.02 0.64 -0.77 0.01
1 5.57 557 0.565 -7.489 2.969 4.334 -8.240 21.240 209.863 704.991 4484.029 -1.111 -2.133 -1.194 0.02 0.64 -0.77 0.02
1 5.58 558 0.838 -7.652 3.017 -2.991 -4.486 18.982 209.863 704.991 4484.029 -1.411 -1.968 -1.238 0.02 0.64 -0.77 0.02
1 5.59 559 0.776 -8.270 3.084 -10.651 -2.167 18.494 134.912 824.913 4484.029 -1.374 -1.350 -1.313 0.02 0.64 -0.77 0.02
1 5.60 560 0.795 -9.022 3.151 -18.066 1.617 17.090 284.964 854.893 4409.078 -1.406 -0.599 -1.387 0.02 0.64 -0.77 0.02
1 5.61 561 0.900 -9.601 3.347 -22.583 6.470 14.343 149.902 764.952 4499.019 -1.523 -0.022 -1.602 0.03 0.64 -0.77 0.02
1 5.62 562 0.862 -9.812 3.271 -23.712 16.693 11.200 449.857 839.903 4649.071 -1.494 0.185 -1.550 0.03 0.64 -0.77 0.02
1 5.63 563 0.603 -9.927 3.065 -18.524 22.156 9.308 449.857 839.903 4649.071 -1.243 0.296 -1.370 0.03 0.64 -0.77 0.02
1 5.64 564 0.062 -10.070 2.706 1.526 19.165 0.946 359.916 899.864 4634.081 -0.712 0.434 -1.043 0.03 0.64 -0.76 0.02
1 5.65 565 -0.239 -10.094 2.437 17.426 12.116 -2.502 359.916 899.864 4634.081 -0.407 0.460 -0.762 0.03 0.64 -0.77 0.01
1 5.66 566 -0.187 -9.663 2.322 22.522 7.660 -4.211 284.964 1049.916 4589.110 -0.454 0.034 -0.616 0.03 0.64 -0.77 0.01
1 5.67 567 -0.249 -9.376 2.519 16.480 6.104 -6.256 374.906 914.854 4544.140 -0.381 -0.247 -0.778 0.03 0.64 -0.77 0.01
1 5.68 568 -0.158 -9.275 2.385 -2.655 7.202 -10.529 389.896 899.864 4559.130 -0.458 -0.345 -0.619 0.03 0.64 -0.77 0.01
1 5.69 569 0.024 -9.601 2.265 -10.925 8.179 -11.932 359.916 854.893 4634.081 -0.621 -0.019 -0.495 0.03 0.64 -0.77 0.01
1 5.70 570 0.206 -10.008 2.131 -9.186 7.660 -11.169 359.916 854.893 4634.081 -0.782 0.384 -0.373 0.03 0.64 -0.77 0.01
1 5.71 571 0.287 -10.061 2.064 0.000 5.219 -12.329 404.886 839.903 4499.019 -0.840 0.433 -0.319 0.03 0.64 -0.77 0.01
1 5.72 572 0.512 -9.936 2.069 12.299 3.143 -11.993 404.886 839.903 4499.019 -1.015 0.307 -0.317 0.03 0.64 -0.77 0
1 5.73 573 0.575 -9.716 1.992 13.031 4.578 -12.238 314.945 779.942 4529.000 -1.050 0.089 -0.221 0.03 0.64 -0.77 0
1 5.74 574 0.263 -9.577 1.959 8.820 8.026 -12.268 269.974 839.903 4469.039 -0.713 -0.048 -0.169 0.03 0.64 -0.77 0
1 5.75 575 -0.010 -9.544 1.757 2.594 10.040 -12.543 359.916 899.864 4529.000 -0.417 -0.080 0.042 -0.03 -0.64 0.77 0
1 5.76 576 -0.201 -9.443 1.686 0.854 9.644 -10.223 239.994 929.994 4589.110 -0.205 -0.181 0.116 -0.03 -0.64 0.77 0
1 5.77 577 -0.196 -9.635 1.652 4.944 6.866 -8.484 239.994 929.994 4589.110 -0.193 0.009 0.149 -0.03 -0.64 0.77 0
1 5.78 578 0.206 -9.563 1.609 10.315 3.754 -5.890 359.916 974.965 4589.110 -0.580 -0.062 0.196 -0.03 -0.64 0.77 0
1 5.79 579 0.426 -9.232 1.609 15.564 3.937 -3.113 359.916 974.965 4589.110 -0.773 -0.388 0.226 -0.03 -0.64 0.77 0.01
1 5.80 580 0.618 -9.036 1.662 15.076 5.035 -3.845 314.945 854.893 4589.110 -0.953 -0.581 0.195 -0.03 -0.64 0.77 0.01
1 5.81 581 0.704 -8.830 1.666 12.299 6.104 -5.035 389.896 899.864 4484.029 -1.025 -0.783 0.210 -0.03 -0.64 0.77 0.01
1 5.82 582 0.613 -8.816 1.599 9.399 6.805 -6.134 389.896 899.864 4484.029 -0.918 -0.795 0.292 -0.03 -0.63 0.77 0.01
1 5.83 583 0.517 -8.792 1.542 7.233 8.087 -5.798 389.896 1004.945 4484.029 -0.807 -0.817 0.361 -0.03 -0.63 0.77 0.01
1 5.84 584 0.532 -8.868 1.470 6.866 8.331 -4.761 389.896 1004.945 4484.029 -0.807 -0.739 0.441 -0.03 -0.63 0.77 0.01
1 5.85 585 0.354 -9.132 1.504 4.303 8.606 -4.395 299.955 764.952 4394.087 -0.617 -0.475 0.415 -0.03 -0.63 0.77 0.01
1 5.86 586 0.168 -9.065 1.341 0.793 9.888 -5.493 299.955 764.952 4394.087 -0.408 -0.542 0.582 -0.03 -0.63 0.77 0.01
1 5.87 587 0.096 -9.060 1.403 0.488 10.254 -5.005 314.945 974.965 4379.097 -0.326 -0.547 0.516 -0.03 -0.63 0.77 0.02
1 5.88 588 -0.101 -8.974 1.370 0.122 8.637 -5.096 329.935 719.981 4544.140 -0.121 -0.635 0.546 -0.03 -0.63 0.77 0.02
1 5.89 589 -0.177 -8.773 1.389 -2.197 8.759 -4.883 329.935 719.981 4544.140 -0.036 -0.837 0.523 -0.03 -0.63 0.77 0.02
1 5.90 590 -0.163 -8.868 1.183 -4.913 8.026 -3.967 239.994 929.994 4484.029 -0.044 -0.743 0.721 -0.03 -0.63 0.77 0.02
1 5.91 591 -0.086 -8.624 1.183 -6.897 8.637 -2.380 239.994 929.994 4484.029 -0.115 -0.989 0.710 -0.03 -0.63 0.77 0.02
1 5.92 592 0.077 -8.562 1.010 -7.721 8.637 -2.014 359.916 779.942 4559.130 -0.273 -1.054 0.872 -0.03 -0.63 0.77 0.02
1 5.93 593 0.393 -8.629 0.785 -8.911 8.667 -1.770 359.916 779.942 4559.130 -0.586 -0.989 1.085 -0.03 -0.64 0.77 0.02
1 5.94 594 0.713 -8.883 0.761 -13.550 9.918 -4.852 329.935 719.981 4619.091 -0.902 -0.741 1.078 -0.03 -0.64 0.77 0.02
1 5.95 595 0.857 -9.457 0.690 -13.275 6.256 -9.644 269.974 1019.936 4439.058 -1.029 -0.172 1.121 -0.03 -0.64 0.77 0.02
1 5.96 596 0.919 -9.553 1.030 -9.064 2.594 -10.529 269.974 1019.936 4439.058 -1.068 -0.082 0.755 -0.03 -0.64 0.77 0.02
1 5.97 597 0.972 -9.778 1.355 -9.369 1.495 -14.069 194.873 839.903 4574.120 -1.094 0.139 0.410 -0.03 -0.64 0.77 0.02
1 5.98 598 0.924 -9.644 1.451 -14.252 1.251 -16.815 194.873 839.903 4574.120 -1.014 0.002 0.296 -0.03 -0.64 0.77 0.03
1 5.99 599 0.929 -9.625 1.551 -15.442 0.000 -22.369 404.886 989.955 4574.120 -0.985 -0.022 0.173 -0.03 -0.64 0.77 0.03
1 6.00 600 0.828 -9.524 1.264 -13.367 0.488 -24.445 404.886 989.955 4574.120 -0.799 -0.131 0.412 -0.02 -0.64 0.76 0.03
1 6.01 601 0.484 -9.448 1.216 -12.634 0.916 -24.262 389.896 779.942 4529.000 -0.411 -0.211 0.437 -0.02 -0.64 0.76 0.03
1 6.02 602 0.527 -9.443 1.044 -12.085 -1.099 -22.522 239.994 824.913 4454.048 -0.414 -0.219 0.588 -0.02 -0.65 0.76 0.03
1 6.03 603 0.388 -9.601 0.646 -12.054 -2.777 -19.867 239.994 824.913 4454.048 -0.238 -0.065 0.962 -0.02 -0.65 0.76 0.03
1 6.04 604 0.479 -9.769 -0.029 -12.909 -2.991 -15.717 119.922 1019.936 4574.120 -0.297 0.099 1.611 -0.02 -0.65 0.76 0.04
1 6.05 605 0.661 -9.903 -0.034 -13.763 -2.808 -12.054 119.922 1019.936 4574.120 -0.451 0.229 1.584 -0.02 -0.65 0.76 0.04
1 6.06 606 0.910 -10.056 0.623 -13.886 -4.211 -8.331 269.974 914.854 4469.039 -0.675 0.377 0.896 -0.02 -0.65 0.76 0.04
1 6.07 607 1.116 -10.219 2.121 -17.731 -6.531 -8.942 269.974 914.854 4469.039 -0.861 0.536 -0.633 -0.01 -0.65 0.76 0.04
1 6.08 608 0.886 -11.698 3.668 -31.311 -5.341 -23.834 269.974 989.955 4469.039 -0.583 2.008 -2.239 -0.01 -0.65 0.76 0.04
1 6.09 609 -0.306 -13.671 3.864 -40.802 3.143 -26.917 149.902 1064.906 4574.120 0.653 3.975 -2.488 -0.01 -0.66 0.75 0.04
1 6.10 610 -0.599 -14.117 2.710 -30.304 6.989 -19.470 149.902 1064.906 4574.120 0.983 4.413 -1.393 -0.01 -0.66 0.75 0.04
1 6.11 611 -0.694 -13.997 2.045 -0.824 5.585 -17.700 59.961 1004.945 4589.110 1.107 4.290 -0.763 -0.01 -0.66 0.75 0.04
1 6.12 612 -0.177 -13.054 1.786 35.828 -3.906 -6.592 179.883 1004.945 4634.081 0.616 3.349 -0.495 -0.01 -0.66 0.75 0.04
1 6.13 613 0.742 -11.569 1.695 35.278 -14.130 -9.277 134.912 929.994 4769.143 -0.288 1.872 -0.356 -0.01 -0.66 0.75 0.04
1 6.14 614 0.953 -10.995 1.686 13.123 -13.977 -21.545 134.912 929.994 4769.143 -0.483 1.305 -0.293 -0.01 -0.65 0.75 0.04
1 6.15 615 0.555 -10.659 1.915 1.465 -14.679 -15.808 149.902 1019.936 4544.140 -0.020 0.978 -0.493 -0 -0.65 0.76 0.04
1 6.16 616 1.053 -10.520 2.203 0.214 -26.642 -17.914 119.922 944.984 4679.052 -0.487 0.841 -0.781 0 -0.65 0.76 0.04
1 6.17 617 1.882 -10.410 2.476 2.594 -29.450 -18.951 119.922 944.984 4679.052 -1.277 0.733 -1.053 0 -0.65 0.76 0.04
1 6.18 618 2.179 -10.094 2.720 4.334 -24.628 -16.205 59.961 1004.945 4484.029 -1.533 0.421 -1.291 0.01 -0.65 0.76 0.04
1 6.19 619 2.093 -9.687 2.902 6.104 -15.991 -4.883 59.961 974.965 4529.000 -1.406 0.018 -1.460 0.01 -0.65 0.76 0.04
1 6.20 620 1.604 -9.161 2.940 14.252 -11.505 -2.594 149.902 989.955 4499.019 -0.891 -0.504 -1.482 0.01 -0.65 0.76 0.04
1 6.21 621 1.125 -8.701 2.945 24.201 -8.331 -2.319 149.902 989.955 4499.019 -0.394 -0.958 -1.460 0.01 -0.65 0.76 0.04
1 6.22 622 0.196 -8.050 2.907 33.539 -6.897 -3.662 89.941 1019.936 4544.140 0.547 -1.602 -1.380 0.01 -0.65 0.76 0.04
1 6.23 623 -0.536 -7.350 3.060 37.872 -5.035 -2.533 -59.961 1004.945 4454.048 1.295 -2.284 -1.435 0.01 -0.65 0.76 0.04
1 6.24 624 -0.809 -6.963 3.031 37.872 -4.364 -2.014 -59.961 1004.945 4454.048 1.575 -2.662 -1.352 0.01 -0.64 0.76 0.04
1 6.25 625 -1.063 -6.800 2.820 34.515 -4.364 -2.655 29.980 974.965 4589.110 1.836 -2.815 -1.087 0.02 -0.64 0.77 0.04
1 6.26 626 -1.393 -7.154 2.969 27.008 -8.301 -7.111 14.990 869.883 4544.140 2.176 -2.451 -1.188 0.02 -0.64 0.77 0.04
1 6.27 627 -1.513 -7.772 3.117 6.592 -14.984 -9.644 14.990 1019.936 4499.019 2.312 -1.825 -1.302 0.02 -0.64 0.77 0.04
1 6.28 628 -1.480 -8.797 3.160 -13.886 -19.104 -14.099 14.990 1019.936 4499.019 2.299 -0.796 -1.331 0.02 -0.64 0.77 0.04
1 6.29 629 -1.293 -9.999 3.151 -35.614 -20.172 -14.771 -104.932 974.965 4484.029 2.130 0.405 -1.332 0.02 -0.64 0.77 0.04
1 6.30 630 -0.891 -11.157 3.218 -46.051 -18.066 -7.660 14.990 914.854 4499.019 1.768 1.548 -1.506 0.02 -0.64 0.77 0.04
1 6.31 631 -0.570 -11.148 3.108 -30.853 -16.083 -0.397 14.990 914.854 4499.019 1.463 1.528 -1.463 0.02 -0.64 0.76 0.04
1 6.32 632 -0.388 -10.434 2.950 -7.996 -13.245 4.517 -14.990 989.955 4469.039 1.286 0.808 -1.345 0.03 -0.65 0.76 0.04
1 6.33 633 -0.192 -9.620 2.658 7.202 -9.827 7.813 -14.990 1169.988 4499.019 1.081 -0.007 -1.057 0.03 -0.65 0.76 0.04
1 6.34 634 -0.158 -8.998 2.064 11.108 -11.017 11.719 -119.922 989.955 4619.091 1.033 -0.628 -0.444 0.03 -0.65 0.76 0.04
1 6.35 635 -0.153 -9.237 1.973 -1.495 -16.266 11.841 -119.922 989.955 4619.091 1.009 -0.387 -0.332 0.03 -0.64 0.76 0.04
1 6.36 636 -0.053 -9.864 2.078 -15.259 -21.088 14.374 44.971 1094.887 4544.140 0.891 0.240 -0.434 0.03 -0.64 0.76 0.04
1 6.37 637 0.278 -10.621 2.069 -16.388 -18.707 21.118 -149.902 944.984 4499.019 0.517 0.985 -0.471 0.03 -0.65 0.76 0.03
1 6.38 638 0.326 -10.659 2.011 -3.326 -10.223 26.611 -149.902 944.984 4499.019 0.443 1.017 -0.436 0.03 -0.65 0.76 0.03
1 6.39 639 0.388 -10.315 1.882 7.477 -0.824 29.450 -59.961 929.994 4589.110 0.342 0.669 -0.309 0.02 -0.65 0.76 0.03
1 6.40 640 -0.125 -9.563 1.480 8.789 4.089 29.022 -89.941 914.854 4469.039 0.810 -0.084 0.106 0.02 -0.65 0.76 0.03
1 6.41 641 -0.599 -9.381 1.202 4.120 1.953 24.628 -14.990 1064.906 4499.019 1.238 -0.267 0.395 0.02 -0.65 0.76 0.03
1 6.42 642 -0.876 -9.472 1.125 -3.784 -6.073 17.273 -14.990 1064.906 4499.019 1.475 -0.179 0.472 0.02 -0.65 0.76 0.02
1 6.43 643 -0.704 -9.807 1.331 -3.784 -9.399 16.602 -59.961 1049.916 4409.078 1.269 0.153 0.257 0.02 -0.65 0.76 0.02
1 6.44 644 -0.575 -9.879 1.494 0.732 -9.338 16.693 44.971 989.955 4619.091 1.080 0.219 0.078 0.02 -0.65 0.76 0.02
1 6.45 645 -0.685 -9.903 1.595 6.165 -7.263 18.585 44.971 989.955 4619.091 1.162 0.242 -0.022 0.02 -0.65 0.76 0.02
1 6.46 646 -0.493 -9.740 1.537 10.193 -7.050 17.426 104.932 1049.916 4529.000 0.939 0.079 0.045 0.02 -0.65 0.76 0.02
1 6.47 647 -0.541 -9.721 1.633 13.489 -8.118 16.693 -44.971 989.955 4499.019 0.959 0.061 -0.036 0.01 -0.65 0.76 0.02
1 6.48 648 -0.455 -9.462 1.417 14.587 -9.888 13.733 -89.941 989.955 4574.120 0.846 -0.196 0.197 0.01 -0.65 0.76 0.01
1 6.49 649 -0.517 -9.362 1.456 14.008 -10.101 13.123 -89.941 989.955 4574.120 0.886 -0.294 0.178 0.01 -0.65 0.76 0.01
1 6.50 650 -0.206 -9.199 1.417 13.733 -10.681 12.573 89.941 1019.936 4619.091 0.554 -0.455 0.234 0.01 -0.64 0.76 0.01
1 6.51 651 -0.115 -9.070 1.609 13.916 -9.644 13.245 14.990 1094.887 4544.140 0.444 -0.582 0.061 0.01 -0.64 0.76 0.01
1 6.52 652 0.125 -8.969 1.508 9.399 -9.003 14.069 14.990 1094.887 4544.140 0.170 -0.677 0.196 0.01 -0.64 0.77 0.01
1 6.53 653 0.335 -8.811 1.326 7.202 -9.216 13.275 14.990 1064.906 4289.006 -0.057 -0.834 0.388 0.01 -0.64 0.77 0.01
1 6.54 654 0.383 -8.758 1.283 5.585 -9.338 12.604 0.000 929.994 4634.081 -0.119 -0.886 0.439 0.01 -0.64 0.77 0.01
1 6.55 655 0.378 -8.437 1.259 4.669 -9.796 9.705 14.990 1019.936 4439.058 -0.126 -1.206 0.469 0.01 -0.64 0.77 0.01
1 6.56 656 0.340 -8.394 1.374 3.998 -9.308 7.233 14.990 1019.936 4439.058 -0.097 -1.248 0.360 0.01 -0.64 0.77 0
1 6.57 657 0.086 -8.414 1.235 3.143 -8.759 4.242 -29.980 974.965 4454.048 0.150 -1.228 0.504 0.01 -0.64 0.77 0
1 6.58 658 -0.101 -8.538 1.073 0.519 -7.690 1.282 44.971 1094.887 4544.140 0.334 -1.103 0.671 0.01 -0.64 0.77 0
1 6.59 659 -0.441 -8.691 0.872 -5.524 -7.080 -0.916 44.971 1094.887 4544.140 0.680 -0.950 0.868 0.01 -0.64 0.77 0
1 6.60 660 -0.560 -8.888 0.895 -7.446 -7.080 -2.441 149.902 869.883 4394.087 0.803 -0.756 0.832 0.01 -0.64 0.77 0
1 6.61 661 -0.752 -8.979 1.058 -9.003 -6.928 -3.296 14.990 944.984 4439.058 0.997 -0.668 0.651 0.01 -0.64 0.77 0
1 6.62 662 -0.709 -9.108 1.063 -10.010 -6.592 -2.350 14.990 944.984 4439.058 0.954 -0.542 0.628 0.01 -0.64 0.77 0
1 6.63 663 -0.656 -9.644 1.168 -8.820 -5.463 1.221 89.941 989.955 4499.019 0.901 -0.009 0.503 0.01 -0.64 0.77 0
1 6.64 664 -0.436 -10.003 1.341 -7.446 -6.531 3.174 -44.971 944.984 4439.058 0.677 0.347 0.312 0.01 -0.64 0.76 0
1 6.65 665 -0.354 -10.391 1.547 -5.981 -7.721 3.418 -119.922 1064.906 4364.107 0.589 0.732 0.091 0.01 -0.65 0.76 0
1 6.66 666 -0.144 -10.516 1.935 -3.540 -8.057 -0.946 -119.922 1064.906 4364.107 0.372 0.853 -0.318 0.01 -0.65 0.76 0
1 6.67 667 0.196 -10.645 1.959 1.556 -6.012 0.366 -59.961 1079.896 4409.078 0.035 0.981 -0.345 0.01 -0.65 0.76 0
1 6.68 668 0.158 -10.616 2.088 8.057 -1.678 3.479 104.932 1049.916 4484.029 0.076 0.954 -0.470 0.01 -0.65 0.76 0
1 6.69 669 0.292 -10.157 2.073 11.047 5.005 7.385 104.932 1049.916 4484.029 -0.063 0.496 -0.441 0.01 -0.65 0.76 0
1 6.70 670 -0.086 -9.544 1.690 9.735 12.146 13.458 -44.971 1019.936 4364.107 0.304 -0.114 -0.040 0.01 -0.64 0.76 0
1 6.71 671 -0.618 -9.117 1.058 11.017 12.604 16.449 44.971 989.955 4469.039 0.815 -0.538 0.608 0.01 -0.64 0.76 0
1 6.72 672 -0.771 -9.070 0.723 10.071 8.820 15.472 29.980 1124.867 4529.000 0.938 -0.584 0.956 0.01 -0.64 0.77 0
1 6.73 673 -0.776 -9.199 0.402 6.378 2.441 13.855 29.980 1124.867 4529.000 0.913 -0.454 1.286 0.01 -0.64 0.77 0
1 6.74 674 -0.737 -9.659 0.503 0.854 -6.561 11.047 -104.932 1004.945 4529.000 0.826 0.005 1.183 -0.01 0.64 -0.77 0
1 6.75 675 -0.283 -10.032 0.795 -3.540 -7.629 10.956 119.922 1064.906 4574.120 0.354 0.377 0.881 -0.01 0.64 -0.77 0
1 6.76 676 -0.388 -10.204 1.743 -6.165 -7.355 14.587 119.922 1064.906 4574.120 0.443 0.547 -0.080 -0.01 0.64 -0.76 0
1 6.77 677 -0.105 -11.469 3.122 -6.958 -8.911 23.773 -14.990 1064.906 4544.140 0.139 1.809 -1.470 -0.01 0.64 -0.76 0
1 6.78 678 0.589 -12.666 3.443 -18.768 -6.470 47.699 -44.971 1094.887 4574.120 -0.592 3.004 -1.802 -0 0.65 -0.76 0.01
1 6.79 679 0.670 -12.872 2.911 -23.438 5.524 55.268 -29.980 1004.945 4304.146 -0.734 3.206 -1.294 -0 0.65 -0.76 0.01
1 6.80 680 -0.148 -11.057 0.948 1.007 16.632 51.819 -29.980 1004.945 4304.146 -0.074 1.386 0.622 0 0.65 -0.76 0.01
1 6.81 681 -0.934 -10.166 0.565 33.325 19.257 26.886 89.941 1019.936 4574.120 0.657 0.502 1.039 0.01 0.65 -0.76 0.01
1 6.82 682 -1.403 -9.979 0.215 32.318 9.216 3.082 29.980 1124.867 4454.048 1.102 0.324 1.437 0.01 0.64 -0.76 0.01
1 6.83 683 -1.801 -10.377 0.321 4.425 -1.587 5.066 29.980 1124.867 4454.048 1.486 0.727 1.358 0.01 0.64 -0.77 0.01
1 6.84 684 -1.494 -11.239 1.053 -15.503 -6.470 7.080 269.974 989.955 4394.087 1.169 1.588 0.617 0.01 0.64 -0.76 0.01
1 6.85 685 -1.264 -11.608 1.556 -11.444 0.824 5.951 239.994 1079.896 4454.048 0.933 1.953 0.093 0.01 0.64 -0.76 0.01
1 6.86 686 -1.403 -11.641 1.532 -3.326 8.026 7.660 134.912 1079.896 4484.029 1.065 1.983 0.097 0.01 0.65 -0.76 0.01
1 6.87 687 -1.551 -10.698 1.235 5.463 8.728 9.644 134.912 1079.896 4484.029 1.204 1.039 0.385 0.01 0.65 -0.76 0.01
1 6.88 688 -1.178 -9.467 1.432 10.620 -0.824 3.052 179.883 1004.945 4304.146 0.801 -0.188 0.202 0.01 0.65 -0.76 0.01
1 6.89 689 -0.699 -9.170 1.959 4.486 -8.545 -0.488 119.922 989.955 4439.058 0.317 -0.483 -0.311 0.01 0.64 -0.76 0.01
1 6.90 690 0.038 -9.386 2.318 -4.578 -12.604 -2.533 119.922 989.955 4439.058 -0.415 -0.266 -0.663 0.01 0.64 -0.76 0.01
1 6.91 691 0.254 -9.625 2.758 -6.744 -12.085 -3.174 239.994 1124.867 4409.078 -0.618 -0.028 -1.106 0.01 0.64 -0.76 0.01
1 6.92 692 0.417 -9.692 2.969 1.862 -7.965 -9.888 209.863 1124.867 4409.078 -0.765 0.039 -1.317 0.01 0.64 -0.76 0.01
1 6.93 693 0.383 -9.860 2.792 5.432 -6.958 -16.449 194.873 1244.939 4469.039 -0.709 0.207 -1.130 0.01 0.64 -0.76 0.01
1 6.94 694 0.034 -9.946 2.744 6.989 -9.460 -12.177 194.873 1244.939 4469.039 -0.327 0.295 -1.067 0.01 0.64 -0.77 0.01
1 6.95 695 -0.158 -9.170 2.490 7.813 -14.404 5.890 149.902 989.955 4334.126 -0.101 -0.476 -0.779 0.01 0.64 -0.77 0.01
1 6.96 696 0.153 -8.868 2.701 4.974 -22.644 17.517 89.941 989.955 4334.126 -0.421 -0.774 -0.972 0.01 0.64 -0.77 0.01
1 6.97 697 0.627 -8.251 2.983 -2.563 -22.400 20.660 89.941 989.955 4334.126 -0.912 -1.389 -1.241 0.01 0.64 -0.77 0.02
1 6.98 698 0.824 -7.954 2.940 -7.141 -20.050 20.722 29.980 1124.867 4379.097 -1.130 -1.686 -1.203 0.01 0.64 -0.77 0.02
1 6.99 699 1.121 -7.710 3.251 -10.712 -12.451 21.423 134.912 1124.867 4409.078 -1.451 -1.932 -1.526 0.01 0.64 -0.77 0.02
1 7.00 700 1.274 -7.576 3.122 -9.308 -7.568 22.522 374.906 1289.910 4364.107 -1.629 -2.068 -1.413 0.01 0.64 -0.77 0.02
1 7.01 701 1.326 -7.844 2.959 -13.306 -1.434 20.142 374.906 1289.910 4364.107 -1.710 -1.801 -1.264 0.01 0.64 -0.77 0.02
1 7.02 702 1.111 -8.131 2.696 -20.966 4.364 14.160 -14.990 1214.958 4439.058 -1.522 -1.516 -1.019 0.01 0.64 -0.76 0.02
1 7.03 703 0.857 -8.931 2.672 -39.124 13.306 6.439 149.902 944.984 4469.039 -1.299 -0.727 -1.066 0.01 0.65 -0.76 0.02
1 7.04 704 0.800 -9.620 2.591 -42.755 16.632 0.610 149.902 944.984 4469.039 -1.240 -0.046 -1.038 0.01 0.65 -0.76 0.02
1 7.05 705 0.546 -10.142 2.490 -33.173 17.883 -4.944 194.873 1094.887 4364.107 -0.978 0.467 -0.994 0.01 0.65 -0.76 0.02
1 7.06 706 0.278 -10.626 2.586 -14.282 15.961 -8.392 179.883 1124.867 4484.029 -0.695 0.944 -1.127 0.01 0.65 -0.76 0.02
1 7.07 707 -0.077 -10.348 2.677 7.050 15.228 -10.651 224.854 1169.988 4619.091 -0.328 0.663 -1.234 0.01 0.65 -0.76 0.02
1 7.08 708 -0.345 -9.869 2.346 9.186 14.771 -12.939 224.854 1169.988 4619.091 -0.045 0.185 -0.895 0.01 0.65 -0.76 0.02
1 7.09 709 -0.417 -9.692 2.140 4.669 11.353 -12.909 239.994 1349.871 4589.110 0.045 0.010 -0.670 0.01 0.65 -0.76 0.01
1 7.10 710 -0.067 -9.477 1.911 -3.326 3.845 -8.606 134.912 1199.968 4529.000 -0.267 -0.205 -0.427 0.01 0.65 -0.76 0.01
1 7.11 711 0.206 -9.563 2.050 -4.852 1.587 -3.784 134.912 1199.968 4529.000 -0.525 -0.119 -0.568 0.01 0.65 -0.76 0.01
1 7.12 712 0.522 -9.515 2.193 -3.845 0.702 0.214 194.873 1094.887 4439.058 -0.830 -0.168 -0.714 0.01 0.65 -0.76 0.01
1 7.13 713 0.642 -9.453 2.102 -3.448 1.587 -0.763 194.873 1094.887 4439.058 -0.941 -0.231 -0.625 0.01 0.65 -0.76 0.01
1 7.14 714 0.867 -9.486 2.169 -2.960 2.197 -3.998 134.912 1124.867 4559.130 -1.155 -0.198 -0.693 0.01 0.65 -0.76 0.01
1 7.15 715 0.589 -9.630 2.155 -0.702 1.953 -5.493 134.912 1124.867 4559.130 -0.861 -0.055 -0.679 0.01 0.65 -0.76 0.01
1 7.16 716 0.364 -9.730 1.987 1.465 1.709 -5.829 224.854 1319.890 4499.019 -0.620 0.046 -0.509 0.01 0.65 -0.76 0.01
1 7.17 717 0.115 -9.788 2.011 6.653 3.021 -2.960 209.863 1274.919 4529.000 -0.343 0.105 -0.520 0.01 0.65 -0.76 0
1 7.18 718 -0.019 -9.706 1.853 8.362 3.815 -0.458 209.863 1274.919 4529.000 -0.202 0.025 -0.349 0.01 0.65 -0.76 0
1 7.19 719 -0.129 -9.539 1.748 11.169 3.326 -0.458 44.971 1169.988 4544.140 -0.089 -0.140 -0.228 0.01 0.65 -0.76 0
1 7.20 720 -0.115 -9.184 1.796 14.221 2.167 0.397 44.971 1169.988 4544.140 -0.101 -0.492 -0.257 0.01 0.65 -0.76 0
1 7.21 721 0.172 -9.036 1.762 15.717 0.610 -0.427 149.902 1169.988 4499.019 -0.386 -0.636 -0.201 0.01 0.65 -0.76 0
1 7.22 722 0.306 -9.017 1.810 15.015 1.007 -0.458 149.902 1169.988 4499.019 -0.515 -0.652 -0.224 0.01 0.65 -0.76 0
1 7.23 723 0.369 -8.892 1.767 13.672 2.167 0.000 224.854 1094.887 4499.019 -0.571 -0.772 -0.157 0.01 0.65 -0.76 0
1 7.24 724 0.503 -8.787 1.642 12.360 5.737 1.556 314.945 1079.896 4274.016 -0.693 -0.871 0.010 0.01 0.64 -0.76 0
1 7.25 725 0.613 -8.734 1.619 11.963 6.348 0.549 314.945 1079.896 4274.016 -0.799 -0.920 0.053 0.01 0.64 -0.77 0
1 7.26 726 0.618 -8.739 1.652 10.315 6.378 0.031 224.854 1244.939 4394.087 -0.797 -0.913 0.036 -0.01 -0.64 0.77 0
1 7.27 727 0.814 -8.792 1.619 6.409 7.202 -0.366 224.854 1244.939 4394.087 -0.986 -0.858 0.083 -0.01 -0.64 0.77 0
1 7.28 728 0.752 -8.912 1.575 0.854 8.209 -1.617 284.964 1049.916 4409.078 -0.916 -0.737 0.133 -0.01 -0.64 0.77 0
1 7.29 729 0.613 -8.787 1.245 0.336 8.545 -3.571 284.964 1049.916 4409.078 -0.768 -0.861 0.465 -0.01 -0.64 0.77 0
1 7.30 730 0.450 -8.888 1.192 0.793 8.270 -3.357 134.912 1229.949 4379.097 -0.595 -0.761 0.515 -0.01 -0.64 0.77 0
1 7.31 731 0.431 -8.864 1.025 -0.275 7.660 -3.784 104.932 1004.945 4379.097 -0.566 -0.786 0.680 -0.01 -0.64 0.77 0.01
1 7.32 732 0.350 -8.706 0.910 -5.188 7.629 -3.479 104.932 1004.945 4379.097 -0.467 -0.946 0.785 -0.01 -0.64 0.77 0.01
1 7.33 733 0.417 -8.892 0.828 -9.094 8.972 -3.082 269.974 1139.857 4439.058 -0.526 -0.762 0.854 -0.01 -0.64 0.77 0.01
1 7.34 734 0.594 -8.720 0.733 -11.902 10.254 -1.953 269.974 1139.857 4439.058 -0.698 -0.937 0.932 -0.01 -0.64 0.76 0.01
1 7.35 735 0.752 -9.017 0.709 -14.008 11.993 -0.366 104.932 1124.867 4409.078 -0.851 -0.644 0.933 -0.01 -0.64 0.76 0.01
1 7.36 736 0.685 -9.505 0.766 -15.533 13.458 -4.089 104.932 1124.867 4409.078 -0.779 -0.160 0.847 -0.02 -0.65 0.76 0.01
1 7.37 737 0.915 -9.826 1.015 -8.881 9.949 -2.625 149.902 1214.958 4394.087 -1.000 0.155 0.569 -0.02 -0.65 0.76 0.01
1 7.38 738 1.121 -9.821 1.494 -0.977 10.620 -3.326 419.876 1199.968 4454.048 -1.194 0.147 0.068 -0.02 -0.65 0.76 0.01
1 7.39 739 0.881 -9.558 1.508 2.136 18.402 -5.219 419.876 1199.968 4454.048 -0.927 -0.117 0.049 -0.02 -0.65 0.76 0.02
1 7.40 740 -0.005 -9.592 1.350 1.129 23.041 -7.538 329.935 1094.887 4394.087 -0.030 -0.084 0.208 -0.02 -0.65 0.76 0.02
1 7.41 741 -0.460 -9.821 1.015 -1.312 20.996 -6.561 329.935 1094.887 4394.087 0.433 0.146 0.541 -0.02 -0.65 0.76 0.02
1 7.42 742 -0.599 -9.726 0.800 -4.334 8.850 -8.179 389.896 1274.919 4379.097 0.574 0.049 0.748 -0.02 -0.65 0.76 0.02
1 7.43 743 0.345 -10.257 1.326 -6.958 -3.510 -20.142 329.935 1169.988 4439.058 -0.355 0.578 0.209 -0.02 -0.65 0.76 0.02
1 7.44 744 1.073 -10.468 1.312 -5.829 -3.326 -18.372 209.863 1154.848 4559.130 -1.050 0.787 0.210 -0.02 -0.65 0.76 0.02
1 7.45 745 1.226 -10.822 1.063 1.099 2.014 -10.284 284.964 1274.919 4454.048 -1.166 1.139 0.447 -0.02 -0.65 0.76 0.02
1 7.46 746 1.504 -10.267 0.608 11.353 7.813 -2.899 284.964 1274.919 4454.048 -1.405 0.585 0.906 -0.02 -0.65 0.76 0.03
1 7.47 747 1.336 -9.745 0.335 17.944 16.357 1.587 149.902 1214.958 4574.120 -1.227 0.065 1.194 -0.02 -0.65 0.76 0.03
1 7.48 748 1.188 -9.496 0.220 12.482 14.832 0.214 149.902 1214.958 4574.120 -1.074 -0.181 1.325 -0.02 -0.65 0.76 0.03
1 7.49 749 1.049 -9.381 0.546 2.502 9.369 -6.561 299.955 1319.890 4334.126 -0.926 -0.295 1.004 -0.02 -0.65 0.76 0.03
1 7.50 750 1.034 -9.836 1.834 -11.353 -3.418 -14.557 284.964 1154.848 4274.016 -0.892 0.159 -0.291 -0.02 -0.65 0.76 0.03
1 7.51 751 0.939 -10.631 2.605 -17.059 -10.773 -21.515 209.863 1154.848 4379.097 -0.769 0.952 -1.076 -0.02 -0.65 0.76 0.03
1 7.52 752 0.527 -12.129 2.911 -22.156 -10.101 -28.595 299.955 1319.890 4469.039 -0.320 2.448 -1.404 -0.01 -0.65 0.76 0.03
1 7.53 753 0.350 -13.298 2.749 -26.642 -4.456 -37.842 299.955 1319.890 4469.039 -0.098 3.613 -1.273 -0.01 -0.65 0.76 0.03
1 7.54 754 0.335 -13.365 1.475 -4.517 9.827 -21.423 209.863 1199.968 4379.097 0.024 3.673 -0.067 -0.01 -0.65 0.76 0.04
1 7.55 755 0.642 -12.714 0.824 18.707 15.045 -9.552 209.863 1199.968 4379.097 -0.256 3.023 0.586 -0.01 -0.65 0.76 0.04
1 7.56 756 1.077 -11.387 0.551 34.332 15.350 -5.890 89.941 1364.861 4394.087 -0.682 1.702 0.893 -0.01 -0.65 0.76 0.04
1 7.57 757 0.977 -10.439 0.886 29.114 19.745 -10.559 239.994 1124.867 4244.035 -0.570 0.762 0.610 -0.01 -0.65 0.76 0.04
1 7.58 758 0.694 -9.841 1.370 11.475 15.625 -5.249 -44.971 1244.939 4364.107 -0.273 0.170 0.160 -0.01 -0.65 0.76 0.04
1 7.59 759 0.728 -9.831 1.815 -3.571 6.714 -18.860 0.000 1124.867 4349.117 -0.300 0.164 -0.266 -0.01 -0.65 0.76 0.04
1 7.60 760 1.087 -11.287 2.634 -15.625 0.824 -28.565 0.000 1124.867 4349.117 -0.592 1.620 -1.102 -0.01 -0.65 0.76 0.05
1 7.61 761 0.943 -11.991 2.840 -18.616 1.373 -24.445 104.932 1304.900 4199.064 -0.407 2.322 -1.336 -0 -0.65 0.76 0.05
1 7.62 762 0.488 -11.794 2.868 -6.744 6.256 -10.071 104.932 1304.900 4199.064 0.077 2.124 -1.385 -0 -0.65 0.76 0.05
1 7.63 763 0.431 -10.659 2.959 8.667 5.524 -11.231 119.922 1244.939 4334.126 0.149 0.989 -1.481 -0 -0.65 0.76 0.05
1 7.64 764 -0.369 -9.821 3.189 23.895 8.667 -0.153 239.994 1199.968 4349.117 0.965 0.155 -1.693 -0 -0.65 0.76 0.05
1 7.65 765 -0.963 -9.184 3.041 24.902 6.317 5.157 14.990 1394.991 4439.058 1.557 -0.475 -1.499 -0 -0.65 0.76 0.05
1 7.66 766 -1.355 -8.648 3.012 22.217 2.197 7.874 104.932 1304.900 4274.016 1.933 -1.005 -1.421 -0 -0.65 0.76 0.05
1 7.67 767 -1.135 -8.672 3.247 13.580 -2.380 4.272 104.932 1304.900 4274.016 1.690 -0.974 -1.610 -0.01 -0.65 0.76 0.05
1 7.68 768 -0.771 -8.576 3.170 4.517 1.373 8.423 14.990 1289.910 4289.006 1.291 -1.062 -1.474 -0.01 -0.64 0.76 0.05
1 7.69 769 -0.599 -8.576 3.113 3.479 7.233 7.599 14.990 1289.910 4289.006 1.100 -1.060 -1.399 -0.01 -0.64 0.76 0.05
1 7.70 770 -0.632 -8.284 2.940 5.890 10.742 3.571 59.961 1304.900 4244.035 1.115 -1.349 -1.209 -0.01 -0.64 0.77 0.05
1 7.71 771 -0.905 -8.203 2.768 9.369 10.284 -1.709 209.863 1154.848 4304.146 1.384 -1.429 -1.026 -0.01 -0.64 0.77 0.05
1 7.72 772 -1.393 -8.141 2.557 0.153 1.312 -8.606 269.974 1214.958 4334.126 1.877 -1.489 -0.803 -0.01 -0.64 0.77 0.05
1 7.73 773 -1.657 -8.500 2.385 -10.407 -6.805 -7.568 299.955 1169.988 4394.087 2.153 -1.129 -0.627 -0.01 -0.64 0.77 0.05
1 7.74 774 -1.695 -9.041 2.466 -19.226 -13.702 -3.296 299.955 1169.988 4394.087 2.191 -0.588 -0.714 -0.01 -0.64 0.77 0.05
1 7.75 775 -1.523 -9.668 2.471 -22.278 -20.233 6.531 -29.980 1154.848 4244.035 2.003 0.029 -0.769 -0.01 -0.64 0.76 0.05
1 7.76 776 -1.302 -9.783 2.557 -16.754 -20.996 12.299 -29.980 1154.848 4244.035 1.763 0.138 -0.882 -0.01 -0.64 0.76 0.04
1 7.77 777 -0.737 -9.979 2.557 -8.240 -22.430 16.571 59.961 1229.949 4304.146 1.174 0.330 -0.900 -0.01 -0.64 0.76 0.04
1 7.78 778 -0.168 -9.639 2.591 -2.594 -20.844 16.998 89.941 1244.939 4469.039 0.579 -0.012 -0.939 -0.01 -0.64 0.76 0.04
1 7.79 779 0.091 -9.390 2.600 -0.427 -14.465 19.440 59.961 1304.900 4454.048 0.300 -0.261 -0.946 -0.01 -0.64 0.76 0.04
1 7.80 780 0.077 -9.180 2.322 -2.411 -8.209 21.515 119.922 1319.890 4289.006 0.291 -0.472 -0.663 -0.01 -0.64 0.76 0.04
1 7.81 781 -0.268 -9.165 2.198 -3.357 -3.876 20.294 119.922 1319.890 4289.006 0.607 -0.487 -0.537 -0.01 -0.64 0.76 0.03
1 7.82 782 -0.436 -9.046 2.006 -2.594 -0.702 17.304 89.941 1289.910 4439.058 0.744 -0.608 -0.346 -0.01 -0.64 0.76 0.03
1 7.83 783 -0.991 -9.199 1.887 -1.892 -0.610 15.015 89.941 1289.910 4439.058 1.244 -0.456 -0.227 -0.01 -0.64 0.76 0.03
1 7.84 784 -0.924 -8.940 1.729 -4.395 -3.479 13.702 239.994 1349.871 4484.029 1.148 -0.716 -0.071 -0.01 -0.64 0.76 0.03
1 7.85 785 -0.905 -9.280 1.705 -8.698 -6.561 12.939 179.883 1304.900 4349.117 1.105 -0.378 -0.056 -0.01 -0.64 0.76 0.03
1 7.86 786 -0.302 -9.510 1.930 -13.672 -7.874 13.031 89.941 1244.939 4364.107 0.479 -0.151 -0.296 -0.01 -0.65 0.76 0.03
1 7.87 787 -0.134 -9.639 1.815 -13.550 -7.629 13.519 224.854 1469.942 4364.107 0.292 -0.025 -0.201 -0.01 -0.65 0.76 0.02
1 7.88 788 0.010 -9.678 1.963 -10.773 -4.669 12.146 224.854 1469.942 4364.107 0.130 0.009 -0.369 -0.01 -0.65 0.76 0.02
1 7.89 789 0.014 -9.615 1.858 -5.188 -0.427 12.451 44.971 1394.991 4364.107 0.109 -0.056 -0.279 -0.01 -0.65 0.76 0.02
1 7.90 790 -0.493 -9.433 1.446 1.831 0.885 9.979 44.971 1394.991 4364.107 0.584 -0.240 0.123 -0.01 -0.65 0.76 0.02
1 7.91 791 -0.675 -9.208 1.231 1.740 -2.319 8.759 104.932 1229.949 4454.048 0.750 -0.465 0.340 -0.01 -0.65 0.76 0.02
1 7.92 792 -0.670 -9.299 1.130 -1.678 -7.446 8.392 179.883 1379.851 4379.097 0.729 -0.374 0.439 -0.01 -0.65 0.76 0.02
1 7.93 793 -0.527 -9.400 1.144 -5.127 -11.597 8.881 179.883 1379.851 4379.097 0.572 -0.275 0.418 -0.01 -0.65 0.76 0.02
1 7.94 794 -0.196 -9.524 1.302 -3.510 -12.726 9.918 179.883 1499.923 4349.117 0.229 -0.152 0.249 -0.01 -0.65 0.76 0.02
1 7.95 795 -0.177 -9.635 1.441 1.404 -10.162 10.345 179.883 1499.923 4349.117 0.198 -0.043 0.101 -0.01 -0.65 0.76 0.02
1 7.96 796 -0.230 -9.524 1.331 8.087 -8.392 9.399 269.974 1319.890 4394.087 0.240 -0.154 0.210 -0.01 -0.65 0.76 0.02
1 7.97 797 -0.484 -9.649 1.082 10.254 -7.996 11.963 269.974 1319.890 4394.087 0.467 -0.026 0.478 -0.01 -0.65 0.76 0.01
1 7.98 798 -0.479 -9.299 1.001 9.430 -9.033 9.277 149.902 1319.890 4289.006 0.446 -0.374 0.570 -0.01 -0.65 0.76 0.01
1 7.99 799 -0.402 -9.386 0.963 8.606 -10.071 9.674 239.994 1304.900 4304.146 0.357 -0.286 0.618 -0.01 -0.65 0.76 0.01
1 8.00 800 -0.378 -9.433 1.015 7.233 -9.949 7.172 239.994 1304.900 4304.146 0.322 -0.237 0.572 -0.01 -0.65 0.76 0.01
1 8.01 801 -0.249 -9.467 0.972 5.554 -8.392 3.876 149.902 1289.910 4394.087 0.186 -0.202 0.621 -0.01 -0.65 0.76 0.01
1 8.02 802 -0.397 -9.453 0.996 3.693 -6.012 4.913 149.902 1289.910 4394.087 0.331 -0.216 0.601 -0.01 -0.65 0.76 0.01
1 8.03 803 -0.378 -9.319 1.044 2.594 -6.805 3.418 224.854 1244.939 4259.025 0.306 -0.350 0.555 -0.01 -0.65 0.76 0.01
1 8.04 804 -0.340 -9.156 1.087 -1.221 -5.707 2.014 224.854 1244.939 4259.025 0.261 -0.513 0.508 -0.01 -0.65 0.76 0.01
1 8.05 805 -0.302 -8.912 1.030 -2.686 -6.226 -0.305 194.873 1319.890 4334.126 0.223 -0.758 0.559 -0.01 -0.65 0.76 0.01
1 8.06 806 -0.302 -8.840 1.097 -1.984 -8.148 -11.353 224.854 1364.861 4154.094 0.234 -0.832 0.483 -0.01 -0.65 0.76 0.01
1 8.07 807 -0.230 -8.955 1.125 -2.686 -8.850 -14.679 224.854 1364.861 4154.094 0.183 -0.718 0.448 -0.01 -0.65 0.76 0.01
1 8.08 808 -0.340 -9.122 1.058 -2.289 -9.460 -15.137 224.854 1319.890 4364.107 0.318 -0.552 0.507 -0.01 -0.65 0.76 0.01
1 8.09 809 -0.570 -9.333 1.020 -2.441 -10.559 -13.947 224.854 1319.890 4364.107 0.573 -0.342 0.539 -0.01 -0.65 0.76 0.01
1 8.10 810 -0.757 -9.702 1.231 -3.296 -12.024 -12.634 119.922 1439.962 4289.006 0.782 0.025 0.320 -0.01 -0.65 0.76 0.01
1 8.11 811 -1.087 -9.850 1.350 -4.334 -14.618 -11.444 119.922 1439.962 4289.006 1.131 0.172 0.193 -0.01 -0.65 0.76 0.01
1 8.12 812 -0.910 -10.358 1.815 -2.838 -19.104 -10.895 194.873 1319.890 4289.006 0.984 0.678 -0.288 -0 -0.65 0.76 0.01
1 8.13 813 -0.484 -10.420 1.925 -0.092 -18.768 -8.240 119.922 1319.890 4394.087 0.574 0.740 -0.401 -0 -0.65 0.76 0.01
1 8.14 814 -0.072 -10.382 1.887 4.669 -14.282 -0.366 119.922 1319.890 4394.087 0.174 0.702 -0.360 -0 -0.65 0.76 0.01
1 8.15 815 0.244 -9.778 1.623 8.606 -6.989 9.979 119.922 1439.962 4259.025 -0.141 0.100 -0.087 -0 -0.65 0.76 0.01
1 8.16 816 -0.062 -9.467 1.259 6.317 2.808 22.400 119.922 1439.962 4259.025 0.152 -0.209 0.290 -0 -0.65 0.76 0.01
1 8.17 817 -0.575 -9.457 0.915 5.920 4.425 25.330 59.961 1199.968 4454.048 0.635 -0.218 0.644 -0 -0.65 0.76 0.01
1 8.18 818 -0.723 -9.457 0.666 4.974 3.265 24.109 59.961 1199.968 4454.048 0.744 -0.217 0.897 -0 -0.65 0.76 0.01
1 8.19 819 -1.092 -9.443 0.484 1.587 -0.916 15.961 134.912 1349.871 4379.097 1.038 -0.232 1.077 -0.01 -0.65 0.76 0
1 8.20 820 -1.039 -9.864 0.172 3.113 -4.639 10.895 44.971 1319.890 4289.006 0.959 0.189 1.382 -0.01 -0.65 0.76 0
1 8.21 821 -1.212 -10.157 0.388 3.998 -8.423 8.728 44.971 1319.890 4289.006 1.112 0.480 1.160 -0.01 -0.65 0.76 0
1 8.22 822 -1.235 -10.468 1.212 4.395 -13.458 8.789 239.994 1229.949 4304.146 1.119 0.791 0.334 -0.01 -0.65 0.76 0
1 8.23 823 -1.192 -11.770 2.868 -2.716 -27.588 18.677 104.932 1304.900 4169.084 1.064 2.095 -1.319 0.01 0.65 -0.76 0
1 8.24 824 -0.316 -13.154 3.448 -22.919 -30.853 31.891 194.873 1319.890 4154.094 0.172 3.479 -1.899 0.01 0.65 -0.76 0
1 8.25 825 0.220 -13.978 3.036 -30.090 -16.113 41.535 194.873 1319.890 4154.094 -0.397 4.299 -1.512 0.01 0.65 -0.76 0.01
1 8.26 826 -0.527 -12.723 0.819 8.240 8.423 47.638 44.971 1439.962 4184.074 0.232 3.039 0.654 0.01 0.65 -0.76 0.01
1 8.27 827 -1.269 -10.913 0.417 59.845 19.898 40.405 389.896 1424.972 4244.035 0.902 1.241 1.116 0.01 0.65 -0.76 0.01
1 8.28 828 -1.422 -9.625 0.661 45.654 7.385 27.680 389.896 1424.972 4244.035 0.994 -0.032 0.953 0.02 0.65 -0.76 0.01
1 8.29 829 -1.226 -9.773 0.900 4.364 -10.834 14.679 269.974 1364.861 4214.055 0.756 0.126 0.759 0.02 0.64 -0.76 0.02
1 8.30 830 -0.862 -11.373 0.919 -8.881 -13.031 2.808 329.935 1289.910 4214.055 0.377 1.725 0.731 0.02 0.64 -0.76 0.02
1 8.31 831 -1.097 -11.229 0.742 11.688 -1.312 5.096 209.863 1304.900 4199.064 0.612 1.579 0.893 0.02 0.65 -0.76 0.02
1 8.32 832 -1.269 -10.425 0.469 31.433 3.937 3.265 209.863 1304.900 4199.064 0.782 0.776 1.174 0.02 0.64 -0.76 0.02
1 8.33 833 -1.355 -9.687 0.685 32.623 -0.763 2.991 314.945 1199.968 4274.016 0.860 0.045 0.993 0.02 0.64 -0.77 0.02
1 8.34 834 -0.709 -9.094 1.221 5.341 -17.120 3.082 239.994 1424.972 4169.084 0.200 -0.537 0.522 0.02 0.64 -0.77 0.02
1 8.35 835 -0.057 -9.477 1.638 -6.378 -21.820 2.228 239.994 1424.972 4169.084 -0.448 -0.154 0.106 0.02 0.64 -0.77 0.02
1 8.36 836 0.397 -9.783 2.145 -5.615 -17.029 3.540 239.994 1229.949 4199.064 -0.894 0.151 -0.410 0.02 0.64 -0.77 0.02
1 8.37 837 0.517 -10.070 2.236 2.472 -10.651 6.378 209.863 1274.919 4124.113 -1.007 0.437 -0.503 0.02 0.64 -0.77 0.02
1 8.38 838 0.464 -9.836 2.380 12.848 -7.263 4.181 299.955 1169.988 4109.123 -0.952 0.205 -0.636 0.02 0.64 -0.77 0.02
1 8.39 839 0.263 -9.797 2.447 11.627 -8.118 -2.228 299.955 1169.988 4109.123 -0.746 0.170 -0.681 0.02 0.64 -0.77 0.02
1 8.40 840 0.292 -9.869 2.404 9.033 -10.742 -7.050 104.932 1229.949 4244.035 -0.764 0.245 -0.616 0.02 0.64 -0.77 0.02
1 8.41 841 -0.053 -9.687 2.591 10.773 -9.644 -7.050 269.974 1139.857 4079.143 -0.377 0.068 -0.766 0.01 0.64 -0.77 0.02
1 8.42 842 -0.464 -9.505 2.672 11.169 -6.866 5.554 269.974 1139.857 4079.143 0.049 -0.110 -0.825 0.01 0.64 -0.77 0.02
1 8.43 843 -0.436 -8.849 2.777 8.301 -6.622 13.367 89.941 1244.939 4109.123 0.011 -0.762 -0.909 0.01 0.64 -0.77 0.02
1 8.44 844 -0.546 -8.318 2.964 4.974 -7.690 13.825 179.883 1229.949 4169.084 0.105 -1.289 -1.077 0.01 0.64 -0.77 0.02
1 8.45 845 -0.474 -8.030 3.266 -0.519 -11.169 17.151 194.873 1139.857 4079.143 0.016 -1.572 -1.363 0.01 0.63 -0.77 0.02
1 8.46 846 0.086 -7.858 3.462 -9.064 -18.066 13.031 194.873 1139.857 4079.143 -0.563 -1.744 -1.563 0.01 0.63 -0.77 0.02
1 8.47 847 0.455 -7.973 3.453 -8.789 -18.524 12.665 89.941 1289.910 4079.143 -0.946 -1.631 -1.565 0.01 0.64 -0.77 0.02
1 8.48 848 1.159 -8.145 3.486 -4.425 -10.803 16.968 134.912 1274.919 4244.035 -1.669 -1.460 -1.612 0.01 0.64 -0.77 0.03
1 8.49 849 1.484 -8.141 3.500 -7.141 -3.723 16.754 134.912 1274.919 4244.035 -2.003 -1.463 -1.619 0.01 0.64 -0.77 0.03
1 8.50 850 1.590 -8.332 3.453 -15.778 4.150 16.724 269.974 1289.910 4109.123 -2.115 -1.271 -1.571 0.01 0.64 -0.77 0.03
1 8.51 851 1.542 -8.394 3.390 -23.193 11.231 11.108 149.902 1244.939 4259.025 -2.074 -1.211 -1.523 0.01 0.64 -0.77 0.03
1 8.52 852 1.073 -8.983 3.093 -24.262 19.043 0.641 194.873 1244.939 4154.094 -1.605 -0.627 -1.251 0.01 0.64 -0.77 0.03
1 8.53 853 0.656 -9.295 3.046 -20.874 18.677 -4.120 194.873 1244.939 4154.094 -1.182 -0.321 -1.231 0.01 0.64 -0.77 0.02
1 8.54 854 0.254 -9.548 2.955 -16.388 16.846 -6.012 299.955 1319.890 4259.025 -0.768 -0.073 -1.164 0.02 0.64 -0.77 0.02
1 8.55 855 0.034 -9.754 2.911 -11.322 13.001 -8.698 224.854 1289.910 4184.074 -0.536 0.129 -1.140 0.02 0.64 -0.77 0.02
1 8.56 856 -0.168 -9.788 2.691 -1.587 8.179 -14.648 224.854 1289.910 4184.074 -0.299 0.158 -0.935 0.02 0.64 -0.77 0.02
1 8.57 857 -0.048 -9.773 2.548 4.852 5.157 -14.374 239.994 1274.919 4274.016 -0.394 0.143 -0.786 0.02 0.64 -0.77 0.02
1 8.58 858 0.158 -9.577 2.457 9.003 2.380 -11.292 179.883 1274.919 4124.113 -0.576 -0.052 -0.682 0.02 0.64 -0.77 0.01
1 8.59 859 0.527 -9.060 2.337 9.979 0.488 -10.590 194.873 1289.910 4109.123 -0.922 -0.566 -0.544 0.02 0.64 -0.77 0.01
1 8.60 860 0.733 -8.864 2.294 3.845 1.343 -11.963 194.873 1289.910 4109.123 -1.103 -0.760 -0.482 0.01 0.64 -0.77 0.01
1 8.61 861 0.795 -8.983 2.117 -3.052 4.364 -15.289 239.994 1274.919 4019.032 -1.138 -0.639 -0.293 0.01 0.64 -0.77 0.01
1 8.62 862 0.790 -9.204 2.179 -8.881 7.629 -18.372 314.945 1424.972 4094.133 -1.102 -0.420 -0.354 0.01 0.64 -0.77 0.01
1 8.63 863 0.302 -9.951 1.973 -8.789 10.651 -17.700 314.945 1424.972 4094.133 -0.547 0.321 -0.171 0.01 0.64 -0.77 0
1 8.64 864 0.168 -10.305 1.939 -5.676 11.047 -14.862 209.863 1349.871 4199.064 -0.384 0.672 -0.150 0.01 0.64 -0.77 0
1 8.65 865 0.067 -10.458 1.901 1.770 10.712 -12.024 239.994 1349.871 4244.035 -0.260 0.824 -0.118 0.01 0.64 -0.77 0
1 8.66 866 0.134 -10.157 1.982 12.299 10.651 -8.118 209.863 1274.919 3914.100 -0.309 0.523 -0.195 -0.01 -0.64 0.77 0
1 8.67 867 0.235 -9.716 1.829 22.034 12.116 -4.852 209.863 1274.919 3914.100 -0.397 0.086 -0.021 -0.01 -0.64 0.77 0
1 8.68 868 0.211 -9.544 1.877 22.217 14.587 -1.953 359.916 1379.851 4124.113 -0.364 -0.081 -0.039 -0.01 -0.64 0.77 0
1 8.69 869 0.316 -9.323 1.724 19.104 13.977 -1.953 224.854 1364.861 4109.123 -0.464 -0.295 0.148 -0.01 -0.64 0.77 0
1 8.70 870 0.239 -9.218 1.805 14.252 14.404 -2.838 224.854 1364.861 4109.123 -0.378 -0.391 0.116 -0.01 -0.63 0.77 0.01
1 8.71 871 0.283 -9.151 1.719 14.465 15.045 -1.831 209.863 1304.900 4124.113 -0.416 -0.454 0.222 -0.02 -0.63 0.77 0.01
1 8.72 872 0.354 -9.046 1.738 17.670 14.282 -2.441 194.873 1289.910 4049.012 -0.484 -0.555 0.223 -0.02 -0.63 0.77 0.01
1 8.73 873 0.306 -9.036 1.676 20.020 12.634 -2.380 194.873 1289.910 4049.012 -0.431 -0.560 0.310 -0.02 -0.63 0.78 0.01
1 8.74 874 0.412 -8.902 1.513 17.242 10.071 -2.014 104.932 1229.949 3959.071 -0.531 -0.689 0.499 -0.02 -0.63 0.78 0.01
1 8.75 875 0.546 -8.768 1.499 12.024 10.223 -2.319 239.994 1304.900 4094.133 -0.659 -0.818 0.536 -0.02 -0.63 0.78 0.01
1 8.76 876 0.934 -8.902 1.456 6.805 11.780 -2.686 194.873 1169.988 4004.042 -1.040 -0.680 0.596 -0.02 -0.63 0.78 0.01
1 8.77 877 0.958 -8.844 1.403 1.404 16.602 -1.709 194.873 1169.988 4004.042 -1.045 -0.736 0.657 -0.02 -0.63 0.78 0.01
1 8.78 878 1.168 -8.763 1.240 0.549 20.874 0.885 149.902 1214.958 3974.061 -1.249 -0.818 0.817 -0.02 -0.63 0.78 0.02
1 8.79 879 1.212 -8.600 1.125 1.617 24.841 4.028 269.974 1244.939 3974.061 -1.289 -0.982 0.927 -0.02 -0.63 0.78 0.02
1 8.80 880 1.197 -8.500 0.977 2.197 26.367 6.134 269.974 1244.939 3974.061 -1.287 -1.082 1.077 -0.02 -0.63 0.78 0.02
1 8.81 881 1.365 -8.485 0.843 -0.763 26.337 5.798 194.873 1394.991 4049.012 -1.470 -1.096 1.213 -0.02 -0.63 0.78 0.02
1 8.82 882 1.178 -8.988 1.044 -6.622 23.438 2.380 314.945 1274.919 3959.071 -1.298 -0.593 1.011 -0.02 -0.63 0.78 0.02
1 8.83 883 1.274 -9.204 1.456 -5.432 18.616 0.732 419.876 1304.900 3989.051 -1.395 -0.381 0.584 -0.03 -0.63 0.78 0.02
1 8.84 884 1.202 -9.079 1.949 -3.265 19.928 -0.763 419.876 1304.900 3989.051 -1.312 -0.511 0.067 -0.03 -0.63 0.78 0.02
1 8.85 885 0.833 -9.199 2.337 -2.960 21.729 -1.740 314.945 1079.896 4124.113 -0.935 -0.392 -0.325 -0.03 -0.63 0.78 0.03
1 8.86 886 0.551 -9.252 2.294 -4.974 25.543 -5.066 224.854 1244.939 4049.012 -0.647 -0.340 -0.286 -0.03 -0.63 0.78 0.03
1 8.87 887 -0.077 -9.443 2.059 -7.874 25.513 -7.111 224.854 1244.939 4049.012 -0.012 -0.150 -0.059 -0.03 -0.63 0.78 0.03
1 8.88 888 -0.867 -9.553 1.724 -10.254 16.571 -12.238 404.886 1364.861 4109.123 0.782 -0.043 0.264 -0.03 -0.63 0.77 0.03
1 8.89 889 -1.231 -9.745 1.619 -11.841 8.026 -12.573 539.948 1199.968 4094.133 1.154 0.145 0.352 -0.03 -0.63 0.77 0.03
1 8.90 890 -1.144 -10.315 1.484 -13.397 2.411 -11.719 464.847 1154.848 4169.084 1.077 0.711 0.467 -0.03 -0.63 0.77 0.03
1 8.91 891 -0.690 -10.564 1.355 -10.956 -0.031 -10.376 464.847 1154.848 4169.084 0.634 0.955 0.571 -0.03 -0.63 0.77 0.03
1 8.92 892 -0.048 -10.793 0.996 -1.099 3.479 -6.287 404.886 1319.890 4079.143 0.017 1.178 0.895 -0.03 -0.63 0.77 0.03
1 8.93 893 0.273 -10.564 0.670 3.418 8.026 -2.228 359.916 1304.900 4064.002 -0.295 0.947 1.216 -0.03 -0.63 0.77 0.03
1 8.94 894 0.498 -10.420 0.417 5.737 9.369 4.669 359.916 1304.900 4064.002 -0.518 0.802 1.464 -0.03 -0.63 0.77 0.04
1 8.95 895 0.656 -10.171 0.254 4.974 7.813 10.376 239.994 1379.851 4094.133 -0.681 0.552 1.623 -0.03 -0.64 0.77 0.04
1 8.96 896 1.073 -10.137 0.431 -0.061 4.181 10.468 224.854 1439.962 4109.123 -1.107 0.517 1.438 -0.03 -0.64 0.77 0.04
1 8.97 897 1.355 -10.276 0.795 -4.974 1.282 8.606 509.968 1364.861 4079.143 -1.396 0.654 1.063 -0.03 -0.64 0.77 0.03
1 8.98 898 1.638 -10.310 1.796 -6.744 -2.502 3.784 509.968 1364.861 4079.143 -1.680 0.685 0.046 -0.03 -0.64 0.77 0.03
1 8.99 899 1.834 -10.473 2.816 -12.573 -5.890 -18.677 389.896 1379.851 3914.100 -1.844 0.843 -0.997 -0.03 -0.64 0.77 0.04
1 9.00 900 1.279 -11.306 3.146 -20.020 1.862 -36.408 389.896 1349.871 3959.071 -1.251 1.672 -1.350 -0.03 -0.64 0.77 0.04
1 9.01 901 0.872 -12.417 2.423 -18.524 9.369 -41.138 389.896 1349.871 3959.071 -0.786 2.777 -0.658 -0.03 -0.64 0.77 0.04
1 9.02 902 0.038 -12.876 1.666 -0.610 11.658 -27.039 299.955 1469.942 3929.090 0.103 3.234 0.077 -0.03 -0.64 0.77 0.04
1 9.03 903 -0.005 -11.751 1.465 18.646 3.845 -15.198 269.974 1214.958 4049.012 0.181 2.110 0.283 -0.02 -0.64 0.77 0.04
1 9.04 904 0.019 -10.702 1.820 12.726 6.714 -15.198 449.857 1439.962 4154.094 0.183 1.066 -0.046 -0.02 -0.64 0.77 0.04
1 9.05 905 -0.469 -10.305 1.992 1.556 10.773 -12.329 449.857 1439.962 4154.094 0.694 0.673 -0.197 -0.02 -0.64 0.77 0.05
1 9.06 906 -0.694 -9.951 2.045 -3.326 2.960 -19.043 194.873 1364.861 3899.110 0.951 0.321 -0.245 -0.02 -0.64 0.77 0.05
1 9.07 907 -0.306 -10.525 2.212 -13.580 -11.444 -39.551 269.974 1394.991 4079.143 0.607 0.894 -0.425 -0.02 -0.64 0.77 0.05
1 9.08 908 0.053 -10.746 2.131 -9.766 -14.282 -38.422 269.974 1394.991 4079.143 0.311 1.113 -0.364 -0.02 -0.64 0.77 0.05
1 9.09 909 0.297 -10.487 2.102 -1.862 -14.893 -25.086 224.854 1439.962 4079.143 0.125 0.854 -0.348 -0.02 -0.64 0.77 0.05
1 9.10 910 0.575 -9.572 2.538 1.556 -12.787 -8.179 224.854 1364.861 4049.012 -0.114 -0.059 -0.785 -0.01 -0.64 0.77 0.05
1 9.11 911 0.498 -9.036 2.648 0.549 -9.918 -0.916 209.863 1379.851 4124.113 -0.016 -0.593 -0.890 -0.01 -0.64 0.77 0.05
1 9.12 912 0.086 -8.461 2.883 7.660 -8.637 -1.099 209.863 1379.851 4124.113 0.404 -1.166 -1.118 -0.01 -0.64 0.77 0.05
1 9.13 913 -0.230 -7.834 2.916 15.808 -9.216 -0.702 194.873 1319.890 4109.123 0.724 -1.790 -1.136 -0.01 -0.64 0.77 0.05
1 9.14 914 -0.536 -7.743 3.218 18.738 -12.116 0.122 89.941 1439.962 4049.012 1.042 -1.872 -1.392 -0.01 -0.64 0.77 0.05
1 9.15 915 -0.488 -7.719 3.290 12.512 -10.254 5.157 89.941 1439.962 4049.012 0.997 -1.891 -1.440 -0.01 -0.64 0.77 0.05
1 9.16 916 -0.182 -7.781 3.232 7.996 -7.660 3.510 269.974 1394.991 3974.061 0.689 -1.826 -1.367 -0.01 -0.64 0.77 0.05
1 9.17 917 -0.201 -8.165 3.328 5.188 -3.174 1.190 209.863 1499.923 3959.071 0.707 -1.441 -1.454 -0.01 -0.64 0.77 0.05
1 9.18 918 -0.364 -8.265 3.390 -1.129 -1.953 -7.660 134.912 1454.952 4094.133 0.873 -1.339 -1.510 -0.01 -0.64 0.77 0.05
1 9.19 919 -0.608 -8.624 3.242 -8.667 -4.547 -13.275 134.912 1454.952 4094.133 1.123 -0.978 -1.349 -0.01 -0.64 0.77 0.05
1 9.20 920 -0.646 -9.280 3.213 -18.097 -8.911 -14.069 119.922 1439.962 4004.042 1.173 -0.321 -1.319 -0.01 -0.64 0.77 0.05
1 9.21 921 -0.273 -9.807 2.974 -29.175 -13.153 -7.507 119.922 1319.890 3899.110 0.830 0.199 -1.125 -0 -0.64 0.77 0.05
1 9.22 922 -0.048 -9.975 3.050 -28.565 -12.726 -3.632 119.922 1319.890 3899.110 0.615 0.360 -1.239 -0 -0.64 0.77 0.05
1 9.23 923 0.364 -9.864 3.098 -26.978 -9.613 -3.082 179.883 1424.972 3989.051 0.209 0.244 -1.320 -0 -0.64 0.77 0.05
1 9.24 924 0.378 -9.970 3.002 -24.139 -4.486 -4.059 -29.980 1424.972 3914.100 0.203 0.344 -1.255 -0 -0.64 0.77 0.05
1 9.25 925 0.206 -10.056 2.729 -23.468 0.336 -3.723 134.912 1499.923 4094.133 0.382 0.426 -1.009 -0 -0.64 0.77 0.05
1 9.26 926 0.034 -10.133 2.615 -17.059 4.334 -2.380 134.912 1499.923 4094.133 0.558 0.498 -0.921 -0 -0.64 0.76 0.05
1 9.27 927 -0.105 -10.123 2.476 -11.078 5.493 -1.160 104.932 1529.903 3989.051 0.698 0.485 -0.802 -0 -0.64 0.76 0.05
1 9.28 928 -0.474 -10.176 2.471 -9.827 7.080 0.427 104.932 1499.923 4094.133 1.060 0.534 -0.819 -0 -0.64 0.76 0.05
1 9.29 929 -0.623 -10.420 2.246 -13.458 6.653 4.272 104.932 1499.923 4094.133 1.199 0.775 -0.605 -0 -0.65 0.76 0.05
1 9.30 930 -0.881 -10.559 2.083 -17.090 4.364 6.958 149.902 1619.995 4049.012 1.446 0.910 -0.463 -0 -0.65 0.76 0.05
1 9.31 931 -1.058 -10.803 1.915 -13.550 2.441 10.651 149.902 1619.995 4049.012 1.613 1.150 -0.320 -0 -0.65 0.76 0.05
1 9.32 932 -0.982 -10.760 1.662 0.031 0.214 16.022 -14.990 1514.913 4004.042 1.521 1.103 -0.085 -0 -0.65 0.76 0.05
1 9.33 933 -0.804 -10.224 1.528 6.775 -0.854 17.578 -14.990 1514.913 4004.042 1.323 0.565 0.045 -0 -0.65 0.76 0.05
1 9.34 934 -0.555 -9.936 1.571 9.888 -3.021 18.982 134.912 1604.854 4304.146 1.041 0.277 0.009 -0 -0.65 0.76 0.04
1 9.35 935 -0.407 -9.702 1.355 10.559 -4.028 19.562 0.000 1574.874 4199.064 0.859 0.042 0.237 -0.01 -0.65 0.76 0.04
1 9.36 936 -0.230 -9.544 1.475 8.575 -3.204 20.020 0.000 1574.874 4199.064 0.619 -0.114 0.143 -0.01 -0.65 0.76 0.04
1 9.37 937 -0.263 -9.400 1.336 8.240 -0.641 21.057 44.971 1469.942 4079.143 0.621 -0.257 0.292 -0.01 -0.65 0.76 0.04
1 9.38 938 -0.532 -9.371 1.298 7.690 -0.458 20.416 44.971 1469.942 4079.143 0.856 -0.286 0.340 -0.01 -0.65 0.76 0.04
1 9.39 939 -0.632 -9.472 1.235 9.003 -2.441 18.402 89.941 1364.861 4049.012 0.923 -0.185 0.410 -0.01 -0.64 0.76 0.03
1 9.40 940 -0.733 -9.376 1.226 11.322 -7.233 19.318 89.941 1364.861 4049.012 0.992 -0.280 0.430 -0.01 -0.64 0.76 0.03
1 9.41 941 -0.570 -9.410 1.355 11.627 -7.507 20.355 299.955 1469.942 3974.061 0.797 -0.245 0.313 -0.01 -0.64 0.76 0.03
1 9.42 942 -0.469 -9.113 1.336 12.543 -9.003 21.393 209.863 1454.952 4019.032 0.665 -0.540 0.347 -0.01 -0.64 0.76 0.03
1 9.43 943 -0.340 -9.089 1.413 13.733 -9.491 22.705 209.863 1454.952 4019.032 0.471 -0.559 0.302 -0.01 -0.64 0.77 0.03
1 9.44 944 -0.316 -8.979 1.250 13.062 -11.383 21.179 134.912 1529.903 4169.084 0.415 -0.667 0.482 -0.01 -0.64 0.77 0.02
1 9.45 945 -0.388 -9.026 1.240 13.153 -12.848 18.463 134.912 1529.903 4169.084 0.458 -0.616 0.507 -0.01 -0.64 0.77 0.02
1 9.46 946 -0.498 -9.338 1.240 11.688 -14.496 17.792 149.902 1469.942 4049.012 0.544 -0.302 0.522 -0.01 -0.64 0.77 0.02
1 9.47 947 -0.642 -9.309 1.571 9.979 -15.442 16.235 149.902 1469.942 4049.012 0.664 -0.329 0.204 -0.01 -0.64 0.77 0.02
1 9.48 948 -0.666 -9.462 1.551 9.766 -14.435 13.275 209.863 1604.854 4019.032 0.665 -0.173 0.236 -0.01 -0.64 0.77 0.02
1 9.49 949 -0.560 -9.524 1.729 10.376 -12.756 11.200 104.932 1529.903 4064.002 0.540 -0.109 0.072 -0.01 -0.64 0.77 0.02
1 9.50 950 -0.666 -9.443 1.647 11.414 -11.322 9.674 104.932 1529.903 4064.002 0.616 -0.185 0.181 -0.01 -0.64 0.77 0.01
1 9.51 951 -0.675 -9.204 1.580 13.855 -10.864 6.561 134.912 1454.952 4094.133 0.613 -0.421 0.264 -0.01 -0.64 0.77 0.01
1 9.52 952 -0.867 -8.739 1.504 15.320 -11.108 4.211 134.912 1454.952 4094.133 0.797 -0.882 0.359 -0.01 -0.64 0.77 0.01
1 9.53 953 -0.747 -8.390 1.283 11.810 -13.184 1.404 179.883 1574.874 4019.032 0.675 -1.228 0.600 -0.01 -0.64 0.77 0.01
1 9.54 954 -0.666 -8.327 0.958 3.662 -20.966 -4.303 194.873 1514.913 4049.012 0.600 -1.287 0.940 -0.01 -0.63 0.77 0.01
1 9.55 955 -0.488 -8.782 0.867 -1.984 -25.482 -4.608 179.883 1454.952 3839.149 0.436 -0.831 1.038 -0.01 -0.63 0.77 0.01
1 9.56 956 -0.517 -9.381 1.015 -3.815 -27.496 -3.571 149.902 1469.942 3974.061 0.479 -0.233 0.885 -0.01 -0.63 0.77 0.01
1 9.57 957 -0.584 -9.917 1.753 -2.228 -27.527 -2.228 149.902 1469.942 3974.061 0.569 0.299 0.126 -0.01 -0.64 0.77 0.01
1 9.58 958 -0.666 -9.912 2.097 2.289 -24.323 -0.031 14.990 1469.942 4049.012 0.658 0.294 -0.221 -0 -0.64 0.77 0
1 9.59 959 -0.551 -9.898 2.342 2.899 -21.454 0.427 14.990 1469.942 4049.012 0.547 0.280 -0.460 -0 -0.64 0.77 0
1 9.60 960 -0.091 -10.195 2.164 2.472 -17.548 9.674 104.932 1499.923 4019.032 0.089 0.578 -0.277 -0 -0.64 0.77 0
1 9.61 961 0.551 -9.659 1.872 10.925 -6.592 20.142 29.980 1499.923 3989.051 -0.563 0.043 0.020 -0 -0.64 0.77 0
1 9.62 962 0.579 -9.012 1.695 16.296 4.639 18.829 29.980 1454.952 3959.071 -0.612 -0.601 0.210 0 0.63 -0.77 0
1 9.63 963 0.053 -8.830 1.269 14.160 13.855 19.959 44.971 1514.913 4109.123 -0.107 -0.779 0.657 0 0.63 -0.77 0
1 9.64 964 -0.685 -8.849 0.517 2.014 6.226 8.759 44.971 1514.913 4109.123 0.578 -0.753 1.438 0.01 0.63 -0.77 0
1 9.65 965 -0.565 -9.175 0.259 -1.099 -0.153 2.960 239.994 1574.874 3989.051 0.446 -0.429 1.687 0.01 0.63 -0.77 0
1 9.66 966 -0.326 -9.486 0.230 -5.859 -13.092 -13.611 239.994 1574.874 3989.051 0.217 -0.122 1.697 0.01 0.63 -0.77 0
1 9.67 967 -0.091 -9.750 0.412 -5.096 -14.038 -18.341 179.883 1304.900 4094.133 0.009 0.137 1.494 0 0.63 -0.77 0
1 9.68 968 -0.192 -10.224 0.254 -3.998 -10.040 -9.247 179.883 1499.923 3884.120 0.141 0.607 1.633 0 0.64 -0.77 0
1 9.69 969 -0.330 -10.037 0.326 -2.197 -9.857 -11.078 29.980 1349.871 3839.149 0.299 0.416 1.541 -0 -0.64 0.77 0
1 9.70 970 -0.469 -10.070 0.350 -2.930 -9.308 -14.221 179.883 1499.923 4019.032 0.456 0.447 1.501 -0 -0.64 0.77 0
1 9.71 971 -0.713 -10.353 0.512 -6.744 -8.514 -10.620 179.883 1499.923 4019.032 0.722 0.726 1.322 -0 -0.64 0.77 0
1 9.72 972 -1.034 -10.707 1.135 -7.721 -11.475 -1.801 0.000 1349.871 3914.100 1.067 1.073 0.658 0 -0.64 0.77 0
1 9.73 973 -1.245 -10.971 2.284 -7.111 -15.717 7.813 0.000 1349.871 3914.100 1.283 1.334 -0.504 0 -0.64 0.77 0
1 9.74 974 -1.298 -11.694 3.160 -10.254 -21.759 23.010 -104.932 1379.851 4064.002 1.326 2.055 -1.392 -0 0.64 -0.77 0
1 9.75 975 -0.891 -12.757 3.342 -19.867 -23.132 38.483 44.971 1469.942 4079.143 0.887 3.114 -1.593 -0 0.64 -0.77 0
1 9.76 976 -0.239 -13.188 1.743 -5.829 -5.890 49.011 44.971 1589.864 4079.143 0.183 3.540 -0.025 -0 0.64 -0.77 0.01
1 9.77 977 -0.259 -11.938 0.910 23.926 5.920 36.163 179.883 1529.903 4019.032 0.136 2.287 0.791 0 0.64 -0.77 0.01
1 9.78 978 -0.915 -10.722 0.527 40.466 8.514 16.235 179.883 1529.903 4019.032 0.733 1.076 1.198 0 0.64 -0.77 0.01
1 9.79 979 -1.202 -10.386 0.929 12.573 -14.862 3.784 -14.990 1664.965 4049.012 0.968 0.758 0.881 0.01 0.64 -0.77 0.01
1 9.80 980 -0.623 -10.870 2.188 -5.005 -34.515 1.373 -14.990 1664.965 4049.012 0.387 1.242 -0.373 0 0.64 -0.77 0.01
1 9.81 981 -0.101 -11.569 3.208 -8.118 -33.234 12.848 89.941 1439.962 4109.123 -0.128 1.940 -1.402 0 0.64 -0.77 0.02
1 9.82 982 0.177 -11.665 3.309 0.824 -13.763 21.668 194.873 1439.962 3974.061 -0.419 2.034 -1.512 0 0.64 -0.77 0.02
1 9.83 983 -0.953 -10.492 2.289 23.132 7.172 21.729 89.941 1439.962 4214.055 0.682 0.863 -0.485 0 0.64 -0.77 0.02
1 9.84 984 -1.384 -9.410 1.690 28.259 -1.495 7.599 89.941 1514.913 4004.042 1.077 -0.212 0.143 0 0.64 -0.77 0.02
1 9.85 985 -0.972 -9.084 1.642 18.433 -21.240 -6.928 89.941 1514.913 4004.042 0.642 -0.530 0.231 0.01 0.64 -0.77 0.02
1 9.86 986 0.206 -9.548 2.504 -1.740 -37.689 -9.064 179.883 1604.854 4094.133 -0.504 -0.058 -0.588 0 0.63 -0.77 0.02
1 9.87 987 0.594 -9.850 3.036 2.319 -33.020 4.852 179.883 1604.854 4094.133 -0.866 0.244 -1.115 -0 0.63 -0.77 0.02
1 9.88 988 0.651 -9.362 3.242 13.397 -22.522 13.825 194.873 1544.894 3974.061 -0.917 -0.241 -1.305 -0 0.63 -0.77 0.02
1 9.89 989 0.239 -8.639 3.165 22.553 -15.686 16.571 -29.980 1454.952 4064.002 -0.512 -0.957 -1.194 -0 0.63 -0.77 0.02
1 9.90 990 -0.235 -8.145 2.605 24.262 -15.076 15.686 -14.990 1319.890 4049.012 -0.052 -1.441 -0.590 -0 0.63 -0.78 0.03
1 9.91 991 0.005 -7.638 2.418 15.259 -25.391 15.991 134.912 1454.952 3884.120 -0.307 -1.941 -0.369 -0 0.63 -0.78 0.03
1 9.92 992 0.187 -7.489 2.639 10.223 -30.121 22.766 134.912 1454.952 3884.120 -0.503 -2.083 -0.564 -0 0.63 -0.78 0.03
1 9.93 993 0.613 -7.159 2.729 4.486 -29.541 29.541 29.980 1529.903 3914.100 -0.949 -2.409 -0.638 -0 0.63 -0.78 0.03
1 9.94 994 1.298 -7.039 3.055 -3.479 -20.996 29.968 29.980 1529.903 3914.100 -1.698 -2.524 -0.951 -0 0.63 -0.78 0.04
1 9.95 995 1.681 -7.413 3.060 -14.771 -13.001 24.994 -14.990 1514.913 3899.110 -2.115 -2.151 -0.964 -0 0.63 -0.78 0.04
1 9.96 996 1.628 -7.997 2.907 -29.053 -6.104 16.724 44.971 1439.962 4049.012 -2.090 -1.571 -0.838 -0 0.63 -0.78 0.04
1 9.97 997 1.298 -9.094 2.969 -42.938 -0.732 8.881 0.000 1454.952 3989.051 -1.769 -0.483 -0.944 -0 0.63 -0.78 0.04
1 9.98 998 1.140 -9.553 3.079 -45.899 7.965 1.862 44.971 1439.962 4154.094 -1.606 -0.036 -1.113 -0 0.63 -0.77 0.04
1 9.99 999 0.828 -9.836 3.117 -33.630 13.611 1.617 44.971 1439.962 4154.094 -1.286 0.233 -1.213 -0 0.63 -0.77 0.04
1 10.00 1000 0.441 -9.989 3.065 -17.670 14.191 4.150 -14.990 1439.962 4049.012 -0.892 0.377 -1.208 -0 0.64 -0.77 0.04
1 10.01 1001 0.374 -9.836 2.849 1.160 1.190 -0.458 -14.990 1439.962 4049.012 -0.824 0.218 -1.024 0 0.64 -0.77 0.04
1 10.02 1002 0.623 -9.778 2.806 7.751 -3.174 -5.524 29.980 1604.854 3959.071 -1.061 0.162 -0.969 -0 0.64 -0.77 0.04
1 10.03 1003 1.006 -9.606 2.878 9.430 -0.916 -6.073 29.980 1499.923 4094.133 -1.423 -0.008 -1.023 -0 0.64 -0.77 0.03
1 10.04 1004 1.264 -9.127 2.653 7.233 4.639 -6.470 29.980 1499.923 4019.032 -1.660 -0.484 -0.778 -0 0.64 -0.77 0.03
1 10.05 1005 1.322 -8.950 2.519 3.571 9.399 -6.256 59.961 1499.923 4019.032 -1.696 -0.659 -0.628 -0 0.64 -0.77 0.03
1 10.06 1006 1.264 -8.945 2.361 -5.829 11.200 -9.064 59.961 1499.923 4019.032 -1.618 -0.663 -0.463 -0 0.63 -0.77 0.03
1 10.07 1007 1.001 -9.275 2.322 -12.177 11.871 -11.658 119.922 1469.942 4079.143 -1.332 -0.334 -0.428 -0 0.64 -0.77 0.03
1 10.08 1008 0.326 -9.510 2.375 -17.242 13.306 -14.587 119.922 1469.942 4079.143 -0.603 -0.108 -0.515 -0 0.64 -0.77 0.02
1 10.09 1009 0.163 -9.888 2.265 -13.001 12.817 -15.991 -14.990 1514.913 4184.074 -0.415 0.266 -0.427 -0 0.64 -0.77 0.02
1 10.10 1010 -0.187 -9.864 2.203 -6.531 9.644 -15.350 -104.932 1604.854 4169.084 -0.042 0.238 -0.380 -0 0.64 -0.77 0.02
1 10.11 1011 -0.517 -9.845 2.045 1.190 6.165 -12.756 -104.932 1604.854 4169.084 0.309 0.218 -0.227 -0 0.64 -0.77 0.02
1 10.12 1012 -0.359 -9.505 2.040 9.674 0.885 -7.263 0.000 1499.923 4019.032 0.167 -0.122 -0.216 -0 0.64 -0.77 0.02
1 10.13 1013 -0.096 -9.429 2.184 9.369 0.977 -3.479 0.000 1499.923 4019.032 -0.085 -0.196 -0.347 -0 0.64 -0.77 0.02
1 10.14 1014 0.273 -9.256 2.188 8.240 3.998 -1.801 59.961 1574.874 4169.084 -0.445 -0.365 -0.336 -0 0.64 -0.77 0.02
1 10.15 1015 0.402 -9.252 2.208 6.714 5.676 -1.190 59.961 1574.874 4169.084 -0.566 -0.368 -0.341 -0 0.64 -0.77 0.02
1 10.16 1016 0.441 -9.170 2.193 8.453 8.942 -0.153 14.990 1589.864 4079.143 -0.590 -0.444 -0.301 -0 0.64 -0.77 0.01
1 10.17 1017 0.417 -9.065 2.002 9.308 9.064 0.061 89.941 1589.864 4184.074 -0.562 -0.547 -0.096 -0 0.63 -0.77 0.01
1 10.18 1018 0.417 -9.012 1.963 9.644 8.301 -1.373 89.941 1589.864 4184.074 -0.558 -0.597 -0.043 -0 0.63 -0.77 0.01
