COL1	TIME	ACC_X	ACC_Y	ACC_Z	GYR_X	GYR_Y	GYR_Z	MAG_X	MAG_Y	MAG_Z	LACC_X	LACC_Y	LACC_Z	QUAT_X	QUAT_Y	QUAT_Z	QUAT_W
1 0.00 0 -0.105 -9.204 3.903 -1.678 -2.991 0.732 -123.370 2083.343 -3644.726 0.014 0.097 -0.283 -0.02 0.56 -0.83 0.04
1 0.01 1 -0.125 -9.108 3.783 -1.495 -3.204 0.641 -123.370 2083.343 -3644.726 0.034 0.001 -0.164 -0.02 0.56 -0.83 0.04
1 0.02 2 -0.086 -9.151 3.821 -1.892 -3.357 1.099 -288.562 2217.805 -3687.748 -0.004 0.044 -0.203 -0.02 0.56 -0.83 0.04
1 0.03 3 -0.043 -9.146 3.903 -2.350 -2.808 1.465 -228.451 2202.815 -3672.757 -0.047 0.038 -0.286 -0.02 0.56 -0.83 0.04
1 0.04 4 0.010 -9.141 3.812 -1.831 -2.716 1.801 -228.451 2202.815 -3672.757 -0.101 0.033 -0.197 -0.02 0.56 -0.83 0.04
1 0.05 5 -0.034 -9.208 3.860 -2.014 -3.448 2.655 -108.529 2097.733 -3687.748 -0.059 0.100 -0.246 -0.02 0.56 -0.83 0.04
1 0.06 6 0.067 -9.165 3.783 -1.740 -2.625 2.350 -153.500 2157.844 -3777.839 -0.162 0.055 -0.172 -0.02 0.56 -0.83 0.04
1 0.07 7 0.038 -9.117 3.898 -1.678 -2.960 2.655 -123.520 2277.766 -3822.810 -0.135 0.007 -0.288 -0.02 0.56 -0.83 0.05
1 0.08 8 0.053 -9.094 3.855 -1.831 -2.747 2.075 -123.520 2277.766 -3822.810 -0.150 -0.017 -0.245 -0.02 0.56 -0.83 0.05
1 0.09 9 0.000 -9.161 3.783 -2.350 -3.113 2.106 -153.500 2127.714 -3822.810 -0.098 0.050 -0.174 -0.02 0.56 -0.83 0.05
1 0.10 10 -0.081 -9.204 3.797 -2.045 -2.808 2.686 -198.471 2127.714 -3777.839 -0.017 0.092 -0.190 -0.02 0.56 -0.83 0.05
1 0.11 11 -0.081 -9.074 3.888 -2.930 -3.448 2.228 -198.471 2127.714 -3777.839 -0.019 -0.038 -0.283 -0.02 0.56 -0.83 0.05
1 0.12 12 -0.220 -9.113 3.903 -2.533 -3.906 1.617 -198.471 2127.714 -3747.708 0.118 -0.001 -0.300 -0.02 0.56 -0.83 0.05
1 0.13 13 -0.196 -9.103 3.979 -2.197 -3.571 1.831 -138.510 2172.834 -3612.796 0.094 -0.012 -0.380 -0.03 0.56 -0.83 0.05
1 0.14 14 -0.005 -9.146 3.821 -2.136 -3.937 1.465 -48.568 2202.815 -3777.839 -0.098 0.031 -0.224 -0.03 0.56 -0.83 0.05
1 0.15 15 -0.153 -9.242 3.831 -2.960 -3.754 2.441 -48.568 2202.815 -3777.839 0.050 0.126 -0.235 -0.03 0.56 -0.83 0.05
1 0.16 16 -0.148 -9.218 3.735 -1.892 -3.906 2.441 -303.552 2232.795 -3747.708 0.044 0.101 -0.142 -0.03 0.56 -0.83 0.05
1 0.17 17 -0.048 -9.208 3.888 -2.411 -3.876 1.984 -63.559 2172.834 -3867.780 -0.058 0.091 -0.297 -0.03 0.56 -0.83 0.05
1 0.18 18 0.072 -9.055 3.730 -2.350 -3.113 2.319 -63.559 2172.834 -3867.780 -0.177 -0.063 -0.141 -0.03 0.56 -0.83 0.05
1 0.19 19 0.072 -9.089 3.721 -2.716 -3.387 2.563 -228.451 2007.792 -3702.738 -0.178 -0.030 -0.133 -0.03 0.56 -0.83 0.05
1 0.20 20 0.148 -9.046 3.812 -3.082 -2.747 2.136 -198.471 2202.815 -3702.738 -0.255 -0.075 -0.229 -0.03 0.56 -0.82 0.05
1 0.21 21 0.062 -9.070 3.764 -2.747 -2.899 2.014 -198.471 2277.766 -3642.777 -0.169 -0.052 -0.184 -0.03 0.56 -0.82 0.05
1 0.22 22 0.019 -9.161 3.788 -1.984 -2.533 1.740 -198.471 2277.766 -3642.777 -0.125 0.038 -0.210 -0.03 0.56 -0.82 0.05
1 0.23 23 0.038 -9.194 3.845 -1.862 -2.625 1.556 -273.572 2127.714 -3822.810 -0.144 0.071 -0.269 -0.03 0.56 -0.82 0.05
1 0.24 24 0.010 -9.127 3.797 -2.441 -2.411 2.136 -213.461 2142.704 -3837.800 -0.115 0.003 -0.222 -0.03 0.56 -0.82 0.05
1 0.25 25 -0.034 -9.280 3.773 -2.472 -1.862 1.465 -213.461 2142.704 -3837.800 -0.072 0.156 -0.200 -0.03 0.56 -0.82 0.05
1 0.26 26 0.101 -9.184 3.668 -1.892 -1.740 1.343 -198.471 2052.763 -3822.810 -0.207 0.059 -0.097 -0.03 0.56 -0.82 0.05
1 0.27 27 0.010 -9.007 3.826 -1.831 -1.495 1.282 -198.471 2052.763 -3822.810 -0.116 -0.119 -0.257 -0.03 0.56 -0.82 0.05
1 0.28 28 0.005 -9.137 3.797 -2.350 -1.129 1.526 -288.562 2262.776 -3762.699 -0.112 0.009 -0.230 -0.03 0.56 -0.82 0.05
1 0.29 29 0.077 -9.113 3.840 -2.472 -0.824 1.709 -288.562 2262.776 -3762.699 -0.184 -0.015 -0.275 -0.03 0.56 -0.82 0.05
1 0.30 30 0.024 -9.036 3.726 -2.533 -0.763 1.770 -273.572 2202.815 -3672.757 -0.132 -0.092 -0.161 -0.03 0.56 -0.82 0.05
1 0.31 31 0.067 -9.122 3.802 -2.930 -1.068 2.106 -138.510 2337.727 -3792.829 -0.176 -0.007 -0.240 -0.03 0.56 -0.82 0.05
1 0.32 32 0.139 -9.050 3.831 -2.869 -0.702 1.251 -138.510 2337.727 -3792.829 -0.249 -0.080 -0.271 -0.03 0.56 -0.82 0.05
1 0.33 33 0.177 -9.271 3.764 -3.143 -0.854 0.946 -123.520 2202.815 -3747.708 -0.288 0.140 -0.207 -0.03 0.56 -0.82 0.05
1 0.34 34 -0.038 -9.117 3.654 -2.747 0.214 1.312 -123.520 2202.815 -3747.708 -0.072 -0.015 -0.099 -0.03 0.56 -0.82 0.05
1 0.35 35 0.096 -9.204 3.864 -2.777 -0.183 1.190 -183.480 2142.704 -3732.718 -0.206 0.069 -0.316 -0.03 0.56 -0.82 0.05
1 0.36 36 0.072 -9.199 3.745 -2.411 -0.244 0.946 -183.480 2142.704 -3732.718 -0.182 0.064 -0.199 -0.03 0.56 -0.82 0.05
1 0.37 37 0.014 -9.275 3.740 -2.014 0.031 0.519 -198.471 2202.815 -3597.806 -0.124 0.139 -0.196 -0.03 0.56 -0.82 0.05
1 0.38 38 0.048 -9.175 3.706 -2.350 0.702 -0.122 -153.500 2157.844 -3822.810 -0.157 0.038 -0.164 -0.03 0.56 -0.82 0.05
1 0.39 39 0.220 -9.309 3.816 -2.228 0.702 -0.153 -153.500 2157.844 -3822.810 -0.328 0.171 -0.277 -0.03 0.56 -0.82 0.05
1 0.40 40 0.134 -9.122 3.692 -1.740 0.916 -0.458 -183.480 2022.782 -3762.699 -0.241 -0.016 -0.155 -0.03 0.56 -0.82 0.05
1 0.41 41 0.029 -9.213 3.812 -1.984 0.885 0.183 -183.480 2022.782 -3762.699 -0.134 0.074 -0.276 -0.03 0.56 -0.82 0.05
1 0.42 42 0.043 -9.122 3.778 -2.655 0.092 0.366 -48.568 2052.763 -3777.839 -0.147 -0.018 -0.246 -0.03 0.56 -0.82 0.05
1 0.43 43 0.010 -9.261 3.716 -2.655 0.702 -0.031 -48.568 2052.763 -3777.839 -0.113 0.120 -0.186 -0.03 0.56 -0.82 0.05
1 0.44 44 -0.014 -9.290 3.812 -2.777 0.519 -0.244 -243.441 2217.805 -3762.699 -0.089 0.148 -0.283 -0.03 0.57 -0.82 0.05
1 0.45 45 0.019 -9.122 3.697 -2.594 1.099 0.275 -183.480 2217.805 -3687.748 -0.121 -0.021 -0.170 -0.03 0.57 -0.82 0.05
1 0.46 46 0.000 -9.175 3.773 -2.502 0.854 -0.214 -183.480 2217.805 -3687.748 -0.102 0.031 -0.250 -0.03 0.57 -0.82 0.05
1 0.47 47 0.177 -9.204 3.716 -2.594 1.648 0.031 -213.461 2067.753 -3732.718 -0.279 0.059 -0.195 -0.03 0.57 -0.82 0.05
1 0.48 48 0.144 -9.089 3.793 -2.228 2.075 0.488 -213.461 2067.753 -3732.718 -0.245 -0.057 -0.273 -0.03 0.57 -0.82 0.05
1 0.49 49 0.139 -9.170 3.726 -2.289 2.991 -0.366 -273.572 2232.795 -3852.790 -0.240 0.024 -0.208 -0.03 0.57 -0.82 0.05
1 0.50 50 0.172 -9.242 3.678 -2.716 3.632 0.275 -138.510 2262.776 -3762.699 -0.273 0.094 -0.164 -0.03 0.57 -0.82 0.05
1 0.51 51 0.158 -9.189 3.754 -2.533 4.669 -0.153 -78.549 2232.795 -3747.708 -0.259 0.040 -0.243 -0.02 0.57 -0.82 0.05
1 0.52 52 0.244 -9.252 3.788 -2.563 5.035 -0.183 -228.451 2232.795 -3642.777 -0.345 0.102 -0.279 -0.02 0.57 -0.82 0.04
1 0.53 53 0.139 -9.194 3.759 -2.045 5.798 -0.275 -228.451 2232.795 -3642.777 -0.240 0.043 -0.252 -0.02 0.57 -0.82 0.04
1 0.54 54 0.158 -9.175 3.740 -2.930 6.928 -0.183 -108.529 2142.704 -3732.718 -0.260 0.024 -0.235 -0.02 0.57 -0.82 0.04
1 0.55 55 0.354 -9.285 3.697 -3.601 6.866 -0.793 -108.529 2142.704 -3732.718 -0.457 0.133 -0.195 -0.02 0.57 -0.82 0.04
1 0.56 56 0.187 -9.328 3.678 -3.265 7.172 -0.610 -108.529 2217.805 -3732.718 -0.290 0.174 -0.180 -0.02 0.57 -0.82 0.04
1 0.57 57 0.077 -9.108 3.759 -2.502 8.728 -1.404 -138.510 2172.834 -3792.829 -0.180 -0.048 -0.268 -0.02 0.57 -0.82 0.04
1 0.58 58 0.192 -9.275 3.745 -2.563 8.514 -1.404 -108.529 2097.733 -3792.829 -0.296 0.118 -0.255 -0.02 0.57 -0.82 0.04
1 0.59 59 0.115 -9.266 3.692 -2.258 8.667 -2.380 -228.451 2202.815 -3672.757 -0.219 0.108 -0.205 -0.02 0.57 -0.82 0.04
1 0.60 60 -0.024 -9.223 3.726 -3.204 9.186 -2.686 -228.451 2202.815 -3672.757 -0.078 0.064 -0.240 -0.02 0.57 -0.82 0.04
1 0.61 61 -0.139 -9.146 3.649 -3.235 9.949 -2.625 -213.461 2262.776 -3837.800 0.036 -0.014 -0.167 -0.02 0.57 -0.82 0.04
1 0.62 62 -0.010 -9.208 3.773 -3.143 10.010 -3.204 -213.461 2262.776 -3837.800 -0.094 0.047 -0.295 -0.02 0.57 -0.82 0.04
1 0.63 63 0.086 -9.218 3.567 -2.380 10.040 -2.960 -153.500 2082.743 -3747.708 -0.190 0.056 -0.092 -0.02 0.57 -0.82 0.04
1 0.64 64 -0.005 -9.237 3.692 -2.747 10.193 -2.380 -78.549 2127.714 -3777.839 -0.100 0.073 -0.222 -0.02 0.57 -0.82 0.04
1 0.65 65 0.081 -9.285 3.630 -3.052 9.888 -1.617 -228.451 2277.766 -3702.738 -0.188 0.119 -0.163 -0.02 0.57 -0.82 0.04
1 0.66 66 0.062 -9.261 3.606 -2.106 9.857 -1.404 -183.480 2262.776 -3867.780 -0.171 0.094 -0.142 -0.02 0.57 -0.82 0.04
1 0.67 67 0.062 -9.275 3.582 -1.862 9.949 -1.129 -183.480 2262.776 -3867.780 -0.174 0.108 -0.120 -0.02 0.57 -0.82 0.03
1 0.68 68 0.101 -9.285 3.716 -2.014 10.712 -0.488 -138.510 2142.704 -3612.796 -0.215 0.117 -0.257 -0.02 0.57 -0.82 0.03
1 0.69 69 0.158 -9.189 3.711 -2.350 10.803 -0.305 -138.510 2142.704 -3612.796 -0.276 0.020 -0.254 -0.02 0.57 -0.82 0.03
1 0.70 70 0.225 -9.271 3.764 -2.228 10.620 -0.549 -108.529 2292.756 -3687.748 -0.347 0.101 -0.309 -0.02 0.57 -0.82 0.03
1 0.71 71 0.091 -9.213 3.615 -2.472 10.345 -0.061 -153.500 2157.844 -3852.790 -0.216 0.043 -0.162 -0.01 0.57 -0.82 0.03
1 0.72 72 0.172 -9.213 3.596 -2.686 10.193 -1.160 -108.529 2172.834 -3762.699 -0.303 0.041 -0.148 -0.01 0.57 -0.82 0.03
1 0.73 73 0.134 -9.184 3.740 -2.533 10.101 -1.160 -3.448 2127.714 -3702.738 -0.267 0.011 -0.293 -0.01 0.57 -0.82 0.03
1 0.74 74 0.105 -9.165 3.773 -2.563 10.376 -0.519 -3.448 2127.714 -3702.738 -0.240 -0.008 -0.329 -0.01 0.57 -0.82 0.03
1 0.75 75 0.144 -9.271 3.644 -2.075 9.613 -0.916 -123.520 2202.815 -3777.839 -0.281 0.097 -0.201 -0.01 0.57 -0.82 0.03
1 0.76 76 0.019 -9.319 3.773 -2.625 9.247 -1.190 -123.520 2202.815 -3777.839 -0.159 0.144 -0.332 -0.01 0.57 -0.82 0.03
1 0.77 77 0.000 -9.309 3.706 -2.716 9.460 -0.732 -63.559 2262.776 -3687.748 -0.141 0.134 -0.267 -0.01 0.57 -0.82 0.03
1 0.78 78 0.139 -9.237 3.778 -2.533 9.155 -1.343 26.383 2232.795 -3777.839 -0.282 0.061 -0.341 -0.01 0.57 -0.82 0.03
1 0.79 79 0.263 -9.170 3.711 -2.533 10.345 -1.740 -123.520 2202.815 -3747.708 -0.410 -0.008 -0.279 -0.01 0.57 -0.82 0.03
1 0.80 80 0.311 -9.247 3.692 -2.197 9.644 -1.251 -48.568 2202.815 -3702.738 -0.457 0.068 -0.262 -0.01 0.57 -0.82 0.03
1 0.81 81 0.215 -9.223 3.625 -2.838 9.399 -1.587 -48.568 2202.815 -3702.738 -0.361 0.043 -0.196 -0.01 0.57 -0.82 0.03
1 0.82 82 0.306 -9.084 3.697 -2.441 9.796 -2.014 -33.428 2337.727 -3612.796 -0.452 -0.097 -0.271 -0.01 0.57 -0.82 0.02
1 0.83 83 0.302 -9.290 3.673 -2.777 9.369 -3.143 -33.428 2337.727 -3612.796 -0.446 0.109 -0.249 -0.01 0.57 -0.82 0.02
1 0.84 84 0.326 -9.189 3.745 -1.801 8.514 -2.869 -3.448 2307.747 -3702.738 -0.467 0.007 -0.323 -0.01 0.57 -0.82 0.02
1 0.85 85 0.345 -9.290 3.663 -1.831 8.179 -2.228 11.393 2262.776 -3837.800 -0.484 0.107 -0.243 -0.01 0.57 -0.82 0.02
1 0.86 86 0.225 -9.170 3.630 -2.411 7.324 -2.533 130.415 2351.968 -3699.740 -0.358 -0.014 -0.212 -0.01 0.57 -0.82 0.02
1 0.87 87 0.268 -9.137 3.596 -1.831 6.744 -1.770 100.435 2156.945 -3669.759 -0.399 -0.048 -0.181 -0.01 0.57 -0.82 0.02
1 0.88 88 0.239 -9.189 3.601 -0.122 6.897 -1.984 100.435 2156.945 -3669.759 -0.368 0.004 -0.187 -0.01 0.57 -0.82 0.02
1 0.89 89 0.364 -9.094 3.692 -0.458 6.195 -1.221 55.314 2231.896 -3774.691 -0.490 -0.091 -0.276 -0.01 0.57 -0.82 0.02
1 0.90 90 0.354 -9.137 3.496 -0.275 5.585 -1.434 55.314 2231.896 -3774.691 -0.479 -0.047 -0.078 -0 0.57 -0.82 0.02
1 0.91 91 0.393 -9.113 3.606 -0.153 5.371 -0.427 100.435 2231.896 -3774.691 -0.515 -0.071 -0.187 -0 0.57 -0.82 0.02
1 0.92 92 0.421 -9.184 3.582 -0.458 5.310 0.763 100.435 2201.916 -3744.710 -0.542 0.001 -0.162 -0 0.57 -0.82 0.02
1 0.93 93 0.474 -9.208 3.692 -1.312 4.761 1.404 100.435 2201.916 -3744.710 -0.594 0.026 -0.271 -0 0.57 -0.82 0.02
1 0.94 94 0.503 -9.132 3.544 -1.251 5.188 2.136 -49.468 2276.867 -3594.808 -0.623 -0.051 -0.123 -0 0.57 -0.82 0.02
1 0.95 95 0.666 -8.988 3.711 -0.061 5.768 2.502 -49.468 2276.867 -3594.808 -0.787 -0.195 -0.291 -0 0.57 -0.82 0.02
1 0.96 96 0.723 -9.094 3.759 0.366 5.310 3.357 85.444 2291.857 -3729.720 -0.846 -0.089 -0.337 -0 0.57 -0.82 0.02
1 0.97 97 0.790 -8.979 3.668 -0.641 5.676 4.395 85.444 2291.857 -3729.720 -0.914 -0.203 -0.244 -0 0.57 -0.82 0.02
1 0.98 98 0.723 -9.079 3.663 -1.068 6.104 4.303 25.333 2231.896 -3594.808 -0.849 -0.102 -0.238 -0 0.57 -0.82 0.01
1 0.99 99 0.718 -9.050 3.754 -0.702 7.538 2.563 115.425 2336.828 -3684.750 -0.847 -0.130 -0.328 -0 0.57 -0.82 0.01
1 1.00 100 0.800 -9.127 3.706 0.763 8.240 1.282 115.425 2336.828 -3684.750 -0.929 -0.053 -0.279 -0 0.57 -0.82 0.01
1 1.01 101 0.704 -8.902 3.764 2.075 7.935 0.641 -49.468 2276.867 -3774.691 -0.831 -0.276 -0.330 -0 0.57 -0.82 0.01
1 1.02 102 0.680 -9.146 3.687 1.129 6.561 1.190 -49.468 2276.867 -3774.691 -0.805 -0.030 -0.248 -0 0.57 -0.82 0.01
1 1.03 103 0.450 -9.151 3.663 0.977 5.737 1.129 115.425 2261.876 -3654.769 -0.574 -0.024 -0.221 -0 0.57 -0.82 0.01
1 1.04 104 0.292 -9.146 3.682 1.038 6.805 0.122 115.425 2261.876 -3654.769 -0.415 -0.027 -0.237 -0 0.57 -0.82 0.01
1 1.05 105 0.306 -9.084 3.644 0.061 6.622 -1.312 55.314 2156.945 -3699.740 -0.429 -0.089 -0.196 0 0.57 -0.82 0.01
1 1.06 106 0.316 -8.878 3.644 -1.556 7.202 -2.380 85.444 2366.958 -3759.701 -0.437 -0.294 -0.195 0 0.57 -0.82 0.01
1 1.07 107 0.345 -9.065 3.587 -2.991 6.836 -1.892 85.444 2366.958 -3759.701 -0.461 -0.107 -0.137 0 0.57 -0.82 0.01
1 1.08 108 0.326 -9.113 3.510 -3.265 7.568 -1.373 250.337 2351.968 -3699.740 -0.438 -0.061 -0.065 0 0.57 -0.82 0.01
1 1.09 109 0.134 -9.208 3.606 -3.540 7.721 -1.770 250.337 2351.968 -3699.740 -0.246 0.033 -0.165 0 0.57 -0.82 0.01
1 1.10 110 -0.057 -9.381 3.405 -3.784 8.911 -3.479 175.386 2426.919 -3879.772 -0.054 0.203 0.031 0 0.57 -0.82 0.01
1 1.11 111 -0.105 -9.548 3.357 -2.045 8.667 -4.547 175.386 2426.919 -3879.772 -0.005 0.369 0.074 0 0.57 -0.82 0.01
1 1.12 112 0.096 -9.697 3.256 -0.671 8.545 -5.280 100.435 2231.896 -3819.812 -0.203 0.516 0.171 0 0.57 -0.82 0
1 1.13 113 0.302 -9.812 3.275 0.946 9.522 -2.563 175.386 2126.964 -3639.779 -0.405 0.630 0.149 0 0.57 -0.82 0
1 1.14 114 0.306 -9.706 3.347 1.495 10.162 -0.305 175.386 2126.964 -3639.779 -0.408 0.524 0.075 0 0.57 -0.82 0
1 1.15 115 0.196 -9.620 3.342 4.272 10.223 0.549 115.425 2216.906 -3684.750 -0.299 0.438 0.080 0 0.57 -0.82 0
1 1.16 116 0.306 -9.548 3.414 6.531 11.353 -0.549 85.444 2171.935 -3789.681 -0.415 0.370 0.018 0.01 0.57 -0.82 0
1 1.17 117 0.196 -9.467 3.433 7.355 13.062 -0.854 190.376 2366.958 -3759.701 -0.308 0.291 0.007 0.01 0.57 -0.82 0
1 1.18 118 0.115 -9.491 3.357 7.233 14.740 -0.305 190.376 2366.958 -3759.701 -0.230 0.319 0.092 -0.01 -0.57 0.82 0
1 1.19 119 0.144 -9.620 3.366 8.850 15.106 0.092 115.425 2261.876 -3684.750 -0.265 0.451 0.092 -0.01 -0.57 0.82 0
1 1.20 120 -0.081 -9.333 3.448 10.986 15.930 1.129 25.333 2126.964 -3819.812 -0.046 0.169 0.022 -0.01 -0.57 0.82 0
1 1.21 121 0.053 -9.472 3.433 10.284 17.731 0.916 25.333 2126.964 -3819.812 -0.189 0.313 0.051 -0.01 -0.57 0.82 0
1 1.22 122 -0.168 -9.338 3.529 9.155 20.172 1.343 250.337 2126.964 -3774.691 0.021 0.184 -0.032 -0.01 -0.57 0.82 0
1 1.23 123 -0.105 -9.352 3.453 10.468 21.149 0.336 160.396 2336.828 -3759.701 -0.064 0.209 0.070 -0.01 -0.57 0.82 0.01
1 1.24 124 -0.168 -9.184 3.467 9.766 21.851 -0.427 100.435 2276.867 -3639.779 -0.014 0.046 0.069 -0.02 -0.57 0.82 0.01
1 1.25 125 -0.129 -9.151 3.424 8.881 23.712 -0.610 100.435 2276.867 -3639.779 -0.063 0.017 0.123 -0.02 -0.56 0.83 0.01
1 1.26 126 -0.206 -9.074 3.467 7.233 24.048 -0.305 130.415 2231.896 -3879.772 0.002 -0.055 0.091 -0.02 -0.56 0.83 0.01
1 1.27 127 -0.326 -9.242 3.481 6.439 23.071 -0.153 265.327 2261.876 -3759.701 0.109 0.116 0.084 -0.02 -0.56 0.83 0.01
1 1.28 128 -0.608 -9.151 3.414 0.793 21.729 1.404 265.327 2261.876 -3759.701 0.378 0.028 0.158 -0.02 -0.56 0.83 0.01
1 1.29 129 -0.713 -9.213 3.400 0.549 20.935 1.892 220.356 2096.834 -3729.720 0.468 0.091 0.173 -0.02 -0.56 0.83 0.01
1 1.30 130 -0.757 -8.763 3.199 -1.282 21.668 1.892 340.428 2171.935 -3759.701 0.476 -0.360 0.369 -0.03 -0.56 0.83 0.01
1 1.31 131 -0.809 -8.801 3.127 -2.960 21.362 1.648 355.418 2231.896 -3744.710 0.511 -0.323 0.436 -0.03 -0.56 0.83 0.01
1 1.32 132 -0.776 -9.046 3.242 -2.075 18.402 1.282 355.418 2231.896 -3744.710 0.461 -0.081 0.314 -0.03 -0.56 0.83 0.01
1 1.33 133 -0.709 -9.050 3.285 -1.495 18.860 2.563 370.409 2291.857 -3759.701 0.378 -0.078 0.266 -0.03 -0.56 0.83 0.01
1 1.34 134 -0.824 -9.017 3.113 -3.754 17.609 4.456 295.308 2141.955 -3834.802 0.475 -0.112 0.433 -0.03 -0.56 0.83 0.02
1 1.35 135 -1.144 -9.050 3.026 -9.277 12.756 5.219 295.308 2141.955 -3834.802 0.777 -0.082 0.509 -0.03 -0.56 0.82 0.02
1 1.36 136 -1.178 -9.132 3.074 -10.559 10.956 4.517 295.308 2216.906 -3654.769 0.792 -0.006 0.446 -0.03 -0.56 0.82 0.02
1 1.37 137 -1.255 -9.266 3.017 -12.024 9.705 5.585 400.389 2141.955 -3654.769 0.850 0.122 0.485 -0.04 -0.57 0.82 0.02
1 1.38 138 -1.681 -9.376 2.797 -12.085 4.517 8.759 400.389 2096.834 -3759.701 1.238 0.217 0.662 -0.04 -0.57 0.82 0.02
1 1.39 139 -1.638 -9.299 2.864 -9.186 2.716 5.371 400.389 2096.834 -3759.701 1.172 0.134 0.575 -0.04 -0.57 0.82 0.02
1 1.40 140 -1.331 -9.252 2.787 -6.836 0.732 1.007 295.308 2141.955 -3684.750 0.849 0.081 0.635 -0.04 -0.57 0.82 0.01
1 1.41 141 -1.101 -9.362 2.739 -7.202 -2.502 -2.960 340.428 2291.857 -3759.701 0.612 0.186 0.669 -0.04 -0.57 0.82 0.01
1 1.42 142 -0.608 -9.529 2.835 -4.608 -6.195 -4.730 340.428 2291.857 -3759.701 0.121 0.349 0.560 -0.04 -0.57 0.82 0.01
1 1.43 143 -0.632 -9.754 2.835 -2.991 -6.104 -1.099 370.409 2216.906 -3684.750 0.153 0.570 0.551 -0.04 -0.57 0.82 0.01
1 1.44 144 -0.996 -9.481 2.873 -7.141 -9.522 1.617 340.428 2261.876 -3789.681 0.522 0.294 0.504 -0.04 -0.57 0.82 0.01
1 1.45 145 -1.283 -9.472 2.969 -10.010 -14.923 0.885 340.428 2291.857 -3834.802 0.810 0.274 0.379 -0.04 -0.57 0.82 0.01
1 1.46 146 -1.116 -9.481 2.926 -9.338 -16.296 0.336 340.428 2291.857 -3834.802 0.644 0.277 0.406 -0.04 -0.57 0.82 0.01
1 1.47 147 -1.207 -9.630 3.117 -10.407 -18.250 1.984 445.360 2276.867 -3639.779 0.737 0.420 0.199 -0.04 -0.57 0.82 0.01
1 1.48 148 -0.886 -9.529 3.189 -10.162 -20.172 5.005 370.409 2171.935 -3609.798 0.416 0.314 0.111 -0.04 -0.57 0.82 0.01
1 1.49 149 -0.996 -9.620 2.998 -10.651 -20.630 7.141 370.409 2171.935 -3609.798 0.524 0.399 0.287 -0.04 -0.58 0.82 0.01
1 1.50 150 -0.795 -9.601 3.184 -10.895 -19.684 10.193 265.327 2366.958 -3759.701 0.319 0.374 0.083 -0.03 -0.58 0.82 0.01
1 1.51 151 -0.742 -9.601 3.165 -11.475 -19.226 12.878 370.409 2291.857 -3759.701 0.259 0.369 0.087 -0.03 -0.58 0.82 0.01
1 1.52 152 -0.311 -9.524 3.275 -11.810 -16.754 16.907 340.428 2336.828 -3684.750 -0.195 0.283 -0.055 -0.03 -0.58 0.82 0
1 1.53 153 -0.603 -9.558 3.285 -12.390 -15.198 18.066 340.428 2336.828 -3684.750 0.080 0.311 -0.081 -0.03 -0.58 0.81 0
1 1.54 154 -0.532 -9.304 3.342 -13.550 -11.414 20.996 295.308 2261.876 -3759.701 -0.012 0.053 -0.156 0.03 0.58 -0.81 0
1 1.55 155 -0.690 -9.122 3.534 -12.482 -7.935 20.325 355.418 2306.847 -3669.759 0.121 -0.134 -0.365 0.03 0.58 -0.81 0
1 1.56 156 -0.723 -9.108 3.328 -10.529 -4.517 18.799 355.418 2306.847 -3669.759 0.128 -0.151 -0.173 0.03 0.58 -0.81 0
1 1.57 157 -1.207 -9.170 3.285 -8.514 -1.831 18.494 340.428 2411.929 -3684.750 0.586 -0.092 -0.142 0.03 0.58 -0.81 0.01
1 1.58 158 -1.298 -9.094 3.251 -7.446 -3.143 17.365 325.438 2276.867 -3699.740 0.649 -0.170 -0.120 0.04 0.58 -0.81 0.01
1 1.59 159 -1.288 -9.113 3.132 -6.683 -5.371 18.890 325.438 2276.867 -3699.740 0.613 -0.152 -0.009 0.04 0.58 -0.81 0.01
1 1.60 160 -1.279 -9.151 3.189 -5.859 -7.904 16.937 355.418 2381.948 -3774.691 0.550 -0.115 -0.083 0.04 0.58 -0.81 0.01
1 1.61 161 -1.360 -9.156 3.026 -4.517 -7.111 17.334 355.418 2471.890 -3594.808 0.607 -0.111 0.073 0.04 0.58 -0.81 0.01
1 1.62 162 -1.379 -9.314 3.012 -3.662 -8.331 18.280 385.399 2426.919 -3519.707 0.601 0.048 0.082 0.04 0.58 -0.81 0.01
1 1.63 163 -1.523 -9.328 2.825 -2.686 -10.559 16.357 385.399 2426.919 -3519.707 0.720 0.062 0.264 0.04 0.58 -0.81 0.02
1 1.64 164 -1.312 -9.410 2.868 -1.556 -12.543 16.266 355.418 2426.919 -3594.808 0.486 0.144 0.216 0.04 0.58 -0.81 0.02
1 1.65 165 -1.336 -9.515 2.940 -0.275 -12.726 18.677 295.308 2261.876 -3579.668 0.488 0.251 0.142 0.04 0.58 -0.81 0.02
1 1.66 166 -1.164 -9.280 2.916 1.923 -14.160 16.663 295.308 2261.876 -3579.668 0.293 0.018 0.165 0.04 0.58 -0.81 0.02
1 1.67 167 -1.326 -9.213 3.065 0.397 -15.411 8.453 355.418 2201.916 -3744.710 0.423 -0.044 0.022 0.04 0.58 -0.81 0.02
1 1.68 168 -1.274 -9.271 3.007 -1.770 -14.496 10.132 220.356 2411.929 -3684.750 0.363 0.015 0.082 0.04 0.58 -0.81 0.03
1 1.69 169 -1.437 -9.137 2.739 -3.113 -18.158 11.139 280.317 2276.867 -3639.779 0.515 -0.119 0.348 0.04 0.58 -0.81 0.03
1 1.70 170 -1.298 -9.314 2.820 -4.761 -21.454 8.545 280.317 2276.867 -3639.779 0.367 0.058 0.263 0.04 0.58 -0.81 0.03
1 1.71 171 -1.144 -9.443 2.916 -3.662 -21.515 5.524 295.308 2291.857 -3729.720 0.210 0.186 0.162 0.04 0.58 -0.81 0.03
1 1.72 172 -0.991 -9.836 3.065 0.305 -18.219 7.019 400.389 2291.857 -3609.798 0.057 0.578 0.011 0.04 0.58 -0.81 0.03
1 1.73 173 -0.996 -9.941 3.122 2.716 -16.602 11.047 400.389 2291.857 -3609.798 0.061 0.684 -0.045 0.03 0.58 -0.81 0.03
1 1.74 174 -0.857 -10.152 2.959 3.326 -14.587 7.690 325.438 2471.890 -3699.740 -0.090 0.899 0.126 0.03 0.58 -0.81 0.04
1 1.75 175 -0.843 -10.267 3.127 4.944 -12.665 9.430 340.428 2366.958 -3684.750 -0.109 1.016 -0.036 0.03 0.58 -0.81 0.04
1 1.76 176 -0.699 -10.209 3.448 9.857 -5.432 11.597 280.317 2306.847 -3594.808 -0.262 0.963 -0.346 0.03 0.58 -0.81 0.04
1 1.77 177 -0.800 -10.046 3.563 9.064 -1.404 10.101 280.317 2306.847 -3594.808 -0.174 0.806 -0.447 0.03 0.58 -0.81 0.04
1 1.78 178 -0.929 -9.802 3.486 4.700 0.061 8.606 205.366 2351.968 -3774.691 -0.056 0.567 -0.359 0.03 0.58 -0.81 0.04
1 1.79 179 -1.097 -9.706 3.295 -0.275 -1.038 6.378 325.438 2306.847 -3594.808 0.101 0.474 -0.161 0.03 0.58 -0.81 0.04
1 1.80 180 -1.173 -9.524 3.237 -1.923 -0.977 3.082 325.438 2306.847 -3594.808 0.168 0.294 -0.102 0.03 0.58 -0.81 0.04
1 1.81 181 -1.188 -9.515 3.290 -3.174 0.610 1.770 265.327 2291.857 -3609.798 0.177 0.284 -0.157 0.03 0.58 -0.81 0.04
1 1.82 182 -1.446 -9.323 3.098 -4.974 0.702 0.214 190.376 2291.857 -3579.668 0.427 0.090 0.024 0.03 0.58 -0.81 0.04
1 1.83 183 -1.532 -9.232 3.108 -5.524 0.122 -1.831 325.438 2381.948 -3744.710 0.511 -0.003 0.007 0.03 0.58 -0.81 0.04
1 1.84 184 -1.580 -9.462 3.055 -5.219 0.977 -1.770 325.438 2381.948 -3744.710 0.558 0.224 0.052 0.03 0.58 -0.81 0.04
1 1.85 185 -1.690 -9.333 3.036 -1.373 1.617 -1.984 190.376 2336.828 -3609.798 0.666 0.093 0.064 0.03 0.58 -0.81 0.04
1 1.86 186 -1.757 -9.275 2.897 3.235 1.984 -1.465 220.356 2336.828 -3759.701 0.731 0.035 0.201 0.04 0.58 -0.81 0.04
1 1.87 187 -1.824 -9.366 2.739 4.639 0.214 -2.686 220.356 2336.828 -3759.701 0.794 0.127 0.360 0.04 0.58 -0.81 0.04
1 1.88 188 -2.069 -9.390 2.696 3.754 -0.336 -2.075 295.308 2291.857 -3684.750 1.035 0.152 0.408 0.04 0.58 -0.81 0.04
1 1.89 189 -2.059 -9.505 2.720 7.080 -2.350 -2.838 370.409 2216.906 -3609.798 1.020 0.270 0.391 0.04 0.58 -0.81 0.04
1 1.90 190 -2.016 -9.376 2.576 8.453 -3.571 -2.747 205.366 2276.867 -3639.779 0.975 0.144 0.542 0.04 0.58 -0.81 0.04
1 1.91 191 -2.050 -9.328 2.519 6.928 -3.723 -4.913 205.366 2276.867 -3639.779 1.007 0.099 0.607 0.04 0.58 -0.81 0.04
1 1.92 192 -1.930 -9.443 2.653 6.042 -3.662 -5.737 370.409 2366.958 -3534.697 0.889 0.216 0.479 0.04 0.58 -0.81 0.04
1 1.93 193 -1.872 -9.467 2.466 5.951 -4.303 -3.693 295.308 2336.828 -3609.798 0.834 0.241 0.671 0.04 0.58 -0.81 0.04
1 1.94 194 -1.465 -9.309 2.370 5.829 -6.653 -1.648 295.308 2336.828 -3609.798 0.427 0.084 0.770 0.04 0.58 -0.81 0.04
1 1.95 195 -1.437 -9.295 2.437 6.531 -7.355 -1.495 175.386 2351.968 -3744.710 0.398 0.071 0.706 0.04 0.58 -0.81 0.04
1 1.96 196 -1.192 -9.184 2.346 6.042 -5.096 -1.892 265.327 2171.935 -3684.750 0.160 -0.037 0.805 0.03 0.58 -0.81 0.04
1 1.97 197 -1.207 -9.252 2.203 6.195 -4.639 -2.655 265.327 2336.828 -3534.697 0.178 0.031 0.953 0.03 0.58 -0.81 0.04
1 1.98 198 -1.207 -9.213 2.236 7.507 -5.890 -2.960 265.327 2336.828 -3534.697 0.183 -0.006 0.925 0.03 0.58 -0.81 0.04
1 1.99 199 -1.188 -9.314 2.126 7.416 -7.355 -3.418 175.386 2156.945 -3519.707 0.170 0.095 1.040 0.03 0.58 -0.81 0.04
1 2.00 200 -1.125 -9.295 2.179 6.653 -8.392 -3.876 130.415 2201.916 -3699.740 0.115 0.077 0.991 0.03 0.58 -0.81 0.04
1 2.01 201 -0.824 -9.347 2.188 7.233 -9.888 -4.547 130.415 2201.916 -3699.740 -0.177 0.129 0.985 0.03 0.58 -0.81 0.04
1 2.02 202 -0.771 -9.362 2.093 7.874 -10.864 -4.700 280.317 2231.896 -3669.759 -0.219 0.144 1.084 0.03 0.58 -0.81 0.04
1 2.03 203 -0.819 -9.333 2.107 7.874 -11.444 -3.815 280.317 2231.896 -3669.759 -0.159 0.116 1.075 0.03 0.58 -0.81 0.04
1 2.04 204 -0.814 -9.510 1.753 6.042 -13.336 -3.662 160.396 2066.854 -3579.668 -0.139 0.293 1.439 0.03 0.58 -0.81 0.04
1 2.05 205 -0.986 -9.692 1.647 6.195 -16.754 -2.411 160.396 2066.854 -3579.668 0.045 0.474 1.545 0.03 0.58 -0.81 0.04
1 2.06 206 -1.111 -9.898 1.781 8.545 -18.524 -1.740 100.435 2156.945 -3744.710 0.182 0.679 1.412 0.03 0.58 -0.81 0.05
1 2.07 207 -1.279 -10.022 1.690 10.040 -17.212 -0.427 40.324 2261.876 -3729.720 0.359 0.804 1.507 0.03 0.58 -0.81 0.05
1 2.08 208 -1.465 -10.334 1.537 10.651 -14.954 0.885 40.324 2261.876 -3729.720 0.551 1.117 1.665 0.02 0.58 -0.81 0.05
1 2.09 209 -1.508 -10.252 1.499 11.108 -13.702 1.373 25.333 2201.916 -3669.759 0.598 1.037 1.708 0.02 0.58 -0.81 0.05
1 2.10 210 -1.374 -10.425 1.638 10.986 -13.733 1.556 25.333 2201.916 -3669.759 0.465 1.210 1.573 0.02 0.58 -0.81 0.05
1 2.11 211 -1.192 -10.884 2.859 7.965 -9.216 3.754 205.366 2126.964 -3699.740 0.284 1.672 0.358 0.02 0.58 -0.81 0.05
1 2.12 212 -0.939 -11.488 3.141 7.538 -3.052 12.024 205.366 2126.964 -3699.740 0.026 2.280 0.088 0.02 0.58 -0.81 0.05
1 2.13 213 -0.512 -11.689 3.692 3.052 -3.326 24.994 40.324 2171.935 -3609.798 -0.420 2.487 -0.453 0.02 0.58 -0.81 0.05
1 2.14 214 -0.196 -11.402 4.113 -0.275 -13.153 28.656 115.425 2216.906 -3759.701 -0.771 2.204 -0.871 0.02 0.58 -0.81 0.05
1 2.15 215 0.594 -11.818 3.280 -6.226 -20.294 32.532 115.425 2216.906 -3759.701 -1.594 2.625 -0.037 0.02 0.58 -0.81 0.06
1 2.16 216 1.556 -10.956 1.872 -13.397 -19.775 39.398 220.356 2141.955 -3579.668 -2.596 1.764 1.363 0.02 0.58 -0.81 0.06
1 2.17 217 1.269 -10.324 1.513 -12.024 -8.820 23.621 220.356 2141.955 -3579.668 -2.356 1.132 1.707 0.02 0.58 -0.81 0.06
1 2.18 218 0.441 -10.913 0.594 -14.496 -7.080 7.233 175.386 2126.964 -3774.691 -1.560 1.709 2.579 0.02 0.58 -0.81 0.07
1 2.19 219 0.034 -11.253 0.464 -14.832 -6.439 -2.472 175.386 2126.964 -3774.691 -1.146 2.038 2.679 0.02 0.58 -0.81 0.07
1 2.20 220 -1.599 -11.991 1.700 2.686 0.610 -30.121 25.333 2201.916 -3639.779 0.516 2.769 1.435 0.02 0.58 -0.81 0.07
1 2.21 221 -3.338 -12.086 3.227 12.482 5.341 -28.320 115.425 2171.935 -3684.750 2.296 2.862 -0.086 0.02 0.58 -0.81 0.06
1 2.22 222 -4.765 -11.794 3.802 14.740 2.472 -15.808 115.425 2171.935 -3684.750 3.757 2.573 -0.642 0.02 0.58 -0.81 0.06
1 2.23 223 -5.028 -9.769 4.305 8.209 -4.547 -13.672 115.425 2141.955 -3609.798 4.039 0.552 -1.125 0.02 0.58 -0.81 0.06
1 2.24 224 -4.147 -9.127 4.564 3.906 -7.965 -13.275 115.425 2141.955 -3609.798 3.177 -0.087 -1.369 0.02 0.58 -0.81 0.06
1 2.25 225 -2.868 -8.600 4.827 7.233 -20.813 1.068 55.314 2156.945 -3489.727 1.923 -0.613 -1.625 0.02 0.58 -0.81 0.06
1 2.26 226 -0.072 -7.197 5.358 13.336 -30.335 14.893 55.314 2051.863 -3594.808 -0.881 -1.999 -2.110 0.02 0.58 -0.81 0.06
1 2.27 227 0.575 -6.474 5.062 20.142 -20.325 14.191 -124.419 2126.964 -3669.759 -1.532 -2.707 -1.770 0.01 0.58 -0.81 0.07
1 2.28 228 0.977 -6.053 4.774 16.449 -15.381 7.294 -64.458 1991.902 -3534.697 -1.943 -3.116 -1.452 0.01 0.57 -0.82 0.07
1 2.29 229 1.422 -6.426 4.635 3.906 -23.499 3.601 -64.458 1991.902 -3534.697 -2.388 -2.735 -1.292 0.01 0.57 -0.82 0.07
1 2.30 230 1.982 -7.073 4.774 -7.599 -32.196 1.282 -34.478 2141.955 -3654.769 -2.940 -2.087 -1.425 0.01 0.57 -0.82 0.07
1 2.31 231 2.677 -7.767 4.439 -14.526 -28.076 -4.059 -34.478 2141.955 -3654.769 -3.618 -1.398 -1.099 0.01 0.57 -0.82 0.07
1 2.32 232 2.322 -8.016 4.247 -10.834 -18.555 -10.223 -49.468 2051.863 -3639.779 -3.221 -1.154 -0.910 0.01 0.57 -0.82 0.07
1 2.33 233 1.374 -7.963 3.979 -1.373 -11.658 -19.104 -79.448 2006.893 -3639.779 -2.175 -1.216 -0.641 0 0.57 -0.82 0.07
1 2.34 234 0.781 -7.762 3.821 -3.235 -12.878 -25.910 -64.458 1991.902 -3684.750 -1.529 -1.419 -0.477 -0 0.57 -0.82 0.07
1 2.35 235 0.512 -7.987 3.907 -7.629 -17.365 -31.921 -139.409 2141.955 -3654.769 -1.209 -1.198 -0.564 -0 0.57 -0.82 0.07
1 2.36 236 0.417 -8.112 3.840 -9.644 -18.677 -35.492 -139.409 2141.955 -3654.769 -1.048 -1.080 -0.500 -0.01 0.57 -0.82 0.07
1 2.37 237 0.426 -8.351 3.884 -9.186 -18.890 -37.598 -379.553 2126.665 -3638.729 -0.990 -0.847 -0.549 -0.01 0.57 -0.82 0.07
1 2.38 238 0.431 -8.461 4.042 -6.561 -20.599 -41.870 -379.553 2126.665 -3638.729 -0.925 -0.742 -0.712 -0.01 0.57 -0.82 0.06
1 2.39 239 0.354 -8.974 4.142 -10.590 -21.790 -43.762 -289.461 2096.684 -3653.720 -0.772 -0.234 -0.814 -0.02 0.57 -0.82 0.06
1 2.40 240 0.273 -9.592 4.247 -18.097 -19.165 -41.443 -109.579 2096.684 -3533.648 -0.536 0.371 -0.937 -0.02 0.57 -0.82 0.06
1 2.41 241 0.302 -9.740 4.185 -19.257 -16.663 -40.192 -364.562 2141.655 -3533.648 -0.494 0.511 -0.895 -0.03 0.58 -0.82 0.06
1 2.42 242 0.263 -9.678 3.936 -17.944 -10.681 -33.478 -229.500 1931.642 -3638.729 -0.393 0.440 -0.668 -0.03 0.58 -0.81 0.05
1 2.43 243 0.412 -9.151 4.046 -16.998 -8.667 -28.504 -229.500 1931.642 -3638.729 -0.488 -0.095 -0.798 -0.03 0.58 -0.81 0.05
1 2.44 244 0.488 -8.758 3.965 -16.785 -7.813 -26.276 -304.452 2201.616 -3593.609 -0.518 -0.494 -0.735 -0.03 0.58 -0.81 0.05
1 2.45 245 0.862 -8.351 3.912 -21.576 -4.150 -23.377 -304.452 2201.616 -3593.609 -0.848 -0.908 -0.702 -0.04 0.58 -0.81 0.05
1 2.46 246 1.044 -8.313 4.032 -22.553 -3.235 -20.966 -319.592 2171.635 -3653.720 -0.988 -0.954 -0.844 -0.04 0.58 -0.81 0.05
1 2.47 247 1.226 -8.356 4.042 -18.799 -3.693 -19.592 -349.572 2006.593 -3518.658 -1.131 -0.919 -0.878 -0.04 0.58 -0.81 0.05
1 2.48 248 1.489 -8.351 4.089 -3.326 -0.549 -17.670 -529.455 1961.622 -3488.677 -1.320 -0.933 -0.956 -0.04 0.58 -0.81 0.04
1 2.49 249 1.547 -8.078 3.855 9.369 0.519 -17.120 -439.514 2141.655 -3578.619 -1.344 -1.202 -0.713 -0.04 0.58 -0.81 0.04
1 2.50 250 1.317 -7.757 3.821 11.780 -2.167 -16.693 -439.514 2141.655 -3578.619 -1.080 -1.514 -0.657 -0.04 0.58 -0.81 0.04
1 2.51 251 1.393 -7.853 3.893 6.317 -1.587 -14.801 -439.514 2141.655 -3578.619 -1.133 -1.413 -0.714 -0.05 0.58 -0.81 0.04
1 2.52 252 1.446 -8.136 4.046 -2.350 5.188 -8.087 -439.514 2141.655 -3578.619 -1.161 -1.126 -0.856 -0.05 0.58 -0.81 0.04
1 2.53 253 1.422 -8.595 3.884 -1.831 7.660 -4.944 -379.553 2126.665 -3593.609 -1.116 -0.663 -0.687 -0.05 0.58 -0.81 0.04
1 2.54 254 1.551 -8.979 3.601 0.458 8.850 -4.028 -469.494 2141.655 -3428.716 -1.233 -0.278 -0.400 -0.05 0.58 -0.81 0.04
1 2.55 255 1.877 -9.084 3.711 2.808 10.284 -2.594 -214.510 2216.606 -3398.736 -1.538 -0.168 -0.497 -0.05 0.58 -0.81 0.04
1 2.56 256 2.160 -9.184 3.658 2.045 14.160 -1.801 -364.562 2096.684 -3428.716 -1.811 -0.064 -0.436 -0.05 0.58 -0.81 0.04
1 2.57 257 2.064 -9.199 3.457 -0.580 17.456 -0.183 -364.562 2096.684 -3428.716 -1.708 -0.047 -0.228 -0.05 0.58 -0.81 0.03
1 2.58 258 1.853 -8.993 3.256 -2.930 16.998 -1.343 -364.562 2171.635 -3428.716 -1.493 -0.252 -0.026 -0.05 0.58 -0.81 0.03
1 2.59 259 1.729 -9.108 3.117 -7.660 16.510 -1.465 -364.562 2171.635 -3428.716 -1.363 -0.139 0.108 -0.05 0.58 -0.81 0.03
1 2.60 260 2.026 -9.295 3.227 -17.120 19.043 0.244 -439.514 2096.684 -3503.667 -1.655 0.044 -0.015 -0.04 0.58 -0.81 0.03
1 2.61 261 1.915 -9.165 3.007 -17.029 23.407 3.662 -319.592 2141.655 -3503.667 -1.541 -0.093 0.183 -0.04 0.58 -0.81 0.03
1 2.62 262 1.441 -8.888 2.768 -17.151 24.262 2.808 -469.494 2216.606 -3533.648 -1.076 -0.387 0.376 -0.04 0.58 -0.81 0.03
1 2.63 263 1.307 -8.686 2.691 -18.707 23.895 3.571 -469.494 2096.684 -3293.654 -0.950 -0.597 0.427 -0.04 0.58 -0.81 0.03
1 2.64 264 0.934 -8.337 2.265 -27.283 24.414 3.021 -469.494 2096.684 -3293.654 -0.587 -0.958 0.822 -0.04 0.58 -0.81 0.02
1 2.65 265 0.603 -8.380 2.050 -31.036 27.588 4.608 -394.543 2171.635 -3578.619 -0.273 -0.929 0.997 -0.04 0.59 -0.81 0.02
1 2.66 266 0.560 -9.017 1.408 -25.238 27.344 2.441 -394.543 2171.635 -3578.619 -0.250 -0.306 1.596 -0.04 0.59 -0.81 0.02
1 2.67 267 0.546 -8.385 1.441 -8.911 29.358 -3.326 -394.543 2096.684 -3353.615 -0.246 -0.951 1.524 -0.03 0.59 -0.81 0.02
1 2.68 268 0.833 -8.734 1.451 -15.533 29.694 -3.265 -199.520 2156.645 -3518.658 -0.541 -0.607 1.497 -0.03 0.59 -0.81 0.02
1 2.69 269 0.900 -9.285 1.365 -15.930 30.823 -3.662 -199.520 2156.645 -3518.658 -0.617 -0.062 1.565 -0.03 0.59 -0.81 0.02
1 2.70 270 1.044 -9.869 0.972 -4.181 30.670 -6.805 -439.514 2171.635 -3398.736 -0.767 0.504 1.900 -0.03 0.59 -0.8 0.02
1 2.71 271 0.934 -10.281 1.489 0.702 31.860 -8.728 -439.514 2171.635 -3398.736 -0.654 0.911 1.367 -0.03 0.59 -0.8 0.01
1 2.72 272 0.699 -10.573 1.599 3.632 30.792 -7.813 -154.549 2156.645 -3413.726 -0.415 1.200 1.249 -0.03 0.59 -0.8 0.01
1 2.73 273 0.407 -10.999 1.417 3.571 27.130 -7.874 -154.549 2156.645 -3413.726 -0.122 1.625 1.426 -0.02 0.6 -0.8 0.01
1 2.74 274 0.235 -11.320 1.207 6.653 26.062 -5.829 -289.461 2291.707 -3398.736 0.049 1.948 1.645 -0.02 0.59 -0.8 0.01
1 2.75 275 0.211 -11.454 1.264 8.728 26.672 -7.660 -349.572 2426.619 -3383.596 0.070 2.086 1.598 -0.02 0.59 -0.8 0.01
1 2.76 276 0.182 -11.411 0.915 10.864 27.618 -8.698 -349.572 2426.619 -3383.596 0.098 2.047 1.961 -0.02 0.59 -0.8 0
1 2.77 277 0.517 -11.435 0.876 13.763 27.588 -14.832 -124.569 2201.616 -3308.645 -0.232 2.082 2.035 -0.02 0.59 -0.81 0
1 2.78 278 0.895 -10.995 0.733 11.932 27.222 -15.625 -124.569 2201.616 -3308.645 -0.602 1.648 2.199 0.02 -0.59 0.81 0
1 2.79 279 0.919 -10.770 0.862 11.292 27.954 -15.137 -184.530 2171.635 -3398.736 -0.616 1.429 2.088 0.02 -0.59 0.81 0
1 2.80 280 1.427 -10.621 1.058 9.094 32.868 -17.365 -184.530 2171.635 -3398.736 -1.114 1.286 1.909 0.02 -0.59 0.81 0.01
1 2.81 281 1.489 -10.942 1.528 9.277 32.562 -20.081 -229.500 2231.596 -3383.596 -1.158 1.607 1.437 0.02 -0.59 0.81 0.01
1 2.82 282 0.618 -11.545 5.890 38.666 6.531 -31.586 -154.549 2201.616 -3383.596 -0.271 2.217 -2.906 0.01 -0.59 0.81 0.01
1 2.83 283 -1.829 -11.239 6.910 16.541 -9.949 -47.333 -154.549 2201.616 -3383.596 2.211 1.927 -3.879 0.01 -0.59 0.81 0.01
1 2.84 284 -2.528 -12.699 5.440 -25.116 -28.717 -60.394 -349.572 2156.645 -3413.726 3.075 3.399 -2.398 0.02 -0.59 0.81 0.02
1 2.85 285 -2.840 -11.449 6.273 -13.580 -19.196 -33.325 -349.572 2156.645 -3413.726 3.477 2.144 -3.265 0.03 -0.59 0.81 0.02
1 2.86 286 -2.777 -9.745 6.599 -13.580 -8.209 -10.529 -124.569 2081.694 -3413.726 3.459 0.436 -3.610 0.03 -0.59 0.81 0.02
1 2.87 287 -1.647 -8.428 6.096 -16.480 15.015 -6.500 -124.569 2081.694 -3413.726 2.343 -0.886 -3.128 0.03 -0.59 0.81 0.02
1 2.88 288 -0.091 -8.806 5.239 -25.940 27.252 6.928 -244.491 2096.684 -3398.736 0.775 -0.512 -2.283 0.03 -0.59 0.81 0.02
1 2.89 289 1.370 -10.113 5.344 -16.327 18.280 17.212 -244.491 2171.635 -3353.615 -0.723 0.786 -2.407 0.02 -0.59 0.81 0.02
1 2.90 290 2.509 -9.716 6.527 1.556 19.623 -0.488 -244.491 2171.635 -3353.615 -1.898 0.380 -3.611 0.02 -0.59 0.81 0.02
1 2.91 291 3.587 -8.983 6.431 -3.052 36.469 -14.832 -304.452 2156.645 -3308.645 -2.990 -0.354 -3.516 0.02 -0.59 0.81 0.02
1 2.92 292 3.357 -8.131 5.330 -15.106 44.922 -13.245 -79.598 2306.697 -3308.645 -2.756 -1.210 -2.426 0.02 -0.59 0.8 0.03
1 2.93 293 2.265 -7.901 4.793 -2.106 31.098 -12.939 -274.471 2232.346 -3235.492 -1.642 -1.436 -1.883 0.02 -0.59 0.8 0.03
1 2.94 294 1.302 -8.481 4.707 15.350 18.402 -13.763 -274.471 2232.346 -3235.492 -0.658 -0.848 -1.775 0.02 -0.59 0.81 0.03
1 2.95 295 0.781 -8.528 4.908 26.764 13.580 -6.714 -229.500 2202.215 -3385.395 -0.120 -0.786 -1.933 0.02 -0.59 0.81 0.04
1 2.96 296 -0.297 -9.012 4.971 19.562 14.984 -10.498 -184.380 2067.303 -3250.482 0.962 -0.284 -1.941 0.02 -0.59 0.81 0.04
1 2.97 297 -1.101 -9.759 4.937 7.233 14.710 -11.871 -184.380 2067.303 -3250.482 1.770 0.479 -1.860 0.02 -0.59 0.81 0.04
1 2.98 298 -1.844 -10.396 4.731 -1.526 11.932 -4.303 -244.491 2172.235 -3355.414 2.513 1.126 -1.625 0.01 -0.58 0.81 0.04
1 2.99 299 -2.121 -10.544 4.894 -1.923 11.169 19.470 -214.360 2172.235 -3250.482 2.778 1.272 -1.789 0.01 -0.58 0.81 0.04
1 3.00 300 -1.647 -10.046 4.822 1.038 13.123 31.891 -79.448 2157.245 -3265.473 2.266 0.772 -1.718 0.01 -0.58 0.81 0.04
1 3.01 301 -0.661 -9.347 4.640 -1.129 16.602 39.154 -79.448 2157.245 -3265.473 1.225 0.070 -1.533 0.01 -0.58 0.81 0.04
1 3.02 302 -0.302 -9.055 4.501 -6.928 21.515 41.290 -139.409 2067.303 -3325.434 0.796 -0.225 -1.391 0.01 -0.58 0.81 0.03
1 3.03 303 0.168 -8.873 4.319 -9.003 24.780 43.366 -49.468 2202.215 -3265.473 0.250 -0.410 -1.208 0 -0.58 0.81 0.03
1 3.04 304 0.388 -8.524 3.884 -9.277 27.039 43.610 -49.468 2202.215 -3265.473 -0.047 -0.764 -0.775 -0 -0.58 0.81 0.03
1 3.05 305 0.541 -8.188 3.711 -8.362 25.208 40.741 -79.448 2082.293 -3310.443 -0.276 -1.103 -0.606 -0 -0.58 0.81 0.03
1 3.06 306 0.685 -7.863 3.793 -6.317 22.492 33.783 40.474 2097.284 -3325.434 -0.552 -1.433 -0.694 -0.01 -0.58 0.81 0.03
1 3.07 307 0.661 -7.743 3.759 -5.554 22.827 31.281 -34.478 2067.303 -3325.434 -0.585 -1.557 -0.669 -0.01 -0.58 0.81 0.03
1 3.08 308 0.230 -7.590 3.520 -1.373 20.996 25.269 -34.478 2067.303 -3325.434 -0.205 -1.712 -0.434 -0.02 -0.59 0.81 0.02
1 3.09 309 -0.278 -7.724 3.285 1.648 18.372 21.881 40.474 2022.333 -3355.414 0.259 -1.578 -0.201 -0.02 -0.59 0.81 0.02
1 3.10 310 -0.910 -7.695 3.433 3.540 15.472 18.707 -109.429 2142.254 -3325.434 0.853 -1.605 -0.346 -0.02 -0.58 0.81 0.02
1 3.11 311 -1.652 -7.844 3.213 6.653 10.651 17.334 -109.429 2142.254 -3325.434 1.562 -1.455 -0.119 -0.02 -0.58 0.81 0.02
1 3.12 312 -2.083 -7.858 3.218 7.935 7.599 16.968 100.435 2202.215 -3265.473 1.962 -1.437 -0.115 -0.02 -0.58 0.81 0.02
1 3.13 313 -2.227 -7.863 3.261 10.254 4.822 16.632 85.444 1947.231 -3250.482 2.078 -1.428 -0.147 -0.02 -0.58 0.81 0.02
1 3.14 314 -2.299 -7.801 3.194 10.956 2.747 19.013 176.435 2157.994 -3163.239 2.089 -1.479 -0.048 -0.03 -0.58 0.81 0.02
1 3.15 315 -1.978 -7.877 3.223 9.247 -0.336 20.020 176.435 2157.994 -3163.239 1.740 -1.396 -0.063 -0.03 -0.58 0.81 0.02
1 3.16 316 -1.724 -7.920 3.170 9.125 -4.395 19.592 161.445 2022.932 -3478.184 1.459 -1.348 0.003 -0.03 -0.58 0.81 0.02
1 3.17 317 -1.657 -8.088 3.122 9.522 -7.996 18.127 116.474 2172.984 -3328.282 1.367 -1.175 0.065 -0.03 -0.58 0.81 0.01
1 3.18 318 -1.580 -8.256 2.978 8.026 -10.773 16.052 116.474 2172.984 -3328.282 1.264 -1.001 0.223 -0.03 -0.58 0.81 0.01
1 3.19 319 -1.882 -8.356 2.629 4.639 -16.357 11.719 26.533 2052.913 -3268.321 1.540 -0.896 0.585 -0.03 -0.58 0.81 0.01
1 3.20 320 -2.322 -8.414 2.413 1.740 -22.339 9.216 11.542 2067.903 -3298.301 1.959 -0.835 0.808 -0.03 -0.58 0.82 0.01
1 3.21 321 -2.461 -8.256 2.093 -8.728 -34.149 5.737 191.425 2172.984 -3328.282 2.070 -0.993 1.124 -0.03 -0.58 0.81 0
1 3.22 322 -2.433 -8.351 1.815 -20.752 -43.488 1.434 191.425 2172.984 -3328.282 2.037 -0.904 1.383 -0.03 -0.58 0.81 0
1 3.23 323 -2.193 -8.404 1.614 -32.288 -51.666 -0.488 56.513 2052.913 -3268.321 1.811 -0.864 1.549 0.02 0.58 -0.81 0
1 3.24 324 -1.805 -8.595 1.432 -40.711 -58.777 -2.197 86.494 2022.932 -3253.331 1.443 -0.690 1.680 0.02 0.58 -0.81 0
1 3.25 325 -1.202 -8.935 1.173 -43.366 -63.690 -7.263 86.494 2022.932 -3253.331 0.867 -0.372 1.877 0.02 0.59 -0.81 0.01
1 3.26 326 -0.354 -9.457 1.465 -32.990 -59.967 -8.881 -33.428 2097.883 -3223.200 0.053 0.127 1.516 0.01 0.59 -0.81 0.01
1 3.27 327 -0.105 -9.448 1.906 -22.461 -51.605 -1.740 -33.428 2262.926 -3298.301 -0.157 0.097 1.015 0.01 0.59 -0.81 0.01
1 3.28 328 -0.177 -9.486 1.858 -18.768 -46.539 9.186 -138.360 2142.854 -3328.282 -0.041 0.111 0.988 0 0.6 -0.8 0.02
1 3.29 329 -0.196 -9.529 1.930 -19.043 -46.692 11.444 -138.360 2142.854 -3328.282 -0.016 0.144 0.884 -0 0.6 -0.8 0.02
1 3.30 330 0.072 -9.721 2.126 -12.024 -41.443 17.365 -183.331 2022.932 -3178.229 -0.285 0.327 0.659 -0 0.6 -0.8 0.02
1 3.31 331 0.335 -9.812 2.370 -4.669 -36.286 20.996 -48.418 2082.893 -3313.292 -0.556 0.413 0.396 -0 0.6 -0.8 0.03
1 3.32 332 0.603 -9.817 2.255 1.862 -28.961 22.278 -48.418 2082.893 -3313.292 -0.837 0.416 0.505 -0.01 0.6 -0.8 0.03
1 3.33 333 1.140 -10.262 1.997 2.563 -24.231 23.102 -198.321 2157.994 -3193.220 -1.389 0.862 0.764 -0.01 0.6 -0.8 0.03
1 3.34 334 0.967 -10.080 1.595 2.106 -22.827 17.914 -288.412 2142.854 -3298.301 -1.230 0.680 1.165 -0.01 0.6 -0.8 0.03
1 3.35 335 0.455 -9.864 1.288 1.007 -20.111 7.141 -288.262 2143.454 -3299.950 -0.726 0.464 1.468 -0.01 0.6 -0.8 0.04
1 3.36 336 -1.063 -10.018 0.713 -6.775 -21.851 -3.967 -78.249 2083.343 -3269.970 0.806 0.611 2.023 -0.01 0.6 -0.8 0.04
1 3.37 337 -1.695 -9.864 0.201 -18.250 -35.156 -10.010 -198.171 2278.366 -3195.019 1.452 0.449 2.508 -0.01 0.6 -0.8 0.04
1 3.38 338 -1.906 -10.224 0.225 -30.914 -50.446 -21.393 -318.243 2338.477 -3104.927 1.688 0.795 2.437 -0.02 0.6 -0.8 0.04
1 3.39 339 -1.959 -10.789 0.484 -36.438 -54.962 -26.123 -318.243 2338.477 -3104.927 1.782 1.341 2.113 -0.02 0.61 -0.79 0.04
1 3.40 340 -1.370 -14.600 6.244 11.444 -23.621 -8.087 -183.181 2263.375 -3224.999 1.244 5.135 -3.707 -0.02 0.61 -0.79 0.04
1 3.41 341 -0.857 -13.796 6.283 52.246 31.311 25.421 -153.200 2278.366 -3059.957 0.764 4.328 -3.753 -0.03 0.61 -0.79 0.04
1 3.42 342 1.379 -14.653 5.612 -13.672 1.404 73.914 -153.200 2278.366 -3059.957 -1.504 5.205 -3.011 -0.03 0.61 -0.79 0.04
1 3.43 343 4.013 -12.800 3.994 -6.531 -4.028 120.758 -198.171 2353.467 -3089.937 -4.374 3.351 -1.419 -0.02 0.61 -0.79 0.05
1 3.44 344 3.773 -9.036 3.998 31.647 13.580 87.616 -288.262 2143.454 -3224.999 -4.306 -0.405 -1.423 -0.01 0.61 -0.79 0.06
1 3.45 345 2.744 -7.106 5.885 68.451 13.489 9.857 -303.252 2308.346 -3165.038 -3.364 -2.310 -3.243 -0.01 0.6 -0.79 0.06
1 3.46 346 1.619 -8.959 7.485 38.269 -12.299 -15.930 -303.252 2308.346 -3165.038 -2.213 -0.425 -4.726 -0.01 0.6 -0.8 0.06
1 3.47 347 0.455 -11.876 7.298 -25.269 -33.783 -3.296 -213.161 2143.454 -3104.927 -1.013 2.503 -4.489 -0.01 0.6 -0.8 0.06
1 3.48 348 -1.087 -12.829 6.038 -14.282 -21.759 7.813 -213.161 2173.434 -3224.999 0.545 3.442 -3.274 -0.01 0.6 -0.8 0.06
1 3.49 349 -0.891 -11.057 6.134 28.259 -13.031 13.397 -213.161 2173.434 -3224.999 0.350 1.661 -3.403 -0.02 0.6 -0.8 0.07
1 3.50 350 -1.475 -8.576 6.450 19.836 -22.339 9.674 -273.272 2158.444 -3195.019 0.912 -0.795 -3.640 -0.02 0.6 -0.8 0.07
1 3.51 351 -1.992 -8.256 6.240 1.709 -24.231 8.545 -273.272 2203.415 -3269.970 1.426 -1.111 -3.412 -0.02 0.6 -0.8 0.07
1 3.52 352 -2.902 -8.634 5.119 -24.994 -13.489 14.404 -363.213 2068.353 -3104.927 2.318 -0.731 -2.292 -0.02 0.6 -0.8 0.07
1 3.53 353 -2.208 -9.098 4.664 -7.813 -10.162 22.247 -363.213 2068.353 -3104.927 1.588 -0.268 -1.849 -0.02 0.6 -0.8 0.08
1 3.54 354 -0.781 -8.988 4.434 9.338 -13.275 29.511 -183.181 2263.375 -3254.979 0.117 -0.372 -1.608 -0.02 0.6 -0.8 0.08
1 3.55 355 1.331 -8.433 4.741 5.066 -12.512 26.520 -378.204 2353.467 -3239.989 -2.036 -0.916 -1.886 -0.02 0.6 -0.8 0.08
1 3.56 356 2.275 -8.519 4.516 -3.418 -2.869 14.008 -378.204 2353.467 -3239.989 -3.005 -0.820 -1.637 -0.02 0.59 -0.8 0.08
1 3.57 357 2.706 -8.433 4.051 -6.165 -1.007 1.831 -303.252 2278.366 -3059.957 -3.441 -0.902 -1.159 -0.02 0.59 -0.8 0.08
1 3.58 358 3.151 -8.437 3.745 -6.012 -10.834 -20.599 -363.213 2293.356 -3149.898 -3.828 -0.899 -0.845 -0.02 0.59 -0.8 0.08
1 3.59 359 3.050 -8.442 3.749 -8.698 -13.611 -34.973 -378.204 2128.463 -3165.038 -3.660 -0.899 -0.849 -0.02 0.59 -0.8 0.08
1 3.60 360 2.557 -8.763 3.539 -8.911 -12.421 -47.394 -378.204 2128.463 -3165.038 -3.079 -0.585 -0.642 -0.03 0.59 -0.8 0.08
1 3.61 361 1.959 -8.768 3.438 -3.174 -14.008 -54.413 -213.161 2173.434 -3224.999 -2.380 -0.586 -0.545 -0.03 0.59 -0.8 0.08
1 3.62 362 1.403 -8.610 3.227 2.747 -17.609 -56.030 -513.266 2338.477 -3104.927 -1.721 -0.747 -0.331 -0.03 0.59 -0.8 0.07
1 3.63 363 0.603 -8.160 3.213 5.371 -23.224 -55.573 -513.266 2338.477 -3104.927 -0.819 -1.197 -0.307 -0.04 0.59 -0.8 0.07
1 3.64 364 0.024 -8.078 3.194 3.601 -18.951 -51.819 -288.262 2218.405 -3224.999 -0.141 -1.276 -0.275 -0.04 0.59 -0.8 0.07
1 3.65 365 -0.603 -7.954 3.251 0.641 -9.308 -39.002 -348.223 2128.463 -3195.019 0.644 -1.396 -0.317 -0.05 0.59 -0.8 0.06
1 3.66 366 -1.135 -7.619 3.046 -1.190 -7.904 -33.386 -588.217 2098.483 -3180.028 1.233 -1.731 -0.111 -0.05 0.59 -0.8 0.06
1 3.67 367 -0.781 -7.638 3.050 -3.967 -8.698 -30.335 -588.217 2098.483 -3180.028 0.929 -1.712 -0.118 -0.05 0.59 -0.8 0.06
1 3.68 368 -0.153 -7.547 2.998 -3.693 -10.345 -27.710 -618.197 2143.454 -3149.898 0.348 -1.804 -0.072 -0.06 0.59 -0.8 0.06
1 3.69 369 0.532 -7.810 2.998 -0.610 -8.637 -23.682 -528.256 2128.463 -3195.019 -0.293 -1.542 -0.077 -0.06 0.59 -0.8 0.06
1 3.70 370 1.164 -8.040 3.060 14.252 3.021 -12.726 -528.256 2128.463 -3195.019 -0.890 -1.310 -0.139 -0.06 0.59 -0.8 0.06
1 3.71 371 1.058 -7.494 3.012 23.590 6.897 -7.721 -513.266 2218.405 -3180.028 -0.765 -1.851 -0.074 -0.06 0.59 -0.8 0.06
1 3.72 372 1.015 -7.264 3.251 15.625 4.028 -0.488 -558.236 2083.343 -3134.908 -0.709 -2.060 -0.251 -0.06 0.59 -0.81 0.06
1 3.73 373 1.106 -7.432 3.357 11.810 3.937 1.801 -513.266 2218.405 -3224.999 -0.803 -1.886 -0.337 -0.06 0.59 -0.81 0.06
1 3.74 374 1.714 -7.949 3.251 10.162 7.813 7.446 -513.266 2218.405 -3224.999 -1.420 -1.365 -0.219 -0.06 0.58 -0.81 0.06
1 3.75 375 1.954 -8.313 3.151 16.754 8.850 11.475 -603.207 2203.415 -3165.038 -1.675 -0.996 -0.101 -0.06 0.58 -0.81 0.06
1 3.76 376 2.097 -8.591 3.089 19.653 5.676 12.756 -588.217 2173.434 -3180.028 -1.827 -0.709 -0.010 -0.06 0.58 -0.81 0.06
1 3.77 377 1.963 -8.758 3.055 16.449 2.045 13.153 -588.217 2173.434 -3180.028 -1.700 -0.532 0.053 -0.06 0.58 -0.81 0.06
1 3.78 378 1.772 -8.749 3.069 12.482 4.791 13.519 -408.184 2158.444 -3239.989 -1.515 -0.533 0.064 -0.06 0.58 -0.81 0.06
1 3.79 379 1.604 -8.557 2.955 9.552 6.500 14.557 -408.184 2158.444 -3239.989 -1.355 -0.718 0.199 -0.06 0.58 -0.81 0.06
1 3.80 380 1.087 -8.308 3.031 7.690 4.700 16.724 -363.213 2173.434 -3224.999 -0.865 -0.958 0.150 -0.05 0.58 -0.81 0.06
1 3.81 381 1.044 -8.222 2.931 3.906 2.563 15.991 -363.213 2173.434 -3224.999 -0.839 -1.041 0.262 -0.05 0.58 -0.81 0.06
1 3.82 382 0.972 -8.375 2.806 -4.059 3.296 15.167 -438.165 2098.483 -3180.028 -0.791 -0.887 0.390 -0.05 0.58 -0.81 0.06
1 3.83 383 0.570 -9.199 2.442 -1.892 6.378 12.207 -408.184 2158.444 -3239.989 -0.409 -0.067 0.746 -0.05 0.58 -0.81 0.06
1 3.84 384 0.081 -8.107 2.409 8.270 8.606 6.805 -408.184 2158.444 -3239.989 0.063 -1.159 0.778 -0.05 0.58 -0.81 0.06
1 3.85 385 0.072 -8.021 2.342 -3.540 10.498 1.740 -453.155 2053.362 -3269.970 0.058 -1.242 0.856 -0.05 0.58 -0.81 0.06
1 3.86 386 0.541 -8.021 2.289 -13.763 12.146 -3.998 -453.155 2053.362 -3269.970 -0.420 -1.242 0.908 -0.05 0.58 -0.81 0.06
1 3.87 387 1.384 -8.303 1.820 -13.886 14.648 -10.254 -408.184 2158.444 -3195.019 -1.261 -0.973 1.339 -0.05 0.58 -0.81 0.06
1 3.88 388 1.585 -8.595 1.686 -10.712 16.632 -10.803 -408.184 2158.444 -3195.019 -1.454 -0.687 1.455 -0.05 0.58 -0.81 0.06
1 3.89 389 1.499 -8.926 1.801 -11.169 16.480 -6.928 -513.266 2098.483 -3254.979 -1.351 -0.364 1.317 -0.05 0.58 -0.81 0.05
1 3.90 390 1.355 -9.338 1.733 -11.292 15.595 -5.249 -408.184 2128.463 -3239.989 -1.195 0.040 1.360 -0.05 0.58 -0.81 0.05
1 3.91 391 1.255 -9.797 1.786 -9.796 15.595 -4.425 -408.184 2128.463 -3239.989 -1.085 0.492 1.283 -0.05 0.58 -0.81 0.05
1 3.92 392 1.068 -10.291 1.954 -8.942 18.677 -6.989 -348.223 2203.415 -3134.908 -0.891 0.978 1.093 -0.05 0.59 -0.81 0.05
1 3.93 393 1.111 -10.741 1.901 -10.407 20.935 -8.911 -348.223 2203.415 -3134.908 -0.925 1.421 1.124 -0.05 0.59 -0.81 0.05
1 3.94 394 0.958 -11.162 1.623 -9.155 18.646 -5.096 -408.184 2128.463 -3195.019 -0.762 1.831 1.364 -0.05 0.59 -0.81 0.05
1 3.95 395 0.905 -11.215 1.374 -8.545 17.883 -4.730 -408.184 2128.463 -3195.019 -0.710 1.879 1.601 -0.05 0.59 -0.81 0.04
1 3.96 396 1.240 -11.478 1.111 -7.690 22.675 -3.540 -453.155 2278.366 -3269.970 -1.047 2.139 1.853 -0.04 0.59 -0.81 0.04
1 3.97 397 1.772 -11.445 0.843 -7.904 23.773 -7.843 -378.204 2083.343 -3195.019 -1.584 2.102 2.111 -0.04 0.59 -0.81 0.04
1 3.98 398 2.203 -11.569 0.723 -6.561 23.254 -9.918 -378.204 2083.343 -3195.019 -2.012 2.223 2.219 -0.04 0.59 -0.81 0.04
1 3.99 399 2.509 -12.359 4.348 15.717 24.109 -15.167 -228.151 2053.362 -3344.921 -2.315 3.011 -1.413 -0.04 0.59 -0.81 0.04
1 4.00 400 1.652 -12.230 7.149 41.687 -0.702 -25.177 -228.151 2053.362 -3344.921 -1.450 2.887 -4.200 -0.04 0.59 -0.81 0.04
1 4.01 401 -0.886 -11.919 8.160 -4.181 -21.271 -30.945 -363.213 2173.434 -3149.898 1.117 2.593 -5.156 -0.04 0.59 -0.81 0.04
1 4.02 402 -2.308 -12.532 5.449 -46.356 -39.917 -52.246 -273.272 2308.346 -3344.921 2.672 3.198 -2.485 -0.05 0.59 -0.81 0.03
1 4.03 403 -2.729 -12.144 5.272 -32.196 -30.426 -44.006 -378.204 2353.467 -3134.908 3.185 2.793 -2.374 -0.05 0.59 -0.8 0.03
1 4.04 404 -3.093 -9.721 5.890 -8.545 -25.543 -18.158 -378.204 2278.366 -3134.908 3.616 0.362 -3.030 -0.06 0.59 -0.8 0.03
1 4.05 405 -2.112 -8.160 6.369 -1.343 -17.883 -4.456 -378.204 2278.366 -3134.908 2.664 -1.201 -3.520 -0.06 0.59 -0.8 0.03
1 4.06 406 -0.862 -8.399 5.971 -15.381 4.242 -10.742 -453.155 2278.366 -3239.989 1.417 -0.959 -3.115 -0.06 0.59 -0.8 0.03
1 4.07 407 0.723 -9.477 5.832 -18.951 25.116 -12.116 -453.155 2278.366 -3239.989 -0.168 0.119 -2.975 -0.06 0.59 -0.8 0.03
1 4.08 408 0.287 -10.961 6.886 -8.575 35.217 -18.066 -558.236 2278.366 -3195.019 0.272 1.601 -4.035 -0.06 0.59 -0.8 0.03
1 4.09 409 0.436 -10.631 6.029 17.487 36.347 -29.083 -588.217 2443.408 -3044.966 0.152 1.273 -3.179 -0.05 0.59 -0.8 0.02
1 4.10 410 1.384 -10.391 5.804 26.428 41.474 -24.048 -483.135 2158.444 -3089.937 -0.772 1.044 -2.922 -0.05 0.59 -0.8 0.02
1 4.11 411 2.327 -9.620 5.531 29.083 37.781 -21.423 -438.165 2218.405 -3149.898 -1.701 0.288 -2.605 -0.05 0.59 -0.81 0.02
1 4.12 412 2.945 -9.117 5.737 18.951 25.147 -27.466 -438.165 2218.405 -3149.898 -2.302 -0.200 -2.768 -0.05 0.59 -0.81 0.01
1 4.13 413 2.935 -9.357 5.469 -1.343 18.402 -28.595 -303.252 2128.463 -3314.940 -2.263 0.048 -2.478 -0.05 0.59 -0.81 0.01
1 4.14 414 1.015 -10.353 4.760 -13.031 18.677 -16.602 -303.252 2128.463 -3314.940 -0.313 1.045 -1.775 -0.05 0.59 -0.81 0.01
1 4.15 415 -0.757 -10.487 4.635 -7.721 19.562 -7.477 -453.155 2353.467 -3195.019 1.477 1.175 -1.667 -0.05 0.59 -0.81 0.01
1 4.16 416 -2.332 -10.070 4.247 -3.906 18.738 10.071 -513.266 2218.405 -3104.927 3.049 0.753 -1.295 -0.05 0.59 -0.81 0
1 4.17 417 -2.504 -9.558 4.013 -5.219 17.242 16.663 -378.204 2233.395 -3239.989 3.195 0.237 -1.065 -0.05 0.59 -0.81 0
1 4.18 418 -1.461 -8.686 4.070 -14.557 11.780 29.083 -468.145 2263.375 -3299.950 2.086 -0.640 -1.126 -0.04 0.59 -0.81 0.01
1 4.19 419 -0.690 -8.572 3.884 -19.501 14.710 33.173 -468.145 2263.375 -3299.950 1.250 -0.763 -0.952 -0.04 0.59 -0.81 0.01
1 4.20 420 -0.613 -8.768 3.941 -17.975 22.797 38.239 -243.142 2338.477 -3254.979 1.106 -0.576 -1.027 -0.04 0.59 -0.81 0.01
1 4.21 421 -0.771 -8.457 3.520 -7.538 31.952 44.464 -243.142 2338.477 -3254.979 1.189 -0.895 -0.619 -0.03 0.59 -0.8 0.01
1 4.22 422 -1.073 -8.035 3.256 -1.709 30.426 42.542 -318.243 2293.356 -3180.028 1.406 -1.321 -0.360 -0.03 0.59 -0.8 0.01
1 4.23 423 -1.034 -7.451 3.366 -0.732 24.536 36.804 -363.213 2368.457 -3180.028 1.283 -1.907 -0.467 -0.03 0.59 -0.8 0.01
1 4.24 424 -0.666 -6.891 3.390 -6.775 17.639 26.703 -213.161 2443.408 -3224.999 0.793 -2.471 -0.496 -0.02 0.59 -0.8 0.02
1 4.25 425 -0.503 -6.872 3.256 -9.033 14.252 18.921 -138.210 2293.356 -3074.947 0.587 -2.494 -0.372 -0.02 0.59 -0.8 0.02
1 4.26 426 -0.383 -6.867 3.137 -6.287 13.641 14.618 -138.210 2293.356 -3074.947 0.436 -2.503 -0.265 -0.02 0.59 -0.8 0.02
1 4.27 427 -0.527 -6.876 3.007 1.617 12.695 13.672 -213.161 2263.375 -3180.028 0.553 -2.495 -0.142 -0.01 0.59 -0.8 0.02
1 4.28 428 -1.068 -6.991 2.907 15.137 9.155 12.878 -213.161 2263.375 -3180.028 1.069 -2.379 -0.035 -0.01 0.59 -0.8 0.02
1 4.29 429 -1.566 -6.666 2.969 19.409 5.524 11.658 -213.161 2443.408 -3149.898 1.544 -2.698 -0.079 -0.01 0.59 -0.8 0.02
1 4.30 430 -2.050 -6.670 3.007 18.677 -0.153 9.430 -153.200 2383.447 -3239.989 2.008 -2.685 -0.090 -0.01 0.59 -0.81 0.02
1 4.31 431 -2.495 -7.245 2.993 14.435 -11.261 8.759 -183.181 2338.477 -3329.931 2.428 -2.094 -0.024 -0.01 0.59 -0.81 0.02
1 4.32 432 -2.409 -7.681 3.022 14.862 -17.792 9.125 -213.161 2413.428 -3180.028 2.335 -1.652 -0.032 -0.01 0.59 -0.81 0.02
1 4.33 433 -2.136 -7.939 3.031 17.059 -19.836 8.087 -213.161 2413.428 -3180.028 2.058 -1.386 -0.019 -0.01 0.59 -0.81 0.02
1 4.34 434 -2.093 -8.279 2.950 20.569 -19.074 7.446 -183.181 2293.356 -3224.999 2.014 -1.038 0.088 -0.01 0.59 -0.81 0.03
1 4.35 435 -1.978 -8.270 2.945 23.499 -19.287 8.057 -183.181 2293.356 -3224.999 1.882 -1.036 0.126 -0.01 0.59 -0.81 0.03
1 4.36 436 -1.848 -8.011 2.667 18.829 -23.560 8.728 -243.142 2263.375 -3180.028 1.736 -1.283 0.439 -0.01 0.58 -0.81 0.03
1 4.37 437 -1.978 -7.973 2.691 13.153 -27.466 7.904 -198.171 2353.467 -3389.892 1.865 -1.311 0.443 -0.02 0.58 -0.81 0.03
1 4.38 438 -2.078 -8.495 2.117 1.434 -36.560 2.686 -198.171 2233.395 -3269.970 1.974 -0.779 1.050 -0.02 0.58 -0.81 0.03
1 4.39 439 -2.016 -8.912 1.906 -3.082 -39.856 1.312 -288.262 2263.375 -3359.911 1.912 -0.364 1.256 -0.02 0.58 -0.81 0.04
1 4.40 440 -1.298 -9.405 1.681 -14.404 -52.216 -10.376 -288.262 2263.375 -3359.911 1.208 0.122 1.460 -0.02 0.58 -0.81 0.04
1 4.41 441 -0.512 -9.893 1.868 -16.083 -54.566 -10.040 -288.262 2293.356 -3224.999 0.454 0.600 1.242 -0.03 0.58 -0.81 0.04
1 4.42 442 0.067 -10.204 2.155 -16.693 -52.704 -0.244 -288.262 2293.356 -3224.999 -0.095 0.900 0.922 -0.03 0.58 -0.81 0.04
1 4.43 443 0.795 -10.271 1.801 -18.341 -49.774 9.064 -228.151 2233.395 -3314.940 -0.801 0.956 1.244 -0.03 0.59 -0.81 0.05
1 4.44 444 0.852 -10.113 1.954 -19.501 -48.798 10.925 -438.165 2338.477 -3180.028 -0.843 0.787 1.055 -0.04 0.59 -0.81 0.05
1 4.45 445 1.049 -9.955 2.476 -19.562 -45.075 11.261 -438.165 2338.477 -3180.028 -1.026 0.617 0.496 -0.04 0.59 -0.81 0.05
1 4.46 446 1.044 -9.994 2.610 -19.501 -36.377 13.428 -408.184 2203.415 -3314.940 -1.002 0.633 0.292 -0.04 0.59 -0.8 0.06
1 4.47 447 0.795 -10.152 2.639 -13.641 -29.266 14.862 -408.184 2203.415 -3314.940 -0.748 0.782 0.233 -0.05 0.59 -0.8 0.06
1 4.48 448 0.541 -9.750 2.318 -5.524 -23.895 22.278 -393.194 2443.408 -3359.911 -0.499 0.374 0.534 -0.05 0.59 -0.8 0.06
1 4.49 449 0.340 -9.161 1.844 -2.289 -23.163 20.844 -393.194 2443.408 -3359.911 -0.316 -0.218 0.998 -0.05 0.59 -0.8 0.06
1 4.50 450 0.115 -8.643 1.130 -5.402 -29.022 14.526 -483.135 2428.418 -3344.921 -0.105 -0.738 1.702 -0.05 0.59 -0.8 0.06
1 4.51 451 -0.172 -8.916 0.330 -11.505 -39.948 2.930 -558.236 2428.418 -3269.970 0.178 -0.470 2.488 -0.05 0.59 -0.8 0.07
1 4.52 452 -0.709 -9.376 0.694 -9.399 -45.380 -4.364 -558.236 2428.418 -3269.970 0.725 -0.015 2.108 -0.05 0.6 -0.8 0.07
1 4.53 453 -1.025 -11.995 6.594 2.258 -38.086 -2.106 -528.256 2233.395 -3239.989 1.079 2.590 -3.843 -0.06 0.6 -0.8 0.07
1 4.54 454 0.421 -16.090 6.857 14.221 -4.944 21.423 -528.256 2233.395 -3239.989 -0.356 6.687 -4.096 -0.06 0.6 -0.8 0.07
1 4.55 455 2.265 -16.875 5.018 2.777 -2.686 82.581 -378.204 2308.346 -3165.038 -2.252 7.476 -2.242 -0.06 0.6 -0.8 0.08
1 4.56 456 2.605 -14.093 3.515 30.518 11.261 94.452 -378.204 2308.346 -3165.038 -2.720 4.699 -0.725 -0.05 0.6 -0.8 0.08
1 4.57 457 2.246 -10.592 2.672 19.592 7.904 70.832 -588.217 2413.428 -3224.999 -2.497 1.214 0.161 -0.05 0.59 -0.8 0.09
1 4.58 458 -0.306 -9.544 4.070 5.341 -7.965 10.864 -393.194 2488.379 -3254.979 -0.032 0.176 -1.213 -0.05 0.59 -0.8 0.09
1 4.59 459 -1.829 -12.374 5.689 -9.491 -20.630 8.026 -393.194 2488.379 -3254.979 1.479 3.012 -2.813 -0.05 0.59 -0.8 0.09
1 4.60 460 -2.303 -14.505 6.728 4.883 -24.902 -1.923 -288.262 2368.457 -3299.950 1.958 5.139 -3.865 -0.05 0.59 -0.8 0.09
1 4.61 461 -2.773 -13.805 7.192 15.350 -18.524 1.221 -288.262 2368.457 -3299.950 2.437 4.444 -4.314 -0.05 0.59 -0.8 0.1
1 4.62 462 -2.983 -10.659 6.670 17.761 -6.714 23.285 -453.155 2353.467 -3165.038 2.637 1.308 -3.759 -0.05 0.59 -0.8 0.1
1 4.63 463 -1.293 -9.113 6.527 0.977 -29.236 32.440 -453.155 2353.467 -3165.038 0.913 -0.231 -3.595 -0.05 0.59 -0.8 0.1
1 4.64 464 1.451 -7.652 6.153 -7.263 -49.408 17.670 -408.184 2353.467 -3239.989 -1.860 -1.691 -3.224 -0.05 0.59 -0.8 0.1
1 4.65 465 1.614 -7.810 6.551 11.322 -26.276 6.500 -453.155 2278.366 -3269.970 -2.026 -1.528 -3.606 -0.05 0.59 -0.8 0.11
1 4.66 466 1.192 -8.605 6.393 25.116 -9.674 17.609 -453.155 2278.366 -3269.970 -1.587 -0.722 -3.410 -0.05 0.59 -0.8 0.11
1 4.67 467 0.675 -8.337 5.550 18.982 -17.304 28.931 -438.165 2263.375 -3254.979 -1.069 -0.970 -2.507 -0.05 0.58 -0.8 0.11
1 4.68 468 1.082 -8.179 5.248 -0.793 -26.276 26.764 -603.207 2473.389 -3344.921 -1.519 -1.098 -2.121 -0.05 0.58 -0.8 0.11
1 4.69 469 1.724 -8.174 5.459 -1.129 -13.672 18.036 -318.243 2413.428 -3254.979 -2.175 -1.097 -2.316 -0.06 0.58 -0.8 0.12
1 4.70 470 2.265 -8.030 4.971 2.258 -2.777 8.240 -318.243 2413.428 -3254.979 -2.718 -1.235 -1.809 -0.06 0.58 -0.8 0.12
1 4.71 471 2.442 -7.657 4.525 -1.648 -5.676 -3.693 -378.204 2383.447 -3195.019 -2.882 -1.602 -1.345 -0.06 0.58 -0.81 0.12
1 4.72 472 2.404 -7.844 4.449 -14.801 -9.857 -21.820 -453.155 2428.418 -3389.892 -2.810 -1.414 -1.260 -0.06 0.58 -0.81 0.12
1 4.73 473 2.059 -8.457 4.147 -19.653 -4.242 -32.684 -453.155 2428.418 -3389.892 -2.412 -0.805 -0.962 -0.06 0.58 -0.81 0.12
1 4.74 474 1.240 -9.017 3.984 -15.717 1.129 -39.795 -483.135 2353.467 -3239.989 -1.528 -0.252 -0.814 -0.06 0.58 -0.81 0.11
1 4.75 475 0.460 -8.500 3.625 -3.937 2.014 -43.060 -513.266 2413.428 -3299.950 -0.609 -0.780 -0.479 -0.07 0.58 -0.81 0.11
1 4.76 476 0.321 -8.069 3.735 -2.075 -1.251 -46.539 -453.155 2353.467 -3239.989 -0.404 -1.212 -0.588 -0.07 0.58 -0.81 0.1
1 4.77 477 0.436 -7.968 3.711 -6.012 -3.357 -52.033 -453.155 2353.467 -3239.989 -0.447 -1.312 -0.561 -0.07 0.58 -0.81 0.1
1 4.78 478 0.646 -8.150 3.740 -10.010 -1.251 -53.742 -453.005 2577.421 -3448.054 -0.579 -1.132 -0.596 -0.07 0.58 -0.81 0.1
1 4.79 479 0.982 -8.141 3.529 -9.338 1.831 -50.965 -543.096 2337.427 -3327.982 -0.836 -1.144 -0.396 -0.08 0.58 -0.81 0.09
1 4.80 480 1.030 -8.155 3.453 -2.930 5.524 -44.617 -543.096 2337.427 -3327.982 -0.809 -1.130 -0.326 -0.08 0.58 -0.81 0.09
1 4.81 481 1.092 -8.006 3.429 1.068 6.073 -41.962 -588.067 2412.378 -3357.962 -0.803 -1.277 -0.302 -0.08 0.58 -0.81 0.09
1 4.82 482 1.168 -7.853 3.510 0.275 11.108 -37.628 -588.067 2367.408 -3327.982 -0.761 -1.423 -0.374 -0.08 0.58 -0.81 0.08
1 4.83 483 1.049 -7.920 3.587 -2.594 16.388 -33.417 -723.129 2487.330 -3298.001 -0.595 -1.353 -0.451 -0.08 0.58 -0.81 0.08
1 4.84 484 0.991 -8.121 3.481 -3.693 20.996 -27.161 -723.129 2487.330 -3298.001 -0.500 -1.151 -0.348 -0.08 0.58 -0.81 0.08
1 4.85 485 0.891 -8.165 3.251 -0.854 23.895 -22.125 -723.129 2337.427 -3403.083 -0.372 -1.107 -0.119 -0.08 0.58 -0.81 0.07
1 4.86 486 0.963 -7.896 3.558 4.486 26.978 -16.510 -603.057 2382.398 -3312.992 -0.425 -1.372 -0.421 -0.08 0.58 -0.81 0.07
1 4.87 487 1.355 -7.547 3.314 9.125 31.769 -9.949 -603.057 2382.398 -3312.992 -0.810 -1.718 -0.166 -0.08 0.58 -0.81 0.07
1 4.88 488 1.614 -7.552 3.280 9.674 33.936 -7.050 -648.028 2487.330 -3403.083 -1.068 -1.708 -0.118 -0.08 0.58 -0.81 0.07
1 4.89 489 1.906 -7.772 3.467 7.568 35.004 -4.974 -588.067 2412.378 -3357.962 -1.365 -1.482 -0.288 -0.08 0.58 -0.81 0.06
1 4.90 490 1.781 -7.968 3.429 9.918 35.370 -2.899 -588.067 2592.411 -3508.015 -1.263 -1.278 -0.222 -0.08 0.58 -0.81 0.06
1 4.91 491 1.518 -8.150 3.261 16.022 35.492 -3.448 -588.067 2592.411 -3508.015 -1.009 -1.089 -0.034 -0.07 0.57 -0.81 0.06
1 4.92 492 1.183 -8.064 3.184 20.203 34.088 -4.059 -723.129 2337.427 -3433.063 -0.677 -1.165 0.073 -0.07 0.57 -0.81 0.06
1 4.93 493 0.828 -7.963 3.180 20.081 31.830 -5.280 -648.028 2487.330 -3478.034 -0.330 -1.254 0.110 -0.07 0.57 -0.82 0.05
1 4.94 494 0.555 -7.911 3.084 15.533 29.755 -4.669 -648.028 2487.330 -3478.034 -0.065 -1.297 0.236 -0.07 0.57 -0.82 0.05
1 4.95 495 0.244 -8.222 2.854 4.608 27.008 -3.754 -588.067 2292.457 -3327.982 0.237 -0.978 0.488 -0.07 0.57 -0.82 0.05
1 4.96 496 0.297 -8.548 2.729 1.495 28.320 -2.258 -438.015 2367.408 -3537.995 0.176 -0.649 0.623 -0.06 0.57 -0.82 0.05
1 4.97 497 0.316 -8.706 2.662 2.960 27.680 1.160 -393.044 2262.326 -3403.083 0.132 -0.489 0.698 -0.06 0.57 -0.82 0.05
1 4.98 498 0.752 -8.921 2.437 3.082 26.520 -0.977 -393.044 2262.326 -3403.083 -0.321 -0.274 0.925 -0.06 0.57 -0.82 0.05
1 4.99 499 0.924 -8.835 2.543 6.165 26.795 -1.404 -378.054 2352.417 -3418.073 -0.502 -0.360 0.822 -0.06 0.57 -0.82 0.04
1 5.00 500 0.771 -8.519 2.404 3.784 27.405 3.815 -408.034 2232.346 -3493.024 -0.359 -0.674 0.966 -0.06 0.57 -0.82 0.04
1 5.01 501 0.771 -8.610 2.351 -2.533 27.618 7.141 -408.034 2232.346 -3493.024 -0.377 -0.584 1.018 -0.05 0.57 -0.82 0.04
1 5.02 502 0.555 -8.605 2.231 -7.172 29.450 9.552 -288.112 2487.330 -3537.995 -0.184 -0.592 1.131 -0.05 0.57 -0.82 0.04
1 5.03 503 0.441 -8.730 2.097 -7.416 31.311 10.101 -288.112 2337.427 -3403.083 -0.095 -0.474 1.252 -0.05 0.57 -0.82 0.04
1 5.04 504 0.292 -8.706 1.978 -8.972 34.485 8.057 -438.015 2337.427 -3582.966 -0.005 -0.511 1.340 -0.04 0.57 -0.82 0.04
1 5.05 505 0.125 -8.864 1.901 -9.186 34.302 7.111 -438.015 2337.427 -3582.966 0.135 -0.361 1.397 -0.04 0.57 -0.82 0.04
1 5.06 506 0.230 -9.386 1.820 -8.789 34.546 4.852 -408.034 2352.417 -3567.976 0.003 0.152 1.457 -0.04 0.58 -0.82 0.04
1 5.07 507 0.168 -9.505 1.700 -6.622 33.875 3.448 -303.103 2307.447 -3567.976 0.042 0.265 1.557 -0.04 0.58 -0.82 0.04
1 5.08 508 0.062 -9.625 1.671 -6.897 30.975 1.831 -303.103 2307.447 -3567.976 0.126 0.377 1.566 -0.04 0.58 -0.81 0.03
1 5.09 509 0.192 -9.745 1.446 -7.629 28.900 -3.845 -242.992 2517.310 -3433.063 -0.020 0.490 1.771 -0.03 0.58 -0.81 0.03
1 5.10 510 0.220 -10.367 1.259 -9.186 27.680 -6.897 -348.073 2427.369 -3493.024 -0.060 1.104 1.937 -0.03 0.58 -0.81 0.03
1 5.11 511 0.350 -10.750 1.101 -7.080 25.269 -8.514 -348.073 2427.369 -3493.024 -0.193 1.479 2.070 -0.03 0.58 -0.81 0.03
1 5.12 512 0.484 -11.239 0.809 -1.831 20.294 -6.256 -153.050 2352.417 -3493.024 -0.327 1.956 2.329 -0.03 0.58 -0.81 0.03
1 5.13 513 0.838 -11.789 0.704 -1.892 16.785 -7.874 -138.060 2442.359 -3433.063 -0.681 2.506 2.433 -0.03 0.58 -0.81 0.02
1 5.14 514 1.288 -12.125 0.919 -3.357 18.127 -12.116 -273.122 2427.369 -3597.956 -1.126 2.841 2.214 -0.03 0.58 -0.81 0.02
1 5.15 515 1.623 -12.441 2.303 0.275 19.806 -15.503 -273.122 2427.369 -3597.956 -1.451 3.156 0.827 -0.03 0.58 -0.81 0.02
1 5.16 516 0.450 -13.734 7.164 34.821 -11.597 -24.017 -138.060 2337.427 -3433.063 -0.265 4.451 -4.028 -0.03 0.58 -0.81 0.02
1 5.17 517 -1.489 -13.044 8.725 12.787 -48.126 -34.424 -153.050 2502.320 -3643.077 1.705 3.775 -5.550 -0.03 0.58 -0.81 0.02
1 5.18 518 -2.021 -13.489 6.541 -42.664 -60.913 -52.185 -153.050 2502.320 -3643.077 2.301 4.233 -3.335 -0.03 0.58 -0.81 0.02
1 5.19 519 -2.050 -11.818 6.321 -27.985 -53.162 -30.304 -213.011 2412.378 -3478.034 2.519 2.532 -3.224 -0.04 0.58 -0.81 0.02
1 5.20 520 -1.604 -9.750 6.771 -15.259 -42.297 -22.034 -273.122 2352.417 -3523.005 2.137 0.454 -3.713 -0.05 0.58 -0.81 0.02
1 5.21 521 -0.982 -8.423 6.627 -22.247 -21.301 -23.468 -183.031 2367.408 -3537.995 1.564 -0.877 -3.594 -0.05 0.59 -0.81 0.02
1 5.22 522 -0.608 -8.552 5.540 -26.672 0.885 -2.441 -183.031 2367.408 -3537.995 1.219 -0.754 -2.531 -0.05 0.59 -0.81 0.02
1 5.23 523 0.455 -8.663 5.354 -12.848 8.820 9.918 -378.054 2382.398 -3597.956 0.147 -0.652 -2.368 -0.05 0.59 -0.81 0.02
1 5.24 524 1.896 -8.974 6.479 7.935 5.676 3.845 -408.034 2502.320 -3523.005 -1.316 -0.340 -3.487 -0.05 0.59 -0.81 0.02
1 5.25 525 2.725 -8.069 7.633 2.808 20.691 -14.252 -408.034 2502.320 -3523.005 -2.154 -1.240 -4.624 -0.05 0.59 -0.81 0.02
1 5.26 526 3.304 -7.671 6.824 -22.766 51.819 -31.159 -483.135 2547.440 -3597.956 -2.708 -1.637 -3.816 -0.05 0.59 -0.81 0.01
1 5.27 527 2.993 -7.619 6.158 -26.215 53.711 -30.151 -348.073 2427.369 -3567.976 -2.367 -1.692 -3.166 -0.05 0.59 -0.81 0.01
1 5.28 528 1.915 -7.916 5.014 -17.090 28.015 -22.430 -438.015 2487.330 -3478.034 -1.259 -1.396 -2.029 -0.04 0.59 -0.81 0
1 5.29 529 1.307 -8.988 5.727 -0.214 9.827 -21.454 -438.015 2487.330 -3478.034 -0.618 -0.321 -2.743 -0.04 0.59 -0.81 0
1 5.30 530 0.766 -9.740 5.818 24.017 14.984 -12.177 -303.103 2472.339 -3493.024 -0.048 0.442 -2.806 0.04 -0.59 0.81 0
1 5.31 531 -0.862 -9.582 4.956 36.560 41.840 -6.165 -348.073 2577.421 -3567.976 1.586 0.299 -1.901 0.04 -0.58 0.81 0
1 5.32 532 -2.332 -9.520 4.496 18.372 35.217 -3.357 -348.073 2577.421 -3567.976 3.047 0.255 -1.384 0.04 -0.58 0.81 0
1 5.33 533 -3.022 -9.534 4.324 -4.608 15.869 2.289 -228.001 2622.392 -3597.956 3.716 0.282 -1.168 0.04 -0.58 0.81 0.01
1 5.34 534 -2.040 -9.697 4.338 -18.189 7.141 19.348 -228.001 2622.392 -3567.976 2.668 0.439 -1.188 0.04 -0.58 0.81 0.01
1 5.35 535 -0.872 -9.869 4.051 -9.399 16.602 31.464 -318.093 2487.330 -3357.962 1.463 0.601 -0.923 0.03 -0.58 0.81 0.01
1 5.36 536 -0.148 -9.596 3.869 -0.214 24.323 38.300 -318.093 2487.330 -3357.962 0.671 0.323 -0.743 0.03 -0.58 0.81 0
1 5.37 537 0.220 -9.079 3.807 -0.153 26.337 42.328 -242.992 2487.330 -3582.966 0.228 -0.196 -0.674 0.03 -0.58 0.81 0
1 5.38 538 0.239 -8.844 3.678 -8.453 24.841 43.030 -228.001 2577.421 -3493.024 0.134 -0.432 -0.541 0.02 -0.58 0.81 0
1 5.39 539 0.158 -8.370 3.443 -16.205 19.562 41.412 -228.001 2577.421 -3493.024 0.143 -0.912 -0.315 -0.02 0.58 -0.81 0
1 5.40 540 0.488 -8.050 3.223 -12.146 17.334 38.605 -138.060 2442.359 -3537.995 -0.258 -1.241 -0.112 -0.02 0.58 -0.81 0
1 5.41 541 0.742 -7.590 3.242 -4.120 16.480 32.715 -108.080 2367.408 -3582.966 -0.635 -1.712 -0.158 -0.01 0.59 -0.81 0.01
1 5.42 542 0.656 -7.485 3.060 -2.716 16.357 27.649 -213.011 2487.330 -3478.034 -0.601 -1.819 0.019 -0.01 0.59 -0.81 0.01
1 5.43 543 0.129 -7.504 2.988 -1.709 15.747 24.048 -213.011 2487.330 -3478.034 -0.121 -1.801 0.088 -0.01 0.59 -0.81 0.01
1 5.44 544 -0.503 -7.638 2.931 3.815 14.038 21.149 -78.099 2547.440 -3523.005 0.471 -1.667 0.144 -0 0.59 -0.81 0.01
1 5.45 545 -1.250 -7.647 3.026 12.695 11.231 16.937 -123.070 2547.440 -3523.005 1.184 -1.655 0.057 -0 0.59 -0.81 0.01
1 5.46 546 -2.050 -7.647 2.964 24.994 6.592 13.001 -123.070 2547.440 -3523.005 1.956 -1.647 0.140 -0 0.58 -0.81 0.01
1 5.47 547 -2.409 -7.714 2.883 27.985 1.770 11.047 -3.598 2501.420 -3565.577 2.293 -1.569 0.255 -0 0.58 -0.81 0.01
1 5.48 548 -2.629 -7.839 3.055 29.144 -7.538 8.575 -48.718 2381.499 -3595.558 2.482 -1.416 0.163 0 0.58 -0.81 0.01
1 5.49 549 -2.615 -7.820 3.122 29.785 -9.399 7.965 11.243 2561.381 -3535.597 2.460 -1.421 0.138 0 0.58 -0.82 0.01
1 5.50 550 -2.198 -8.222 3.204 27.283 -10.895 4.791 11.243 2561.381 -3535.597 2.032 -1.003 0.099 0 0.58 -0.82 0.01
1 5.51 551 -1.954 -8.581 3.180 25.391 -9.705 5.432 41.223 2561.381 -3610.548 1.770 -0.630 0.163 0 0.57 -0.82 0.02
1 5.52 552 -1.173 -8.600 3.165 25.848 -9.308 7.813 -3.598 2306.397 -3595.558 0.973 -0.597 0.213 0 0.57 -0.82 0.02
1 5.53 553 -0.747 -8.385 2.854 21.393 -13.672 8.087 -3.598 2306.397 -3595.558 0.531 -0.798 0.561 0 0.57 -0.82 0.02
1 5.54 554 -0.541 -8.074 2.500 10.040 -19.836 7.080 101.184 2471.440 -3640.528 0.314 -1.097 0.947 0 0.57 -0.82 0.02
1 5.55 555 -0.402 -7.839 2.112 -3.784 -29.389 1.068 101.184 2471.440 -3640.528 0.172 -1.325 1.353 0 0.57 -0.82 0.02
1 5.56 556 -0.350 -8.193 1.939 -22.339 -42.053 -5.249 56.213 2276.417 -3670.509 0.154 -0.978 1.509 -0 0.57 -0.82 0.02
1 5.57 557 -0.570 -8.686 1.791 -29.755 -47.974 -5.798 56.213 2276.417 -3670.509 0.405 -0.498 1.624 -0.01 0.57 -0.82 0.02
1 5.58 558 -0.584 -9.098 1.700 -31.433 -52.765 -5.951 -3.598 2471.440 -3745.610 0.451 -0.104 1.668 -0.01 0.57 -0.82 0.03
1 5.59 559 -0.503 -9.290 1.911 -28.504 -52.887 -11.108 -3.598 2426.469 -3775.590 0.403 0.068 1.404 -0.01 0.58 -0.82 0.03
1 5.60 560 -0.010 -9.769 2.399 -17.914 -50.385 -13.092 -3.598 2426.469 -3775.590 -0.049 0.530 0.868 -0.02 0.58 -0.82 0.03
1 5.61 561 0.259 -9.649 2.428 -18.463 -51.666 -9.064 -33.578 2441.459 -3730.620 -0.274 0.398 0.805 -0.02 0.58 -0.81 0.03
1 5.62 562 0.283 -9.721 2.476 -19.867 -50.263 -2.197 -33.578 2441.459 -3730.620 -0.257 0.458 0.725 -0.02 0.58 -0.81 0.03
1 5.63 563 0.144 -9.960 2.950 -14.496 -40.711 10.864 -198.621 2381.499 -3700.639 -0.066 0.675 0.184 -0.03 0.58 -0.81 0.04
1 5.64 564 -0.110 -9.989 3.065 -4.242 -31.525 22.888 -198.621 2381.499 -3700.639 0.187 0.697 0.048 -0.03 0.58 -0.81 0.04
1 5.65 565 -0.105 -9.400 2.677 4.883 -23.071 29.602 -228.601 2501.420 -3745.610 0.160 0.106 0.431 -0.03 0.58 -0.81 0.04
1 5.66 566 -0.316 -9.103 2.016 5.341 -22.705 27.649 -303.702 2576.521 -3595.558 0.339 -0.189 1.098 -0.03 0.58 -0.81 0.04
1 5.67 567 -0.196 -8.955 1.365 0.885 -31.189 22.095 -303.702 2576.521 -3595.558 0.191 -0.338 1.749 -0.03 0.58 -0.81 0.05
1 5.68 568 -0.029 -9.098 0.958 -5.646 -50.720 8.606 -393.644 2366.508 -3865.532 0.010 -0.198 2.145 -0.03 0.58 -0.81 0.05
1 5.69 569 -0.206 -9.228 0.393 -9.094 -58.655 -0.549 -393.644 2366.508 -3865.532 0.194 -0.075 2.691 -0.04 0.58 -0.81 0.05
1 5.70 570 -0.441 -9.711 1.810 -6.805 -59.448 -7.874 -183.630 2486.430 -3730.620 0.452 0.400 1.247 -0.04 0.59 -0.81 0.05
1 5.71 571 -0.081 -13.973 8.907 33.447 -22.827 4.852 -228.601 2576.521 -3670.509 0.158 4.653 -5.878 -0.05 0.59 -0.81 0.06
1 5.72 572 3.050 -17.761 5.871 3.204 -4.852 67.017 -378.653 2501.420 -3670.509 -2.991 8.455 -2.798 -0.05 0.58 -0.81 0.06
1 5.73 573 4.583 -15.975 4.219 -3.143 -21.545 124.024 -468.595 2441.459 -3760.600 -4.641 6.667 -1.154 -0.04 0.58 -0.81 0.07
1 5.74 574 4.659 -13.116 3.635 34.973 15.167 102.448 -468.595 2439.811 -3756.553 -4.886 3.814 -0.558 -0.04 0.58 -0.81 0.07
1 5.75 575 -0.819 -7.240 4.195 56.549 23.926 -11.780 -318.692 2514.762 -3726.572 0.461 -2.038 -1.060 -0.03 0.58 -0.81 0.08
1 5.76 576 -2.816 -8.864 5.737 1.892 -17.822 -29.053 -318.692 2514.762 -3726.572 2.441 -0.386 -2.520 -0.03 0.58 -0.81 0.08
1 5.77 577 -2.959 -11.358 6.766 -63.629 -56.580 -22.461 -153.650 2649.824 -3696.592 2.622 2.120 -3.514 -0.03 0.58 -0.81 0.08
1 5.78 578 -3.606 -13.825 5.871 -54.474 -40.344 -31.036 -183.630 2409.830 -3756.553 3.394 4.523 -2.792 -0.04 0.58 -0.81 0.08
1 5.79 579 -3.036 -12.474 5.837 -9.308 -20.996 -1.587 -213.611 2514.762 -3831.504 2.877 3.152 -2.819 -0.05 0.59 -0.81 0.08
1 5.80 580 -1.489 -9.400 5.828 7.935 -30.487 25.696 -318.692 2634.833 -3861.634 1.330 0.077 -2.812 -0.05 0.59 -0.8 0.08
1 5.81 581 -0.019 -6.838 5.229 -0.732 -53.955 16.510 -318.692 2634.833 -3861.634 -0.160 -2.481 -2.203 -0.05 0.59 -0.8 0.08
1 5.82 582 1.044 -6.915 5.914 -16.449 -54.016 6.073 -393.644 2634.833 -3726.572 -1.214 -2.403 -2.882 -0.05 0.59 -0.8 0.08
1 5.83 583 0.690 -8.567 5.746 -19.287 -30.670 27.039 -393.644 2634.833 -3726.572 -0.839 -0.757 -2.733 -0.05 0.59 -0.8 0.09
1 5.84 584 0.417 -9.338 4.860 -10.345 -24.933 36.713 -318.692 2709.785 -3756.553 -0.572 0.013 -1.850 -0.06 0.59 -0.8 0.09
1 5.85 585 1.547 -9.606 4.645 -5.615 -26.367 38.666 -393.644 2589.863 -3651.621 -1.771 0.284 -1.630 -0.06 0.59 -0.8 0.1
1 5.86 586 2.284 -9.036 4.975 -3.326 -17.944 36.194 -483.585 2694.794 -3666.611 -2.540 -0.284 -1.956 -0.06 0.59 -0.8 0.1
1 5.87 587 3.199 -8.289 4.741 -1.526 -11.414 21.637 -408.634 2649.824 -3816.514 -3.485 -1.029 -1.718 -0.06 0.59 -0.8 0.1
1 5.88 588 3.879 -8.131 4.544 -7.263 -12.024 5.646 -408.634 2649.824 -3816.514 -4.160 -1.183 -1.510 -0.06 0.58 -0.8 0.1
1 5.89 589 3.826 -8.394 4.635 -15.930 -14.160 -6.775 -528.706 2694.794 -3741.562 -4.073 -0.921 -1.600 -0.06 0.58 -0.8 0.1
1 5.90 590 2.366 -9.055 4.353 -18.890 -2.716 -21.149 -528.706 2694.794 -3741.562 -2.562 -0.264 -1.328 -0.06 0.58 -0.8 0.1
1 5.91 591 0.838 -9.347 4.113 -10.315 1.587 -26.703 -303.702 2694.794 -3666.611 -0.980 0.022 -1.104 -0.06 0.59 -0.8 0.1
1 5.92 592 -0.441 -8.739 3.960 -2.289 -5.005 -28.931 -513.715 2634.833 -3681.602 0.395 -0.590 -0.960 -0.07 0.59 -0.8 0.09
1 5.93 593 -0.536 -8.409 4.051 -2.991 -7.263 -29.663 -393.644 2679.804 -3726.572 0.534 -0.919 -1.047 -0.07 0.58 -0.8 0.09
1 5.94 594 -0.148 -8.097 4.180 -15.839 -6.775 -34.424 -378.653 2694.794 -3666.611 0.193 -1.231 -1.178 -0.07 0.58 -0.8 0.09
1 5.95 595 -0.081 -8.126 3.807 -26.093 -2.563 -33.051 -378.653 2694.794 -3666.611 0.175 -1.207 -0.821 -0.07 0.59 -0.8 0.09
1 5.96 596 0.000 -8.064 3.687 -28.778 1.740 -29.389 -603.657 2649.824 -3741.562 0.139 -1.279 -0.732 -0.07 0.59 -0.8 0.09
1 5.97 597 0.115 -7.729 3.510 -18.158 3.448 -27.039 -603.657 2649.824 -3741.562 0.064 -1.623 -0.586 -0.07 0.59 -0.8 0.08
1 5.98 598 0.838 -7.868 3.261 -5.737 6.195 -32.074 -513.715 2634.833 -3726.572 -0.622 -1.491 -0.362 -0.07 0.59 -0.8 0.08
1 5.99 599 1.068 -7.427 3.486 16.480 10.925 -32.318 -513.715 2679.804 -3681.602 -0.811 -1.935 -0.602 -0.08 0.59 -0.8 0.08
1 6.00 600 0.977 -6.977 3.510 19.287 10.132 -17.792 -588.667 2634.833 -3531.549 -0.645 -2.369 -0.579 -0.08 0.59 -0.8 0.07
1 6.01 601 1.144 -6.843 3.529 13.611 2.777 -13.886 -543.696 2514.762 -3606.500 -0.793 -2.494 -0.572 -0.08 0.59 -0.8 0.07
1 6.02 602 1.451 -7.212 3.448 11.383 0.061 -11.566 -543.696 2514.762 -3606.500 -1.081 -2.118 -0.472 -0.08 0.59 -0.8 0.07
1 6.03 603 1.590 -7.427 3.405 13.031 2.747 -6.134 -633.637 2574.723 -3741.562 -1.205 -1.897 -0.412 -0.08 0.58 -0.8 0.07
1 6.04 604 1.551 -7.523 3.553 13.153 8.789 0.061 -633.637 2574.723 -3741.562 -1.163 -1.795 -0.542 -0.08 0.58 -0.81 0.07
1 6.05 605 1.437 -7.413 3.381 10.712 9.003 4.150 -603.657 2724.775 -3636.631 -1.051 -1.899 -0.349 -0.08 0.58 -0.81 0.07
1 6.06 606 1.255 -7.667 3.290 8.728 7.660 5.554 -618.647 2589.863 -3651.621 -0.877 -1.640 -0.241 -0.07 0.58 -0.81 0.07
1 6.07 607 1.403 -7.935 3.208 6.165 9.735 6.348 -648.627 2559.732 -3681.602 -1.049 -1.365 -0.136 -0.07 0.58 -0.81 0.07
1 6.08 608 1.250 -7.839 3.065 5.981 14.526 9.796 -693.598 2484.781 -3726.572 -0.911 -1.458 0.017 -0.07 0.58 -0.81 0.07
1 6.09 609 1.322 -7.834 3.098 5.035 17.426 10.590 -693.598 2484.781 -3726.572 -1.005 -1.461 -0.008 -0.07 0.58 -0.81 0.07
1 6.10 610 0.977 -7.815 3.002 4.425 18.646 10.895 -378.653 2574.723 -3696.592 -0.684 -1.478 0.095 -0.07 0.58 -0.81 0.07
1 6.11 611 0.958 -7.719 2.864 2.747 18.494 9.674 -378.653 2574.723 -3696.592 -0.689 -1.572 0.240 -0.07 0.58 -0.81 0.07
1 6.12 612 0.895 -8.078 2.619 -0.397 20.660 6.500 -558.686 2649.824 -3771.543 -0.649 -1.213 0.488 -0.07 0.58 -0.81 0.07
1 6.13 613 0.742 -8.294 2.677 0.244 21.484 3.967 -528.706 2619.843 -3666.611 -0.515 -0.998 0.431 -0.06 0.58 -0.81 0.07
1 6.14 614 0.541 -8.658 2.600 -1.770 20.203 1.373 -528.706 2619.843 -3666.611 -0.331 -0.634 0.508 -0.06 0.58 -0.81 0.07
1 6.15 615 0.661 -8.883 2.528 -2.075 20.111 0.824 -557.637 2615.346 -3840.198 -0.470 -0.412 0.573 -0.06 0.58 -0.81 0.07
1 6.16 616 0.575 -8.935 2.466 -0.793 24.628 0.854 -557.637 2615.346 -3840.198 -0.392 -0.361 0.630 -0.06 0.58 -0.81 0.07
1 6.17 617 0.594 -9.261 2.557 0.153 30.151 -0.336 -452.555 2765.398 -3660.166 -0.421 -0.036 0.536 -0.06 0.58 -0.81 0.06
1 6.18 618 0.584 -9.424 2.399 1.068 34.363 -2.014 -452.555 2765.398 -3660.166 -0.422 0.126 0.692 -0.06 0.58 -0.81 0.06
1 6.19 619 0.694 -9.740 2.433 5.493 35.675 -3.387 -377.604 2615.346 -3735.117 -0.542 0.441 0.656 -0.05 0.58 -0.81 0.06
1 6.20 620 0.814 -9.936 2.409 7.477 37.048 -3.296 -452.555 2570.375 -3870.179 -0.671 0.638 0.683 -0.05 0.58 -0.81 0.06
1 6.21 621 0.694 -10.123 2.327 9.094 37.384 -4.242 -452.555 2570.375 -3870.179 -0.559 0.826 0.769 -0.05 0.58 -0.81 0.06
1 6.22 622 0.594 -10.161 2.275 12.848 36.377 -5.707 -467.545 2705.288 -3825.208 -0.472 0.870 0.838 -0.05 0.58 -0.81 0.05
1 6.23 623 0.388 -10.185 2.078 13.062 34.638 -6.012 -467.545 2705.288 -3825.208 -0.271 0.897 1.046 -0.04 0.58 -0.81 0.05
1 6.24 624 0.168 -10.382 2.035 13.153 32.929 -7.263 -362.614 2630.336 -3750.107 -0.056 1.097 1.099 -0.04 0.58 -0.81 0.05
1 6.25 625 -0.306 -10.506 1.690 12.177 31.220 -6.775 -362.614 2630.336 -3750.107 0.413 1.225 1.453 -0.04 0.58 -0.81 0.05
1 6.26 626 -0.220 -10.583 1.494 11.475 29.785 -10.529 -347.624 2615.346 -3840.198 0.320 1.303 1.656 -0.04 0.58 -0.81 0.04
1 6.27 627 -0.038 -10.870 1.231 11.292 31.708 -10.376 -317.643 2555.385 -3720.126 0.136 1.591 1.922 -0.04 0.58 -0.81 0.04
1 6.28 628 0.268 -10.995 1.183 9.094 32.776 -13.458 -317.643 2555.385 -3720.126 -0.170 1.722 1.987 -0.04 0.58 -0.81 0.04
1 6.29 629 1.063 -11.272 1.039 5.157 34.943 -19.135 -287.513 2555.385 -3930.140 -0.957 2.008 2.155 -0.03 0.58 -0.81 0.04
1 6.30 630 1.427 -11.435 1.513 5.737 39.887 -21.393 -287.513 2555.385 -3930.140 -1.310 2.174 1.689 -0.03 0.58 -0.81 0.03
1 6.31 631 1.432 -11.880 3.362 7.233 36.133 -21.881 -272.522 2615.346 -3870.179 -1.304 2.622 -0.151 -0.03 0.58 -0.81 0.03
1 6.32 632 0.709 -13.125 6.991 31.738 13.184 -31.281 -272.522 2615.346 -3870.179 -0.562 3.874 -3.763 -0.03 0.58 -0.81 0.03
1 6.33 633 -1.642 -12.110 8.265 20.111 -33.630 -37.506 -272.522 2690.297 -3735.117 1.831 2.877 -4.988 -0.03 0.58 -0.82 0.03
1 6.34 634 -1.982 -13.331 5.545 -47.974 -49.011 -58.655 -272.522 2615.346 -3810.218 2.256 4.101 -2.265 -0.03 0.58 -0.82 0.02
1 6.35 635 -2.040 -11.023 6.345 -36.499 -41.199 -33.783 -272.522 2615.346 -3810.218 2.426 1.774 -3.130 -0.04 0.58 -0.81 0.02
1 6.36 636 -1.451 -7.901 7.647 -25.757 -21.454 -34.332 -393.644 2702.290 -3743.661 1.970 -1.376 -4.533 -0.05 0.58 -0.81 0.02
1 6.37 637 -0.919 -7.585 7.154 -29.877 -6.805 -39.551 -393.644 2702.290 -3743.661 1.498 -1.703 -4.081 -0.05 0.58 -0.81 0.02
1 6.38 638 -0.048 -7.834 4.592 -30.182 25.330 -11.108 -378.653 2612.198 -3653.720 0.648 -1.459 -1.540 -0.05 0.58 -0.81 0.02
1 6.39 639 1.259 -8.567 5.224 -11.139 21.118 4.974 -378.653 2612.198 -3653.720 -0.668 -0.734 -2.192 -0.05 0.59 -0.81 0.02
1 6.40 640 2.021 -8.437 7.025 4.120 28.351 4.395 -408.634 2642.179 -3803.622 -1.445 -0.861 -3.985 -0.05 0.59 -0.81 0.01
1 6.41 641 2.897 -7.911 7.408 -9.583 68.146 -28.900 -393.644 2672.159 -3713.681 -2.334 -1.382 -4.347 -0.04 0.58 -0.81 0.01
1 6.42 642 2.883 -8.337 6.000 -29.175 78.125 -45.105 -393.644 2672.159 -3713.681 -2.317 -0.956 -2.941 -0.04 0.58 -0.81 0.01
1 6.43 643 2.050 -9.611 4.736 -20.630 54.321 -38.513 -393.644 2702.290 -3848.743 -1.459 0.310 -1.706 -0.04 0.59 -0.81 0
1 6.44 644 1.959 -10.549 5.536 36.072 25.787 -22.247 -363.663 2822.211 -3818.612 -1.292 1.253 -2.505 0.04 -0.59 0.81 0.01
1 6.45 645 1.628 -9.979 5.880 59.326 45.807 -18.433 -303.552 2612.198 -3833.603 -0.946 0.706 -2.784 0.04 -0.58 0.81 0.01
1 6.46 646 0.488 -9.371 5.425 42.999 58.991 -23.407 -303.552 2612.198 -3833.603 0.197 0.128 -2.242 0.03 -0.58 0.81 0.01
1 6.47 647 -0.919 -9.539 4.722 7.172 42.236 -24.719 -243.591 2777.241 -3773.642 1.612 0.315 -1.484 0.03 -0.58 0.82 0.02
1 6.48 648 -1.920 -10.793 4.841 -24.475 9.644 -9.460 -213.611 2702.290 -3743.661 2.617 1.575 -1.591 0.03 -0.58 0.82 0.02
1 6.49 649 -1.585 -11.114 4.741 -19.440 13.947 6.653 -213.611 2702.290 -3743.661 2.293 1.886 -1.520 0.03 -0.58 0.81 0.02
1 6.50 650 -0.948 -10.453 4.348 -5.005 22.827 20.447 -348.523 2687.299 -3938.684 1.647 1.214 -1.157 0.03 -0.58 0.81 0.02
1 6.51 651 -0.594 -9.232 3.917 -5.493 24.170 31.036 -183.630 2777.241 -3773.642 1.207 -0.017 -0.737 0.02 -0.58 0.81 0.02
1 6.52 652 -0.249 -8.730 3.936 -21.149 24.567 33.753 -453.604 2792.231 -3758.651 0.796 -0.526 -0.762 0.02 -0.58 0.81 0.02
1 6.53 653 0.034 -8.749 3.836 -26.886 25.635 34.638 -453.604 2792.231 -3758.651 0.447 -0.519 -0.687 0.02 -0.58 0.81 0.02
1 6.54 654 0.091 -8.524 3.587 -15.076 28.046 38.300 -273.572 2687.299 -3803.622 0.323 -0.757 -0.465 0.01 -0.58 0.81 0.02
1 6.55 655 0.230 -8.069 3.534 0.488 29.572 39.215 -183.630 2672.159 -3743.661 0.114 -1.218 -0.422 0.01 -0.58 0.81 0.02
1 6.56 656 0.139 -7.240 3.567 8.545 27.313 35.309 -183.630 2672.159 -3743.661 0.134 -2.045 -0.446 0.01 -0.58 0.81 0.01
1 6.57 657 -0.182 -6.934 3.457 3.998 20.325 31.189 -228.601 2642.179 -3728.671 0.390 -2.349 -0.323 0 -0.58 0.81 0.01
1 6.58 658 -0.599 -7.437 3.213 3.601 14.069 27.618 101.184 2687.299 -3728.671 0.701 -1.844 -0.067 -0 -0.58 0.81 0.01
1 6.59 659 -0.905 -7.609 3.242 7.690 13.489 26.917 56.213 2717.280 -3758.651 0.962 -1.669 -0.088 -0 -0.58 0.81 0.01
1 6.60 660 -2.021 -7.848 2.983 20.813 13.153 25.635 56.213 2717.280 -3758.651 2.034 -1.423 0.192 -0.01 -0.58 0.81 0.01
1 6.61 661 -2.423 -7.633 2.978 25.208 7.111 22.797 -33.578 2672.159 -3713.681 2.394 -1.627 0.228 -0.01 -0.58 0.81 0.01
1 6.62 662 -2.327 -7.738 3.007 22.003 -0.916 20.050 11.243 2702.290 -3593.609 2.264 -1.510 0.235 -0.01 -0.58 0.82 0.01
1 6.63 663 -2.299 -7.829 2.911 14.648 -11.505 17.822 11.243 2702.290 -3593.609 2.209 -1.408 0.360 -0.01 -0.58 0.82 0
1 6.64 664 -2.045 -7.930 2.744 14.465 -16.327 18.494 -3.598 2687.299 -3803.622 1.935 -1.300 0.549 -0.01 -0.58 0.82 0
1 6.65 665 -1.982 -8.097 2.667 15.137 -21.576 16.266 191.275 2582.218 -3848.743 1.855 -1.124 0.646 -0.01 -0.58 0.82 0
1 6.66 666 -1.973 -8.222 2.792 17.639 -26.642 13.825 98.786 2640.080 -3647.574 1.816 -0.983 0.566 0.01 0.57 -0.82 0
1 6.67 667 -1.978 -8.366 2.782 17.029 -29.297 14.465 98.786 2640.080 -3647.574 1.801 -0.831 0.599 0.01 0.57 -0.82 0.01
1 6.68 668 -1.853 -8.265 2.653 14.557 -33.478 11.780 -50.967 2685.051 -3677.554 1.659 -0.923 0.750 0.01 0.57 -0.82 0.01
1 6.69 669 -1.695 -7.906 2.619 7.446 -39.581 8.057 53.815 2685.051 -3617.593 1.491 -1.275 0.801 0.01 0.57 -0.82 0.01
1 6.70 670 -1.461 -7.327 2.102 -5.341 -46.814 4.944 53.815 2685.051 -3617.593 1.268 -1.852 1.326 0 0.57 -0.82 0.01
1 6.71 671 -1.216 -6.924 1.925 -29.114 -59.876 3.723 -50.967 2564.979 -3827.606 1.043 -2.259 1.492 0 0.57 -0.82 0.02
1 6.72 672 -0.752 -7.197 1.566 -47.821 -63.721 3.113 53.815 2685.051 -3827.606 0.602 -1.999 1.817 -0 0.57 -0.82 0.02
1 6.73 673 0.010 -8.399 1.269 -56.732 -61.554 -6.073 -201.019 2640.080 -3647.574 -0.101 -0.848 1.974 -0.01 0.58 -0.82 0.02
1 6.74 674 0.479 -9.295 1.705 -33.905 -54.352 -5.554 -201.019 2640.080 -3647.574 -0.531 0.021 1.465 -0.02 0.58 -0.81 0.03
1 6.75 675 0.891 -9.687 2.409 -13.825 -46.662 4.700 -141.058 2700.041 -3842.597 -0.911 0.397 0.711 -0.02 0.58 -0.81 0.03
1 6.76 676 1.020 -9.654 2.279 -9.125 -41.809 15.228 -275.970 2760.002 -3617.593 -1.023 0.356 0.818 -0.02 0.58 -0.81 0.03
1 6.77 677 0.785 -9.108 2.126 -14.374 -45.532 23.224 -276.420 2757.454 -3613.246 -0.786 -0.197 0.950 -0.02 0.59 -0.81 0.03
1 6.78 678 0.584 -9.438 2.437 -20.203 -51.026 23.316 -351.371 2787.434 -3748.158 -0.590 0.124 0.609 -0.03 0.59 -0.81 0.04
1 6.79 679 0.843 -9.673 2.605 -11.017 -45.502 22.949 -441.312 2622.542 -3553.135 -0.855 0.348 0.408 -0.03 0.59 -0.81 0.04
1 6.80 680 1.556 -9.706 2.294 -2.502 -37.750 26.856 -381.352 2712.483 -3613.246 -1.583 0.370 0.685 -0.03 0.59 -0.81 0.05
1 6.81 681 1.537 -9.625 1.786 -1.801 -35.797 26.947 -381.352 2712.483 -3613.246 -1.575 0.286 1.184 -0.03 0.59 -0.81 0.05
1 6.82 682 1.020 -9.563 1.259 -0.854 -37.903 20.325 -411.332 2832.555 -3748.158 -1.066 0.221 1.701 -0.04 0.59 -0.81 0.05
1 6.83 683 0.187 -9.184 1.264 -5.554 -47.363 10.742 -396.342 2772.444 -3583.116 -0.231 -0.162 1.684 -0.04 0.59 -0.8 0.06
1 6.84 684 -0.474 -9.836 4.171 -14.893 -54.596 3.601 -396.342 2772.444 -3583.116 0.443 0.482 -1.246 -0.04 0.59 -0.8 0.06
1 6.85 685 -0.192 -13.073 7.197 17.120 -10.681 13.519 -396.342 2817.564 -3583.116 0.178 3.714 -4.290 -0.04 0.59 -0.8 0.06
1 6.86 686 1.489 -16.161 5.272 -13.275 -15.106 61.127 -381.352 2637.532 -3643.227 -1.506 6.808 -2.347 -0.05 0.59 -0.8 0.06
1 6.87 687 2.231 -14.059 3.936 -3.937 -21.088 81.574 -381.352 2637.532 -3643.227 -2.312 4.705 -1.016 -0.04 0.59 -0.8 0.07
1 6.88 688 1.116 -10.310 3.175 18.585 -7.813 41.229 -291.410 2772.444 -3508.165 -1.397 0.961 -0.249 -0.04 0.59 -0.8 0.08
1 6.89 689 -1.058 -8.634 3.424 17.151 -15.289 -2.777 -441.312 2772.444 -3628.236 0.740 -0.705 -0.469 -0.04 0.59 -0.8 0.08
1 6.90 690 -2.816 -10.147 4.468 -17.334 -40.497 -11.200 -516.414 2892.516 -3628.236 2.514 0.814 -1.493 -0.04 0.59 -0.8 0.08
1 6.91 691 -4.214 -12.340 5.234 -58.869 -56.183 -16.113 -516.414 2892.516 -3628.236 3.944 2.995 -2.296 -0.04 0.59 -0.8 0.08
1 6.92 692 -3.644 -13.944 6.062 -45.746 -37.476 -17.548 -471.443 2667.512 -3583.116 3.427 4.571 -3.212 -0.05 0.59 -0.8 0.08
1 6.93 693 -2.145 -12.532 5.957 -18.890 -15.869 8.453 -591.365 2622.542 -3508.165 1.979 3.135 -3.180 -0.05 0.6 -0.8 0.08
1 6.94 694 -1.058 -9.357 5.411 -2.960 -12.634 30.212 -591.365 2622.542 -3508.165 0.897 -0.051 -2.670 -0.05 0.6 -0.8 0.08
1 6.95 695 1.039 -6.359 5.876 7.416 -39.551 41.443 -561.384 2907.506 -3538.145 -1.282 -3.044 -3.126 -0.05 0.6 -0.8 0.09
1 6.96 696 2.911 -6.541 6.225 5.951 -55.237 40.802 -471.443 2772.444 -3448.204 -3.193 -2.854 -3.450 -0.05 0.6 -0.8 0.09
1 6.97 697 3.975 -7.705 6.062 4.578 -55.268 40.405 -561.384 2787.434 -3388.243 -4.270 -1.678 -3.248 -0.06 0.59 -0.8 0.1
1 6.98 698 3.907 -9.692 5.986 5.920 -39.703 40.741 -561.384 2787.434 -3388.243 -4.208 0.321 -3.135 -0.06 0.59 -0.8 0.1
1 6.99 699 2.892 -11.239 5.832 11.688 -20.325 41.596 -561.384 2757.454 -3493.174 -3.237 1.873 -2.970 -0.06 0.59 -0.8 0.11
1 7.00 700 1.762 -10.817 5.593 13.123 -6.226 25.177 -516.414 2817.564 -3508.165 -2.158 1.459 -2.712 -0.06 0.59 -0.8 0.11
1 7.01 701 1.686 -9.841 5.536 2.502 -5.463 9.430 -516.414 2817.564 -3508.165 -2.120 0.490 -2.634 -0.06 0.59 -0.8 0.11
1 7.02 702 1.686 -9.208 5.119 -11.993 -10.559 -8.972 -456.453 2757.454 -3418.223 -2.131 -0.141 -2.216 -0.06 0.59 -0.8 0.11
1 7.03 703 1.427 -9.443 5.090 -15.808 -11.871 -13.306 -531.404 2712.483 -3493.174 -1.843 0.089 -2.198 -0.06 0.59 -0.8 0.11
1 7.04 704 0.814 -9.740 4.899 -19.409 -11.505 -22.369 -411.332 2757.454 -3463.194 -1.199 0.376 -2.033 -0.06 0.59 -0.8 0.11
1 7.05 705 0.316 -9.759 4.549 -16.754 -10.773 -29.480 -411.332 2757.454 -3463.194 -0.661 0.386 -1.710 -0.06 0.59 -0.8 0.11
1 7.06 706 -0.239 -9.390 4.425 -11.169 -10.162 -34.515 -516.414 2817.564 -3373.252 -0.055 0.010 -1.602 -0.06 0.59 -0.79 0.11
1 7.07 707 -0.417 -8.509 4.056 -9.613 -14.679 -41.901 -606.355 2712.483 -3418.223 0.180 -0.873 -1.236 -0.07 0.59 -0.79 0.11
1 7.08 708 -0.148 -8.203 3.984 -12.970 -16.510 -43.549 -606.355 2712.483 -3418.223 -0.026 -1.181 -1.165 -0.07 0.59 -0.8 0.11
1 7.09 709 0.259 -7.810 3.864 -15.595 -13.519 -43.030 -680.557 2830.456 -3355.564 -0.365 -1.577 -1.052 -0.07 0.59 -0.8 0.11
1 7.10 710 0.785 -7.676 3.735 -17.029 -7.751 -40.558 -695.547 2695.394 -3475.486 -0.760 -1.722 -0.957 -0.08 0.59 -0.79 0.1
1 7.11 711 1.427 -7.963 3.769 3.235 -4.059 -49.072 -755.508 2680.404 -3355.564 -1.336 -1.440 -1.012 -0.08 0.59 -0.79 0.1
1 7.12 712 1.757 -7.125 3.663 27.374 3.418 -40.955 -755.508 2680.404 -3355.564 -1.592 -2.271 -0.885 -0.08 0.59 -0.8 0.1
1 7.13 713 1.403 -6.517 3.711 22.766 3.693 -30.701 -695.547 2740.365 -3325.434 -1.185 -2.866 -0.893 -0.08 0.59 -0.8 0.09
1 7.14 714 1.408 -6.551 3.730 11.902 -1.434 -25.635 -800.479 2740.365 -3325.434 -1.148 -2.823 -0.884 -0.09 0.59 -0.8 0.09
1 7.15 715 1.240 -6.776 3.577 12.512 -0.702 -13.763 -800.479 2740.365 -3325.434 -0.946 -2.592 -0.715 -0.09 0.59 -0.8 0.09
1 7.16 716 1.283 -6.699 3.496 16.327 1.862 -4.669 -800.479 2740.365 -3370.554 -0.966 -2.663 -0.617 -0.09 0.59 -0.8 0.09
1 7.17 717 1.686 -6.508 3.673 12.665 5.829 -0.763 -950.531 2620.443 -3475.486 -1.357 -2.840 -0.749 -0.09 0.59 -0.8 0.09
1 7.18 718 1.963 -6.623 3.615 9.949 11.353 4.944 -875.580 2620.443 -3550.437 -1.639 -2.720 -0.675 -0.09 0.59 -0.8 0.09
1 7.19 719 2.160 -6.881 3.529 7.141 14.587 7.874 -875.580 2620.443 -3550.437 -1.848 -2.458 -0.575 -0.09 0.58 -0.8 0.09
1 7.20 720 2.088 -7.082 3.256 5.798 17.365 10.651 -800.479 2815.316 -3475.486 -1.796 -2.254 -0.291 -0.08 0.58 -0.8 0.09
1 7.21 721 1.868 -7.279 3.060 3.662 20.233 14.954 -710.537 2755.355 -3355.564 -1.601 -2.056 -0.087 -0.08 0.58 -0.8 0.09
1 7.22 722 1.537 -7.504 2.844 1.068 22.247 15.259 -710.537 2755.355 -3355.564 -1.302 -1.830 0.135 -0.08 0.58 -0.8 0.09
1 7.23 723 1.226 -8.006 2.820 0.397 23.926 13.947 -785.488 2560.332 -3385.544 -1.023 -1.326 0.162 -0.08 0.58 -0.8 0.09
1 7.24 724 1.001 -8.236 2.710 -2.808 21.851 12.756 -800.479 2740.365 -3550.437 -0.860 -1.097 0.274 -0.07 0.58 -0.8 0.09
1 7.25 725 0.919 -8.437 2.720 -5.798 21.423 12.848 -680.557 2605.453 -3535.447 -0.807 -0.898 0.259 -0.07 0.59 -0.8 0.09
1 7.26 726 0.555 -8.682 2.193 -13.611 21.515 12.634 -680.557 2605.453 -3535.447 -0.465 -0.659 0.770 -0.07 0.59 -0.8 0.09
1 7.27 727 0.254 -8.682 2.160 -15.137 22.736 12.726 -710.537 2485.381 -3415.525 -0.188 -0.667 0.780 -0.07 0.59 -0.8 0.09
1 7.28 728 0.148 -8.706 2.169 -15.106 25.360 11.902 -770.498 2620.443 -3400.535 -0.108 -0.651 0.745 -0.07 0.59 -0.8 0.09
1 7.29 729 -0.220 -9.070 1.834 -16.754 23.834 6.683 -770.498 2620.443 -3400.535 0.234 -0.295 1.054 -0.07 0.59 -0.8 0.09
1 7.30 730 -0.441 -9.098 1.824 -15.472 21.301 3.235 -605.605 2455.400 -3385.544 0.432 -0.275 1.035 -0.06 0.59 -0.8 0.09
1 7.31 731 -0.412 -9.275 1.676 -12.329 21.240 -0.824 -605.605 2455.400 -3385.544 0.386 -0.107 1.153 -0.06 0.59 -0.8 0.09
1 7.32 732 -0.374 -9.702 1.753 -5.859 22.705 -6.195 -650.576 2620.443 -3445.505 0.328 0.305 1.028 -0.06 0.6 -0.8 0.09
1 7.33 733 -0.172 -10.022 1.786 -2.899 21.820 -7.843 -650.576 2620.443 -3445.505 0.125 0.621 0.980 -0.06 0.6 -0.8 0.08
1 7.34 734 -0.024 -10.343 2.016 -0.061 21.118 -7.141 -545.495 2665.414 -3325.434 -0.023 0.939 0.739 -0.06 0.6 -0.8 0.08
1 7.35 735 0.407 -10.655 2.227 2.472 20.172 -6.104 -725.527 2665.414 -3475.486 -0.453 1.248 0.522 -0.06 0.6 -0.8 0.08
1 7.36 736 0.781 -10.655 2.222 5.157 23.682 -2.563 -725.527 2665.414 -3475.486 -0.826 1.248 0.528 -0.06 0.6 -0.8 0.08
1 7.37 737 0.675 -10.396 1.829 3.967 25.971 0.000 -755.508 2680.404 -3415.525 -0.725 0.992 0.927 -0.06 0.6 -0.8 0.08
1 7.38 738 0.982 -10.415 1.820 5.127 30.426 1.312 -755.508 2680.404 -3415.525 -1.038 1.012 0.939 -0.06 0.6 -0.8 0.08
1 7.39 739 0.963 -10.334 1.437 5.402 34.180 2.472 -530.504 2560.332 -3385.544 -1.035 0.930 1.320 -0.05 0.6 -0.8 0.08
1 7.40 740 0.943 -10.420 1.494 6.073 37.048 0.854 -530.504 2560.332 -3385.544 -1.026 1.015 1.259 -0.05 0.6 -0.8 0.07
1 7.41 741 1.006 -10.679 2.140 8.514 39.124 -3.113 -470.543 2500.371 -3550.437 -1.096 1.273 0.610 -0.05 0.6 -0.8 0.07
1 7.42 742 0.872 -11.536 4.133 24.170 30.609 -9.796 -560.485 2605.453 -3385.544 -0.967 2.133 -1.371 -0.05 0.6 -0.8 0.07
1 7.43 743 0.182 -12.019 5.919 35.309 4.242 -20.783 -560.485 2605.453 -3385.544 -0.271 2.629 -3.115 -0.05 0.6 -0.8 0.07
1 7.44 744 -2.078 -12.910 4.947 -16.266 -17.120 -32.196 -455.553 2635.433 -3460.496 2.026 3.532 -2.101 -0.05 0.59 -0.8 0.07
1 7.45 745 -2.251 -13.078 4.070 -25.757 -18.402 -36.621 -455.553 2635.433 -3460.496 2.253 3.697 -1.235 -0.05 0.59 -0.8 0.07
1 7.46 746 -1.192 -12.101 5.684 -10.529 5.096 -36.255 -545.495 2620.443 -3370.554 1.311 2.701 -2.916 -0.05 0.6 -0.8 0.06
1 7.47 747 -0.781 -11.330 6.249 -4.669 8.942 -36.743 -545.495 2620.443 -3370.554 0.949 1.927 -3.492 -0.06 0.6 -0.8 0.06
1 7.48 748 0.067 -10.492 5.459 -16.113 20.233 -36.987 -530.504 2560.332 -3535.447 0.153 1.088 -2.709 -0.06 0.6 -0.8 0.06
1 7.49 749 1.633 -9.946 5.248 -26.428 29.602 -23.041 -770.498 2545.342 -3505.466 -1.374 0.535 -2.526 -0.06 0.6 -0.8 0.05
1 7.50 750 2.682 -10.133 5.445 -18.951 33.569 -11.078 -770.498 2545.342 -3505.466 -2.407 0.712 -2.758 -0.06 0.6 -0.8 0.05
1 7.51 751 2.921 -9.726 6.134 -2.625 34.760 -19.013 -605.605 2635.433 -3385.544 -2.645 0.299 -3.469 -0.06 0.6 -0.8 0.05
1 7.52 752 2.844 -8.619 6.182 -2.533 41.016 -23.712 -605.605 2635.433 -3385.544 -2.559 -0.809 -3.523 -0.05 0.6 -0.8 0.05
1 7.53 753 2.385 -7.695 5.991 -10.681 41.840 -20.599 -590.315 2424.820 -3503.967 -2.081 -1.732 -3.332 -0.05 0.6 -0.8 0.04
1 7.54 754 0.431 -6.833 6.043 -5.676 47.760 -23.285 -635.286 2529.752 -3458.997 -0.083 -2.588 -3.366 -0.05 0.6 -0.8 0.04
1 7.55 755 -0.656 -6.757 5.651 -6.561 54.321 -36.438 -470.394 2424.820 -3323.935 1.026 -2.656 -2.949 -0.05 0.6 -0.8 0.03
1 7.56 756 -1.638 -7.346 5.100 -15.137 52.796 -41.901 -620.296 2469.791 -3473.987 2.035 -2.061 -2.381 -0.05 0.6 -0.8 0.03
1 7.57 757 -2.241 -7.920 4.789 -16.113 39.856 -38.880 -620.296 2469.791 -3473.987 2.663 -1.485 -2.067 -0.05 0.6 -0.8 0.02
1 7.58 758 -2.131 -8.663 4.880 -9.827 30.457 -37.537 -560.335 2529.752 -3414.026 2.575 -0.742 -2.159 -0.04 0.6 -0.8 0.02
1 7.59 759 -1.681 -10.022 4.693 7.904 37.628 -26.825 -560.335 2529.752 -3414.026 2.146 0.622 -1.964 -0.04 0.6 -0.8 0.02
1 7.60 760 -1.551 -9.955 4.401 17.883 40.283 -14.069 -455.403 2559.732 -3639.029 2.036 0.561 -1.655 -0.04 0.6 -0.8 0.02
1 7.61 761 -1.111 -9.491 4.444 8.850 35.004 0.977 -620.296 2544.742 -3444.006 1.587 0.113 -1.639 -0.04 0.6 -0.8 0.01
1 7.62 762 -0.670 -9.381 4.444 -8.392 30.731 10.193 -515.364 2469.791 -3444.006 1.115 0.007 -1.619 -0.04 0.6 -0.8 0.01
1 7.63 763 -0.235 -9.730 4.118 -17.792 27.649 16.663 -470.394 2349.719 -3368.905 0.639 0.354 -1.297 -0.03 0.6 -0.8 0.01
1 7.64 764 0.192 -9.769 4.099 -12.695 27.374 20.111 -470.394 2349.719 -3368.905 0.170 0.386 -1.292 -0.03 0.6 -0.8 0.01
1 7.65 765 0.225 -9.635 4.027 -3.998 29.633 21.973 -515.364 2574.723 -3503.967 0.092 0.249 -1.225 -0.03 0.6 -0.8 0.01
1 7.66 766 -0.034 -8.797 3.749 -6.195 30.792 21.912 -515.364 2574.723 -3503.967 0.305 -0.589 -0.944 -0.03 0.6 -0.8 0.01
1 7.67 767 -0.259 -8.495 3.596 -11.353 27.344 23.834 -410.283 2409.680 -3414.026 0.485 -0.891 -0.788 -0.02 0.6 -0.8 0.01
1 7.68 768 -0.656 -8.390 3.462 -9.613 21.668 24.689 -440.413 2544.742 -3368.905 0.786 -1.003 -0.670 -0.02 0.6 -0.8 0.01
1 7.69 769 -0.761 -8.313 3.611 -7.599 21.057 23.651 -410.283 2409.680 -3458.997 0.842 -1.082 -0.823 -0.02 0.6 -0.8 0.01
1 7.70 770 -1.355 -8.437 3.510 -2.075 18.860 18.951 -275.371 2454.801 -3353.915 1.390 -0.957 -0.720 -0.01 0.6 -0.8 0.01
1 7.71 771 -1.733 -8.576 3.400 -0.977 13.947 16.510 -275.371 2454.801 -3353.915 1.725 -0.817 -0.606 -0.01 0.6 -0.8 0.02
1 7.72 772 -1.906 -8.763 3.204 1.770 7.172 12.756 -275.371 2454.801 -3384.045 1.858 -0.628 -0.403 -0.01 0.6 -0.8 0.02
1 7.73 773 -2.054 -8.576 3.113 6.989 -2.045 10.132 -275.371 2454.801 -3384.045 1.972 -0.812 -0.304 -0.01 0.6 -0.8 0.02
1 7.74 774 -2.203 -8.346 3.141 11.139 -8.209 7.568 -275.371 2334.729 -3488.977 2.091 -1.038 -0.320 -0.01 0.6 -0.8 0.02
1 7.75 775 -2.160 -8.097 3.132 11.902 -13.580 6.928 -230.400 2484.781 -3384.045 2.023 -1.281 -0.291 -0.01 0.6 -0.8 0.02
1 7.76 776 -2.385 -8.265 3.022 10.895 -22.919 7.599 -305.351 2484.781 -3563.928 2.211 -1.100 -0.138 -0.01 0.59 -0.8 0.02
1 7.77 777 -2.150 -8.327 2.926 11.536 -30.335 7.904 -245.390 2349.719 -3444.006 1.960 -1.031 -0.023 -0.01 0.59 -0.8 0.03
1 7.78 778 -1.973 -8.567 3.084 13.519 -35.675 6.012 -245.390 2349.719 -3444.006 1.770 -0.785 -0.160 -0.01 0.59 -0.81 0.03
1 7.79 779 -1.729 -8.720 3.074 14.526 -40.100 4.700 -230.400 2604.703 -3458.997 1.520 -0.624 -0.127 -0.01 0.59 -0.81 0.03
1 7.80 780 -1.724 -8.528 2.955 13.794 -46.265 5.524 -230.400 2604.703 -3458.997 1.514 -0.808 0.017 -0.01 0.59 -0.81 0.03
1 7.81 781 -1.896 -8.294 2.782 8.423 -53.131 4.272 -410.283 2559.732 -3488.977 1.688 -1.035 0.213 -0.01 0.59 -0.81 0.04
1 7.82 782 -1.982 -8.030 2.653 -3.784 -59.540 0.916 -485.384 2559.732 -3488.977 1.779 -1.293 0.360 -0.02 0.59 -0.81 0.04
1 7.83 783 -2.040 -7.643 2.255 -24.384 -71.381 -0.977 -410.283 2454.801 -3458.997 1.884 -1.687 0.741 -0.02 0.59 -0.81 0.05
1 7.84 784 -1.465 -7.906 1.848 -32.379 -79.102 -10.071 -530.354 2409.680 -3609.049 1.347 -1.436 1.111 -0.03 0.59 -0.81 0.05
1 7.85 785 -1.010 -8.284 1.954 -33.173 -81.940 -13.763 -530.354 2409.680 -3609.049 0.944 -1.073 0.959 -0.04 0.59 -0.8 0.05
1 7.86 786 -0.441 -9.558 2.088 -18.066 -80.353 -9.888 -410.283 2529.752 -3384.045 0.430 0.187 0.780 -0.04 0.59 -0.8 0.06
1 7.87 787 -0.192 -9.242 2.706 12.360 -69.092 -0.336 -410.283 2529.752 -3384.045 0.222 -0.135 0.143 -0.05 0.59 -0.8 0.06
1 7.88 788 -1.006 -8.615 3.069 7.080 -66.223 12.695 -620.296 2349.719 -3473.987 1.060 -0.756 -0.203 -0.05 0.59 -0.8 0.06
1 7.89 789 -1.068 -8.959 3.041 -6.073 -75.012 10.010 -725.377 2349.719 -3473.987 1.129 -0.406 -0.156 -0.05 0.59 -0.8 0.07
1 7.90 790 -0.728 -9.098 3.002 -3.723 -72.174 6.958 -725.377 2349.719 -3473.987 0.798 -0.268 -0.122 -0.06 0.59 -0.8 0.07
1 7.91 791 0.077 -9.103 3.170 6.348 -62.683 10.681 -695.397 2394.690 -3399.036 0.020 -0.264 -0.290 -0.07 0.59 -0.8 0.08
1 7.92 792 0.464 -9.094 3.041 5.707 -62.226 15.137 -695.397 2394.690 -3399.036 -0.358 -0.270 -0.151 -0.07 0.59 -0.8 0.08
1 7.93 793 0.771 -9.151 2.797 4.974 -63.019 18.158 -1024.732 2349.120 -3442.657 -0.658 -0.210 0.102 -0.07 0.59 -0.8 0.09
1 7.94 794 0.560 -8.844 2.251 4.913 -63.782 23.102 -1024.732 2349.120 -3442.657 -0.443 -0.515 0.654 -0.08 0.59 -0.8 0.09
1 7.95 795 -0.311 -8.821 1.307 0.397 -75.196 22.339 -709.788 2559.133 -3382.696 0.428 -0.538 1.599 -0.08 0.59 -0.8 0.1
1 7.96 796 -1.140 -9.041 1.025 0.061 -85.297 17.181 -874.680 2349.120 -3367.706 1.257 -0.320 1.875 -0.08 0.59 -0.8 0.1
1 7.97 797 -1.882 -9.266 0.910 -1.343 -91.980 12.543 -874.680 2349.120 -3367.706 2.004 -0.098 1.978 -0.09 0.59 -0.8 0.11
1 7.98 798 -2.332 -10.190 3.994 0.793 -92.011 12.085 -814.719 2334.129 -3487.778 2.474 0.816 -1.139 -0.1 0.59 -0.79 0.12
1 7.99 799 -1.772 -11.339 6.666 29.053 -61.798 14.526 -814.719 2334.129 -3487.778 1.926 1.967 -3.806 -0.1 0.59 -0.79 0.12
1 8.00 800 -0.948 -11.995 5.368 4.425 -48.462 26.917 -1039.723 2364.110 -3382.696 1.102 2.635 -2.470 -0.1 0.58 -0.79 0.13
1 8.01 801 1.585 -13.149 3.558 -35.858 -94.300 48.157 -1039.723 2364.110 -3382.696 -1.451 3.784 -0.674 -0.11 0.58 -0.79 0.13
1 8.02 802 3.553 -13.691 2.509 -23.804 -114.106 80.994 -1054.713 2349.120 -3577.719 -3.453 4.310 0.324 -0.11 0.59 -0.79 0.14
1 8.03 803 5.057 -11.354 6.216 38.452 -87.372 79.468 -1264.726 2484.182 -3352.716 -5.035 1.966 -3.404 -0.11 0.59 -0.79 0.15
1 8.04 804 3.994 -11.914 7.394 61.493 -57.312 41.748 -1264.726 2484.182 -3352.716 -4.055 2.538 -4.543 -0.11 0.58 -0.79 0.16
1 8.05 805 1.336 -13.327 4.559 12.604 -78.919 41.229 -1189.775 2364.110 -3352.716 -1.466 3.997 -1.561 -0.12 0.58 -0.79 0.17
1 8.06 806 0.776 -11.914 4.477 -2.106 -97.412 39.032 -1189.775 2364.110 -3352.716 -0.926 2.589 -1.468 -0.12 0.58 -0.79 0.18
1 8.07 807 0.814 -10.410 5.373 12.939 -99.243 18.280 -1219.755 2334.129 -3307.745 -0.968 1.086 -2.360 -0.12 0.58 -0.79 0.18
1 8.08 808 0.737 -10.219 5.923 21.332 -100.617 3.906 -1219.755 2334.129 -3307.745 -0.865 0.903 -2.885 -0.13 0.57 -0.79 0.19
1 8.09 809 0.139 -10.430 5.564 6.592 -106.598 8.179 -1324.687 2394.090 -3112.722 -0.223 1.122 -2.498 -0.14 0.57 -0.79 0.19
1 8.10 810 -0.690 -10.803 4.860 -8.759 -107.483 27.863 -1369.658 2409.081 -3277.765 0.640 1.497 -1.790 -0.14 0.57 -0.79 0.2
1 8.11 811 -0.273 -10.152 4.961 5.646 -102.478 37.781 -1369.658 2409.081 -3277.765 0.239 0.842 -1.902 -0.15 0.57 -0.78 0.21
1 8.12 812 0.680 -9.146 4.856 27.252 -96.527 45.014 -1414.778 2289.159 -3277.765 -0.716 -0.164 -1.795 -0.15 0.57 -0.78 0.21
1 8.13 813 2.059 -7.623 4.803 39.429 -94.269 49.866 -1488.830 2258.729 -3276.865 -2.127 -1.652 -1.641 -0.16 0.56 -0.78 0.23
1 8.14 814 2.624 -7.149 4.693 25.848 -91.217 51.300 -1563.931 2333.680 -3351.966 -2.703 -2.103 -1.464 -0.16 0.56 -0.78 0.23
1 8.15 815 3.031 -6.967 4.501 10.986 -91.645 49.957 -1563.931 2333.680 -3351.966 -3.118 -2.268 -1.225 -0.17 0.55 -0.78 0.24
1 8.16 816 3.036 -7.556 4.540 8.637 -96.558 46.967 -1458.850 2273.719 -3186.924 -3.122 -1.669 -1.234 -0.17 0.55 -0.78 0.25
1 8.17 817 3.213 -7.820 4.396 15.381 -101.776 44.403 -1458.850 2393.641 -3291.855 -3.293 -1.396 -1.063 -0.17 0.55 -0.78 0.25
1 8.18 818 3.429 -7.901 4.482 18.005 -102.265 39.185 -1458.850 2393.641 -3291.855 -3.496 -1.302 -1.116 -0.18 0.54 -0.78 0.26
1 8.19 819 2.835 -8.165 4.319 16.449 -100.006 33.325 -1848.896 2288.709 -3051.862 -2.881 -1.026 -0.917 -0.18 0.54 -0.78 0.27
1 8.20 820 1.939 -8.308 4.415 18.890 -94.788 25.696 -1788.935 2198.618 -3216.904 -1.925 -0.858 -0.947 -0.19 0.53 -0.77 0.28
1 8.21 821 1.384 -8.337 4.295 23.254 -94.696 26.001 -1728.824 2348.670 -3186.924 -1.339 -0.815 -0.792 -0.2 0.53 -0.77 0.28
1 8.22 822 1.159 -8.160 4.329 25.024 -96.772 26.489 -1728.824 2348.670 -3186.924 -1.088 -0.977 -0.785 -0.2 0.53 -0.77 0.29
1 8.23 823 1.173 -8.050 4.252 21.790 -97.138 27.649 -1833.905 2273.719 -3216.904 -1.078 -1.071 -0.668 -0.21 0.52 -0.77 0.3
1 8.24 824 1.465 -8.035 4.027 13.336 -95.337 28.076 -1983.958 2243.738 -3111.973 -1.346 -1.071 -0.409 -0.21 0.52 -0.77 0.3
1 8.25 825 1.710 -8.102 3.979 7.660 -95.124 28.595 -1981.859 2242.839 -3110.923 -1.567 -0.994 -0.336 -0.22 0.52 -0.77 0.31
1 8.26 826 1.982 -8.323 3.960 6.928 -95.215 28.412 -2086.791 2242.839 -2930.891 -1.816 -0.768 -0.302 -0.22 0.51 -0.77 0.31
1 8.27 827 2.413 -8.677 3.797 11.383 -93.201 28.931 -1891.768 2332.930 -2945.881 -2.192 -0.403 -0.116 -0.23 0.51 -0.76 0.32
1 8.28 828 2.686 -8.643 3.726 15.778 -90.882 28.168 -2011.839 2467.842 -3065.953 -2.437 -0.429 -0.028 -0.23 0.51 -0.76 0.33
1 8.29 829 2.840 -8.519 3.668 16.846 -90.058 27.893 -2011.839 2467.842 -3065.953 -2.560 -0.545 0.049 -0.24 0.5 -0.76 0.33
1 8.30 830 3.036 -8.404 3.821 17.365 -88.867 28.076 -2146.901 2257.829 -2945.881 -2.724 -0.650 -0.084 -0.24 0.5 -0.76 0.34
1 8.31 831 2.883 -8.203 3.735 16.266 -87.281 28.381 -2176.882 2332.930 -2915.900 -2.539 -0.841 0.024 -0.25 0.5 -0.76 0.34
1 8.32 832 2.753 -7.877 3.692 19.257 -86.304 27.405 -2176.882 2332.930 -2915.900 -2.379 -1.157 0.088 -0.25 0.49 -0.76 0.35
1 8.33 833 2.471 -7.690 3.754 18.036 -86.853 28.778 -2266.823 2272.969 -3005.992 -2.065 -1.333 0.048 -0.26 0.49 -0.76 0.35
1 8.34 834 2.394 -7.561 3.591 15.442 -87.281 29.602 -2161.892 2317.940 -3005.992 -1.959 -1.451 0.234 -0.26 0.49 -0.75 0.36
1 8.35 835 2.217 -7.810 3.649 12.329 -86.426 33.173 -2236.843 2392.891 -2855.939 -1.749 -1.187 0.208 -0.27 0.48 -0.75 0.37
1 8.36 836 2.155 -7.920 3.567 9.277 -84.442 35.248 -2236.843 2392.891 -2855.939 -1.668 -1.070 0.302 -0.27 0.48 -0.75 0.37
1 8.37 837 2.222 -8.030 3.529 5.127 -82.764 37.171 -2296.804 2332.930 -2870.930 -1.722 -0.957 0.346 -0.27 0.48 -0.75 0.38
1 8.38 838 2.164 -8.265 3.453 2.777 -82.367 41.412 -2476.836 2182.878 -2795.979 -1.654 -0.722 0.422 -0.28 0.47 -0.74 0.38
1 8.39 839 1.801 -8.370 3.271 0.946 -78.491 49.530 -2473.988 2181.979 -2795.379 -1.289 -0.618 0.600 -0.28 0.47 -0.74 0.39
1 8.40 840 1.719 -8.366 3.060 -1.526 -76.111 50.202 -2488.979 2347.021 -2705.288 -1.216 -0.626 0.804 -0.28 0.47 -0.74 0.39
1 8.41 841 2.198 -8.461 3.093 0.092 -73.303 51.727 -2503.969 2362.011 -2720.278 -1.709 -0.535 0.761 -0.29 0.47 -0.73 0.4
1 8.42 842 2.380 -8.514 3.462 4.456 -68.634 59.967 -2354.066 2287.060 -2660.317 -1.929 -0.491 0.378 -0.29 0.47 -0.73 0.41
1 8.43 843 2.126 -8.279 3.620 1.648 -65.705 64.118 -2354.066 2287.060 -2660.317 -1.704 -0.727 0.220 -0.29 0.47 -0.73 0.41
1 8.44 844 1.810 -8.126 3.558 1.404 -63.904 65.582 -2414.027 2421.972 -2630.336 -1.425 -0.883 0.280 -0.3 0.47 -0.72 0.42
1 8.45 845 1.475 -7.853 3.405 -0.458 -61.737 68.207 -2488.979 2691.946 -2525.255 -1.132 -1.158 0.431 -0.3 0.46 -0.72 0.42
1 8.46 846 1.393 -7.475 3.247 -1.312 -57.739 68.970 -2483.882 2689.548 -2524.505 -1.104 -1.540 0.585 -0.3 0.46 -0.72 0.43
1 8.47 847 1.561 -7.734 3.448 -4.700 -52.368 67.719 -2423.771 2524.655 -2539.496 -1.334 -1.286 0.379 -0.3 0.46 -0.71 0.43
1 8.48 848 1.623 -8.107 3.687 -6.714 -54.291 64.942 -2453.901 2569.626 -2449.554 -1.460 -0.917 0.132 -0.3 0.46 -0.71 0.44
1 8.49 849 1.590 -8.337 3.635 -13.825 -47.852 63.385 -2378.800 2569.626 -2524.505 -1.527 -0.696 0.166 -0.3 0.46 -0.7 0.45
1 8.50 850 1.590 -8.481 3.726 -14.496 -40.405 55.176 -2378.800 2569.626 -2524.505 -1.575 -0.561 0.056 -0.3 0.46 -0.7 0.45
1 8.51 851 2.078 -8.959 4.420 -11.322 -39.795 41.077 -2423.771 2629.587 -2404.583 -2.100 -0.089 -0.656 -0.3 0.46 -0.7 0.46
1 8.52 852 2.471 -9.381 4.798 -13.489 -43.488 30.029 -2498.872 2554.636 -2434.564 -2.507 0.328 -1.045 -0.3 0.46 -0.69 0.46
1 8.53 853 2.797 -9.716 4.880 -23.438 -42.633 22.736 -2498.872 2554.636 -2434.564 -2.839 0.656 -1.145 -0.31 0.46 -0.69 0.46
1 8.54 854 2.691 -10.334 4.410 -31.738 -33.447 16.205 -2468.892 2674.558 -2329.482 -2.740 1.259 -0.712 -0.31 0.46 -0.69 0.46
1 8.55 855 2.385 -10.099 4.046 -27.466 -30.243 9.338 -2498.872 2779.639 -2359.463 -2.438 1.006 -0.391 -0.31 0.47 -0.69 0.46
1 8.56 856 2.648 -10.176 4.180 -23.682 -31.311 -7.629 -2348.820 2629.587 -2434.564 -2.684 1.054 -0.599 -0.32 0.47 -0.68 0.47
1 8.57 857 2.978 -10.209 3.984 -23.621 -31.708 -10.254 -2348.820 2629.587 -2434.564 -2.984 1.074 -0.436 -0.32 0.47 -0.68 0.47
1 8.58 858 3.299 -10.607 4.113 -21.179 -27.496 -8.240 -2468.892 2779.639 -2284.512 -3.273 1.459 -0.598 -0.32 0.47 -0.68 0.46
1 8.59 859 2.974 -10.669 4.319 -16.113 -26.154 -4.578 -2468.892 2779.639 -2149.600 -2.923 1.511 -0.832 -0.32 0.47 -0.68 0.46
1 8.60 860 2.662 -10.099 4.420 -12.268 -26.276 -2.716 -2468.892 2779.639 -2149.600 -2.592 0.933 -0.954 -0.32 0.47 -0.68 0.47
1 8.61 861 2.428 -9.558 4.276 -13.550 -24.750 -0.092 -2483.882 2734.519 -2239.541 -2.340 0.385 -0.828 -0.33 0.47 -0.68 0.47
1 8.62 862 1.997 -9.256 4.405 -11.444 -23.804 2.441 -2348.820 2824.610 -2179.580 -1.894 0.076 -0.977 -0.33 0.47 -0.68 0.47
1 8.63 863 1.144 -8.615 4.501 -8.759 -22.949 5.585 -2348.820 2824.610 -2179.580 -1.015 -0.569 -1.085 -0.33 0.47 -0.68 0.47
1 8.64 864 0.168 -7.762 4.468 -8.240 -23.590 4.669 -2498.872 2824.610 -2224.551 -0.011 -1.425 -1.060 -0.33 0.46 -0.68 0.47
1 8.65 865 -0.517 -7.552 4.200 -10.040 -20.599 2.533 -2618.794 2779.639 -2224.551 0.681 -1.636 -0.795 -0.33 0.46 -0.67 0.47
1 8.66 866 -1.058 -7.427 3.941 -8.667 -15.656 2.289 -2498.872 2779.639 -2284.512 1.228 -1.764 -0.545 -0.33 0.46 -0.67 0.47
1 8.67 867 -1.973 -7.786 3.524 -6.897 -12.543 2.106 -2498.872 2779.639 -2284.512 2.148 -1.410 -0.141 -0.34 0.46 -0.67 0.47
1 8.68 868 -3.189 -8.739 2.974 -5.798 -18.127 3.143 -2629.137 2807.371 -2119.319 3.367 -0.460 0.399 -0.34 0.46 -0.67 0.47
1 8.69 869 -3.625 -9.960 2.701 2.106 -28.351 9.888 -2644.127 2747.410 -2074.349 3.787 0.758 0.666 -0.34 0.46 -0.67 0.47
1 8.70 870 -3.285 -10.583 2.749 18.036 -35.187 19.714 -2644.127 2747.410 -2074.349 3.423 1.379 0.614 -0.34 0.46 -0.67 0.47
1 8.71 871 -2.193 -11.071 3.247 25.238 -27.710 27.039 -2569.176 2897.312 -2149.300 2.307 1.887 0.170 -0.34 0.46 -0.67 0.48
1 8.72 872 -1.796 -11.368 3.333 18.982 -22.400 32.196 -2644.127 2822.361 -2104.329 1.884 2.196 0.118 -0.34 0.46 -0.67 0.48
1 8.73 873 -1.528 -11.727 3.309 15.717 -21.454 41.718 -2644.127 2972.414 -2029.228 1.579 2.564 0.166 -0.34 0.46 -0.67 0.48
1 8.74 874 -1.164 -11.823 3.232 15.228 -21.912 46.051 -2644.127 2972.414 -2029.228 1.166 2.668 0.264 -0.33 0.46 -0.67 0.49
1 8.75 875 -0.982 -11.502 3.347 15.930 -24.536 51.758 -2659.118 2987.404 -2119.319 0.929 2.356 0.172 -0.33 0.46 -0.66 0.49
1 8.76 876 -0.551 -10.420 3.486 10.559 -32.227 49.286 -2404.134 2762.400 -2089.339 0.440 1.283 0.055 -0.33 0.46 -0.66 0.49
1 8.77 877 -0.656 -10.305 3.304 4.517 -38.910 46.967 -2404.134 2762.400 -2089.339 0.491 1.175 0.254 -0.33 0.46 -0.66 0.5
1 8.78 878 -0.943 -10.339 3.290 -2.899 -51.178 39.520 -2524.206 2732.420 -2119.319 0.696 1.215 0.280 -0.33 0.46 -0.65 0.5
1 8.79 879 -1.164 -10.358 3.089 -4.700 -56.214 37.201 -2479.085 2912.453 -2059.358 0.890 1.234 0.478 -0.33 0.45 -0.65 0.51
1 8.80 880 -1.561 -10.195 3.050 -4.028 -60.120 34.729 -2464.095 2867.332 -1969.267 1.267 1.070 0.512 -0.33 0.45 -0.65 0.51
1 8.81 881 -1.614 -9.888 3.026 -3.906 -65.460 33.875 -2464.095 2867.332 -1969.267 1.301 0.762 0.531 -0.34 0.45 -0.65 0.51
1 8.82 882 -1.571 -9.874 2.854 -7.080 -71.320 33.600 -2344.173 2972.414 -1999.248 1.237 0.745 0.694 -0.34 0.45 -0.64 0.52
1 8.83 883 -1.518 -9.659 3.017 -7.599 -75.073 34.912 -2464.095 2972.414 -1999.248 1.167 0.525 0.518 -0.34 0.45 -0.64 0.52
1 8.84 884 -1.489 -9.395 2.911 -6.104 -75.226 35.523 -2464.095 2972.414 -1999.248 1.121 0.257 0.610 -0.34 0.45 -0.63 0.53
1 8.85 885 -1.465 -9.060 2.907 -6.989 -76.721 35.614 -2569.176 2972.414 -1894.316 1.080 -0.081 0.606 -0.35 0.45 -0.63 0.53
1 8.86 886 -1.068 -8.505 2.643 -11.475 -81.757 35.339 -2539.196 2822.361 -1894.316 0.650 -0.642 0.850 -0.35 0.45 -0.62 0.54
1 8.87 887 -0.991 -8.399 2.749 -16.449 -85.541 33.875 -2464.095 2867.332 -1819.365 0.562 -0.754 0.727 -0.35 0.44 -0.62 0.54
1 8.88 888 -0.900 -8.327 2.466 -19.348 -89.234 33.020 -2464.095 2867.332 -1819.365 0.465 -0.833 0.988 -0.36 0.44 -0.61 0.55
1 8.89 889 -0.632 -8.361 2.538 -17.578 -93.720 32.990 -2479.085 2957.423 -1729.273 0.198 -0.808 0.896 -0.36 0.44 -0.61 0.55
1 8.90 890 -0.685 -8.332 2.279 -14.587 -96.436 32.929 -2494.075 3047.365 -1594.361 0.255 -0.843 1.137 -0.37 0.44 -0.61 0.55
1 8.91 891 -0.742 -8.251 2.361 -13.794 -100.525 31.616 -2492.126 3046.315 -1594.361 0.317 -0.930 1.042 -0.37 0.44 -0.6 0.56
1 8.92 892 -1.101 -8.538 2.308 -14.893 -102.387 30.151 -2702.140 2881.423 -1549.241 0.682 -0.647 1.082 -0.37 0.43 -0.6 0.56
1 8.93 893 -1.446 -9.371 2.586 -8.514 -102.082 29.602 -2627.188 3076.296 -1474.290 1.044 0.173 0.771 -0.38 0.43 -0.59 0.57
1 8.94 894 -1.690 -9.568 2.844 0.854 -98.328 34.790 -2492.126 3166.387 -1339.228 1.289 0.366 0.505 -0.39 0.43 -0.58 0.58
1 8.95 895 -2.236 -9.620 2.854 6.470 -96.527 41.016 -2492.126 3166.387 -1339.228 1.824 0.421 0.500 -0.39 0.42 -0.58 0.58
1 8.96 896 -2.466 -9.256 3.055 6.134 -98.206 41.687 -2642.179 3196.368 -1459.299 2.033 0.062 0.309 -0.39 0.42 -0.57 0.59
1 8.97 897 -2.624 -9.333 3.098 5.127 -98.542 39.642 -2552.237 3106.426 -1429.319 2.168 0.144 0.278 -0.39 0.42 -0.57 0.59
1 8.98 898 -2.447 -9.544 2.902 7.050 -105.896 37.720 -2552.237 3106.426 -1429.319 1.971 0.360 0.486 -0.39 0.41 -0.56 0.6
1 8.99 899 -2.155 -9.529 2.792 7.538 -109.436 36.133 -2612.198 3196.368 -1204.315 1.663 0.351 0.609 -0.4 0.41 -0.56 0.6
1 9.00 900 -1.978 -9.343 2.375 -1.129 -115.754 30.121 -2582.218 3406.381 -1249.286 1.476 0.173 1.047 -0.4 0.4 -0.55 0.61
1 9.01 901 -2.064 -9.390 2.279 -4.272 -119.019 28.839 -2657.169 3241.338 -1219.306 1.571 0.220 1.141 -0.41 0.4 -0.54 0.62
1 9.02 902 -1.384 -9.606 2.591 -8.301 -128.113 22.705 -2657.169 3241.338 -1219.306 0.907 0.430 0.819 -0.41 0.4 -0.54 0.62
1 9.03 903 -0.919 -10.406 2.543 0.610 -131.592 20.630 -2489.578 3299.800 -1084.543 0.471 1.226 0.860 -0.42 0.39 -0.53 0.62
1 9.04 904 -0.579 -10.070 2.524 19.043 -132.386 21.484 -2684.601 3164.888 -949.481 0.166 0.892 0.887 -0.42 0.39 -0.53 0.63
1 9.05 905 -0.747 -9.127 2.662 24.292 -139.679 15.808 -2684.601 3164.888 -949.481 0.372 -0.040 0.783 -0.42 0.38 -0.52 0.63
1 9.06 906 -1.259 -9.429 3.309 21.942 -154.969 17.670 -2579.520 3209.859 -814.569 0.931 0.274 0.173 -0.43 0.37 -0.52 0.64
1 9.07 907 -0.953 -9.390 3.917 21.484 -170.411 31.769 -2579.520 3209.859 -814.569 0.678 0.247 -0.402 -0.43 0.37 -0.51 0.65
1 9.08 908 0.254 -10.755 4.597 10.803 -178.498 38.635 -2534.549 3269.820 -829.560 -0.441 1.635 -1.015 -0.44 0.35 -0.5 0.66
1 9.09 909 1.461 -12.297 4.592 24.078 -168.122 41.016 -2534.549 3269.820 -829.560 -1.606 3.185 -0.989 -0.45 0.34 -0.49 0.67
1 9.10 910 2.423 -12.709 4.458 61.768 -153.199 44.251 -2622.092 3283.611 -679.807 -2.535 3.616 -0.805 -0.45 0.33 -0.48 0.67
1 9.11 911 3.031 -11.272 4.271 82.245 -139.008 49.683 -2697.043 3433.513 -634.836 -3.122 2.219 -0.520 -0.45 0.32 -0.48 0.68
1 9.12 912 2.524 -9.247 4.640 44.220 -145.203 46.295 -2697.043 3433.513 -634.836 -2.602 0.241 -0.775 -0.45 0.32 -0.47 0.69
1 9.13 913 2.160 -9.290 4.319 11.627 -156.159 38.910 -2517.160 3313.591 -559.885 -2.219 0.317 -0.378 -0.45 0.31 -0.47 0.69
1 9.14 914 1.690 -9.946 3.778 -2.258 -160.126 32.959 -2517.160 3313.591 -559.885 -1.694 0.987 0.193 -0.46 0.3 -0.46 0.7
1 9.15 915 1.523 -10.315 3.524 4.669 -155.579 36.102 -2412.079 3298.601 -544.895 -1.404 1.353 0.440 -0.46 0.29 -0.45 0.71
1 9.16 916 1.638 -9.754 3.333 10.956 -153.931 43.244 -2412.079 3298.601 -544.895 -1.477 0.796 0.637 -0.47 0.28 -0.44 0.71
1 9.17 917 1.863 -9.721 3.031 8.087 -153.687 41.992 -2637.082 3373.552 -289.911 -1.662 0.767 0.946 -0.47 0.27 -0.43 0.72
1 9.18 918 2.117 -8.974 2.864 47.608 -143.952 22.644 -2532.150 3493.624 -214.810 -1.860 0.025 1.123 -0.48 0.26 -0.43 0.72
1 9.19 919 1.757 -6.378 3.074 63.080 -135.407 32.806 -2528.403 3491.375 -215.709 -1.434 -2.541 0.973 -0.48 0.25 -0.42 0.73
1 9.20 920 1.106 -6.283 3.548 27.557 -146.668 44.098 -2468.292 3401.434 -245.690 -0.746 -2.603 0.570 -0.48 0.25 -0.42 0.73
1 9.21 921 1.202 -6.608 3.194 22.675 -153.321 49.896 -2468.292 3401.434 -245.690 -0.808 -2.259 0.960 -0.48 0.24 -0.41 0.74
1 9.22 922 1.255 -6.891 2.911 25.116 -150.147 54.840 -2528.403 3521.356 -140.608 -0.829 -1.965 1.265 -0.48 0.23 -0.4 0.74
1 9.23 923 1.288 -6.924 2.782 21.027 -145.264 62.256 -2438.312 3506.366 9.144 -0.824 -1.907 1.441 -0.49 0.22 -0.39 0.75
1 9.24 924 1.571 -7.398 2.878 12.573 -149.354 62.866 -2483.282 3521.356 -110.628 -1.096 -1.425 1.360 -0.49 0.21 -0.38 0.76
1 9.25 925 2.179 -8.136 2.840 6.409 -150.605 64.850 -2333.380 3686.398 -140.608 -1.692 -0.685 1.402 -0.49 0.2 -0.37 0.76
1 9.26 926 2.552 -8.754 2.677 6.409 -148.316 69.641 -2333.380 3686.398 -140.608 -2.050 -0.070 1.558 -0.49 0.2 -0.36 0.77
1 9.27 927 2.399 -10.013 2.461 2.411 -149.933 82.764 -2228.298 3641.428 99.235 -1.882 1.185 1.763 -0.5 0.19 -0.35 0.77
1 9.28 928 2.940 -10.315 2.988 -9.705 -152.527 80.261 -2228.298 3641.428 99.235 -2.419 1.478 1.218 -0.5 0.19 -0.34 0.77
1 9.29 929 3.429 -11.009 3.170 -1.953 -144.593 71.137 -2228.298 3716.379 99.235 -2.907 2.156 1.000 -0.5 0.18 -0.33 0.78
1 9.30 930 3.251 -10.568 2.677 12.817 -131.134 70.191 -2061.457 3700.040 248.688 -2.744 1.705 1.473 -0.51 0.17 -0.31 0.78
1 9.31 931 2.816 -9.922 2.768 13.001 -128.754 70.099 -2046.467 3835.102 233.698 -2.321 1.062 1.390 -0.51 0.16 -0.3 0.79
1 9.32 932 2.571 -9.520 2.686 9.125 -127.991 68.360 -1896.415 3835.102 308.649 -2.080 0.659 1.472 -0.51 0.16 -0.29 0.79
1 9.33 933 2.490 -9.390 2.734 10.193 -126.191 65.247 -1896.415 3835.102 308.649 -1.993 0.526 1.415 -0.51 0.15 -0.28 0.79
1 9.34 934 2.500 -9.146 2.567 14.648 -124.787 63.538 -1911.405 3820.111 218.708 -1.995 0.280 1.577 -0.52 0.15 -0.28 0.8
1 9.35 935 2.643 -8.902 2.725 14.832 -122.895 61.585 -1911.405 3820.111 218.708 -2.131 0.036 1.419 -0.52 0.14 -0.27 0.8
1 9.36 936 2.892 -8.916 2.964 13.947 -122.010 62.012 -1806.473 3895.062 368.760 -2.371 0.051 1.181 -0.52 0.14 -0.26 0.8
1 9.37 937 2.950 -8.998 2.945 13.214 -118.744 63.446 -1596.160 3789.981 593.613 -2.410 0.134 1.200 -0.52 0.12 -0.24 0.81
1 9.38 938 3.046 -9.122 3.184 14.893 -115.387 64.057 -1701.242 3999.844 623.594 -2.499 0.259 0.961 -0.52 0.12 -0.24 0.81
1 9.39 939 2.998 -8.964 3.481 12.604 -112.305 64.301 -1431.268 3819.961 503.672 -2.447 0.102 0.667 -0.52 0.11 -0.23 0.81
1 9.40 940 2.916 -9.041 3.481 9.064 -110.962 63.965 -1431.268 3819.961 503.672 -2.364 0.180 0.667 -0.53 0.11 -0.22 0.81
1 9.41 941 3.079 -8.945 3.496 7.233 -109.803 62.439 -1431.268 3924.893 578.623 -2.524 0.083 0.651 -0.53 0.1 -0.21 0.82
1 9.42 942 3.170 -9.170 3.505 9.247 -106.812 60.974 -1431.268 3924.893 578.623 -2.611 0.307 0.638 -0.53 0.1 -0.2 0.82
1 9.43 943 3.151 -9.098 3.596 10.071 -106.110 61.127 -1491.229 3909.903 638.584 -2.587 0.234 0.545 -0.53 0.09 -0.2 0.82
1 9.44 944 2.993 -9.232 3.620 10.010 -106.079 58.319 -1190.524 3984.254 563.483 -2.420 0.368 0.520 -0.53 0.08 -0.18 0.82
1 9.45 945 2.864 -9.285 3.639 10.559 -104.889 58.045 -1310.446 4029.225 533.502 -2.285 0.422 0.501 -0.53 0.08 -0.18 0.82
1 9.46 946 2.888 -9.223 3.735 11.200 -102.753 53.101 -980.511 4029.225 668.415 -2.301 0.360 0.406 -0.53 0.07 -0.17 0.83
1 9.47 947 2.873 -9.151 3.797 12.146 -101.532 51.239 -980.511 4029.225 668.415 -2.275 0.291 0.346 -0.53 0.07 -0.16 0.83
1 9.48 948 2.897 -9.180 3.692 11.292 -100.983 49.072 -1145.404 3924.144 578.473 -2.287 0.322 0.455 -0.53 0.06 -0.15 0.83
1 9.49 949 2.998 -9.103 3.582 12.543 -99.213 46.570 -1145.404 3924.144 578.473 -2.372 0.247 0.567 -0.53 0.06 -0.15 0.83
1 9.50 950 2.892 -9.213 3.567 13.886 -96.711 45.136 -1055.462 4059.206 563.483 -2.249 0.359 0.584 -0.53 0.05 -0.14 0.83
1 9.51 951 2.964 -9.141 3.395 13.031 -95.429 44.190 -995.501 3969.114 683.405 -2.304 0.291 0.760 -0.53 0.05 -0.14 0.83
1 9.52 952 2.835 -9.060 3.529 13.428 -90.699 41.962 -905.410 4029.225 638.434 -2.139 0.215 0.632 -0.54 0.04 -0.12 0.83
1 9.53 953 2.878 -9.113 3.390 13.825 -85.755 40.222 -830.459 4059.206 788.486 -2.165 0.270 0.774 -0.54 0.03 -0.12 0.84
1 9.54 954 2.864 -8.979 3.256 12.787 -81.452 40.253 -830.459 4059.206 788.486 -2.136 0.139 0.911 -0.54 0.03 -0.11 0.84
1 9.55 955 2.940 -8.988 3.199 13.458 -77.362 38.788 -680.107 4028.775 848.297 -2.199 0.151 0.971 -0.54 0.02 -0.11 0.84
1 9.56 956 2.993 -8.797 2.964 13.489 -72.388 34.729 -680.107 4028.775 848.297 -2.239 -0.039 1.208 -0.54 0.02 -0.1 0.84
1 9.57 957 3.103 -8.686 3.108 15.076 -72.571 32.196 -860.140 4028.775 668.415 -2.333 -0.146 1.067 -0.54 0.01 -0.1 0.84
1 9.58 958 2.926 -8.878 3.151 14.954 -73.548 30.762 -740.068 4073.746 548.343 -2.137 0.049 1.028 -0.54 0.01 -0.09 0.84
1 9.59 959 2.504 -8.935 3.151 7.202 -70.221 34.302 -695.097 4193.818 548.343 -1.674 0.112 1.031 -0.54 0 -0.08 0.84
1 9.60 960 2.059 -8.974 2.983 10.193 -68.238 35.858 -665.117 4073.746 803.327 -1.218 0.148 1.193 -0.54 -0 -0.08 0.84
1 9.61 961 1.480 -9.122 3.271 17.059 -67.444 36.041 -665.117 4073.746 803.327 -0.633 0.297 0.905 -0.54 -0 -0.07 0.84
1 9.62 962 1.231 -8.950 3.778 18.890 -65.949 35.156 -335.182 3998.795 578.323 -0.384 0.129 0.406 -0.54 -0.01 -0.07 0.84
1 9.63 963 0.991 -9.098 4.032 16.144 -65.277 31.494 -335.182 3998.795 578.323 -0.145 0.283 0.165 -0.53 -0.01 -0.06 0.84
1 9.64 964 0.417 -9.271 4.056 4.883 -64.881 25.574 -410.133 4148.847 548.343 0.432 0.460 0.151 -0.53 -0.01 -0.06 0.84
1 9.65 965 0.134 -9.515 3.596 -2.563 -62.561 22.797 -365.162 3923.844 623.294 0.720 0.705 0.611 -0.53 -0.02 -0.05 0.84
1 9.66 966 -0.235 -9.639 3.481 -1.129 -62.256 21.942 -365.162 3923.844 623.294 1.094 0.824 0.713 -0.53 -0.02 -0.05 0.84
1 9.67 967 -0.120 -9.659 3.108 7.813 -62.988 23.285 -365.162 4193.818 578.323 0.983 0.830 1.058 -0.54 -0.03 -0.04 0.84
1 9.68 968 0.302 -9.405 3.376 12.360 -62.500 24.445 -365.162 4193.818 578.323 0.561 0.574 0.785 -0.54 -0.03 -0.04 0.84
1 9.69 969 0.934 -8.912 3.318 13.367 -57.862 23.712 -335.182 4073.746 683.405 -0.070 0.083 0.846 -0.54 -0.03 -0.03 0.84
1 9.70 970 1.633 -8.476 3.266 7.385 -53.101 23.560 -335.182 4073.746 683.405 -0.766 -0.351 0.901 -0.53 -0.03 -0.03 0.84
1 9.71 971 2.409 -8.461 3.304 5.005 -50.812 23.071 -170.289 4059.206 638.434 -1.535 -0.367 0.860 -0.53 -0.04 -0.02 0.84
1 9.72 972 2.471 -8.016 3.907 4.730 -51.239 20.996 -365.312 4194.268 578.473 -1.587 -0.814 0.249 -0.54 -0.04 -0.02 0.84
1 9.73 973 2.270 -7.432 4.257 -3.143 -47.730 18.768 -365.312 4194.268 578.473 -1.370 -1.399 -0.104 -0.54 -0.04 -0.02 0.84
1 9.74 974 1.030 -7.317 4.444 -18.860 -42.877 17.975 -110.328 4149.297 623.444 -0.104 -1.524 -0.319 -0.54 -0.05 -0.01 0.84
1 9.75 975 0.192 -7.475 4.525 -19.928 -42.572 18.127 -110.328 4149.297 623.444 0.736 -1.381 -0.433 -0.54 -0.05 -0.01 0.84
1 9.76 976 -0.728 -7.772 4.564 -19.440 -42.816 15.930 -155.299 4044.215 623.444 1.659 -1.099 -0.504 -0.54 -0.05 -0.01 0.84
1 9.77 977 -1.465 -8.184 4.678 -25.726 -41.016 16.113 -155.299 4044.215 623.444 2.391 -0.700 -0.647 -0.54 -0.05 -0 0.84
1 9.78 978 -1.700 -9.347 4.156 -29.968 -37.842 22.430 -80.348 4074.196 683.405 2.611 0.445 -0.161 -0.54 -0.06 0 0.84
1 9.79 979 -1.470 -10.090 4.238 -28.687 -38.056 29.633 -155.299 4074.196 653.424 2.357 1.166 -0.285 -0.54 -0.06 0 0.84
1 9.80 980 -1.293 -10.602 4.468 -24.078 -39.826 37.323 -155.299 4074.196 653.424 2.146 1.656 -0.559 -0.55 -0.06 0.01 0.84
1 9.81 981 0.110 -10.602 4.635 -25.879 -22.461 36.713 -35.227 4194.268 728.525 0.681 1.617 -0.805 -0.55 -0.06 0.02 0.83
1 9.82 982 0.690 -12.110 4.358 -20.325 0.244 27.130 -35.227 4194.268 728.525 0.066 3.106 -0.565 -0.55 -0.06 0.02 0.83
1 9.83 983 0.235 -12.805 3.658 5.890 11.475 45.014 -35.227 3924.293 683.405 0.477 3.788 0.114 -0.55 -0.06 0.02 0.83
1 9.84 984 0.101 -11.684 3.740 35.217 9.705 53.620 -35.227 3924.293 683.405 0.537 2.671 0.053 -0.55 -0.05 0.02 0.83
1 9.85 985 0.417 -10.257 4.061 34.088 9.888 46.936 24.584 3939.284 713.385 0.143 1.260 -0.215 -0.55 -0.05 0.03 0.83
1 9.86 986 0.163 -9.644 4.137 4.028 9.094 39.703 144.506 4044.215 803.477 0.327 0.662 -0.250 -0.55 -0.05 0.03 0.84
1 9.87 987 0.014 -10.080 3.975 -5.035 4.517 40.802 144.506 4044.215 803.477 0.413 1.100 -0.075 -0.55 -0.05 0.03 0.84
1 9.88 988 -0.292 -10.434 3.874 -0.397 3.662 37.689 204.617 4029.225 668.415 0.657 1.449 0.020 -0.55 -0.04 0.03 0.84
1 9.89 989 -0.828 -10.339 3.955 7.996 10.193 33.722 234.447 4029.975 668.564 1.086 1.351 -0.057 -0.55 -0.04 0.04 0.84
1 9.90 990 -1.408 -9.970 3.812 8.026 11.536 36.469 159.496 4104.926 593.613 1.611 0.986 0.098 -0.55 -0.04 0.04 0.84
1 9.91 991 -1.729 -9.405 3.587 2.319 7.111 35.278 159.496 4104.926 593.613 1.869 0.423 0.332 -0.55 -0.04 0.04 0.84
1 9.92 992 -1.676 -8.907 3.352 -3.479 2.014 33.203 144.356 4119.916 683.555 1.752 -0.076 0.565 -0.55 -0.03 0.04 0.84
1 9.93 993 -1.250 -8.505 3.285 -8.728 -2.350 30.975 249.438 4149.896 548.493 1.268 -0.483 0.622 -0.55 -0.03 0.05 0.83
1 9.94 994 -1.130 -8.256 3.285 -6.073 -3.021 34.332 249.438 4149.896 548.493 1.095 -0.738 0.608 -0.55 -0.03 0.05 0.83
1 9.95 995 -0.924 -8.141 3.290 -1.831 -3.265 34.027 384.350 4134.906 638.584 0.836 -0.857 0.592 -0.55 -0.03 0.05 0.83
