COL1	TIME	ACC_X	ACC_Y	ACC_Z	GYR_X	GYR_Y	GYR_Z	MAG_X	MAG_Y	MAG_Z	LACC_X	LACC_Y	LACC_Z	QUAT_X	QUAT_Y	QUAT_Z	QUAT_W
1 0.00 0 0.929 -9.946 0.781 -0.061 -0.763 1.495 -584.919 224.854 -2789.982 0.041 0.216 -0.127 -0.1 0.68 -0.73 0.04
1 0.01 1 0.972 -9.831 0.637 -0.244 -0.854 1.312 -584.919 29.980 -2759.852 -0.002 0.101 0.017 -0.1 0.67 -0.73 0.04
1 0.02 2 1.073 -9.941 0.690 -0.671 -0.732 1.068 -584.919 29.980 -2759.852 -0.103 0.211 -0.036 -0.1 0.68 -0.73 0.04
1 0.03 3 0.857 -9.888 0.608 -0.183 -0.061 1.678 -584.919 29.980 -2714.881 0.113 0.158 0.046 -0.1 0.68 -0.73 0.04
1 0.04 4 0.876 -9.788 0.728 0.488 -0.610 0.549 -584.919 29.980 -2714.881 0.093 0.058 -0.074 -0.1 0.68 -0.73 0.04
1 0.05 5 0.963 -9.841 0.737 0.244 -1.160 1.099 -599.909 44.971 -2699.891 0.006 0.110 -0.083 -0.1 0.67 -0.73 0.04
1 0.06 6 0.972 -9.874 0.685 0.000 -0.702 1.465 -524.958 119.922 -2804.973 -0.003 0.144 -0.030 -0.1 0.67 -0.73 0.04
1 0.07 7 0.838 -9.936 0.594 0.031 0.061 1.984 -539.948 74.951 -2759.852 0.132 0.206 0.061 -0.1 0.67 -0.73 0.04
1 0.08 8 0.963 -9.764 0.642 0.702 -0.092 1.221 -690.000 29.980 -2639.930 0.006 0.034 0.014 -0.1 0.67 -0.73 0.04
1 0.09 9 0.963 -9.750 0.752 0.244 -0.183 1.160 -690.000 29.980 -2639.930 0.006 0.020 -0.094 -0.1 0.67 -0.73 0.04
1 0.10 10 0.996 -9.888 0.766 1.038 -0.183 0.977 -599.909 -44.971 -2879.924 -0.028 0.159 -0.108 -0.1 0.67 -0.73 0.04
1 0.11 11 0.953 -9.908 0.646 -0.275 -0.214 0.946 -599.909 -44.971 -2879.924 0.016 0.178 0.014 -0.1 0.67 -0.73 0.04
1 0.12 12 1.006 -9.841 0.685 -0.732 0.275 0.824 -629.890 89.941 -2669.911 -0.038 0.111 -0.024 -0.1 0.67 -0.73 0.04
1 0.13 13 0.929 -9.812 0.694 -1.160 0.153 0.793 -599.909 -14.990 -2669.911 0.039 0.082 -0.032 -0.1 0.67 -0.73 0.04
1 0.14 14 0.934 -9.999 0.670 -1.129 0.641 0.610 -539.948 -74.951 -2564.979 0.034 0.269 -0.008 -0.1 0.67 -0.73 0.04
1 0.15 15 0.872 -9.860 0.819 -0.214 0.244 1.495 -539.948 0.000 -2864.934 0.096 0.130 -0.156 -0.1 0.67 -0.73 0.04
1 0.16 16 0.915 -9.927 0.666 0.427 0.458 1.251 -539.948 0.000 -2864.934 0.052 0.197 -0.001 -0.1 0.67 -0.73 0.04
1 0.17 17 0.881 -9.864 0.656 0.793 0.122 1.587 -690.000 0.000 -2714.881 0.085 0.135 0.010 -0.1 0.67 -0.73 0.04
1 0.18 18 1.010 -9.898 0.723 0.183 0.458 0.977 -690.000 0.000 -2714.881 -0.046 0.169 -0.055 -0.1 0.67 -0.73 0.04
1 0.19 19 0.972 -9.955 0.733 0.031 0.610 1.312 -524.958 89.941 -2729.872 -0.007 0.226 -0.062 -0.1 0.67 -0.73 0.04
1 0.20 20 0.996 -9.946 0.690 -0.641 0.641 0.977 -614.899 29.980 -2714.881 -0.032 0.217 -0.017 -0.1 0.67 -0.73 0.04
1 0.21 21 0.939 -9.912 0.690 0.275 0.732 1.282 -614.899 104.932 -2894.914 0.025 0.183 -0.016 -0.1 0.67 -0.73 0.04
1 0.22 22 0.939 -9.802 0.728 1.740 0.275 2.106 -614.899 0.000 -2819.963 0.024 0.073 -0.052 -0.1 0.67 -0.73 0.04
1 0.23 23 1.030 -9.711 0.704 2.869 0.793 1.862 -614.899 0.000 -2819.963 -0.068 -0.018 -0.024 -0.1 0.67 -0.73 0.04
1 0.24 24 0.929 -9.635 0.723 2.625 1.831 1.831 -659.870 0.000 -2684.901 0.032 -0.094 -0.037 -0.1 0.67 -0.73 0.04
1 0.25 25 0.991 -9.735 0.599 0.580 1.984 1.129 -659.870 0.000 -2684.901 -0.032 0.007 0.093 -0.1 0.67 -0.73 0.04
1 0.26 26 0.958 -9.730 0.733 -1.892 1.495 0.336 -539.948 149.902 -2759.852 0.001 0.002 -0.038 -0.1 0.67 -0.73 0.04
1 0.27 27 1.044 -9.932 0.833 -3.876 0.824 0.580 -509.968 29.980 -2759.852 -0.085 0.203 -0.139 -0.1 0.67 -0.73 0.04
1 0.28 28 0.982 -9.975 0.685 -1.404 1.373 1.129 -599.909 44.971 -2909.904 -0.023 0.246 0.002 -0.1 0.67 -0.73 0.04
1 0.29 29 0.828 -9.884 0.733 1.709 1.678 1.678 -509.968 149.902 -2894.914 0.129 0.155 -0.045 -0.1 0.67 -0.73 0.04
1 0.30 30 1.006 -9.706 0.699 4.059 1.312 1.312 -509.968 149.902 -2894.914 -0.050 -0.022 -0.006 -0.1 0.67 -0.73 0.04
1 0.31 31 0.819 -9.759 0.642 3.540 0.732 1.251 -690.000 -74.951 -2714.881 0.136 0.031 0.058 -0.1 0.67 -0.73 0.04
1 0.32 32 0.852 -9.692 0.852 -0.336 0.580 1.343 -690.000 -74.951 -2714.881 0.102 -0.036 -0.147 -0.1 0.67 -0.73 0.04
1 0.33 33 0.862 -9.836 0.752 -3.235 0.458 1.190 -569.929 89.941 -2729.872 0.091 0.108 -0.044 -0.1 0.67 -0.73 0.04
1 0.34 34 0.972 -9.726 0.737 -4.547 0.519 1.465 -629.890 -14.990 -2849.943 -0.020 -0.002 -0.032 -0.1 0.67 -0.73 0.04
1 0.35 35 0.972 -9.984 0.848 -2.777 0.092 1.160 -674.860 119.922 -2699.891 -0.022 0.255 -0.151 -0.1 0.67 -0.73 0.04
1 0.36 36 0.910 -9.955 0.733 -0.183 -0.092 1.465 -524.958 14.990 -2624.940 0.040 0.226 -0.037 -0.1 0.67 -0.73 0.04
1 0.37 37 0.972 -9.869 0.776 0.885 0.275 1.740 -524.958 14.990 -2624.940 -0.023 0.140 -0.078 -0.1 0.67 -0.73 0.04
1 0.38 38 0.809 -9.769 0.742 1.068 -0.397 1.465 -524.958 -89.941 -2669.911 0.139 0.040 -0.041 -0.1 0.67 -0.73 0.04
1 0.39 39 0.967 -9.740 0.795 0.153 -0.275 1.801 -524.958 -89.941 -2669.911 -0.020 0.011 -0.091 -0.1 0.67 -0.73 0.04
1 0.40 40 0.800 -9.845 0.766 -1.953 -0.061 1.648 -449.857 14.990 -2669.911 0.147 0.117 -0.061 -0.1 0.67 -0.73 0.04
1 0.41 41 0.943 -9.836 0.790 -2.991 -0.366 2.014 -524.958 89.941 -2804.973 0.002 0.107 -0.086 -0.1 0.67 -0.73 0.04
1 0.42 42 0.943 -9.850 0.685 -1.953 0.183 1.740 -524.958 89.941 -2804.973 0.001 0.121 0.016 -0.1 0.67 -0.73 0.04
1 0.43 43 1.068 -9.831 0.694 -1.221 0.519 1.465 -524.958 14.990 -2804.973 -0.125 0.101 0.004 -0.1 0.67 -0.73 0.04
1 0.44 44 1.030 -9.773 0.761 -1.068 0.641 1.373 -524.958 14.990 -2804.973 -0.086 0.044 -0.064 -0.1 0.67 -0.73 0.04
1 0.45 45 0.886 -9.807 0.675 -0.763 0.824 1.495 -449.857 14.990 -2849.943 0.057 0.077 0.022 -0.1 0.67 -0.73 0.04
1 0.46 46 0.852 -9.850 0.656 -0.916 1.007 1.099 -449.857 14.990 -2849.943 0.090 0.121 0.041 -0.1 0.67 -0.73 0.04
1 0.47 47 0.862 -9.783 0.713 -1.160 0.946 1.282 -524.958 14.990 -2699.891 0.079 0.053 -0.016 -0.1 0.67 -0.73 0.04
1 0.48 48 0.852 -9.730 0.742 -1.251 0.824 1.251 -494.978 -14.990 -2804.973 0.087 0.000 -0.045 -0.1 0.67 -0.73 0.04
1 0.49 49 0.943 -9.994 0.761 -1.709 0.366 0.885 -494.978 -14.990 -2804.973 -0.004 0.264 -0.065 -0.1 0.67 -0.73 0.04
1 0.50 50 0.977 -9.855 0.690 -0.916 0.183 0.519 -449.857 14.990 -2774.992 -0.037 0.125 0.006 -0.1 0.67 -0.73 0.04
1 0.51 51 0.872 -9.850 0.795 -0.916 0.305 0.946 -449.857 14.990 -2774.992 0.068 0.120 -0.100 -0.1 0.67 -0.73 0.04
1 0.52 52 0.924 -9.773 0.900 -0.183 0.793 1.984 -629.890 14.990 -2804.973 0.015 0.043 -0.206 -0.1 0.67 -0.73 0.04
1 0.53 53 0.819 -9.773 0.675 0.214 0.763 1.221 -629.890 14.990 -2804.973 0.119 0.043 0.022 -0.1 0.67 -0.73 0.04
1 0.54 54 0.838 -9.769 0.752 0.061 0.763 1.465 -539.948 29.980 -2819.963 0.099 0.039 -0.054 -0.1 0.67 -0.73 0.04
1 0.55 55 0.843 -9.826 0.757 -1.221 0.244 1.495 -599.909 164.893 -2699.891 0.093 0.096 -0.056 -0.1 0.67 -0.73 0.04
1 0.56 56 0.790 -9.845 0.637 -1.740 0.244 2.075 -599.909 164.893 -2699.891 0.144 0.115 0.064 -0.1 0.67 -0.73 0.04
1 0.57 57 0.924 -9.951 0.699 -1.038 0.336 1.923 -524.958 -119.922 -2669.911 0.006 0.220 -0.002 -0.1 0.67 -0.73 0.04
1 0.58 58 1.015 -9.841 0.713 -0.092 0.153 1.709 -524.958 -119.922 -2669.911 -0.087 0.110 -0.016 -0.1 0.67 -0.73 0.04
1 0.59 59 0.905 -9.893 0.752 0.183 0.000 2.106 -494.978 -89.941 -2774.992 0.023 0.162 -0.052 -0.1 0.67 -0.73 0.04
1 0.60 60 0.963 -9.812 0.761 0.031 -0.427 1.404 -494.978 -89.941 -2774.992 -0.036 0.081 -0.061 -0.1 0.67 -0.73 0.04
1 0.61 61 0.867 -9.797 0.742 -0.458 -0.732 1.251 -524.958 14.990 -2624.940 0.060 0.067 -0.041 -0.1 0.67 -0.73 0.04
1 0.62 62 0.996 -9.817 0.699 -1.465 -0.275 2.136 -539.948 0.000 -2789.982 -0.070 0.086 0.002 -0.1 0.67 -0.73 0.04
1 0.63 63 0.915 -9.922 0.809 -1.404 -0.275 1.892 -539.948 0.000 -2789.982 0.011 0.191 -0.109 -0.1 0.67 -0.73 0.04
1 0.64 64 1.001 -9.793 0.761 -0.275 -0.183 1.617 -509.968 -29.980 -2789.982 -0.076 0.062 -0.061 -0.1 0.67 -0.73 0.04
1 0.65 65 0.876 -9.807 0.776 0.397 -0.671 1.617 -509.968 -29.980 -2789.982 0.049 0.076 -0.075 -0.1 0.67 -0.73 0.04
1 0.66 66 0.986 -9.692 0.713 -0.366 -0.397 1.617 -524.958 14.990 -2804.973 -0.061 -0.039 -0.012 -0.1 0.67 -0.73 0.04
1 0.67 67 0.958 -9.659 0.857 -0.885 -0.122 1.587 -524.958 14.990 -2804.973 -0.032 -0.072 -0.155 -0.1 0.67 -0.73 0.04
1 0.68 68 0.876 -9.812 0.809 -0.427 -0.641 1.678 -539.948 29.980 -2819.963 0.050 0.081 -0.107 -0.1 0.67 -0.73 0.04
1 0.69 69 1.001 -9.888 0.800 -2.319 -0.427 0.641 -539.948 -74.951 -2684.901 -0.074 0.158 -0.096 -0.1 0.67 -0.73 0.04
1 0.70 70 0.943 -9.807 0.742 -2.472 -0.946 1.129 -539.948 -74.951 -2684.901 -0.017 0.076 -0.040 -0.1 0.67 -0.73 0.04
1 0.71 71 0.910 -9.869 0.718 -1.831 -0.427 0.732 -629.890 -89.941 -2729.872 0.017 0.138 -0.018 -0.1 0.67 -0.73 0.04
1 0.72 72 0.881 -9.932 0.761 -0.793 0.275 1.221 -629.890 14.990 -2624.940 0.046 0.200 -0.063 -0.1 0.67 -0.73 0.04
1 0.73 73 0.795 -9.706 0.713 0.275 -0.458 1.282 -464.997 -29.980 -2714.881 0.131 -0.025 -0.015 -0.1 0.67 -0.73 0.04
1 0.74 74 0.943 -9.817 0.747 0.031 -1.160 1.892 -464.997 -29.980 -2714.881 -0.018 0.085 -0.048 -0.1 0.67 -0.73 0.04
1 0.75 75 0.867 -9.932 0.733 -0.336 -1.160 0.977 -614.899 104.932 -2609.950 0.058 0.200 -0.034 -0.1 0.67 -0.73 0.04
1 0.76 76 0.967 -9.860 0.915 -1.801 -0.427 1.190 -584.919 -74.951 -2714.881 -0.043 0.128 -0.216 -0.1 0.67 -0.73 0.04
1 0.77 77 0.929 -9.922 0.804 -2.808 -0.397 1.892 -584.919 -74.951 -2714.881 -0.004 0.191 -0.105 -0.1 0.67 -0.73 0.04
1 0.78 78 1.087 -9.884 0.757 -2.533 -0.610 1.373 -449.857 14.990 -2879.924 -0.164 0.152 -0.060 -0.1 0.67 -0.73 0.04
1 0.79 79 0.876 -9.927 0.781 0.336 -1.495 1.129 -449.857 89.941 -2624.940 0.047 0.195 -0.086 -0.1 0.67 -0.73 0.04
1 0.80 80 0.819 -9.773 0.733 0.946 -1.617 1.831 -374.906 -14.990 -2729.872 0.104 0.042 -0.037 -0.1 0.67 -0.73 0.04
1 0.81 81 0.900 -9.730 0.766 1.190 -1.312 1.648 -374.906 -14.990 -2729.872 0.021 -0.001 -0.068 -0.1 0.67 -0.73 0.04
1 0.82 82 1.039 -9.788 0.757 -0.214 -1.007 1.617 -614.899 0.000 -2609.950 -0.118 0.056 -0.056 -0.1 0.67 -0.73 0.04
1 0.83 83 0.895 -9.879 0.800 -1.617 -0.275 0.732 -419.876 119.922 -2879.924 0.026 0.147 -0.099 -0.1 0.67 -0.73 0.04
1 0.84 84 0.943 -9.855 0.809 -2.045 -0.519 1.282 -419.876 119.922 -2879.924 -0.021 0.124 -0.108 -0.1 0.67 -0.73 0.04
1 0.85 85 0.967 -9.845 0.819 -2.045 -0.366 0.519 -464.997 -29.980 -2684.901 -0.045 0.114 -0.119 -0.1 0.67 -0.73 0.04
1 0.86 86 0.838 -9.932 0.646 -1.007 -0.488 0.977 -434.867 29.980 -2684.901 0.085 0.200 0.051 -0.1 0.67 -0.73 0.04
1 0.87 87 0.934 -9.797 0.713 -0.244 -0.549 1.434 -599.909 -14.990 -2774.992 -0.012 0.066 -0.016 -0.1 0.67 -0.73 0.04
1 0.88 88 0.900 -9.802 0.699 0.580 -0.031 0.549 -599.909 -14.990 -2774.992 0.022 0.071 -0.002 -0.1 0.67 -0.73 0.04
1 0.89 89 0.819 -9.841 0.833 -0.519 -0.885 0.763 -509.968 104.932 -2789.982 0.103 0.109 -0.134 -0.1 0.67 -0.73 0.04
1 0.90 90 0.939 -9.869 0.790 -1.617 -0.092 1.465 -539.948 -104.932 -2684.901 -0.017 0.138 -0.090 -0.1 0.67 -0.73 0.04
1 0.91 91 0.977 -9.807 0.776 -1.434 -0.244 1.526 -539.948 -104.932 -2684.901 -0.056 0.076 -0.076 -0.1 0.67 -0.73 0.04
1 0.92 92 0.872 -9.797 0.757 -0.336 -1.251 1.770 -389.896 -104.932 -2684.901 0.049 0.066 -0.058 -0.1 0.67 -0.73 0.04
1 0.93 93 0.857 -9.841 0.675 -0.427 -0.793 1.434 -569.929 -89.941 -2729.872 0.063 0.109 0.024 -0.1 0.67 -0.73 0.04
1 0.94 94 0.891 -9.754 0.761 0.061 -1.190 1.495 -539.948 149.902 -2714.881 0.028 0.023 -0.063 -0.1 0.67 -0.73 0.04
1 0.95 95 0.895 -9.740 0.910 -1.099 -1.251 1.251 -539.948 149.902 -2714.881 0.023 0.008 -0.211 -0.1 0.67 -0.73 0.04
1 0.96 96 0.886 -9.898 0.776 -1.495 -0.916 1.282 -509.968 74.951 -2759.852 0.033 0.166 -0.076 -0.1 0.67 -0.73 0.04
1 0.97 97 0.915 -9.903 0.785 -2.075 -1.404 1.312 -614.899 74.951 -2714.881 0.004 0.171 -0.086 -0.1 0.67 -0.73 0.04
1 0.98 98 0.900 -9.922 0.666 -1.190 -1.099 1.282 -614.899 74.951 -2714.881 0.018 0.190 0.032 -0.1 0.67 -0.73 0.04
1 0.99 99 0.948 -9.884 0.656 -0.702 -1.984 1.251 -524.958 -89.941 -2774.992 -0.031 0.152 0.041 -0.1 0.67 -0.73 0.04
1 1.00 100 0.934 -9.817 0.694 0.031 -1.343 1.556 -524.958 -89.941 -2669.911 -0.016 0.085 0.003 -0.1 0.67 -0.73 0.04
1 1.01 101 0.986 -9.764 0.632 -0.488 -1.099 1.434 -494.978 -44.971 -2849.943 -0.068 0.032 0.065 -0.1 0.67 -0.73 0.04
1 1.02 102 0.934 -9.821 0.646 -1.312 -1.343 1.678 -494.978 -44.971 -2849.943 -0.015 0.089 0.051 -0.1 0.67 -0.73 0.04
1 1.03 103 0.991 -9.922 0.761 -1.404 -1.282 1.373 -464.997 74.951 -2714.881 -0.073 0.190 -0.065 -0.1 0.67 -0.73 0.04
1 1.04 104 0.848 -9.874 0.891 -1.709 -1.831 1.465 -614.899 74.951 -2714.881 0.071 0.142 -0.194 -0.1 0.67 -0.73 0.04
1 1.05 105 0.814 -9.730 0.675 -0.061 -1.587 0.732 -614.899 74.951 -2714.881 0.104 -0.002 0.021 -0.1 0.67 -0.73 0.04
1 1.06 106 0.910 -9.807 0.680 1.129 -0.916 1.495 -464.997 0.000 -2684.901 0.008 0.075 0.016 -0.1 0.67 -0.73 0.04
1 1.07 107 0.934 -9.860 0.747 0.183 -1.373 0.671 -584.919 29.980 -2759.852 -0.015 0.128 -0.049 -0.1 0.67 -0.73 0.04
1 1.08 108 1.001 -9.884 0.814 -1.862 -1.556 0.885 -614.899 29.980 -2684.901 -0.083 0.152 -0.114 -0.1 0.67 -0.73 0.04
1 1.09 109 1.010 -9.826 0.733 -1.953 -1.526 1.099 -614.899 29.980 -2684.901 -0.092 0.094 -0.033 -0.1 0.67 -0.73 0.04
1 1.10 110 0.790 -9.831 0.771 -2.106 -1.251 1.099 -524.958 14.990 -2774.992 0.129 0.099 -0.074 -0.1 0.67 -0.73 0.04
1 1.11 111 0.924 -9.812 0.833 -0.580 -0.610 1.068 -674.860 -89.941 -2729.872 -0.006 0.080 -0.137 -0.1 0.67 -0.73 0.04
1 1.12 112 0.800 -9.841 0.809 0.092 -1.129 0.397 -674.860 -89.941 -2729.872 0.118 0.109 -0.112 -0.1 0.67 -0.73 0.04
1 1.13 113 0.795 -9.879 0.804 0.336 -1.556 0.824 -629.890 119.922 -2699.891 0.122 0.147 -0.107 -0.1 0.67 -0.73 0.04
1 1.14 114 0.776 -9.802 0.666 -0.153 -1.495 0.916 -509.968 0.000 -2684.901 0.140 0.070 0.033 -0.1 0.67 -0.73 0.04
1 1.15 115 0.852 -9.831 0.666 -0.275 -1.923 1.282 -509.968 0.000 -2684.901 0.063 0.099 0.032 -0.1 0.67 -0.73 0.04
1 1.16 116 0.910 -9.797 0.680 -0.854 -1.831 0.763 -584.919 74.951 -2819.963 0.005 0.065 0.018 -0.1 0.67 -0.73 0.04
1 1.17 117 0.934 -9.922 0.752 -0.916 -1.465 1.343 -524.958 -14.990 -2849.943 -0.019 0.190 -0.054 -0.1 0.67 -0.73 0.04
1 1.18 118 0.919 -9.936 0.642 -0.610 -1.099 1.282 -614.899 -29.980 -2759.852 -0.005 0.204 0.057 -0.1 0.67 -0.73 0.04
1 1.19 119 1.053 -9.888 0.713 -0.244 -1.312 1.282 -614.899 -29.980 -2759.852 -0.139 0.156 -0.015 -0.1 0.67 -0.73 0.04
1 1.20 120 0.814 -9.797 0.766 0.580 -1.556 1.251 -584.919 104.932 -2789.982 0.101 0.065 -0.067 -0.1 0.67 -0.73 0.04
1 1.21 121 0.910 -9.836 0.733 0.427 -1.099 0.549 -659.870 -29.980 -2864.934 0.005 0.104 -0.034 -0.1 0.67 -0.73 0.04
1 1.22 122 0.857 -9.860 0.651 0.214 -1.709 0.885 -659.870 -29.980 -2864.934 0.057 0.127 0.048 -0.1 0.67 -0.73 0.04
1 1.23 123 0.991 -9.864 0.761 -0.732 -1.648 1.343 -389.896 29.980 -2789.982 -0.078 0.132 -0.063 -0.1 0.67 -0.73 0.04
1 1.24 124 1.188 -9.745 0.713 -0.916 -1.343 1.831 -614.899 74.951 -2864.934 -0.274 0.013 -0.014 -0.1 0.67 -0.73 0.04
1 1.25 125 0.867 -9.788 0.723 -0.275 -1.434 1.892 -524.958 -44.971 -2849.943 0.048 0.056 -0.024 -0.1 0.67 -0.73 0.04
1 1.26 126 0.948 -9.716 0.761 0.183 -1.129 1.617 -524.958 -44.971 -2849.943 -0.033 -0.016 -0.062 -0.1 0.67 -0.73 0.04
1 1.27 127 1.030 -9.812 0.694 0.671 -1.007 1.831 -449.857 -89.941 -2624.940 -0.115 0.080 0.006 -0.1 0.67 -0.73 0.04
1 1.28 128 0.910 -9.888 0.766 0.336 -0.458 1.740 -614.899 -149.902 -2639.930 0.004 0.156 -0.065 -0.1 0.67 -0.73 0.04
1 1.29 129 0.905 -9.750 0.761 -0.702 -0.580 0.885 -614.899 -149.902 -2639.930 0.009 0.018 -0.060 -0.1 0.67 -0.73 0.04
1 1.30 130 0.982 -9.793 0.761 -0.610 -1.312 1.068 -509.968 -29.980 -2789.982 -0.068 0.061 -0.059 -0.1 0.67 -0.73 0.04
1 1.31 131 0.785 -9.821 0.819 -0.427 -0.793 0.824 -464.997 -74.951 -2864.934 0.129 0.089 -0.117 -0.1 0.67 -0.73 0.04
1 1.32 132 0.862 -9.764 0.690 0.488 -0.183 1.526 -449.857 44.971 -2804.973 0.052 0.032 0.014 -0.1 0.67 -0.73 0.04
1 1.33 133 0.886 -9.711 0.814 0.641 -0.336 1.221 -449.857 44.971 -2804.973 0.028 -0.021 -0.109 -0.1 0.67 -0.73 0.04
1 1.34 134 0.900 -9.797 0.785 0.244 -0.702 0.702 -584.919 0.000 -2819.963 0.013 0.066 -0.078 -0.1 0.67 -0.73 0.04
1 1.35 135 0.977 -9.797 0.718 -1.282 -0.427 0.763 -524.958 -164.893 -2879.924 -0.064 0.066 -0.010 -0.1 0.67 -0.73 0.04
1 1.36 136 0.991 -9.927 0.718 -1.648 -1.007 1.434 -524.958 -164.893 -2879.924 -0.078 0.195 -0.010 -0.1 0.67 -0.73 0.04
1 1.37 137 0.891 -9.922 0.728 -0.763 -0.916 0.946 -464.997 74.951 -2969.865 0.022 0.190 -0.019 -0.1 0.67 -0.73 0.04
1 1.38 138 0.982 -9.860 0.747 0.488 -1.160 0.916 -614.899 29.980 -2714.881 -0.069 0.128 -0.038 -0.1 0.67 -0.73 0.04
1 1.39 139 1.030 -9.812 0.804 0.702 0.244 1.617 -629.890 -14.990 -2699.891 -0.117 0.080 -0.094 -0.1 0.67 -0.73 0.04
1 1.40 140 0.948 -9.802 0.833 0.732 0.092 1.648 -629.890 -14.990 -2699.891 -0.035 0.071 -0.120 -0.1 0.67 -0.73 0.04
1 1.41 141 0.900 -9.793 0.828 0.122 0.153 1.953 -464.997 0.000 -2714.881 0.012 0.062 -0.112 -0.1 0.67 -0.73 0.04
1 1.42 142 0.910 -9.730 0.785 -0.549 -0.244 0.977 -449.857 -14.990 -2699.891 0.002 -0.001 -0.068 -0.1 0.67 -0.73 0.04
1 1.43 143 0.886 -9.735 0.800 -0.763 -0.183 0.854 -449.857 -14.990 -2699.891 0.026 0.004 -0.082 -0.1 0.67 -0.73 0.04
1 1.44 144 0.991 -9.888 0.704 -1.343 0.122 0.977 -509.968 149.902 -2639.930 -0.080 0.157 0.014 -0.1 0.67 -0.73 0.04
1 1.45 145 0.857 -9.869 0.747 -0.763 -0.031 0.488 -449.857 44.971 -2624.940 0.055 0.138 -0.030 -0.1 0.67 -0.73 0.04
1 1.46 146 0.809 -9.826 0.694 -1.160 -0.153 0.458 -464.997 -29.980 -2714.881 0.103 0.095 0.023 -0.1 0.67 -0.73 0.04
1 1.47 147 0.747 -9.922 0.733 -1.251 -0.549 -0.153 -464.997 -29.980 -2714.881 0.164 0.191 -0.016 -0.1 0.67 -0.73 0.04
1 1.48 148 0.814 -9.769 0.761 -0.732 -1.038 0.061 -524.958 44.971 -2849.943 0.097 0.037 -0.045 -0.1 0.67 -0.73 0.04
1 1.49 149 0.872 -9.989 0.680 0.427 -1.587 0.854 -599.909 44.971 -2669.911 0.040 0.258 0.037 -0.1 0.67 -0.73 0.04
1 1.50 150 0.800 -9.817 0.785 0.977 -1.678 0.824 -599.909 44.971 -2669.911 0.111 0.085 -0.068 -0.1 0.67 -0.73 0.04
1 1.51 151 0.872 -9.812 0.752 0.977 -2.197 1.526 -494.978 89.941 -2699.891 0.039 0.081 -0.033 -0.1 0.67 -0.73 0.04
1 1.52 152 0.867 -9.759 0.795 -0.244 -2.289 0.763 -599.909 -89.941 -2909.904 0.044 0.028 -0.071 -0.1 0.67 -0.73 0.04
1 1.53 153 0.881 -9.845 0.848 -0.549 -1.984 1.190 -509.968 74.951 -2759.852 0.030 0.115 -0.124 -0.1 0.67 -0.73 0.04
1 1.54 154 1.030 -9.946 0.824 -1.617 -1.465 1.190 -509.968 74.951 -2759.852 -0.119 0.215 -0.099 -0.1 0.67 -0.73 0.04
1 1.55 155 0.943 -9.773 0.857 -0.732 -1.678 1.343 -449.857 -14.990 -2774.992 -0.032 0.043 -0.131 -0.1 0.67 -0.73 0.04
1 1.56 156 0.886 -9.826 0.795 0.366 -1.862 1.892 -434.867 104.932 -2759.852 0.026 0.096 -0.069 -0.1 0.67 -0.73 0.04
1 1.57 157 1.097 -9.754 0.828 0.610 -1.740 0.946 -434.867 104.932 -2759.852 -0.185 0.024 -0.100 -0.1 0.67 -0.73 0.04
1 1.58 158 0.948 -9.850 0.809 0.580 -1.038 1.007 -614.899 -74.951 -2684.901 -0.036 0.120 -0.078 -0.1 0.67 -0.73 0.04
1 1.59 159 1.106 -9.884 0.809 -0.671 -1.160 0.885 -614.899 -74.951 -2684.901 -0.193 0.154 -0.077 -0.1 0.67 -0.73 0.04
1 1.60 160 0.967 -9.879 0.757 -1.678 -0.702 0.305 -449.857 -14.990 -2804.973 -0.053 0.149 -0.024 -0.1 0.67 -0.73 0.04
1 1.61 161 0.876 -9.750 0.752 -0.702 -1.007 0.977 -449.857 -14.990 -2804.973 0.038 0.020 -0.018 -0.1 0.67 -0.73 0.04
1 1.62 162 0.924 -9.735 0.900 1.007 -0.702 1.007 -539.948 0.000 -2714.881 -0.010 0.006 -0.166 -0.1 0.67 -0.73 0.04
1 1.63 163 1.001 -9.836 0.800 1.404 -0.885 0.641 -614.899 -29.980 -2864.934 -0.087 0.106 -0.062 -0.1 0.67 -0.73 0.04
1 1.64 164 1.039 -9.625 0.757 0.793 -1.038 0.183 -614.899 -29.980 -2864.934 -0.124 -0.104 -0.016 -0.1 0.67 -0.73 0.04
1 1.65 165 0.886 -9.793 0.958 -0.702 -0.641 0.580 -494.978 -14.990 -2669.911 0.031 0.064 -0.215 -0.1 0.67 -0.73 0.04
1 1.66 166 0.943 -9.788 0.771 -1.404 -1.221 -0.061 -494.978 -14.990 -2669.911 -0.026 0.059 -0.027 -0.1 0.67 -0.73 0.04
1 1.67 167 0.943 -9.975 0.848 -1.770 -0.946 -0.183 -509.968 0.000 -2684.901 -0.024 0.246 -0.105 -0.1 0.67 -0.73 0.04
1 1.68 168 0.915 -9.965 0.752 -0.641 -1.007 -0.366 -509.968 0.000 -2684.901 0.007 0.237 -0.010 -0.1 0.67 -0.73 0.04
1 1.69 169 0.972 -9.845 0.694 0.366 -1.556 0.214 -539.948 74.951 -2609.950 -0.049 0.117 0.048 -0.1 0.67 -0.73 0.04
1 1.70 170 0.852 -9.893 0.800 1.129 -1.434 0.610 -584.919 0.000 -2684.901 0.072 0.165 -0.056 -0.1 0.67 -0.73 0.04
1 1.71 171 1.063 -9.807 0.881 1.068 -1.434 0.916 -584.919 0.000 -2684.901 -0.139 0.079 -0.134 -0.1 0.67 -0.73 0.04
1 1.72 172 0.996 -9.769 0.862 -0.214 -1.556 1.373 -539.948 74.951 -2639.930 -0.071 0.041 -0.111 -0.1 0.67 -0.73 0.04
1 1.73 173 0.986 -9.807 0.924 -0.183 -1.221 0.916 -539.948 74.951 -2639.930 -0.061 0.080 -0.173 -0.1 0.67 -0.73 0.04
1 1.74 174 0.943 -9.740 0.771 -0.854 -1.648 0.916 -509.968 104.932 -2789.982 -0.018 0.013 -0.019 -0.1 0.67 -0.73 0.04
1 1.75 175 0.934 -9.893 0.862 0.214 -1.007 1.282 -584.919 -74.951 -2564.979 -0.008 0.166 -0.109 -0.1 0.67 -0.73 0.04
1 1.76 176 0.939 -9.979 0.862 0.702 -1.495 1.465 -614.899 -29.980 -2864.934 -0.012 0.252 -0.108 -0.1 0.67 -0.73 0.04
1 1.77 177 0.905 -9.917 0.670 0.824 -1.068 1.129 -674.860 -164.893 -2774.992 0.021 0.190 0.086 -0.1 0.67 -0.73 0.04
1 1.78 178 0.948 -9.759 0.843 0.946 -0.763 1.312 -674.860 -164.893 -2774.992 -0.022 0.033 -0.083 -0.1 0.67 -0.73 0.04
1 1.79 179 0.910 -9.850 0.814 -0.305 -0.397 0.366 -674.860 -44.971 -2699.891 0.016 0.124 -0.052 -0.1 0.67 -0.73 0.04
1 1.80 180 1.044 -9.927 0.886 -0.916 -0.458 1.068 -674.860 -44.971 -2699.891 -0.118 0.200 -0.122 -0.1 0.67 -0.73 0.04
1 1.81 181 0.924 -9.730 0.824 -1.190 -0.488 1.099 -509.968 104.932 -2819.963 0.002 0.004 -0.060 -0.1 0.67 -0.73 0.04
1 1.82 182 0.943 -9.850 0.752 -0.397 -0.366 0.580 -614.899 -149.902 -2759.852 -0.017 0.124 0.013 -0.1 0.67 -0.73 0.04
1 1.83 183 0.857 -9.922 0.737 0.031 0.122 0.824 -539.948 0.000 -2714.881 0.069 0.196 0.028 -0.1 0.67 -0.73 0.04
1 1.84 184 0.919 -9.855 0.919 -0.122 0.244 0.153 -584.919 0.000 -2759.852 0.006 0.129 -0.154 -0.1 0.67 -0.73 0.04
1 1.85 185 0.934 -9.941 0.828 -0.641 -0.305 0.366 -584.919 0.000 -2759.852 -0.007 0.215 -0.061 -0.1 0.67 -0.73 0.04
1 1.86 186 0.872 -9.864 0.881 -1.160 -0.427 1.068 -569.929 -119.922 -2774.992 0.055 0.139 -0.113 -0.1 0.67 -0.73 0.04
1 1.87 187 0.876 -9.869 0.919 0.214 -0.031 0.702 -569.929 -119.922 -2774.992 0.050 0.143 -0.151 -0.1 0.67 -0.73 0.04
1 1.88 188 0.857 -9.769 0.886 0.580 -0.275 0.824 -509.968 -29.980 -2609.950 0.069 0.043 -0.116 -0.1 0.67 -0.73 0.04
1 1.89 189 1.015 -9.769 0.857 0.916 -0.305 1.160 -569.929 14.990 -2774.992 -0.089 0.043 -0.082 -0.1 0.67 -0.73 0.04
1 1.90 190 0.929 -9.960 0.948 0.275 -0.549 0.732 -569.929 -14.990 -2774.992 -0.002 0.235 -0.170 -0.1 0.67 -0.73 0.04
1 1.91 191 0.977 -9.735 0.953 -0.031 -0.153 1.190 -539.948 -29.980 -2819.963 -0.050 0.010 -0.174 -0.1 0.67 -0.73 0.04
1 1.92 192 0.862 -9.903 1.001 -0.427 1.038 0.763 -539.948 -29.980 -2819.963 0.065 0.178 -0.221 -0.1 0.67 -0.73 0.04
1 1.93 193 0.852 -9.903 0.876 -0.671 1.678 1.038 -584.919 0.000 -2864.934 0.075 0.178 -0.095 -0.1 0.67 -0.73 0.04
1 1.94 194 0.891 -9.908 0.771 1.373 1.282 1.099 -584.919 0.000 -2864.934 0.036 0.183 0.013 -0.1 0.67 -0.73 0.04
1 1.95 195 0.977 -9.788 0.934 1.953 0.458 1.404 -569.929 44.971 -2849.943 -0.051 0.063 -0.147 -0.1 0.67 -0.73 0.04
1 1.96 196 0.991 -9.783 1.010 0.916 0.946 1.678 -464.997 29.980 -2864.934 -0.066 0.059 -0.215 -0.1 0.67 -0.73 0.04
1 1.97 197 0.872 -9.879 0.867 0.366 0.488 1.221 -539.948 0.000 -2819.963 0.053 0.155 -0.067 -0.1 0.67 -0.73 0.04
1 1.98 198 0.963 -9.750 0.895 -1.068 1.007 1.526 -524.958 -89.941 -2624.940 -0.039 0.026 -0.095 -0.1 0.67 -0.73 0.04
1 1.99 199 0.982 -9.773 0.924 -1.587 1.434 1.373 -524.958 -89.941 -2624.940 -0.059 0.050 -0.123 -0.1 0.67 -0.73 0.04
1 2.00 200 0.943 -9.692 0.939 -0.702 0.641 1.923 -464.997 74.951 -2714.881 -0.021 -0.031 -0.137 -0.1 0.67 -0.73 0.04
1 2.01 201 0.943 -9.740 1.010 0.214 1.068 2.228 -464.997 74.951 -2714.881 -0.022 0.016 -0.208 -0.1 0.67 -0.73 0.04
1 2.02 202 0.881 -9.711 0.963 0.824 1.801 1.984 -524.958 44.971 -2669.911 0.039 -0.012 -0.157 -0.1 0.67 -0.73 0.04
1 2.03 203 0.867 -9.582 0.833 -0.732 2.045 1.892 -599.909 -14.990 -2774.992 0.051 -0.141 -0.024 -0.1 0.67 -0.73 0.04
1 2.04 204 0.800 -9.716 1.030 -5.432 1.648 2.197 -524.958 -239.994 -2729.872 0.115 -0.008 -0.222 -0.1 0.67 -0.73 0.04
1 2.05 205 0.857 -9.773 0.982 -7.660 1.129 1.862 -524.958 -14.990 -2849.943 0.055 0.049 -0.181 -0.1 0.67 -0.73 0.03
1 2.06 206 0.948 -9.759 0.948 -6.073 1.495 2.869 -524.958 -14.990 -2849.943 -0.038 0.034 -0.156 -0.1 0.67 -0.73 0.03
1 2.07 207 0.795 -9.960 0.900 -3.143 1.740 2.228 -464.997 74.951 -2894.914 0.112 0.234 -0.113 -0.09 0.67 -0.73 0.03
1 2.08 208 0.881 -9.773 0.881 -0.336 1.129 1.526 -464.997 74.951 -2894.914 0.022 0.047 -0.095 -0.09 0.67 -0.73 0.03
1 2.09 209 0.919 -9.888 0.881 -2.411 1.709 0.610 -494.978 -119.922 -2774.992 -0.018 0.162 -0.093 -0.09 0.67 -0.73 0.03
1 2.10 210 0.781 -9.999 0.819 -5.096 1.709 0.183 -599.909 44.971 -2774.992 0.120 0.272 -0.032 -0.09 0.67 -0.73 0.03
1 2.11 211 0.814 -10.085 0.905 -5.035 0.183 0.031 -569.929 -14.990 -2729.872 0.087 0.357 -0.129 -0.09 0.67 -0.73 0.03
1 2.12 212 0.895 -10.066 0.747 -2.533 -0.092 -0.214 -629.890 -89.941 -2729.872 0.007 0.338 0.024 -0.09 0.67 -0.73 0.03
1 2.13 213 1.020 -10.233 0.757 -0.092 0.092 -0.793 -629.890 -89.941 -2729.872 -0.115 0.505 0.013 -0.09 0.67 -0.73 0.03
1 2.14 214 0.977 -10.252 0.761 1.678 1.801 -1.709 -509.968 0.000 -2684.901 -0.069 0.525 0.009 -0.09 0.67 -0.73 0.03
1 2.15 215 0.948 -10.137 0.814 1.556 2.502 -1.129 -509.968 0.000 -2684.901 -0.036 0.411 -0.040 -0.09 0.67 -0.73 0.03
1 2.16 216 0.795 -9.994 0.867 3.510 2.716 -1.038 -509.968 -29.980 -2789.982 0.120 0.268 -0.088 -0.09 0.67 -0.73 0.03
1 2.17 217 0.776 -9.884 0.752 4.028 3.082 -1.068 -539.948 0.000 -2639.930 0.142 0.158 0.033 -0.09 0.67 -0.73 0.03
1 2.18 218 0.776 -9.879 0.771 4.669 2.960 -0.732 -539.948 0.000 -2639.930 0.143 0.154 0.021 -0.09 0.67 -0.73 0.03
1 2.19 219 0.819 -9.831 0.723 3.479 0.397 -1.404 -464.997 0.000 -2789.982 0.104 0.108 0.082 -0.09 0.67 -0.73 0.03
1 2.20 220 0.986 -9.869 0.728 1.831 -0.702 -0.519 -464.997 0.000 -2789.982 -0.062 0.147 0.082 -0.09 0.67 -0.74 0.03
1 2.21 221 1.010 -9.908 0.761 2.167 0.153 0.153 -614.899 -74.951 -2864.934 -0.083 0.185 0.051 -0.09 0.67 -0.74 0.03
1 2.22 222 1.125 -9.898 0.804 3.632 1.465 1.465 -614.899 -74.951 -2864.934 -0.197 0.176 0.012 -0.09 0.67 -0.74 0.03
1 2.23 223 1.178 -9.735 0.867 6.134 3.387 1.282 -464.997 74.951 -2714.881 -0.249 0.014 -0.043 -0.09 0.67 -0.74 0.03
1 2.24 224 1.073 -9.572 0.996 6.714 3.754 0.336 -599.909 -164.893 -2729.872 -0.143 -0.148 -0.162 -0.09 0.67 -0.74 0.03
1 2.25 225 1.121 -9.548 0.843 5.554 4.700 -0.336 -599.909 -164.893 -2729.872 -0.190 -0.170 0.003 -0.09 0.67 -0.74 0.03
1 2.26 226 0.967 -9.635 0.800 2.106 5.676 -0.641 -434.867 -74.951 -2894.914 -0.032 -0.082 0.065 -0.09 0.67 -0.74 0.03
1 2.27 227 0.948 -9.663 0.857 -0.488 5.554 0.275 -434.867 -74.951 -2894.914 -0.012 -0.053 0.011 -0.09 0.67 -0.74 0.03
1 2.28 228 0.886 -9.745 0.776 -1.160 4.700 0.427 -524.958 -44.971 -2774.992 0.051 0.028 0.093 -0.09 0.67 -0.74 0.03
1 2.29 229 0.795 -9.754 0.948 -0.549 4.028 0.671 -524.958 -44.971 -2774.992 0.142 0.038 -0.079 -0.09 0.67 -0.74 0.03
1 2.30 230 0.833 -9.841 0.891 2.197 3.479 0.580 -464.997 0.000 -2819.963 0.102 0.124 -0.019 -0.09 0.67 -0.74 0.03
1 2.31 231 0.766 -9.855 0.948 4.059 3.265 0.153 -494.978 14.990 -2774.992 0.168 0.139 -0.072 -0.09 0.67 -0.74 0.03
1 2.32 232 0.915 -9.783 0.785 3.845 3.082 0.397 -494.978 14.990 -2774.992 0.019 0.068 0.099 -0.09 0.67 -0.74 0.03
1 2.33 233 0.781 -9.615 0.824 1.953 2.319 1.312 -419.876 -89.941 -2879.924 0.151 -0.099 0.073 -0.09 0.67 -0.74 0.03
1 2.34 234 0.982 -9.773 1.044 0.885 2.380 0.488 -419.876 -89.941 -2879.924 -0.051 0.059 -0.144 -0.09 0.67 -0.74 0.03
1 2.35 235 0.982 -9.855 0.891 0.916 2.197 1.526 -434.867 -104.932 -2969.865 -0.051 0.141 0.013 -0.09 0.67 -0.74 0.03
1 2.36 236 0.924 -9.912 0.857 0.305 2.411 1.587 -434.867 -104.932 -2969.865 0.006 0.199 0.049 -0.09 0.67 -0.74 0.03
1 2.37 237 0.958 -9.869 0.948 1.190 3.143 1.770 -464.997 -149.902 -2939.885 -0.029 0.156 -0.040 -0.09 0.67 -0.74 0.03
1 2.38 238 1.063 -9.788 0.872 2.289 2.594 2.258 -419.876 44.971 -2849.943 -0.137 0.074 0.039 -0.09 0.67 -0.74 0.03
1 2.39 239 0.943 -9.845 0.848 3.296 2.228 2.716 -419.876 44.971 -2849.943 -0.019 0.132 0.067 -0.09 0.67 -0.74 0.03
1 2.40 240 1.039 -9.831 0.843 2.747 3.143 2.014 -539.948 -74.951 -2894.914 -0.119 0.118 0.084 -0.09 0.67 -0.74 0.03
1 2.41 241 1.030 -9.730 0.886 2.777 3.723 1.221 -539.948 -74.951 -2894.914 -0.110 0.018 0.046 -0.09 0.67 -0.74 0.03
1 2.42 242 1.101 -9.673 0.905 0.671 4.883 0.854 -359.916 -29.980 -2819.963 -0.181 -0.039 0.030 -0.09 0.67 -0.74 0.03
1 2.43 243 1.020 -9.759 0.862 -0.275 5.005 0.336 -359.916 -29.980 -2819.963 -0.099 0.048 0.075 -0.09 0.67 -0.74 0.03
1 2.44 244 0.967 -9.678 0.848 -0.061 5.096 0.610 -614.899 -104.932 -2759.852 -0.047 -0.034 0.090 -0.09 0.67 -0.74 0.03
1 2.45 245 0.900 -9.649 0.781 0.641 4.486 -0.031 -494.978 -119.922 -2699.891 0.021 -0.062 0.159 -0.09 0.67 -0.74 0.03
1 2.46 246 0.867 -9.711 0.709 -0.031 4.150 0.427 -494.978 -119.922 -2699.891 0.055 0.000 0.232 -0.09 0.67 -0.74 0.03
1 2.47 247 0.891 -9.678 0.690 -0.427 3.693 0.610 -434.867 -74.951 -2819.963 0.031 -0.033 0.252 -0.09 0.67 -0.74 0.03
1 2.48 248 0.852 -9.721 0.709 -3.510 1.556 0.885 -299.955 -119.922 -2849.943 0.069 0.009 0.230 -0.09 0.67 -0.74 0.02
1 2.49 249 0.776 -9.778 0.804 -5.280 -0.275 0.824 -464.997 -74.951 -2894.914 0.145 0.066 0.128 -0.09 0.67 -0.74 0.02
1 2.50 250 0.967 -9.831 0.656 -6.165 -1.770 1.282 -464.997 -74.951 -2894.914 -0.047 0.118 0.268 -0.09 0.67 -0.74 0.02
1 2.51 251 1.068 -9.841 0.814 -3.326 -4.089 1.160 -449.857 -44.971 -2804.973 -0.149 0.127 0.101 -0.09 0.67 -0.74 0.02
1 2.52 252 1.068 -10.046 0.694 -0.488 -4.547 -1.190 -464.997 0.000 -2789.982 -0.147 0.332 0.216 -0.09 0.67 -0.74 0.02
1 2.53 253 1.015 -10.123 0.699 -2.167 -4.547 -1.129 -464.997 0.000 -2789.982 -0.090 0.409 0.209 -0.09 0.67 -0.74 0.02
1 2.54 254 0.872 -10.238 0.709 -3.601 -6.073 -0.977 -539.948 -29.980 -2789.982 0.058 0.524 0.196 -0.09 0.67 -0.74 0.02
1 2.55 255 0.800 -10.195 0.723 -0.763 -10.254 -1.312 -524.958 -119.922 -2699.891 0.136 0.481 0.170 -0.09 0.67 -0.74 0.03
1 2.56 256 0.709 -10.046 0.699 4.059 -12.390 -1.678 -449.857 -44.971 -2984.855 0.230 0.332 0.193 -0.09 0.67 -0.74 0.03
1 2.57 257 0.441 -10.013 0.800 11.017 -14.893 -1.831 -449.857 -44.971 -2984.855 0.502 0.300 0.099 -0.09 0.67 -0.74 0.03
1 2.58 258 0.412 -9.831 0.752 13.184 -17.090 -3.632 -359.916 -29.980 -2759.852 0.534 0.120 0.162 -0.09 0.67 -0.74 0.03
1 2.59 259 0.517 -9.778 0.761 11.231 -19.135 -4.547 -449.857 44.971 -2774.992 0.435 0.069 0.169 -0.09 0.67 -0.74 0.03
1 2.60 260 0.441 -9.903 0.733 6.256 -23.682 -8.362 -449.857 44.971 -2774.992 0.520 0.196 0.210 -0.09 0.67 -0.74 0.03
1 2.61 261 0.431 -10.080 0.785 2.594 -26.306 -8.087 -464.997 -74.951 -2864.934 0.542 0.375 0.164 -0.09 0.67 -0.74 0.03
1 2.62 262 0.388 -10.123 0.857 1.556 -28.107 -9.155 -614.899 -74.951 -2789.982 0.598 0.419 0.093 -0.1 0.67 -0.74 0.03
1 2.63 263 0.709 -10.176 0.623 7.782 -28.320 -8.301 -494.978 14.990 -2729.872 0.306 0.475 0.325 -0.1 0.66 -0.74 0.03
1 2.64 264 0.733 -10.042 0.522 12.390 -28.259 -9.186 -494.978 14.990 -2729.872 0.298 0.343 0.433 -0.1 0.66 -0.74 0.03
1 2.65 265 0.733 -9.831 0.527 14.343 -29.114 -9.491 -599.909 14.990 -2729.872 0.314 0.135 0.441 -0.1 0.66 -0.74 0.03
1 2.66 266 0.857 -9.572 0.417 13.916 -30.151 -9.186 -659.870 0.000 -2894.914 0.207 -0.120 0.566 -0.1 0.66 -0.74 0.04
1 2.67 267 0.828 -9.548 0.321 9.430 -31.281 -10.620 -659.870 0.000 -2894.914 0.253 -0.141 0.673 -0.11 0.66 -0.74 0.04
1 2.68 268 1.111 -9.582 0.445 5.402 -31.006 -10.712 -734.971 -149.902 -2864.934 -0.010 -0.104 0.555 -0.11 0.66 -0.74 0.04
1 2.69 269 1.053 -9.759 0.321 2.960 -31.403 -11.475 -614.899 -104.932 -2939.885 0.069 0.075 0.680 -0.11 0.66 -0.74 0.04
1 2.70 270 1.384 -9.788 0.450 5.066 -30.609 -10.895 -674.860 -209.863 -2804.973 -0.216 0.109 0.543 -0.12 0.66 -0.74 0.04
1 2.71 271 1.417 -9.750 0.412 9.033 -28.656 -10.223 -674.860 -209.863 -2804.973 -0.226 0.073 0.582 -0.12 0.66 -0.74 0.04
1 2.72 272 1.666 -9.682 0.517 13.092 -26.398 -9.491 -764.952 -224.854 -2939.885 -0.452 0.010 0.484 -0.12 0.66 -0.74 0.04
1 2.73 273 1.863 -9.472 0.407 12.573 -23.346 -8.698 -734.971 -74.951 -2939.885 -0.625 -0.197 0.607 -0.12 0.66 -0.74 0.04
1 2.74 274 1.786 -9.572 0.656 7.080 -19.501 -8.118 -734.971 -74.951 -2939.885 -0.526 -0.092 0.368 -0.12 0.66 -0.74 0.04
1 2.75 275 1.757 -9.668 0.670 -0.519 -17.181 -6.683 -674.860 -239.994 -2849.943 -0.477 0.007 0.356 -0.13 0.66 -0.74 0.04
1 2.76 276 1.676 -9.654 0.666 -0.183 -16.785 -4.944 -629.890 -209.863 -2774.992 -0.378 -0.006 0.356 -0.13 0.66 -0.74 0.04
1 2.77 277 1.954 -9.577 0.828 4.242 -13.306 -5.676 -764.952 -224.854 -2894.914 -0.625 -0.079 0.187 -0.13 0.66 -0.74 0.04
1 2.78 278 2.126 -9.659 0.867 4.150 -10.315 -7.019 -764.952 -224.854 -2894.914 -0.780 0.005 0.152 -0.13 0.66 -0.74 0.04
1 2.79 279 1.930 -9.673 0.857 2.441 -8.423 -6.683 -839.903 -149.902 -2939.885 -0.565 0.022 0.166 -0.13 0.66 -0.74 0.04
1 2.80 280 1.853 -9.850 0.915 1.404 -6.958 -6.989 -869.883 -149.902 -3014.986 -0.471 0.202 0.110 -0.13 0.66 -0.74 0.04
1 2.81 281 1.848 -9.750 0.752 2.747 -7.172 -5.432 -869.883 -149.902 -3014.986 -0.450 0.104 0.274 -0.13 0.66 -0.74 0.04
1 2.82 282 1.662 -9.592 0.551 10.498 -8.118 -4.974 -839.903 -254.984 -2894.914 -0.250 -0.052 0.477 -0.14 0.66 -0.74 0.04
1 2.83 283 1.642 -9.558 0.747 11.871 -7.416 -5.157 -794.932 -179.883 -2864.934 -0.219 -0.082 0.290 -0.14 0.65 -0.74 0.04
1 2.84 284 1.638 -9.443 0.800 4.669 -6.165 -3.265 -779.942 -119.922 -2849.943 -0.191 -0.191 0.263 -0.14 0.65 -0.74 0.04
1 2.85 285 1.647 -9.352 0.670 2.899 -6.714 -2.777 -779.942 -119.922 -2849.943 -0.192 -0.281 0.395 -0.14 0.65 -0.74 0.04
1 2.86 286 1.604 -9.347 0.536 2.808 -7.660 -1.648 -854.893 -284.964 -2879.924 -0.142 -0.284 0.530 -0.14 0.65 -0.74 0.04
1 2.87 287 1.767 -9.275 0.728 3.906 -7.477 -1.495 -854.893 -89.941 -2909.904 -0.299 -0.355 0.339 -0.14 0.65 -0.74 0.04
1 2.88 288 1.762 -9.381 0.704 2.472 -5.707 -2.350 -854.893 -89.941 -2909.904 -0.287 -0.248 0.366 -0.14 0.65 -0.74 0.04
1 2.89 289 1.666 -9.429 0.646 -4.303 -5.280 -0.732 -929.994 -44.971 -2909.904 -0.183 -0.199 0.422 -0.14 0.65 -0.74 0.04
1 2.90 290 1.623 -9.501 0.575 -5.249 -5.280 0.824 -944.984 -104.932 -2894.914 -0.134 -0.127 0.486 -0.14 0.65 -0.74 0.04
1 2.91 291 1.810 -9.515 0.498 -4.395 -4.608 1.282 -944.984 -104.932 -2894.914 -0.318 -0.114 0.552 -0.14 0.65 -0.74 0.05
1 2.92 292 1.662 -9.491 0.503 0.183 -3.265 0.427 -1034.926 -119.922 -2879.924 -0.165 -0.139 0.530 -0.14 0.65 -0.74 0.05
1 2.93 293 1.666 -9.505 0.522 0.305 -2.777 0.977 -974.965 -89.941 -2954.875 -0.167 -0.124 0.508 -0.14 0.65 -0.74 0.05
1 2.94 294 1.834 -9.697 0.608 -2.014 -2.350 2.228 -974.965 -44.971 -2909.904 -0.332 0.067 0.419 -0.14 0.65 -0.74 0.05
1 2.95 295 1.815 -9.563 0.704 -4.608 -0.580 2.625 -974.965 -44.971 -2909.904 -0.313 -0.067 0.317 -0.14 0.65 -0.74 0.05
1 2.96 296 1.547 -9.730 0.910 -3.693 3.418 1.465 -779.942 -239.994 -2774.992 -0.044 0.099 0.103 -0.14 0.65 -0.74 0.05
1 2.97 297 1.269 -9.936 0.891 -0.397 5.096 2.502 -824.913 -119.922 -2984.855 0.233 0.305 0.118 -0.14 0.65 -0.74 0.05
1 2.98 298 1.283 -9.793 0.685 3.967 2.106 4.761 -824.913 -119.922 -2984.855 0.214 0.160 0.323 -0.14 0.65 -0.74 0.05
1 2.99 299 1.264 -9.625 0.632 9.918 -1.282 6.012 -974.965 -239.994 -2879.924 0.217 -0.008 0.388 -0.14 0.65 -0.74 0.05
1 3.00 300 1.523 -9.347 0.876 10.193 -1.587 5.920 -944.984 -74.951 -2939.885 -0.050 -0.286 0.157 -0.14 0.65 -0.74 0.05
1 3.01 301 1.623 -9.410 0.623 6.439 0.458 6.500 -929.994 -209.863 -2879.924 -0.156 -0.223 0.424 -0.14 0.65 -0.74 0.05
1 3.02 302 1.772 -9.424 0.599 0.946 1.648 7.050 -929.994 -209.863 -2879.924 -0.312 -0.209 0.454 -0.14 0.65 -0.74 0.05
1 3.03 303 2.040 -9.448 0.632 -3.967 3.021 6.866 -1004.945 -164.893 -2804.973 -0.586 -0.187 0.419 -0.14 0.65 -0.74 0.05
1 3.04 304 2.064 -9.692 0.809 -6.866 5.310 3.632 -914.854 -299.955 -2939.885 -0.614 0.056 0.234 -0.14 0.65 -0.74 0.05
1 3.05 305 2.208 -10.070 0.728 -6.989 9.155 0.854 -914.854 -299.955 -2939.885 -0.759 0.433 0.305 -0.14 0.65 -0.74 0.05
1 3.06 306 2.050 -10.353 0.848 -6.439 11.383 0.946 -989.955 -254.984 -2864.934 -0.598 0.715 0.176 -0.14 0.65 -0.74 0.05
1 3.07 307 2.136 -10.477 0.785 -0.946 13.367 4.517 -899.864 -239.994 -2879.924 -0.684 0.839 0.226 -0.14 0.65 -0.74 0.05
1 3.08 308 2.083 -10.319 0.804 4.578 13.825 7.629 -824.913 -89.941 -2804.973 -0.635 0.680 0.209 -0.14 0.65 -0.74 0.05
1 3.09 309 2.112 -10.066 0.771 9.003 14.862 9.674 -824.913 -89.941 -2804.973 -0.672 0.426 0.253 -0.14 0.65 -0.74 0.05
1 3.10 310 2.203 -9.879 0.728 9.705 16.357 10.040 -854.893 -239.994 -2984.855 -0.774 0.240 0.313 -0.14 0.65 -0.74 0.05
1 3.11 311 2.045 -9.730 0.886 3.632 19.135 9.735 -824.913 -119.922 -2849.943 -0.627 0.091 0.171 -0.14 0.65 -0.74 0.04
1 3.12 312 1.997 -9.893 0.900 -2.014 19.623 10.559 -824.913 -119.922 -2849.943 -0.590 0.254 0.168 -0.14 0.65 -0.74 0.04
1 3.13 313 2.035 -10.066 0.872 -3.937 20.081 11.536 -794.932 -104.932 -2789.982 -0.641 0.425 0.199 -0.13 0.65 -0.74 0.04
1 3.14 314 2.179 -10.109 1.058 -0.092 21.301 13.550 -779.942 -209.863 -2984.855 -0.814 0.463 0.010 -0.13 0.65 -0.74 0.04
1 3.15 315 2.102 -10.109 1.077 4.425 22.553 13.245 -869.883 -254.984 -2894.914 -0.755 0.461 -0.003 -0.13 0.65 -0.74 0.04
1 3.16 316 2.093 -10.066 1.207 5.737 23.956 11.322 -869.883 -254.984 -2894.914 -0.761 0.418 -0.119 -0.13 0.65 -0.74 0.04
1 3.17 317 2.160 -10.286 1.159 4.791 25.482 9.644 -899.864 -119.922 -2954.875 -0.841 0.638 -0.057 -0.13 0.65 -0.74 0.04
1 3.18 318 1.982 -10.219 1.235 3.693 26.978 8.911 -749.961 -239.994 -2909.904 -0.675 0.571 -0.120 -0.12 0.65 -0.75 0.04
1 3.19 319 1.887 -10.291 1.144 6.042 28.320 11.078 -749.961 -239.994 -2909.904 -0.592 0.642 -0.017 -0.12 0.65 -0.75 0.04
1 3.20 320 1.791 -10.262 0.982 7.446 30.060 10.010 -704.991 -239.994 -2954.875 -0.511 0.613 0.160 -0.12 0.65 -0.75 0.04
1 3.21 321 1.585 -10.286 0.967 6.042 29.083 9.583 -734.971 -254.984 -2969.865 -0.337 0.637 0.206 -0.12 0.65 -0.75 0.04
1 3.22 322 1.542 -10.161 0.943 5.737 26.428 9.918 -690.000 -149.902 -2939.885 -0.310 0.512 0.242 -0.11 0.65 -0.75 0.04
1 3.23 323 1.518 -10.075 1.082 6.714 24.292 11.322 -690.000 -149.902 -2939.885 -0.303 0.425 0.116 -0.11 0.65 -0.75 0.03
1 3.24 324 1.494 -10.080 0.891 6.836 22.949 11.963 -569.929 -119.922 -2909.904 -0.297 0.429 0.321 -0.11 0.65 -0.75 0.03
1 3.25 325 1.508 -9.970 0.718 7.202 21.576 13.336 -569.929 -164.893 -2909.904 -0.330 0.318 0.506 -0.11 0.65 -0.75 0.03
1 3.26 326 1.542 -9.903 0.713 5.676 18.341 14.740 -569.929 -164.893 -2909.904 -0.384 0.250 0.522 -0.11 0.65 -0.75 0.03
1 3.27 327 1.642 -9.817 0.699 5.676 16.144 15.961 -629.890 -284.964 -2984.855 -0.506 0.163 0.546 -0.11 0.65 -0.75 0.03
1 3.28 328 1.571 -9.649 0.608 7.233 14.038 15.839 -599.909 -119.922 -2849.943 -0.477 -0.008 0.654 -0.1 0.65 -0.75 0.03
1 3.29 329 1.542 -9.682 0.584 7.050 14.771 14.801 -509.968 -224.854 -2864.934 -0.469 0.025 0.687 -0.1 0.65 -0.75 0.03
1 3.30 330 1.537 -9.730 0.603 3.082 12.909 12.573 -509.968 -224.854 -2864.934 -0.483 0.071 0.674 -0.1 0.65 -0.75 0.03
1 3.31 331 1.456 -9.946 0.560 -0.519 11.627 9.644 -599.909 -239.994 -2849.943 -0.417 0.285 0.718 -0.1 0.65 -0.75 0.03
1 3.32 332 1.757 -9.984 0.532 -2.350 9.247 6.683 -464.997 -374.906 -2894.914 -0.729 0.322 0.742 -0.1 0.65 -0.75 0.03
1 3.33 333 1.791 -10.046 0.680 -0.275 7.996 5.280 -464.997 -374.906 -2894.914 -0.767 0.383 0.586 -0.1 0.65 -0.75 0.03
1 3.34 334 1.772 -9.908 0.704 4.456 10.498 6.104 -434.867 -374.906 -3014.986 -0.750 0.243 0.558 -0.1 0.65 -0.75 0.03
1 3.35 335 1.963 -9.860 0.833 5.615 13.947 4.852 -434.867 -374.906 -3014.986 -0.945 0.195 0.432 -0.1 0.65 -0.75 0.03
1 3.36 336 1.891 -9.884 0.986 -0.732 19.409 1.801 -434.867 -224.854 -3044.966 -0.876 0.221 0.292 -0.09 0.65 -0.75 0.03
1 3.37 337 1.743 -10.066 0.881 -7.568 21.484 -0.366 -434.867 -224.854 -3044.966 -0.725 0.403 0.395 -0.09 0.65 -0.75 0.03
1 3.38 338 1.504 -10.267 0.891 -10.559 24.262 -1.312 -524.958 -359.916 -2909.904 -0.483 0.602 0.374 -0.09 0.65 -0.75 0.03
1 3.39 339 1.279 -10.640 0.972 -10.742 25.848 -1.862 -389.896 -254.984 -3014.986 -0.256 0.974 0.278 -0.09 0.65 -0.75 0.02
1 3.40 340 1.053 -10.975 0.876 -9.369 25.269 0.763 -389.896 -254.984 -3014.986 -0.032 1.308 0.362 -0.09 0.65 -0.75 0.02
1 3.41 341 1.044 -11.200 1.192 -6.805 23.773 3.265 -344.925 -284.964 -3104.927 -0.026 1.531 0.036 -0.09 0.66 -0.75 0.02
1 3.42 342 1.259 -11.354 1.288 -7.050 23.224 6.775 -344.925 -284.964 -3104.927 -0.249 1.683 -0.065 -0.09 0.66 -0.75 0.02
1 3.43 343 1.326 -11.497 1.877 -9.552 24.506 16.815 -359.916 -29.980 -2819.963 -0.346 1.822 -0.667 -0.08 0.66 -0.75 0.02
1 3.44 344 1.212 -11.478 2.231 -7.782 26.672 24.719 -359.916 -29.980 -2819.963 -0.262 1.799 -1.030 -0.08 0.66 -0.75 0.02
1 3.45 345 1.221 -11.095 2.466 -0.641 28.748 31.525 -569.929 -119.922 -2774.992 -0.315 1.411 -1.270 -0.08 0.66 -0.75 0.02
1 3.46 346 1.250 -10.588 2.686 9.125 32.837 35.553 -494.978 -164.893 -2879.924 -0.396 0.899 -1.482 -0.07 0.66 -0.75 0.02
1 3.47 347 1.374 -10.042 2.931 16.998 37.445 35.858 -494.978 -164.893 -2879.924 -0.579 0.351 -1.704 -0.07 0.66 -0.75 0.02
1 3.48 348 1.135 -9.639 3.175 20.294 49.133 34.210 -254.984 -74.951 -2819.963 -0.394 -0.049 -1.903 -0.07 0.66 -0.75 0.02
1 3.49 349 0.599 -9.333 3.141 19.714 56.275 34.973 -254.984 -74.951 -2819.963 0.087 -0.353 -1.819 -0.06 0.65 -0.75 0.02
1 3.50 350 0.144 -8.931 2.993 20.996 61.157 32.806 -299.955 -209.863 -2984.855 0.482 -0.753 -1.621 -0.06 0.65 -0.75 0.02
1 3.51 351 -0.464 -8.437 2.318 29.327 59.235 22.949 -284.964 -254.984 -2939.885 0.967 -1.238 -0.843 -0.05 0.65 -0.76 0.01
1 3.52 352 -0.800 -8.308 1.949 34.821 54.718 16.907 -134.912 -374.906 -3014.986 1.259 -1.361 -0.423 -0.04 0.65 -0.76 0.01
1 3.53 353 -1.202 -8.222 1.743 36.286 49.591 13.245 -194.873 -209.863 -2984.855 1.626 -1.440 -0.160 -0.04 0.65 -0.76 0.01
1 3.54 354 -1.805 -8.428 1.791 28.687 45.624 13.550 -194.873 -209.863 -2984.855 2.200 -1.226 -0.152 -0.03 0.64 -0.76 0.01
1 3.55 355 -2.677 -9.548 1.982 -5.249 36.041 18.677 -89.941 -239.994 -2804.973 3.031 -0.100 -0.303 -0.03 0.64 -0.77 0.01
1 3.56 356 -2.346 -10.506 1.939 -28.748 30.365 26.703 -89.941 -239.994 -2804.973 2.643 0.857 -0.251 -0.03 0.64 -0.77 0.01
1 3.57 357 -1.868 -10.923 1.389 -21.790 26.581 37.781 -284.964 -329.935 -2864.934 2.111 1.267 0.267 -0.02 0.64 -0.76 0.01
1 3.58 358 -1.370 -9.563 1.398 41.412 26.367 44.556 -44.971 -434.867 -2954.875 1.479 -0.100 0.232 -0.02 0.65 -0.76 0.01
1 3.59 359 -1.642 -8.437 1.647 70.893 28.381 40.344 209.863 -254.984 -2939.885 1.670 -1.213 0.058 -0.01 0.64 -0.77 0.01
1 3.60 360 -2.112 -7.360 1.786 66.437 30.274 32.105 -89.941 -359.916 -2849.943 2.076 -2.271 0.027 -0.01 0.64 -0.77 0.01
1 3.61 361 -2.797 -6.948 1.877 35.339 28.961 21.210 -89.941 -359.916 -2849.943 2.710 -2.665 0.024 -0 0.63 -0.77 0.01
1 3.62 362 -3.524 -7.844 1.235 -0.427 26.062 15.625 104.932 -374.906 -3014.986 3.403 -1.762 0.704 -0 0.63 -0.77 0.01
1 3.63 363 -3.524 -8.902 0.924 -19.745 12.207 22.461 104.932 -374.906 -3014.986 3.373 -0.705 1.006 0 0.63 -0.77 0.01
1 3.64 364 -2.873 -9.366 0.857 -5.096 1.251 29.602 164.893 -464.997 -2954.875 2.663 -0.246 1.039 0 0.64 -0.77 0.01
1 3.65 365 -1.135 -9.151 1.092 32.410 -4.395 28.931 329.935 -374.906 -2969.865 0.806 -0.459 0.799 0.01 0.64 -0.77 0.02
1 3.66 366 -0.685 -8.323 1.135 50.720 -0.427 21.820 164.893 -509.968 -2909.904 0.315 -1.275 0.810 0.01 0.63 -0.77 0.02
1 3.67 367 -0.886 -7.398 0.919 53.314 1.221 12.878 194.873 -434.867 -2984.855 0.488 -2.182 1.104 0.01 0.63 -0.78 0.02
1 3.68 368 -1.441 -6.852 0.895 38.971 -0.488 4.608 194.873 -434.867 -2984.855 1.029 -2.711 1.203 0.01 0.63 -0.78 0.02
1 3.69 369 -2.112 -6.426 0.508 19.867 -2.747 0.854 209.863 -644.880 -3044.966 1.696 -3.126 1.641 0.01 0.62 -0.78 0.02
1 3.70 370 -2.605 -6.881 0.273 -1.160 -8.575 -5.707 209.863 -644.880 -3044.966 2.192 -2.666 1.900 0.01 0.62 -0.78 0.02
1 3.71 371 -2.921 -7.461 -0.081 -8.911 -14.801 -12.451 284.964 -569.929 -3044.966 2.518 -2.086 2.258 0.01 0.62 -0.78 0.02
1 3.72 372 -2.888 -8.461 -0.517 -19.409 -24.445 -21.149 299.955 -434.867 -3059.957 2.539 -1.094 2.665 0.01 0.62 -0.78 0.02
1 3.73 373 -2.428 -9.189 -0.623 -22.644 -29.389 -22.553 209.863 -524.958 -3074.947 2.102 -0.377 2.724 0.01 0.63 -0.78 0.02
1 3.74 374 -1.753 -9.841 -0.460 -28.656 -44.739 -24.017 179.883 -419.876 -3119.917 1.460 0.261 2.507 0.01 0.63 -0.78 0.02
1 3.75 375 -0.953 -10.477 -0.196 -29.083 -51.056 -23.773 179.883 -419.876 -3119.917 0.702 0.885 2.186 0 0.63 -0.78 0.02
1 3.76 376 -0.350 -10.420 -0.182 -23.560 -52.521 -23.651 89.941 -509.968 -3059.957 0.146 0.815 2.116 -0 0.63 -0.77 0.02
1 3.77 377 -0.388 -9.769 -0.086 -5.035 -52.582 -24.048 89.941 -509.968 -3059.957 0.234 0.154 1.975 -0.01 0.64 -0.77 0.02
1 3.78 378 -0.555 -8.935 -0.014 4.700 -55.329 -28.504 104.932 -524.958 -2939.885 0.452 -0.685 1.877 -0.01 0.64 -0.77 0.02
1 3.79 379 -0.646 -8.318 0.125 2.289 -58.930 -36.804 0.000 -374.906 -3044.966 0.597 -1.305 1.731 -0.01 0.64 -0.77 0.02
1 3.80 380 -1.125 -8.428 1.245 -22.522 -61.646 -45.990 -59.961 -449.857 -3074.947 1.227 -1.195 0.607 -0.02 0.64 -0.77 0.02
1 3.81 381 -1.135 -10.085 3.625 -52.277 -63.599 -43.427 -119.922 -509.968 -3029.976 1.318 0.455 -1.815 -0.03 0.64 -0.77 0.02
1 3.82 382 -0.057 -14.792 4.975 -104.676 -66.651 -27.710 -119.922 -509.968 -3029.976 0.314 5.148 -3.253 -0.04 0.64 -0.77 0.02
1 3.83 383 2.538 -18.723 3.649 -152.466 -74.097 15.411 -59.961 -374.906 -3014.986 -2.235 9.050 -2.109 -0.04 0.65 -0.76 0.02
1 3.84 384 4.219 -14.869 2.308 14.954 -42.023 34.943 -59.961 -374.906 -3014.986 -3.935 5.163 -0.979 -0.04 0.66 -0.75 0.03
1 3.85 385 2.734 -11.368 2.050 124.237 -26.123 4.944 -59.961 -299.955 -3044.966 -2.495 1.657 -0.757 -0.04 0.66 -0.75 0.03
1 3.86 386 0.551 -9.323 2.078 110.810 -26.825 -24.201 -359.916 -329.935 -2864.934 -0.324 -0.367 -0.631 -0.04 0.65 -0.76 0.03
1 3.87 387 -2.002 -8.849 1.513 -47.424 -30.090 -29.907 -329.935 -254.984 -2939.885 2.316 -0.799 0.174 -0.05 0.64 -0.76 0.03
1 3.88 388 -2.624 -9.448 1.417 -105.561 -31.494 -21.637 -434.867 -569.929 -3044.966 2.970 -0.216 0.170 -0.05 0.65 -0.76 0.03
1 3.89 389 -2.571 -10.789 1.599 -95.581 -29.297 -16.663 -434.867 -569.929 -3044.966 2.933 1.100 -0.170 -0.05 0.65 -0.76 0.04
1 3.90 390 -2.002 -12.019 1.389 -53.650 -34.699 -10.742 -419.876 -359.916 -2954.875 2.393 2.314 -0.088 -0.06 0.66 -0.75 0.04
1 3.91 391 0.283 -11.952 1.413 -13.123 -52.612 -5.066 -419.876 -359.916 -2954.875 0.132 2.239 -0.177 -0.06 0.66 -0.75 0.04
1 3.92 392 1.791 -10.985 1.944 11.871 -69.672 -0.031 -359.916 -449.857 -3014.986 -1.358 1.271 -0.721 -0.06 0.66 -0.75 0.04
1 3.93 393 2.777 -9.778 2.682 10.132 -57.770 4.150 -389.896 -299.955 -2894.914 -2.329 0.067 -1.447 -0.07 0.66 -0.75 0.04
1 3.94 394 2.629 -8.950 2.677 0.549 -34.973 7.782 -389.896 -299.955 -2894.914 -2.163 -0.758 -1.423 -0.07 0.66 -0.75 0.05
1 3.95 395 1.101 -8.418 1.915 -11.871 -14.771 5.676 -674.860 -389.896 -2879.924 -0.614 -1.287 -0.649 -0.08 0.66 -0.75 0.05
1 3.96 396 0.599 -8.696 1.571 -16.785 -20.142 3.784 -674.860 -389.896 -2879.924 -0.114 -1.012 -0.324 -0.08 0.66 -0.75 0.05
1 3.97 397 0.680 -8.854 1.619 -19.745 -32.623 4.730 -734.971 -179.883 -2939.885 -0.194 -0.857 -0.395 -0.08 0.66 -0.75 0.05
1 3.98 398 1.465 -9.156 1.925 -21.332 -39.032 6.592 -734.971 -179.883 -2939.885 -0.976 -0.559 -0.729 -0.08 0.66 -0.75 0.05
1 3.99 399 2.188 -9.036 2.423 -20.081 -22.369 2.563 -524.958 -359.916 -2849.943 -1.692 -0.681 -1.254 -0.08 0.66 -0.75 0.05
1 4.00 400 1.963 -8.801 2.322 -15.411 -9.216 -6.134 -584.919 -329.935 -2819.963 -1.453 -0.918 -1.175 -0.08 0.66 -0.75 0.06
1 4.01 401 1.269 -8.801 2.002 -10.010 -3.296 -15.259 -584.919 -329.935 -2819.963 -0.738 -0.918 -0.869 -0.08 0.66 -0.74 0.05
1 4.02 402 0.512 -8.595 1.848 -11.200 -6.592 -24.017 -690.000 -299.955 -2864.934 0.081 -1.122 -0.729 -0.09 0.66 -0.74 0.05
1 4.03 403 0.283 -9.113 1.887 -22.492 -8.881 -25.940 -690.000 -299.955 -2864.934 0.349 -0.605 -0.784 -0.09 0.66 -0.74 0.05
1 4.04 404 0.201 -9.558 1.968 -34.058 -9.308 -24.048 -690.000 -224.854 -2939.885 0.468 -0.160 -0.897 -0.09 0.66 -0.74 0.05
1 4.05 405 0.584 -10.228 1.915 -37.628 -9.979 -21.484 -690.000 -224.854 -2939.885 0.120 0.508 -0.891 -0.09 0.66 -0.74 0.05
1 4.06 406 0.541 -10.319 1.738 -27.130 -13.458 -20.233 -584.919 -254.984 -2819.963 0.196 0.596 -0.761 -0.09 0.66 -0.74 0.05
1 4.07 407 0.833 -9.922 1.872 5.157 -19.684 -17.365 -659.870 -299.955 -2714.881 -0.064 0.198 -0.922 -0.1 0.67 -0.74 0.05
1 4.08 408 1.226 -9.371 2.026 22.461 -19.928 -13.855 -659.870 -299.955 -2714.881 -0.425 -0.349 -1.071 -0.1 0.66 -0.74 0.05
1 4.09 409 1.207 -8.418 2.212 22.522 -14.404 -11.169 -539.948 -179.883 -2639.930 -0.352 -1.289 -1.175 -0.1 0.66 -0.74 0.05
1 4.10 410 1.154 -8.241 1.939 5.249 -12.665 -9.277 -539.948 -179.883 -2639.930 -0.279 -1.461 -0.874 -0.1 0.66 -0.74 0.05
1 4.11 411 1.092 -8.107 1.887 -16.296 -13.123 -8.972 -779.942 -239.994 -2774.992 -0.200 -1.594 -0.822 -0.1 0.66 -0.74 0.05
1 4.12 412 1.001 -8.696 1.518 -34.454 -14.862 -8.392 -779.942 -239.994 -2774.992 -0.092 -1.007 -0.487 -0.11 0.66 -0.74 0.05
1 4.13 413 1.298 -9.333 1.317 -42.053 -17.365 -5.920 -674.860 -209.863 -2669.911 -0.372 -0.374 -0.338 -0.11 0.66 -0.74 0.05
1 4.14 414 1.427 -9.654 1.293 -30.914 -17.731 -2.502 -824.913 -359.916 -2879.924 -0.486 -0.058 -0.374 -0.11 0.66 -0.74 0.05
1 4.15 415 1.547 -9.812 1.240 -14.557 -16.205 -0.946 -824.913 -359.916 -2879.924 -0.593 0.097 -0.372 -0.11 0.67 -0.74 0.05
1 4.16 416 1.312 -8.974 1.269 1.099 -16.113 -0.671 -854.893 -284.964 -2624.940 -0.341 -0.742 -0.432 -0.11 0.67 -0.73 0.05
1 4.17 417 1.178 -8.639 1.087 1.587 -16.022 -1.770 -854.893 -284.964 -2624.940 -0.199 -1.076 -0.246 -0.11 0.67 -0.74 0.05
1 4.18 418 1.255 -8.639 0.852 -12.482 -18.799 -7.416 -779.942 -209.863 -2804.973 -0.267 -1.076 -0.018 -0.12 0.67 -0.73 0.05
1 4.19 419 1.398 -9.007 0.776 -27.130 -20.874 -11.292 -779.942 -209.863 -2804.973 -0.392 -0.707 0.033 -0.12 0.67 -0.73 0.05
1 4.20 420 1.954 -9.812 0.680 -37.445 -21.332 -12.756 -854.893 -89.941 -2669.911 -0.923 0.096 0.082 -0.12 0.67 -0.73 0.05
1 4.21 421 2.136 -10.252 0.632 -32.623 -20.722 -12.207 -944.984 -104.932 -2714.881 -1.076 0.535 0.070 -0.12 0.67 -0.73 0.05
1 4.22 422 2.179 -10.420 0.623 -18.250 -17.517 -11.292 -944.984 -104.932 -2714.881 -1.090 0.702 0.023 -0.12 0.67 -0.73 0.05
1 4.23 423 2.275 -10.271 0.661 -4.089 -14.282 -10.925 -974.965 -314.945 -2669.911 -1.158 0.554 -0.051 -0.13 0.67 -0.73 0.05
1 4.24 424 2.418 -10.161 0.378 2.991 -9.613 -8.942 -839.903 -179.883 -2429.917 -1.248 0.450 0.221 -0.13 0.67 -0.73 0.05
1 4.25 425 2.509 -10.238 0.081 -4.181 -8.972 -5.096 -794.932 -149.902 -2609.950 -1.316 0.529 0.517 -0.13 0.67 -0.73 0.05
1 4.26 426 2.581 -10.286 -0.215 -13.336 -11.871 0.305 -794.932 -149.902 -2609.950 -1.370 0.578 0.799 -0.13 0.67 -0.73 0.05
1 4.27 427 2.615 -10.118 -0.005 -19.898 -13.428 6.897 -734.971 -299.955 -2534.999 -1.394 0.410 0.558 -0.13 0.67 -0.72 0.05
1 4.28 428 2.854 -9.620 0.378 -16.388 -9.094 17.548 -974.965 -209.863 -2519.858 -1.633 -0.090 0.141 -0.14 0.67 -0.72 0.05
1 4.29 429 2.916 -9.390 0.364 -12.421 -1.556 20.203 -974.965 -209.863 -2519.858 -1.705 -0.322 0.126 -0.14 0.68 -0.72 0.05
1 4.30 430 2.974 -9.151 0.656 -10.193 7.629 21.545 -1004.945 -284.964 -2669.911 -1.777 -0.564 -0.186 -0.14 0.68 -0.72 0.05
1 4.31 431 2.600 -9.012 0.321 -10.773 20.844 21.301 -1094.887 -179.883 -2684.901 -1.440 -0.709 0.128 -0.13 0.68 -0.72 0.06
1 4.32 432 2.251 -9.103 0.364 -12.268 24.902 21.088 -1004.945 -119.922 -2444.907 -1.112 -0.621 0.073 -0.13 0.68 -0.72 0.05
1 4.33 433 1.877 -9.319 0.000 -15.411 25.421 19.318 -1004.945 -119.922 -2444.907 -0.762 -0.409 0.422 -0.13 0.68 -0.72 0.05
1 4.34 434 1.757 -9.496 0.086 -17.304 23.743 16.235 -989.955 -29.980 -2639.930 -0.664 -0.235 0.314 -0.13 0.68 -0.72 0.05
1 4.35 435 1.547 -9.769 0.287 -18.524 22.644 12.695 -1004.945 -209.863 -2474.888 -0.471 0.035 0.089 -0.13 0.68 -0.72 0.05
1 4.36 436 1.480 -9.721 0.168 -14.099 23.712 12.268 -1004.945 -209.863 -2474.888 -0.418 -0.015 0.185 -0.13 0.68 -0.72 0.05
1 4.37 437 1.092 -9.539 0.196 -3.845 26.642 11.292 -974.965 -44.971 -2414.927 -0.045 -0.199 0.137 -0.12 0.68 -0.72 0.05
1 4.38 438 0.651 -9.544 0.187 4.089 28.595 10.529 -734.971 -149.902 -2459.897 0.380 -0.196 0.141 -0.12 0.68 -0.72 0.05
1 4.39 439 0.038 -9.189 0.201 8.514 26.428 9.674 -854.893 -44.971 -2624.940 0.956 -0.554 0.149 -0.12 0.68 -0.72 0.05
1 4.40 440 -0.034 -8.998 0.163 5.920 20.477 6.439 -854.893 -44.971 -2624.940 1.009 -0.747 0.204 -0.12 0.68 -0.72 0.05
1 4.41 441 -0.014 -8.955 0.211 0.854 15.564 2.899 -690.000 -149.902 -2384.946 0.974 -0.791 0.167 -0.12 0.68 -0.72 0.05
1 4.42 442 0.038 -8.950 0.158 -6.104 13.062 -1.923 -794.932 -74.951 -2504.868 0.914 -0.796 0.221 -0.11 0.68 -0.72 0.05
1 4.43 443 0.302 -9.639 -0.038 -17.059 11.658 -4.974 -794.932 -74.951 -2504.868 0.649 -0.107 0.406 -0.11 0.68 -0.72 0.05
1 4.44 444 0.417 -10.329 -0.177 -20.874 10.284 -4.669 -779.942 -14.990 -2474.888 0.537 0.582 0.523 -0.11 0.69 -0.72 0.05
1 4.45 445 0.776 -11.090 -0.120 -20.935 6.226 -4.089 -659.870 -104.932 -2384.946 0.182 1.342 0.435 -0.11 0.69 -0.72 0.05
1 4.46 446 1.312 -12.029 0.201 -14.282 -1.801 -1.190 -749.961 -239.994 -2474.888 -0.342 2.280 0.056 -0.11 0.69 -0.71 0.05
1 4.47 447 1.748 -12.340 0.666 -5.493 -3.601 -0.153 -749.961 -239.994 -2474.888 -0.775 2.592 -0.426 -0.11 0.69 -0.71 0.05
1 4.48 448 1.863 -12.704 1.106 2.747 -0.244 -0.427 -749.961 -44.971 -2444.907 -0.887 2.956 -0.871 -0.11 0.69 -0.71 0.05
1 4.49 449 1.786 -12.733 1.623 6.989 4.334 -2.380 -854.893 -89.941 -2474.888 -0.808 2.985 -1.381 -0.11 0.69 -0.71 0.05
1 4.50 450 1.288 -12.656 1.092 9.766 7.751 -6.409 -854.893 -89.941 -2474.888 -0.303 2.909 -0.836 -0.11 0.69 -0.71 0.05
1 4.51 451 0.958 -11.823 0.220 15.625 0.641 -4.944 -779.942 -119.922 -2414.927 0.039 2.078 0.053 -0.11 0.69 -0.72 0.05
1 4.52 452 1.202 -10.616 -0.436 32.166 -6.470 1.312 -794.932 -224.854 -2504.868 -0.194 0.873 0.732 -0.12 0.69 -0.72 0.05
1 4.53 453 1.518 -9.017 -0.517 59.296 -6.012 2.533 -734.971 -104.932 -2504.868 -0.510 -0.723 0.918 -0.12 0.68 -0.72 0.05
1 4.54 454 2.088 -8.859 0.081 43.244 0.671 -4.761 -734.971 -104.932 -2504.868 -1.074 -0.877 0.399 -0.12 0.68 -0.72 0.05
1 4.55 455 2.619 -9.089 0.125 1.617 7.172 -11.536 -794.932 -74.951 -2504.868 -1.586 -0.642 0.404 -0.12 0.68 -0.72 0.05
1 4.56 456 2.820 -10.042 -0.321 -34.821 16.052 -13.031 -854.893 -209.863 -2414.927 -1.756 0.313 0.835 -0.12 0.68 -0.72 0.05
1 4.57 457 2.586 -11.641 -0.737 -47.211 22.827 -13.641 -854.893 -209.863 -2414.927 -1.494 1.913 1.193 -0.12 0.68 -0.72 0.04
1 4.58 458 2.212 -12.187 -0.670 -18.494 26.093 -12.085 -839.903 -329.935 -2639.930 -1.101 2.458 1.064 -0.12 0.68 -0.72 0.04
1 4.59 459 1.585 -12.034 -0.024 9.399 25.543 -12.817 -839.903 -74.951 -2504.868 -0.455 2.306 0.386 -0.12 0.68 -0.72 0.04
1 4.60 460 0.680 -11.665 0.302 27.039 24.811 -10.193 -704.991 -119.922 -2519.858 0.487 1.943 0.109 -0.12 0.68 -0.72 0.04
1 4.61 461 0.302 -11.320 -0.134 26.459 22.919 -8.179 -704.991 -119.922 -2519.858 0.879 1.602 0.591 -0.12 0.68 -0.72 0.03
1 4.62 462 0.623 -11.239 -0.479 12.848 11.200 0.244 -734.971 -179.883 -2504.868 0.565 1.523 0.971 -0.12 0.68 -0.72 0.03
1 4.63 463 1.250 -11.071 -0.187 2.686 2.075 7.385 -734.971 -104.932 -2534.999 -0.065 1.356 0.696 -0.11 0.68 -0.72 0.03
1 4.64 464 1.738 -10.856 0.642 1.587 -0.122 11.810 -734.971 -104.932 -2534.999 -0.565 1.140 -0.129 -0.11 0.68 -0.72 0.03
1 4.65 465 1.508 -10.693 0.972 14.435 9.796 11.261 -824.913 -284.964 -2369.956 -0.352 0.975 -0.453 -0.11 0.68 -0.72 0.03
1 4.66 466 0.939 -10.171 1.092 25.147 13.672 9.613 -854.893 -284.964 -2369.956 0.202 0.452 -0.552 -0.11 0.68 -0.73 0.04
1 4.67 467 0.527 -9.778 1.006 34.485 11.200 9.949 -854.893 -284.964 -2369.956 0.598 0.060 -0.426 -0.11 0.68 -0.73 0.04
1 4.68 468 1.121 -9.558 1.331 25.024 3.418 14.313 -764.952 -224.854 -2459.897 -0.034 -0.157 -0.640 -0.11 0.67 -0.73 0.04
1 4.69 469 1.714 -9.625 1.997 3.540 1.923 17.242 -704.991 -284.964 -2474.888 -0.648 -0.089 -1.268 -0.11 0.67 -0.73 0.04
1 4.70 470 2.222 -9.908 2.581 -17.242 6.805 20.294 -854.893 -119.922 -2519.858 -1.175 0.192 -1.843 -0.11 0.67 -0.73 0.04
1 4.71 471 2.615 -10.348 2.820 -26.581 15.289 22.461 -854.893 -119.922 -2519.858 -1.594 0.628 -2.104 -0.11 0.67 -0.73 0.04
1 4.72 472 2.615 -10.592 2.840 -4.944 32.868 22.461 -674.860 -314.945 -2549.989 -1.629 0.866 -2.157 -0.11 0.67 -0.73 0.04
1 4.73 473 2.303 -10.310 2.701 24.811 44.800 21.484 -690.000 -254.984 -2459.897 -1.353 0.579 -2.029 -0.1 0.67 -0.73 0.04
1 4.74 474 1.547 -9.620 2.275 49.622 50.995 17.731 -690.000 -254.984 -2459.897 -0.632 -0.111 -1.570 -0.1 0.67 -0.73 0.04
1 4.75 475 0.292 -8.409 1.777 57.709 49.774 8.270 -674.860 -89.941 -2669.911 0.571 -1.312 -0.882 -0.09 0.67 -0.74 0.04
1 4.76 476 -0.115 -8.045 1.609 39.734 46.845 2.625 -614.899 -299.955 -2639.930 0.962 -1.669 -0.626 -0.09 0.66 -0.74 0.03
1 4.77 477 -0.153 -8.150 1.590 10.834 43.335 2.808 -629.890 -119.922 -2549.989 0.991 -1.559 -0.551 -0.09 0.66 -0.74 0.03
1 4.78 478 -0.311 -9.003 1.619 -21.332 40.405 6.042 -629.890 -119.922 -2549.989 1.139 -0.706 -0.569 -0.08 0.66 -0.74 0.03
1 4.79 479 0.254 -10.401 1.034 -41.229 39.185 9.949 -614.899 -419.876 -2459.897 0.552 0.687 -0.016 -0.08 0.66 -0.74 0.03
1 4.80 480 0.493 -10.621 0.733 -14.862 40.192 17.273 -494.978 -284.964 -2474.888 0.286 0.900 0.231 -0.08 0.67 -0.74 0.03
1 4.81 481 0.374 -10.262 0.862 21.210 41.596 20.630 -494.978 -284.964 -2474.888 0.374 0.535 0.073 -0.08 0.67 -0.74 0.03
1 4.82 482 0.263 -9.386 1.092 44.922 41.535 22.827 -569.929 -284.964 -2519.858 0.448 -0.342 -0.134 -0.07 0.67 -0.74 0.03
1 4.83 483 -0.306 -8.390 1.350 37.384 43.701 22.064 -659.870 -254.984 -2429.917 0.936 -1.328 -0.251 -0.07 0.66 -0.75 0.03
1 4.84 484 -0.776 -8.351 1.312 15.961 45.410 20.813 -449.857 -434.867 -2624.940 1.366 -1.363 -0.160 -0.06 0.66 -0.75 0.02
1 4.85 485 -1.370 -8.366 1.087 3.143 46.234 20.142 -449.857 -434.867 -2624.940 1.923 -1.348 0.088 -0.06 0.66 -0.75 0.02
1 4.86 486 -1.915 -8.466 0.771 5.981 43.976 20.508 -419.876 -464.997 -2624.940 2.432 -1.248 0.414 -0.06 0.66 -0.75 0.02
1 4.87 487 -2.260 -8.557 0.733 26.337 33.600 22.430 -284.964 -374.906 -2759.852 2.730 -1.158 0.469 -0.05 0.66 -0.75 0.02
1 4.88 488 -2.140 -8.466 0.661 34.882 26.856 24.353 -284.964 -374.906 -2759.852 2.552 -1.247 0.575 -0.05 0.66 -0.75 0.02
1 4.89 489 -1.805 -8.045 0.618 40.589 20.294 24.231 -329.935 -299.955 -2684.901 2.167 -1.664 0.669 -0.04 0.66 -0.75 0.02
1 4.90 490 -1.681 -7.408 0.479 43.396 16.266 22.736 -254.984 -329.935 -2759.852 1.965 -2.286 0.934 -0.04 0.65 -0.76 0.02
1 4.91 491 -2.179 -7.001 0.417 39.276 14.252 20.233 -254.984 -299.955 -2684.901 2.428 -2.684 1.061 -0.04 0.65 -0.76 0.02
1 4.92 492 -2.715 -6.785 0.412 27.161 9.064 17.761 -254.984 -299.955 -2684.901 2.934 -2.891 1.122 -0.04 0.65 -0.76 0.02
1 4.93 493 -3.113 -6.776 0.316 12.085 2.411 15.350 -299.955 -539.948 -2699.891 3.306 -2.896 1.254 -0.03 0.65 -0.76 0.03
1 4.94 494 -3.266 -7.250 -0.048 -1.373 -4.364 11.871 -269.974 -464.997 -2699.891 3.439 -2.420 1.631 -0.03 0.65 -0.76 0.03
1 4.95 495 -3.074 -7.446 -0.364 -4.395 -12.360 6.500 -269.974 -464.997 -2699.891 3.234 -2.224 1.943 -0.03 0.65 -0.76 0.03
1 4.96 496 -2.629 -7.681 -0.493 1.526 -18.097 1.404 -209.863 -419.876 -2759.852 2.781 -1.991 2.065 -0.03 0.65 -0.76 0.03
1 4.97 497 -2.169 -7.901 -0.378 6.592 -27.039 -7.385 -194.873 -584.919 -2594.959 2.334 -1.769 1.959 -0.04 0.65 -0.76 0.03
1 4.98 498 -1.676 -8.035 -0.335 -1.465 -33.051 -15.106 -299.955 -434.867 -2699.891 1.863 -1.633 1.924 -0.04 0.65 -0.76 0.03
1 4.99 499 -0.982 -9.026 -0.163 -24.048 -37.628 -21.668 -299.955 -434.867 -2699.891 1.203 -0.643 1.742 -0.04 0.65 -0.76 0.03
1 5.00 500 -0.211 -10.559 -0.096 -49.072 -40.589 -23.499 -194.873 -389.896 -2774.992 0.469 0.881 1.617 -0.04 0.65 -0.76 0.03
1 5.01 501 0.982 -12.230 0.493 -53.833 -45.502 -18.585 -134.912 -449.857 -2789.982 -0.681 2.541 0.944 -0.05 0.65 -0.76 0.03
1 5.02 502 1.489 -11.957 0.996 -7.721 -46.692 -8.148 -134.912 -449.857 -2789.982 -1.153 2.258 0.366 -0.05 0.65 -0.75 0.03
1 5.03 503 1.619 -10.564 1.025 35.095 -40.314 -7.751 -284.964 -419.876 -2564.979 -1.257 0.861 0.309 -0.05 0.66 -0.75 0.03
1 5.04 504 1.159 -8.275 0.297 54.260 -32.898 -9.369 -344.925 -464.997 -2729.872 -0.741 -1.410 1.143 -0.06 0.65 -0.76 0.04
1 5.05 505 0.728 -7.236 -0.378 46.570 -32.257 -9.949 -434.867 -374.906 -2639.930 -0.287 -2.437 1.892 -0.06 0.65 -0.76 0.04
1 5.06 506 0.460 -6.718 -0.283 -0.824 -33.447 -9.735 -434.867 -374.906 -2639.930 0.005 -2.947 1.834 -0.06 0.65 -0.76 0.04
1 5.07 507 0.043 -7.303 0.460 -42.816 -32.196 -11.841 -569.929 -509.968 -2699.891 0.446 -2.364 1.074 -0.07 0.65 -0.76 0.04
1 5.08 508 -0.024 -10.362 3.582 -82.794 -30.151 -13.184 -509.968 -449.857 -2789.982 0.541 0.685 -2.129 -0.07 0.65 -0.76 0.04
1 5.09 509 1.053 -15.395 3.716 -137.238 -27.191 -5.890 -509.968 -449.857 -2789.982 -0.512 5.700 -2.396 -0.07 0.65 -0.75 0.04
1 5.10 510 1.786 -18.187 2.160 -140.107 -23.041 13.855 -539.948 -374.906 -2564.979 -1.226 8.468 -1.031 -0.07 0.66 -0.75 0.04
1 5.11 511 1.092 -16.008 1.312 -27.893 -8.392 18.921 -539.948 -374.906 -2564.979 -0.540 6.266 -0.402 -0.08 0.67 -0.74 0.04
1 5.12 512 -0.967 -11.861 1.633 106.781 -26.947 -6.714 -494.978 -389.896 -2444.907 1.485 2.118 -0.721 -0.08 0.67 -0.74 0.04
1 5.13 513 -1.657 -10.487 2.073 60.059 -37.903 -17.242 -494.978 -389.896 -2444.907 2.196 0.760 -1.012 -0.08 0.66 -0.74 0.05
1 5.14 514 -1.891 -10.295 1.777 -39.765 -32.288 -10.651 -629.890 -359.916 -2624.940 2.455 0.575 -0.661 -0.08 0.66 -0.74 0.05
1 5.15 515 -1.738 -10.372 1.140 -95.185 -23.224 2.686 -539.948 -374.906 -2684.901 2.300 0.643 -0.109 -0.08 0.66 -0.74 0.05
1 5.16 516 -2.457 -10.640 0.876 -50.202 -23.926 3.418 -539.948 -374.906 -2684.901 2.999 0.896 0.012 -0.08 0.67 -0.74 0.05
1 5.17 517 -2.591 -11.095 1.025 -1.892 -37.598 -1.465 -629.890 -239.994 -2474.888 3.120 1.342 -0.232 -0.08 0.67 -0.73 0.05
1 5.18 518 -1.264 -11.608 1.159 6.592 -53.162 2.380 -629.890 -239.994 -2474.888 1.800 1.853 -0.386 -0.09 0.67 -0.73 0.05
1 5.19 519 1.422 -12.244 1.528 -41.504 -57.190 25.482 -614.899 -179.883 -2609.950 -0.890 2.488 -0.773 -0.09 0.67 -0.73 0.06
1 5.20 520 2.524 -12.115 1.868 -54.444 -46.082 36.896 -614.899 -179.883 -2609.950 -2.027 2.351 -1.187 -0.09 0.68 -0.73 0.06
1 5.21 521 2.461 -11.449 1.566 -31.921 -32.593 32.471 -674.860 -209.863 -2519.858 -2.015 1.678 -0.963 -0.09 0.68 -0.73 0.07
1 5.22 522 2.231 -10.803 1.437 0.824 -23.987 17.578 -690.000 -224.854 -2459.897 -1.824 1.028 -0.870 -0.1 0.68 -0.72 0.07
1 5.23 523 1.824 -9.812 1.365 13.672 -24.292 1.160 -690.000 -224.854 -2459.897 -1.429 0.037 -0.787 -0.1 0.68 -0.72 0.07
1 5.24 524 1.714 -9.438 1.417 -3.204 -22.949 -3.601 -764.952 -329.935 -2354.966 -1.310 -0.335 -0.812 -0.1 0.68 -0.72 0.07
1 5.25 525 1.786 -9.026 1.623 -20.142 -15.961 -6.561 -764.952 -329.935 -2354.966 -1.364 -0.745 -1.010 -0.1 0.68 -0.73 0.07
1 5.26 526 1.384 -8.868 1.700 -25.635 -4.089 -11.414 -674.860 -209.863 -2474.888 -0.915 -0.904 -1.133 -0.1 0.68 -0.72 0.07
1 5.27 527 1.106 -8.892 1.628 -22.980 -1.923 -14.160 -674.860 -209.863 -2474.888 -0.609 -0.880 -1.088 -0.1 0.68 -0.72 0.07
1 5.28 528 0.900 -8.878 1.542 -12.878 -4.913 -24.719 -749.961 -209.863 -2444.907 -0.369 -0.894 -1.020 -0.11 0.68 -0.72 0.07
1 5.29 529 0.891 -9.007 1.350 -7.751 -10.040 -29.999 -944.984 -254.984 -2429.917 -0.315 -0.762 -0.838 -0.11 0.68 -0.72 0.07
1 5.30 530 0.939 -8.888 1.772 -5.157 -10.712 -32.227 -944.984 -254.984 -2429.917 -0.313 -0.879 -1.263 -0.11 0.68 -0.72 0.07
1 5.31 531 0.666 -8.552 2.361 -0.641 -5.920 -32.074 -659.870 -224.854 -2384.946 0.013 -1.211 -1.847 -0.11 0.68 -0.72 0.07
1 5.32 532 0.345 -8.232 2.260 1.984 -4.028 -31.525 -659.870 -224.854 -2384.946 0.386 -1.527 -1.735 -0.11 0.68 -0.72 0.07
1 5.33 533 0.101 -8.299 2.164 1.160 -5.188 -30.487 -839.903 -149.902 -2384.946 0.679 -1.456 -1.637 -0.12 0.68 -0.72 0.07
1 5.34 534 0.077 -8.864 2.140 -15.167 -9.979 -26.306 -854.893 -164.893 -2444.907 0.793 -0.883 -1.611 -0.12 0.68 -0.72 0.06
1 5.35 535 0.287 -9.467 2.050 -28.046 -14.465 -22.095 -749.961 -239.994 -2519.858 0.618 -0.278 -1.536 -0.12 0.68 -0.72 0.06
1 5.36 536 0.680 -10.061 1.992 -31.036 -17.273 -18.646 -869.883 -224.854 -2354.966 0.255 0.317 -1.512 -0.12 0.68 -0.72 0.06
1 5.37 537 1.001 -10.181 2.117 -19.318 -19.104 -16.296 -869.883 -224.854 -2354.966 -0.038 0.438 -1.670 -0.13 0.68 -0.72 0.06
1 5.38 538 1.360 -9.697 2.303 3.296 -17.792 -14.801 -854.893 -164.893 -2369.956 -0.370 -0.043 -1.867 -0.13 0.68 -0.72 0.06
1 5.39 539 1.149 -9.266 2.265 25.269 -7.446 -14.648 -854.893 -164.893 -2369.956 -0.132 -0.470 -1.803 -0.13 0.68 -0.72 0.06
1 5.40 540 1.173 -9.060 2.054 21.698 -3.815 -10.803 -929.994 -239.994 -2339.976 -0.130 -0.671 -1.544 -0.13 0.68 -0.72 0.06
1 5.41 541 0.977 -8.840 1.575 -0.519 -3.418 -8.240 -974.965 -119.922 -2369.956 0.104 -0.883 -0.989 -0.13 0.67 -0.73 0.06
1 5.42 542 1.010 -9.113 1.326 -13.458 -6.348 -7.019 -929.994 -89.941 -2294.855 0.084 -0.608 -0.738 -0.13 0.67 -0.73 0.06
1 5.43 543 1.259 -9.548 1.341 -16.663 -8.942 -7.782 -929.994 -119.922 -2264.875 -0.152 -0.172 -0.769 -0.14 0.67 -0.72 0.06
1 5.44 544 1.508 -9.975 1.087 -10.956 -9.705 -7.813 -929.994 -119.922 -2264.875 -0.385 0.255 -0.533 -0.14 0.67 -0.72 0.06
1 5.45 545 1.714 -10.204 0.886 -3.082 -9.766 -5.585 -839.903 -254.984 -2354.966 -0.575 0.486 -0.341 -0.14 0.67 -0.72 0.06
1 5.46 546 1.853 -10.104 1.202 4.822 -8.759 -1.343 -839.903 -254.984 -2354.966 -0.700 0.387 -0.657 -0.14 0.67 -0.72 0.06
1 5.47 547 2.035 -9.960 1.020 6.744 -5.890 -1.923 -869.883 -179.883 -2354.966 -0.871 0.245 -0.465 -0.14 0.67 -0.72 0.06
1 5.48 548 2.126 -9.922 0.723 2.991 -1.160 -4.791 -1094.887 -329.935 -2249.884 -0.937 0.212 -0.145 -0.14 0.67 -0.72 0.06
1 5.49 549 2.083 -9.975 0.718 1.190 0.275 -5.005 -914.854 -224.854 -2249.884 -0.879 0.266 -0.135 -0.14 0.67 -0.73 0.06
1 5.50 550 2.117 -9.908 0.709 0.366 1.038 -5.280 -1094.887 -179.883 -2429.917 -0.897 0.201 -0.124 -0.14 0.67 -0.73 0.06
1 5.51 551 1.719 -9.769 0.833 3.021 2.991 -7.141 -1094.887 -179.883 -2429.917 -0.484 0.065 -0.245 -0.14 0.67 -0.73 0.06
1 5.52 552 1.408 -9.750 0.747 6.958 4.211 -7.568 -899.864 -389.896 -2369.956 -0.158 0.048 -0.150 -0.15 0.67 -0.73 0.06
1 5.53 553 1.374 -9.836 0.651 10.407 2.747 -6.500 -899.864 -389.896 -2369.956 -0.111 0.137 -0.039 -0.15 0.67 -0.73 0.06
1 5.54 554 1.465 -9.817 0.651 10.407 0.763 -3.296 -1064.906 -254.984 -2354.966 -0.190 0.120 -0.022 -0.15 0.67 -0.73 0.06
1 5.55 555 1.437 -9.745 0.594 10.193 -0.824 0.763 -974.965 -359.916 -2219.904 -0.154 0.051 0.052 -0.15 0.67 -0.73 0.06
1 5.56 556 1.853 -9.582 0.742 10.559 0.549 6.775 -1079.896 -209.863 -2219.904 -0.569 -0.110 -0.063 -0.15 0.67 -0.73 0.06
1 5.57 557 1.968 -9.457 0.804 11.993 3.143 8.667 -974.965 -209.863 -2339.976 -0.688 -0.234 -0.107 -0.15 0.67 -0.73 0.06
1 5.58 558 2.155 -9.390 0.709 12.634 6.805 8.301 -974.965 -209.863 -2339.976 -0.881 -0.300 0.009 -0.15 0.66 -0.73 0.06
1 5.59 559 2.188 -9.165 0.646 11.658 10.376 8.423 -1079.896 -119.922 -2294.855 -0.919 -0.524 0.092 -0.15 0.66 -0.73 0.06
1 5.60 560 1.959 -9.113 0.608 10.223 13.794 7.629 -1079.896 -119.922 -2294.855 -0.694 -0.576 0.151 -0.15 0.66 -0.73 0.06
1 5.61 561 1.686 -9.050 0.637 9.979 15.717 7.446 -1139.857 -149.902 -2354.966 -0.427 -0.637 0.140 -0.15 0.66 -0.73 0.06
1 5.62 562 1.494 -8.878 0.283 10.773 18.250 7.019 -944.984 -374.906 -2384.946 -0.242 -0.809 0.513 -0.14 0.66 -0.73 0.06
1 5.63 563 1.130 -8.878 0.105 10.773 20.874 6.805 -1139.857 -179.883 -2429.917 0.103 -0.809 0.724 -0.14 0.66 -0.73 0.06
1 5.64 564 0.963 -9.031 -0.129 8.881 18.738 6.439 -1019.936 -419.876 -2324.985 0.259 -0.656 0.973 -0.14 0.66 -0.73 0.06
1 5.65 565 0.924 -9.050 -0.134 5.615 14.679 4.547 -1019.936 -419.876 -2324.985 0.287 -0.637 0.988 -0.14 0.66 -0.73 0.06
1 5.66 566 0.934 -9.323 0.158 0.336 10.040 0.702 -989.955 -299.955 -2429.917 0.270 -0.365 0.699 -0.14 0.66 -0.73 0.06
1 5.67 567 1.336 -9.716 0.364 -2.991 5.493 -2.625 -989.955 -299.955 -2429.917 -0.133 0.028 0.490 -0.14 0.66 -0.73 0.06
1 5.68 568 1.619 -10.300 0.359 -3.784 4.456 -2.167 -929.994 -389.896 -2444.907 -0.410 0.612 0.488 -0.14 0.66 -0.73 0.06
1 5.69 569 1.853 -10.339 0.522 -0.244 3.693 1.923 -764.952 -374.906 -2459.897 -0.637 0.650 0.317 -0.14 0.66 -0.73 0.06
1 5.70 570 2.026 -10.501 0.656 6.897 5.341 7.751 -944.984 -224.854 -2429.917 -0.807 0.814 0.184 -0.14 0.66 -0.73 0.06
1 5.71 571 1.920 -10.525 0.541 8.911 5.615 9.857 -1094.887 -224.854 -2459.897 -0.709 0.838 0.311 -0.14 0.66 -0.73 0.06
1 5.72 572 2.040 -10.300 0.436 12.085 7.477 11.200 -1094.887 -224.854 -2459.897 -0.840 0.613 0.432 -0.14 0.66 -0.74 0.06
1 5.73 573 2.050 -10.123 0.350 10.162 7.996 9.583 -944.984 -254.984 -2354.966 -0.860 0.436 0.535 -0.14 0.66 -0.74 0.06
1 5.74 574 2.107 -10.204 0.263 6.470 7.477 9.155 -944.984 -254.984 -2354.966 -0.924 0.517 0.633 -0.14 0.66 -0.74 0.06
1 5.75 575 2.299 -10.693 0.211 -1.556 7.294 8.148 -824.913 -389.896 -2549.989 -1.122 1.006 0.691 -0.14 0.66 -0.74 0.06
1 5.76 576 2.428 -10.904 0.182 -5.310 9.796 7.385 -899.864 -464.997 -2414.927 -1.260 1.215 0.719 -0.14 0.66 -0.74 0.06
1 5.77 577 2.399 -11.220 0.129 -3.448 11.841 7.538 -899.864 -464.997 -2414.927 -1.243 1.529 0.767 -0.14 0.66 -0.74 0.06
1 5.78 578 2.375 -11.291 0.244 5.066 16.663 11.169 -704.991 -239.994 -2474.888 -1.244 1.598 0.652 -0.13 0.66 -0.74 0.06
1 5.79 579 2.332 -11.023 0.263 11.841 20.081 11.597 -704.991 -239.994 -2474.888 -1.219 1.329 0.647 -0.13 0.66 -0.74 0.06
1 5.80 580 2.246 -10.760 0.326 15.411 23.468 9.827 -794.932 -299.955 -2384.946 -1.150 1.066 0.610 -0.13 0.66 -0.74 0.06
1 5.81 581 2.006 -10.631 0.546 14.069 27.252 5.127 -794.932 -299.955 -2384.946 -0.926 0.938 0.417 -0.13 0.66 -0.74 0.06
1 5.82 582 1.523 -11.205 1.001 7.172 30.457 -4.334 -839.903 -254.984 -2429.917 -0.450 1.514 -0.013 -0.13 0.66 -0.74 0.06
1 5.83 583 1.283 -11.837 1.034 -8.789 30.609 -17.761 -989.955 -254.984 -2354.966 -0.203 2.149 -0.034 -0.13 0.66 -0.74 0.06
1 5.84 584 0.963 -11.967 0.589 -6.012 24.658 -14.069 -989.955 -254.984 -2354.966 0.139 2.280 0.408 -0.13 0.66 -0.74 0.06
1 5.85 585 0.977 -10.875 -0.010 25.940 18.250 -0.092 -824.913 -239.994 -2594.959 0.154 1.193 1.017 -0.12 0.66 -0.74 0.05
1 5.86 586 1.001 -9.989 -0.029 43.183 19.379 0.458 -824.913 -239.994 -2594.959 0.127 0.311 1.083 -0.12 0.66 -0.74 0.05
1 5.87 587 0.977 -9.735 0.230 38.941 23.285 -5.615 -779.942 -284.964 -2444.907 0.149 0.064 0.886 -0.12 0.65 -0.74 0.05
1 5.88 588 0.881 -9.721 0.407 14.069 22.034 -9.918 -779.942 -284.964 -2444.907 0.252 0.056 0.757 -0.12 0.65 -0.75 0.05
1 5.89 589 1.360 -10.343 0.273 -13.245 16.998 -8.698 -779.942 -389.896 -2444.907 -0.217 0.681 0.900 -0.12 0.65 -0.75 0.05
1 5.90 590 1.489 -10.736 0.603 -24.963 13.702 -8.087 -704.991 -314.945 -2519.858 -0.335 1.072 0.540 -0.12 0.65 -0.75 0.05
1 5.91 591 1.417 -10.822 0.713 -12.756 17.365 -7.721 -704.991 -314.945 -2519.858 -0.252 1.155 0.392 -0.12 0.66 -0.74 0.05
1 5.92 592 1.101 -10.731 0.374 11.780 19.989 0.244 -899.864 -359.916 -2444.907 0.079 1.064 0.718 -0.12 0.66 -0.74 0.04
1 5.93 593 0.953 -10.166 0.096 15.869 18.646 3.113 -899.864 -359.916 -2444.907 0.222 0.501 1.017 -0.12 0.66 -0.74 0.04
1 5.94 594 0.910 -9.807 0.163 16.022 13.977 5.798 -914.854 -374.906 -2429.917 0.254 0.143 0.973 -0.12 0.65 -0.75 0.04
1 5.95 595 1.020 -9.735 0.551 3.357 12.360 5.981 -914.854 -374.906 -2429.917 0.132 0.072 0.602 -0.12 0.65 -0.75 0.04
1 5.96 596 1.159 -10.396 1.293 -14.801 13.855 7.416 -704.991 -314.945 -2444.907 -0.017 0.731 -0.142 -0.12 0.65 -0.75 0.04
1 5.97 597 1.015 -10.999 1.700 -28.381 17.090 13.886 -794.932 -299.955 -2354.966 0.112 1.330 -0.573 -0.12 0.66 -0.75 0.04
1 5.98 598 0.886 -11.133 1.724 -16.419 17.792 19.898 -794.932 -299.955 -2354.966 0.222 1.457 -0.635 -0.11 0.66 -0.74 0.04
1 5.99 599 0.627 -10.607 2.002 10.803 18.982 23.651 -779.942 -509.968 -2549.989 0.451 0.924 -0.939 -0.11 0.66 -0.74 0.04
1 6.00 600 0.603 -9.548 2.509 49.835 21.057 23.560 -794.932 -329.935 -2324.985 0.397 -0.134 -1.378 -0.11 0.66 -0.75 0.04
1 6.01 601 0.761 -8.797 2.758 54.535 24.353 23.010 -674.860 -314.945 -2519.858 0.200 -0.879 -1.534 -0.11 0.65 -0.75 0.05
1 6.02 602 0.833 -8.208 2.844 39.612 30.518 23.499 -674.860 -314.945 -2519.858 0.090 -1.459 -1.526 -0.1 0.65 -0.75 0.05
1 6.03 603 0.627 -7.887 3.036 17.120 37.903 23.193 -690.000 -254.984 -2504.868 0.255 -1.776 -1.661 -0.1 0.65 -0.75 0.05
1 6.04 604 0.230 -7.944 2.883 -4.089 42.603 14.465 -674.860 -359.916 -2519.858 0.613 -1.719 -1.484 -0.1 0.65 -0.75 0.05
1 6.05 605 0.096 -8.217 2.749 -5.035 40.619 6.866 -674.860 -359.916 -2519.858 0.715 -1.448 -1.346 -0.09 0.65 -0.75 0.04
1 6.06 606 0.081 -8.677 2.533 0.702 37.750 1.434 -704.991 -389.896 -2624.940 0.709 -0.990 -1.132 -0.09 0.65 -0.75 0.04
1 6.07 607 -0.101 -9.405 2.164 6.104 34.699 -0.732 -584.919 -299.955 -2609.950 0.864 -0.259 -0.729 -0.09 0.65 -0.76 0.04
1 6.08 608 -0.326 -9.807 2.011 -0.397 33.386 0.824 -539.948 -419.876 -2534.999 1.077 0.144 -0.559 -0.08 0.65 -0.76 0.04
1 6.09 609 -0.364 -10.214 1.896 -12.390 32.074 6.378 -539.948 -419.876 -2534.999 1.099 0.551 -0.440 -0.08 0.65 -0.76 0.04
1 6.10 610 -0.374 -10.420 1.882 -16.510 31.159 15.259 -569.929 -464.997 -2624.940 1.081 0.753 -0.440 -0.08 0.65 -0.76 0.04
1 6.11 611 -0.383 -9.812 1.575 -5.219 33.692 22.644 -494.978 -314.945 -2519.858 1.051 0.139 -0.148 -0.08 0.65 -0.76 0.04
1 6.12 612 -0.594 -9.280 1.504 17.975 36.011 25.940 -494.978 -314.945 -2519.858 1.214 -0.395 -0.072 -0.07 0.65 -0.76 0.04
1 6.13 613 -0.613 -8.883 1.595 20.752 34.943 25.452 -449.857 -539.948 -2444.907 1.180 -0.791 -0.135 -0.07 0.65 -0.76 0.04
1 6.14 614 -1.135 -8.821 1.451 2.930 32.257 23.621 -419.876 -359.916 -2414.927 1.596 -0.850 0.071 -0.06 0.65 -0.76 0.04
1 6.15 615 -1.556 -9.161 1.259 -3.510 31.677 23.071 -449.857 -464.997 -2519.858 1.965 -0.512 0.265 -0.06 0.65 -0.76 0.04
1 6.16 616 -1.915 -9.620 1.030 -4.517 25.116 21.057 -449.857 -464.997 -2519.858 2.270 -0.055 0.486 -0.06 0.65 -0.76 0.04
1 6.17 617 -1.939 -10.027 0.833 6.378 18.311 25.421 -389.896 -224.854 -2459.897 2.241 0.349 0.677 -0.05 0.65 -0.76 0.04
1 6.18 618 -1.647 -9.884 0.862 20.416 11.475 30.975 -434.867 -374.906 -2429.917 1.890 0.205 0.659 -0.05 0.65 -0.76 0.04
1 6.19 619 -0.910 -9.079 0.958 34.485 9.369 34.668 -434.867 -374.906 -2429.917 1.091 -0.595 0.594 -0.05 0.65 -0.76 0.04
1 6.20 620 -0.781 -8.342 0.939 38.788 11.414 31.464 -179.883 -494.978 -2639.930 0.901 -1.326 0.659 -0.04 0.65 -0.76 0.04
1 6.21 621 -1.159 -7.839 0.579 36.163 13.306 25.543 -164.893 -359.916 -2624.940 1.230 -1.820 1.076 -0.04 0.64 -0.76 0.04
1 6.22 622 -2.155 -7.647 0.273 19.653 8.698 18.250 -284.964 -329.935 -2639.930 2.151 -1.994 1.483 -0.04 0.64 -0.77 0.04
1 6.23 623 -2.873 -8.045 0.182 3.021 1.007 16.571 -284.964 -329.935 -2639.930 2.843 -1.592 1.598 -0.04 0.64 -0.77 0.05
1 6.24 624 -3.405 -8.026 -0.024 -4.944 -7.813 16.693 -284.964 -524.958 -2504.868 3.351 -1.611 1.805 -0.04 0.64 -0.77 0.05
1 6.25 625 -3.539 -8.074 -0.283 0.702 -17.853 15.717 -299.955 -434.867 -2774.992 3.465 -1.564 2.058 -0.03 0.64 -0.77 0.05
1 6.26 626 -3.060 -7.815 -0.388 12.207 -27.435 12.817 -299.955 -434.867 -2774.992 2.971 -1.821 2.170 -0.04 0.64 -0.77 0.05
1 6.27 627 -2.466 -7.470 -0.278 19.653 -39.215 7.019 -224.854 -509.968 -2594.959 2.369 -2.162 2.083 -0.04 0.64 -0.77 0.05
1 6.28 628 -1.968 -7.130 0.034 14.160 -44.220 0.549 -194.873 -509.968 -2519.858 1.870 -2.496 1.801 -0.04 0.64 -0.77 0.05
1 6.29 629 -1.302 -7.504 0.168 -15.442 -43.244 -8.881 -224.854 -359.916 -2669.911 1.236 -2.117 1.697 -0.04 0.63 -0.77 0.06
1 6.30 630 -1.030 -8.303 0.091 -40.222 -42.786 -11.841 -224.854 -359.916 -2669.911 0.991 -1.324 1.742 -0.05 0.64 -0.77 0.06
1 6.31 631 -0.637 -9.247 -0.072 -55.145 -44.922 -13.580 -179.883 -569.929 -2684.901 0.627 -0.394 1.834 -0.05 0.64 -0.77 0.06
1 6.32 632 -0.139 -10.329 0.048 -53.925 -48.279 -13.367 -344.925 -464.997 -2549.989 0.159 0.672 1.619 -0.05 0.64 -0.76 0.06
1 6.33 633 0.441 -10.664 0.642 -32.410 -46.051 -12.451 -344.925 -464.997 -2549.989 -0.387 0.993 0.941 -0.06 0.65 -0.76 0.06
1 6.34 634 0.187 -9.908 0.694 6.409 -36.438 -13.733 -434.867 -374.906 -2639.930 -0.100 0.229 0.843 -0.06 0.65 -0.76 0.06
1 6.35 635 -0.110 -9.022 0.120 16.052 -32.013 -16.174 -224.854 -434.867 -2699.891 0.228 -0.657 1.412 -0.06 0.65 -0.76 0.06
1 6.36 636 -0.417 -7.580 -0.867 7.294 -33.630 -21.179 -374.906 -464.997 -2669.911 0.602 -2.092 2.432 -0.07 0.64 -0.76 0.06
1 6.37 637 -0.527 -7.307 -1.001 -0.610 -35.858 -22.736 -374.906 -464.997 -2669.911 0.754 -2.363 2.571 -0.07 0.64 -0.76 0.06
1 6.38 638 -0.321 -7.523 -0.335 -34.546 -44.800 -29.694 -329.935 -419.876 -2564.979 0.598 -2.150 1.881 -0.07 0.64 -0.76 0.06
1 6.39 639 0.187 -8.476 2.188 -61.554 -48.279 -35.370 -539.948 -419.876 -2564.979 0.149 -1.205 -0.705 -0.08 0.65 -0.76 0.06
1 6.40 640 2.361 -15.908 3.793 -102.570 -46.662 -37.842 -539.948 -419.876 -2564.979 -1.958 6.214 -2.408 -0.08 0.65 -0.75 0.06
1 6.41 641 4.075 -21.429 2.174 -195.313 -31.616 -1.160 -674.860 -359.916 -2519.858 -3.610 11.714 -0.971 -0.09 0.66 -0.75 0.06
1 6.42 642 3.290 -18.939 2.418 -82.428 -1.740 26.306 -539.948 -224.854 -2384.946 -2.802 9.194 -1.498 -0.09 0.67 -0.74 0.06
1 6.43 643 0.838 -14.988 2.351 87.036 9.949 23.987 -539.948 -224.854 -2384.946 -0.379 5.227 -1.612 -0.09 0.67 -0.73 0.06
1 6.44 644 -1.068 -11.153 1.317 118.622 -12.054 -14.282 -629.890 -119.922 -2369.956 1.482 1.415 -0.293 -0.09 0.66 -0.74 0.07
1 6.45 645 -2.093 -9.735 1.001 13.092 -18.280 -15.900 -614.899 -179.883 -2354.966 2.527 0.014 0.162 -0.09 0.66 -0.74 0.07
1 6.46 646 -2.768 -8.926 0.757 -60.974 -15.808 -5.157 -509.968 -329.935 -2429.917 3.206 -0.797 0.390 -0.09 0.66 -0.74 0.07
1 6.47 647 -3.467 -9.098 1.154 -78.369 -12.024 -8.698 -509.968 -329.935 -2429.917 3.892 -0.637 -0.110 -0.09 0.66 -0.74 0.07
1 6.48 648 -3.472 -10.746 1.662 -48.523 -23.682 -17.487 -599.909 -239.994 -2519.858 3.887 0.999 -0.727 -0.09 0.67 -0.74 0.07
1 6.49 649 -2.294 -11.627 1.786 -26.001 -42.847 -9.827 -584.919 -224.854 -2354.966 2.739 1.874 -0.935 -0.09 0.67 -0.73 0.07
1 6.50 650 -0.541 -11.708 1.930 -12.512 -55.756 1.617 -584.919 -224.854 -2354.966 1.011 1.952 -1.127 -0.1 0.67 -0.73 0.07
1 6.51 651 1.053 -10.741 2.729 -2.380 -55.237 10.590 -509.968 -224.854 -2249.884 -0.576 0.982 -1.966 -0.1 0.67 -0.73 0.08
1 6.52 652 1.264 -10.243 2.859 5.585 -48.554 10.010 -704.991 -164.893 -2339.976 -0.795 0.484 -2.099 -0.1 0.67 -0.73 0.08
1 6.53 653 1.322 -9.548 2.710 12.451 -41.870 7.385 -899.864 -239.994 -2369.956 -0.853 -0.209 -1.927 -0.11 0.67 -0.73 0.08
1 6.54 654 1.504 -9.161 2.260 16.357 -42.053 7.263 -899.864 -239.994 -2369.956 -1.032 -0.594 -1.444 -0.11 0.67 -0.73 0.08
1 6.55 655 1.848 -8.955 2.045 13.580 -46.845 9.674 -690.000 -299.955 -2249.884 -1.373 -0.797 -1.197 -0.11 0.67 -0.73 0.09
1 6.56 656 2.126 -8.844 2.088 -2.838 -50.903 7.111 -734.971 -254.984 -2429.917 -1.649 -0.905 -1.216 -0.11 0.67 -0.73 0.09
1 6.57 657 2.303 -8.648 2.433 -13.184 -43.732 -0.763 -734.971 -254.984 -2429.917 -1.818 -1.100 -1.553 -0.12 0.66 -0.73 0.09
1 6.58 658 2.227 -8.643 2.485 -15.320 -28.565 -14.984 -749.961 -284.964 -2369.956 -1.689 -1.104 -1.626 -0.12 0.66 -0.73 0.09
1 6.59 659 1.939 -8.969 2.174 -14.526 -25.757 -18.555 -869.883 -254.984 -2279.865 -1.359 -0.777 -1.326 -0.13 0.66 -0.73 0.09
1 6.60 660 1.422 -9.247 2.260 -15.472 -20.050 -23.285 -779.942 -89.941 -2339.976 -0.794 -0.497 -1.425 -0.13 0.66 -0.73 0.09
1 6.61 661 1.049 -9.539 2.385 -17.487 -16.357 -22.766 -779.942 -89.941 -2339.976 -0.376 -0.203 -1.562 -0.13 0.66 -0.73 0.09
1 6.62 662 0.790 -9.797 2.236 -18.616 -13.641 -23.590 -824.913 -209.863 -2294.855 -0.078 0.057 -1.429 -0.13 0.66 -0.73 0.09
1 6.63 663 0.565 -10.090 2.078 -15.289 -16.357 -30.396 -929.994 -89.941 -2219.904 0.188 0.350 -1.288 -0.14 0.66 -0.73 0.09
1 6.64 664 0.546 -10.367 1.906 -10.071 -21.545 -34.607 -929.994 -89.941 -2219.904 0.252 0.631 -1.132 -0.14 0.66 -0.73 0.09
1 6.65 665 0.613 -10.544 1.858 -1.221 -27.161 -33.478 -854.893 -284.964 -2369.956 0.237 0.811 -1.094 -0.14 0.66 -0.73 0.09
1 6.66 666 1.015 -10.152 2.059 13.214 -30.914 -23.865 -1004.945 -119.922 -2264.875 -0.066 0.429 -1.279 -0.15 0.66 -0.73 0.09
1 6.67 667 1.125 -9.606 1.954 20.569 -31.006 -18.555 -1064.906 -179.883 -2324.985 -0.137 -0.111 -1.145 -0.15 0.66 -0.73 0.09
1 6.68 668 1.537 -9.223 1.824 19.684 -30.274 -17.487 -1064.906 -179.883 -2324.985 -0.515 -0.487 -0.980 -0.15 0.66 -0.73 0.09
1 6.69 669 1.973 -9.084 1.719 10.986 -29.450 -17.365 -1094.887 -74.951 -2429.917 -0.914 -0.619 -0.845 -0.16 0.66 -0.73 0.09
1 6.70 670 2.346 -9.041 1.748 -1.862 -27.557 -16.235 -1064.906 -254.984 -2279.865 -1.249 -0.657 -0.859 -0.16 0.66 -0.73 0.09
1 6.71 671 2.409 -9.343 1.796 -12.817 -20.996 -13.550 -1064.906 -254.984 -2279.865 -1.272 -0.351 -0.910 -0.16 0.65 -0.73 0.09
1 6.72 672 2.346 -9.625 1.566 -10.132 -14.496 -9.857 -1079.896 -164.893 -2294.855 -1.175 -0.066 -0.694 -0.16 0.65 -0.73 0.09
1 6.73 673 1.848 -9.558 1.121 5.859 -9.674 -3.357 -1169.988 -224.854 -2324.985 -0.629 -0.128 -0.261 -0.17 0.65 -0.73 0.09
1 6.74 674 1.499 -9.323 0.996 14.587 -10.407 -1.282 -1154.998 -359.916 -2219.904 -0.268 -0.360 -0.123 -0.17 0.65 -0.73 0.09
1 6.75 675 1.595 -9.232 0.967 15.595 -13.702 0.122 -1154.998 -359.916 -2219.904 -0.357 -0.448 -0.072 -0.17 0.65 -0.73 0.09
1 6.76 676 2.050 -9.007 1.073 8.942 -16.541 2.014 -1109.877 -209.863 -2339.976 -0.805 -0.670 -0.157 -0.17 0.65 -0.73 0.09
1 6.77 677 2.921 -9.084 1.197 0.549 -15.564 3.723 -1064.906 -224.854 -2324.985 -1.668 -0.591 -0.272 -0.17 0.65 -0.73 0.1
1 6.78 678 3.108 -9.017 1.346 -4.669 -5.035 5.127 -1064.906 -224.854 -2324.985 -1.846 -0.658 -0.421 -0.17 0.65 -0.73 0.1
1 6.79 679 3.232 -9.046 1.231 0.061 2.625 4.852 -1199.968 -149.902 -2324.985 -1.962 -0.628 -0.310 -0.17 0.65 -0.73 0.1
1 6.80 680 2.816 -8.931 1.164 9.857 9.583 4.669 -1199.968 -29.980 -2354.966 -1.529 -0.739 -0.228 -0.17 0.65 -0.73 0.1
1 6.81 681 2.370 -8.854 1.068 12.238 10.895 4.028 -1274.919 -74.951 -2249.884 -1.079 -0.813 -0.111 -0.17 0.65 -0.73 0.1
1 6.82 682 2.217 -9.046 1.154 10.040 13.550 0.458 -1274.919 -74.951 -2249.884 -0.921 -0.619 -0.173 -0.17 0.65 -0.74 0.09
1 6.83 683 1.671 -9.204 1.159 4.089 15.442 -1.373 -1094.887 -104.932 -2204.914 -0.369 -0.458 -0.159 -0.17 0.65 -0.74 0.09
1 6.84 684 1.121 -9.620 0.915 -2.869 15.778 -2.136 -899.864 -164.893 -2339.976 0.186 -0.040 0.094 -0.17 0.65 -0.74 0.09
1 6.85 685 0.771 -9.884 0.623 -0.824 8.698 0.031 -899.864 -164.893 -2339.976 0.537 0.224 0.385 -0.17 0.65 -0.74 0.09
1 6.86 686 0.613 -9.812 0.321 7.172 0.946 3.479 -1079.896 -119.922 -2369.956 0.692 0.151 0.684 -0.17 0.65 -0.74 0.09
1 6.87 687 0.781 -9.486 0.450 15.259 -5.127 5.646 -1079.896 -119.922 -2369.956 0.517 -0.175 0.559 -0.17 0.65 -0.74 0.09
1 6.88 688 1.159 -9.146 0.460 12.756 -3.571 6.439 -1184.978 -119.922 -2219.904 0.120 -0.514 0.586 -0.17 0.65 -0.74 0.09
1 6.89 689 1.302 -9.213 0.541 0.122 -1.038 5.981 -1184.978 -119.922 -2219.904 -0.031 -0.446 0.517 -0.17 0.65 -0.74 0.09
1 6.90 690 1.322 -9.295 0.464 -11.536 -0.580 7.111 -1199.968 -224.854 -2354.966 -0.057 -0.367 0.586 -0.17 0.65 -0.74 0.1
1 6.91 691 1.322 -9.414 0.350 -16.571 -0.580 8.179 -1064.906 -104.932 -2279.865 -0.065 -0.250 0.678 -0.17 0.65 -0.74 0.1
1 6.92 692 1.207 -9.467 0.426 -9.583 -1.434 10.559 -1064.906 -104.932 -2279.865 0.040 -0.202 0.573 -0.17 0.65 -0.74 0.1
1 6.93 693 1.216 -9.151 0.426 -0.946 -1.648 12.634 -1034.926 -119.922 -2339.976 0.017 -0.522 0.552 -0.17 0.65 -0.74 0.1
1 6.94 694 1.202 -8.763 0.287 3.815 -1.709 11.566 -1034.926 -119.922 -2339.976 0.016 -0.912 0.683 -0.17 0.65 -0.73 0.1
1 6.95 695 1.532 -8.916 0.235 -2.716 0.397 10.284 -1154.998 -284.964 -2414.927 -0.341 -0.762 0.737 -0.17 0.65 -0.73 0.1
1 6.96 696 1.499 -8.969 0.297 -11.505 1.831 8.881 -1154.998 -284.964 -2414.927 -0.319 -0.712 0.664 -0.17 0.65 -0.73 0.1
1 6.97 697 1.451 -9.338 0.412 -19.959 0.458 6.653 -1154.998 -164.893 -2369.956 -0.280 -0.347 0.526 -0.17 0.65 -0.73 0.1
1 6.98 698 1.690 -9.826 0.551 -22.095 -1.617 5.432 -1079.896 -239.994 -2474.888 -0.525 0.138 0.354 -0.17 0.65 -0.73 0.1
1 6.99 699 1.906 -10.267 0.680 -18.036 -3.662 2.869 -1079.896 -239.994 -2474.888 -0.742 0.575 0.191 -0.17 0.65 -0.73 0.1
1 7.00 700 2.140 -10.578 0.709 -3.601 -0.793 1.434 -1109.877 -209.863 -2339.976 -0.973 0.885 0.137 -0.17 0.65 -0.73 0.1
1 7.01 701 2.050 -10.655 0.704 5.737 4.791 2.502 -1109.877 -209.863 -2339.976 -0.880 0.961 0.133 -0.17 0.65 -0.73 0.1
1 7.02 702 1.729 -10.200 0.713 12.146 11.841 4.395 -1004.945 -89.941 -2294.855 -0.561 0.508 0.147 -0.17 0.65 -0.73 0.1
1 7.03 703 1.571 -9.927 0.493 11.047 13.062 4.730 -1004.945 -89.941 -2294.855 -0.406 0.236 0.386 -0.17 0.65 -0.73 0.1
1 7.04 704 1.441 -9.888 0.354 4.120 13.550 5.096 -974.965 -119.922 -2339.976 -0.282 0.198 0.537 -0.17 0.65 -0.73 0.1
1 7.05 705 1.686 -10.099 0.354 -1.678 14.038 4.303 -974.965 -89.941 -2339.976 -0.532 0.409 0.540 -0.17 0.65 -0.73 0.1
1 7.06 706 1.666 -10.372 0.192 -6.348 15.595 3.143 -974.965 -89.941 -2339.976 -0.515 0.681 0.698 -0.17 0.65 -0.73 0.1
1 7.07 707 1.868 -11.042 0.316 -8.453 18.372 3.662 -1199.968 -149.902 -2249.884 -0.718 1.350 0.561 -0.17 0.65 -0.73 0.1
1 7.08 708 1.906 -11.129 0.254 -6.928 18.829 5.951 -1199.968 -149.902 -2249.884 -0.763 1.434 0.616 -0.17 0.65 -0.73 0.1
1 7.09 709 2.088 -11.392 0.129 -3.082 19.653 7.538 -974.965 -44.971 -2294.855 -0.954 1.696 0.733 -0.16 0.66 -0.73 0.09
1 7.10 710 2.054 -11.200 0.220 7.141 23.834 8.759 -1094.887 -29.980 -2384.946 -0.947 1.502 0.648 -0.16 0.66 -0.73 0.09
1 7.11 711 1.810 -11.114 0.091 11.383 29.083 6.897 -869.883 -104.932 -2279.865 -0.718 1.416 0.795 -0.16 0.66 -0.73 0.09
1 7.12 712 1.585 -11.081 0.464 11.414 31.189 1.099 -929.994 -14.990 -2339.976 -0.504 1.383 0.445 -0.16 0.65 -0.73 0.09
1 7.13 713 1.178 -11.382 0.488 5.432 28.870 -8.575 -929.994 -14.990 -2339.976 -0.097 1.687 0.442 -0.16 0.65 -0.73 0.09
1 7.14 714 0.915 -12.015 0.819 -4.211 24.658 -18.341 -1019.936 -29.980 -2249.884 0.180 2.321 0.122 -0.15 0.65 -0.73 0.09
1 7.15 715 0.718 -11.962 0.613 -4.547 16.266 -16.693 -1019.936 -29.980 -2249.884 0.404 2.272 0.324 -0.15 0.65 -0.74 0.09
1 7.16 716 0.627 -11.320 0.053 15.717 10.590 -5.402 -839.903 -104.932 -2249.884 0.523 1.633 0.879 -0.15 0.65 -0.74 0.08
1 7.17 717 1.010 -9.817 -0.455 44.373 8.911 0.946 -929.994 -164.893 -2369.956 0.151 0.137 1.451 -0.15 0.65 -0.74 0.08
1 7.18 718 1.125 -9.070 -0.220 42.603 12.665 -0.702 -989.955 -224.854 -2324.985 0.035 -0.604 1.275 -0.15 0.65 -0.74 0.08
1 7.19 719 1.173 -8.888 -0.168 19.592 15.961 -4.242 -1064.906 -149.902 -2429.917 -0.011 -0.780 1.273 -0.15 0.65 -0.74 0.08
1 7.20 720 1.370 -9.074 0.273 -14.465 17.029 -8.484 -1064.906 -149.902 -2429.917 -0.199 -0.591 0.846 -0.15 0.65 -0.74 0.08
1 7.21 721 1.547 -10.262 0.431 -51.911 16.663 -11.292 -974.965 -239.994 -2474.888 -0.362 0.594 0.653 -0.15 0.65 -0.74 0.08
1 7.22 722 1.551 -11.090 0.273 -48.706 18.982 -10.620 -974.965 -239.994 -2474.888 -0.349 1.417 0.739 -0.15 0.65 -0.74 0.08
1 7.23 723 1.614 -11.780 0.225 -24.841 19.196 -4.822 -914.854 -299.955 -2534.999 -0.397 2.101 0.716 -0.15 0.65 -0.74 0.08
1 7.24 724 1.609 -11.962 0.263 9.888 13.092 4.608 -929.994 -119.922 -2264.875 -0.386 2.280 0.631 -0.15 0.66 -0.73 0.07
1 7.25 725 1.719 -11.373 0.608 17.120 10.315 7.477 -929.994 -89.941 -2294.855 -0.505 1.692 0.309 -0.15 0.66 -0.74 0.07
1 7.26 726 1.642 -10.568 1.106 17.242 7.050 17.395 -1004.945 -89.941 -2339.976 -0.447 0.888 -0.157 -0.15 0.66 -0.74 0.07
1 7.27 727 1.537 -9.984 1.135 12.512 14.099 18.250 -1004.945 -89.941 -2339.976 -0.365 0.304 -0.159 -0.15 0.65 -0.74 0.08
1 7.28 728 1.130 -9.659 1.336 7.294 18.738 20.111 -899.864 14.990 -2414.927 0.016 -0.023 -0.338 -0.15 0.65 -0.74 0.08
1 7.29 729 1.068 -9.548 1.561 3.296 15.686 22.553 -899.864 14.990 -2414.927 0.047 -0.135 -0.548 -0.14 0.65 -0.74 0.08
1 7.30 730 1.082 -9.524 2.073 1.862 14.374 21.362 -989.955 -149.902 -2354.966 -0.002 -0.162 -1.047 -0.14 0.65 -0.74 0.08
1 7.31 731 1.216 -9.635 2.490 1.923 17.578 20.172 -824.913 -119.922 -2474.888 -0.169 -0.054 -1.451 -0.14 0.65 -0.74 0.08
1 7.32 732 1.049 -9.687 2.768 5.005 25.360 18.341 -869.883 -104.932 -2459.897 -0.061 -0.003 -1.691 -0.14 0.65 -0.74 0.08
1 7.33 733 0.843 -9.740 2.792 11.353 29.389 17.273 -944.984 -104.932 -2459.897 0.115 0.050 -1.688 -0.13 0.65 -0.74 0.08
1 7.34 734 0.393 -9.424 2.600 22.980 32.410 16.113 -944.984 -104.932 -2459.897 0.535 -0.265 -1.458 -0.13 0.65 -0.74 0.08
1 7.35 735 0.215 -8.816 2.643 32.929 35.187 14.648 -659.870 -74.951 -2324.985 0.679 -0.870 -1.446 -0.13 0.65 -0.75 0.08
1 7.36 736 -0.268 -8.437 2.739 30.701 39.917 9.155 -659.870 -74.951 -2324.985 1.133 -1.242 -1.473 -0.12 0.65 -0.75 0.08
1 7.37 737 -0.713 -8.437 2.710 15.717 40.497 4.517 -779.942 -119.922 -2264.875 1.549 -1.235 -1.378 -0.12 0.65 -0.75 0.08
1 7.38 738 -1.077 -8.797 2.404 -4.639 36.743 -0.916 -734.971 -179.883 -2534.999 1.888 -0.872 -1.024 -0.12 0.64 -0.75 0.07
1 7.39 739 -0.919 -9.927 2.002 -19.714 29.450 2.380 -869.883 -149.902 -2564.979 1.693 0.256 -0.617 -0.11 0.65 -0.75 0.07
1 7.40 740 -0.694 -10.698 2.006 -17.365 26.337 10.986 -690.000 -74.951 -2459.897 1.445 1.022 -0.642 -0.11 0.65 -0.75 0.07
1 7.41 741 -0.407 -11.215 1.963 -9.460 25.147 21.729 -690.000 -74.951 -2459.897 1.134 1.535 -0.618 -0.11 0.65 -0.75 0.07
1 7.42 742 -0.062 -11.033 2.121 3.479 26.428 30.060 -779.942 -239.994 -2444.907 0.749 1.349 -0.783 -0.11 0.65 -0.75 0.07
1 7.43 743 0.125 -10.066 2.188 19.501 28.137 34.943 -779.942 -239.994 -2444.907 0.511 0.380 -0.835 -0.1 0.65 -0.75 0.07
1 7.44 744 -0.014 -9.448 2.078 33.081 33.814 32.501 -659.870 -224.854 -2534.999 0.590 -0.235 -0.681 -0.1 0.65 -0.75 0.07
1 7.45 745 -0.402 -8.859 1.834 30.487 38.544 29.266 -614.899 -254.984 -2504.868 0.919 -0.819 -0.381 -0.1 0.65 -0.75 0.07
1 7.46 746 -1.475 -8.734 1.551 15.686 40.344 25.910 -599.909 -89.941 -2339.976 1.877 -0.934 -0.003 -0.09 0.64 -0.76 0.07
1 7.47 747 -2.117 -9.127 1.111 12.054 39.154 26.184 -449.857 -44.971 -2414.927 2.457 -0.540 0.461 -0.08 0.64 -0.76 0.07
1 7.48 748 -2.203 -9.539 0.982 9.491 29.358 28.931 -449.857 -44.971 -2414.927 2.476 -0.128 0.604 -0.08 0.64 -0.76 0.07
1 7.49 749 -2.078 -9.611 1.077 16.693 22.522 31.464 -374.906 -239.994 -2474.888 2.284 -0.056 0.522 -0.08 0.64 -0.76 0.07
1 7.50 750 -1.681 -9.280 1.188 30.853 18.372 31.708 -374.906 -239.994 -2474.888 1.820 -0.383 0.439 -0.07 0.64 -0.76 0.07
1 7.51 751 -1.312 -8.706 1.456 45.166 20.111 26.947 -599.909 -284.964 -2549.989 1.389 -0.950 0.220 -0.07 0.64 -0.76 0.08
1 7.52 752 -1.355 -8.615 1.279 39.307 20.416 23.895 -419.876 -209.863 -2549.989 1.376 -1.030 0.462 -0.07 0.64 -0.76 0.08
1 7.53 753 -1.724 -8.509 1.130 27.618 17.975 21.118 -419.876 -209.863 -2549.989 1.699 -1.124 0.672 -0.06 0.64 -0.77 0.08
1 7.54 754 -2.356 -8.519 0.713 19.806 11.231 17.700 -344.925 -239.994 -2624.940 2.263 -1.098 1.167 -0.06 0.63 -0.77 0.08
1 7.55 755 -2.519 -8.375 0.345 26.520 2.869 17.944 -344.925 -239.994 -2624.940 2.381 -1.237 1.560 -0.06 0.63 -0.77 0.08
1 7.56 756 -2.567 -7.868 0.072 40.192 -6.042 15.503 -359.916 -149.902 -2684.901 2.404 -1.735 1.877 -0.05 0.63 -0.77 0.08
1 7.57 757 -2.303 -7.628 -0.081 47.455 -15.808 10.895 -359.916 -149.902 -2684.901 2.123 -1.961 2.095 -0.05 0.63 -0.77 0.08
1 7.58 758 -1.987 -6.852 0.024 38.696 -23.010 6.012 -374.906 -164.893 -2669.911 1.800 -2.722 2.059 -0.05 0.63 -0.77 0.08
1 7.59 759 -1.456 -7.116 0.024 6.073 -28.534 3.479 -284.964 -299.955 -2684.901 1.270 -2.447 2.111 -0.05 0.62 -0.78 0.08
1 7.60 760 -0.843 -7.561 -0.057 -16.205 -28.076 1.251 -284.964 -299.955 -2684.901 0.662 -1.997 2.212 -0.06 0.62 -0.78 0.08
1 7.61 761 -0.110 -8.749 -0.139 -37.232 -29.450 -6.409 -344.925 -389.896 -2699.891 -0.048 -0.823 2.238 -0.06 0.62 -0.77 0.09
1 7.62 762 0.350 -9.702 0.038 -39.276 -32.318 -10.651 -344.925 -389.896 -2699.891 -0.484 0.117 1.999 -0.06 0.63 -0.77 0.09
1 7.63 763 0.814 -10.391 0.225 -30.884 -35.431 -12.665 -299.955 -209.863 -2729.872 -0.916 0.791 1.743 -0.06 0.63 -0.77 0.09
1 7.64 764 1.121 -10.324 0.397 -13.336 -34.973 -13.702 -299.955 -209.863 -2729.872 -1.185 0.714 1.519 -0.07 0.63 -0.77 0.09
1 7.65 765 0.900 -9.347 0.838 6.439 -31.738 -15.198 -434.867 -374.906 -2639.930 -0.924 -0.268 1.056 -0.07 0.63 -0.77 0.09
1 7.66 766 0.809 -8.854 0.824 15.076 -25.787 -17.639 -344.925 -209.863 -2729.872 -0.793 -0.760 1.078 -0.07 0.63 -0.77 0.09
1 7.67 767 0.742 -8.356 0.781 3.052 -22.522 -19.196 -344.925 -209.863 -2729.872 -0.685 -1.254 1.138 -0.07 0.63 -0.77 0.09
1 7.68 768 0.326 -8.069 0.603 -16.937 -14.069 -19.775 -464.997 -224.854 -2714.881 -0.197 -1.541 1.314 -0.08 0.63 -0.77 0.09
1 7.69 769 -0.335 -8.217 0.445 -20.599 -11.932 -20.386 -464.997 -224.854 -2714.881 0.499 -1.397 1.445 -0.08 0.63 -0.77 0.08
1 7.70 770 -0.895 -8.342 0.575 -27.893 -13.702 -24.048 -464.997 -329.935 -2684.901 1.096 -1.279 1.279 -0.08 0.63 -0.77 0.08
1 7.71 771 -1.393 -9.113 1.465 -32.898 -20.996 -30.823 -464.997 -329.935 -2684.901 1.638 -0.515 0.346 -0.08 0.63 -0.77 0.08
1 7.72 772 -1.235 -12.953 3.860 -49.835 -25.635 -37.964 -464.997 -104.932 -2534.999 1.523 3.317 -2.100 -0.09 0.63 -0.76 0.08
1 7.73 773 -0.249 -17.507 3.505 -125.580 -17.944 -26.215 -419.876 -119.922 -2699.891 0.602 7.857 -1.834 -0.09 0.64 -0.76 0.08
1 7.74 774 -0.201 -17.387 1.930 -92.316 -16.846 7.080 -419.876 -119.922 -2699.891 0.607 7.712 -0.427 -0.09 0.64 -0.76 0.08
1 7.75 775 -0.800 -13.911 1.322 33.600 -16.419 17.365 -509.968 -224.854 -2609.950 1.212 4.212 0.019 -0.1 0.65 -0.75 0.08
1 7.76 776 -1.815 -9.520 2.006 119.172 -20.599 -12.238 -464.997 -224.854 -2684.901 2.205 -0.158 -0.511 -0.09 0.64 -0.75 0.08
1 7.77 777 -1.872 -9.271 2.758 28.656 -23.987 -25.208 -614.899 -74.951 -2459.897 2.277 -0.380 -1.104 -0.1 0.64 -0.76 0.08
1 7.78 778 -1.039 -10.482 2.035 -100.861 -27.741 -15.961 -614.899 -74.951 -2459.897 1.472 0.832 -0.384 -0.1 0.64 -0.76 0.08
1 7.79 779 -0.426 -11.248 0.900 -131.043 -21.362 -6.866 -674.860 -209.863 -2729.872 0.880 1.571 0.578 -0.1 0.64 -0.75 0.08
1 7.80 780 -0.804 -11.536 0.579 -21.301 -7.660 -12.726 -690.000 -179.883 -2564.979 1.274 1.834 0.723 -0.1 0.65 -0.75 0.08
1 7.81 781 -1.006 -11.330 0.881 31.616 -19.226 -20.599 -690.000 -179.883 -2564.979 1.495 1.621 0.358 -0.1 0.65 -0.75 0.08
1 7.82 782 -0.661 -10.923 1.178 26.489 -39.002 -22.980 -614.899 -74.951 -2684.901 1.182 1.220 0.094 -0.11 0.65 -0.75 0.08
1 7.83 783 0.163 -10.281 2.006 -28.168 -47.241 -8.270 -824.913 14.990 -2594.959 0.431 0.588 -0.694 -0.11 0.65 -0.75 0.08
1 7.84 784 0.201 -10.195 1.954 -46.143 -41.687 5.157 -690.000 -74.951 -2534.999 0.406 0.496 -0.690 -0.11 0.65 -0.75 0.08
1 7.85 785 0.402 -10.252 1.528 -38.910 -39.581 10.345 -690.000 -74.951 -2534.999 0.201 0.545 -0.330 -0.12 0.65 -0.74 0.09
1 7.86 786 0.498 -9.965 1.010 -15.717 -46.875 6.714 -794.932 -29.980 -2534.999 0.097 0.250 0.135 -0.12 0.65 -0.74 0.09
1 7.87 787 1.264 -9.366 1.331 9.094 -55.329 1.221 -839.903 -29.980 -2429.917 -0.667 -0.350 -0.205 -0.12 0.65 -0.74 0.09
1 7.88 788 1.815 -8.859 1.719 24.841 -53.375 3.601 -839.903 -29.980 -2429.917 -1.203 -0.855 -0.576 -0.12 0.65 -0.74 0.09
1 7.89 789 2.131 -8.433 2.231 14.893 -43.671 7.629 -779.942 -164.893 -2594.959 -1.503 -1.276 -1.053 -0.13 0.65 -0.74 0.1
1 7.90 790 2.332 -8.121 2.212 -17.670 -30.792 6.866 -764.952 -29.980 -2504.868 -1.690 -1.582 -1.000 -0.13 0.65 -0.74 0.1
1 7.91 791 2.093 -8.165 2.059 -35.980 -27.435 2.380 -779.942 44.971 -2594.959 -1.452 -1.543 -0.883 -0.13 0.65 -0.74 0.1
1 7.92 792 2.112 -8.533 1.690 -43.915 -25.543 -2.991 -779.942 44.971 -2594.959 -1.461 -1.181 -0.569 -0.13 0.65 -0.74 0.1
1 7.93 793 2.131 -9.079 2.011 -42.572 -22.278 -6.958 -839.903 -104.932 -2504.868 -1.457 -0.640 -0.952 -0.14 0.65 -0.74 0.1
1 7.94 794 1.868 -9.821 2.504 -33.325 -15.503 -7.721 -764.952 0.000 -2459.897 -1.168 0.098 -1.498 -0.14 0.66 -0.74 0.1
1 7.95 795 1.796 -9.855 2.514 -17.273 -5.554 -5.829 -764.952 0.000 -2459.897 -1.073 0.130 -1.543 -0.14 0.66 -0.73 0.1
1 7.96 796 1.585 -9.879 2.337 -8.392 -1.678 -7.385 -734.971 74.951 -2564.979 -0.842 0.154 -1.384 -0.14 0.66 -0.73 0.1
1 7.97 797 1.398 -9.730 2.275 -4.120 -2.167 -9.766 -944.984 0.000 -2384.946 -0.637 0.006 -1.326 -0.14 0.66 -0.73 0.1
1 7.98 798 0.986 -9.630 1.992 -4.395 -5.463 -12.695 -914.854 -149.902 -2354.966 -0.181 -0.090 -1.036 -0.14 0.66 -0.73 0.1
1 7.99 799 0.900 -9.630 2.050 -5.402 -7.385 -13.397 -914.854 -149.902 -2354.966 -0.073 -0.088 -1.092 -0.15 0.66 -0.73 0.1
1 8.00 800 0.838 -9.663 2.222 -6.928 -9.003 -13.458 -869.883 29.980 -2354.966 0.013 -0.053 -1.264 -0.15 0.66 -0.73 0.1
1 8.01 801 0.785 -9.764 2.337 -6.683 -10.620 -13.489 -899.864 119.922 -2474.888 0.087 0.050 -1.381 -0.15 0.66 -0.73 0.1
1 8.02 802 0.867 -9.951 2.509 -6.073 -12.360 -13.733 -899.864 119.922 -2474.888 0.028 0.239 -1.553 -0.15 0.66 -0.73 0.1
1 8.03 803 0.872 -10.147 2.275 -3.571 -13.580 -12.817 -914.854 74.951 -2324.985 0.046 0.437 -1.318 -0.15 0.65 -0.73 0.1
1 8.04 804 0.771 -10.113 2.184 2.319 -15.320 -10.345 -944.984 29.980 -2429.917 0.169 0.406 -1.224 -0.15 0.65 -0.73 0.1
1 8.05 805 0.809 -9.711 2.006 14.923 -17.059 -7.477 -914.854 104.932 -2324.985 0.165 0.010 -1.017 -0.15 0.65 -0.74 0.1
1 8.06 806 0.766 -9.218 1.963 20.783 -17.944 -7.751 -914.854 104.932 -2324.985 0.222 -0.479 -0.943 -0.15 0.65 -0.74 0.1
1 8.07 807 0.776 -9.089 1.858 21.515 -19.226 -8.820 -1004.945 -44.971 -2339.976 0.227 -0.602 -0.801 -0.16 0.65 -0.74 0.1
1 8.08 808 1.015 -9.036 1.690 15.656 -22.522 -9.094 -1139.857 -74.951 -2384.946 0.005 -0.649 -0.599 -0.16 0.65 -0.74 0.1
1 8.09 809 1.580 -9.271 1.619 7.202 -25.208 -8.972 -1139.857 -74.951 -2384.946 -0.541 -0.410 -0.505 -0.16 0.65 -0.74 0.1
1 8.10 810 1.987 -9.544 1.518 1.251 -25.604 -11.322 -1079.896 89.941 -2414.927 -0.925 -0.134 -0.395 -0.16 0.65 -0.74 0.1
1 8.11 811 2.351 -9.730 1.604 4.974 -21.790 -12.817 -1004.945 44.971 -2414.927 -1.261 0.056 -0.479 -0.16 0.64 -0.74 0.1
1 8.12 812 2.931 -9.965 1.432 12.817 -15.808 -14.282 -1199.968 29.980 -2384.946 -1.772 0.301 -0.287 -0.17 0.64 -0.74 0.1
1 8.13 813 2.935 -9.706 1.365 17.029 -9.918 -15.411 -1199.968 29.980 -2384.946 -1.739 0.050 -0.200 -0.17 0.64 -0.74 0.1
1 8.14 814 2.830 -9.592 1.144 19.104 -3.784 -16.571 -1019.936 0.000 -2504.868 -1.594 -0.057 0.047 -0.17 0.64 -0.74 0.1
1 8.15 815 2.442 -9.438 1.125 17.548 2.441 -17.609 -1184.978 -44.971 -2474.888 -1.168 -0.202 0.094 -0.17 0.64 -0.74 0.1
1 8.16 816 1.690 -9.271 0.872 12.695 6.744 -18.433 -1184.978 -44.971 -2474.888 -0.381 -0.361 0.373 -0.17 0.64 -0.74 0.1
1 8.17 817 1.279 -9.534 0.670 5.707 8.057 -17.883 -1229.949 -44.971 -2444.907 0.062 -0.091 0.591 -0.17 0.64 -0.74 0.1
1 8.18 818 0.958 -9.682 0.450 2.899 4.303 -17.487 -1109.877 -14.990 -2474.888 0.409 0.062 0.820 -0.18 0.64 -0.75 0.1
1 8.19 819 0.670 -9.994 0.345 2.136 0.824 -16.327 -1109.877 -14.990 -2474.888 0.721 0.377 0.927 -0.18 0.64 -0.75 0.09
1 8.20 820 0.852 -10.214 0.225 7.568 -6.409 -10.132 -1094.887 74.951 -2534.999 0.575 0.602 1.044 -0.18 0.64 -0.75 0.09
1 8.21 821 1.063 -9.979 0.153 13.367 -10.986 -4.974 -1184.978 -44.971 -2549.989 0.375 0.370 1.121 -0.18 0.64 -0.75 0.09
1 8.22 822 1.604 -9.754 0.393 17.029 -10.284 -0.854 -1229.949 -14.990 -2444.907 -0.159 0.147 0.893 -0.18 0.63 -0.75 0.09
1 8.23 823 1.733 -9.371 0.393 17.426 -6.836 4.395 -1229.949 -14.990 -2444.907 -0.285 -0.233 0.911 -0.18 0.63 -0.75 0.09
1 8.24 824 1.853 -8.959 0.163 12.512 -0.885 10.529 -1154.998 -44.971 -2444.907 -0.408 -0.643 1.158 -0.18 0.63 -0.75 0.1
1 8.25 825 1.925 -8.610 0.086 7.324 0.854 12.756 -1109.877 -44.971 -2549.989 -0.488 -0.992 1.248 -0.18 0.63 -0.75 0.1
1 8.26 826 1.848 -8.375 -0.053 1.434 2.411 14.618 -1109.877 -44.971 -2549.989 -0.426 -1.227 1.397 -0.18 0.63 -0.75 0.1
1 8.27 827 1.724 -8.270 -0.235 -4.913 6.622 17.944 -1169.988 -74.951 -2609.950 -0.345 -1.338 1.584 -0.18 0.63 -0.75 0.1
1 8.28 828 1.690 -8.150 -0.110 -7.294 8.362 19.287 -1154.998 -119.922 -2549.989 -0.338 -1.463 1.454 -0.18 0.63 -0.75 0.1
1 8.29 829 1.824 -8.059 -0.297 -10.590 8.850 20.722 -1304.900 14.990 -2594.959 -0.502 -1.559 1.632 -0.17 0.63 -0.75 0.1
1 8.30 830 1.939 -8.016 -0.306 -16.205 9.430 20.966 -1304.900 14.990 -2594.959 -0.648 -1.608 1.626 -0.17 0.63 -0.75 0.1
1 8.31 831 2.533 -8.572 -0.273 -21.942 13.092 19.043 -1064.906 74.951 -2609.950 -1.274 -1.060 1.570 -0.17 0.64 -0.75 0.1
1 8.32 832 2.648 -9.592 -0.292 -24.902 25.818 8.301 -1079.896 -14.990 -2519.858 -1.411 -0.048 1.554 -0.17 0.64 -0.74 0.1
1 8.33 833 2.423 -10.870 -0.230 -21.332 34.027 -1.282 -1079.896 -14.990 -2519.858 -1.194 1.224 1.449 -0.17 0.64 -0.74 0.1
1 8.34 834 1.738 -11.785 0.235 -3.326 34.821 -5.554 -1154.998 44.971 -2594.959 -0.508 2.133 0.939 -0.17 0.64 -0.74 0.09
1 8.35 835 1.346 -11.531 0.350 17.700 30.335 -2.716 -1079.896 44.971 -2414.927 -0.113 1.881 0.835 -0.16 0.64 -0.74 0.09
1 8.36 836 1.034 -10.731 0.431 35.401 29.022 -0.732 -1199.968 -29.980 -2504.868 0.198 1.086 0.793 -0.16 0.64 -0.74 0.09
1 8.37 837 1.063 -9.989 0.311 41.168 29.266 -0.580 -1199.968 -29.980 -2504.868 0.165 0.351 0.972 -0.16 0.64 -0.75 0.09
1 8.38 838 0.819 -9.141 -0.105 33.508 31.372 -0.824 -1094.887 29.980 -2534.999 0.404 -0.489 1.446 -0.16 0.64 -0.75 0.09
1 8.39 839 0.546 -9.189 -0.029 6.744 32.318 -5.127 -1019.936 -74.951 -2534.999 0.672 -0.436 1.410 -0.16 0.64 -0.75 0.09
1 8.40 840 0.350 -9.505 -0.153 -12.421 27.466 -7.233 -1019.936 -74.951 -2534.999 0.865 -0.118 1.548 -0.16 0.64 -0.75 0.09
1 8.41 841 0.493 -10.181 -0.144 -22.400 19.043 -5.463 -1034.926 -119.922 -2594.959 0.722 0.554 1.522 -0.15 0.64 -0.75 0.09
1 8.42 842 1.432 -10.999 0.120 -15.625 8.575 -1.007 -1019.936 74.951 -2684.901 -0.217 1.363 1.184 -0.15 0.64 -0.75 0.08
1 8.43 843 1.949 -11.263 0.120 -4.730 9.064 0.580 -1034.926 14.990 -2669.911 -0.734 1.624 1.167 -0.15 0.64 -0.75 0.08
1 8.44 844 2.270 -11.349 0.206 5.768 15.289 3.510 -1034.926 14.990 -2669.911 -1.057 1.710 1.081 -0.15 0.64 -0.75 0.08
1 8.45 845 2.543 -11.291 0.259 10.834 19.257 4.883 -944.984 29.980 -2384.946 -1.338 1.653 1.043 -0.15 0.64 -0.75 0.08
1 8.46 846 2.643 -11.081 0.211 8.118 22.278 1.343 -929.994 44.971 -2594.959 -1.448 1.444 1.112 -0.15 0.64 -0.75 0.08
1 8.47 847 2.634 -11.215 0.417 1.953 22.583 -2.411 -929.994 44.971 -2594.959 -1.445 1.580 0.925 -0.15 0.64 -0.75 0.08
1 8.48 848 2.567 -11.521 0.986 -3.967 24.170 -8.972 -944.984 -29.980 -2564.979 -1.379 1.888 0.366 -0.15 0.64 -0.75 0.08
1 8.49 849 2.088 -12.168 1.317 -7.935 29.541 -17.517 -944.984 74.951 -2714.881 -0.875 2.537 0.033 -0.15 0.64 -0.75 0.07
1 8.50 850 1.729 -11.823 0.761 -0.610 31.098 -12.543 -989.955 -74.951 -2564.979 -0.496 2.195 0.585 -0.14 0.64 -0.75 0.07
1 8.51 851 1.484 -11.114 -0.053 14.954 30.609 -3.571 -989.955 -74.951 -2564.979 -0.242 1.489 1.411 -0.14 0.64 -0.75 0.07
1 8.52 852 1.484 -10.348 -0.225 25.726 29.694 -5.005 -854.893 -14.990 -2594.959 -0.243 0.727 1.617 -0.14 0.64 -0.75 0.07
1 8.53 853 1.446 -10.161 -0.014 15.137 28.290 -13.214 -989.955 -74.951 -2714.881 -0.198 0.546 1.436 -0.14 0.64 -0.75 0.07
1 8.54 854 1.480 -10.525 0.244 -25.116 27.496 -12.482 -989.955 -74.951 -2714.881 -0.214 0.913 1.185 -0.14 0.64 -0.75 0.06
1 8.55 855 1.532 -10.889 0.445 -43.274 30.701 -9.583 -1019.936 29.980 -2639.930 -0.251 1.274 0.953 -0.14 0.64 -0.75 0.06
1 8.56 856 1.393 -11.435 0.330 -35.492 33.569 -8.270 -944.984 0.000 -2609.950 -0.093 1.807 0.953 -0.14 0.64 -0.75 0.06
1 8.57 857 1.178 -11.526 0.292 -13.397 30.029 -2.563 -794.932 0.000 -2759.852 0.128 1.894 0.955 -0.14 0.65 -0.75 0.05
1 8.58 858 0.804 -11.162 0.407 5.768 25.299 1.068 -794.932 0.000 -2759.852 0.499 1.529 0.836 -0.13 0.65 -0.75 0.05
1 8.59 859 0.632 -10.616 0.757 11.108 20.783 2.533 -944.984 74.951 -2684.901 0.666 0.985 0.504 -0.13 0.65 -0.75 0.05
1 8.60 860 0.838 -10.233 0.958 -6.897 13.214 13.977 -944.984 29.980 -2609.950 0.447 0.602 0.317 -0.13 0.65 -0.75 0.05
1 8.61 861 1.370 -9.975 1.135 -16.480 9.430 23.926 -944.984 29.980 -2609.950 -0.107 0.340 0.136 -0.13 0.65 -0.75 0.05
1 8.62 862 1.872 -9.874 1.705 -18.860 9.796 28.046 -764.952 74.951 -2534.999 -0.643 0.232 -0.453 -0.13 0.65 -0.75 0.05
1 8.63 863 2.270 -9.893 2.351 -13.214 14.374 28.320 -764.952 74.951 -2534.999 -1.078 0.244 -1.123 -0.13 0.65 -0.75 0.05
1 8.64 864 2.409 -9.649 3.295 -0.488 27.680 25.726 -929.994 119.922 -2594.959 -1.284 -0.009 -2.073 -0.12 0.65 -0.75 0.05
1 8.65 865 2.097 -9.788 3.165 8.423 36.438 25.757 -929.994 119.922 -2594.959 -1.006 0.129 -1.919 -0.12 0.65 -0.75 0.05
1 8.66 866 1.504 -9.433 3.137 14.282 43.640 25.330 -794.932 29.980 -2564.979 -0.450 -0.225 -1.854 -0.12 0.65 -0.75 0.05
1 8.67 867 0.776 -8.773 2.864 19.440 48.798 22.034 -690.000 104.932 -2684.901 0.236 -0.884 -1.537 -0.11 0.65 -0.75 0.05
1 8.68 868 -0.551 -8.174 2.581 25.269 51.911 14.435 -690.000 104.932 -2684.901 1.521 -1.480 -1.203 -0.11 0.65 -0.75 0.05
1 8.69 869 -1.202 -8.016 2.615 20.874 49.103 9.491 -704.991 89.941 -2624.940 2.139 -1.635 -1.191 -0.11 0.65 -0.76 0.05
1 8.70 870 -1.355 -8.203 2.260 9.613 40.833 3.204 -704.991 89.941 -2624.940 2.267 -1.444 -0.795 -0.1 0.64 -0.76 0.05
1 8.71 871 -0.833 -8.787 1.987 -11.047 29.205 -3.693 -539.948 104.932 -2564.979 1.716 -0.857 -0.489 -0.1 0.64 -0.76 0.05
1 8.72 872 -0.306 -9.644 1.997 -18.677 28.198 -3.387 -539.948 104.932 -2564.979 1.179 -0.003 -0.509 -0.1 0.64 -0.76 0.04
1 8.73 873 0.215 -10.530 2.011 -19.440 29.999 5.280 -690.000 0.000 -2789.982 0.647 0.879 -0.544 -0.09 0.65 -0.76 0.04
1 8.74 874 0.139 -10.635 2.093 -11.475 31.036 15.289 -599.909 -14.990 -2669.911 0.703 0.980 -0.645 -0.09 0.65 -0.76 0.04
1 8.75 875 -0.302 -10.281 1.973 1.923 33.539 22.034 -599.909 -14.990 -2669.911 1.110 0.622 -0.530 -0.09 0.65 -0.76 0.04
1 8.76 876 -0.364 -9.946 1.710 16.724 35.278 29.663 -449.857 44.971 -2729.872 1.123 0.285 -0.251 -0.09 0.65 -0.76 0.04
1 8.77 877 -0.560 -9.433 1.710 16.419 32.868 33.783 -449.857 44.971 -2729.872 1.262 -0.227 -0.222 -0.08 0.65 -0.76 0.04
1 8.78 878 -0.685 -9.127 1.863 7.721 30.457 31.311 -509.968 149.902 -2714.881 1.258 -0.534 -0.320 -0.07 0.64 -0.76 0.04
1 8.79 879 -1.053 -9.003 1.518 6.317 31.342 28.320 -509.968 149.902 -2714.881 1.565 -0.659 0.042 -0.07 0.64 -0.76 0.04
1 8.80 880 -1.662 -9.180 1.331 9.369 29.327 28.656 -434.867 29.980 -2684.901 2.113 -0.483 0.242 -0.07 0.64 -0.76 0.04
1 8.81 881 -1.858 -9.285 1.116 15.320 23.529 30.487 -329.935 104.932 -2684.901 2.245 -0.377 0.474 -0.06 0.64 -0.76 0.04
1 8.82 882 -1.499 -9.386 1.192 20.477 15.900 33.325 -329.935 104.932 -2684.901 1.819 -0.275 0.422 -0.06 0.64 -0.76 0.05
1 8.83 883 -1.164 -9.180 1.312 23.438 11.139 36.133 -254.984 29.980 -2789.982 1.416 -0.478 0.332 -0.06 0.64 -0.76 0.05
1 8.84 884 -0.838 -8.940 1.365 25.574 14.801 32.593 -254.984 29.980 -2789.982 1.025 -0.713 0.313 -0.05 0.64 -0.76 0.05
1 8.85 885 -0.881 -8.538 1.288 28.412 20.355 26.062 -179.883 74.951 -2639.930 1.009 -1.110 0.426 -0.05 0.64 -0.76 0.05
1 8.86 886 -1.959 -8.452 0.704 25.024 24.017 15.076 -224.854 44.971 -2774.992 2.003 -1.181 1.095 -0.04 0.64 -0.77 0.05
1 8.87 887 -2.931 -8.615 0.421 14.832 18.066 12.451 -344.925 89.941 -2774.992 2.940 -1.013 1.408 -0.04 0.64 -0.77 0.05
1 8.88 888 -3.304 -8.629 0.292 9.705 7.813 11.414 -104.932 -104.932 -2714.881 3.270 -0.997 1.548 -0.04 0.64 -0.77 0.05
1 8.89 889 -3.644 -8.505 -0.196 15.442 -6.928 9.888 -104.932 -104.932 -2714.881 3.568 -1.120 2.043 -0.04 0.64 -0.77 0.05
1 8.90 890 -3.773 -7.954 -0.230 33.875 -26.917 2.594 -179.883 -29.980 -2789.982 3.662 -1.667 2.092 -0.04 0.64 -0.77 0.05
1 8.91 891 -3.764 -7.662 -0.187 38.391 -37.842 -3.632 -179.883 -29.980 -2789.982 3.640 -1.951 2.088 -0.04 0.63 -0.77 0.05
1 8.92 892 -3.606 -7.374 -0.340 30.945 -48.645 -8.209 -119.922 14.990 -2729.872 3.497 -2.227 2.299 -0.04 0.63 -0.77 0.06
1 8.93 893 -2.725 -7.422 -0.330 8.453 -64.331 -16.083 -194.873 -89.941 -2849.943 2.677 -2.163 2.372 -0.04 0.63 -0.78 0.06
1 8.94 894 -2.021 -7.815 0.101 -4.395 -72.754 -22.827 -194.873 44.971 -2984.855 2.021 -1.768 1.949 -0.05 0.63 -0.78 0.06
1 8.95 895 -1.446 -8.538 0.283 -12.756 -76.111 -28.198 -374.906 -89.941 -2909.904 1.507 -1.047 1.757 -0.05 0.63 -0.77 0.06
1 8.96 896 -0.948 -9.266 0.196 -15.289 -78.614 -30.670 -374.906 -89.941 -2909.904 1.072 -0.324 1.817 -0.06 0.63 -0.77 0.06
1 8.97 897 -0.244 -9.414 0.110 -10.529 -81.055 -28.442 -209.863 -29.980 -2894.914 0.431 -0.182 1.869 -0.07 0.63 -0.77 0.07
1 8.98 898 0.187 -9.242 0.263 7.355 -82.855 -26.337 -209.863 -29.980 -2894.914 0.063 -0.358 1.690 -0.07 0.63 -0.77 0.07
1 8.99 899 0.690 -8.878 0.014 12.604 -79.743 -23.102 -374.906 -14.990 -2849.943 -0.375 -0.722 1.931 -0.08 0.63 -0.77 0.07
1 9.00 900 1.082 -8.538 0.522 1.678 -71.655 -21.545 -464.997 -104.932 -2864.934 -0.649 -1.055 1.436 -0.09 0.63 -0.77 0.07
1 9.01 901 1.398 -9.682 3.907 -18.402 -70.648 -19.013 -524.958 14.990 -2954.875 -0.907 0.091 -1.956 -0.09 0.63 -0.77 0.08
1 9.02 902 3.855 -17.033 6.517 -91.767 -82.978 6.439 -524.958 -209.863 -2984.855 -3.315 7.436 -4.608 -0.1 0.63 -0.77 0.08
1 9.03 903 7.887 -22.573 6.024 -198.853 -92.102 58.106 -524.958 -209.863 -2984.855 -7.351 12.939 -4.311 -0.1 0.63 -0.76 0.08
1 9.04 904 8.102 -14.246 3.481 -49.103 -36.377 72.144 -704.991 -14.990 -3029.976 -7.641 4.564 -2.035 -0.11 0.64 -0.75 0.09
1 9.05 905 5.694 -9.429 0.800 225.251 15.015 33.814 -704.991 -14.990 -3029.976 -5.329 -0.255 0.663 -0.1 0.64 -0.75 0.09
1 9.06 906 3.472 -6.642 0.445 176.697 -11.108 -10.773 -704.991 119.922 -2849.943 -3.174 -2.995 1.312 -0.1 0.63 -0.76 0.1
1 9.07 907 1.590 -6.278 2.064 11.414 -19.898 -32.806 -734.971 179.883 -2864.934 -1.273 -3.300 -0.013 -0.1 0.62 -0.77 0.1
1 9.08 908 -1.801 -9.596 2.926 -165.284 23.254 -31.830 -659.870 -179.883 -2939.885 2.219 0.009 -0.937 -0.1 0.62 -0.77 0.09
1 9.09 909 -4.319 -12.632 1.384 -163.147 31.830 -20.508 -704.991 -44.971 -3029.976 4.767 2.999 0.359 -0.1 0.63 -0.76 0.09
1 9.10 910 -4.789 -13.935 0.096 -69.885 7.202 -2.380 -704.991 -44.971 -3029.976 5.254 4.266 1.436 -0.1 0.64 -0.76 0.08
1 9.11 911 -3.917 -12.843 0.254 45.227 -25.543 9.369 -764.952 -74.951 -2789.982 4.383 3.166 1.219 -0.1 0.64 -0.75 0.08
1 9.12 912 -1.954 -9.625 1.911 105.011 -43.610 19.135 -764.952 -74.951 -2789.982 2.411 -0.038 -0.342 -0.1 0.64 -0.76 0.09
1 9.13 913 -0.881 -7.700 2.548 60.517 -40.222 23.193 -794.932 104.932 -2759.852 1.315 -1.937 -0.824 -0.11 0.63 -0.76 0.09
1 9.14 914 -0.436 -6.805 2.672 -4.517 -33.661 20.783 -690.000 29.980 -2939.885 0.842 -2.814 -0.837 -0.11 0.63 -0.76 0.1
1 9.15 915 -0.326 -7.868 2.064 -64.240 -26.032 11.383 -629.890 -44.971 -2849.943 0.697 -1.761 -0.277 -0.11 0.63 -0.76 0.1
1 9.16 916 -0.278 -9.252 1.456 -61.829 -29.022 6.775 -690.000 -104.932 -2864.934 0.642 -0.395 0.234 -0.11 0.63 -0.76 0.1
1 9.17 917 0.541 -10.583 1.221 -34.515 -40.161 11.047 -690.000 -104.932 -2864.934 -0.181 0.922 0.383 -0.11 0.64 -0.76 0.1
1 9.18 918 1.992 -11.215 1.647 -5.310 -52.521 24.109 -674.860 14.990 -2804.973 -1.641 1.546 -0.086 -0.11 0.64 -0.75 0.1
1 9.19 919 3.941 -9.659 2.351 17.090 -36.713 25.726 -674.860 14.990 -2804.973 -3.615 -0.011 -0.792 -0.11 0.64 -0.75 0.11
1 9.20 920 3.850 -8.217 2.107 21.790 -13.733 12.085 -690.000 74.951 -2864.934 -3.540 -1.449 -0.524 -0.11 0.64 -0.75 0.11
1 9.21 921 2.935 -6.982 1.489 16.693 0.885 -5.493 -854.893 14.990 -2804.973 -2.615 -2.678 0.131 -0.12 0.64 -0.76 0.11
1 9.22 922 1.475 -6.661 1.609 -19.440 0.702 -31.250 -794.932 74.951 -2894.914 -1.121 -2.992 0.045 -0.12 0.63 -0.76 0.11
1 9.23 923 0.910 -7.604 1.868 -59.845 -0.580 -41.718 -569.929 -14.990 -2804.973 -0.503 -2.054 -0.256 -0.12 0.64 -0.76 0.11
1 9.24 924 0.431 -9.601 1.959 -95.917 3.174 -48.645 -569.929 -14.990 -2804.973 0.043 -0.071 -0.450 -0.12 0.64 -0.75 0.1
1 9.25 925 -0.077 -11.708 1.437 -101.136 6.775 -46.326 -764.952 29.980 -2864.934 0.621 2.019 -0.072 -0.12 0.64 -0.75 0.1
1 9.26 926 -0.541 -12.551 0.642 -61.127 0.641 -34.271 -764.952 29.980 -2864.934 1.151 2.847 0.584 -0.13 0.65 -0.74 0.1
1 9.27 927 -0.532 -11.301 0.661 24.475 -22.247 -19.409 -854.893 119.922 -2774.992 1.190 1.592 0.497 -0.13 0.65 -0.74 0.09
1 9.28 928 0.105 -9.802 1.221 44.586 -29.877 -15.503 -869.883 179.883 -2789.982 0.590 0.098 -0.046 -0.13 0.65 -0.74 0.09
1 9.29 929 0.819 -8.859 1.695 23.712 -26.917 -14.374 -869.883 179.883 -2789.982 -0.099 -0.836 -0.460 -0.13 0.65 -0.74 0.09
1 9.30 930 1.786 -8.773 1.944 -40.375 -18.463 -9.918 -854.893 44.971 -2804.973 -1.007 -0.913 -0.671 -0.14 0.65 -0.75 0.09
1 9.31 931 2.169 -9.582 1.982 -64.392 -14.404 -9.308 -854.893 44.971 -2804.973 -1.362 -0.110 -0.776 -0.14 0.65 -0.74 0.09
1 9.32 932 2.121 -10.271 1.968 -60.150 -10.620 -7.355 -914.854 179.883 -2819.963 -1.287 0.571 -0.853 -0.14 0.65 -0.74 0.09
1 9.33 933 1.949 -10.396 2.097 -32.349 -7.935 -3.357 -914.854 179.883 -2819.963 -1.093 0.689 -1.057 -0.14 0.65 -0.74 0.09
1 9.34 934 1.374 -9.682 2.212 10.834 -2.411 0.488 -929.994 164.893 -2699.891 -0.506 -0.026 -1.200 -0.14 0.65 -0.74 0.09
1 9.35 935 0.891 -9.103 2.231 22.217 0.305 0.366 -989.955 224.854 -2759.852 -0.016 -0.603 -1.203 -0.14 0.65 -0.74 0.09
1 9.36 936 0.522 -8.552 1.968 17.548 1.038 2.106 -989.955 224.854 -2759.852 0.354 -1.150 -0.899 -0.14 0.65 -0.74 0.09
1 9.37 937 0.426 -8.303 1.887 -3.754 -4.028 0.336 -1004.945 209.863 -2669.911 0.448 -1.393 -0.769 -0.14 0.65 -0.74 0.09
1 9.38 938 0.843 -8.370 1.887 -20.355 -10.071 -2.472 -1004.945 209.863 -2669.911 0.034 -1.327 -0.782 -0.14 0.65 -0.74 0.09
1 9.39 939 1.580 -8.931 1.901 -31.921 -15.747 -5.524 -1034.926 89.941 -2804.973 -0.694 -0.770 -0.828 -0.14 0.65 -0.74 0.09
1 9.40 940 2.442 -9.587 1.911 -33.295 -17.487 -7.935 -1034.926 89.941 -2804.973 -1.535 -0.117 -0.881 -0.14 0.65 -0.74 0.09
1 9.41 941 3.141 -9.927 2.030 -21.698 -13.794 -8.514 -824.913 119.922 -2774.992 -2.205 0.222 -1.042 -0.15 0.65 -0.74 0.09
1 9.42 942 3.199 -9.467 2.064 5.585 -3.082 -10.712 -1064.906 254.984 -2639.930 -2.231 -0.237 -1.095 -0.15 0.65 -0.74 0.09
1 9.43 943 2.816 -9.031 1.891 17.731 3.967 -13.123 -1064.906 254.984 -2639.930 -1.814 -0.668 -0.913 -0.15 0.65 -0.74 0.09
1 9.44 944 1.973 -8.423 1.441 18.097 9.430 -15.961 -1079.896 314.945 -2669.911 -0.937 -1.269 -0.431 -0.15 0.65 -0.74 0.09
1 9.45 945 1.513 -8.299 1.183 0.916 13.123 -19.959 -1154.998 164.893 -2669.911 -0.416 -1.381 -0.117 -0.15 0.65 -0.74 0.09
1 9.46 946 1.044 -8.461 0.876 -14.252 11.566 -20.172 -1154.998 209.863 -2669.911 0.083 -1.215 0.189 -0.15 0.65 -0.74 0.08
1 9.47 947 0.804 -8.955 0.632 -24.963 8.453 -19.165 -1154.998 209.863 -2669.911 0.352 -0.721 0.411 -0.15 0.65 -0.74 0.08
1 9.48 948 0.733 -9.735 0.397 -28.595 3.845 -15.472 -1019.936 254.984 -2714.881 0.450 0.059 0.605 -0.15 0.65 -0.74 0.08
1 9.49 949 1.025 -10.037 0.493 -19.775 -3.510 -5.219 -1079.896 209.863 -2594.959 0.176 0.358 0.466 -0.15 0.65 -0.74 0.08
1 9.50 950 1.403 -10.013 0.742 -10.223 -4.761 2.380 -1079.896 209.863 -2594.959 -0.193 0.332 0.181 -0.15 0.66 -0.74 0.08
1 9.51 951 1.925 -10.085 0.699 -7.141 -0.031 3.723 -1094.887 254.984 -2639.930 -0.714 0.402 0.203 -0.15 0.66 -0.73 0.08
1 9.52 952 2.193 -10.449 0.723 -19.013 8.606 5.157 -1064.906 224.854 -2564.979 -0.979 0.763 0.151 -0.16 0.66 -0.73 0.08
1 9.53 953 2.150 -10.362 0.680 -21.912 12.634 11.475 -1019.936 254.984 -2684.901 -0.939 0.674 0.166 -0.15 0.66 -0.73 0.08
1 9.54 954 1.935 -10.147 0.522 -14.740 17.548 15.411 -1019.936 254.984 -2684.901 -0.736 0.455 0.295 -0.15 0.66 -0.73 0.08
1 9.55 955 1.614 -9.903 0.627 -5.157 21.240 17.181 -1064.906 329.935 -2684.901 -0.434 0.207 0.173 -0.15 0.66 -0.73 0.08
1 9.56 956 1.221 -9.898 0.364 -2.899 20.783 17.517 -974.965 239.994 -2519.858 -0.066 0.199 0.433 -0.15 0.66 -0.73 0.08
1 9.57 957 1.188 -10.013 0.493 -8.270 16.754 17.914 -974.965 239.994 -2519.858 -0.059 0.311 0.302 -0.15 0.66 -0.73 0.08
1 9.58 958 1.504 -10.157 0.488 -13.245 12.116 17.456 -1034.926 314.945 -2594.959 -0.402 0.451 0.299 -0.15 0.66 -0.73 0.08
1 9.59 959 1.671 -10.219 0.685 -10.559 10.681 18.158 -914.854 374.906 -2564.979 -0.616 0.505 0.067 -0.14 0.66 -0.73 0.08
1 9.60 960 1.781 -9.893 0.757 -0.946 13.245 19.409 -1019.936 329.935 -2609.950 -0.749 0.176 -0.016 -0.14 0.66 -0.73 0.08
1 9.61 961 1.561 -9.611 0.670 10.223 16.419 17.822 -1019.936 329.935 -2609.950 -0.552 -0.109 0.076 -0.14 0.66 -0.73 0.08
1 9.62 962 1.499 -9.366 0.503 17.944 19.989 13.184 -944.984 329.935 -2534.999 -0.511 -0.353 0.265 -0.14 0.66 -0.73 0.08
1 9.63 963 1.140 -8.969 0.527 18.524 20.905 7.813 -839.903 224.854 -2639.930 -0.167 -0.750 0.271 -0.14 0.66 -0.73 0.08
1 9.64 964 1.030 -9.199 0.431 6.348 20.142 0.031 -839.903 224.854 -2639.930 -0.065 -0.519 0.395 -0.14 0.66 -0.73 0.08
1 9.65 965 0.876 -9.558 0.493 -5.188 18.433 -3.510 -854.893 209.863 -2669.911 0.086 -0.158 0.348 -0.14 0.66 -0.73 0.08
1 9.66 966 1.140 -10.238 0.498 -12.451 14.679 -3.082 -839.903 254.984 -2684.901 -0.169 0.521 0.326 -0.13 0.66 -0.73 0.07
1 9.67 967 1.480 -10.679 0.402 -7.751 12.268 -0.793 -839.903 299.955 -2564.979 -0.504 0.961 0.404 -0.13 0.66 -0.73 0.07
1 9.68 968 1.777 -10.889 0.455 3.845 13.916 0.092 -839.903 299.955 -2564.979 -0.800 1.171 0.347 -0.13 0.66 -0.73 0.07
1 9.69 969 1.968 -10.822 0.364 14.587 17.242 1.678 -1034.926 434.867 -2594.959 -0.992 1.105 0.452 -0.13 0.66 -0.73 0.07
1 9.70 970 1.791 -10.473 0.187 19.440 20.020 2.686 -854.893 359.916 -2594.959 -0.815 0.758 0.654 -0.13 0.66 -0.73 0.07
1 9.71 971 1.666 -10.286 -0.038 13.550 21.027 5.493 -854.893 359.916 -2594.959 -0.692 0.573 0.907 -0.13 0.66 -0.73 0.07
1 9.72 972 1.619 -10.152 -0.057 6.531 18.707 5.402 -974.965 314.945 -2594.959 -0.648 0.441 0.946 -0.13 0.66 -0.74 0.07
1 9.73 973 1.609 -10.219 0.072 0.031 17.090 4.608 -779.942 239.994 -2804.973 -0.643 0.508 0.825 -0.13 0.66 -0.74 0.07
1 9.74 974 1.590 -10.813 0.656 -3.357 17.822 -0.641 -704.991 314.945 -2624.940 -0.629 1.101 0.235 -0.13 0.66 -0.74 0.07
1 9.75 975 1.298 -11.612 0.881 -5.066 20.386 -7.813 -704.991 314.945 -2624.940 -0.334 1.900 0.008 -0.12 0.66 -0.74 0.06
1 9.76 976 1.140 -12.345 0.795 -8.453 20.477 -14.923 -779.942 284.964 -2774.992 -0.163 2.634 0.090 -0.12 0.66 -0.74 0.06
1 9.77 977 0.785 -12.623 0.469 -5.463 12.970 -11.322 -854.893 239.994 -2849.943 0.213 2.913 0.406 -0.12 0.66 -0.74 0.06
1 9.78 978 0.843 -11.584 0.153 23.895 1.251 1.465 -854.893 239.994 -2849.943 0.169 1.875 0.723 -0.12 0.66 -0.74 0.06
1 9.79 979 1.106 -10.755 0.225 42.511 0.671 2.716 -674.860 314.945 -2669.911 -0.093 1.050 0.680 -0.12 0.66 -0.74 0.06
1 9.80 980 1.264 -10.185 0.364 42.175 3.754 1.709 -779.942 314.945 -2669.911 -0.254 0.485 0.600 -0.12 0.66 -0.74 0.06
1 9.81 981 1.532 -10.142 0.584 4.486 10.803 -0.824 -824.913 359.916 -2624.940 -0.519 0.453 0.478 -0.12 0.66 -0.74 0.06
1 9.82 982 1.614 -10.554 0.297 -18.921 10.681 -2.289 -824.913 359.916 -2624.940 -0.596 0.865 0.760 -0.12 0.66 -0.74 0.06
1 9.83 983 1.508 -10.851 -0.101 -19.501 8.545 -3.601 -839.903 224.854 -2714.881 -0.485 1.159 1.126 -0.12 0.66 -0.74 0.06
1 9.84 984 1.523 -11.239 -0.148 -3.204 5.646 -2.625 -944.984 374.906 -2819.963 -0.494 1.545 1.152 -0.12 0.66 -0.74 0.06
1 9.85 985 1.279 -10.793 0.306 15.564 4.974 -0.732 -944.984 374.906 -2819.963 -0.245 1.100 0.702 -0.12 0.66 -0.74 0.06
1 9.86 986 1.168 -10.588 0.412 25.635 7.477 -0.854 -779.942 434.867 -2699.891 -0.134 0.898 0.626 -0.12 0.66 -0.74 0.06
1 9.87 987 1.030 -10.367 0.498 17.090 7.935 -1.404 -854.893 314.945 -2879.924 0.006 0.682 0.578 -0.12 0.66 -0.74 0.06
1 9.88 988 1.168 -10.248 0.412 0.977 2.960 1.465 -929.994 284.964 -2849.943 -0.130 0.566 0.698 -0.12 0.65 -0.74 0.06
1 9.89 989 1.255 -10.109 0.584 1.343 0.732 6.104 -929.994 284.964 -2849.943 -0.218 0.427 0.522 -0.12 0.66 -0.74 0.06
1 9.90 990 1.274 -10.013 0.699 8.972 3.632 9.430 -734.971 374.906 -2789.982 -0.245 0.330 0.409 -0.12 0.66 -0.74 0.06
1 9.91 991 1.417 -9.620 0.838 14.618 8.484 10.895 -734.971 419.876 -2819.963 -0.401 -0.062 0.285 -0.12 0.65 -0.74 0.06
1 9.92 992 1.183 -9.941 0.824 12.482 13.123 10.742 -734.971 419.876 -2819.963 -0.179 0.260 0.321 -0.12 0.65 -0.75 0.06
1 9.93 993 0.881 -9.932 0.828 -1.892 10.590 12.573 -839.903 224.854 -2759.852 0.107 0.251 0.332 -0.12 0.65 -0.75 0.06
1 9.94 994 0.680 -9.927 0.891 -4.822 6.805 14.160 -749.961 314.945 -2774.992 0.289 0.244 0.271 -0.12 0.65 -0.75 0.06
1 9.95 995 0.670 -9.759 1.317 2.716 5.402 16.113 -749.961 314.945 -2774.992 0.277 0.074 -0.163 -0.11 0.65 -0.75 0.06
1 9.96 996 0.656 -9.319 2.107 18.890 9.125 16.052 -734.971 254.984 -2864.934 0.241 -0.369 -0.928 -0.11 0.65 -0.75 0.06
1 9.97 997 0.594 -8.974 2.385 22.003 12.726 13.214 -734.971 299.955 -2789.982 0.278 -0.711 -1.165 -0.11 0.65 -0.75 0.06
1 9.98 998 0.752 -8.849 2.696 17.365 14.435 13.123 -674.860 239.994 -2729.872 0.098 -0.832 -1.432 -0.11 0.65 -0.75 0.06
1 9.99 999 1.049 -8.825 2.888 8.423 15.625 12.634 -674.860 239.994 -2729.872 -0.220 -0.852 -1.586 -0.11 0.65 -0.75 0.06
1 10.00 1000 1.101 -8.969 2.792 0.641 21.973 12.146 -734.971 224.854 -2939.885 -0.292 -0.707 -1.466 -0.11 0.65 -0.75 0.06
1 10.01 1001 0.895 -8.979 2.744 6.866 30.029 9.613 -734.971 179.883 -2894.914 -0.104 -0.697 -1.401 -0.1 0.65 -0.75 0.06
