COL1	TIME	ACC_X	ACC_Y	ACC_Z	GYR_X	GYR_Y	GYR_Z	MAG_X	MAG_Y	MAG_Z	LACC_X	LACC_Y	LACC_Z	QUAT_X	QUAT_Y	QUAT_Z	QUAT_W
1 0.00 0 -0.177 -9.438 3.007 -1.526 -1.007 0.641 786.238 2756.854 -3381.347 -0.009 0.154 0.125 -0.08 -0.58 0.81 0.1
1 0.01 1 -0.086 -9.357 3.060 -1.282 -0.977 0.397 786.238 2756.854 -3381.347 -0.099 0.073 0.072 -0.08 -0.58 0.81 0.1
1 0.02 2 -0.158 -9.553 3.074 -1.862 -1.251 0.702 666.166 2891.916 -3396.337 -0.027 0.269 0.058 -0.08 -0.58 0.81 0.1
1 0.03 3 -0.201 -9.462 3.204 -1.434 -1.038 0.366 771.248 2861.936 -3426.318 0.016 0.178 -0.073 -0.08 -0.58 0.81 0.1
1 0.04 4 -0.177 -9.453 3.180 -0.763 -0.885 0.183 771.248 2861.936 -3426.318 -0.008 0.168 -0.049 -0.08 -0.58 0.81 0.1
1 0.05 5 -0.168 -9.376 3.137 -0.610 -0.092 0.977 651.176 2756.854 -3531.399 -0.018 0.091 -0.006 -0.08 -0.58 0.81 0.1
1 0.06 6 -0.263 -9.457 3.213 -0.916 -0.610 0.885 741.267 2861.936 -3471.289 0.078 0.173 -0.082 -0.08 -0.58 0.81 0.1
1 0.07 7 -0.235 -9.424 3.208 -1.251 -0.885 0.885 741.267 2861.936 -3471.289 0.049 0.140 -0.077 -0.08 -0.58 0.81 0.1
1 0.08 8 -0.153 -9.472 3.117 -1.160 -0.519 1.007 756.257 2801.975 -3381.347 -0.033 0.187 0.014 -0.08 -0.58 0.81 0.1
1 0.09 9 -0.038 -9.419 3.127 -1.251 -0.275 0.793 771.248 2786.834 -3366.357 -0.147 0.135 0.004 -0.08 -0.58 0.81 0.1
1 0.10 10 -0.005 -9.410 3.180 -0.946 -0.397 0.824 681.156 2831.955 -3531.399 -0.180 0.125 -0.048 -0.08 -0.58 0.81 0.1
1 0.11 11 0.010 -9.390 3.194 -1.801 -0.641 0.519 681.156 2831.955 -3531.399 -0.193 0.106 -0.063 -0.08 -0.58 0.81 0.1
1 0.12 12 -0.168 -9.443 3.122 -1.068 -0.336 0.916 771.248 2861.936 -3396.337 -0.015 0.158 0.009 -0.08 -0.58 0.81 0.1
1 0.13 13 -0.196 -9.438 3.151 -0.977 -0.031 0.092 816.218 2741.864 -3396.337 0.015 0.154 -0.019 -0.08 -0.58 0.81 0.1
1 0.14 14 -0.239 -9.366 3.041 -0.977 0.061 0.488 816.218 2741.864 -3396.337 0.058 0.082 0.090 -0.08 -0.58 0.81 0.1
1 0.15 15 -0.211 -9.457 3.089 -1.007 0.092 0.671 681.156 2726.874 -3381.347 0.029 0.173 0.043 -0.08 -0.58 0.81 0.1
1 0.16 16 -0.158 -9.376 3.170 -1.038 0.000 0.183 681.156 2756.854 -3381.347 -0.024 0.091 -0.039 -0.08 -0.58 0.81 0.1
1 0.17 17 -0.201 -9.515 3.170 -0.763 -0.275 0.610 681.156 2996.848 -3411.328 0.020 0.230 -0.039 -0.08 -0.58 0.81 0.1
1 0.18 18 -0.086 -9.486 3.089 -0.549 0.122 0.702 681.156 2996.848 -3411.328 -0.095 0.201 0.042 -0.08 -0.58 0.81 0.1
1 0.19 19 -0.105 -9.429 3.256 -0.519 0.854 0.122 726.127 2756.854 -3411.328 -0.075 0.144 -0.125 -0.08 -0.58 0.81 0.1
1 0.20 20 -0.067 -9.371 3.137 0.305 1.007 0.732 726.127 2801.975 -3336.376 -0.112 0.087 -0.004 -0.08 -0.58 0.81 0.1
1 0.21 21 -0.086 -9.429 3.132 0.610 1.434 0.183 726.127 2801.975 -3336.376 -0.093 0.145 0.003 -0.08 -0.58 0.81 0.1
1 0.22 22 -0.043 -9.371 3.031 0.031 1.221 0.275 726.127 2726.874 -3381.347 -0.136 0.088 0.105 -0.08 -0.58 0.81 0.1
1 0.23 23 -0.110 -9.472 3.098 0.122 1.068 0.549 726.127 2921.896 -3411.328 -0.067 0.190 0.041 -0.08 -0.58 0.81 0.1
1 0.24 24 -0.129 -9.419 3.180 -0.885 1.495 -0.305 561.234 2711.883 -3471.289 -0.048 0.137 -0.040 -0.08 -0.58 0.81 0.1
1 0.25 25 -0.196 -9.366 3.084 -0.153 0.549 -0.336 561.234 2711.883 -3471.289 0.020 0.085 0.056 -0.08 -0.58 0.81 0.1
1 0.26 26 -0.230 -9.352 3.117 -0.854 1.007 -0.488 831.208 2651.922 -3411.328 0.054 0.071 0.023 -0.09 -0.58 0.81 0.1
1 0.27 27 -0.268 -9.252 3.108 -0.092 0.061 -0.092 516.264 2726.874 -3456.298 0.093 -0.030 0.033 -0.09 -0.58 0.81 0.1
1 0.28 28 -0.201 -9.371 3.132 -0.153 -0.671 -0.671 516.264 2726.874 -3456.298 0.027 0.090 0.010 -0.08 -0.58 0.81 0.1
1 0.29 29 -0.311 -9.491 3.165 -0.641 -0.946 -0.122 846.199 2891.916 -3321.386 0.137 0.210 -0.022 -0.09 -0.58 0.81 0.1
1 0.30 30 -0.201 -9.266 3.122 -1.129 -1.007 0.244 696.146 2741.864 -3366.357 0.026 -0.015 0.020 -0.09 -0.58 0.81 0.1
1 0.31 31 -0.177 -9.524 3.093 -0.519 -1.282 0.122 681.156 2801.975 -3381.347 0.001 0.244 0.049 -0.09 -0.58 0.81 0.1
1 0.32 32 -0.163 -9.453 3.012 -1.282 -0.854 0.549 681.156 2801.975 -3381.347 -0.013 0.171 0.129 -0.09 -0.58 0.81 0.1
1 0.33 33 -0.287 -9.481 3.223 -0.366 -1.038 0.885 726.127 2921.896 -3486.279 0.111 0.200 -0.083 -0.09 -0.58 0.81 0.1
1 0.34 34 -0.206 -9.304 3.117 -0.671 -1.556 0.854 621.195 2786.834 -3396.337 0.029 0.023 0.023 -0.09 -0.58 0.81 0.1
1 0.35 35 -0.249 -9.453 3.151 -1.190 -1.801 1.190 621.195 2786.834 -3396.337 0.072 0.171 -0.011 -0.09 -0.58 0.81 0.1
1 0.36 36 -0.158 -9.429 3.137 -0.885 -1.740 1.465 741.267 2741.864 -3321.386 -0.019 0.147 0.003 -0.09 -0.58 0.81 0.1
1 0.37 37 -0.115 -9.544 3.069 -0.885 -1.770 1.648 741.267 2711.883 -3546.390 -0.062 0.262 0.069 -0.09 -0.58 0.81 0.1
1 0.38 38 -0.014 -9.357 3.050 -0.793 -1.740 1.343 696.146 2891.916 -3321.386 -0.162 0.075 0.088 -0.09 -0.58 0.81 0.1
1 0.39 39 -0.139 -9.299 3.237 -0.336 -1.495 0.610 696.146 2891.916 -3321.386 -0.037 0.017 -0.099 -0.09 -0.58 0.81 0.1
1 0.40 40 -0.168 -9.333 3.232 -0.610 -1.007 0.732 816.218 2786.834 -3426.318 -0.007 0.051 -0.094 -0.09 -0.58 0.81 0.1
1 0.41 41 -0.206 -9.319 3.022 -1.007 -1.160 0.580 651.176 2801.975 -3336.376 0.032 0.036 0.117 -0.09 -0.58 0.81 0.1
1 0.42 42 -0.048 -9.419 3.079 -1.312 -0.183 0.336 651.176 2801.975 -3336.376 -0.126 0.137 0.059 -0.09 -0.58 0.81 0.1
1 0.43 43 -0.053 -9.481 3.108 -1.648 -0.366 0.580 666.166 2786.834 -3501.419 -0.121 0.199 0.029 -0.09 -0.58 0.81 0.1
1 0.44 44 -0.148 -9.491 3.093 -1.526 -0.488 0.214 666.166 2711.883 -3501.419 -0.024 0.208 0.042 -0.08 -0.58 0.81 0.1
1 0.45 45 -0.110 -9.611 3.050 -1.465 -1.282 1.434 681.156 2681.903 -3486.279 -0.062 0.327 0.084 -0.08 -0.58 0.81 0.1
1 0.46 46 -0.091 -9.510 2.983 -1.190 -0.824 1.007 681.156 2681.903 -3486.279 -0.081 0.226 0.151 -0.08 -0.58 0.81 0.1
1 0.47 47 -0.067 -9.625 3.012 -1.068 -1.068 1.343 621.195 2786.834 -3366.357 -0.104 0.341 0.121 -0.08 -0.58 0.81 0.1
1 0.48 48 0.057 -9.443 3.065 -0.824 -0.458 1.465 696.146 2816.965 -3426.318 -0.228 0.159 0.067 -0.08 -0.58 0.81 0.1
1 0.49 49 0.053 -9.352 3.189 -0.702 0.671 1.282 696.146 2816.965 -3426.318 -0.222 0.068 -0.057 -0.08 -0.58 0.81 0.1
1 0.50 50 -0.029 -9.386 3.122 -0.854 1.617 0.702 666.166 2741.864 -3426.318 -0.141 0.102 0.011 -0.08 -0.58 0.81 0.1
1 0.51 51 -0.129 -9.457 3.184 -1.556 1.953 1.465 666.166 2741.864 -3426.318 -0.040 0.174 -0.051 -0.08 -0.58 0.81 0.1
1 0.52 52 -0.115 -9.319 3.199 -2.014 1.923 0.427 651.176 2756.854 -3456.298 -0.055 0.034 -0.066 -0.08 -0.58 0.81 0.1
1 0.53 53 -0.053 -9.338 3.022 -2.289 2.258 0.336 651.176 2756.854 -3456.298 -0.117 0.053 0.109 -0.09 -0.58 0.81 0.1
1 0.54 54 -0.263 -9.371 3.256 -2.167 1.740 0.061 771.248 2786.834 -3321.386 0.093 0.086 -0.127 -0.09 -0.58 0.81 0.1
1 0.55 55 -0.311 -9.496 3.227 -1.587 0.824 -0.580 666.166 2786.834 -3246.285 0.141 0.210 -0.100 -0.09 -0.58 0.81 0.1
1 0.56 56 -0.335 -9.501 3.117 -1.282 -0.977 -0.244 666.166 2786.834 -3246.285 0.165 0.214 0.010 -0.09 -0.58 0.81 0.1
1 0.57 57 -0.306 -9.371 3.151 -1.434 -1.190 -0.702 786.238 2801.975 -3381.347 0.135 0.085 -0.025 -0.09 -0.58 0.81 0.1
1 0.58 58 -0.354 -9.338 3.223 -2.411 -1.556 0.458 786.238 2801.975 -3381.347 0.182 0.051 -0.097 -0.09 -0.58 0.81 0.1
1 0.59 59 -0.306 -9.448 3.227 -1.404 -0.824 0.275 591.215 2741.864 -3426.318 0.134 0.161 -0.103 -0.09 -0.58 0.81 0.1
1 0.60 60 -0.091 -9.275 3.132 -1.617 -0.885 0.488 591.215 2741.864 -3426.318 -0.082 -0.011 -0.007 -0.09 -0.58 0.81 0.1
1 0.61 61 -0.206 -9.419 3.189 -2.319 -0.580 0.824 786.238 2756.854 -3336.376 0.033 0.132 -0.065 -0.09 -0.58 0.81 0.1
1 0.62 62 -0.110 -9.448 3.137 -2.502 -1.984 1.068 786.238 2756.854 -3411.328 -0.063 0.161 -0.013 -0.09 -0.58 0.81 0.1
1 0.63 63 -0.086 -9.438 2.983 -2.594 -1.709 0.488 786.238 2756.854 -3411.328 -0.086 0.150 0.138 -0.09 -0.58 0.81 0.1
1 0.64 64 -0.067 -9.433 3.165 -2.228 -0.427 0.336 696.146 2816.965 -3321.386 -0.105 0.144 -0.047 -0.09 -0.58 0.81 0.1
1 0.65 65 -0.038 -9.429 3.089 -1.495 -0.458 -0.122 696.146 2816.965 -3321.386 -0.132 0.140 0.030 -0.09 -0.58 0.81 0.1
1 0.66 66 -0.139 -9.438 3.127 -0.824 -0.824 0.061 621.195 2816.965 -3471.289 -0.030 0.150 -0.007 -0.09 -0.58 0.81 0.1
1 0.67 67 -0.268 -9.510 3.199 -0.946 -0.702 0.336 621.195 2816.965 -3471.289 0.100 0.222 -0.079 -0.09 -0.58 0.81 0.1
1 0.68 68 -0.158 -9.424 3.213 -1.465 -1.770 0.244 681.156 2726.874 -3531.399 -0.011 0.135 -0.094 -0.09 -0.58 0.81 0.1
1 0.69 69 -0.120 -9.433 3.218 -0.793 -2.197 0.488 696.146 2816.965 -3426.318 -0.050 0.145 -0.099 -0.09 -0.58 0.81 0.1
1 0.70 70 -0.144 -9.524 3.137 -0.305 -2.350 0.336 696.146 2816.965 -3426.318 -0.025 0.236 -0.017 -0.09 -0.58 0.81 0.1
1 0.71 71 -0.345 -9.386 3.175 -1.099 -2.075 0.977 756.257 2726.874 -3456.298 0.177 0.097 -0.054 -0.09 -0.58 0.81 0.1
1 0.72 72 -0.225 -9.467 3.290 -0.916 -1.770 1.526 756.257 2726.874 -3456.298 0.057 0.179 -0.168 -0.09 -0.58 0.81 0.1
1 0.73 73 -0.134 -9.515 3.113 -2.472 -2.777 1.678 696.146 2816.965 -3396.337 -0.035 0.227 0.010 -0.09 -0.58 0.81 0.1
1 0.74 74 -0.062 -9.486 3.151 -2.625 -3.174 1.678 726.127 2726.874 -3411.328 -0.108 0.197 -0.032 -0.09 -0.58 0.81 0.1
1 0.75 75 -0.192 -9.515 3.213 -1.892 -2.594 1.923 846.199 2711.883 -3321.386 0.021 0.226 -0.095 -0.09 -0.58 0.81 0.1
1 0.76 76 -0.053 -9.453 3.151 -0.275 -2.441 1.221 681.156 2681.903 -3486.279 -0.118 0.163 -0.033 -0.09 -0.58 0.81 0.1
1 0.77 77 -0.024 -9.486 3.232 -0.824 -2.167 1.251 681.156 2681.903 -3486.279 -0.146 0.197 -0.113 -0.09 -0.58 0.81 0.1
1 0.78 78 -0.101 -9.429 3.132 -0.549 -1.495 1.282 621.195 2891.916 -3321.386 -0.069 0.140 -0.012 -0.08 -0.58 0.81 0.1
1 0.79 79 -0.034 -9.448 3.093 -0.824 -1.312 1.251 621.195 2891.916 -3321.386 -0.135 0.159 0.027 -0.08 -0.58 0.81 0.1
1 0.80 80 -0.201 -9.328 3.026 -1.617 -0.854 1.587 621.195 2816.965 -3396.337 0.034 0.040 0.094 -0.08 -0.58 0.81 0.1
1 0.81 81 -0.125 -9.568 3.122 -1.038 -0.641 1.770 576.225 2876.926 -3531.399 -0.042 0.279 -0.002 -0.08 -0.58 0.81 0.1
1 0.82 82 -0.057 -9.405 3.041 -0.671 -0.519 1.709 531.254 2741.864 -3396.337 -0.108 0.116 0.079 -0.08 -0.58 0.81 0.1
1 0.83 83 -0.144 -9.510 3.156 -0.763 0.031 1.526 681.156 2801.975 -3306.396 -0.021 0.221 -0.037 -0.08 -0.58 0.81 0.1
1 0.84 84 -0.192 -9.539 3.103 -0.854 -0.488 1.434 681.156 2801.975 -3306.396 0.027 0.250 0.016 -0.08 -0.58 0.81 0.1
1 0.85 85 -0.110 -9.462 3.213 -1.740 -0.946 1.160 741.267 2741.864 -3471.289 -0.054 0.173 -0.095 -0.08 -0.58 0.81 0.1
1 0.86 86 -0.038 -9.429 3.055 -1.251 -1.709 1.373 741.267 2741.864 -3471.289 -0.126 0.140 0.063 -0.08 -0.58 0.81 0.1
1 0.87 87 -0.081 -9.429 3.065 -0.305 -1.190 1.251 561.234 2786.834 -3501.419 -0.082 0.139 0.053 -0.08 -0.58 0.81 0.1
1 0.88 88 -0.019 -9.443 3.218 -0.946 -0.488 0.885 726.127 2801.975 -3381.347 -0.143 0.153 -0.101 -0.08 -0.58 0.81 0.1
1 0.89 89 -0.038 -9.438 3.237 -1.160 -0.305 1.373 576.225 2801.975 -3336.376 -0.123 0.148 -0.121 -0.08 -0.58 0.81 0.1
1 0.90 90 -0.043 -9.323 3.084 -1.465 0.122 0.824 726.127 2801.975 -3276.416 -0.118 0.034 0.033 -0.08 -0.58 0.81 0.1
1 0.91 91 -0.134 -9.443 3.137 -1.190 -0.092 1.221 726.127 2801.975 -3276.416 -0.026 0.153 -0.020 -0.08 -0.58 0.81 0.1
1 0.92 92 -0.105 -9.352 2.964 -0.946 0.000 0.854 696.146 2861.936 -3291.406 -0.054 0.062 0.153 -0.08 -0.58 0.81 0.1
1 0.93 93 -0.263 -9.486 3.165 -1.556 -0.458 1.007 696.146 2861.936 -3291.406 0.104 0.196 -0.049 -0.08 -0.58 0.81 0.1
1 0.94 94 -0.211 -9.429 3.251 -0.916 -0.427 1.495 726.127 2801.975 -3336.376 0.051 0.139 -0.136 -0.08 -0.58 0.81 0.1
1 0.95 95 -0.192 -9.429 3.242 -0.763 -0.458 1.099 666.166 2891.916 -3366.357 0.031 0.139 -0.126 -0.08 -0.58 0.81 0.1
1 0.96 96 -0.268 -9.424 3.117 -0.824 -1.343 1.373 756.257 2876.926 -3336.376 0.107 0.134 -0.001 -0.08 -0.58 0.81 0.1
1 0.97 97 -0.053 -9.376 3.251 -1.984 -1.373 1.831 756.257 2801.975 -3456.298 -0.109 0.086 -0.135 -0.08 -0.58 0.81 0.1
1 0.98 98 -0.158 -9.501 3.026 -1.129 -1.221 1.587 756.257 2801.975 -3456.298 -0.003 0.211 0.090 -0.08 -0.58 0.81 0.1
1 0.99 99 -0.182 -9.410 3.022 -1.038 -0.519 1.251 561.234 2816.965 -3396.337 0.022 0.120 0.095 -0.08 -0.58 0.81 0.1
1 1.00 100 -0.067 -9.448 3.146 -0.305 -1.343 0.549 561.234 2816.965 -3396.337 -0.093 0.158 -0.030 -0.08 -0.58 0.81 0.1
1 1.01 101 -0.110 -9.438 3.117 -1.068 -1.343 0.732 651.176 2726.874 -3456.298 -0.051 0.148 -0.002 -0.08 -0.58 0.81 0.1
1 1.02 102 -0.172 -9.376 3.184 -1.343 -1.038 0.641 651.176 2651.922 -3276.416 0.012 0.086 -0.069 -0.08 -0.58 0.81 0.1
1 1.03 103 -0.182 -9.486 3.117 -2.075 -1.068 1.038 666.166 2786.834 -3366.357 0.022 0.196 -0.003 -0.08 -0.58 0.81 0.1
1 1.04 104 -0.067 -9.405 3.160 -1.678 -1.556 1.099 591.215 2666.913 -3396.337 -0.093 0.114 -0.046 -0.08 -0.58 0.81 0.1
1 1.05 105 -0.144 -9.405 3.108 -1.251 -1.251 1.343 591.215 2666.913 -3396.337 -0.016 0.114 0.007 -0.08 -0.58 0.81 0.1
1 1.06 106 -0.115 -9.395 3.151 -0.366 -1.221 0.854 816.218 2816.965 -3366.357 -0.045 0.105 -0.037 -0.08 -0.58 0.81 0.1
1 1.07 107 -0.153 -9.457 3.232 -0.732 -1.282 1.373 816.218 2816.965 -3366.357 -0.007 0.167 -0.117 -0.08 -0.58 0.81 0.1
1 1.08 108 -0.206 -9.309 3.175 -0.824 -1.648 1.404 606.205 2831.955 -3411.328 0.046 0.019 -0.059 -0.08 -0.58 0.81 0.1
1 1.09 109 -0.139 -9.371 3.208 -0.916 -0.946 0.671 666.166 2786.834 -3471.289 -0.021 0.081 -0.093 -0.08 -0.58 0.81 0.1
1 1.10 110 -0.158 -9.381 3.146 -0.916 -1.129 0.610 666.166 2666.913 -3366.357 -0.002 0.091 -0.030 -0.08 -0.58 0.81 0.1
1 1.11 111 -0.077 -9.343 3.117 -1.617 -0.397 0.397 606.205 2831.955 -3336.376 -0.083 0.052 -0.002 -0.08 -0.58 0.81 0.1
1 1.12 112 -0.053 -9.457 3.165 -1.404 -1.129 0.793 606.205 2831.955 -3336.376 -0.106 0.167 -0.050 -0.08 -0.58 0.81 0.1
1 1.13 113 -0.201 -9.433 3.175 -1.312 -0.824 0.946 651.176 2756.854 -3336.376 0.043 0.143 -0.059 -0.08 -0.58 0.81 0.1
1 1.14 114 -0.182 -9.462 3.127 -0.916 -0.610 0.305 651.176 2756.854 -3336.376 0.024 0.172 -0.012 -0.08 -0.58 0.81 0.1
1 1.15 115 -0.139 -9.386 3.108 -1.129 -1.801 0.336 771.248 2711.883 -3366.357 -0.019 0.095 0.007 -0.08 -0.58 0.81 0.1
1 1.16 116 -0.244 -9.443 3.089 -0.671 -1.801 0.305 696.146 2816.965 -3321.386 0.087 0.153 0.026 -0.08 -0.58 0.81 0.1
1 1.17 117 -0.091 -9.395 3.165 -1.495 -1.709 0.519 696.146 2816.965 -3321.386 -0.066 0.105 -0.051 -0.08 -0.58 0.81 0.1
1 1.18 118 -0.110 -9.252 3.132 -1.190 -0.519 0.610 681.156 2831.955 -3456.298 -0.047 -0.039 -0.017 -0.08 -0.58 0.81 0.1
1 1.19 119 -0.139 -9.333 3.180 -1.282 -0.122 0.580 681.156 2831.955 -3456.298 -0.018 0.042 -0.065 -0.08 -0.58 0.81 0.1
1 1.20 120 -0.144 -9.429 3.175 -0.610 -1.312 0.427 666.166 2786.834 -3366.357 -0.013 0.138 -0.060 -0.08 -0.58 0.81 0.1
1 1.21 121 -0.144 -9.280 3.041 -0.305 -0.702 0.732 666.166 2786.834 -3366.357 -0.013 -0.010 0.074 -0.08 -0.58 0.81 0.1
1 1.22 122 -0.177 -9.414 3.218 -1.068 -1.099 0.671 696.146 2666.913 -3396.337 0.021 0.124 -0.104 -0.08 -0.58 0.81 0.1
1 1.23 123 -0.230 -9.376 3.141 -1.160 -1.038 1.251 771.248 2861.936 -3426.318 0.073 0.085 -0.027 -0.08 -0.58 0.81 0.1
1 1.24 124 -0.215 -9.319 3.141 -1.587 -1.160 1.526 771.248 2861.936 -3426.318 0.058 0.028 -0.027 -0.08 -0.58 0.81 0.1
1 1.25 125 -0.278 -9.558 3.117 -1.801 -1.953 1.251 666.166 2816.965 -3321.386 0.120 0.267 -0.003 -0.08 -0.58 0.81 0.1
1 1.26 126 -0.158 -9.362 3.194 -1.740 -2.380 0.824 666.166 2816.965 -3321.386 -0.001 0.071 -0.081 -0.08 -0.58 0.81 0.1
1 1.27 127 -0.172 -9.472 3.050 -1.434 -2.777 1.251 606.205 2831.955 -3336.376 0.014 0.181 0.062 -0.08 -0.58 0.81 0.1
1 1.28 128 -0.215 -9.443 3.022 -1.740 -2.838 1.099 606.205 2831.955 -3336.376 0.057 0.151 0.090 -0.08 -0.58 0.81 0.1
1 1.29 129 -0.038 -9.347 3.127 -1.678 -3.540 1.190 756.257 2831.955 -3411.328 -0.120 0.055 -0.017 -0.08 -0.58 0.81 0.1
1 1.30 130 -0.192 -9.366 3.213 -2.228 -2.716 0.763 681.156 2726.874 -3381.347 0.034 0.074 -0.105 -0.08 -0.58 0.81 0.1
1 1.31 131 -0.192 -9.395 3.031 -2.289 -3.113 0.946 681.156 2726.874 -3381.347 0.035 0.102 0.076 -0.08 -0.58 0.81 0.1
1 1.32 132 -0.225 -9.496 3.098 -2.563 -3.815 0.946 651.176 2726.874 -3411.328 0.070 0.201 0.005 -0.08 -0.58 0.81 0.1
1 1.33 133 -0.187 -9.410 3.093 -1.770 -4.364 1.068 651.176 2726.874 -3411.328 0.032 0.115 0.008 -0.08 -0.58 0.8 0.1
1 1.34 134 -0.134 -9.419 2.993 -1.465 -4.913 0.366 756.257 2681.903 -3486.279 -0.019 0.124 0.107 -0.08 -0.58 0.8 0.1
1 1.35 135 -0.067 -9.501 3.108 -1.801 -5.798 0.336 756.257 2681.903 -3486.279 -0.084 0.205 -0.009 -0.08 -0.58 0.8 0.1
1 1.36 136 -0.129 -9.477 3.151 -1.923 -6.409 0.610 651.176 2681.903 -3486.279 -0.018 0.180 -0.053 -0.08 -0.58 0.8 0.1
1 1.37 137 -0.086 -9.371 3.175 -1.801 -7.538 0.549 756.257 2831.955 -3411.328 -0.057 0.074 -0.078 -0.08 -0.58 0.8 0.1
1 1.38 138 -0.010 -9.524 3.261 -1.434 -7.568 0.671 756.257 2831.955 -3411.328 -0.130 0.227 -0.165 -0.08 -0.58 0.8 0.1
1 1.39 139 -0.029 -9.410 3.285 -0.519 -7.965 0.336 576.225 2801.975 -3306.396 -0.107 0.112 -0.189 -0.08 -0.58 0.8 0.1
1 1.40 140 0.172 -9.371 3.175 0.732 -7.568 -0.183 816.218 2861.936 -3426.318 -0.297 0.076 -0.074 -0.08 -0.58 0.81 0.1
1 1.41 141 0.172 -9.362 3.137 1.007 -6.470 0.153 591.215 2936.887 -3396.337 -0.291 0.067 -0.033 -0.08 -0.58 0.81 0.1
1 1.42 142 0.283 -9.261 3.208 1.068 -5.493 0.458 591.215 2936.887 -3396.337 -0.395 -0.032 -0.101 -0.08 -0.58 0.81 0.1
1 1.43 143 0.359 -9.457 3.160 1.617 -4.456 0.153 681.156 2681.903 -3381.347 -0.466 0.165 -0.048 -0.08 -0.58 0.81 0.1
1 1.44 144 0.350 -9.390 3.189 0.641 -2.808 0.397 696.146 2741.864 -3321.386 -0.451 0.100 -0.072 -0.08 -0.58 0.81 0.1
1 1.45 145 0.436 -9.376 3.113 0.671 -2.289 1.160 696.146 2741.864 -3321.386 -0.532 0.086 0.007 -0.08 -0.58 0.81 0.1
1 1.46 146 0.493 -9.261 3.141 1.617 -2.563 0.977 681.156 2921.896 -3486.279 -0.585 -0.028 -0.019 -0.08 -0.58 0.81 0.1
1 1.47 147 0.517 -9.151 3.098 1.038 -2.594 1.678 681.156 2726.874 -3306.396 -0.601 -0.136 0.031 -0.08 -0.58 0.81 0.1
1 1.48 148 0.527 -9.175 3.156 -0.153 -3.174 1.831 546.244 2801.975 -3456.298 -0.607 -0.111 -0.024 -0.08 -0.58 0.81 0.1
1 1.49 149 0.488 -9.343 3.223 -1.099 -3.143 1.526 546.244 2801.975 -3456.298 -0.564 0.057 -0.090 -0.08 -0.58 0.81 0.1
1 1.50 150 0.522 -9.386 3.170 -1.343 -2.777 0.916 651.176 2651.922 -3381.347 -0.593 0.100 -0.037 -0.08 -0.58 0.81 0.1
1 1.51 151 0.642 -9.443 3.160 -0.458 -1.404 0.397 606.205 2801.975 -3336.376 -0.708 0.158 -0.027 -0.08 -0.58 0.81 0.1
1 1.52 152 0.407 -9.472 3.232 0.458 0.061 -0.122 606.205 2801.975 -3336.376 -0.468 0.186 -0.099 -0.08 -0.58 0.81 0.1
1 1.53 153 0.426 -9.453 3.199 0.275 0.061 -0.458 756.257 2756.854 -3561.380 -0.481 0.168 -0.063 -0.08 -0.58 0.81 0.1
1 1.54 154 0.182 -9.319 3.022 0.336 0.916 -0.793 756.257 2756.854 -3486.279 -0.226 0.036 0.120 -0.08 -0.58 0.81 0.1
1 1.55 155 0.220 -9.280 3.132 1.343 0.427 -1.221 651.176 2801.975 -3381.347 -0.261 -0.002 0.012 -0.08 -0.58 0.81 0.1
1 1.56 156 0.235 -9.271 3.141 1.038 -0.275 -0.977 651.176 2801.975 -3381.347 -0.271 -0.010 0.006 -0.07 -0.58 0.81 0.1
1 1.57 157 0.105 -9.376 3.036 0.610 -0.214 -0.916 666.166 2711.883 -3426.318 -0.137 0.096 0.115 -0.07 -0.58 0.81 0.1
1 1.58 158 0.239 -9.228 2.988 -1.343 -0.214 -0.549 561.234 2741.864 -3501.419 -0.268 -0.052 0.164 -0.07 -0.58 0.81 0.1
1 1.59 159 0.230 -9.328 2.844 -2.258 0.366 0.336 561.234 2741.864 -3501.419 -0.255 0.048 0.306 -0.07 -0.58 0.81 0.1
1 1.60 160 0.215 -9.343 2.940 -1.740 0.305 -0.031 621.195 2786.834 -3471.289 -0.239 0.062 0.207 -0.07 -0.58 0.81 0.1
1 1.61 161 0.345 -9.299 2.940 -1.892 1.099 0.275 696.146 2891.916 -3396.337 -0.366 0.018 0.204 -0.07 -0.58 0.81 0.1
1 1.62 162 0.302 -9.438 2.950 -2.319 2.380 0.122 726.127 2801.975 -3306.396 -0.319 0.155 0.190 -0.07 -0.58 0.81 0.1
1 1.63 163 0.259 -9.352 3.002 -2.380 1.923 0.305 726.127 2801.975 -3306.396 -0.274 0.068 0.135 -0.08 -0.58 0.81 0.1
1 1.64 164 0.211 -9.328 3.002 -2.747 1.831 0.549 591.215 2711.883 -3426.318 -0.224 0.043 0.132 -0.08 -0.58 0.81 0.1
1 1.65 165 0.235 -9.275 3.084 -1.862 2.014 0.214 591.215 2711.883 -3501.419 -0.247 -0.011 0.048 -0.08 -0.58 0.81 0.1
1 1.66 166 0.153 -9.285 3.113 -2.441 2.686 1.434 591.215 2711.883 -3501.419 -0.165 -0.002 0.017 -0.08 -0.58 0.81 0.1
1 1.67 167 -0.024 -9.237 3.089 -2.045 3.326 1.160 651.176 2756.854 -3411.328 0.013 -0.050 0.039 -0.08 -0.58 0.81 0.1
1 1.68 168 -0.043 -9.304 3.141 -2.502 3.571 2.106 741.267 2711.883 -3366.357 0.030 0.016 -0.015 -0.08 -0.58 0.81 0.1
1 1.69 169 0.034 -9.568 3.223 -3.784 4.578 2.991 666.166 2936.887 -3426.318 -0.055 0.278 -0.101 -0.08 -0.58 0.81 0.1
1 1.70 170 -0.014 -9.563 3.237 -3.601 4.181 3.082 666.166 2936.887 -3426.318 -0.013 0.272 -0.119 -0.08 -0.58 0.81 0.1
1 1.71 171 0.057 -9.649 3.060 -1.068 4.364 3.723 576.225 2801.975 -3381.347 -0.091 0.358 0.056 -0.08 -0.58 0.8 0.1
1 1.72 172 -0.077 -9.649 3.108 0.610 5.402 4.089 666.166 2741.864 -3426.318 0.037 0.358 0.008 -0.08 -0.58 0.8 0.1
1 1.73 173 -0.077 -9.510 2.955 0.885 6.165 3.571 666.166 2741.864 -3426.318 0.029 0.220 0.163 -0.08 -0.58 0.81 0.1
1 1.74 174 -0.153 -9.582 3.074 -1.160 5.341 3.876 681.156 2876.926 -3381.347 0.099 0.292 0.045 -0.08 -0.58 0.81 0.11
1 1.75 175 -0.283 -9.501 3.165 -1.617 5.005 3.448 621.195 2741.864 -3321.386 0.221 0.210 -0.046 -0.08 -0.58 0.81 0.11
1 1.76 176 -0.139 -9.515 3.122 -1.862 5.005 3.021 681.156 2831.955 -3306.396 0.062 0.224 -0.006 -0.08 -0.58 0.8 0.11
1 1.77 177 -0.220 -9.510 3.012 -1.373 5.554 3.540 681.156 2831.955 -3306.396 0.137 0.219 0.103 -0.08 -0.58 0.8 0.11
1 1.78 178 -0.038 -9.515 2.916 -0.671 5.249 3.967 726.127 2831.955 -3456.298 -0.053 0.223 0.197 -0.08 -0.58 0.8 0.11
1 1.79 179 -0.144 -9.682 2.902 0.702 6.012 5.402 651.176 2756.854 -3531.399 0.045 0.391 0.211 -0.08 -0.58 0.8 0.11
1 1.80 180 -0.115 -9.716 3.074 0.031 5.341 5.127 651.176 2756.854 -3531.399 0.007 0.424 0.039 -0.08 -0.58 0.8 0.11
1 1.81 181 0.091 -9.673 3.141 -0.854 6.042 5.890 741.267 2816.965 -3546.390 -0.209 0.381 -0.028 -0.08 -0.58 0.8 0.11
1 1.82 182 0.038 -9.726 3.299 -0.244 8.575 6.378 681.156 2756.854 -3531.399 -0.166 0.434 -0.187 -0.08 -0.58 0.8 0.11
1 1.83 183 0.067 -9.558 3.309 0.458 10.345 6.348 681.156 2756.854 -3531.399 -0.205 0.267 -0.196 -0.08 -0.58 0.8 0.11
1 1.84 184 -0.029 -9.663 3.247 1.129 12.329 6.348 666.166 2786.834 -3366.357 -0.134 0.374 -0.127 -0.09 -0.58 0.8 0.11
1 1.85 185 -0.254 -9.491 3.304 1.831 12.848 6.500 816.218 2816.965 -3426.318 0.078 0.203 -0.181 -0.09 -0.58 0.8 0.11
1 1.86 186 -0.402 -9.548 3.132 1.068 12.116 6.592 726.127 2876.926 -3456.298 0.211 0.263 -0.005 -0.09 -0.58 0.81 0.11
1 1.87 187 -0.579 -9.548 3.218 -0.641 9.796 6.409 726.127 2876.926 -3456.298 0.373 0.264 -0.089 -0.09 -0.58 0.81 0.11
1 1.88 188 -0.603 -9.596 2.935 -3.754 7.019 6.348 786.238 2681.903 -3456.298 0.382 0.312 0.193 -0.09 -0.58 0.81 0.11
1 1.89 189 -0.594 -9.654 2.916 -4.028 5.066 7.111 516.264 2876.926 -3381.347 0.358 0.368 0.206 -0.09 -0.58 0.8 0.11
1 1.90 190 -0.699 -9.807 2.955 -2.655 4.395 7.813 516.264 2876.926 -3381.347 0.449 0.519 0.162 -0.09 -0.58 0.8 0.11
1 1.91 191 -0.891 -9.572 2.926 -1.434 3.387 8.881 606.205 2801.975 -3531.399 0.610 0.283 0.182 -0.09 -0.58 0.8 0.11
1 1.92 192 -0.891 -9.309 2.820 -1.495 3.571 10.010 696.146 2816.965 -3396.337 0.591 0.019 0.286 -0.09 -0.58 0.8 0.1
1 1.93 193 -0.963 -9.079 2.830 -2.930 3.296 11.047 831.208 2681.903 -3381.347 0.643 -0.211 0.273 -0.09 -0.58 0.8 0.1
1 1.94 194 -1.034 -9.055 2.686 -4.669 3.113 12.085 831.208 2681.903 -3381.347 0.694 -0.236 0.412 -0.1 -0.58 0.8 0.1
1 1.95 195 -0.991 -9.089 2.820 -6.897 3.204 12.787 681.156 2726.874 -3531.399 0.627 -0.204 0.270 -0.1 -0.58 0.8 0.1
1 1.96 196 -0.915 -9.165 2.715 -8.728 3.296 13.153 786.238 2876.926 -3456.298 0.527 -0.130 0.365 -0.1 -0.58 0.8 0.1
1 1.97 197 -1.087 -9.232 2.619 -7.629 2.716 13.672 786.238 2876.926 -3456.298 0.675 -0.066 0.448 -0.1 -0.58 0.8 0.1
1 1.98 198 -1.010 -9.103 2.619 -6.317 0.000 13.977 756.257 2726.874 -3486.279 0.551 -0.201 0.425 -0.1 -0.58 0.8 0.1
1 1.99 199 -1.159 -9.132 2.782 -5.219 -0.824 13.763 741.267 2891.916 -3291.406 0.676 -0.174 0.253 -0.1 -0.58 0.8 0.1
1 2.00 200 -1.106 -9.170 2.806 -6.012 -1.740 12.909 786.238 2756.854 -3456.298 0.601 -0.137 0.221 -0.1 -0.58 0.8 0.1
1 2.01 201 -0.977 -9.122 2.725 -8.484 -2.594 11.719 786.238 2756.854 -3456.298 0.450 -0.187 0.293 -0.1 -0.58 0.8 0.1
1 2.02 202 -0.900 -9.175 2.749 -10.986 -2.655 11.353 906.160 2801.975 -3336.376 0.355 -0.137 0.257 -0.1 -0.58 0.8 0.09
1 2.03 203 -0.833 -9.295 2.639 -13.092 -3.723 9.186 831.208 2831.955 -3411.328 0.272 -0.021 0.351 -0.1 -0.58 0.8 0.09
1 2.04 204 -0.632 -9.357 2.528 -12.848 -4.883 8.087 831.208 2831.955 -3411.328 0.057 0.036 0.443 -0.1 -0.58 0.8 0.09
1 2.05 205 -0.546 -9.328 2.605 -12.177 -5.402 6.012 921.150 2891.916 -3471.289 -0.040 0.002 0.347 -0.1 -0.58 0.8 0.09
1 2.06 206 -0.618 -9.462 2.615 -11.627 -5.768 3.998 786.238 2726.874 -3336.376 0.021 0.126 0.304 -0.1 -0.58 0.8 0.09
1 2.07 207 -0.666 -9.381 2.734 -12.268 -5.951 1.617 816.218 2786.834 -3396.337 0.067 0.039 0.167 -0.1 -0.58 0.8 0.09
1 2.08 208 -0.570 -9.477 2.835 -13.550 -4.852 0.214 816.218 2786.834 -3396.337 -0.027 0.129 0.049 -0.1 -0.58 0.8 0.09
1 2.09 209 -0.713 -9.520 2.835 -13.519 -4.791 -1.038 831.208 2831.955 -3306.396 0.119 0.167 0.030 -0.1 -0.59 0.8 0.09
1 2.10 210 -0.733 -9.544 2.916 -10.223 -4.608 -1.831 846.199 2816.965 -3321.386 0.142 0.185 -0.069 -0.1 -0.59 0.8 0.09
1 2.11 211 -0.704 -9.529 2.825 -8.453 -4.669 -2.136 846.199 2816.965 -3321.386 0.119 0.166 0.009 -0.1 -0.59 0.8 0.09
1 2.12 212 -0.857 -9.457 2.950 -8.026 -5.096 -2.411 936.140 2921.896 -3381.347 0.276 0.091 -0.126 -0.1 -0.59 0.8 0.09
1 2.13 213 -0.939 -9.390 2.921 -9.460 -6.561 -2.502 816.218 2741.864 -3321.386 0.368 0.018 -0.117 -0.1 -0.59 0.8 0.09
1 2.14 214 -1.044 -9.395 2.672 -11.963 -8.575 -3.204 846.199 2786.834 -3396.337 0.479 0.018 0.120 -0.1 -0.59 0.8 0.09
1 2.15 215 -1.121 -9.429 2.763 -13.092 -10.071 -2.808 846.199 2786.834 -3396.337 0.561 0.047 0.014 -0.1 -0.59 0.8 0.09
1 2.16 216 -1.010 -9.395 2.840 -13.336 -10.223 -2.319 816.218 2891.916 -3291.406 0.456 0.008 -0.079 -0.1 -0.59 0.8 0.09
1 2.17 217 -1.058 -9.419 2.715 -12.146 -9.705 -1.984 786.238 2951.877 -3306.396 0.509 0.027 0.029 -0.1 -0.59 0.8 0.09
1 2.18 218 -1.283 -9.275 2.610 -10.254 -11.078 -0.153 786.238 2951.877 -3306.396 0.738 -0.121 0.120 -0.1 -0.59 0.79 0.09
1 2.19 219 -1.235 -9.271 2.634 -9.918 -12.207 -0.214 771.248 2891.916 -3321.386 0.691 -0.129 0.083 -0.1 -0.59 0.79 0.09
1 2.20 220 -1.255 -9.280 2.576 -13.123 -12.390 1.129 786.238 2921.896 -3276.416 0.711 -0.128 0.114 -0.1 -0.59 0.79 0.08
1 2.21 221 -1.144 -9.156 2.581 -15.625 -11.475 1.556 786.238 2831.955 -3276.416 0.599 -0.257 0.091 -0.1 -0.6 0.79 0.08
1 2.22 222 -1.034 -9.247 2.504 -16.785 -10.193 1.648 786.238 2831.955 -3276.416 0.488 -0.172 0.147 -0.1 -0.6 0.79 0.08
1 2.23 223 -0.900 -9.252 2.519 -17.304 -9.277 1.495 741.267 2861.936 -3216.305 0.352 -0.173 0.110 -0.1 -0.6 0.79 0.08
1 2.24 224 -0.939 -9.319 2.370 -17.242 -8.881 0.977 741.267 2936.887 -3291.406 0.390 -0.113 0.236 -0.1 -0.6 0.79 0.08
1 2.25 225 -0.838 -9.438 2.423 -17.731 -9.735 0.397 741.267 2936.887 -3291.406 0.289 0.001 0.160 -0.1 -0.6 0.79 0.08
1 2.26 226 -0.891 -9.568 2.284 -17.975 -11.231 -0.427 726.127 2876.926 -3336.376 0.342 0.123 0.274 -0.1 -0.6 0.79 0.08
1 2.27 227 -0.828 -9.496 2.337 -18.005 -12.909 -1.038 726.127 2876.926 -3336.376 0.284 0.045 0.197 -0.1 -0.6 0.79 0.08
1 2.28 228 -0.814 -9.625 2.251 -16.541 -14.160 -2.441 816.218 2861.936 -3246.285 0.279 0.160 0.234 -0.09 -0.6 0.79 0.08
1 2.29 229 -0.804 -9.802 2.399 -16.174 -12.817 -2.075 816.218 2861.936 -3246.285 0.277 0.331 0.063 -0.09 -0.6 0.79 0.08
1 2.30 230 -0.670 -9.979 2.322 -17.578 -10.407 -1.495 771.248 3041.968 -3216.305 0.149 0.502 0.117 -0.09 -0.61 0.79 0.08
1 2.31 231 -0.608 -10.113 2.174 -19.562 -8.728 -0.580 726.127 2951.877 -3336.376 0.093 0.629 0.240 -0.09 -0.61 0.79 0.08
1 2.32 232 -0.599 -10.204 2.164 -16.968 -9.308 -0.641 726.127 2951.877 -3336.376 0.087 0.713 0.222 -0.09 -0.61 0.78 0.08
1 2.33 233 -0.541 -10.181 2.385 -13.611 -10.651 0.488 816.218 3161.890 -3246.285 0.035 0.682 -0.024 -0.09 -0.61 0.78 0.08
1 2.34 234 -0.599 -10.224 2.356 -9.399 -12.177 -0.275 816.218 3161.890 -3246.285 0.097 0.720 -0.017 -0.09 -0.61 0.78 0.08
1 2.35 235 -0.632 -10.013 2.404 -8.392 -12.878 -1.160 771.248 3086.939 -3246.285 0.136 0.506 -0.078 -0.09 -0.61 0.78 0.07
1 2.36 236 -0.852 -9.884 2.346 -7.172 -13.245 -2.594 666.316 3011.538 -3037.321 0.370 0.371 -0.039 -0.09 -0.61 0.78 0.07
1 2.37 237 -0.718 -9.860 2.490 -6.683 -13.825 -3.143 786.238 2996.548 -3157.393 0.243 0.345 -0.191 -0.09 -0.61 0.78 0.07
1 2.38 238 -0.876 -9.563 2.208 -6.531 -14.465 -3.204 591.365 3041.668 -3037.321 0.410 0.046 0.085 -0.09 -0.61 0.78 0.07
1 2.39 239 -0.603 -9.256 2.140 -5.676 -14.710 -2.899 591.365 3041.668 -3037.321 0.144 -0.263 0.144 -0.09 -0.61 0.78 0.07
1 2.40 240 -0.661 -9.285 2.198 -3.815 -13.977 -3.296 621.345 3041.668 -3142.403 0.211 -0.236 0.081 -0.09 -0.61 0.78 0.07
1 2.41 241 -0.915 -9.611 2.241 -3.113 -13.397 -4.578 621.345 3041.668 -3142.403 0.473 0.089 0.033 -0.08 -0.61 0.78 0.07
1 2.42 242 -0.963 -9.893 2.179 -6.836 -13.672 -3.784 591.365 3011.538 -3142.403 0.538 0.368 0.088 -0.08 -0.61 0.78 0.07
1 2.43 243 -0.795 -10.018 2.160 -9.705 -15.076 -2.747 591.365 3011.538 -3142.403 0.378 0.490 0.098 -0.08 -0.61 0.78 0.07
1 2.44 244 -0.594 -10.099 2.107 -9.613 -17.700 -0.977 606.355 3071.649 -3157.393 0.184 0.568 0.137 -0.08 -0.62 0.78 0.07
1 2.45 245 -0.488 -10.051 2.275 -5.432 -18.555 -0.092 576.225 3071.649 -3337.426 0.085 0.517 -0.042 -0.08 -0.62 0.78 0.07
1 2.46 246 -0.369 -9.850 2.097 1.312 -16.968 0.092 576.225 3071.649 -3337.426 -0.028 0.315 0.131 -0.08 -0.62 0.78 0.07
1 2.47 247 -0.441 -9.692 2.097 5.737 -13.367 0.397 621.345 3011.538 -3187.374 0.050 0.158 0.136 -0.08 -0.62 0.78 0.07
1 2.48 248 -0.584 -9.376 1.978 3.662 -12.146 -0.427 621.345 3011.538 -3187.374 0.199 -0.156 0.265 -0.08 -0.62 0.78 0.07
1 2.49 249 -0.766 -9.261 1.877 -0.458 -13.458 -0.214 621.345 3086.639 -3217.354 0.386 -0.270 0.372 -0.08 -0.62 0.78 0.07
1 2.50 250 -0.790 -9.323 1.824 -4.639 -16.296 -2.411 561.234 3206.561 -3187.374 0.418 -0.208 0.423 -0.07 -0.62 0.78 0.06
1 2.51 251 -0.943 -9.625 1.935 -5.249 -16.998 -3.296 606.355 3026.678 -3202.364 0.579 0.091 0.305 -0.07 -0.62 0.78 0.06
1 2.52 252 -1.044 -9.783 1.925 -4.181 -17.578 -4.272 606.355 3146.600 -3157.393 0.688 0.247 0.308 -0.07 -0.62 0.78 0.06
1 2.53 253 -1.192 -10.003 2.002 -3.693 -19.531 -4.517 606.355 3146.600 -3157.393 0.845 0.466 0.226 -0.07 -0.62 0.78 0.06
1 2.54 254 -1.302 -10.190 2.088 -4.150 -25.238 -2.380 666.316 3011.538 -3112.422 0.963 0.651 0.134 -0.07 -0.62 0.78 0.06
1 2.55 255 -0.943 -10.166 2.107 -4.303 -29.236 -1.343 666.316 3011.538 -3112.422 0.611 0.626 0.110 -0.07 -0.62 0.78 0.06
1 2.56 256 -0.809 -10.406 1.891 -2.686 -32.196 0.885 456.303 3086.639 -3217.354 0.483 0.864 0.320 -0.07 -0.62 0.78 0.06
1 2.57 257 -0.431 -10.075 1.824 0.244 -31.311 2.655 576.225 3071.649 -3202.364 0.117 0.532 0.382 -0.06 -0.62 0.78 0.06
1 2.58 258 -0.278 -10.022 1.781 2.350 -27.802 3.571 531.254 2966.567 -3142.403 -0.030 0.480 0.427 -0.06 -0.62 0.78 0.05
1 2.59 259 -0.283 -9.793 1.757 3.326 -25.696 3.326 426.322 3161.590 -3112.422 -0.020 0.250 0.454 -0.06 -0.62 0.78 0.05
1 2.60 260 -0.268 -9.630 1.815 4.669 -24.109 3.601 426.322 3161.590 -3112.422 -0.030 0.088 0.401 -0.06 -0.62 0.78 0.05
1 2.61 261 -0.192 -9.539 1.786 3.662 -23.926 3.571 561.234 3041.668 -3367.406 -0.102 -0.001 0.436 -0.06 -0.62 0.78 0.05
1 2.62 262 -0.196 -9.529 1.733 2.136 -21.607 2.350 561.234 3041.668 -3367.406 -0.092 -0.010 0.492 -0.06 -0.62 0.78 0.05
1 2.63 263 -0.115 -9.644 1.748 0.336 -20.416 1.648 441.312 3101.629 -3157.393 -0.169 0.105 0.481 -0.06 -0.62 0.78 0.05
1 2.64 264 -0.239 -9.793 1.801 0.031 -20.447 -0.122 426.322 3011.538 -3142.403 -0.030 0.253 0.428 -0.05 -0.62 0.78 0.05
1 2.65 265 -0.321 -9.932 1.805 0.763 -20.355 -1.953 516.264 3071.649 -3337.426 0.060 0.392 0.422 -0.05 -0.62 0.78 0.05
1 2.66 266 -0.460 -9.994 1.863 3.357 -19.501 -3.754 471.293 2996.548 -3307.445 0.210 0.454 0.366 -0.05 -0.62 0.78 0.04
1 2.67 267 -0.479 -10.214 1.700 6.073 -19.226 -5.219 471.293 2996.548 -3307.445 0.242 0.675 0.533 -0.05 -0.62 0.78 0.04
1 2.68 268 -0.474 -10.329 1.781 7.813 -19.440 -5.798 396.342 3146.600 -3157.393 0.251 0.791 0.460 -0.05 -0.62 0.78 0.04
1 2.69 269 -0.479 -10.027 1.887 10.193 -20.630 -6.348 396.342 3146.600 -3157.393 0.270 0.492 0.364 -0.05 -0.62 0.78 0.04
1 2.70 270 -0.225 -10.171 1.868 11.749 -21.423 -6.134 381.352 3206.561 -3142.403 0.032 0.638 0.395 -0.05 -0.62 0.78 0.04
1 2.71 271 -0.412 -9.888 1.949 13.184 -21.088 -5.432 261.280 2996.548 -3277.315 0.234 0.359 0.329 -0.04 -0.62 0.78 0.04
1 2.72 272 -0.172 -10.113 2.026 11.383 -20.569 -4.883 276.270 3042.418 -3184.375 0.025 0.592 0.287 -0.04 -0.62 0.79 0.04
1 2.73 273 -0.215 -10.343 2.102 12.054 -20.630 -3.815 231.299 3087.539 -3244.336 0.082 0.825 0.227 -0.04 -0.62 0.79 0.04
1 2.74 274 0.120 -10.410 2.275 13.489 -19.684 -3.204 231.299 3087.539 -3244.336 -0.240 0.896 0.072 -0.04 -0.62 0.79 0.04
1 2.75 275 0.369 -10.520 2.509 16.327 -16.388 -0.458 291.260 2997.447 -3304.447 -0.476 1.011 -0.142 -0.04 -0.61 0.79 0.04
1 2.76 276 0.737 -10.626 2.907 17.426 -9.583 6.470 291.260 2997.447 -3304.447 -0.838 1.123 -0.514 -0.04 -0.61 0.79 0.04
1 2.77 277 0.886 -10.621 2.911 18.677 -3.357 10.345 186.329 2877.525 -3154.395 -0.989 1.125 -0.492 -0.04 -0.61 0.79 0.04
1 2.78 278 0.862 -10.343 2.931 21.301 3.082 13.153 261.280 2922.496 -3379.398 -0.976 0.855 -0.482 -0.04 -0.61 0.79 0.04
1 2.79 279 0.661 -10.066 2.792 24.414 8.514 16.907 291.260 2997.447 -3229.346 -0.810 0.595 -0.276 -0.04 -0.61 0.79 0.04
1 2.80 280 0.345 -9.989 2.706 23.987 9.796 17.517 186.329 2952.477 -3484.330 -0.515 0.529 -0.152 -0.04 -0.61 0.79 0.04
1 2.81 281 0.196 -9.850 2.734 22.522 9.613 17.792 186.329 2952.477 -3484.330 -0.391 0.400 -0.146 -0.04 -0.61 0.79 0.03
1 2.82 282 -0.005 -9.711 2.519 20.386 7.996 16.663 141.358 2997.447 -3304.447 -0.215 0.271 0.103 -0.04 -0.6 0.8 0.03
1 2.83 283 -0.225 -9.821 2.370 18.890 6.531 14.526 141.358 2997.447 -3304.447 -0.018 0.390 0.280 -0.04 -0.6 0.8 0.03
1 2.84 284 -0.484 -9.687 2.366 18.341 6.226 12.054 381.352 2937.486 -3424.369 0.219 0.264 0.311 -0.04 -0.6 0.8 0.03
1 2.85 285 -0.771 -9.433 2.313 22.766 7.446 8.514 426.322 2967.467 -3319.438 0.486 0.018 0.389 -0.04 -0.6 0.8 0.03
1 2.86 286 -0.900 -9.429 2.174 28.290 3.632 7.477 336.231 2877.525 -3484.330 0.583 0.033 0.594 -0.04 -0.6 0.8 0.03
1 2.87 287 -1.106 -9.548 2.308 25.726 0.061 7.904 426.322 2742.463 -3394.389 0.773 0.165 0.498 -0.05 -0.6 0.8 0.03
1 2.88 288 -1.087 -9.592 2.346 20.752 -0.214 8.087 426.322 2742.463 -3394.389 0.738 0.218 0.491 -0.05 -0.59 0.8 0.03
1 2.89 289 -1.255 -9.529 2.366 20.172 -0.916 7.965 201.319 2742.463 -3364.408 0.889 0.164 0.499 -0.05 -0.59 0.8 0.03
1 2.90 290 -1.312 -9.343 2.447 23.682 -4.059 8.698 201.319 2742.463 -3364.408 0.929 -0.013 0.445 -0.05 -0.59 0.8 0.03
1 2.91 291 -1.226 -9.184 2.758 25.055 -8.453 9.399 276.270 2892.516 -3424.369 0.827 -0.160 0.167 -0.05 -0.59 0.81 0.03
1 2.92 292 -1.245 -9.366 2.849 22.888 -10.773 10.712 441.312 2877.525 -3454.350 0.830 0.034 0.112 -0.05 -0.59 0.81 0.03
1 2.93 293 -0.690 -9.438 3.041 18.311 -13.947 13.550 336.231 2682.502 -3454.350 0.243 0.128 -0.014 -0.05 -0.59 0.81 0.03
1 2.94 294 -0.642 -9.333 3.151 17.334 -13.977 13.458 351.371 2667.512 -3424.369 0.180 0.033 -0.096 -0.05 -0.58 0.81 0.02
1 2.95 295 -0.235 -9.505 3.285 17.212 -12.482 14.374 351.371 2667.512 -3424.369 -0.239 0.215 -0.202 -0.05 -0.58 0.81 0.02
1 2.96 296 0.077 -9.410 3.232 17.273 -11.383 13.794 426.322 2667.512 -3394.389 -0.562 0.129 -0.121 -0.05 -0.58 0.81 0.02
1 2.97 297 0.134 -9.362 3.443 15.595 -11.353 12.573 426.322 2667.512 -3394.389 -0.628 0.091 -0.304 -0.05 -0.58 0.81 0.02
1 2.98 298 -0.139 -9.386 3.663 12.726 -11.597 8.759 396.342 2607.551 -3529.451 -0.361 0.124 -0.498 -0.05 -0.58 0.81 0.02
1 2.99 299 -0.230 -9.443 3.764 10.559 -12.604 7.324 366.361 2727.473 -3484.330 -0.274 0.190 -0.575 -0.04 -0.58 0.81 0.02
1 3.00 300 -0.632 -9.807 4.013 9.949 -14.801 2.594 336.231 2607.551 -3529.451 0.129 0.568 -0.783 -0.04 -0.58 0.82 0.02
1 3.01 301 -0.589 -9.841 4.085 10.315 -15.991 0.549 336.231 2607.551 -3529.451 0.086 0.602 -0.854 -0.04 -0.58 0.82 0.02
1 3.02 302 -0.646 -9.692 4.334 15.778 -20.203 -4.669 366.361 2576.671 -3411.777 0.161 0.469 -1.057 -0.04 -0.58 0.82 0.02
1 3.03 303 -0.757 -9.486 4.372 17.822 -24.078 -7.233 381.352 2591.662 -3576.820 0.289 0.274 -1.063 -0.04 -0.57 0.82 0.02
1 3.04 304 -1.010 -9.218 4.449 17.029 -27.283 -8.148 381.352 2591.662 -3576.820 0.565 0.017 -1.104 -0.04 -0.57 0.82 0.02
1 3.05 305 -0.972 -9.084 4.315 15.442 -32.074 -8.881 366.361 2681.603 -3486.729 0.550 -0.106 -0.937 -0.04 -0.57 0.82 0.01
1 3.06 306 -0.599 -9.036 4.161 14.038 -37.995 -8.118 291.410 2576.671 -3531.849 0.203 -0.143 -0.753 -0.03 -0.57 0.82 0.01
1 3.07 307 -0.120 -8.998 4.209 13.489 -38.330 -6.744 291.410 2576.671 -3531.849 -0.247 -0.172 -0.771 -0.03 -0.57 0.82 0.01
1 3.08 308 0.699 -8.706 4.056 13.550 -35.523 -3.723 201.469 2471.590 -3501.719 -1.005 -0.446 -0.563 -0.03 -0.57 0.82 0.01
1 3.09 309 1.149 -8.572 3.931 13.977 -33.264 -1.434 201.469 2471.590 -3501.719 -1.424 -0.570 -0.412 -0.02 -0.57 0.82 0.01
1 3.10 310 1.580 -8.404 3.816 13.245 -31.189 0.610 276.420 2516.561 -3621.791 -1.826 -0.729 -0.271 -0.02 -0.56 0.83 0.01
1 3.11 311 1.863 -8.385 3.850 12.421 -29.785 1.556 276.420 2516.561 -3621.791 -2.079 -0.739 -0.280 -0.02 -0.56 0.83 0.01
1 3.12 312 2.160 -8.423 3.831 12.054 -29.144 1.587 171.338 2396.639 -3576.820 -2.346 -0.692 -0.237 -0.02 -0.56 0.83 0.01
1 3.13 313 2.634 -8.801 3.970 10.681 -25.757 1.007 171.338 2546.541 -3546.839 -2.789 -0.305 -0.352 -0.01 -0.56 0.83 0.01
1 3.14 314 2.844 -8.921 4.209 10.407 -19.745 -1.801 171.338 2546.541 -3546.839 -2.967 -0.178 -0.571 -0.01 -0.56 0.83 0.01
1 3.15 315 2.509 -9.376 4.243 14.862 -8.911 -8.179 111.377 2531.551 -3561.830 -2.560 0.294 -0.562 -0.01 -0.56 0.83 0.01
1 3.16 316 2.131 -9.381 4.109 17.792 -4.669 -12.329 111.377 2531.551 -3561.830 -2.144 0.309 -0.402 -0.01 -0.56 0.83 0.01
1 3.17 317 1.537 -9.132 3.864 18.951 -4.974 -16.876 51.417 2516.561 -3681.751 -1.511 0.072 -0.129 -0 -0.56 0.83 0.01
1 3.18 318 1.106 -9.017 3.735 19.623 -7.660 -18.860 51.417 2516.561 -3681.751 -1.041 -0.031 0.029 -0 -0.55 0.83 0.01
1 3.19 319 0.843 -8.715 3.773 18.646 -13.092 -19.653 51.417 2441.609 -3681.751 -0.736 -0.320 0.019 -0 -0.55 0.83 0.01
1 3.20 320 0.939 -8.658 3.831 11.475 -19.806 -19.440 171.338 2396.639 -3756.853 -0.790 -0.366 -0.012 0 -0.55 0.83 0.01
1 3.21 321 1.192 -8.773 3.931 6.866 -19.318 -18.341 171.338 2396.639 -3756.853 -1.000 -0.242 -0.092 0 -0.55 0.83 0.01
1 3.22 322 1.063 -8.892 3.778 5.127 -16.846 -18.097 96.387 2321.538 -3621.791 -0.826 -0.116 0.073 0.01 -0.55 0.83 0.01
1 3.23 323 1.168 -8.730 3.673 8.057 -14.587 -15.686 -53.365 2323.037 -3798.375 -0.849 -0.268 0.198 0.01 -0.55 0.84 0.02
1 3.24 324 1.025 -8.825 3.567 9.979 -15.228 -13.947 -8.245 2412.978 -3633.333 -0.669 -0.166 0.315 0.01 -0.55 0.84 0.02
1 3.25 325 1.001 -8.907 3.587 8.911 -16.602 -11.139 -8.245 2412.978 -3633.333 -0.612 -0.077 0.309 0.01 -0.55 0.84 0.02
1 3.26 326 1.087 -8.931 3.601 7.050 -17.090 -6.226 21.586 2397.988 -3723.274 -0.669 -0.048 0.304 0.01 -0.55 0.84 0.02
1 3.27 327 1.235 -8.888 3.596 5.951 -13.916 -3.265 -53.365 2323.037 -3678.304 -0.794 -0.086 0.317 0.02 -0.55 0.84 0.02
1 3.28 328 1.188 -8.830 3.649 8.759 -12.390 3.021 -53.365 2323.037 -3678.304 -0.729 -0.140 0.272 0.02 -0.55 0.84 0.02
1 3.29 329 1.494 -8.682 3.711 9.277 -14.374 7.782 -23.235 2397.988 -3723.274 -1.024 -0.282 0.221 0.02 -0.55 0.84 0.02
1 3.30 330 1.863 -8.619 3.903 7.385 -11.444 12.695 -173.287 2397.988 -3723.274 -1.384 -0.334 0.053 0.02 -0.55 0.84 0.01
1 3.31 331 2.160 -8.682 3.941 5.096 -5.981 14.343 -143.307 2382.998 -3663.313 -1.682 -0.267 0.025 0.02 -0.55 0.84 0.01
1 3.32 332 2.639 -8.720 3.850 3.662 1.312 16.113 -143.307 2382.998 -3663.313 -2.165 -0.226 0.124 0.02 -0.54 0.84 0.01
1 3.33 333 2.945 -8.433 3.884 2.899 9.644 16.663 -143.307 2263.076 -3633.333 -2.480 -0.510 0.097 0.02 -0.54 0.84 0.01
1 3.34 334 3.012 -8.514 3.706 3.326 16.510 16.571 -98.336 2442.958 -3753.255 -2.557 -0.426 0.281 0.02 -0.54 0.84 0.01
1 3.35 335 2.907 -7.901 3.223 4.486 26.398 16.754 -98.336 2442.958 -3753.255 -2.466 -1.037 0.773 0.02 -0.54 0.84 0.01
1 3.36 336 2.816 -7.935 3.046 -0.824 32.776 15.717 -53.365 2442.958 -3723.274 -2.394 -1.001 0.957 0.02 -0.54 0.84 0.01
1 3.37 337 2.662 -8.327 3.026 -11.017 40.405 16.663 -23.235 2323.037 -3753.255 -2.287 -0.613 0.970 0.01 -0.54 0.84 0.02
1 3.38 338 2.581 -8.361 3.156 -13.123 40.985 17.029 -8.245 2458.099 -3708.284 -2.235 -0.588 0.823 0.01 -0.54 0.84 0.02
1 3.39 339 2.524 -8.754 3.472 -12.207 38.208 17.242 -8.245 2458.099 -3708.284 -2.207 -0.205 0.488 0.01 -0.55 0.84 0.02
1 3.40 340 2.629 -8.648 3.510 -7.324 37.232 17.517 51.566 2202.965 -3678.304 -2.342 -0.318 0.435 0 -0.55 0.84 0.02
1 3.41 341 2.490 -8.466 3.558 -2.502 40.253 19.013 -8.245 2308.046 -3633.333 -2.232 -0.504 0.380 0 -0.55 0.84 0.02
1 3.42 342 2.289 -8.375 3.994 -0.244 49.378 24.048 -8.245 2308.046 -3633.333 -2.065 -0.597 -0.057 -0 -0.55 0.84 0.02
1 3.43 343 1.705 -8.471 4.741 -4.334 56.061 25.360 261.580 2308.046 -3663.313 -1.524 -0.501 -0.802 -0 -0.55 0.84 0.02
1 3.44 344 0.354 -9.491 5.579 -11.139 51.483 17.761 261.580 2382.998 -3708.284 -0.279 0.518 -1.638 -0.01 -0.55 0.84 0.03
1 3.45 345 -0.311 -10.051 5.660 -13.702 44.525 11.475 201.469 2442.958 -3618.343 0.341 1.073 -1.731 -0.02 -0.55 0.84 0.03
1 3.46 346 -1.815 -11.866 5.090 -21.332 34.149 -15.503 201.469 2442.958 -3618.343 1.825 2.878 -1.186 -0.02 -0.55 0.84 0.03
1 3.47 347 -2.294 -11.363 4.109 -3.326 43.274 -22.980 216.609 2187.975 -3633.333 2.309 2.364 -0.228 -0.02 -0.55 0.83 0.03
1 3.48 348 -2.447 -9.711 3.534 29.785 48.065 -15.198 276.570 2397.988 -3648.323 2.466 0.716 0.356 -0.02 -0.55 0.83 0.04
1 3.49 349 -1.733 -8.313 3.477 31.433 22.949 0.824 276.570 2397.988 -3648.323 1.733 -0.661 0.461 -0.03 -0.55 0.84 0.04
1 3.50 350 0.182 -8.404 4.468 -9.003 11.383 4.028 276.570 2442.958 -3798.375 -0.212 -0.548 -0.481 -0.03 -0.54 0.84 0.04
1 3.51 351 0.781 -9.108 4.836 -42.145 18.860 2.197 261.580 2263.076 -3633.333 -0.829 0.158 -0.843 -0.03 -0.54 0.84 0.04
1 3.52 352 0.148 -9.927 4.113 -32.013 38.696 -3.754 291.560 2382.998 -3528.251 -0.216 0.935 -0.218 -0.03 -0.55 0.83 0.04
1 3.53 353 -0.426 -9.697 3.769 -2.472 38.757 -5.249 291.560 2382.998 -3528.251 0.345 0.691 0.094 -0.03 -0.55 0.83 0.04
1 3.54 354 -0.613 -9.132 3.788 17.578 29.846 -7.416 351.671 2322.437 -3619.842 0.517 0.127 0.079 -0.04 -0.55 0.83 0.05
1 3.55 355 -0.460 -8.591 4.094 18.372 22.186 -9.949 306.700 2397.388 -3544.891 0.355 -0.402 -0.201 -0.04 -0.55 0.83 0.05
1 3.56 356 -0.144 -8.246 4.315 -3.082 21.729 -11.047 306.700 2397.388 -3544.891 0.039 -0.736 -0.397 -0.04 -0.55 0.84 0.05
1 3.57 357 -0.057 -8.528 4.295 -16.083 26.123 -9.399 366.661 2457.349 -3664.812 -0.045 -0.451 -0.371 -0.04 -0.55 0.84 0.05
1 3.58 358 -0.182 -8.797 4.104 -18.463 29.907 -10.071 381.651 2442.359 -3619.842 0.080 -0.188 -0.192 -0.04 -0.55 0.83 0.05
1 3.59 359 -0.340 -9.175 3.912 -5.341 29.633 -11.780 426.622 2397.388 -3619.842 0.231 0.174 -0.038 -0.04 -0.55 0.83 0.06
1 3.60 360 -0.603 -9.074 3.951 6.104 27.649 -12.787 426.622 2397.388 -3619.842 0.493 0.073 -0.078 -0.05 -0.55 0.83 0.06
1 3.61 361 -0.953 -8.892 4.051 9.888 24.811 -12.512 546.694 2382.398 -3559.881 0.841 -0.104 -0.167 -0.05 -0.55 0.83 0.06
1 3.62 362 -1.350 -8.619 4.056 4.211 23.743 -11.139 591.665 2292.457 -3649.822 1.236 -0.371 -0.157 -0.05 -0.55 0.83 0.06
1 3.63 363 -1.551 -8.476 3.975 -4.303 21.271 -9.216 591.665 2292.457 -3649.822 1.431 -0.512 -0.070 -0.05 -0.55 0.83 0.06
1 3.64 364 -1.810 -8.595 3.673 -12.878 14.069 -7.538 591.665 2517.460 -3649.822 1.680 -0.395 0.226 -0.05 -0.55 0.83 0.07
1 3.65 365 -1.834 -8.883 3.539 -13.062 7.996 -7.813 516.713 2577.421 -3589.861 1.694 -0.113 0.346 -0.05 -0.55 0.83 0.07
1 3.66 366 -1.566 -8.816 3.635 -11.261 4.120 -6.317 516.713 2577.421 -3589.861 1.420 -0.188 0.233 -0.05 -0.55 0.83 0.07
1 3.67 367 -1.331 -8.624 3.596 -8.484 0.000 -5.890 561.684 2367.408 -3574.871 1.178 -0.391 0.242 -0.05 -0.55 0.83 0.07
1 3.68 368 -1.207 -8.591 3.496 -9.644 -1.373 -6.378 456.603 2247.336 -3544.891 1.053 -0.430 0.332 -0.05 -0.55 0.83 0.07
1 3.69 369 -0.991 -8.605 3.639 -12.512 -2.167 -5.585 516.713 2502.320 -3634.832 0.840 -0.421 0.175 -0.06 -0.55 0.83 0.07
1 3.70 370 -0.939 -8.830 3.400 -15.747 -2.899 -4.578 516.713 2502.320 -3634.832 0.790 -0.203 0.397 -0.06 -0.55 0.83 0.07
1 3.71 371 -0.790 -9.213 3.591 -16.541 -0.458 -2.625 531.704 2517.460 -3574.871 0.644 0.170 0.183 -0.06 -0.55 0.83 0.07
1 3.72 372 -0.747 -9.529 3.864 -15.076 2.167 -1.953 471.593 2577.421 -3529.900 0.601 0.477 -0.113 -0.06 -0.55 0.83 0.07
1 3.73 373 -0.675 -9.639 4.156 -13.763 4.395 -1.129 471.593 2577.421 -3529.900 0.526 0.578 -0.426 -0.06 -0.55 0.83 0.07
1 3.74 374 -0.493 -9.678 4.247 -11.993 6.622 2.289 426.622 2367.408 -3499.920 0.334 0.603 -0.550 -0.06 -0.56 0.83 0.07
1 3.75 375 -0.560 -9.601 4.142 -11.139 9.064 3.235 546.694 2457.349 -3454.949 0.391 0.522 -0.458 -0.06 -0.56 0.83 0.07
1 3.76 376 -0.460 -9.433 4.133 -11.292 11.231 3.326 471.593 2382.398 -3529.900 0.278 0.349 -0.460 -0.06 -0.56 0.83 0.07
1 3.77 377 -0.546 -9.319 3.955 -10.956 12.451 3.204 471.593 2382.398 -3529.900 0.353 0.230 -0.296 -0.06 -0.56 0.83 0.07
1 3.78 378 -0.781 -9.180 3.802 -11.383 13.031 3.571 396.642 2502.320 -3529.900 0.574 0.086 -0.155 -0.06 -0.56 0.83 0.07
1 3.79 379 -0.943 -9.103 3.572 -12.177 14.130 6.134 516.713 2532.450 -3454.949 0.721 0.004 0.061 -0.06 -0.56 0.82 0.07
1 3.80 380 -1.168 -9.060 3.429 -13.641 14.252 7.416 516.713 2532.450 -3454.949 0.926 -0.044 0.190 -0.06 -0.56 0.82 0.07
1 3.81 381 -1.183 -9.141 3.386 -14.710 14.313 10.162 531.704 2547.440 -3424.819 0.892 0.024 0.195 -0.07 -0.56 0.82 0.07
1 3.82 382 -1.250 -9.084 3.577 -16.052 15.656 10.284 531.704 2472.339 -3424.819 0.931 -0.041 -0.018 -0.07 -0.56 0.82 0.07
1 3.83 383 -1.293 -9.189 3.362 -16.480 15.533 10.803 471.593 2727.323 -3454.949 0.945 0.057 0.176 -0.07 -0.56 0.82 0.07
1 3.84 384 -1.317 -9.247 3.318 -15.961 14.557 10.376 471.593 2728.073 -3453.000 0.940 0.107 0.196 -0.07 -0.56 0.82 0.07
1 3.85 385 -1.312 -9.386 3.433 -16.846 11.719 9.064 666.616 2518.060 -3392.890 0.907 0.238 0.058 -0.07 -0.56 0.82 0.07
1 3.86 386 -1.441 -9.568 3.309 -15.411 6.134 6.409 576.524 2578.021 -3453.000 1.012 0.412 0.159 -0.07 -0.56 0.82 0.07
1 3.87 387 -1.384 -9.496 3.362 -14.893 3.784 4.944 576.524 2578.021 -3453.000 0.935 0.333 0.084 -0.08 -0.56 0.82 0.07
1 3.88 388 -1.642 -9.410 3.318 -13.123 1.007 2.716 606.505 2653.122 -3527.952 1.165 0.233 0.089 -0.08 -0.57 0.82 0.07
1 3.89 389 -1.580 -9.362 3.295 -12.787 0.397 2.777 651.476 2608.151 -3527.952 1.091 0.179 0.095 -0.08 -0.57 0.82 0.07
1 3.90 390 -1.786 -9.228 3.232 -13.367 -1.984 1.648 651.476 2728.073 -3407.880 1.287 0.040 0.140 -0.08 -0.57 0.82 0.07
1 3.91 391 -1.863 -9.295 3.113 -14.832 -4.272 2.502 651.476 2728.073 -3407.880 1.353 0.101 0.241 -0.08 -0.57 0.82 0.07
1 3.92 392 -1.987 -9.237 3.098 -15.320 -6.622 2.960 531.554 2623.141 -3362.909 1.467 0.036 0.235 -0.08 -0.57 0.82 0.07
1 3.93 393 -1.939 -9.295 3.074 -16.327 -10.223 4.364 726.577 2578.021 -3377.899 1.408 0.087 0.238 -0.08 -0.57 0.82 0.07
1 3.94 394 -1.844 -9.161 2.935 -15.656 -12.054 4.974 726.577 2578.021 -3377.899 1.301 -0.055 0.354 -0.08 -0.57 0.81 0.06
1 3.95 395 -1.633 -9.180 2.868 -14.191 -14.374 5.219 576.524 2533.050 -3302.948 1.080 -0.043 0.400 -0.08 -0.57 0.81 0.06
1 3.96 396 -1.298 -9.151 2.825 -11.505 -16.876 5.280 576.524 2578.021 -3482.981 0.729 -0.084 0.406 -0.08 -0.57 0.81 0.06
1 3.97 397 -1.188 -9.098 2.849 -11.688 -17.059 4.242 606.505 2728.073 -3557.932 0.615 -0.141 0.366 -0.08 -0.57 0.81 0.06
1 3.98 398 -1.049 -9.275 2.969 -13.611 -15.930 3.143 606.505 2728.073 -3557.932 0.474 0.030 0.230 -0.08 -0.58 0.81 0.06
1 3.99 399 -0.982 -9.371 2.926 -14.801 -15.381 2.502 651.476 2758.053 -3332.929 0.407 0.119 0.253 -0.08 -0.58 0.81 0.06
1 4.00 400 -0.737 -9.314 2.902 -14.374 -13.977 0.793 501.573 2623.141 -3362.909 0.164 0.055 0.257 -0.08 -0.58 0.81 0.06
1 4.01 401 -0.666 -9.371 2.935 -12.482 -12.878 -0.916 501.573 2623.141 -3362.909 0.096 0.105 0.203 -0.08 -0.58 0.81 0.06
1 4.02 402 -0.713 -9.448 2.988 -11.017 -10.803 -2.686 516.563 2683.102 -3377.899 0.150 0.175 0.133 -0.07 -0.58 0.81 0.05
1 4.03 403 -0.886 -9.362 2.816 -8.881 -8.728 -3.754 576.524 2683.102 -3332.929 0.338 0.079 0.277 -0.07 -0.58 0.81 0.05
1 4.04 404 -1.034 -9.457 2.998 -8.423 -9.583 -3.906 516.563 2803.024 -3302.948 0.495 0.170 0.084 -0.07 -0.58 0.81 0.05
1 4.05 405 -1.216 -9.472 3.022 -9.857 -10.193 -3.754 516.563 2803.024 -3302.948 0.684 0.180 0.049 -0.07 -0.58 0.81 0.05
1 4.06 406 -1.437 -9.496 3.031 -10.284 -11.719 -3.754 576.524 2728.073 -3332.929 0.911 0.200 0.027 -0.07 -0.58 0.81 0.05
1 4.07 407 -1.417 -9.457 3.026 -11.108 -13.062 -3.296 501.573 2743.063 -3392.890 0.897 0.157 0.018 -0.07 -0.58 0.81 0.05
1 4.08 408 -1.532 -9.472 2.830 -10.773 -15.442 -2.411 501.573 2743.063 -3392.890 1.016 0.166 0.201 -0.07 -0.58 0.81 0.05
1 4.09 409 -1.580 -9.414 2.864 -10.193 -16.693 -2.533 546.544 2878.125 -3332.929 1.070 0.104 0.153 -0.07 -0.58 0.81 0.05
1 4.10 410 -1.432 -9.496 2.868 -9.827 -18.372 -1.587 546.544 2878.125 -3332.929 0.926 0.181 0.135 -0.07 -0.58 0.81 0.05
1 4.11 411 -1.259 -9.477 2.667 -11.261 -20.477 -1.343 546.544 2803.024 -3302.948 0.762 0.153 0.309 -0.07 -0.59 0.81 0.05
1 4.12 412 -1.135 -9.548 2.739 -11.292 -21.301 -0.885 546.544 2803.024 -3302.948 0.643 0.219 0.222 -0.07 -0.59 0.81 0.05
1 4.13 413 -1.087 -9.678 2.691 -10.284 -22.308 -1.984 456.603 2788.034 -3287.958 0.602 0.343 0.254 -0.06 -0.59 0.81 0.05
1 4.14 414 -1.001 -9.682 2.739 -9.125 -21.790 -1.129 456.603 2818.014 -3317.938 0.525 0.344 0.193 -0.06 -0.59 0.8 0.04
1 4.15 415 -0.833 -9.797 2.916 -7.477 -22.369 -1.740 456.603 2818.014 -3317.938 0.366 0.455 0.005 -0.06 -0.59 0.8 0.04
1 4.16 416 -0.642 -9.740 2.888 -6.073 -22.034 -1.495 471.593 2683.102 -3302.948 0.184 0.394 0.024 -0.06 -0.59 0.8 0.04
1 4.17 417 -0.709 -9.754 3.041 -5.341 -20.722 -1.801 471.593 2683.102 -3302.948 0.261 0.405 -0.137 -0.06 -0.59 0.8 0.04
1 4.18 418 -0.776 -9.668 2.840 -4.456 -18.707 -2.533 546.544 2683.102 -3453.000 0.349 0.315 0.053 -0.06 -0.59 0.8 0.04
1 4.19 419 -0.963 -9.544 2.792 -3.937 -19.013 -3.174 546.544 2683.102 -3453.000 0.546 0.188 0.097 -0.06 -0.59 0.8 0.04
1 4.20 420 -0.910 -9.400 2.849 -3.235 -20.050 -3.540 426.472 2893.115 -3242.987 0.504 0.043 0.036 -0.05 -0.59 0.8 0.04
1 4.21 421 -1.149 -9.376 2.672 -1.831 -22.614 -2.411 276.570 2788.034 -3287.958 0.754 0.018 0.211 -0.05 -0.59 0.8 0.04
1 4.22 422 -1.130 -9.433 2.792 -1.892 -23.865 -2.045 276.570 2788.034 -3287.958 0.743 0.075 0.091 -0.05 -0.59 0.8 0.04
1 4.23 423 -1.068 -9.635 2.773 -3.662 -26.215 -1.587 381.501 2818.014 -3422.870 0.690 0.276 0.110 -0.05 -0.59 0.8 0.04
1 4.24 424 -0.910 -9.874 2.725 -4.486 -26.856 -0.275 381.501 2818.014 -3422.870 0.541 0.514 0.156 -0.05 -0.59 0.8 0.03
1 4.25 425 -0.809 -9.759 2.538 -3.784 -26.123 -0.183 441.612 2758.053 -3272.968 0.457 0.395 0.331 -0.05 -0.59 0.8 0.03
1 4.26 426 -0.594 -9.721 2.557 -0.946 -25.024 -0.854 441.612 2758.053 -3272.968 0.251 0.355 0.308 -0.04 -0.59 0.8 0.03
1 4.27 427 -0.565 -9.414 2.548 3.326 -24.201 -0.336 261.580 2953.076 -3377.899 0.232 0.049 0.318 -0.04 -0.59 0.8 0.03
1 4.28 428 -0.551 -9.280 2.619 5.585 -22.217 -1.770 306.550 2863.135 -3287.958 0.228 -0.084 0.252 -0.04 -0.59 0.8 0.03
1 4.29 429 -0.469 -9.199 2.466 5.646 -21.759 -3.784 306.550 2863.135 -3287.958 0.159 -0.163 0.415 -0.04 -0.59 0.8 0.03
1 4.30 430 -0.637 -9.486 2.466 1.587 -23.712 -4.974 351.521 2788.034 -3317.938 0.341 0.126 0.422 -0.04 -0.59 0.8 0.03
1 4.31 431 -0.790 -9.721 2.466 -0.519 -25.238 -5.188 351.521 2788.034 -3317.938 0.510 0.361 0.426 -0.04 -0.59 0.8 0.03
1 4.32 432 -0.733 -10.018 2.466 -0.153 -27.466 -4.791 231.599 2818.014 -3287.958 0.486 0.656 0.422 -0.03 -0.59 0.8 0.02
1 4.33 433 -0.761 -9.989 2.399 0.793 -27.405 -4.547 231.599 2818.014 -3287.958 0.531 0.627 0.488 -0.03 -0.59 0.8 0.02
1 4.34 434 -0.498 -9.836 2.485 7.324 -26.581 -2.655 261.580 2878.125 -3272.968 0.282 0.474 0.406 -0.03 -0.59 0.8 0.02
1 4.35 435 -0.201 -9.697 2.413 10.223 -23.560 -1.343 261.580 2878.125 -3302.948 -0.001 0.338 0.488 -0.03 -0.59 0.8 0.02
1 4.36 436 -0.206 -9.625 2.457 8.820 -19.898 -0.336 261.580 2878.125 -3302.948 0.015 0.270 0.458 -0.03 -0.59 0.81 0.02
1 4.37 437 0.034 -9.912 2.404 4.120 -16.480 1.678 21.736 2819.063 -3464.843 -0.215 0.561 0.521 -0.03 -0.59 0.81 0.02
1 4.38 438 -0.067 -10.195 2.418 1.953 -16.052 2.747 21.736 2819.063 -3464.843 -0.108 0.845 0.512 -0.02 -0.59 0.81 0.02
1 4.39 439 0.134 -10.386 2.442 3.357 -16.052 3.357 171.638 2864.034 -3389.892 -0.303 1.036 0.489 -0.02 -0.59 0.81 0.02
1 4.40 440 0.259 -10.597 2.648 9.613 -14.313 5.127 186.628 2804.073 -3374.901 -0.419 1.250 0.292 -0.02 -0.59 0.81 0.02
1 4.41 441 0.311 -10.669 2.763 12.512 -11.475 6.653 96.687 2743.962 -3284.960 -0.473 1.327 0.195 -0.02 -0.59 0.81 0.02
1 4.42 442 0.378 -10.463 2.658 13.062 -5.737 8.392 141.658 2834.054 -3374.901 -0.545 1.128 0.320 -0.02 -0.59 0.81 0.01
1 4.43 443 0.412 -10.262 2.648 12.726 -1.434 9.003 141.658 2834.054 -3374.901 -0.588 0.933 0.350 -0.02 -0.59 0.81 0.01
1 4.44 444 0.105 -9.936 2.557 13.092 0.305 10.132 21.736 2669.011 -3314.940 -0.292 0.614 0.459 -0.02 -0.59 0.81 0.01
1 4.45 445 -0.220 -9.730 2.701 12.054 0.702 9.705 21.736 2669.011 -3314.940 0.023 0.413 0.331 -0.02 -0.59 0.81 0.01
1 4.46 446 -0.345 -9.941 2.562 10.712 0.641 9.399 126.667 2819.063 -3314.940 0.137 0.629 0.484 -0.02 -0.59 0.81 0.01
1 4.47 447 -0.833 -9.869 2.591 12.848 -0.153 8.453 66.707 2654.021 -3374.901 0.598 0.566 0.482 -0.02 -0.59 0.81 0.01
1 4.48 448 -1.140 -9.592 2.581 17.517 -4.425 7.599 171.638 2594.060 -3359.911 0.890 0.295 0.509 -0.02 -0.58 0.81 0.01
1 4.49 449 -1.212 -9.295 2.447 18.646 -11.108 7.904 171.638 2594.060 -3389.892 0.948 0.006 0.666 -0.02 -0.58 0.81 0.01
1 4.50 450 -1.111 -9.237 2.504 15.595 -18.158 8.087 171.638 2594.060 -3389.892 0.836 -0.043 0.632 -0.02 -0.58 0.81 0.01
1 4.51 451 -1.039 -9.094 2.480 10.193 -23.071 8.453 201.619 2788.933 -3359.911 0.756 -0.180 0.674 -0.02 -0.58 0.81 0.01
1 4.52 452 -0.958 -9.117 2.605 3.021 -27.161 10.132 201.619 2788.933 -3359.911 0.668 -0.152 0.561 -0.02 -0.58 0.81 0
1 4.53 453 -0.929 -9.065 2.763 1.770 -26.581 11.078 -23.085 2669.011 -3314.940 0.633 -0.203 0.408 -0.02 -0.58 0.81 0
1 4.54 454 -0.771 -9.089 2.959 5.096 -21.332 10.010 111.677 2684.001 -3554.934 0.469 -0.178 0.214 -0.02 -0.58 0.81 0
1 4.55 455 -0.546 -9.175 3.098 12.970 -14.618 14.191 141.658 2684.001 -3374.901 0.226 -0.084 0.097 0.02 0.58 -0.81 0
1 4.56 456 -0.201 -9.127 2.935 12.512 -15.259 16.815 21.736 2713.982 -3389.892 -0.134 -0.124 0.280 0.02 0.58 -0.81 0
1 4.57 457 -0.081 -8.993 3.060 7.416 -19.867 17.914 21.736 2713.982 -3389.892 -0.269 -0.252 0.173 0.02 0.58 -0.82 0.01
1 4.58 458 0.283 -8.902 3.290 0.519 -22.217 19.592 126.667 2624.041 -3419.872 -0.646 -0.339 -0.047 0.02 0.58 -0.82 0.01
1 4.59 459 0.378 -9.199 3.740 -3.906 -18.158 23.834 126.667 2624.041 -3419.872 -0.755 -0.041 -0.495 0.02 0.58 -0.82 0.01
1 4.60 460 0.306 -9.505 3.998 -3.204 -15.320 26.795 66.707 2579.070 -3449.853 -0.700 0.267 -0.753 0.02 0.58 -0.82 0.01
1 4.61 461 0.196 -9.793 3.850 -0.488 -14.008 27.222 111.677 2654.021 -3479.833 -0.612 0.556 -0.603 0.02 0.58 -0.82 0.01
1 4.62 462 0.148 -9.572 3.946 6.195 -15.991 26.733 51.716 2713.982 -3569.924 -0.615 0.343 -0.684 0.02 0.58 -0.82 0.02
1 4.63 463 0.158 -9.194 3.951 8.514 -14.984 23.895 66.707 2609.050 -3449.853 -0.648 -0.028 -0.673 0.02 0.58 -0.82 0.02
1 4.64 464 -0.077 -9.055 3.998 6.561 -13.550 20.477 66.707 2609.050 -3449.853 -0.432 -0.160 -0.702 0.02 0.58 -0.82 0.02
1 4.65 465 -0.316 -9.070 4.032 1.740 -12.756 15.564 126.667 2624.041 -3494.973 -0.209 -0.139 -0.720 0.02 0.58 -0.82 0.02
1 4.66 466 -0.354 -9.146 3.955 -2.014 -15.747 9.613 126.667 2624.041 -3494.973 -0.181 -0.058 -0.634 0.02 0.57 -0.82 0.03
1 4.67 467 -0.101 -9.414 4.042 -3.967 -23.316 1.282 216.759 2609.050 -3554.934 -0.435 0.211 -0.717 0.01 0.57 -0.82 0.03
1 4.68 468 0.488 -9.596 4.046 -5.188 -25.910 -0.336 111.677 2654.021 -3479.833 -1.014 0.393 -0.719 0.01 0.57 -0.82 0.03
1 4.69 469 1.025 -9.429 4.075 -2.258 -22.675 -2.289 171.638 2624.041 -3494.973 -1.508 0.225 -0.744 0.01 0.57 -0.82 0.03
1 4.70 470 1.197 -9.424 3.807 0.336 -17.792 -4.822 -113.176 2609.050 -3449.853 -1.654 0.221 -0.471 0.01 0.57 -0.82 0.03
1 4.71 471 1.255 -9.453 3.802 2.045 -14.984 -5.249 -113.176 2609.050 -3449.853 -1.683 0.250 -0.459 0.01 0.57 -0.82 0.03
1 4.72 472 1.274 -9.352 3.884 -0.183 -14.404 -7.019 51.716 2548.939 -3419.872 -1.673 0.151 -0.533 0 0.57 -0.82 0.03
1 4.73 473 1.350 -9.371 3.893 -1.953 -15.381 -9.430 51.716 2548.939 -3419.872 -1.718 0.171 -0.538 0 0.57 -0.82 0.03
1 4.74 474 1.657 -9.582 3.907 -1.373 -16.022 -14.008 -143.157 2579.070 -3404.882 -1.988 0.381 -0.551 0 0.57 -0.82 0.03
1 4.75 475 1.690 -9.620 3.931 0.549 -15.747 -17.670 -23.085 2669.011 -3539.944 -1.980 0.419 -0.572 -0 0.57 -0.82 0.03
1 4.76 476 1.777 -9.615 3.831 5.890 -12.787 -22.553 -143.157 2609.050 -3479.833 -1.968 0.416 -0.458 -0.01 0.57 -0.82 0.03
1 4.77 477 1.877 -9.477 3.778 7.019 -11.963 -23.773 -38.225 2533.949 -3329.931 -2.014 0.281 -0.392 -0.01 0.57 -0.82 0.03
1 4.78 478 1.748 -9.362 3.692 10.742 -7.568 -24.262 -38.225 2533.949 -3329.931 -1.830 0.172 -0.289 -0.01 0.57 -0.82 0.02
1 4.79 479 1.772 -9.271 3.764 11.169 -6.409 -23.865 -38.225 2609.050 -3449.853 -1.801 0.087 -0.342 -0.01 0.57 -0.82 0.02
1 4.80 480 1.666 -9.290 3.769 9.735 -5.707 -22.186 -38.225 2609.050 -3449.853 -1.644 0.114 -0.328 -0.02 0.57 -0.82 0.02
1 4.81 481 1.839 -9.113 3.472 10.895 -4.364 -20.722 -53.215 2624.041 -3464.843 -1.768 -0.057 -0.014 -0.02 0.57 -0.82 0.02
1 4.82 482 1.686 -8.964 3.697 12.146 -1.587 -18.890 -128.167 2594.060 -3539.944 -1.569 -0.198 -0.221 -0.02 0.57 -0.82 0.02
1 4.83 483 1.494 -8.993 3.687 11.749 1.678 -17.304 -128.167 2594.060 -3539.944 -1.336 -0.162 -0.193 -0.02 0.57 -0.82 0.02
1 4.84 484 1.077 -9.074 3.692 9.369 5.798 -13.275 -128.167 2444.008 -3494.973 -0.855 -0.065 -0.161 -0.02 0.57 -0.82 0.01
1 4.85 485 0.800 -9.094 3.534 9.766 6.042 -9.583 -128.167 2444.008 -3494.973 -0.555 -0.039 0.013 -0.02 0.56 -0.83 0.01
1 4.86 486 0.795 -9.184 3.702 10.468 2.747 -6.104 -113.176 2609.050 -3524.954 -0.535 0.059 -0.139 -0.02 0.56 -0.83 0.01
1 4.87 487 0.709 -9.161 3.874 12.573 -1.373 -1.984 -113.176 2609.050 -3524.954 -0.438 0.042 -0.293 -0.02 0.56 -0.83 0.01
1 4.88 488 0.905 -9.094 3.673 13.519 -3.967 1.801 -128.167 2518.959 -3539.944 -0.627 -0.017 -0.072 -0.02 0.56 -0.83 0.01
1 4.89 489 1.111 -8.888 3.567 11.871 -4.730 4.272 -188.127 2579.070 -3449.853 -0.828 -0.214 0.056 -0.02 0.56 -0.83 0.01
1 4.90 490 1.302 -8.720 3.491 11.597 -3.174 5.157 -188.127 2579.070 -3449.853 -1.016 -0.373 0.152 -0.02 0.56 -0.83 0.01
1 4.91 491 1.580 -8.461 3.505 9.552 0.214 5.310 -38.225 2654.021 -3554.934 -1.292 -0.625 0.155 -0.02 0.56 -0.83 0.01
1 4.92 492 1.791 -8.208 3.127 6.256 6.500 5.524 -98.186 2398.138 -3542.342 -1.499 -0.867 0.563 -0.02 0.56 -0.83 0.01
1 4.93 493 1.882 -8.390 2.902 3.143 10.193 3.937 -98.186 2443.108 -3542.342 -1.590 -0.681 0.796 -0.02 0.56 -0.83 0.01
1 4.94 494 1.882 -8.457 2.662 1.099 14.313 2.869 -98.186 2443.108 -3542.342 -1.589 -0.613 1.037 -0.02 0.56 -0.83 0.01
1 4.95 495 1.863 -8.394 2.433 -0.183 19.623 2.502 -143.307 2458.099 -3452.401 -1.570 -0.676 1.266 -0.02 0.56 -0.83 0.01
1 4.96 496 1.786 -8.744 2.260 -2.777 23.407 1.831 -188.277 2383.147 -3482.381 -1.495 -0.329 1.434 -0.02 0.56 -0.83 0
1 4.97 497 1.700 -8.883 2.346 -5.768 21.332 0.519 -188.277 2383.147 -3482.381 -1.413 -0.193 1.340 -0.02 0.56 -0.83 0
1 4.98 498 1.690 -8.902 2.504 -8.026 21.149 -0.702 -53.215 2443.108 -3497.372 -1.405 -0.179 1.170 -0.02 0.56 -0.83 0
1 4.99 499 1.360 -9.036 2.811 -8.606 26.367 -0.366 -53.215 2548.040 -3497.372 -1.075 -0.057 0.832 0.02 -0.56 0.83 0
1 5.00 500 1.053 -9.022 2.739 -8.514 27.893 2.167 -113.326 2413.128 -3632.434 -0.774 -0.078 0.889 0.02 -0.56 0.83 0
1 5.01 501 0.895 -9.161 2.801 -9.033 26.825 6.226 -113.326 2413.128 -3632.434 -0.628 0.055 0.811 0.01 -0.56 0.83 0
1 5.02 502 0.828 -9.017 2.710 -9.827 25.543 10.834 -113.326 2578.021 -3452.401 -0.579 -0.096 0.886 0.01 -0.56 0.83 0
1 5.03 503 0.690 -9.046 2.993 -9.277 24.994 18.219 -38.225 2533.050 -3527.352 -0.466 -0.074 0.587 0.01 -0.56 0.83 0.01
1 5.04 504 0.565 -9.180 3.175 -10.529 26.337 20.508 -38.225 2533.050 -3527.352 -0.374 0.053 0.390 0.01 -0.56 0.83 0.01
1 5.05 505 0.393 -9.266 3.366 -13.580 26.947 21.271 -8.245 2533.050 -3527.352 -0.240 0.133 0.183 0.01 -0.56 0.83 0.01
1 5.06 506 -0.407 -10.185 4.439 -17.853 25.421 17.120 36.576 2458.099 -3482.381 0.478 1.036 -0.928 0 -0.57 0.82 0.01
1 5.07 507 -1.053 -10.837 4.688 -21.668 19.806 5.280 51.566 2593.011 -3542.342 1.092 1.678 -1.202 -0 -0.57 0.82 0.01
1 5.08 508 -1.020 -10.798 3.884 -17.609 14.832 -6.104 51.566 2593.011 -3542.342 1.046 1.629 -0.426 -0 -0.57 0.82 0.01
1 5.09 509 -0.876 -10.013 3.227 0.549 15.686 -6.134 126.518 2443.108 -3422.420 0.905 0.837 0.213 -0 -0.57 0.82 0.01
1 5.10 510 -0.723 -9.165 3.127 14.771 20.844 -3.143 36.576 2503.069 -3407.430 0.747 -0.008 0.320 -0 -0.57 0.82 0.01
1 5.11 511 0.005 -8.634 3.256 5.493 16.663 2.960 36.576 2503.069 -3407.430 0.007 -0.532 0.212 -0.01 -0.57 0.82 0.01
1 5.12 512 0.733 -8.950 3.625 -16.876 10.376 7.172 21.586 2518.060 -3422.420 -0.737 -0.211 -0.144 -0.01 -0.57 0.82 0.01
1 5.13 513 1.279 -9.520 4.061 -37.048 20.905 6.104 171.638 2473.089 -3497.372 -1.305 0.338 -0.634 -0.01 -0.57 0.82 0.01
1 5.14 514 0.919 -9.884 3.864 -27.618 34.119 3.479 186.628 2683.102 -3407.430 -0.955 0.685 -0.483 -0.01 -0.57 0.82 0.01
1 5.15 515 0.541 -9.563 3.697 -7.599 42.633 0.488 186.628 2683.102 -3407.430 -0.590 0.354 -0.344 -0.01 -0.57 0.82 0.01
1 5.16 516 0.144 -9.046 3.472 6.805 43.701 -0.427 171.638 2368.007 -3362.459 -0.208 -0.163 -0.120 -0.02 -0.57 0.82 0.02
1 5.17 517 0.014 -8.624 3.544 9.949 40.680 0.702 201.619 2518.060 -3422.420 -0.098 -0.579 -0.178 -0.02 -0.57 0.82 0.02
1 5.18 518 0.172 -8.236 3.654 -5.280 39.124 -1.678 201.619 2518.060 -3422.420 -0.276 -0.961 -0.272 -0.02 -0.57 0.82 0.02
1 5.19 519 -0.115 -8.514 3.577 -16.998 39.154 -6.165 351.521 2743.213 -3391.990 -0.006 -0.683 -0.194 -0.02 -0.57 0.82 0.02
1 5.20 520 -0.326 -9.156 3.754 -19.775 36.041 -11.078 276.570 2593.161 -3317.039 0.188 -0.055 -0.411 -0.03 -0.57 0.82 0.03
1 5.21 521 -0.599 -9.323 3.807 -16.968 34.577 -12.421 306.550 2548.190 -3467.091 0.459 0.104 -0.485 -0.03 -0.57 0.82 0.03
1 5.22 522 -0.766 -9.486 3.577 -1.617 30.426 -16.632 306.550 2548.190 -3467.091 0.629 0.264 -0.265 -0.03 -0.57 0.82 0.03
1 5.23 523 -1.020 -9.242 3.563 5.646 29.968 -17.517 201.619 2668.262 -3391.990 0.888 0.021 -0.247 -0.03 -0.57 0.82 0.03
1 5.24 524 -1.288 -9.065 3.587 3.906 29.633 -16.693 456.603 2743.213 -3362.010 1.160 -0.153 -0.260 -0.03 -0.57 0.82 0.04
1 5.25 525 -1.753 -9.046 3.606 -7.690 25.971 -15.167 456.603 2743.213 -3362.010 1.626 -0.170 -0.274 -0.04 -0.57 0.82 0.04
1 5.26 526 -1.882 -9.338 3.577 -16.357 20.966 -11.322 351.521 2623.291 -3391.990 1.754 0.121 -0.249 -0.04 -0.57 0.82 0.04
1 5.27 527 -1.834 -9.635 3.611 -19.104 16.693 -6.958 306.550 2713.232 -3362.010 1.700 0.412 -0.300 -0.04 -0.57 0.82 0.04
1 5.28 528 -1.480 -9.730 3.735 -12.329 15.778 -0.702 336.531 2503.219 -3377.000 1.321 0.492 -0.469 -0.04 -0.58 0.82 0.04
1 5.29 529 -1.470 -9.793 3.500 -8.850 16.480 1.617 336.531 2503.219 -3377.000 1.293 0.550 -0.247 -0.04 -0.58 0.81 0.04
1 5.30 530 -1.542 -9.773 3.390 -6.805 14.038 3.815 231.599 2548.190 -3362.010 1.345 0.528 -0.146 -0.04 -0.58 0.81 0.05
1 5.31 531 -1.532 -9.740 3.275 -7.660 8.911 6.104 366.661 2608.151 -3377.000 1.314 0.492 -0.040 -0.05 -0.58 0.81 0.05
1 5.32 532 -1.231 -9.625 3.251 -10.895 2.838 7.080 366.661 2608.151 -3377.000 0.990 0.374 -0.026 -0.05 -0.58 0.81 0.04
1 5.33 533 -1.202 -9.544 3.280 -12.238 2.014 6.805 366.661 2533.200 -3377.000 0.942 0.288 -0.069 -0.05 -0.58 0.81 0.04
1 5.34 534 -1.135 -9.759 3.390 -12.390 2.869 6.866 351.521 2668.262 -3317.039 0.857 0.499 -0.195 -0.05 -0.58 0.81 0.04
1 5.35 535 -1.159 -9.673 3.175 -10.010 4.791 6.836 381.651 2713.232 -3287.059 0.849 0.403 -0.011 -0.05 -0.58 0.81 0.04
1 5.36 536 -1.360 -9.673 3.089 -8.118 5.554 5.676 381.651 2713.232 -3287.059 1.033 0.399 0.063 -0.05 -0.58 0.81 0.04
1 5.37 537 -1.547 -9.558 2.916 -7.172 5.066 4.578 426.622 2713.232 -3287.059 1.202 0.282 0.226 -0.05 -0.58 0.81 0.04
1 5.38 538 -1.599 -9.309 2.921 -7.202 2.380 5.188 336.531 2803.174 -3302.049 1.239 0.030 0.210 -0.05 -0.58 0.81 0.04
1 5.39 539 -1.628 -9.304 2.878 -8.179 0.549 4.028 336.531 2803.174 -3302.049 1.251 0.022 0.243 -0.05 -0.58 0.81 0.04
1 5.40 540 -1.695 -9.304 2.835 -9.216 -2.808 5.402 396.642 2683.252 -3332.029 1.304 0.019 0.274 -0.05 -0.58 0.81 0.04
1 5.41 541 -1.575 -9.290 2.950 -8.270 -3.204 6.500 426.622 2788.184 -3362.010 1.169 0.000 0.146 -0.05 -0.58 0.81 0.04
1 5.42 542 -1.695 -9.194 2.849 -7.599 -4.364 7.111 381.651 2788.184 -3212.107 1.256 -0.101 0.224 -0.06 -0.58 0.81 0.04
1 5.43 543 -1.642 -9.223 2.883 -8.087 -5.707 7.568 381.651 2788.184 -3212.107 1.187 -0.075 0.180 -0.06 -0.58 0.81 0.04
1 5.44 544 -1.556 -9.060 2.883 -7.874 -7.538 7.996 426.622 2713.232 -3242.088 1.085 -0.241 0.169 -0.06 -0.58 0.81 0.04
1 5.45 545 -1.240 -9.151 2.806 -7.813 -8.759 6.744 381.651 2743.213 -3242.088 0.754 -0.152 0.236 -0.06 -0.58 0.81 0.04
1 5.46 546 -1.044 -9.141 2.931 -6.989 -8.362 5.341 381.651 2743.213 -3242.088 0.547 -0.164 0.102 -0.06 -0.58 0.81 0.03
1 5.47 547 -1.044 -9.271 2.940 -6.928 -8.118 2.563 426.622 2713.232 -3137.006 0.540 -0.037 0.084 -0.06 -0.59 0.81 0.03
1 5.48 548 -0.953 -9.328 3.069 -6.165 -8.270 2.045 291.560 2578.170 -3272.068 0.444 0.018 -0.053 -0.06 -0.59 0.81 0.03
1 5.49 549 -1.058 -9.208 3.227 -5.310 -8.575 0.427 291.560 2578.170 -3272.068 0.547 -0.104 -0.218 -0.06 -0.59 0.81 0.03
1 5.50 550 -1.077 -9.414 3.194 -4.120 -9.552 0.885 306.550 2743.213 -3137.006 0.567 0.099 -0.193 -0.05 -0.59 0.81 0.03
1 5.51 551 -1.044 -9.362 3.189 -4.852 -10.162 0.946 381.651 2743.213 -3212.107 0.533 0.045 -0.192 -0.05 -0.59 0.81 0.03
1 5.52 552 -0.982 -9.400 3.137 -4.730 -10.712 1.099 336.531 2728.223 -3122.016 0.470 0.083 -0.142 -0.05 -0.59 0.81 0.03
1 5.53 553 -1.034 -9.295 3.103 -3.357 -11.627 1.343 336.531 2728.223 -3122.016 0.522 -0.024 -0.112 -0.05 -0.59 0.81 0.03
1 5.54 554 -0.824 -9.438 3.041 -3.601 -12.054 2.014 216.609 2728.223 -3272.068 0.311 0.120 -0.051 -0.05 -0.59 0.81 0.03
1 5.55 555 -0.848 -9.390 3.223 -2.441 -11.108 2.350 306.550 2668.262 -3182.127 0.336 0.071 -0.235 -0.05 -0.59 0.81 0.03
1 5.56 556 -0.910 -9.343 3.007 -2.075 -9.216 2.686 306.550 2668.262 -3182.127 0.397 0.023 -0.019 -0.05 -0.59 0.81 0.03
1 5.57 557 -1.077 -9.194 2.959 0.031 -7.385 3.235 306.550 2593.161 -3287.059 0.560 -0.125 0.029 -0.05 -0.59 0.81 0.02
1 5.58 558 -0.881 -9.170 2.816 -0.153 -7.446 4.334 381.651 2623.291 -3212.107 0.360 -0.148 0.174 -0.05 -0.59 0.81 0.02
1 5.59 559 -0.891 -9.113 2.907 -0.671 -6.042 4.456 396.642 2758.203 -3077.045 0.364 -0.205 0.084 -0.05 -0.59 0.81 0.02
1 5.60 560 -0.852 -9.290 3.012 -1.587 -4.822 4.547 396.642 2758.203 -3077.045 0.320 -0.027 -0.021 -0.05 -0.59 0.81 0.02
1 5.61 561 -0.776 -9.218 2.959 -2.289 -4.059 3.998 276.570 2713.232 -3137.006 0.238 -0.099 0.032 -0.05 -0.59 0.81 0.02
1 5.62 562 -0.910 -9.400 2.964 -3.265 -3.052 2.533 276.570 2668.262 -3137.006 0.367 0.083 0.026 -0.05 -0.59 0.81 0.02
1 5.63 563 -1.006 -9.620 2.715 -3.326 -3.326 0.397 276.570 2668.262 -3137.006 0.458 0.303 0.272 -0.05 -0.59 0.81 0.02
1 5.64 564 -1.073 -9.735 2.840 -1.678 -5.188 -3.479 336.531 2503.219 -3227.098 0.526 0.415 0.140 -0.05 -0.59 0.81 0.02
1 5.65 565 -1.149 -9.697 2.715 -0.854 -6.348 -4.456 366.661 2683.252 -3332.029 0.609 0.376 0.262 -0.05 -0.59 0.81 0.02
1 5.66 566 -1.178 -9.496 2.801 0.153 -10.345 -7.690 441.612 2728.223 -3272.068 0.646 0.174 0.175 -0.05 -0.59 0.81 0.02
1 5.67 567 -1.178 -9.457 2.777 -1.282 -13.336 -9.430 441.612 2728.223 -3272.068 0.658 0.135 0.199 -0.05 -0.59 0.81 0.02
1 5.68 568 -1.121 -9.563 2.749 -2.533 -15.472 -10.529 336.531 2653.271 -3197.117 0.617 0.239 0.226 -0.05 -0.59 0.81 0.02
1 5.69 569 -1.178 -9.457 2.710 -1.373 -18.066 -12.512 291.560 2503.219 -3227.098 0.693 0.132 0.262 -0.05 -0.59 0.81 0.02
1 5.70 570 -1.226 -9.395 2.749 -0.519 -20.325 -12.634 291.560 2503.219 -3227.098 0.762 0.068 0.222 -0.04 -0.59 0.81 0.02
1 5.71 571 -1.245 -9.467 2.835 -0.488 -20.752 -12.909 306.550 2623.291 -3242.088 0.804 0.138 0.136 -0.04 -0.59 0.81 0.02
1 5.72 572 -1.235 -9.524 2.758 -1.556 -19.135 -12.116 216.609 2758.203 -3227.098 0.838 0.194 0.212 -0.04 -0.59 0.81 0.02
1 5.73 573 -1.125 -9.711 2.595 -0.977 -19.653 -11.383 291.560 2653.271 -3197.117 0.747 0.379 0.373 -0.04 -0.59 0.81 0.02
1 5.74 574 -1.250 -9.697 2.658 0.275 -20.722 -9.369 291.560 2653.271 -3197.117 0.892 0.364 0.310 -0.04 -0.59 0.81 0.02
1 5.75 575 -1.216 -9.831 2.624 1.465 -21.698 -7.263 231.599 2743.213 -3182.127 0.874 0.498 0.344 -0.03 -0.59 0.81 0.02
1 5.76 576 -0.848 -9.706 2.844 3.723 -21.698 -4.150 291.560 2758.203 -3151.997 0.519 0.373 0.126 -0.03 -0.59 0.81 0.02
1 5.77 577 -0.651 -9.687 2.835 5.402 -20.233 -2.258 291.560 2758.203 -3151.997 0.335 0.355 0.141 -0.03 -0.59 0.81 0.02
1 5.78 578 -0.522 -9.548 2.825 5.463 -18.555 -0.793 291.560 2833.154 -3302.049 0.216 0.219 0.159 -0.03 -0.59 0.81 0.02
1 5.79 579 -0.378 -9.481 2.897 5.920 -15.320 0.397 111.527 2758.203 -3151.997 0.090 0.157 0.104 -0.03 -0.59 0.81 0.01
1 5.80 580 -0.498 -9.572 2.844 5.737 -14.923 -0.610 96.537 2788.184 -3317.039 0.217 0.250 0.166 -0.03 -0.59 0.81 0.01
1 5.81 581 -0.694 -9.501 2.749 5.920 -15.228 -0.977 96.537 2788.184 -3317.039 0.420 0.181 0.270 -0.03 -0.59 0.81 0.01
1 5.82 582 -0.761 -9.544 2.744 6.500 -17.700 -1.373 231.599 2788.184 -3362.010 0.495 0.227 0.284 -0.03 -0.59 0.81 0.01
1 5.83 583 -0.838 -9.496 2.854 6.012 -19.623 -2.319 111.527 2758.203 -3332.029 0.579 0.182 0.182 -0.02 -0.59 0.81 0.01
1 5.84 584 -0.685 -9.386 2.883 5.676 -20.874 -2.502 111.527 2758.203 -3332.029 0.436 0.074 0.162 -0.02 -0.59 0.81 0.01
1 5.85 585 -0.675 -9.338 2.892 5.646 -20.203 -3.571 111.527 2728.223 -3151.997 0.436 0.029 0.161 -0.02 -0.59 0.81 0.01
1 5.86 586 -0.728 -9.347 2.682 6.592 -18.127 -3.510 111.527 2608.151 -3377.000 0.511 0.043 0.389 -0.02 -0.59 0.81 0.01
1 5.87 587 -0.699 -9.424 2.548 5.981 -18.860 -3.876 36.576 2833.154 -3272.068 0.492 0.123 0.532 -0.02 -0.59 0.81 0.01
1 5.88 588 -0.872 -9.524 2.729 4.669 -20.477 -4.150 36.576 2833.154 -3272.068 0.675 0.225 0.357 -0.02 -0.59 0.81 0.01
1 5.89 589 -0.919 -9.548 2.691 4.120 -22.034 -4.913 51.566 2548.190 -3467.091 0.735 0.251 0.401 -0.02 -0.58 0.81 0.01
1 5.90 590 -1.010 -9.582 2.610 4.364 -24.231 -4.913 21.586 2593.161 -3287.059 0.839 0.286 0.487 -0.01 -0.58 0.81 0.01
1 5.91 591 -0.852 -9.778 2.576 4.974 -26.947 -5.127 21.586 2593.161 -3287.059 0.695 0.483 0.525 -0.01 -0.58 0.81 0
1 5.92 592 -0.704 -9.850 2.634 5.096 -29.083 -3.387 -68.355 2652.372 -3334.578 0.561 0.557 0.473 -0.01 -0.58 0.81 0
1 5.93 593 -0.532 -9.850 2.739 5.463 -30.853 -0.732 -68.355 2652.372 -3334.578 0.403 0.558 0.372 -0.01 -0.58 0.81 0
1 5.94 594 -0.158 -10.128 2.998 5.920 -28.778 4.456 21.436 2787.434 -3364.558 0.053 0.839 0.125 0.01 0.58 -0.81 0
1 5.95 595 0.187 -10.324 3.146 4.639 -26.123 7.965 21.436 2787.434 -3364.558 -0.284 1.038 -0.017 0 0.58 -0.81 0
1 5.96 596 0.364 -10.468 3.443 4.639 -20.294 11.932 -113.476 2682.502 -3304.597 -0.461 1.184 -0.306 0 0.58 -0.81 0
1 5.97 597 0.555 -10.568 3.457 5.188 -14.313 15.259 -38.375 2652.372 -3334.578 -0.662 1.288 -0.312 0 0.58 -0.81 0.01
1 5.98 598 0.608 -10.415 3.520 6.409 -9.460 18.005 -38.375 2652.372 -3334.578 -0.730 1.138 -0.365 0 0.58 -0.81 0.01
1 5.99 599 0.718 -10.559 3.649 10.498 -2.655 20.569 -98.336 2622.392 -3364.558 -0.861 1.286 -0.482 0 0.58 -0.81 0.01
1 6.00 600 0.646 -10.779 3.975 11.688 2.594 21.454 -98.336 2622.392 -3364.558 -0.815 1.512 -0.792 0 0.58 -0.81 0.01
1 6.01 601 0.464 -10.655 3.941 17.944 10.620 20.233 -128.466 2592.411 -3364.558 -0.697 1.402 -0.719 0.01 0.58 -0.82 0.01
1 6.02 602 0.316 -10.128 3.515 24.048 13.825 17.120 -128.466 2592.411 -3364.558 -0.581 0.886 -0.264 0.01 0.58 -0.82 0.01
1 6.03 603 -0.168 -9.587 3.113 30.090 12.878 11.566 36.426 2607.401 -3274.617 -0.123 0.359 0.175 0.01 0.58 -0.82 0.01
1 6.04 604 -0.560 -9.098 3.122 32.990 9.399 6.409 -68.355 2607.401 -3304.597 0.251 -0.113 0.209 0.01 0.57 -0.82 0.01
1 6.05 605 -0.967 -8.868 2.868 30.640 3.693 3.143 -68.355 2607.401 -3304.597 0.646 -0.326 0.508 0.01 0.57 -0.82 0.01
1 6.06 606 -1.336 -8.892 2.844 21.179 -6.409 2.045 -38.375 2577.421 -3304.597 1.006 -0.287 0.572 0.01 0.57 -0.82 0.01
1 6.07 607 -1.446 -8.969 3.069 15.961 -10.956 3.693 -38.375 2577.421 -3304.597 1.109 -0.198 0.378 0.01 0.57 -0.82 0.02
1 6.08 608 -1.216 -8.916 3.256 13.916 -12.054 8.270 -173.437 2517.460 -3469.640 0.863 -0.234 0.234 0.01 0.57 -0.82 0.02
1 6.09 609 -1.178 -9.041 3.170 14.435 -12.299 11.566 -173.437 2517.460 -3469.640 0.813 -0.101 0.341 0.01 0.57 -0.82 0.02
1 6.10 610 -1.030 -8.998 3.247 15.381 -13.886 15.076 -23.385 2367.408 -3424.669 0.650 -0.136 0.285 0.01 0.57 -0.82 0.02
1 6.11 611 -0.728 -8.950 3.295 16.419 -15.198 19.257 -113.476 2457.499 -3559.581 0.329 -0.174 0.261 0.01 0.56 -0.83 0.02
1 6.12 612 -0.536 -9.046 3.261 17.059 -16.541 21.515 -113.476 2457.499 -3559.581 0.116 -0.067 0.319 0.01 0.56 -0.83 0.02
1 6.13 613 -0.129 -9.228 3.558 15.533 -16.907 23.956 -23.385 2442.509 -3499.620 -0.313 0.125 0.046 0.01 0.56 -0.83 0.03
1 6.14 614 0.134 -9.304 3.850 12.451 -15.442 24.902 -23.385 2442.509 -3499.620 -0.600 0.212 -0.222 0.01 0.56 -0.83 0.03
1 6.15 615 0.354 -9.299 4.123 10.986 -11.780 24.994 -68.355 2457.499 -3334.578 -0.842 0.217 -0.474 0.01 0.56 -0.83 0.03
1 6.16 616 0.239 -9.094 4.233 10.681 -9.613 21.027 -38.375 2457.499 -3484.630 -0.768 0.030 -0.544 0.01 0.56 -0.83 0.03
1 6.17 617 -0.062 -8.940 4.281 11.414 -10.559 16.480 -8.395 2382.398 -3409.529 -0.481 -0.114 -0.572 0.01 0.56 -0.83 0.04
1 6.18 618 -0.354 -8.844 4.372 12.543 -13.794 12.085 -53.365 2322.437 -3499.620 -0.199 -0.200 -0.640 0.01 0.56 -0.83 0.04
1 6.19 619 -0.570 -9.036 4.487 13.886 -16.296 7.446 -53.365 2322.437 -3499.620 0.013 0.002 -0.730 0.01 0.56 -0.83 0.04
1 6.20 620 -0.646 -9.022 4.722 13.672 -20.783 2.472 -8.395 2502.470 -3409.529 0.091 -0.001 -0.937 0.01 0.55 -0.83 0.04
1 6.21 621 -0.613 -9.074 4.803 12.299 -24.262 0.214 -8.395 2502.470 -3409.529 0.065 0.063 -0.990 0.01 0.55 -0.83 0.04
1 6.22 622 -0.330 -9.065 4.769 9.918 -26.428 -1.007 -68.355 2412.378 -3559.581 -0.204 0.064 -0.930 0 0.55 -0.83 0.04
1 6.23 623 0.091 -8.907 4.544 5.920 -29.389 0.153 -8.544 2229.947 -3460.646 -0.590 -0.076 -0.659 0 0.55 -0.83 0.04
1 6.24 624 0.584 -8.993 4.372 3.448 -31.098 2.380 96.237 2365.009 -3475.636 -1.063 0.016 -0.471 -0 0.55 -0.83 0.05
1 6.25 625 1.087 -9.046 4.166 1.862 -30.640 1.648 -113.476 2380.000 -3490.626 -1.542 0.072 -0.254 -0 0.55 -0.84 0.05
1 6.26 626 1.609 -9.247 4.190 1.038 -25.635 0.336 -113.476 2380.000 -3490.626 -2.036 0.275 -0.270 -0.01 0.55 -0.84 0.05
1 6.27 627 1.781 -9.381 4.219 3.418 -18.127 -0.214 -188.577 2259.928 -3460.646 -2.180 0.411 -0.291 -0.01 0.55 -0.84 0.05
1 6.28 628 1.801 -9.137 4.204 9.216 -6.195 -3.387 -188.577 2259.928 -3460.646 -2.172 0.170 -0.267 -0.01 0.55 -0.84 0.05
1 6.29 629 1.719 -8.782 4.008 9.583 -3.571 -6.866 -233.548 2289.908 -3475.636 -2.064 -0.179 -0.056 -0.01 0.55 -0.84 0.05
1 6.30 630 1.274 -8.744 4.252 6.653 -7.599 -15.045 -113.476 2259.928 -3670.659 -1.557 -0.206 -0.270 -0.01 0.54 -0.84 0.05
1 6.31 631 1.336 -8.844 4.362 5.127 -10.651 -21.729 -218.558 2229.947 -3535.747 -1.579 -0.101 -0.367 -0.01 0.54 -0.84 0.05
1 6.32 632 1.288 -8.912 4.161 5.280 -13.031 -26.733 -203.567 2365.009 -3475.636 -1.480 -0.030 -0.154 -0.02 0.54 -0.84 0.04
1 6.33 633 1.360 -8.840 4.161 7.507 -13.092 -30.701 -203.567 2365.009 -3475.636 -1.493 -0.097 -0.143 -0.02 0.54 -0.84 0.04
1 6.34 634 1.451 -8.725 4.185 9.033 -11.231 -32.196 -233.548 2289.908 -3625.688 -1.522 -0.207 -0.152 -0.02 0.54 -0.84 0.04
1 6.35 635 1.293 -8.825 4.286 5.402 -7.019 -32.990 -233.548 2289.908 -3625.688 -1.301 -0.099 -0.238 -0.02 0.54 -0.84 0.04
1 6.36 636 1.221 -8.873 4.104 0.916 -4.395 -31.616 -218.558 2229.947 -3565.727 -1.169 -0.046 -0.043 -0.03 0.54 -0.84 0.04
1 6.37 637 1.020 -9.031 4.200 -1.343 -2.075 -29.877 -113.476 2229.947 -3535.747 -0.912 0.115 -0.133 -0.03 0.54 -0.84 0.03
1 6.38 638 0.781 -8.854 3.912 2.747 1.678 -22.705 -218.558 2229.947 -3535.747 -0.579 -0.059 0.157 -0.03 0.54 -0.84 0.03
1 6.39 639 0.742 -8.754 3.769 5.066 2.747 -17.304 -353.620 2199.967 -3475.636 -0.507 -0.156 0.306 -0.03 0.54 -0.84 0.03
1 6.40 640 0.594 -8.710 3.711 3.540 3.693 -11.261 -353.620 2199.967 -3475.636 -0.335 -0.195 0.371 -0.03 0.54 -0.84 0.03
1 6.41 641 0.685 -8.619 3.874 1.709 1.617 -5.524 -308.499 2319.889 -3400.685 -0.412 -0.284 0.213 -0.03 0.54 -0.84 0.03
1 6.42 642 0.939 -8.715 3.769 -0.549 -0.580 1.892 -308.499 2319.889 -3400.685 -0.657 -0.187 0.320 -0.03 0.54 -0.84 0.03
1 6.43 643 1.283 -8.610 3.625 0.763 1.526 6.500 -293.509 2259.928 -3595.708 -0.998 -0.292 0.463 -0.03 0.54 -0.84 0.03
1 6.44 644 1.326 -8.811 3.678 1.831 2.716 10.834 -428.571 2199.967 -3625.688 -1.041 -0.091 0.411 -0.03 0.54 -0.84 0.03
1 6.45 645 1.585 -8.663 3.826 2.686 4.028 15.198 -128.916 2169.087 -3628.086 -1.316 -0.238 0.267 -0.03 0.54 -0.84 0.03
1 6.46 646 1.571 -8.672 3.692 1.953 6.958 16.052 -383.900 2318.989 -3552.985 -1.315 -0.227 0.405 -0.03 0.54 -0.84 0.03
1 6.47 647 1.633 -8.490 3.682 0.610 10.742 16.571 -383.900 2318.989 -3552.985 -1.393 -0.408 0.417 -0.03 0.54 -0.84 0.03
1 6.48 648 1.733 -8.399 3.697 -1.068 14.160 16.296 -218.857 2229.048 -3493.024 -1.512 -0.500 0.402 -0.03 0.54 -0.84 0.03
1 6.49 649 2.002 -8.572 3.692 -2.502 18.189 15.259 -218.857 2229.048 -3493.024 -1.799 -0.328 0.406 -0.03 0.54 -0.84 0.03
1 6.50 650 1.935 -8.639 3.424 -5.219 24.109 14.893 -143.906 2259.028 -3493.024 -1.751 -0.263 0.671 -0.03 0.54 -0.84 0.03
1 6.51 651 2.006 -8.787 3.500 -5.981 26.886 14.771 -263.828 2184.077 -3537.995 -1.844 -0.118 0.587 -0.03 0.54 -0.84 0.03
1 6.52 652 1.877 -8.854 3.558 -3.723 33.295 14.679 -263.828 2333.979 -3673.057 -1.761 -0.060 0.512 -0.02 0.54 -0.84 0.03
1 6.53 653 1.882 -8.935 3.486 -3.265 39.154 15.533 -113.776 2333.979 -3537.995 -1.794 0.018 0.578 -0.02 0.54 -0.84 0.02
1 6.54 654 1.676 -8.538 3.572 -2.350 45.105 13.855 -113.776 2333.979 -3537.995 -1.620 -0.382 0.486 -0.02 0.54 -0.84 0.02
1 6.55 655 1.461 -8.572 3.362 -1.801 48.126 12.939 -38.825 2333.979 -3463.044 -1.438 -0.350 0.693 -0.02 0.54 -0.84 0.02
1 6.56 656 1.130 -8.485 3.333 -4.334 45.899 11.169 -38.825 2333.979 -3463.044 -1.143 -0.439 0.717 -0.01 0.54 -0.84 0.02
1 6.57 657 1.087 -8.658 3.405 -9.094 41.077 8.270 -68.805 2303.999 -3342.972 -1.132 -0.270 0.636 -0.01 0.54 -0.84 0.02
1 6.58 658 1.010 -8.959 3.807 -11.383 38.910 7.843 -173.887 2244.038 -3552.985 -1.084 0.026 0.221 -0.01 0.54 -0.84 0.02
1 6.59 659 0.757 -9.290 3.903 -10.773 37.842 5.188 -173.887 2244.038 -3552.985 -0.857 0.349 0.108 -0 0.54 -0.84 0.02
1 6.60 660 0.172 -9.845 4.439 -5.371 38.269 0.519 -23.834 2318.989 -3628.086 -0.315 0.893 -0.454 0 0.54 -0.84 0.01
1 6.61 661 -0.383 -9.979 4.822 -3.723 36.408 -5.035 -23.834 2318.540 -3629.286 0.221 1.025 -0.844 0 0.54 -0.84 0.01
1 6.62 662 -1.039 -10.204 5.009 -1.678 30.121 -14.038 -128.916 2318.540 -3404.282 0.866 1.249 -1.034 0 0.55 -0.84 0.01
1 6.63 663 -1.580 -10.133 4.587 0.458 21.729 -21.942 -128.916 2318.540 -3404.282 1.413 1.176 -0.613 0.01 0.55 -0.84 0.01
1 6.64 664 -1.628 -9.975 4.171 4.456 9.155 -24.872 111.078 2303.549 -3569.175 1.483 1.019 -0.193 0.01 0.55 -0.84 0
1 6.65 665 -1.121 -9.529 4.142 3.815 4.059 -17.975 111.078 2333.530 -3494.224 1.004 0.577 -0.158 0.01 0.54 -0.84 0
1 6.66 666 -0.369 -9.170 4.176 -0.336 0.214 -9.949 111.078 2333.530 -3494.224 0.272 0.220 -0.185 0.01 0.54 -0.84 0
1 6.67 667 0.570 -9.041 4.449 -11.322 -1.312 -3.052 20.986 2288.559 -3479.233 -0.649 0.089 -0.461 0 0.54 -0.84 0
1 6.68 668 1.116 -9.275 4.583 -14.648 3.418 -1.251 20.986 2288.559 -3479.233 -1.188 0.318 -0.608 -0 -0.55 0.84 0
1 6.69 669 1.192 -9.347 4.506 -11.261 10.437 -2.686 20.986 2288.559 -3479.233 -1.256 0.383 -0.546 -0 -0.55 0.84 0
1 6.70 670 0.953 -9.218 4.224 -3.265 16.541 -4.456 20.986 2288.559 -3479.233 -1.010 0.251 -0.271 -0 -0.55 0.84 0
1 6.71 671 0.718 -8.974 4.200 2.075 19.684 -4.944 50.967 2288.559 -3479.233 -0.771 0.007 -0.246 -0.01 -0.55 0.84 0
1 6.72 672 0.421 -8.892 4.343 -1.282 20.111 -5.310 20.986 2393.641 -3479.233 -0.473 -0.072 -0.383 -0.01 -0.55 0.84 0
1 6.73 673 0.278 -9.007 4.468 -5.981 20.630 -5.951 20.986 2393.641 -3479.233 -0.330 0.044 -0.506 -0.01 -0.55 0.84 0.01
1 6.74 674 0.043 -9.199 4.468 -7.233 22.339 -6.439 201.019 2393.641 -3509.214 -0.096 0.231 -0.516 -0.01 -0.55 0.84 0.01
1 6.75 675 -0.105 -9.208 4.434 -2.930 22.217 -7.324 201.019 2393.641 -3509.214 0.050 0.239 -0.487 -0.01 -0.55 0.84 0.01
1 6.76 676 -0.359 -9.017 4.094 2.899 20.416 -7.904 65.957 2303.549 -3464.243 0.302 0.048 -0.144 -0.01 -0.55 0.84 0.01
1 6.77 677 -0.441 -8.849 3.955 6.592 15.656 -7.324 65.957 2303.549 -3464.243 0.381 -0.116 0.002 -0.01 -0.55 0.84 0.01
1 6.78 678 -0.369 -8.672 3.888 5.920 10.895 -6.470 111.078 2453.602 -3494.224 0.308 -0.288 0.080 -0.01 -0.55 0.84 0.01
1 6.79 679 -0.148 -8.495 3.927 1.221 7.446 -5.554 35.977 2303.549 -3344.171 0.088 -0.461 0.051 -0.01 -0.54 0.84 0.02
1 6.80 680 -0.263 -8.667 4.061 -2.014 8.087 -4.852 35.977 2303.549 -3344.171 0.205 -0.287 -0.078 -0.01 -0.54 0.84 0.02
1 6.81 681 -0.311 -8.868 4.080 -3.693 10.101 -3.357 171.039 2288.559 -3374.152 0.254 -0.085 -0.096 -0.01 -0.54 0.84 0.02
1 6.82 682 -0.316 -8.993 4.061 -1.221 11.871 -1.190 186.029 2378.650 -3419.272 0.251 0.037 -0.082 -0.02 -0.54 0.84 0.02
1 6.83 683 -0.431 -9.094 4.061 0.580 13.306 -0.427 171.039 2243.588 -3404.282 0.358 0.138 -0.081 -0.02 -0.54 0.84 0.02
1 6.84 684 -0.431 -8.945 4.008 0.458 12.939 -0.305 171.039 2243.588 -3404.282 0.348 -0.009 -0.025 -0.02 -0.54 0.84 0.02
1 6.85 685 -0.397 -9.098 3.951 -2.197 11.108 -0.488 126.068 2393.641 -3554.185 0.305 0.145 0.034 -0.02 -0.54 0.84 0.02
1 6.86 686 -0.120 -9.094 4.085 -3.357 10.345 -0.214 201.019 2198.618 -3434.263 0.019 0.139 -0.103 -0.02 -0.54 0.84 0.02
1 6.87 687 -0.077 -9.132 4.219 -1.831 12.634 -0.031 201.019 2198.618 -3434.263 -0.031 0.177 -0.240 -0.02 -0.54 0.84 0.02
1 6.88 688 0.158 -9.122 4.109 -1.556 15.442 0.458 260.980 2258.579 -3389.142 -0.272 0.166 -0.131 -0.02 -0.54 0.84 0.02
1 6.89 689 0.067 -9.117 4.190 -2.106 22.003 0.549 20.986 2288.559 -3509.214 -0.199 0.161 -0.214 -0.02 -0.54 0.84 0.02
1 6.90 690 0.096 -9.050 4.228 -2.716 24.353 -0.946 141.058 2333.530 -3569.175 -0.239 0.094 -0.253 -0.02 -0.54 0.84 0.02
1 6.91 691 -0.029 -8.950 4.171 -2.167 26.489 -3.510 141.058 2333.530 -3569.175 -0.124 -0.007 -0.197 -0.03 -0.54 0.84 0.03
1 6.92 692 -0.249 -8.955 4.176 -1.282 27.710 -6.012 35.977 2378.650 -3494.224 0.087 -0.003 -0.203 -0.03 -0.54 0.84 0.03
1 6.93 693 -0.532 -9.007 4.233 -0.183 28.778 -7.538 335.931 2333.530 -3464.243 0.362 0.051 -0.260 -0.03 -0.54 0.84 0.03
1 6.94 694 -0.948 -9.189 4.247 0.244 28.504 -8.331 335.931 2333.530 -3464.243 0.771 0.234 -0.272 -0.03 -0.54 0.84 0.03
1 6.95 695 -1.202 -9.070 4.204 0.763 27.344 -8.118 260.980 2453.602 -3464.243 1.015 0.115 -0.226 -0.03 -0.54 0.84 0.03
1 6.96 696 -1.422 -9.036 4.133 0.275 26.367 -6.256 95.938 2318.540 -3374.152 1.211 0.085 -0.149 -0.04 -0.54 0.84 0.03
1 6.97 697 -1.341 -9.007 3.941 -1.770 23.682 -4.669 201.019 2318.540 -3374.152 1.115 0.057 0.044 -0.04 -0.54 0.84 0.04
1 6.98 698 -1.532 -8.998 3.797 -3.052 21.668 -3.601 201.019 2318.540 -3374.152 1.290 0.047 0.185 -0.04 -0.54 0.84 0.04
1 6.99 699 -1.571 -9.050 3.735 -4.242 19.745 -1.678 201.019 2393.641 -3374.152 1.311 0.097 0.242 -0.04 -0.54 0.84 0.04
1 7.00 700 -1.762 -9.247 3.615 -4.669 17.792 -1.343 275.970 2318.540 -3434.263 1.484 0.291 0.355 -0.04 -0.54 0.84 0.04
1 7.01 701 -1.824 -9.290 3.630 -6.470 14.130 0.427 275.970 2318.540 -3434.263 1.527 0.331 0.331 -0.04 -0.54 0.84 0.04
1 7.02 702 -1.834 -9.113 3.706 -7.202 11.169 2.045 366.062 2303.549 -3389.142 1.518 0.150 0.244 -0.04 -0.54 0.84 0.04
1 7.03 703 -1.939 -9.295 3.572 -7.599 8.942 3.479 351.071 2288.559 -3434.263 1.603 0.328 0.367 -0.05 -0.54 0.84 0.04
1 7.04 704 -2.016 -9.395 3.500 -8.362 6.439 5.585 381.202 2362.461 -3481.932 1.636 0.419 0.414 -0.05 -0.55 0.84 0.04
1 7.05 705 -2.145 -9.213 3.563 -8.087 5.280 7.568 381.202 2362.461 -3481.932 1.741 0.232 0.338 -0.05 -0.55 0.84 0.04
1 7.06 706 -2.073 -9.213 3.539 -7.324 3.235 10.345 426.322 2437.562 -3481.932 1.643 0.227 0.348 -0.05 -0.55 0.83 0.04
1 7.07 707 -2.078 -9.070 3.376 -6.714 -0.061 11.231 336.231 2302.500 -3421.971 1.621 0.080 0.500 -0.05 -0.55 0.83 0.04
1 7.08 708 -1.877 -8.940 3.433 -7.416 -4.547 12.939 336.231 2302.500 -3421.971 1.392 -0.052 0.432 -0.05 -0.55 0.83 0.04
1 7.09 709 -1.848 -8.873 3.424 -9.247 -6.226 13.886 396.192 2182.578 -3496.922 1.338 -0.123 0.430 -0.05 -0.55 0.83 0.03
1 7.10 710 -1.590 -8.897 3.544 -9.369 -7.233 13.397 396.192 2452.552 -3466.941 1.054 -0.103 0.298 -0.05 -0.55 0.83 0.03
1 7.11 711 -1.556 -8.859 3.409 -9.674 -8.331 12.054 261.280 2497.523 -3496.922 0.977 -0.149 0.406 -0.06 -0.55 0.83 0.03
1 7.12 712 -1.551 -8.825 3.433 -10.162 -8.698 11.353 261.280 2497.523 -3496.922 0.954 -0.187 0.369 -0.06 -0.55 0.83 0.03
1 7.13 713 -1.413 -9.079 3.357 -10.101 -10.071 9.796 351.221 2317.490 -3436.961 0.798 0.062 0.431 -0.06 -0.55 0.83 0.03
1 7.14 714 -1.355 -9.084 3.510 -10.223 -11.231 8.911 471.293 2302.500 -3347.020 0.727 0.062 0.265 -0.06 -0.55 0.83 0.03
1 7.15 715 -1.413 -9.079 3.443 -9.888 -10.895 6.958 471.293 2302.500 -3347.020 0.774 0.053 0.319 -0.06 -0.55 0.83 0.02
1 7.16 716 -1.346 -9.070 3.251 -8.972 -11.261 4.761 501.273 2317.490 -3406.980 0.699 0.038 0.497 -0.06 -0.55 0.83 0.02
1 7.17 717 -1.312 -9.026 3.352 -7.507 -11.688 3.235 351.221 2437.562 -3406.980 0.661 -0.010 0.383 -0.06 -0.55 0.83 0.02
1 7.18 718 -1.168 -9.070 3.189 -7.172 -12.421 2.319 471.293 2377.451 -3347.020 0.514 0.025 0.526 -0.05 -0.55 0.83 0.02
1 7.19 719 -1.077 -8.916 3.275 -7.233 -12.116 1.526 471.293 2377.451 -3347.020 0.423 -0.133 0.429 -0.05 -0.56 0.83 0.02
1 7.20 720 -1.034 -8.926 3.261 -7.050 -11.810 1.617 381.202 2317.490 -3377.000 0.381 -0.127 0.434 -0.05 -0.56 0.83 0.02
1 7.21 721 -1.025 -8.983 3.251 -8.057 -10.468 2.045 276.270 2317.490 -3332.029 0.373 -0.074 0.434 -0.05 -0.56 0.83 0.02
1 7.22 722 -0.895 -9.031 3.395 -8.881 -8.606 1.587 276.270 2317.490 -3332.029 0.244 -0.031 0.278 -0.05 -0.56 0.83 0.02
1 7.23 723 -0.972 -9.180 3.328 -8.118 -6.744 0.427 381.202 2512.513 -3332.029 0.322 0.113 0.333 -0.05 -0.56 0.83 0.02
1 7.24 724 -0.828 -9.184 3.314 -5.798 -8.057 0.092 441.312 2407.582 -3466.941 0.179 0.113 0.336 -0.05 -0.56 0.83 0.02
1 7.25 725 -0.747 -9.232 3.318 -6.042 -8.118 -0.946 441.312 2407.582 -3466.941 0.100 0.157 0.322 -0.05 -0.56 0.83 0.02
1 7.26 726 -0.728 -9.261 3.275 -7.202 -8.606 -1.984 396.192 2332.480 -3317.039 0.092 0.178 0.348 -0.05 -0.56 0.83 0.02
1 7.27 727 -0.718 -9.309 3.247 -8.118 -8.057 -4.242 231.299 2392.441 -3302.049 0.091 0.221 0.366 -0.05 -0.56 0.83 0.02
1 7.28 728 -0.809 -9.328 3.280 -7.446 -8.972 -5.768 336.231 2407.582 -3241.938 0.193 0.235 0.321 -0.05 -0.56 0.83 0.02
1 7.29 729 -0.718 -9.443 3.242 -7.294 -9.247 -6.928 336.231 2407.582 -3241.938 0.115 0.345 0.349 -0.05 -0.56 0.83 0.02
1 7.30 730 -0.881 -9.453 3.352 -7.507 -10.407 -7.446 216.309 2257.529 -3287.059 0.292 0.349 0.229 -0.05 -0.56 0.83 0.02
1 7.31 731 -0.953 -9.328 3.175 -8.514 -10.071 -7.904 231.299 2512.513 -3332.029 0.378 0.220 0.395 -0.05 -0.56 0.83 0.02
1 7.32 732 -1.001 -9.486 3.175 -9.003 -10.559 -9.552 231.299 2512.513 -3332.029 0.441 0.372 0.384 -0.05 -0.56 0.83 0.02
1 7.33 733 -1.188 -9.587 3.304 -9.399 -11.780 -9.918 366.211 2407.582 -3347.020 0.661 0.460 0.228 -0.04 -0.56 0.82 0.02
1 7.34 734 -1.264 -9.639 3.309 -7.538 -12.726 -10.193 396.192 2527.503 -3211.958 0.754 0.507 0.210 -0.04 -0.56 0.82 0.02
1 7.35 735 -1.274 -9.544 3.304 -6.287 -13.519 -10.284 261.280 2377.451 -3317.039 0.779 0.407 0.204 -0.04 -0.57 0.82 0.02
1 7.36 736 -1.307 -9.457 3.318 -4.639 -14.893 -10.071 261.280 2377.451 -3317.039 0.830 0.316 0.182 -0.04 -0.57 0.82 0.02
1 7.37 737 -1.331 -9.333 3.271 -4.272 -16.541 -10.193 171.188 2392.441 -3226.948 0.870 0.189 0.225 -0.04 -0.57 0.82 0.02
1 7.38 738 -1.197 -9.343 3.328 -3.632 -17.059 -8.789 141.208 2332.480 -3317.039 0.753 0.196 0.162 -0.04 -0.57 0.82 0.01
1 7.39 739 -1.140 -9.357 3.084 -4.211 -17.822 -8.270 141.208 2332.480 -3317.039 0.711 0.208 0.401 -0.04 -0.57 0.82 0.01
1 7.40 740 -1.082 -9.328 3.093 -3.479 -17.700 -7.385 216.309 2497.523 -3317.039 0.686 0.173 0.380 -0.03 -0.57 0.82 0.01
1 7.41 741 -1.101 -9.529 3.113 -3.326 -17.487 -6.287 261.280 2452.552 -3317.039 0.720 0.372 0.356 -0.03 -0.57 0.82 0.01
1 7.42 742 -1.020 -9.472 3.184 -3.418 -18.524 -5.066 216.309 2452.552 -3317.039 0.652 0.312 0.280 -0.03 -0.57 0.82 0.01
1 7.43 743 -1.034 -9.524 3.256 -2.808 -18.616 -3.754 216.309 2452.552 -3317.039 0.679 0.362 0.203 -0.03 -0.57 0.82 0.01
1 7.44 744 -0.819 -9.501 3.189 -1.801 -16.876 -4.028 51.267 2362.461 -3256.928 0.474 0.336 0.266 -0.03 -0.57 0.82 0.01
1 7.45 745 -0.862 -9.438 3.127 -0.885 -15.472 -3.296 141.208 2497.523 -3241.938 0.528 0.273 0.326 -0.03 -0.57 0.82 0.01
1 7.46 746 -0.967 -9.347 2.849 -1.404 -14.679 -4.730 141.208 2497.523 -3241.938 0.644 0.181 0.601 -0.03 -0.57 0.82 0.01
1 7.47 747 -1.049 -9.501 2.888 -1.373 -15.839 -5.371 51.267 2617.445 -3226.948 0.736 0.332 0.560 -0.03 -0.57 0.82 0.01
1 7.48 748 -1.140 -9.433 2.777 -0.854 -19.836 -5.371 21.286 2467.542 -3302.049 0.849 0.262 0.663 -0.02 -0.57 0.82 0.01
1 7.49 749 -1.178 -9.568 2.787 -0.824 -22.980 -4.303 201.319 2437.562 -3377.000 0.900 0.394 0.650 -0.02 -0.57 0.82 0.01
1 7.50 750 -1.030 -9.936 2.907 -2.075 -24.658 -2.441 201.319 2437.562 -3377.000 0.763 0.761 0.526 -0.02 -0.57 0.82 0.01
1 7.51 751 -0.814 -10.075 3.117 -2.228 -23.224 -1.343 36.276 2407.582 -3241.938 0.559 0.898 0.310 -0.02 -0.57 0.82 0.01
1 7.52 752 -0.627 -10.032 3.122 1.648 -21.454 2.472 36.276 2407.582 -3391.990 0.381 0.853 0.302 -0.02 -0.57 0.82 0
1 7.53 753 -0.340 -10.367 3.457 2.136 -19.470 6.134 36.276 2407.582 -3391.990 0.100 1.188 -0.034 -0.02 -0.57 0.82 0
1 7.54 754 -0.163 -10.564 3.802 -0.916 -16.205 11.292 -38.675 2571.275 -3245.985 -0.075 1.385 -0.377 -0.02 -0.57 0.82 0
1 7.55 755 0.129 -10.540 3.960 0.153 -8.240 20.111 51.117 2436.363 -3381.047 -0.387 1.362 -0.534 0.01 0.57 -0.82 0
1 7.56 756 0.268 -10.094 3.673 4.822 -3.387 21.820 126.068 2436.363 -3260.976 -0.551 0.918 -0.243 0.02 0.57 -0.82 0
1 7.57 757 0.091 -9.673 3.390 8.118 -0.061 22.278 126.068 2436.363 -3260.976 -0.401 0.501 0.049 0.02 0.57 -0.82 0
1 7.58 758 -0.086 -9.151 3.477 9.155 -0.427 20.752 21.136 2586.265 -3381.047 -0.249 -0.015 -0.024 0.02 0.57 -0.82 0.01
1 7.59 759 -0.393 -9.165 3.457 6.653 -0.885 18.951 21.136 2436.363 -3381.047 0.032 0.006 0.008 0.02 0.57 -0.82 0.01
1 7.60 760 -0.915 -9.390 3.419 2.625 -3.510 16.205 21.136 2436.363 -3381.047 0.530 0.235 0.056 0.02 0.57 -0.82 0.01
1 7.61 761 -0.972 -9.275 3.443 3.998 -7.111 15.289 -38.675 2451.353 -3290.956 0.564 0.124 0.038 0.02 0.57 -0.82 0.01
1 7.62 762 -1.317 -9.041 3.275 8.545 -16.480 13.489 96.087 2361.262 -3381.047 0.869 -0.103 0.222 0.02 0.57 -0.82 0.01
1 7.63 763 -1.322 -9.055 3.127 9.552 -26.184 11.383 -8.694 2451.353 -3320.937 0.860 -0.082 0.385 0.02 0.57 -0.82 0.01
1 7.64 764 -1.255 -9.122 3.395 5.463 -35.584 11.322 -8.694 2451.353 -3320.937 0.787 -0.010 0.131 0.02 0.57 -0.82 0.02
1 7.65 765 -0.919 -9.208 3.922 0.671 -37.537 12.268 111.078 2496.324 -3426.018 0.449 0.080 -0.388 0.02 0.57 -0.82 0.02
1 7.66 766 -0.623 -9.386 4.310 0.671 -30.884 12.665 171.039 2436.363 -3335.927 0.151 0.260 -0.770 0.01 0.56 -0.82 0.02
1 7.67 767 -0.330 -9.548 4.650 3.021 -16.480 14.435 171.039 2436.363 -3335.927 -0.144 0.426 -1.101 0.01 0.56 -0.82 0.02
1 7.68 768 -0.536 -9.395 4.587 4.822 -13.794 14.008 -23.685 2436.363 -3381.047 0.054 0.278 -1.026 0.01 0.56 -0.83 0.03
1 7.69 769 -0.934 -9.218 4.291 7.568 -18.707 10.925 -68.805 2406.232 -3320.937 0.432 0.115 -0.697 0.01 0.56 -0.83 0.03
1 7.70 770 -1.068 -9.295 4.300 8.942 -21.423 9.979 -38.675 2496.324 -3351.067 0.561 0.199 -0.687 0.01 0.56 -0.83 0.03
1 7.71 771 -0.670 -9.127 4.458 10.559 -29.663 10.071 -38.675 2496.324 -3351.067 0.160 0.040 -0.824 0.01 0.56 -0.83 0.03
1 7.72 772 -0.359 -8.969 4.856 8.209 -33.356 9.583 -68.805 2226.350 -3290.956 -0.148 -0.109 -1.198 0.01 0.56 -0.83 0.03
1 7.73 773 -0.005 -8.744 4.793 3.204 -33.508 8.698 -53.815 2391.242 -3381.047 -0.495 -0.326 -1.115 0.01 0.56 -0.83 0.04
1 7.74 774 0.508 -8.844 4.492 -2.899 -31.983 5.585 -53.815 2391.242 -3381.047 -0.996 -0.220 -0.799 0 0.56 -0.83 0.04
1 7.75 775 0.728 -8.955 4.362 -3.967 -32.532 2.655 -68.805 2376.252 -3426.018 -1.201 -0.107 -0.661 0 0.56 -0.83 0.04
1 7.76 776 1.274 -9.007 4.190 -3.143 -33.417 0.183 -128.766 2286.311 -3335.927 -1.697 -0.055 -0.483 -0 0.56 -0.83 0.04
1 7.77 777 1.422 -8.969 4.176 -0.366 -27.557 -1.831 -128.766 2436.363 -3515.959 -1.814 -0.093 -0.465 -0.01 0.56 -0.83 0.04
1 7.78 778 1.901 -8.725 4.147 1.587 -19.074 -2.777 -128.766 2436.363 -3515.959 -2.260 -0.336 -0.429 -0.01 0.56 -0.83 0.04
1 7.79 779 1.743 -8.844 4.104 1.831 -10.864 -2.594 -233.698 2391.242 -3260.976 -2.071 -0.213 -0.377 -0.01 0.56 -0.83 0.04
1 7.80 780 1.413 -8.749 3.821 -0.031 -6.104 -2.380 -98.786 2241.340 -3335.927 -1.715 -0.307 -0.087 -0.01 0.56 -0.83 0.04
1 7.81 781 1.288 -8.916 3.745 -1.617 -4.974 -1.678 -98.786 2241.340 -3335.927 -1.569 -0.138 -0.007 -0.01 0.56 -0.83 0.04
1 7.82 782 1.173 -9.146 3.864 -2.411 -8.545 -2.991 -113.776 2376.252 -3351.067 -1.436 0.091 -0.126 -0.01 0.56 -0.83 0.04
1 7.83 783 1.092 -9.204 3.869 -1.801 -9.308 -5.402 -113.776 2376.252 -3351.067 -1.335 0.148 -0.131 -0.01 0.56 -0.83 0.04
1 7.84 784 0.939 -9.290 3.855 -0.153 -10.254 -10.010 -218.708 2406.232 -3290.956 -1.132 0.233 -0.115 -0.02 0.56 -0.83 0.04
1 7.85 785 1.015 -9.228 3.797 0.397 -9.857 -13.489 -218.708 2406.232 -3290.956 -1.178 0.172 -0.055 -0.02 0.56 -0.83 0.04
1 7.86 786 0.781 -9.127 3.615 -0.977 -10.956 -15.076 -143.756 2496.324 -3320.937 -0.910 0.071 0.129 -0.02 0.56 -0.83 0.04
1 7.87 787 0.934 -9.026 3.596 -2.747 -12.482 -16.205 -173.737 2436.363 -3335.927 -1.027 -0.030 0.147 -0.02 0.56 -0.83 0.04
1 7.88 788 1.212 -9.050 3.611 -5.432 -12.634 -17.883 -173.737 2436.363 -3335.927 -1.266 -0.008 0.129 -0.02 0.56 -0.83 0.04
1 7.89 789 1.427 -9.127 3.821 -6.928 -10.407 -20.081 -218.708 2406.232 -3396.038 -1.439 0.065 -0.090 -0.03 0.56 -0.83 0.04
1 7.90 790 1.456 -9.376 3.912 -6.928 -7.538 -19.226 -218.708 2406.232 -3396.038 -1.423 0.311 -0.188 -0.03 0.56 -0.83 0.04
1 7.91 791 1.298 -9.501 3.749 -4.578 -2.502 -17.487 -98.786 2361.262 -3305.946 -1.183 0.430 -0.040 -0.03 0.56 -0.83 0.04
1 7.92 792 1.116 -9.592 3.630 -1.740 -0.977 -14.130 -98.786 2361.262 -3305.946 -0.967 0.520 0.075 -0.03 0.56 -0.83 0.03
1 7.93 793 1.178 -9.524 3.462 1.862 -0.458 -10.132 -383.750 2391.242 -3411.028 -1.003 0.453 0.242 -0.03 0.56 -0.83 0.03
1 7.94 794 1.408 -9.309 3.529 3.296 -0.824 -6.531 -308.799 2391.242 -3305.946 -1.211 0.239 0.178 -0.03 0.56 -0.83 0.03
1 7.95 795 1.461 -9.194 3.548 3.082 0.519 -2.655 -308.799 2391.242 -3305.946 -1.245 0.127 0.163 -0.03 0.56 -0.83 0.03
1 7.96 796 1.451 -9.036 3.639 3.876 5.310 0.275 -353.770 2511.314 -3441.008 -1.224 -0.029 0.077 -0.03 0.56 -0.83 0.03
1 7.97 797 1.384 -8.974 3.477 4.944 4.517 2.655 -353.770 2511.314 -3441.008 -1.149 -0.089 0.246 -0.03 0.56 -0.83 0.03
1 7.98 798 1.441 -8.821 3.515 6.683 2.838 4.059 -353.770 2316.291 -3260.976 -1.202 -0.239 0.215 -0.03 0.56 -0.83 0.03
1 7.99 799 1.571 -8.720 3.510 6.287 2.197 5.524 -308.799 2196.219 -3335.927 -1.327 -0.331 0.239 -0.03 0.55 -0.83 0.03
1 8.00 800 1.532 -8.830 3.496 4.639 4.150 5.676 -278.818 2361.262 -3230.995 -1.287 -0.217 0.263 -0.03 0.55 -0.83 0.03
1 8.01 801 1.623 -8.677 3.529 1.831 6.256 5.280 -263.678 2376.252 -3426.018 -1.378 -0.368 0.236 -0.03 0.55 -0.83 0.03
1 8.02 802 1.446 -8.773 3.424 -0.214 8.606 5.798 -263.678 2376.252 -3426.018 -1.202 -0.270 0.345 -0.03 0.55 -0.83 0.03
1 8.03 803 1.437 -8.734 3.563 -2.563 7.843 5.981 -188.727 2301.301 -3290.956 -1.195 -0.309 0.206 -0.03 0.55 -0.83 0.03
1 8.04 804 1.456 -8.878 3.438 -3.204 6.622 6.561 -188.727 2301.301 -3290.956 -1.217 -0.167 0.327 -0.03 0.55 -0.83 0.03
1 8.05 805 1.609 -8.777 3.395 -1.923 10.010 6.073 -368.760 2406.232 -3426.018 -1.373 -0.269 0.366 -0.03 0.55 -0.83 0.03
1 8.06 806 1.528 -8.581 3.208 -2.716 20.264 7.324 -233.698 2316.291 -3335.927 -1.301 -0.468 0.547 -0.03 0.55 -0.83 0.03
1 8.07 807 1.255 -8.619 3.026 -3.571 25.299 8.057 -263.678 2301.301 -3396.038 -1.040 -0.431 0.726 -0.03 0.55 -0.83 0.03
1 8.08 808 1.068 -8.710 2.959 -6.409 22.430 9.308 -278.818 2316.291 -3260.976 -0.870 -0.343 0.786 -0.03 0.56 -0.83 0.03
1 8.09 809 1.144 -8.902 3.184 -8.637 16.968 9.277 -278.818 2316.291 -3260.976 -0.965 -0.157 0.550 -0.03 0.56 -0.83 0.03
1 8.10 810 1.183 -8.945 3.295 -8.209 16.815 7.568 -233.698 2361.262 -3381.047 -1.018 -0.120 0.425 -0.03 0.56 -0.83 0.02
1 8.11 811 1.020 -8.974 3.342 -7.996 23.865 8.514 -233.698 2361.262 -3381.047 -0.868 -0.097 0.365 -0.03 0.56 -0.83 0.02
1 8.12 812 0.900 -8.983 3.261 -9.522 27.649 11.658 -308.799 2361.262 -3411.028 -0.764 -0.092 0.435 -0.02 0.56 -0.83 0.02
1 8.13 813 0.824 -9.046 3.007 -12.054 28.137 15.656 -68.805 2331.281 -3320.937 -0.739 -0.042 0.661 -0.02 0.56 -0.83 0.02
1 8.14 814 0.804 -9.026 3.089 -12.177 27.405 15.595 -203.717 2391.242 -3485.979 -0.750 -0.068 0.561 -0.02 0.56 -0.83 0.02
1 8.15 815 0.785 -9.055 3.113 -11.963 24.658 17.914 -143.756 2451.353 -3320.937 -0.762 -0.047 0.519 -0.02 0.56 -0.83 0.02
1 8.16 816 0.771 -9.170 3.160 -13.214 25.238 18.555 -143.756 2451.353 -3320.937 -0.780 0.060 0.452 -0.01 0.56 -0.83 0.02
1 8.17 817 0.694 -9.218 3.362 -13.977 27.100 18.127 -68.805 2451.353 -3396.038 -0.735 0.100 0.231 -0.01 0.56 -0.83 0.02
1 8.18 818 0.105 -9.433 3.769 -16.174 25.452 13.763 -68.805 2451.353 -3396.038 -0.179 0.308 -0.196 -0.01 0.56 -0.83 0.02
1 8.19 819 -0.278 -9.702 3.850 -17.853 22.430 4.913 -38.675 2526.304 -3396.038 0.173 0.569 -0.298 -0.01 0.56 -0.83 0.02
1 8.20 820 -0.623 -9.582 3.443 -16.510 18.646 -7.813 -68.805 2406.232 -3320.937 0.488 0.432 0.064 -0 0.57 -0.82 0.02
1 8.21 821 -0.589 -9.544 3.180 -14.801 18.158 -9.735 -53.815 2316.291 -3485.979 0.454 0.385 0.306 -0 0.57 -0.82 0.02
1 8.22 822 -0.541 -9.524 3.266 -12.085 8.179 -8.270 -38.675 2451.353 -3245.985 0.408 0.359 0.200 -0 0.57 -0.82 0.02
1 8.23 823 -0.139 -9.582 3.472 -13.947 -2.777 -4.822 -38.675 2451.353 -3245.985 0.010 0.409 -0.024 -0 0.57 -0.82 0.02
1 8.24 824 0.532 -9.726 3.764 -17.883 -8.514 -3.326 -53.815 2466.343 -3230.995 -0.651 0.546 -0.335 -0 0.57 -0.82 0.02
1 8.25 825 1.087 -9.692 3.749 -19.562 -1.770 1.862 -53.815 2466.343 -3230.995 -1.194 0.503 -0.345 -0 0.57 -0.82 0.02
1 8.26 826 1.365 -9.572 3.884 -15.289 9.766 3.510 -23.685 2466.343 -3335.927 -1.461 0.374 -0.504 -0 0.57 -0.82 0.02
1 8.27 827 1.140 -9.524 3.778 -10.193 18.707 2.258 -8.694 2526.304 -3426.018 -1.233 0.319 -0.419 -0 0.57 -0.82 0.01
1 8.28 828 0.943 -9.256 3.582 -5.829 22.186 2.106 126.068 2466.343 -3335.927 -1.043 0.044 -0.241 -0 0.57 -0.82 0.01
1 8.29 829 0.915 -9.443 3.400 -6.226 23.193 2.960 66.107 2571.275 -3216.005 -1.020 0.229 -0.064 -0 0.57 -0.82 0.01
1 8.30 830 0.804 -9.601 3.529 -7.446 27.435 1.709 66.107 2571.275 -3216.005 -0.918 0.384 -0.201 0 0.57 -0.82 0.01
1 8.31 831 0.378 -9.855 3.534 -8.331 36.011 -0.336 21.136 2511.314 -3305.946 -0.501 0.635 -0.215 0 0.58 -0.82 0.01
1 8.32 832 0.125 -9.999 3.419 -7.904 47.150 -6.104 21.136 2511.314 -3305.946 -0.259 0.775 -0.110 0 0.58 -0.82 0.01
1 8.33 833 -0.685 -10.085 3.587 -6.195 46.662 -9.125 96.087 2511.314 -3230.995 0.537 0.857 -0.289 0.01 0.58 -0.82 0
1 8.34 834 -1.063 -9.955 3.587 -3.937 41.138 -11.841 216.159 2601.255 -3171.034 0.904 0.725 -0.299 0.01 0.58 -0.82 0
1 8.35 835 -1.106 -9.927 3.821 -0.183 26.520 -14.679 96.087 2586.265 -3201.015 0.932 0.694 -0.540 -0.01 -0.58 0.82 0
1 8.36 836 -0.833 -9.553 3.975 1.434 19.501 -14.069 231.149 2661.216 -3156.044 0.662 0.322 -0.689 -0.02 -0.58 0.82 0.01
1 8.37 837 -0.713 -9.520 4.185 4.242 17.731 -13.672 231.149 2661.216 -3156.044 0.547 0.291 -0.892 -0.02 -0.58 0.82 0.01
1 8.38 838 -0.690 -9.338 4.281 7.141 20.569 -13.428 201.169 2361.262 -3201.015 0.530 0.114 -0.975 -0.02 -0.58 0.82 0.01
1 8.39 839 -0.661 -9.237 4.367 9.979 23.834 -11.932 201.169 2361.262 -3201.015 0.506 0.019 -1.043 -0.02 -0.57 0.82 0.01
1 8.40 840 -0.895 -9.280 4.262 9.888 27.802 -8.392 36.126 2526.304 -3245.985 0.741 0.070 -0.916 -0.02 -0.57 0.82 0.01
1 8.41 841 -1.063 -9.410 4.176 8.392 28.198 -5.432 66.107 2496.324 -3216.005 0.903 0.208 -0.808 -0.02 -0.57 0.82 0.01
1 8.42 842 -1.255 -9.386 3.922 7.904 27.161 -1.678 66.107 2496.324 -3216.005 1.083 0.191 -0.535 -0.02 -0.57 0.82 0.02
1 8.43 843 -1.379 -9.266 3.711 8.057 26.428 5.127 66.107 2406.232 -3245.985 1.165 0.084 -0.292 -0.03 -0.57 0.82 0.02
1 8.44 844 -1.580 -9.194 3.620 7.233 26.093 9.552 66.107 2406.232 -3245.985 1.336 0.019 -0.186 -0.03 -0.57 0.82 0.02
1 8.45 845 -1.566 -9.161 3.395 3.479 24.292 12.451 186.029 2451.353 -3171.034 1.285 -0.010 0.049 -0.03 -0.57 0.82 0.02
1 8.46 846 -1.681 -9.343 3.271 0.305 21.179 14.069 186.029 2451.353 -3171.034 1.360 0.175 0.178 -0.03 -0.57 0.82 0.02
1 8.47 847 -1.652 -9.433 3.342 -1.953 17.578 14.160 291.110 2376.252 -3216.005 1.291 0.267 0.104 -0.04 -0.57 0.82 0.02
1 8.48 848 -1.599 -9.395 3.213 -1.190 15.442 13.031 201.169 2511.314 -3260.976 1.200 0.229 0.230 -0.04 -0.57 0.82 0.02
1 8.49 849 -1.801 -9.386 3.247 0.641 13.886 12.146 201.169 2511.314 -3260.976 1.366 0.219 0.192 -0.04 -0.57 0.82 0.02
1 8.50 850 -1.738 -9.424 3.223 2.350 12.756 11.322 216.159 2406.232 -3351.067 1.271 0.259 0.215 -0.04 -0.57 0.82 0.02
1 8.51 851 -1.853 -9.161 3.314 3.296 12.054 10.254 396.492 2570.226 -3249.283 1.323 0.000 0.128 -0.04 -0.57 0.82 0.02
1 8.52 852 -2.040 -9.108 3.290 3.021 11.780 9.918 336.531 2405.183 -3144.352 1.480 -0.049 0.156 -0.05 -0.57 0.82 0.02
1 8.53 853 -2.241 -8.993 3.170 2.502 10.101 9.644 336.531 2405.183 -3144.352 1.651 -0.161 0.279 -0.05 -0.57 0.82 0.02
1 8.54 854 -2.222 -8.825 3.113 1.587 7.355 10.437 306.550 2435.164 -3159.342 1.602 -0.326 0.339 -0.05 -0.57 0.82 0.02
1 8.55 855 -2.284 -8.782 3.113 1.129 2.014 10.956 351.521 2510.265 -3159.342 1.634 -0.366 0.340 -0.05 -0.57 0.82 0.01
1 8.56 856 -2.140 -8.792 3.050 1.038 -1.617 10.101 351.521 2510.265 -3159.342 1.462 -0.354 0.404 -0.05 -0.57 0.82 0.01
1 8.57 857 -1.973 -8.849 3.213 -0.549 -6.226 9.125 516.563 2570.226 -3219.303 1.246 -0.293 0.242 -0.05 -0.57 0.82 0.01
1 8.58 858 -1.872 -8.974 3.089 0.122 -9.460 7.324 516.563 2570.226 -3219.303 1.127 -0.167 0.367 -0.05 -0.57 0.82 0.01
1 8.59 859 -1.642 -8.964 2.993 0.702 -12.054 5.676 291.560 2450.154 -3249.283 0.886 -0.175 0.463 -0.05 -0.57 0.82 0.01
1 8.60 860 -1.575 -8.912 3.017 1.007 -15.198 3.784 291.560 2450.154 -3249.283 0.811 -0.226 0.441 -0.05 -0.57 0.82 0.01
1 8.61 861 -1.365 -8.782 3.055 1.068 -17.395 3.082 471.443 2330.232 -3144.352 0.598 -0.354 0.405 -0.05 -0.57 0.82 0.01
1 8.62 862 -1.121 -8.739 3.414 -0.031 -17.578 3.418 501.423 2390.193 -3159.342 0.354 -0.397 0.049 -0.05 -0.57 0.82 0.01
1 8.63 863 -0.895 -8.768 3.237 -1.709 -14.008 3.357 501.423 2390.193 -3159.342 0.131 -0.367 0.228 -0.05 -0.57 0.82 0.01
1 8.64 864 -0.723 -9.007 3.390 -3.113 -7.172 3.021 456.453 2465.144 -3234.293 -0.039 -0.128 0.076 -0.05 -0.57 0.82 0
1 8.65 865 -0.843 -8.859 3.400 -2.411 -4.852 3.082 456.453 2465.144 -3234.293 0.080 -0.277 0.064 -0.05 -0.57 0.82 0
1 8.66 866 -0.737 -9.031 3.462 -1.038 -1.190 2.625 381.501 2435.164 -3414.326 -0.027 -0.104 0.002 -0.05 -0.57 0.82 0
1 8.67 867 -0.900 -9.146 3.453 -0.793 -1.465 1.038 381.501 2435.164 -3414.326 0.135 0.011 0.011 -0.05 -0.57 0.82 0
1 8.68 868 -0.982 -9.232 3.390 -1.770 -2.289 -0.549 366.511 2450.154 -3174.332 0.215 0.097 0.073 -0.05 -0.57 0.82 0
1 8.69 869 -1.082 -9.390 3.462 -2.533 -5.554 -1.770 306.550 2435.164 -3234.293 0.318 0.254 -0.000 -0.05 -0.57 0.82 0
1 8.70 870 -0.833 -9.405 3.467 -1.129 -6.714 -2.411 306.550 2435.164 -3234.293 0.073 0.267 -0.007 -0.05 -0.57 0.82 0
1 8.71 871 -0.742 -9.285 3.357 0.580 -6.989 -1.862 336.531 2450.154 -3294.254 -0.012 0.147 0.102 -0.05 -0.57 0.82 0
1 8.72 872 -0.627 -9.094 3.381 0.580 -6.439 -2.075 396.492 2450.154 -3354.365 -0.112 -0.044 0.083 -0.05 -0.57 0.82 0
1 8.73 873 -0.776 -9.161 3.342 -1.099 -5.402 -2.289 381.501 2360.212 -3309.394 0.044 0.023 0.124 -0.05 -0.57 0.82 0
1 8.74 874 -0.876 -9.161 3.347 -2.960 -4.913 -2.716 381.501 2360.212 -3309.394 0.152 0.022 0.118 -0.05 -0.57 0.82 0
1 8.75 875 -0.977 -9.156 3.247 -2.716 -5.951 -2.319 351.521 2465.144 -3234.293 0.259 0.016 0.216 -0.05 -0.57 0.82 0
1 8.76 876 -1.245 -9.247 3.271 -2.563 -7.263 -2.563 216.459 2450.154 -3249.283 0.533 0.105 0.189 -0.05 -0.57 0.82 0
1 8.77 877 -1.231 -9.117 3.165 -3.174 -8.423 -2.808 216.459 2450.154 -3249.283 0.523 -0.025 0.292 -0.05 -0.57 0.82 0
1 8.78 878 -1.379 -9.213 3.141 -3.448 -8.423 -3.510 366.511 2495.274 -3219.303 0.676 0.069 0.313 -0.04 -0.57 0.82 0
1 8.79 879 -1.542 -9.137 3.041 -4.242 -10.040 -3.204 261.430 2570.226 -3174.332 0.850 -0.012 0.404 -0.04 -0.57 0.82 0
1 8.80 880 -1.686 -9.271 2.964 -5.219 -11.993 -3.876 336.531 2405.183 -3144.352 0.998 0.119 0.474 -0.04 -0.57 0.82 0
1 8.81 881 -1.638 -9.266 2.940 -6.622 -13.001 -4.150 336.531 2405.183 -3144.352 0.955 0.111 0.490 -0.04 -0.57 0.82 0
1 8.82 882 -1.738 -9.247 2.950 -7.782 -14.496 -4.578 201.469 2360.212 -3234.293 1.062 0.088 0.470 0.04 0.57 -0.82 0
1 8.83 883 -1.619 -9.194 2.988 -7.935 -15.839 -5.585 306.550 2360.212 -3264.273 0.950 0.030 0.420 0.04 0.57 -0.82 0
1 8.84 884 -1.844 -9.156 3.046 -8.362 -20.508 -5.981 306.550 2360.212 -3264.273 1.184 -0.013 0.352 0.04 0.57 -0.82 0
1 8.85 885 -1.623 -9.103 2.950 -8.789 -22.156 -6.195 201.469 2585.216 -3159.342 0.976 -0.071 0.436 0.04 0.57 -0.82 0
1 8.86 886 -1.518 -9.122 3.007 -8.789 -22.675 -6.256 231.449 2540.245 -3339.375 0.882 -0.056 0.367 0.04 0.57 -0.82 0
1 8.87 887 -1.489 -9.213 3.127 -8.820 -20.966 -8.026 186.479 2525.255 -3294.254 0.883 0.024 0.226 0.03 0.57 -0.82 0
1 8.88 888 -1.398 -9.194 2.964 -7.324 -21.698 -7.690 186.479 2525.255 -3294.254 0.808 0.001 0.378 0.03 0.57 -0.82 0.01
1 8.89 889 -1.346 -9.165 3.108 -6.531 -22.888 -7.324 216.459 2405.183 -3174.332 0.772 -0.032 0.226 0.03 0.57 -0.82 0.01
1 8.90 890 -1.240 -9.271 3.227 -6.714 -23.773 -7.111 171.488 2360.212 -3204.312 0.682 0.069 0.099 0.03 0.57 -0.82 0.01
1 8.91 891 -1.092 -9.429 3.041 -8.514 -23.743 -7.843 171.488 2360.212 -3204.312 0.552 0.224 0.278 0.03 0.57 -0.82 0.01
1 8.92 892 -1.087 -9.625 3.084 -8.179 -25.055 -7.263 186.479 2450.154 -3249.283 0.566 0.416 0.227 0.03 0.57 -0.82 0.01
1 8.93 893 -0.848 -9.625 3.184 -7.446 -25.696 -5.554 216.459 2600.206 -3144.352 0.346 0.411 0.116 0.03 0.58 -0.82 0.01
1 8.94 894 -0.704 -9.582 3.170 -6.226 -25.147 -4.150 51.566 2510.265 -3204.312 0.238 0.360 0.113 0.02 0.58 -0.82 0.01
1 8.95 895 -0.469 -9.563 3.247 -5.737 -22.400 -4.425 51.566 2510.265 -3204.312 0.021 0.338 0.030 0.02 0.58 -0.82 0.01
1 8.96 896 -0.397 -9.630 3.328 -5.585 -19.867 -4.028 36.426 2570.226 -3099.381 -0.034 0.402 -0.058 0.02 0.58 -0.82 0.01
1 8.97 897 -0.464 -9.592 3.405 -4.669 -16.907 -2.869 66.557 2525.255 -3294.254 0.049 0.361 -0.140 0.02 0.58 -0.82 0.01
1 8.98 898 -0.455 -9.625 3.208 -3.021 -15.228 -1.373 66.557 2525.255 -3294.254 0.051 0.392 0.052 0.02 0.58 -0.82 0.01
1 8.99 899 -0.761 -9.577 3.242 -1.740 -12.878 -0.366 111.527 2495.274 -3144.352 0.367 0.343 0.016 0.01 0.58 -0.82 0.01
1 9.00 900 -0.742 -9.601 3.242 -3.357 -14.191 0.092 -53.365 2465.144 -3159.342 0.355 0.366 0.015 0.01 0.58 -0.82 0.01
1 9.01 901 -0.804 -9.606 3.127 -4.913 -15.076 0.702 -128.616 2433.515 -3314.940 0.427 0.368 0.123 0.01 0.58 -0.82 0.02
1 9.02 902 -0.867 -9.649 3.084 -4.211 -16.205 0.366 -128.616 2433.515 -3314.940 0.494 0.409 0.160 0.01 0.58 -0.82 0.02
1 9.03 903 -0.895 -9.726 3.151 -2.350 -15.839 1.160 -38.525 2718.479 -3104.927 0.527 0.484 0.089 0.01 0.58 -0.82 0.02
1 9.04 904 -0.915 -9.572 3.127 -0.244 -14.557 1.099 -8.544 2523.456 -3254.979 0.549 0.330 0.111 0.01 0.58 -0.82 0.02
1 9.05 905 -0.709 -9.678 3.017 0.977 -13.672 0.854 -8.544 2523.456 -3254.979 0.346 0.435 0.222 0.01 0.58 -0.82 0.02
1 9.06 906 -0.790 -9.682 3.146 0.275 -12.512 1.343 -53.515 2613.547 -3164.888 0.431 0.441 0.094 0.01 0.58 -0.82 0.02
1 9.07 907 -0.857 -9.582 3.055 0.702 -12.665 2.014 -23.535 2508.466 -3164.888 0.499 0.340 0.186 0.01 0.58 -0.82 0.02
1 9.08 908 -0.828 -9.668 2.907 2.533 -12.512 0.763 -23.535 2463.495 -3059.957 0.473 0.428 0.337 0.01 0.58 -0.82 0.02
1 9.09 909 -0.958 -9.802 3.098 2.777 -12.817 0.854 -23.535 2463.495 -3059.957 0.605 0.562 0.149 0 0.58 -0.82 0.02
1 9.10 910 -0.934 -9.706 3.137 3.448 -15.289 0.336 -98.486 2463.495 -3164.888 0.584 0.468 0.115 0 0.58 -0.82 0.02
1 9.11 911 -0.958 -9.697 3.031 3.479 -16.663 0.580 -53.515 2583.567 -3210.009 0.611 0.460 0.226 0 0.58 -0.82 0.03
1 9.12 912 -0.886 -9.860 2.955 3.723 -17.792 0.671 -53.515 2583.567 -3210.009 0.543 0.625 0.307 0 0.58 -0.82 0.03
1 9.13 913 -0.809 -9.864 3.026 5.005 -17.731 2.747 -143.606 2523.456 -3149.898 0.470 0.631 0.240 0 0.58 -0.82 0.03
1 9.14 914 -0.795 -9.802 3.146 6.805 -16.998 4.669 -23.535 2538.446 -3210.009 0.458 0.571 0.126 0 0.58 -0.82 0.03
1 9.15 915 -0.685 -9.764 3.232 7.355 -16.876 5.737 -23.535 2538.446 -3210.009 0.349 0.536 0.049 -0 0.58 -0.82 0.03
1 9.16 916 -0.402 -9.965 3.558 6.317 -14.313 8.453 -68.505 2448.505 -3044.966 0.062 0.745 -0.255 -0 0.58 -0.82 0.03
1 9.17 917 -0.488 -10.070 3.615 7.080 -12.756 10.681 66.257 2568.577 -3359.911 0.142 0.854 -0.301 -0 0.58 -0.82 0.03
1 9.18 918 -0.263 -10.209 3.668 9.552 -10.376 11.810 -53.515 2433.515 -3210.009 -0.091 0.998 -0.341 -0 0.57 -0.82 0.03
1 9.19 919 -0.273 -9.812 3.649 12.146 -8.118 11.719 -53.515 2433.515 -3210.009 -0.093 0.607 -0.306 -0 0.57 -0.82 0.04
1 9.20 920 -0.503 -9.366 3.199 14.862 -7.904 12.665 -143.606 2568.577 -3179.878 0.126 0.169 0.164 -0 0.57 -0.82 0.04
1 9.21 921 -0.651 -9.266 3.069 11.963 -8.209 10.986 -203.567 2463.495 -3134.908 0.261 0.077 0.315 -0 0.57 -0.82 0.04
1 9.22 922 -0.919 -9.184 2.916 8.392 -10.590 10.254 -203.567 2463.495 -3134.908 0.517 0.003 0.486 -0 0.57 -0.82 0.04
1 9.23 923 -1.135 -9.098 3.002 3.418 -20.172 10.437 -188.577 2493.476 -3179.878 0.713 -0.075 0.420 -0 0.57 -0.82 0.04
1 9.24 924 -0.895 -9.122 3.137 2.411 -26.032 9.888 -143.606 2493.476 -3224.999 0.466 -0.049 0.290 -0 0.57 -0.82 0.04
1 9.25 925 -0.560 -9.060 3.151 2.289 -26.245 8.850 -128.616 2433.515 -3210.009 0.128 -0.109 0.281 -0.01 0.57 -0.82 0.05
1 9.26 926 -0.249 -9.132 3.352 3.265 -21.607 9.064 -128.616 2433.515 -3210.009 -0.183 -0.036 0.084 -0.01 0.57 -0.82 0.05
1 9.27 927 -0.369 -9.189 3.419 3.540 -13.641 9.522 -38.525 2523.456 -3299.950 -0.065 0.024 0.024 -0.01 0.57 -0.82 0.05
1 9.28 928 -0.441 -9.266 3.362 3.845 -8.362 10.010 -203.567 2463.495 -3314.940 0.002 0.104 0.089 -0.01 0.57 -0.82 0.05
1 9.29 929 -0.570 -9.194 3.275 4.211 -11.719 9.277 -203.567 2463.495 -3314.940 0.123 0.035 0.182 -0.01 0.57 -0.82 0.05
1 9.30 930 -0.417 -9.237 3.347 4.822 -16.998 8.698 -143.606 2403.534 -3179.878 -0.037 0.081 0.117 -0.01 0.57 -0.82 0.05
1 9.31 931 -0.125 -9.252 3.520 3.754 -17.487 7.599 -23.535 2463.495 -3239.989 -0.334 0.102 -0.040 -0.01 0.57 -0.82 0.05
1 9.32 932 -0.043 -9.161 3.687 2.350 -13.641 5.035 -218.558 2373.554 -3179.878 -0.414 0.013 -0.200 -0.01 0.57 -0.82 0.06
1 9.33 933 -0.048 -9.290 3.692 0.061 -11.231 3.143 -218.558 2373.554 -3179.878 -0.405 0.145 -0.198 -0.01 0.57 -0.82 0.06
1 9.34 934 -0.259 -9.457 3.620 -1.801 -12.238 1.282 -308.499 2313.443 -3269.970 -0.189 0.313 -0.124 -0.01 0.57 -0.82 0.06
1 9.35 935 -0.445 -9.400 3.836 -2.655 -18.860 -1.526 -188.577 2523.456 -3254.979 0.006 0.255 -0.340 -0.01 0.57 -0.82 0.06
1 9.36 936 -0.560 -9.343 3.860 -1.465 -23.529 -4.303 -188.577 2523.456 -3254.979 0.132 0.197 -0.364 -0.01 0.57 -0.82 0.06
1 9.37 937 -0.450 -9.376 4.224 -0.732 -26.703 -4.669 -173.587 2508.466 -3164.888 0.040 0.231 -0.726 -0.02 0.57 -0.82 0.06
1 9.38 938 -0.393 -9.165 4.300 -0.275 -27.802 -4.242 -263.528 2448.505 -3299.950 0.025 0.023 -0.791 -0.02 0.57 -0.82 0.06
1 9.39 939 -0.081 -9.252 4.319 1.556 -27.222 -1.923 -218.558 2493.476 -3299.950 -0.266 0.111 -0.802 -0.02 0.57 -0.82 0.06
1 9.40 940 0.101 -9.026 4.008 4.364 -26.825 -0.031 -218.558 2493.476 -3299.950 -0.429 -0.111 -0.480 -0.02 0.57 -0.82 0.06
1 9.41 941 0.469 -8.859 3.840 7.080 -26.825 3.143 -338.479 2328.433 -3254.979 -0.780 -0.273 -0.299 -0.03 0.56 -0.82 0.06
1 9.42 942 0.886 -8.715 3.611 9.308 -26.642 5.341 -308.499 2388.544 -3210.009 -1.181 -0.411 -0.052 -0.03 0.56 -0.82 0.07
1 9.43 943 1.470 -8.552 3.644 8.301 -23.529 9.979 -308.499 2388.544 -3210.009 -1.751 -0.567 -0.068 -0.03 0.56 -0.82 0.07
1 9.44 944 1.954 -8.763 3.563 4.761 -18.372 12.756 -233.548 2388.544 -3269.970 -2.222 -0.350 0.031 -0.03 0.56 -0.82 0.07
1 9.45 945 2.361 -9.180 3.793 -0.610 -9.125 16.510 -173.587 2388.544 -3269.970 -2.616 0.073 -0.181 -0.03 0.56 -0.82 0.07
1 9.46 946 2.552 -9.453 3.812 -2.838 -3.723 17.242 -338.479 2373.554 -3299.950 -2.807 0.347 -0.199 -0.03 0.56 -0.82 0.07
1 9.47 947 2.490 -9.778 3.788 -1.556 -0.854 13.855 -338.479 2373.554 -3299.950 -2.745 0.672 -0.176 -0.03 0.56 -0.82 0.07
1 9.48 948 2.476 -9.730 3.975 1.648 -0.336 7.996 -338.479 2403.534 -3224.999 -2.726 0.624 -0.362 -0.03 0.56 -0.82 0.07
1 9.49 949 2.059 -9.726 3.931 4.211 1.007 -0.610 -233.548 2433.515 -3314.940 -2.307 0.621 -0.314 -0.03 0.56 -0.82 0.07
1 9.50 950 1.753 -9.467 3.970 8.698 6.073 -14.526 -233.548 2433.515 -3314.940 -1.978 0.366 -0.343 -0.03 0.56 -0.82 0.07
1 9.51 951 1.355 -9.266 3.970 10.986 7.233 -21.973 -203.567 2463.495 -3269.970 -1.549 0.169 -0.329 -0.04 0.56 -0.83 0.07
1 9.52 952 0.948 -9.041 3.893 7.568 6.470 -29.083 -263.528 2403.534 -3329.931 -1.060 -0.044 -0.219 -0.04 0.56 -0.83 0.07
1 9.53 953 0.919 -8.983 3.826 6.348 6.134 -29.602 -263.528 2253.482 -3254.979 -0.985 -0.096 -0.139 -0.04 0.56 -0.83 0.06
1 9.54 954 0.972 -9.180 3.673 3.082 3.326 -31.952 -263.528 2253.482 -3254.979 -0.990 0.103 0.023 -0.04 0.56 -0.83 0.06
1 9.55 955 0.939 -9.228 3.797 2.167 3.235 -31.433 -308.499 2388.544 -3269.970 -0.906 0.154 -0.096 -0.04 0.56 -0.83 0.06
1 9.56 956 1.049 -9.223 3.711 3.174 4.059 -26.886 -458.551 2238.492 -3269.970 -0.968 0.151 -0.004 -0.04 0.56 -0.83 0.06
1 9.57 957 1.034 -9.304 3.697 4.761 5.341 -23.224 -459.601 2236.393 -3276.116 -0.909 0.235 0.016 -0.04 0.56 -0.83 0.05
1 9.58 958 1.039 -9.151 3.572 5.798 4.730 -18.372 -309.548 2386.295 -3216.155 -0.875 0.086 0.147 -0.04 0.56 -0.83 0.05
1 9.59 959 1.130 -9.208 3.486 5.981 4.639 -13.886 -309.548 2386.295 -3216.155 -0.934 0.147 0.242 -0.05 0.55 -0.83 0.05
1 9.60 960 1.360 -9.132 3.433 6.378 5.920 -6.470 -384.500 2236.393 -3276.116 -1.119 0.078 0.310 -0.05 0.55 -0.83 0.05
1 9.61 961 1.480 -8.878 3.357 6.226 7.477 -3.296 -384.500 2236.393 -3276.116 -1.225 -0.172 0.395 -0.05 0.55 -0.83 0.05
1 9.62 962 1.475 -8.959 3.328 6.409 9.613 -0.214 -279.568 2461.396 -3351.067 -1.213 -0.086 0.433 -0.05 0.55 -0.83 0.05
1 9.63 963 1.432 -8.892 3.266 4.883 9.949 3.204 -369.509 2251.383 -3231.145 -1.166 -0.150 0.503 -0.05 0.55 -0.83 0.04
1 9.64 964 1.437 -9.026 3.419 2.808 10.620 5.981 -369.509 2251.383 -3231.145 -1.173 -0.013 0.356 -0.05 0.55 -0.83 0.04
1 9.65 965 1.484 -9.189 3.366 2.258 9.735 7.233 -384.500 2356.315 -3216.155 -1.226 0.151 0.412 -0.05 0.55 -0.83 0.04
1 9.66 966 1.700 -9.003 3.362 2.594 10.193 7.935 -384.500 2356.315 -3216.155 -1.448 -0.035 0.419 -0.04 0.55 -0.83 0.04
1 9.67 967 1.762 -9.060 3.146 4.608 17.334 7.080 -504.571 2461.396 -3351.067 -1.522 0.025 0.642 -0.04 0.55 -0.83 0.04
1 9.68 968 1.681 -8.868 3.113 3.754 21.271 8.606 -504.571 2461.396 -3351.067 -1.449 -0.165 0.680 -0.04 0.55 -0.83 0.04
1 9.69 969 1.753 -8.586 3.055 2.716 25.421 9.613 -384.500 2356.315 -3351.067 -1.535 -0.447 0.740 -0.04 0.55 -0.83 0.04
1 9.70 970 1.528 -8.591 3.002 0.946 28.381 9.674 -309.548 2236.393 -3276.116 -1.326 -0.442 0.794 -0.04 0.55 -0.83 0.04
1 9.71 971 1.508 -8.715 2.878 -1.099 27.985 9.338 -309.548 2236.393 -3276.116 -1.324 -0.318 0.918 -0.04 0.55 -0.83 0.04
1 9.72 972 1.312 -9.046 2.840 -3.815 28.198 7.233 -234.597 2236.393 -3246.135 -1.146 0.010 0.951 -0.04 0.55 -0.83 0.04
1 9.73 973 1.216 -9.223 2.969 -3.540 28.961 6.836 -234.597 2236.393 -3246.135 -1.067 0.184 0.814 -0.03 0.55 -0.83 0.04
1 9.74 974 1.082 -9.151 2.758 -1.862 29.572 5.707 -339.529 2401.286 -3441.158 -0.950 0.108 1.016 -0.03 0.55 -0.83 0.04
1 9.75 975 0.876 -9.180 2.864 -1.312 31.067 6.866 -234.597 2356.315 -3276.116 -0.779 0.131 0.898 -0.03 0.55 -0.83 0.03
1 9.76 976 0.919 -9.228 2.950 -3.998 32.013 7.935 -219.457 2296.354 -3306.096 -0.843 0.175 0.804 -0.03 0.55 -0.83 0.03
1 9.77 977 0.872 -9.084 2.983 -7.111 32.868 8.118 -114.525 2296.354 -3336.077 -0.818 0.027 0.760 -0.02 0.56 -0.83 0.03
1 9.78 978 0.929 -9.003 2.998 -7.874 35.401 10.864 -114.525 2296.354 -3336.077 -0.900 -0.060 0.733 -0.02 0.56 -0.83 0.03
1 9.79 979 0.694 -9.084 2.773 -7.111 41.046 14.862 -114.525 2371.305 -3336.077 -0.694 0.016 0.944 -0.02 0.56 -0.83 0.03
1 9.80 980 0.493 -9.060 2.935 -7.385 42.969 16.907 -114.525 2371.305 -3336.077 -0.529 -0.014 0.767 -0.02 0.56 -0.83 0.03
1 9.81 981 0.158 -9.094 3.323 -8.362 42.084 18.066 -9.594 2370.556 -3488.228 -0.234 0.014 0.365 -0.01 0.56 -0.83 0.03
1 9.82 982 -0.781 -9.869 4.228 -10.193 29.968 10.132 -144.506 2175.533 -3308.345 0.619 0.780 -0.568 -0.01 0.56 -0.83 0.03
1 9.83 983 -1.350 -10.410 4.511 -11.749 15.045 -2.014 35.227 2220.503 -3308.345 1.162 1.316 -0.863 -0.01 0.56 -0.83 0.03
1 9.84 984 -1.642 -10.655 4.319 -9.949 5.493 -13.489 -144.506 2490.627 -3233.244 1.455 1.555 -0.687 -0 0.56 -0.83 0.02
1 9.85 985 -1.370 -10.540 3.788 -0.214 4.700 -17.426 -144.506 2490.627 -3233.244 1.202 1.436 -0.165 -0.01 0.56 -0.83 0.02
1 9.86 986 -1.235 -9.888 3.572 11.505 8.545 -12.756 50.217 2535.598 -3278.214 1.089 0.786 0.056 -0.01 0.56 -0.83 0.02
1 9.87 987 -0.623 -8.964 3.620 16.541 8.362 -3.784 50.217 2535.598 -3278.214 0.483 -0.131 0.027 -0.01 0.56 -0.83 0.02
1 9.88 988 0.062 -9.141 3.955 3.906 1.953 -3.143 -24.584 2280.614 -3428.267 -0.206 0.056 -0.284 -0 0.56 -0.83 0.02
1 9.89 989 0.723 -9.730 4.372 -18.524 -0.854 -4.761 -99.535 2310.595 -3278.214 -0.857 0.646 -0.697 -0 0.56 -0.83 0.02
1 9.90 990 0.795 -9.750 4.420 -15.167 4.303 -5.798 -114.525 2370.556 -3263.224 -0.916 0.657 -0.766 -0.01 0.56 -0.83 0.02
1 9.91 991 0.972 -9.352 4.405 -1.587 13.397 -5.005 140.309 2295.604 -3233.244 -1.081 0.255 -0.763 -0.01 0.56 -0.83 0.02
1 9.92 992 0.704 -8.916 4.271 9.155 23.468 -3.845 140.309 2295.604 -3233.244 -0.806 -0.178 -0.621 -0 0.56 -0.83 0.02
1 9.93 993 0.661 -8.624 4.372 11.322 33.264 -4.791 65.208 2370.556 -3368.306 -0.765 -0.462 -0.702 -0 0.56 -0.83 0.01
1 9.94 994 0.244 -8.615 4.171 2.014 38.849 -8.545 65.208 2370.556 -3368.306 -0.354 -0.463 -0.480 -0 0.56 -0.83 0.01
1 9.95 995 -0.024 -8.840 4.362 -5.951 36.957 -10.895 50.217 2505.618 -3248.234 -0.093 -0.233 -0.660 0 0.56 -0.83 0.01
1 9.96 996 -0.225 -9.371 4.295 -7.813 32.623 -15.228 170.289 2385.546 -3323.335 0.103 0.296 -0.599 0 0.56 -0.83 0
1 9.97 997 -0.488 -9.467 4.295 -4.822 30.274 -16.419 170.289 2505.618 -3248.234 0.371 0.390 -0.604 0.01 0.56 -0.83 0
1 9.98 998 -0.527 -9.410 4.343 8.148 22.430 -18.677 -39.574 2325.585 -3338.325 0.417 0.335 -0.646 -0.01 -0.56 0.83 0
1 9.99 999 -0.646 -9.213 4.319 13.153 16.266 -19.409 -39.574 2325.585 -3338.325 0.550 0.145 -0.604 -0.01 -0.56 0.83 0
1 10.00 1000 -0.651 -9.285 4.458 11.444 12.787 -17.639 215.260 2325.585 -3233.244 0.569 0.226 -0.720 -0.01 -0.56 0.83 0
1 10.01 1001 -0.886 -9.055 4.750 1.831 13.580 -10.742 215.260 2325.585 -3233.244 0.816 0.004 -0.993 -0.01 -0.56 0.83 0.01
1 10.02 1002 -1.053 -9.132 4.755 -2.350 16.663 -4.669 -24.584 2355.565 -3248.234 0.988 0.085 -0.987 -0.01 -0.55 0.83 0.01
1 10.03 1003 -1.212 -9.237 4.717 -4.303 19.959 1.709 200.270 2505.618 -3218.253 1.140 0.193 -0.943 -0.01 -0.55 0.83 0.01
1 10.04 1004 -1.259 -9.414 4.434 -0.275 25.421 12.054 -24.584 2355.565 -3248.234 1.138 0.373 -0.656 -0.01 -0.55 0.83 0.01
1 10.05 1005 -1.365 -9.127 4.396 3.571 30.945 17.334 125.318 2430.517 -3278.214 1.200 0.089 -0.611 -0.02 -0.55 0.83 0.01
1 10.06 1006 -1.556 -8.935 4.094 4.547 34.119 19.775 125.318 2430.517 -3278.214 1.340 -0.097 -0.299 -0.02 -0.55 0.83 0.01
1 10.07 1007 -1.671 -8.801 3.793 2.289 32.349 20.050 95.338 2430.517 -3323.335 1.399 -0.226 0.011 -0.02 -0.55 0.83 0.01
1 10.08 1008 -1.710 -8.806 3.793 -5.463 23.468 17.426 95.338 2430.517 -3323.335 1.382 -0.218 0.014 -0.03 -0.55 0.83 0.01
