COL1	TIME	ACC_X	ACC_Y	ACC_Z	GYR_X	GYR_Y	GYR_Z	MAG_X	MAG_Y	MAG_Z	LACC_X	LACC_Y	LACC_Z	QUAT_X	QUAT_Y	QUAT_Z	QUAT_W
1 0.00 0 -0.072 -9.754 1.848 -0.641 -0.854 0.519 -2.998 3146.900 -3095.333 -0.034 0.126 -0.026 -0.01 -0.64 0.77 0.01
1 0.01 1 -0.125 -9.773 1.896 -0.702 -0.824 1.038 71.803 2996.998 -3095.333 0.018 0.145 -0.074 -0.01 -0.64 0.77 0.01
1 0.02 2 -0.072 -9.682 1.839 -0.366 -0.854 0.854 86.793 3161.890 -3050.213 -0.034 0.054 -0.017 -0.01 -0.64 0.77 0.01
1 0.03 3 -0.139 -9.745 1.939 -0.549 -0.305 1.282 86.793 3161.890 -3050.213 0.033 0.116 -0.118 -0.01 -0.64 0.77 0.01
1 0.04 4 -0.062 -9.692 1.877 -0.092 -0.946 1.495 -62.959 3056.958 -3080.343 -0.045 0.063 -0.055 -0.01 -0.64 0.77 0.01
1 0.05 5 -0.220 -9.730 1.781 -0.458 -1.434 1.434 -62.959 3056.958 -3080.343 0.113 0.102 0.040 -0.01 -0.64 0.77 0.01
1 0.06 6 0.029 -9.778 1.848 -0.244 -0.946 0.977 206.865 2816.965 -3125.314 -0.136 0.150 -0.026 -0.01 -0.64 0.77 0.01
1 0.07 7 -0.129 -9.682 1.829 -0.702 -0.641 1.465 206.865 2816.965 -3125.314 0.022 0.054 -0.008 -0.01 -0.64 0.77 0.01
1 0.08 8 -0.144 -9.639 1.801 -0.244 -1.129 1.373 -62.959 3056.958 -3125.314 0.036 0.011 0.021 -0.01 -0.64 0.77 0.01
1 0.09 9 -0.081 -9.864 1.805 -0.458 -0.702 1.953 -17.988 3131.910 -3080.343 -0.026 0.236 0.016 -0.01 -0.64 0.77 0.01
1 0.10 10 -0.086 -9.759 1.714 -0.885 -0.824 0.458 -17.988 3131.910 -3080.343 -0.021 0.130 0.107 -0.01 -0.64 0.77 0.01
1 0.11 11 0.005 -9.697 1.872 -0.153 -0.549 1.465 101.784 3101.929 -3035.223 -0.112 0.068 -0.051 -0.01 -0.64 0.77 0.01
1 0.12 12 0.105 -9.764 1.882 -0.488 -0.580 1.099 86.793 3011.988 -3005.242 -0.212 0.135 -0.061 -0.01 -0.64 0.77 0.01
1 0.13 13 -0.144 -9.778 1.839 -0.641 -0.885 0.854 101.784 3146.900 -3065.353 0.038 0.150 -0.017 -0.01 -0.64 0.77 0.01
1 0.14 14 -0.014 -9.654 1.781 -0.885 -0.732 0.885 101.784 3146.900 -3065.353 -0.090 0.025 0.040 -0.01 -0.64 0.77 0.01
1 0.15 15 -0.034 -9.788 1.796 -0.580 -0.549 0.916 -17.988 3011.988 -2975.262 -0.071 0.159 0.026 -0.01 -0.64 0.77 0.01
1 0.16 16 -0.067 -9.563 1.877 -0.824 -1.099 1.068 146.904 3176.880 -3140.304 -0.037 -0.066 -0.055 -0.01 -0.64 0.77 0.01
1 0.17 17 -0.187 -9.783 1.757 -0.549 -0.702 0.977 146.904 3176.880 -3140.304 0.082 0.155 0.065 -0.01 -0.64 0.77 0.01
1 0.18 18 -0.105 -9.678 1.844 -0.183 -0.641 1.282 206.865 3011.988 -3125.314 0.001 0.049 -0.022 -0.01 -0.64 0.77 0.01
1 0.19 19 -0.201 -9.740 1.954 -0.153 -1.038 1.465 86.793 3086.939 -3050.213 0.097 0.111 -0.132 -0.01 -0.64 0.77 0.01
1 0.20 20 -0.153 -9.706 1.868 -0.671 -0.732 0.946 -77.949 3176.880 -2960.271 0.049 0.078 -0.046 -0.01 -0.64 0.77 0.01
1 0.21 21 0.019 -9.826 1.829 -0.427 -0.946 0.671 -77.949 3176.880 -2960.271 -0.124 0.198 -0.007 -0.01 -0.64 0.77 0.01
1 0.22 22 -0.105 -9.922 1.762 0.153 -0.854 1.343 56.813 3056.958 -3005.242 0.001 0.293 0.060 -0.01 -0.64 0.77 0.01
1 0.23 23 -0.086 -9.788 1.791 0.031 -0.885 1.770 41.823 2996.998 -3035.223 -0.019 0.159 0.030 -0.01 -0.64 0.77 0.01
1 0.24 24 -0.057 -9.788 1.743 0.061 -1.038 1.862 41.823 2996.998 -3035.223 -0.047 0.159 0.078 -0.01 -0.64 0.77 0.01
1 0.25 25 -0.043 -9.788 1.868 0.031 -1.129 1.190 176.885 3176.880 -3035.223 -0.062 0.159 -0.047 -0.01 -0.64 0.77 0.01
1 0.26 26 -0.081 -9.706 1.801 -0.061 -1.282 1.556 -2.998 3071.949 -3170.285 -0.023 0.078 0.020 -0.01 -0.64 0.77 0.01
1 0.27 27 -0.024 -9.668 1.920 -0.122 -1.831 1.129 206.865 3056.958 -3125.314 -0.080 0.039 -0.100 -0.01 -0.64 0.77 0.01
1 0.28 28 -0.057 -9.592 1.882 -0.244 -1.373 0.946 206.865 3056.958 -3125.314 -0.046 -0.037 -0.061 -0.01 -0.64 0.77 0.01
1 0.29 29 -0.091 -9.750 1.877 -0.702 -1.312 1.282 86.793 3011.988 -3005.242 -0.012 0.121 -0.056 -0.01 -0.64 0.77 0.01
1 0.30 30 -0.091 -9.630 1.872 -0.488 -1.770 1.068 131.914 3011.988 -3050.213 -0.012 0.001 -0.050 -0.01 -0.64 0.77 0.01
1 0.31 31 -0.196 -9.687 1.915 -0.702 -1.526 0.854 131.914 3011.988 -3050.213 0.094 0.059 -0.093 -0.01 -0.64 0.77 0.01
1 0.32 32 0.024 -9.841 1.815 -0.763 -1.129 1.526 71.803 2996.998 -3065.353 -0.127 0.212 0.008 -0.01 -0.64 0.77 0.01
1 0.33 33 -0.086 -9.745 2.002 -1.129 -0.458 0.763 71.803 3071.949 -3035.223 -0.016 0.116 -0.179 -0.01 -0.64 0.77 0.01
1 0.34 34 -0.139 -9.788 1.920 -0.244 -1.068 0.885 11.842 3086.939 -3005.242 0.037 0.160 -0.096 -0.01 -0.64 0.77 0.01
1 0.35 35 -0.057 -9.687 1.968 -0.305 -1.099 0.458 11.842 3086.939 -3005.242 -0.044 0.059 -0.144 -0.01 -0.64 0.77 0.01
1 0.36 36 -0.144 -9.745 1.796 -0.275 -0.916 0.763 -17.988 3011.988 -3125.314 0.042 0.117 0.029 -0.01 -0.64 0.77 0.01
1 0.37 37 0.005 -9.615 1.863 -0.427 -1.099 0.244 71.803 3101.929 -3035.223 -0.107 -0.013 -0.038 -0.01 -0.64 0.77 0
1 0.38 38 -0.144 -9.596 1.982 -0.702 -1.099 0.153 71.803 3101.929 -3035.223 0.042 -0.032 -0.157 -0.01 -0.64 0.77 0
1 0.39 39 -0.053 -9.711 1.935 -0.153 -0.916 0.610 56.813 3086.939 -3050.213 -0.050 0.083 -0.108 -0.01 -0.64 0.77 0
1 0.40 40 0.000 -9.673 1.810 -0.946 -1.404 0.824 101.784 3026.978 -3140.304 -0.102 0.045 0.017 -0.01 -0.64 0.77 0
1 0.41 41 -0.115 -9.788 1.906 -0.702 -1.160 0.763 -77.949 3222.001 -2990.252 0.013 0.160 -0.079 -0.01 -0.64 0.77 0
1 0.42 42 0.010 -9.802 1.949 -0.427 -1.099 1.068 -77.949 3222.001 -2990.252 -0.111 0.175 -0.121 -0.01 -0.64 0.77 0
1 0.43 43 -0.043 -9.821 1.939 -0.366 -1.343 0.671 86.793 3056.958 -3005.242 -0.059 0.194 -0.112 -0.01 -0.64 0.77 0
1 0.44 44 -0.125 -9.692 1.839 -0.549 -1.343 1.221 101.784 2876.926 -3065.353 0.023 0.065 -0.010 -0.01 -0.64 0.77 0
1 0.45 45 -0.101 -9.754 1.968 -0.946 -1.282 1.251 101.784 2876.926 -3065.353 -0.001 0.127 -0.139 -0.01 -0.64 0.77 0
1 0.46 46 -0.024 -9.649 1.877 -0.458 -1.312 1.831 -2.998 3146.900 -3095.333 -0.077 0.022 -0.048 -0.01 -0.64 0.77 0
1 0.47 47 -0.010 -9.601 1.992 -0.092 -1.129 1.709 71.803 3101.929 -3140.304 -0.092 -0.026 -0.163 -0.01 -0.64 0.77 0
1 0.48 48 -0.053 -9.735 1.930 -0.397 -1.068 0.854 86.793 3011.988 -3005.242 -0.048 0.108 -0.100 -0.01 -0.64 0.77 0
1 0.49 49 -0.230 -9.773 1.805 -0.549 -1.099 0.946 86.793 3011.988 -3005.242 0.129 0.147 0.025 -0.01 -0.64 0.77 0
1 0.50 50 -0.211 -9.841 1.930 -0.488 -1.038 1.038 56.813 3131.910 -3155.294 0.110 0.214 -0.099 -0.01 -0.64 0.77 0
1 0.51 51 -0.163 -9.793 1.891 0.000 -1.587 0.793 -138.060 3131.910 -3050.213 0.061 0.166 -0.060 -0.01 -0.64 0.77 0
1 0.52 52 -0.072 -9.687 1.968 -0.671 -1.312 1.312 -138.060 3131.910 -3050.213 -0.031 0.061 -0.136 -0.01 -0.64 0.77 0
1 0.53 53 -0.115 -9.721 1.959 -0.793 -1.404 1.343 41.823 3146.900 -3095.333 0.012 0.094 -0.125 -0.01 -0.64 0.77 0
1 0.54 54 -0.091 -9.692 1.882 0.488 -1.617 1.373 251.836 2996.998 -2990.252 -0.012 0.066 -0.048 -0.01 -0.64 0.77 0
1 0.55 55 -0.101 -9.697 1.930 -0.031 -1.343 1.312 251.836 2996.998 -2990.252 -0.003 0.071 -0.095 -0.01 -0.64 0.77 0
1 0.56 56 -0.115 -9.841 1.801 -0.336 -1.434 1.251 41.823 3101.929 -2960.271 0.012 0.214 0.035 -0.01 -0.64 0.77 0
1 0.57 57 0.019 -9.788 1.824 -0.031 -1.160 1.129 56.813 3011.988 -3050.213 -0.122 0.162 0.011 -0.01 -0.64 0.77 0
1 0.58 58 -0.110 -9.663 1.839 -0.122 -1.038 1.434 71.803 3071.949 -2990.252 0.007 0.037 -0.004 -0.01 -0.64 0.77 0
1 0.59 59 -0.101 -9.716 1.954 0.031 -0.671 1.465 71.803 3071.949 -2990.252 -0.002 0.090 -0.118 -0.01 -0.64 0.77 0
1 0.60 60 -0.163 -9.735 1.939 -0.244 -0.275 0.671 56.813 2967.017 -2870.330 0.061 0.109 -0.103 -0.01 -0.64 0.77 0
1 0.61 61 -0.144 -9.711 1.973 -0.427 0.031 0.977 41.823 3101.929 -3035.223 0.041 0.085 -0.136 -0.01 -0.64 0.77 0
1 0.62 62 -0.187 -9.754 1.868 -0.336 -0.763 1.556 41.823 3101.929 -3035.223 0.084 0.129 -0.029 -0.01 -0.64 0.77 0
1 0.63 63 -0.086 -9.764 1.853 -0.366 0.092 1.099 11.842 3086.939 -3125.314 -0.016 0.139 -0.014 -0.01 -0.64 0.77 0
1 0.64 64 -0.086 -9.735 1.997 -1.038 -0.244 1.129 -17.988 3086.939 -3050.213 -0.016 0.110 -0.158 -0.01 -0.64 0.77 0
1 0.65 65 -0.139 -9.802 1.973 -0.366 -0.946 0.916 71.803 3101.929 -3035.223 0.036 0.177 -0.133 -0.01 -0.64 0.77 0
1 0.66 66 -0.139 -9.783 1.891 -0.549 -0.122 1.495 71.803 3101.929 -3035.223 0.036 0.158 -0.051 -0.01 -0.64 0.77 0
1 0.67 67 0.019 -9.759 1.887 -0.275 -0.763 1.068 236.846 3281.962 -3155.294 -0.122 0.134 -0.045 -0.01 -0.64 0.77 0
1 0.68 68 -0.077 -9.682 2.002 -0.061 -0.336 1.526 206.865 3207.011 -3080.343 -0.026 0.058 -0.160 -0.01 -0.64 0.77 0
1 0.69 69 -0.034 -9.730 1.868 0.061 -0.519 0.610 206.865 3207.011 -3080.343 -0.069 0.106 -0.024 -0.01 -0.64 0.77 0
1 0.70 70 -0.062 -9.726 1.906 -0.763 -0.519 0.916 176.885 3026.978 -3065.353 -0.040 0.101 -0.062 -0.01 -0.64 0.77 0
1 0.71 71 -0.029 -9.730 1.920 -0.244 -0.610 1.038 -17.988 2936.887 -3005.242 -0.074 0.106 -0.077 -0.01 -0.64 0.77 0
1 0.72 72 -0.091 -9.649 1.935 -0.519 -0.031 0.946 206.865 3056.958 -3005.242 -0.011 0.025 -0.091 -0.01 -0.64 0.77 0
1 0.73 73 -0.148 -9.697 1.930 -0.641 -0.153 1.099 206.865 3056.958 -3005.242 0.047 0.072 -0.086 -0.01 -0.64 0.77 0
1 0.74 74 -0.096 -9.663 1.887 -0.763 0.000 0.854 56.813 2967.017 -3155.294 -0.005 0.039 -0.042 -0.01 -0.64 0.77 0
1 0.75 75 -0.057 -9.821 1.911 -0.519 0.000 1.099 11.842 2861.936 -2930.291 -0.043 0.197 -0.066 -0.01 -0.64 0.77 0
1 0.76 76 -0.206 -9.773 1.930 0.000 -0.336 1.190 11.842 2861.936 -2930.291 0.105 0.149 -0.085 -0.01 -0.64 0.77 0
1 0.77 77 -0.172 -9.692 1.853 -0.427 -0.305 0.702 41.823 3026.978 -3170.285 0.071 0.068 -0.007 -0.01 -0.64 0.77 0
1 0.78 78 -0.034 -9.730 1.949 -0.671 -0.397 1.038 71.803 2996.998 -3245.236 -0.068 0.106 -0.103 -0.01 -0.64 0.77 0
1 0.79 79 -0.235 -9.721 2.016 -0.519 -0.610 0.732 101.784 3026.978 -2960.271 0.133 0.097 -0.170 -0.01 -0.64 0.77 0
1 0.80 80 -0.057 -9.692 1.882 -0.275 -0.427 0.549 101.784 3026.978 -2960.271 -0.044 0.068 -0.035 -0.01 -0.64 0.77 0
1 0.81 81 -0.139 -9.678 1.901 -0.214 -0.854 0.580 161.895 2936.887 -2975.262 0.037 0.054 -0.053 -0.01 -0.64 0.77 0
1 0.82 82 -0.077 -9.620 1.824 -0.702 -0.183 1.617 56.813 3056.958 -3050.213 -0.026 -0.003 0.024 -0.01 -0.64 0.77 0
1 0.83 83 -0.062 -9.611 1.935 -0.427 -0.488 0.977 56.813 3056.958 -3050.213 -0.040 -0.013 -0.086 -0.01 -0.64 0.77 0
1 0.84 84 -0.168 -9.788 1.930 -0.519 -0.793 1.221 176.885 3101.929 -3065.353 0.065 0.164 -0.081 -0.01 -0.64 0.77 0
1 0.85 85 -0.115 -9.754 1.834 -0.641 -1.099 1.190 206.865 3086.939 -2870.330 0.012 0.131 0.015 -0.01 -0.64 0.77 0
1 0.86 86 -0.010 -9.750 1.930 0.061 -1.251 1.251 161.895 3056.958 -2930.291 -0.094 0.126 -0.081 -0.01 -0.64 0.77 0
1 0.87 87 -0.177 -9.884 1.992 -0.397 -1.282 0.671 161.895 3056.958 -2930.291 0.074 0.260 -0.143 -0.01 -0.64 0.77 0
1 0.88 88 -0.105 -9.563 1.901 -1.068 -1.343 0.885 71.803 3026.978 -3035.223 0.002 -0.060 -0.051 -0.01 -0.64 0.77 0
1 0.89 89 -0.053 -9.769 1.820 -0.031 -1.221 0.641 71.803 2846.945 -3095.333 -0.050 0.146 0.031 -0.01 -0.64 0.77 0
1 0.90 90 -0.034 -9.726 1.930 -0.641 -0.793 1.221 71.803 2846.945 -3095.333 -0.069 0.102 -0.079 -0.01 -0.64 0.77 0
1 0.91 91 -0.148 -9.778 1.901 -0.366 -1.404 0.824 131.914 3056.958 -3005.242 0.046 0.155 -0.050 -0.01 -0.64 0.77 0
1 0.92 92 -0.125 -9.692 1.896 -0.244 -0.946 1.129 -17.988 3011.988 -3125.314 0.022 0.069 -0.045 -0.01 -0.64 0.77 0
1 0.93 93 -0.196 -9.721 1.935 0.427 -0.946 0.732 56.813 3011.988 -3080.343 0.093 0.098 -0.083 -0.01 -0.64 0.77 0
1 0.94 94 -0.101 -9.654 1.891 0.183 -1.129 1.251 56.813 3011.988 -3080.343 -0.002 0.031 -0.039 -0.01 -0.64 0.77 0
1 0.95 95 -0.139 -9.678 1.820 -0.092 -0.488 1.160 131.914 2967.017 -3080.343 0.035 0.055 0.033 -0.01 -0.64 0.77 0
1 0.96 96 -0.163 -9.726 1.935 -0.549 -0.610 1.404 176.885 3026.978 -3035.223 0.060 0.103 -0.082 -0.01 -0.64 0.77 0
1 0.97 97 -0.014 -9.716 1.887 -0.336 -0.702 1.038 176.885 3026.978 -3035.223 -0.089 0.093 -0.033 -0.01 -0.64 0.77 0
1 0.98 98 -0.125 -9.673 2.054 -0.305 -0.122 1.495 41.823 2951.877 -2990.252 0.022 0.050 -0.201 -0.01 -0.64 0.77 0
1 0.99 99 -0.086 -9.788 1.906 -0.793 -0.610 0.916 41.823 2951.877 -2990.252 -0.016 0.166 -0.051 -0.01 -0.64 0.77 0
1 1.00 100 -0.153 -9.687 1.906 -0.305 -0.183 1.068 131.914 3011.988 -3050.213 0.052 0.065 -0.051 -0.01 -0.64 0.77 0
1 1.01 101 -0.005 -9.726 1.781 -0.183 -0.244 1.007 131.914 3011.988 -3050.213 -0.097 0.104 0.075 -0.01 -0.64 0.77 0
1 1.02 102 -0.129 -9.673 1.858 -0.336 -0.122 1.068 131.914 2936.887 -3155.294 0.028 0.051 -0.001 -0.01 -0.64 0.77 0
1 1.03 103 -0.086 -9.764 1.858 -0.580 -0.153 1.312 41.823 3071.949 -3065.353 -0.015 0.142 -0.002 -0.01 -0.64 0.77 0
1 1.04 104 -0.110 -9.793 1.911 -0.580 -0.397 0.885 41.823 3071.949 -3065.353 0.009 0.171 -0.054 -0.01 -0.64 0.77 0
1 1.05 105 -0.110 -9.706 1.858 -0.610 -0.641 0.549 86.793 3056.958 -3125.314 0.008 0.084 -0.001 -0.01 -0.64 0.77 0
1 1.06 106 -0.144 -9.716 1.987 -0.916 -0.885 0.366 86.793 3056.958 -3125.314 0.042 0.094 -0.131 -0.01 -0.64 0.77 0
1 1.07 107 -0.187 -9.740 1.891 -0.641 -0.610 1.007 11.842 3086.939 -3050.213 0.085 0.118 -0.035 -0.01 -0.64 0.77 0
1 1.08 108 -0.043 -9.706 1.815 -0.763 -0.885 1.068 11.842 3086.939 -3050.213 -0.059 0.084 0.042 -0.01 -0.64 0.77 0
1 1.09 109 -0.125 -9.606 1.868 -1.099 -0.488 0.793 236.846 3161.890 -3155.294 0.022 -0.016 -0.011 -0.01 -0.64 0.77 0
1 1.10 110 -0.125 -9.678 1.877 -1.129 -0.122 1.221 56.813 3056.958 -3005.242 0.022 0.056 -0.020 -0.01 -0.64 0.77 0
1 1.11 111 -0.077 -9.778 1.906 -0.885 -0.549 1.160 56.813 3056.958 -3005.242 -0.026 0.156 -0.048 -0.01 -0.64 0.77 0
1 1.12 112 -0.196 -9.692 1.863 -1.251 -0.488 1.495 86.793 2967.017 -3005.242 0.094 0.070 -0.005 -0.01 -0.64 0.77 0
1 1.13 113 -0.115 -9.558 1.891 -0.824 -0.641 0.885 86.793 2967.017 -3005.242 0.012 -0.064 -0.033 -0.01 -0.64 0.77 0
1 1.14 114 -0.158 -9.730 1.896 -1.068 -0.793 1.221 131.914 3131.910 -3005.242 0.055 0.109 -0.037 -0.01 -0.64 0.77 0
1 1.15 115 -0.101 -9.692 1.973 -0.977 -0.824 1.465 131.914 3131.910 -3005.242 -0.003 0.071 -0.114 -0.01 -0.64 0.77 0
1 1.16 116 -0.211 -9.769 1.834 -0.824 -0.580 1.129 146.904 2951.877 -3035.223 0.107 0.147 0.025 -0.01 -0.64 0.77 0
1 1.17 117 -0.072 -9.745 1.963 -1.068 -0.122 1.251 56.813 3086.939 -3080.343 -0.032 0.123 -0.103 -0.01 -0.64 0.77 0
1 1.18 118 -0.014 -9.831 1.963 -0.671 -0.549 1.251 56.813 3086.939 -3080.343 -0.089 0.210 -0.103 -0.01 -0.64 0.77 0
1 1.19 119 -0.067 -9.778 1.954 -0.427 -0.549 1.007 86.793 3086.939 -3125.314 -0.036 0.157 -0.093 -0.01 -0.64 0.77 0
1 1.20 120 -0.105 -9.726 1.801 -0.549 -0.488 1.495 86.793 3086.939 -3125.314 0.002 0.104 0.060 -0.01 -0.64 0.77 0
1 1.21 121 0.005 -9.793 1.839 -0.305 -0.275 0.916 131.914 3161.890 -2975.262 -0.107 0.171 0.021 -0.01 -0.64 0.77 0
1 1.22 122 -0.239 -9.745 1.733 -0.366 -0.702 0.977 236.846 3086.939 -3050.213 0.137 0.123 0.127 -0.01 -0.64 0.77 0
1 1.23 123 -0.206 -9.730 1.891 0.092 -0.885 1.007 86.793 3086.939 -2930.291 0.103 0.109 -0.031 -0.01 -0.64 0.77 0.01
1 1.24 124 -0.297 -9.716 1.820 -0.549 -0.732 0.946 71.803 3026.978 -3035.223 0.193 0.095 0.041 -0.01 -0.64 0.77 0
1 1.25 125 -0.201 -9.635 1.911 -0.427 -0.916 0.610 71.803 3026.978 -3035.223 0.096 0.013 -0.050 -0.01 -0.64 0.77 0
1 1.26 126 -0.072 -9.692 1.868 -0.702 -0.397 0.336 71.803 3071.949 -3140.304 -0.034 0.071 -0.007 -0.01 -0.64 0.77 0
1 1.27 127 -0.010 -9.668 1.930 -0.641 -0.458 1.282 71.803 3071.949 -3140.304 -0.096 0.047 -0.068 -0.01 -0.64 0.77 0
1 1.28 128 -0.077 -9.649 1.920 -0.214 -0.977 1.221 101.784 3026.978 -3245.236 -0.029 0.028 -0.058 -0.01 -0.64 0.77 0
1 1.29 129 -0.225 -9.821 1.930 -0.092 -0.549 1.465 86.793 3011.988 -3080.343 0.120 0.201 -0.068 -0.01 -0.64 0.77 0
1 1.30 130 -0.244 -9.678 1.781 -0.671 -0.427 0.824 41.823 3071.949 -3035.223 0.139 0.057 0.081 -0.01 -0.64 0.77 0
1 1.31 131 0.019 -9.740 1.872 -0.824 -0.702 0.916 71.803 3026.978 -3065.353 -0.125 0.119 -0.010 -0.01 -0.64 0.77 0
1 1.32 132 -0.096 -9.764 1.868 -1.007 -0.519 1.221 71.803 3026.978 -3065.353 -0.010 0.143 -0.006 -0.01 -0.64 0.77 0
1 1.33 133 -0.192 -9.759 1.959 -0.671 -0.153 1.099 71.803 3101.929 -2990.252 0.085 0.138 -0.096 -0.01 -0.64 0.77 0
1 1.34 134 -0.239 -9.773 1.978 -0.275 -0.580 1.587 71.803 3101.929 -2990.252 0.133 0.153 -0.115 -0.01 -0.64 0.77 0
1 1.35 135 -0.153 -9.678 1.877 -0.824 -0.214 1.251 131.914 3056.958 -3125.314 0.046 0.057 -0.014 -0.01 -0.64 0.77 0
1 1.36 136 -0.163 -9.692 1.882 -0.397 -0.244 1.160 56.813 3011.988 -3080.343 0.055 0.072 -0.018 -0.01 -0.64 0.77 0
1 1.37 137 -0.010 -9.716 1.915 -0.610 0.061 1.740 11.842 3011.988 -3050.213 -0.099 0.096 -0.051 -0.01 -0.64 0.77 0
1 1.38 138 -0.024 -9.783 1.944 -0.549 -0.153 2.258 41.823 3101.929 -3095.333 -0.084 0.163 -0.080 -0.01 -0.64 0.77 0
1 1.39 139 -0.072 -9.673 1.868 -0.336 0.580 2.716 41.823 3101.929 -3095.333 -0.038 0.053 -0.003 -0.01 -0.64 0.77 0
1 1.40 140 -0.014 -9.754 1.839 -0.763 0.519 2.167 206.865 3056.958 -3080.343 -0.100 0.134 0.027 -0.01 -0.64 0.77 0
1 1.41 141 -0.086 -9.682 1.997 -0.793 1.312 2.136 206.865 3056.958 -3080.343 -0.031 0.063 -0.131 -0.01 -0.64 0.77 0
1 1.42 142 -0.096 -9.797 1.949 -0.977 1.801 1.709 56.813 3161.890 -3125.314 -0.023 0.178 -0.082 -0.01 -0.64 0.77 0
1 1.43 143 -0.024 -9.711 1.853 -0.916 1.892 2.075 -77.949 3101.929 -3065.353 -0.096 0.091 0.013 -0.01 -0.64 0.77 0
1 1.44 144 0.034 -9.678 1.844 -0.946 3.113 2.075 56.813 3056.958 -3005.242 -0.155 0.058 0.023 -0.01 -0.64 0.77 0
1 1.45 145 -0.053 -9.730 2.035 -1.251 3.326 2.289 71.803 2996.998 -3035.223 -0.070 0.111 -0.168 -0.01 -0.64 0.77 0
1 1.46 146 -0.115 -9.850 2.078 -0.488 4.364 2.197 71.803 2996.998 -3035.223 -0.010 0.230 -0.212 -0.01 -0.64 0.77 0
1 1.47 147 0.053 -9.836 2.088 0.061 4.944 2.533 71.803 3026.978 -3215.255 -0.184 0.217 -0.218 -0.01 -0.64 0.77 0.01
1 1.48 148 -0.292 -9.860 2.050 -0.519 5.493 2.533 71.803 3026.978 -3215.255 0.159 0.241 -0.178 -0.01 -0.64 0.77 0.01
1 1.49 149 -0.220 -9.831 2.002 0.061 6.592 2.045 86.793 3056.958 -3125.314 0.083 0.212 -0.130 -0.01 -0.64 0.77 0.01
1 1.50 150 -0.464 -9.893 1.920 -0.061 6.775 2.472 161.895 3086.939 -3005.242 0.323 0.275 -0.047 -0.01 -0.64 0.77 0.01
1 1.51 151 -0.388 -9.850 1.911 0.366 6.805 2.594 86.793 3086.939 -3125.314 0.241 0.232 -0.036 -0.01 -0.64 0.77 0.01
1 1.52 152 -0.512 -9.864 1.829 0.732 6.409 2.106 -2.998 2951.877 -3140.304 0.359 0.247 0.047 -0.02 -0.64 0.77 0.01
1 1.53 153 -0.426 -9.793 1.757 1.282 6.104 2.533 -2.998 2951.877 -3140.304 0.267 0.175 0.120 -0.02 -0.64 0.77 0.01
1 1.54 154 -0.551 -9.864 1.676 1.648 5.371 2.228 101.784 3071.949 -2990.252 0.384 0.248 0.203 -0.02 -0.64 0.77 0.01
1 1.55 155 -0.608 -9.716 1.834 2.258 4.700 2.075 101.784 3071.949 -2990.252 0.431 0.100 0.048 -0.02 -0.64 0.77 0.01
1 1.56 156 -0.575 -9.706 1.738 2.899 4.547 2.441 161.895 3056.958 -2930.291 0.390 0.091 0.148 -0.02 -0.64 0.77 0.01
1 1.57 157 -0.551 -9.721 1.714 3.357 4.761 3.174 221.855 3101.929 -3065.353 0.360 0.107 0.175 -0.02 -0.64 0.77 0.01
1 1.58 158 -0.584 -9.711 1.733 2.747 5.005 4.608 146.904 2921.896 -2990.252 0.385 0.098 0.160 -0.02 -0.63 0.77 0.01
1 1.59 159 -0.565 -9.793 1.767 3.174 4.181 5.341 221.855 3071.949 -2960.271 0.356 0.180 0.130 -0.02 -0.63 0.77 0.01
1 1.60 160 -0.570 -9.726 1.796 2.777 2.838 4.303 221.855 3071.949 -2960.271 0.350 0.114 0.105 -0.02 -0.63 0.77 0.01
1 1.61 161 -0.441 -9.592 1.925 2.197 2.808 4.334 266.826 2967.017 -2975.262 0.211 -0.019 -0.021 -0.02 -0.63 0.77 0.01
1 1.62 162 -0.388 -9.711 1.872 1.862 3.418 4.303 266.826 2967.017 -2975.262 0.143 0.103 0.039 -0.02 -0.63 0.77 0.01
1 1.63 163 -0.431 -9.601 1.820 2.411 3.357 3.357 206.865 3056.958 -3155.294 0.179 -0.007 0.095 -0.02 -0.63 0.77 0.01
1 1.64 164 -0.565 -9.553 1.820 1.892 3.723 3.662 131.914 3086.939 -3185.275 0.307 -0.054 0.099 -0.02 -0.63 0.77 0.01
1 1.65 165 -0.694 -9.601 2.006 1.801 3.326 3.082 131.914 3086.939 -3185.275 0.429 -0.005 -0.085 -0.02 -0.63 0.77 0.01
1 1.66 166 -0.551 -9.639 1.915 1.312 1.984 2.563 206.865 2967.017 -3050.213 0.279 0.034 0.010 -0.02 -0.63 0.77 0.01
1 1.67 167 -0.599 -9.625 1.820 1.038 1.160 2.197 206.865 2967.017 -3050.213 0.321 0.021 0.109 -0.02 -0.63 0.77 0.01
1 1.68 168 -0.608 -9.759 2.002 1.923 0.854 2.075 176.885 3026.978 -3170.285 0.325 0.156 -0.070 -0.02 -0.63 0.77 0.01
1 1.69 169 -0.565 -9.941 1.959 2.625 0.336 0.671 176.885 3026.978 -3170.285 0.275 0.339 -0.019 -0.02 -0.63 0.77 0.01
1 1.70 170 -0.522 -9.860 2.073 3.326 -0.671 0.977 221.855 2996.998 -2960.271 0.230 0.259 -0.129 -0.03 -0.63 0.77 0.01
1 1.71 171 -0.517 -9.754 1.978 3.174 0.854 1.129 221.855 3266.972 -3065.353 0.224 0.155 -0.027 -0.03 -0.63 0.77 0.01
1 1.72 172 -0.512 -9.615 2.026 2.930 1.282 1.312 161.895 2936.887 -3185.275 0.217 0.017 -0.070 -0.03 -0.63 0.77 0.01
1 1.73 173 -0.560 -9.625 1.901 2.228 0.214 1.587 146.904 2951.877 -3065.353 0.263 0.028 0.060 -0.03 -0.63 0.77 0.01
1 1.74 174 -0.460 -9.548 1.911 1.923 -0.824 1.282 146.904 2951.877 -3065.353 0.159 -0.048 0.055 -0.03 -0.63 0.77 0.01
1 1.75 175 -0.464 -9.491 1.959 1.617 -1.587 1.068 251.836 3071.949 -3065.353 0.162 -0.104 0.011 -0.03 -0.63 0.77 0.01
1 1.76 176 -0.613 -9.572 1.906 1.404 -3.113 0.061 251.836 3071.949 -3065.353 0.310 -0.022 0.069 -0.03 -0.63 0.78 0.01
1 1.77 177 -0.584 -9.563 1.930 1.709 -3.632 1.099 236.846 2786.984 -3155.294 0.282 -0.031 0.048 -0.03 -0.63 0.78 0.01
1 1.78 178 -0.618 -9.783 2.006 1.587 -4.364 1.068 251.836 2876.926 -3035.223 0.314 0.190 -0.025 -0.03 -0.63 0.78 0.01
1 1.79 179 -0.474 -9.773 1.973 2.014 -5.432 0.305 251.836 2876.926 -3035.223 0.169 0.181 0.012 -0.03 -0.63 0.78 0.01
1 1.80 180 -0.445 -9.735 2.174 2.472 -6.348 0.671 296.807 3026.978 -2990.252 0.141 0.144 -0.185 -0.02 -0.63 0.78 0.01
1 1.81 181 -0.441 -9.874 2.169 2.411 -6.744 0.732 296.807 3026.978 -2990.252 0.137 0.284 -0.175 -0.02 -0.63 0.78 0.01
1 1.82 182 -0.369 -9.821 2.255 2.380 -6.165 1.587 221.855 2996.998 -3140.304 0.066 0.232 -0.256 -0.02 -0.63 0.78 0.01
1 1.83 183 -0.283 -9.721 2.246 2.747 -6.195 2.380 221.855 2996.998 -3140.304 -0.019 0.133 -0.241 -0.02 -0.63 0.78 0.01
1 1.84 184 0.072 -9.702 2.437 2.899 -4.791 2.960 131.914 2967.017 -3080.343 -0.374 0.117 -0.419 -0.02 -0.63 0.78 0
1 1.85 185 -0.014 -9.831 2.342 3.021 -4.822 4.059 311.797 2816.965 -3125.314 -0.288 0.248 -0.315 -0.02 -0.63 0.78 0
1 1.86 186 0.024 -9.750 2.303 3.021 -3.967 4.181 311.797 2816.965 -3125.314 -0.327 0.168 -0.270 -0.02 -0.63 0.78 0
1 1.87 187 0.014 -9.659 2.433 3.754 -3.204 3.357 131.914 3056.958 -3155.294 -0.318 0.078 -0.391 -0.02 -0.63 0.78 0
1 1.88 188 0.134 -9.716 2.342 3.113 -2.075 2.899 131.914 3056.958 -3155.294 -0.439 0.138 -0.291 -0.02 -0.63 0.78 0
1 1.89 189 0.048 -9.750 2.260 2.808 -0.732 2.899 11.842 3011.988 -3185.275 -0.351 0.173 -0.201 -0.02 -0.63 0.78 0
1 1.90 190 -0.029 -9.682 2.294 4.211 0.000 2.808 11.842 3011.988 -3185.275 -0.274 0.108 -0.227 -0.02 -0.63 0.78 0
1 1.91 191 -0.005 -9.563 2.356 5.249 0.397 3.571 101.784 2996.998 -3245.236 -0.299 -0.008 -0.272 -0.02 -0.63 0.78 0
1 1.92 192 -0.206 -9.711 2.265 5.371 0.977 3.601 146.904 2876.926 -3170.285 -0.100 0.143 -0.171 -0.02 -0.63 0.78 0
1 1.93 193 -0.129 -9.649 2.145 4.944 1.404 3.601 146.904 2876.926 -3170.285 -0.180 0.082 -0.042 -0.02 -0.63 0.78 0
1 1.94 194 -0.335 -9.721 2.021 4.639 1.587 3.510 296.807 2846.945 -2960.271 0.023 0.156 0.091 -0.02 -0.63 0.78 0
1 1.95 195 -0.426 -9.726 2.136 5.280 0.549 2.289 146.904 2996.998 -3170.285 0.110 0.163 -0.016 -0.02 -0.63 0.78 0
1 1.96 196 -0.225 -9.587 2.136 4.730 -0.092 2.136 146.904 2996.998 -3140.304 -0.094 0.026 -0.008 -0.02 -0.63 0.78 0
1 1.97 197 -0.182 -9.592 2.169 4.181 -0.275 1.587 146.904 2996.998 -3140.304 -0.140 0.032 -0.034 -0.02 -0.62 0.78 0
1 1.98 198 -0.163 -9.692 2.227 3.967 -0.244 2.380 221.855 2801.975 -3095.333 -0.159 0.135 -0.084 -0.02 -0.62 0.78 0
1 1.99 199 -0.081 -9.639 2.093 3.998 -0.061 3.510 206.865 3011.988 -3230.246 -0.242 0.085 0.064 -0.02 -0.62 0.78 0
1 2.00 200 -0.283 -9.750 2.117 3.296 -0.061 3.448 206.865 3011.988 -3230.246 -0.044 0.197 0.046 -0.02 -0.62 0.78 0
1 2.01 201 -0.345 -9.702 2.126 3.876 -0.275 3.479 236.846 2936.887 -3080.343 0.015 0.150 0.042 -0.02 -0.62 0.78 0
1 2.02 202 -0.220 -9.735 2.241 4.791 0.397 3.204 56.813 3161.890 -3125.314 -0.113 0.185 -0.066 -0.02 -0.62 0.78 0
1 2.03 203 -0.364 -9.682 2.308 4.395 0.610 4.242 86.793 2816.965 -3185.275 0.027 0.135 -0.125 -0.02 -0.62 0.78 0
1 2.04 204 -0.417 -9.735 2.231 5.005 0.793 4.303 86.793 2816.965 -3185.275 0.075 0.189 -0.041 -0.02 -0.62 0.78 0
1 2.05 205 -0.460 -9.673 2.145 5.432 0.000 4.547 236.846 2861.936 -3230.246 0.113 0.129 0.054 -0.02 -0.62 0.78 0
1 2.06 206 -0.599 -9.630 2.279 5.707 -2.228 1.831 326.787 2996.998 -3095.333 0.242 0.090 -0.063 -0.02 -0.62 0.78 0
1 2.07 207 -0.541 -9.759 2.275 5.127 -3.326 1.160 326.787 2996.998 -3095.333 0.182 0.222 -0.049 -0.02 -0.62 0.78 0
1 2.08 208 -0.599 -9.678 2.145 4.242 -3.845 0.641 71.803 2846.945 -3245.236 0.239 0.142 0.088 -0.02 -0.62 0.78 0
1 2.09 209 -0.637 -9.558 2.155 4.547 -4.028 1.312 236.846 2861.936 -3005.242 0.277 0.024 0.085 -0.02 -0.62 0.78 0
1 2.10 210 -0.603 -9.678 2.236 4.120 -3.601 1.923 311.797 2816.965 -3050.213 0.242 0.146 0.011 -0.02 -0.62 0.78 0
1 2.11 211 -0.532 -9.649 2.231 4.059 -4.120 3.082 311.797 2816.965 -3050.213 0.168 0.119 0.023 -0.02 -0.62 0.78 0
1 2.12 212 -0.374 -9.678 2.246 4.395 -3.235 3.967 146.904 2951.877 -3095.333 0.007 0.149 0.016 -0.02 -0.62 0.78 0
1 2.13 213 -0.278 -9.592 2.284 4.700 -1.770 4.700 296.807 2876.926 -3140.304 -0.096 0.067 -0.007 -0.02 -0.62 0.78 0
1 2.14 214 -0.292 -9.793 2.227 4.761 -0.824 6.836 296.807 2876.926 -3140.304 -0.088 0.270 0.058 0.02 0.62 -0.79 0
1 2.15 215 -0.168 -9.773 2.227 5.249 -0.244 6.592 131.914 2861.936 -3230.246 -0.220 0.253 0.065 0.02 0.62 -0.79 0
1 2.16 216 -0.182 -9.625 2.356 5.371 -0.763 6.348 236.846 2861.936 -3230.246 -0.212 0.107 -0.056 0.02 0.62 -0.79 0
1 2.17 217 -0.053 -9.625 2.461 4.822 -0.214 5.829 206.865 2786.984 -3155.294 -0.347 0.109 -0.153 0.03 0.62 -0.79 0
1 2.18 218 -0.182 -9.721 2.509 4.852 1.404 5.096 206.865 2786.984 -3155.294 -0.223 0.207 -0.192 0.03 0.62 -0.79 0
1 2.19 219 -0.153 -9.611 2.322 4.822 1.953 5.524 341.927 2936.887 -3185.275 -0.257 0.099 0.003 0.03 0.62 -0.79 0
1 2.20 220 -0.235 -9.721 2.399 4.944 3.784 5.310 266.826 2861.936 -3260.226 -0.186 0.214 -0.058 0.03 0.62 -0.79 0
1 2.21 221 -0.163 -9.659 2.375 4.944 4.272 5.920 266.826 2861.936 -3260.226 -0.264 0.154 -0.026 0.03 0.62 -0.79 0
1 2.22 222 -0.172 -9.630 2.394 5.402 4.852 6.195 251.836 2846.945 -3215.255 -0.262 0.127 -0.037 0.03 0.62 -0.79 0
1 2.23 223 -0.211 -9.510 2.466 5.890 6.531 7.111 296.807 2846.945 -3275.216 -0.231 0.010 -0.100 0.03 0.62 -0.79 0
1 2.24 224 -0.378 -9.520 2.452 6.012 8.240 6.592 326.787 2846.945 -3215.255 -0.074 0.023 -0.076 0.03 0.61 -0.79 0
1 2.25 225 -0.302 -9.491 2.413 4.639 9.064 6.042 326.787 2846.945 -3215.255 -0.160 -0.003 -0.027 0.03 0.61 -0.79 0
1 2.26 226 -0.350 -9.410 2.543 4.089 10.101 5.188 341.927 2936.887 -3260.226 -0.124 -0.081 -0.148 0.03 0.61 -0.79 0
1 2.27 227 -0.374 -9.438 2.490 3.571 11.047 4.395 326.787 2846.945 -3095.333 -0.109 -0.051 -0.088 -0.03 -0.61 0.79 0
1 2.28 228 -0.455 -9.419 2.519 3.174 12.817 4.303 326.787 2846.945 -3095.333 -0.044 -0.066 -0.106 -0.03 -0.61 0.79 0
1 2.29 229 -0.623 -9.477 2.476 3.479 13.245 3.235 101.784 2876.926 -3140.304 0.114 -0.007 -0.058 -0.03 -0.61 0.79 0
1 2.30 230 -0.699 -9.615 2.404 2.502 13.245 3.113 206.865 2666.913 -3305.347 0.182 0.134 0.020 -0.03 -0.61 0.79 0
1 2.31 231 -0.761 -9.515 2.413 2.869 12.787 2.686 490.181 2846.945 -3219.902 0.234 0.035 0.014 -0.04 -0.61 0.79 0
1 2.32 232 -0.967 -9.429 2.447 2.869 12.665 2.441 490.181 2846.945 -3219.902 0.431 -0.050 -0.016 -0.04 -0.61 0.79 0
1 2.33 233 -0.991 -9.510 2.394 2.838 12.024 3.693 370.259 2876.926 -3174.932 0.444 0.033 0.040 -0.04 -0.61 0.79 0
1 2.34 234 -1.221 -9.433 2.413 2.808 11.047 4.059 340.278 2711.883 -3265.023 0.662 -0.042 0.025 -0.04 -0.61 0.79 0
1 2.35 235 -1.173 -9.457 2.428 1.831 10.040 3.906 340.278 2711.883 -3265.023 0.590 -0.015 0.016 -0.04 -0.61 0.79 0
1 2.36 236 -1.207 -9.400 2.581 0.763 7.538 2.991 235.197 2786.834 -3159.941 0.612 -0.071 -0.134 -0.04 -0.61 0.79 0
1 2.37 237 -1.077 -9.520 2.428 1.099 5.890 3.937 295.308 2756.854 -3280.013 0.472 0.050 0.021 -0.04 -0.61 0.79 0
1 2.38 238 -1.183 -9.544 2.409 1.099 4.456 4.395 295.308 2756.854 -3280.013 0.568 0.075 0.041 -0.04 -0.61 0.79 0
1 2.39 239 -1.159 -9.548 2.380 1.678 2.228 2.838 235.197 2786.834 -3309.994 0.534 0.081 0.072 -0.04 -0.61 0.79 0
1 2.40 240 -1.413 -9.697 2.361 2.258 1.617 3.021 295.308 2876.926 -3354.964 0.778 0.230 0.093 -0.04 -0.61 0.79 0
1 2.41 241 -1.422 -9.659 2.447 2.228 -0.305 1.923 325.288 2756.854 -3144.951 0.779 0.194 0.011 -0.04 -0.61 0.79 0
1 2.42 242 -1.341 -9.682 2.404 2.747 -2.136 1.923 325.288 2756.854 -3144.951 0.684 0.220 0.061 -0.04 -0.61 0.79 0
1 2.43 243 -1.140 -9.668 2.437 2.747 -6.165 1.190 385.249 2786.834 -3265.023 0.478 0.207 0.032 -0.04 -0.61 0.79 0
1 2.44 244 -1.053 -9.496 2.686 1.770 -6.775 0.641 310.298 2741.864 -3384.945 0.391 0.036 -0.212 -0.04 -0.61 0.79 0
1 2.45 245 -1.173 -9.515 2.605 2.167 -6.836 0.641 310.298 2741.864 -3384.945 0.510 0.057 -0.126 -0.04 -0.61 0.79 0
1 2.46 246 -1.140 -9.639 2.519 2.411 -8.667 0.793 325.288 2801.825 -3250.033 0.476 0.183 -0.034 -0.04 -0.61 0.79 0
1 2.47 247 -1.116 -9.477 2.610 1.892 -9.827 0.275 325.288 2756.854 -3354.964 0.452 0.022 -0.120 -0.04 -0.61 0.79 0
1 2.48 248 -1.106 -9.563 2.619 1.556 -11.932 -1.862 340.278 2711.883 -3189.922 0.443 0.109 -0.125 -0.04 -0.61 0.79 0
1 2.49 249 -0.876 -9.592 2.639 2.869 -13.855 -2.441 340.278 2711.883 -3189.922 0.217 0.139 -0.139 0.04 0.61 -0.79 0
1 2.50 250 -0.833 -9.563 2.624 2.319 -15.595 -3.510 475.190 2786.834 -3309.994 0.190 0.112 -0.112 0.04 0.61 -0.79 0
1 2.51 251 -0.939 -9.702 2.811 1.801 -16.602 -3.510 235.197 2711.883 -3189.922 0.305 0.252 -0.292 0.04 0.61 -0.79 0
1 2.52 252 -0.958 -9.654 2.653 1.099 -18.585 -4.547 235.197 2711.883 -3189.922 0.336 0.205 -0.128 0.04 0.61 -0.79 0
1 2.53 253 -1.077 -9.908 2.634 0.366 -18.982 -5.829 145.255 2756.854 -3219.902 0.468 0.459 -0.104 0.04 0.61 -0.79 0
1 2.54 254 -1.250 -9.912 2.586 -0.153 -22.400 -7.965 175.236 2801.825 -3219.902 0.655 0.464 -0.053 0.04 0.61 -0.79 0
1 2.55 255 -1.216 -9.721 2.495 0.305 -27.313 -8.789 400.239 2801.825 -3219.902 0.637 0.272 0.041 0.03 0.61 -0.79 0
1 2.56 256 -0.934 -9.726 2.605 0.641 -31.250 -10.101 400.239 2801.825 -3219.902 0.374 0.277 -0.066 0.03 0.61 -0.79 0
1 2.57 257 -0.618 -9.563 2.557 0.946 -33.173 -10.895 250.187 2681.903 -3354.964 0.108 0.113 -0.010 0.03 0.61 -0.79 0.01
1 2.58 258 -0.244 -9.615 2.413 1.160 -35.553 -8.392 265.177 2666.913 -3384.945 -0.237 0.166 0.139 0.03 0.61 -0.79 0.01
1 2.59 259 0.153 -9.371 2.385 2.411 -37.232 -7.141 265.177 2666.913 -3384.945 -0.606 -0.079 0.172 0.02 0.61 -0.79 0.01
1 2.60 260 0.383 -9.481 2.366 4.028 -36.652 -4.395 235.197 2741.864 -3339.974 -0.806 0.032 0.198 0.02 0.61 -0.79 0.01
1 2.61 261 0.565 -9.520 2.193 3.906 -35.767 -2.502 10.193 2741.864 -3309.994 -0.962 0.071 0.378 0.02 0.61 -0.79 0.01
1 2.62 262 1.178 -9.611 2.131 2.655 -34.363 -0.641 175.236 2726.874 -3174.932 -1.549 0.163 0.447 0.01 0.61 -0.79 0.01
1 2.63 263 1.173 -9.544 2.045 3.174 -33.234 1.678 175.236 2726.874 -3174.932 -1.518 0.096 0.538 0.01 0.61 -0.79 0.01
1 2.64 264 1.441 -9.481 1.939 2.594 -31.769 1.068 175.236 2726.874 -3280.013 -1.738 0.035 0.651 0.01 0.61 -0.79 0.02
1 2.65 265 1.614 -9.486 1.930 2.686 -30.121 -0.122 130.265 2741.864 -3414.925 -1.885 0.039 0.662 0.01 0.61 -0.79 0.02
1 2.66 266 1.561 -9.592 1.939 4.150 -27.802 -2.594 130.265 2741.864 -3414.925 -1.804 0.144 0.655 0 0.61 -0.8 0.02
1 2.67 267 1.317 -9.587 1.968 5.402 -24.811 -3.632 10.193 2786.834 -3265.023 -1.531 0.140 0.630 0 0.61 -0.8 0.02
1 2.68 268 0.910 -9.826 1.868 2.838 -21.210 -4.425 -19.637 2816.965 -3189.922 -1.096 0.380 0.735 -0 0.61 -0.8 0.02
1 2.69 269 0.943 -9.850 1.848 2.258 -20.996 -5.768 130.265 2861.936 -3265.023 -1.104 0.404 0.755 -0 0.61 -0.8 0.02
1 2.70 270 0.919 -9.979 1.786 2.869 -20.752 -7.263 130.265 2861.936 -3265.023 -1.054 0.532 0.816 -0.01 0.61 -0.8 0.02
1 2.71 271 1.097 -10.123 1.796 3.418 -19.013 -6.775 -109.579 2756.854 -3354.964 -1.204 0.675 0.806 -0.01 0.61 -0.8 0.02
1 2.72 272 1.427 -10.022 1.978 5.554 -16.571 -7.446 55.314 2786.834 -3414.925 -1.479 0.574 0.622 -0.01 0.61 -0.8 0.02
1 2.73 273 1.513 -9.979 2.179 5.371 -14.374 -7.904 55.314 2786.834 -3414.925 -1.536 0.532 0.425 -0.01 0.61 -0.8 0.02
1 2.74 274 1.408 -10.118 2.059 4.791 -10.620 -11.108 -64.608 2591.961 -3265.023 -1.400 0.671 0.548 -0.01 0.61 -0.8 0.02
1 2.75 275 1.298 -10.252 2.150 5.432 -8.026 -12.543 -79.598 2681.903 -3399.935 -1.257 0.807 0.461 -0.02 0.61 -0.8 0.02
1 2.76 276 1.020 -10.176 1.987 8.118 -8.667 -15.015 -154.549 2651.922 -3219.902 -0.946 0.732 0.628 -0.02 0.61 -0.8 0.02
1 2.77 277 0.785 -10.061 1.987 9.186 -8.972 -15.686 -154.549 2651.922 -3219.902 -0.679 0.619 0.635 -0.02 0.6 -0.8 0.02
1 2.78 278 0.632 -9.936 1.762 10.712 -9.430 -14.252 -64.608 2636.932 -3384.945 -0.492 0.497 0.867 -0.02 0.6 -0.8 0.01
1 2.79 279 0.508 -9.577 1.887 10.162 -8.453 -11.383 10.193 2636.932 -3490.026 -0.310 0.144 0.762 -0.02 0.6 -0.8 0.01
1 2.80 280 0.374 -9.606 1.796 9.216 -7.202 -10.620 10.193 2636.932 -3490.026 -0.153 0.176 0.862 -0.02 0.6 -0.8 0.01
1 2.81 281 0.302 -9.491 1.714 9.308 -5.890 -7.233 -154.549 2726.874 -3354.964 -0.061 0.063 0.951 -0.02 0.6 -0.8 0.01
1 2.82 282 0.263 -9.390 1.666 9.674 -4.486 -4.639 -154.549 2726.874 -3354.964 -0.010 -0.035 1.006 -0.02 0.6 -0.8 0.01
1 2.83 283 0.000 -9.338 1.571 10.468 -5.066 -1.068 -184.530 2756.854 -3354.964 0.262 -0.085 1.109 -0.03 0.6 -0.8 0.01
1 2.84 284 0.359 -9.137 1.508 10.345 -3.693 0.702 -184.530 2756.854 -3354.964 -0.092 -0.284 1.180 -0.03 0.6 -0.8 0.01
1 2.85 285 0.488 -9.098 1.551 9.827 -1.617 2.136 -94.588 2741.864 -3265.023 -0.220 -0.319 1.145 -0.03 0.6 -0.8 0.01
1 2.86 286 0.546 -9.208 1.528 9.796 1.129 2.777 -109.579 2531.851 -3399.935 -0.279 -0.205 1.184 -0.03 0.6 -0.8 0.01
1 2.87 287 0.852 -9.338 1.374 8.850 4.608 5.066 -109.579 2531.851 -3399.935 -0.589 -0.074 1.344 -0.02 0.6 -0.8 0.01
1 2.88 288 0.900 -9.223 1.283 8.911 6.378 5.676 -19.637 2786.834 -3384.945 -0.641 -0.188 1.440 -0.02 0.6 -0.8 0.01
1 2.89 289 0.972 -9.141 1.274 8.057 6.989 5.890 -19.637 2786.834 -3384.945 -0.718 -0.268 1.455 -0.02 0.6 -0.8 0.01
1 2.90 290 0.996 -9.199 1.365 6.012 8.850 6.592 -154.549 2576.821 -3429.916 -0.747 -0.210 1.366 -0.02 0.6 -0.8 0.01
1 2.91 291 1.053 -9.117 1.269 4.334 10.162 7.721 -154.549 2576.821 -3429.916 -0.810 -0.291 1.463 -0.02 0.6 -0.8 0.01
1 2.92 292 0.752 -9.304 1.097 3.479 10.834 7.324 -246.889 2711.733 -3269.670 -0.516 -0.105 1.634 -0.02 0.6 -0.8 0.01
1 2.93 293 0.426 -9.213 1.073 1.923 11.536 5.890 -231.899 2651.772 -3404.582 -0.199 -0.197 1.654 -0.02 0.6 -0.8 0.01
1 2.94 294 0.431 -9.357 0.982 -0.885 10.559 3.784 -231.899 2651.772 -3404.582 -0.221 -0.058 1.730 -0.02 0.6 -0.8 0.01
1 2.95 295 0.551 -9.501 0.991 -2.289 9.033 2.533 -36.876 2726.724 -3359.611 -0.347 0.082 1.707 -0.02 0.6 -0.8 0.01
1 2.96 296 0.584 -9.505 1.149 -3.052 9.460 1.434 -36.876 2726.724 -3359.611 -0.384 0.082 1.536 -0.02 0.6 -0.8 0.01
1 2.97 297 0.646 -9.706 1.202 -4.700 10.742 -0.092 -111.827 2651.772 -3329.631 -0.447 0.279 1.468 -0.02 0.6 -0.8 0.01
1 2.98 298 0.603 -9.769 1.049 -5.920 11.627 -2.625 -111.827 2651.772 -3329.631 -0.404 0.337 1.605 -0.02 0.6 -0.8 0.01
1 2.99 299 0.584 -9.807 0.943 -5.646 10.376 -4.730 -96.837 2591.662 -3524.654 -0.382 0.370 1.692 -0.02 0.6 -0.8 0
1 3.00 300 0.627 -9.764 0.986 -5.280 8.881 -8.453 -201.918 2636.632 -3389.592 -0.419 0.322 1.630 -0.02 0.61 -0.8 0
1 3.01 301 0.747 -9.788 1.053 -4.120 7.050 -11.292 -201.918 2636.632 -3389.592 -0.511 0.337 1.527 -0.02 0.61 -0.79 0
1 3.02 302 0.690 -9.888 1.298 -2.136 6.958 -13.214 -111.827 2576.671 -3434.562 -0.432 0.434 1.269 -0.02 0.61 -0.79 0
1 3.03 303 0.795 -9.965 1.585 -1.251 7.446 -13.428 -111.827 2576.671 -3434.562 -0.516 0.508 0.970 0.02 -0.61 0.79 0
1 3.04 304 0.522 -10.190 2.107 -0.427 7.568 -14.557 -171.938 2711.733 -3449.553 -0.222 0.732 0.440 0.02 -0.61 0.79 0
1 3.05 305 0.536 -10.372 2.605 0.671 5.310 -18.280 -171.938 2711.733 -3449.553 -0.214 0.913 -0.062 0.02 -0.61 0.79 0
1 3.06 306 0.397 -10.846 3.093 1.465 0.122 -22.186 -141.958 2666.763 -3419.572 -0.046 1.388 -0.550 0.02 -0.61 0.79 0.01
1 3.07 307 0.412 -10.966 3.371 0.702 -4.486 -24.719 -66.856 2636.632 -3314.641 -0.028 1.510 -0.825 0.02 -0.61 0.79 0.01
1 3.08 308 0.656 -11.133 2.777 -0.580 -5.371 -33.203 -66.856 2636.632 -3314.641 -0.190 1.682 -0.228 0.02 -0.61 0.79 0.01
1 3.09 309 1.097 -10.674 2.337 0.183 2.625 -30.731 -141.958 2666.763 -3269.670 -0.580 1.225 0.212 0.02 -0.61 0.79 0.01
1 3.10 310 0.953 -10.276 2.140 -0.122 7.996 -25.452 -141.958 2666.763 -3269.670 -0.394 0.831 0.411 0.02 -0.61 0.79 0.01
1 3.11 311 0.776 -10.281 2.112 -6.439 11.841 -24.536 -81.847 2606.652 -3329.631 -0.182 0.837 0.437 0.03 -0.61 0.79 0.02
1 3.12 312 1.197 -11.057 2.097 -17.181 14.038 -28.351 -201.918 2741.714 -3449.553 -0.569 1.611 0.437 0.03 -0.61 0.79 0.02
1 3.13 313 1.681 -11.564 2.342 -9.125 10.864 -26.215 -231.899 2456.750 -3404.582 -1.017 2.115 0.169 0.03 -0.61 0.79 0.02
1 3.14 314 1.623 -11.718 2.840 1.068 8.972 -17.944 -246.889 2666.763 -3449.553 -0.924 2.267 -0.344 0.03 -0.61 0.79 0.02
1 3.15 315 1.480 -11.617 3.256 0.458 11.353 -6.683 -246.889 2666.763 -3449.553 -0.753 2.168 -0.760 0.03 -0.61 0.79 0.03
1 3.16 316 1.331 -11.971 3.477 -8.362 16.510 7.446 -261.879 2606.652 -3284.660 -0.599 2.523 -0.980 0.03 -0.61 0.79 0.03
1 3.17 317 1.116 -12.431 3.730 -2.655 19.104 14.648 -261.879 2606.652 -3284.660 -0.402 2.979 -1.241 0.02 -0.61 0.79 0.03
1 3.18 318 0.857 -12.240 3.577 2.014 21.545 25.024 -276.870 2636.632 -3344.621 -0.174 2.786 -1.087 0.02 -0.61 0.79 0.03
1 3.19 319 0.134 -11.521 3.826 7.294 23.926 39.093 -96.837 2636.632 -3389.592 0.501 2.066 -1.329 0.02 -0.61 0.79 0.03
1 3.20 320 -0.455 -10.889 4.065 7.813 25.543 46.723 -81.847 2531.701 -3359.611 1.029 1.433 -1.556 0.02 -0.61 0.79 0.03
1 3.21 321 -0.704 -10.362 3.855 4.883 24.780 51.148 -276.870 2546.691 -3239.540 1.203 0.906 -1.331 0.01 -0.61 0.79 0.02
1 3.22 322 -0.852 -10.018 3.931 4.700 22.949 52.887 -276.870 2546.691 -3239.540 1.270 0.561 -1.396 0.01 -0.61 0.79 0.02
1 3.23 323 -0.886 -9.558 4.104 8.087 23.651 52.307 -111.827 2576.671 -3359.611 1.129 0.102 -1.543 0 -0.61 0.79 0.02
1 3.24 324 -0.603 -8.873 4.473 10.101 25.513 51.422 -111.827 2576.671 -3359.611 0.755 -0.578 -1.886 -0 -0.61 0.79 0.02
1 3.25 325 -0.283 -8.481 4.616 13.428 27.680 50.995 -6.896 2651.772 -3254.680 0.345 -0.963 -1.999 -0.01 -0.61 0.8 0.01
1 3.26 326 -0.105 -7.877 4.271 17.334 25.971 47.821 -36.876 2576.671 -3404.582 0.081 -1.557 -1.617 -0.01 -0.6 0.8 0.01
1 3.27 327 0.010 -7.221 4.204 19.287 27.618 40.436 128.017 2591.662 -3269.670 -0.111 -2.201 -1.510 -0.01 -0.6 0.8 0.01
1 3.28 328 -0.158 -7.030 4.315 16.724 31.494 34.729 157.997 2591.662 -3269.670 -0.014 -2.383 -1.592 -0.02 -0.6 0.8 0.01
1 3.29 329 -0.359 -6.896 4.453 13.001 35.523 28.046 155.898 2591.512 -3275.216 0.123 -2.508 -1.706 -0.02 -0.6 0.8 0.01
1 3.30 330 -1.006 -7.149 3.998 11.200 37.415 19.806 65.957 2651.473 -3290.207 0.667 -2.241 -1.215 -0.03 -0.6 0.8 0.01
1 3.31 331 -1.705 -7.647 3.936 8.972 36.316 13.794 65.957 2651.473 -3290.207 1.328 -1.738 -1.140 -0.03 -0.6 0.8 0.01
1 3.32 332 -2.126 -7.767 3.654 8.453 33.539 10.345 200.869 2546.541 -3395.288 1.716 -1.613 -0.846 -0.03 -0.6 0.8 0.01
1 3.33 333 -2.385 -8.064 3.266 5.493 27.588 6.928 290.960 2681.453 -3410.278 1.941 -1.310 -0.444 -0.04 -0.6 0.8 0.01
1 3.34 334 -2.428 -8.734 3.362 2.563 22.339 6.989 290.960 2531.551 -3410.278 1.951 -0.635 -0.528 -0.04 -0.59 0.8 0.01
1 3.35 335 -2.227 -9.074 3.323 5.707 19.562 11.566 290.960 2426.469 -3335.177 1.717 -0.291 -0.482 -0.04 -0.59 0.8 0.01
1 3.36 336 -2.069 -9.347 3.151 10.223 16.998 15.472 290.960 2426.469 -3335.177 1.521 -0.013 -0.299 -0.04 -0.59 0.8 0.01
1 3.37 337 -1.801 -9.256 3.204 14.465 17.273 18.951 290.960 2576.521 -3185.275 1.213 -0.096 -0.336 -0.05 -0.59 0.8 0.01
1 3.38 338 -1.772 -9.070 3.170 20.508 18.829 22.492 290.960 2576.521 -3185.275 1.096 -0.263 -0.256 -0.05 -0.59 0.81 0.01
1 3.39 339 -1.824 -8.950 3.098 19.623 19.318 23.804 155.898 2471.440 -3320.187 1.101 -0.369 -0.154 -0.05 -0.59 0.81 0.01
1 3.40 340 -2.112 -8.787 2.897 16.113 19.196 23.651 320.941 2381.499 -3260.226 1.339 -0.520 0.074 -0.05 -0.59 0.81 0.01
1 3.41 341 -2.169 -8.720 2.801 11.932 16.266 22.186 410.882 2516.561 -3275.216 1.346 -0.576 0.191 -0.06 -0.59 0.81 0.01
1 3.42 342 -2.035 -9.184 2.672 3.845 7.935 19.501 410.882 2471.440 -3245.236 1.165 -0.102 0.334 -0.06 -0.59 0.81 0.01
1 3.43 343 -1.939 -9.467 2.476 2.960 3.479 18.341 410.882 2471.440 -3245.236 1.027 0.186 0.537 -0.06 -0.59 0.81 0
1 3.44 344 -1.465 -9.611 2.571 6.317 1.404 17.273 335.931 2321.538 -3275.216 0.517 0.334 0.442 -0.06 -0.59 0.81 0
1 3.45 345 -1.422 -9.496 2.251 12.756 -0.793 14.862 335.931 2321.538 -3275.216 0.418 0.229 0.777 -0.06 -0.58 0.81 0
1 3.46 346 -1.609 -9.175 2.222 12.238 -2.045 13.886 365.912 2501.570 -3260.226 0.582 -0.084 0.820 -0.06 -0.58 0.81 0
1 3.47 347 -1.633 -8.964 2.145 11.169 -2.258 12.054 440.863 2471.440 -3275.216 0.585 -0.289 0.909 0.07 0.58 -0.81 0
1 3.48 348 -2.193 -8.926 1.935 10.681 -4.242 10.407 485.833 2456.450 -3365.158 1.127 -0.321 1.131 0.07 0.58 -0.81 0
1 3.49 349 -2.495 -8.811 1.729 8.789 -9.033 10.529 470.843 2591.512 -3350.167 1.409 -0.431 1.346 0.07 0.58 -0.81 0
1 3.50 350 -2.816 -8.629 1.355 5.829 -17.487 10.956 470.843 2591.512 -3350.167 1.710 -0.608 1.725 0.07 0.58 -0.81 0
1 3.51 351 -2.361 -8.346 0.929 3.296 -23.346 11.017 290.960 2426.469 -3365.158 1.237 -0.887 2.155 0.07 0.58 -0.81 0.01
1 3.52 352 -2.121 -8.093 0.742 -3.326 -26.032 11.292 290.960 2426.469 -3365.158 0.979 -1.137 2.347 0.06 0.58 -0.81 0.01
1 3.53 353 -2.050 -7.839 0.378 -9.064 -26.611 10.620 320.941 2336.528 -3410.278 0.904 -1.391 2.709 0.06 0.58 -0.81 0.01
1 3.54 354 -1.963 -7.465 0.335 -15.320 -26.428 8.759 485.833 2426.469 -3365.158 0.816 -1.768 2.743 0.06 0.58 -0.81 0.01
1 3.55 355 -1.882 -7.523 0.412 -24.353 -27.405 6.714 485.833 2426.469 -3365.158 0.737 -1.717 2.646 0.06 0.58 -0.81 0.02
1 3.56 356 -1.599 -8.088 1.006 -38.941 -26.886 5.981 395.892 2336.528 -3260.226 0.459 -1.163 2.020 0.06 0.58 -0.81 0.02
1 3.57 357 -1.274 -8.476 1.336 -42.297 -24.658 6.165 395.892 2336.528 -3260.226 0.139 -0.791 1.643 0.06 0.59 -0.81 0.02
1 3.58 358 -0.852 -8.624 1.733 -35.584 -20.569 6.134 290.960 2426.469 -3365.158 -0.279 -0.661 1.190 0.06 0.59 -0.81 0.02
1 3.59 359 -0.670 -8.581 1.671 -24.139 -16.968 3.754 290.960 2426.469 -3365.158 -0.459 -0.720 1.203 0.05 0.59 -0.8 0.02
1 3.60 360 -0.541 -8.476 1.920 -12.726 -14.404 -3.235 305.951 2471.440 -3245.236 -0.578 -0.844 0.896 0.05 0.59 -0.8 0.03
1 3.61 361 -0.417 -8.284 1.997 -14.099 -13.611 -5.554 290.960 2381.499 -3410.278 -0.690 -1.042 0.803 0.05 0.6 -0.8 0.03
1 3.62 362 -0.259 -8.294 1.858 -18.036 -11.871 -7.690 290.960 2381.499 -3410.278 -0.832 -1.040 0.923 0.05 0.6 -0.8 0.03
1 3.63 363 -0.263 -8.366 1.480 -19.623 -10.345 -11.505 245.840 2456.450 -3365.158 -0.808 -0.977 1.278 0.05 0.6 -0.8 0.03
1 3.64 364 -0.455 -8.533 1.015 -20.142 -8.575 -18.341 245.840 2456.450 -3365.158 -0.594 -0.820 1.716 0.05 0.6 -0.8 0.03
1 3.65 365 -0.603 -8.471 0.512 -19.440 -12.177 -23.041 230.850 2591.512 -3350.167 -0.416 -0.893 2.191 0.05 0.6 -0.8 0.03
1 3.66 366 -0.766 -8.476 0.929 -22.492 -15.778 -26.703 230.850 2591.512 -3350.167 -0.216 -0.900 1.749 0.04 0.6 -0.8 0.02
1 3.67 367 -0.527 -8.533 4.027 -46.143 -9.369 -27.313 290.960 2531.551 -3155.294 -0.360 -0.871 -1.418 0.04 0.6 -0.8 0.02
1 3.68 368 0.077 -11.277 5.526 -65.033 5.951 -10.956 365.912 2381.499 -3290.207 -0.922 1.853 -2.973 0.04 0.61 -0.79 0.02
1 3.69 369 -0.215 -12.929 3.778 -64.301 11.231 8.118 365.912 2381.499 -3290.207 -0.625 3.479 -1.322 0.04 0.61 -0.79 0.02
1 3.70 370 -0.508 -13.465 3.462 -45.593 12.421 9.522 215.859 2426.469 -3230.246 -0.350 3.995 -1.094 0.04 0.61 -0.79 0.02
1 3.71 371 -0.963 -12.900 4.463 -12.573 0.366 -14.130 155.898 2471.440 -3200.265 0.093 3.416 -2.155 0.04 0.62 -0.79 0.02
1 3.72 372 -0.958 -12.623 4.947 -0.549 -2.289 -31.189 260.830 2666.463 -2990.252 0.102 3.130 -2.666 0.04 0.62 -0.78 0.02
1 3.73 373 -1.595 -12.809 5.636 -27.924 4.028 -31.799 260.830 2666.463 -2990.252 0.781 3.313 -3.356 0.04 0.62 -0.78 0.02
1 3.74 374 -2.658 -13.643 5.133 -58.533 6.470 -30.060 200.869 2786.535 -3200.265 1.934 4.115 -2.957 0.04 0.62 -0.78 0.02
1 3.75 375 -4.429 -14.366 4.482 -35.950 -2.838 -32.837 125.918 2741.564 -3065.203 3.753 4.817 -2.386 0.03 0.63 -0.78 0.01
1 3.76 376 -4.717 -14.031 4.367 -9.888 -14.557 -25.726 125.918 2741.564 -3065.203 4.090 4.469 -2.311 0.03 0.63 -0.78 0.01
1 3.77 377 -3.721 -12.632 4.267 4.852 -27.954 -15.442 200.869 2636.482 -3020.232 3.134 3.067 -2.216 0.03 0.63 -0.78 0.01
1 3.78 378 -1.365 -10.784 4.506 16.602 -42.542 -11.292 170.889 2726.574 -3050.213 0.810 1.220 -2.442 0.03 0.63 -0.78 0.01
1 3.79 379 -0.163 -10.008 4.698 22.949 -40.436 -11.139 -23.984 2591.512 -3020.232 -0.361 0.448 -2.607 0.02 0.63 -0.78 0.01
1 3.80 380 0.536 -9.453 4.712 25.543 -33.997 -4.608 -23.984 2591.512 -3020.232 -1.029 -0.101 -2.586 0.02 0.63 -0.78 0.01
1 3.81 381 0.843 -8.959 4.511 25.086 -24.506 7.324 215.859 2726.574 -3005.242 -1.312 -0.587 -2.345 0.02 0.62 -0.78 0.02
1 3.82 382 0.460 -8.466 3.615 16.083 -11.566 18.585 -113.926 2726.574 -3110.174 -0.922 -1.055 -1.343 0.02 0.62 -0.78 0.02
1 3.83 383 0.254 -8.356 3.352 13.733 -6.714 19.531 -113.926 2726.574 -3110.174 -0.733 -1.156 -1.043 0.02 0.62 -0.79 0.02
1 3.84 384 0.110 -8.217 3.381 16.968 -5.951 16.876 125.918 2711.434 -3095.184 -0.608 -1.286 -1.039 0.02 0.62 -0.79 0.02
1 3.85 385 0.172 -7.753 3.357 20.722 -6.226 11.566 5.846 2546.541 -3020.232 -0.685 -1.740 -0.978 0.02 0.62 -0.79 0.02
1 3.86 386 0.718 -7.724 3.668 14.130 -7.202 0.671 80.947 2636.482 -3140.154 -1.242 -1.761 -1.258 0.02 0.61 -0.79 0.02
1 3.87 387 0.953 -8.045 3.563 3.937 -5.524 -7.385 80.947 2636.482 -3140.154 -1.477 -1.433 -1.127 0.02 0.61 -0.79 0.02
1 3.88 388 1.192 -8.667 3.318 2.014 -3.357 -17.731 -38.975 2651.473 -3185.275 -1.705 -0.808 -0.872 0.01 0.61 -0.79 0.02
1 3.89 389 1.302 -8.725 3.266 9.888 -5.585 -30.060 80.947 2591.512 -3065.203 -1.727 -0.747 -0.788 0.01 0.61 -0.79 0.02
1 3.90 390 0.790 -8.643 3.323 12.146 -6.958 -32.410 80.947 2591.512 -3065.203 -1.155 -0.825 -0.821 0.01 0.61 -0.79 0.02
1 3.91 391 0.599 -8.500 3.342 8.026 -9.552 -29.999 5.846 2786.535 -3200.265 -0.904 -0.964 -0.816 0.01 0.61 -0.79 0.02
1 3.92 392 0.512 -8.361 3.208 5.188 -11.719 -28.626 -68.955 2741.564 -3170.285 -0.763 -1.100 -0.663 0 0.61 -0.79 0.02
1 3.93 393 0.474 -8.303 3.050 3.540 -11.078 -26.642 -113.926 2651.473 -3185.275 -0.673 -1.154 -0.490 0 0.61 -0.79 0.01
1 3.94 394 0.445 -8.399 2.758 2.197 -7.782 -22.217 -113.926 2651.473 -3185.275 -0.595 -1.056 -0.186 -0 0.61 -0.79 0.01
1 3.95 395 0.206 -8.198 2.581 -0.610 -7.568 -18.494 -8.994 2531.551 -3185.275 -0.313 -1.255 -0.000 -0 0.61 -0.79 0.01
1 3.96 396 0.014 -8.141 2.184 -5.035 -8.423 -14.893 -68.955 2666.463 -3200.265 -0.057 -1.313 0.398 -0.01 0.61 -0.79 0.01
1 3.97 397 0.062 -8.342 2.102 -5.310 -8.026 -12.634 -68.955 2666.463 -3200.265 -0.080 -1.114 0.473 -0.01 0.61 -0.79 0.01
1 3.98 398 0.014 -8.461 1.968 -6.928 -9.491 -9.888 -188.877 2531.551 -3185.275 -0.010 -0.996 0.599 -0.01 0.61 -0.79 0.01
1 3.99 399 0.153 -8.533 1.997 -10.559 -10.925 -8.453 -308.949 2576.521 -3155.294 -0.130 -0.927 0.560 -0.01 0.61 -0.79 0.01
1 4.00 400 0.388 -8.974 1.882 -11.993 -9.979 -8.057 -162.494 2500.971 -3056.809 -0.347 -0.491 0.659 -0.01 0.61 -0.79 0.01
1 4.01 401 0.623 -9.213 1.767 -11.536 -9.613 -4.669 -162.494 2500.971 -3056.809 -0.564 -0.257 0.754 -0.01 0.61 -0.79 0.01
1 4.02 402 0.891 -9.366 1.738 -10.315 -8.392 -2.747 -207.465 2710.984 -3176.730 -0.815 -0.109 0.763 -0.01 0.61 -0.79 0.01
1 4.03 403 0.982 -9.424 1.499 -8.423 -8.087 -1.617 -252.585 2785.935 -3146.750 -0.894 -0.056 0.983 -0.01 0.61 -0.79 0.01
1 4.04 404 1.231 -9.041 1.408 -4.944 -3.174 1.099 -252.585 2785.935 -3146.750 -1.119 -0.448 1.041 -0.01 0.61 -0.79 0.01
1 4.05 405 1.269 -8.801 1.173 -4.456 -0.793 1.801 -117.523 2680.854 -3086.789 -1.149 -0.690 1.263 -0.02 0.61 -0.79 0.01
1 4.06 406 1.288 -8.600 0.939 -5.035 3.174 3.754 -252.585 2545.941 -3176.730 -1.161 -0.894 1.485 -0.02 0.61 -0.79 0.01
1 4.07 407 1.398 -8.332 0.905 -7.446 7.172 5.371 -192.475 2680.854 -3056.809 -1.277 -1.164 1.512 -0.02 0.61 -0.79 0.01
1 4.08 408 1.240 -8.418 0.891 -14.008 12.238 9.460 -192.475 2680.854 -3056.809 -1.130 -1.081 1.516 -0.01 0.61 -0.79 0.01
1 4.09 409 1.063 -8.490 1.010 -15.961 15.076 13.001 -177.484 2635.883 -3101.779 -0.969 -1.014 1.378 -0.01 0.61 -0.79 0.01
1 4.10 410 0.627 -8.634 1.173 -16.480 18.036 13.886 -72.553 2635.883 -3146.750 -0.555 -0.876 1.194 -0.01 0.62 -0.79 0.01
1 4.11 411 0.225 -8.686 1.154 -16.602 19.470 11.200 -72.553 2635.883 -3146.750 -0.201 -0.836 1.163 -0.01 0.62 -0.79 0.01
1 4.12 412 0.005 -9.022 1.470 -14.771 17.029 7.629 2.398 2665.863 -3146.750 0.000 -0.507 0.821 -0.01 0.62 -0.79 0.01
1 4.13 413 -0.019 -9.146 1.590 -11.719 13.519 6.012 -252.585 2545.941 -3101.779 0.010 -0.388 0.677 -0.01 0.62 -0.78 0.01
1 4.14 414 0.129 -9.515 2.040 -13.397 10.986 2.686 -252.585 2545.941 -3101.779 -0.150 -0.024 0.206 -0.01 0.62 -0.78 0.01
1 4.15 415 0.273 -10.324 2.035 -18.524 10.712 -3.876 -117.523 2800.925 -2861.786 -0.297 0.780 0.188 -0 0.62 -0.78 0.01
1 4.16 416 0.249 -10.770 1.805 -17.761 10.223 -7.446 -147.504 2635.883 -3071.799 -0.269 1.219 0.392 -0 0.62 -0.78 0.01
1 4.17 417 0.201 -10.798 1.743 -12.817 8.118 -8.820 -162.494 2680.854 -2981.708 -0.210 1.241 0.425 -0 0.62 -0.78 0.01
1 4.18 418 0.129 -10.722 1.657 -5.066 6.714 -6.195 -162.494 2680.854 -2981.708 -0.117 1.158 0.481 -0 0.63 -0.78 0
1 4.19 419 -0.148 -10.702 1.432 -4.181 8.484 -2.808 -147.504 2665.863 -3071.799 0.168 1.137 0.700 -0 0.63 -0.78 0
1 4.20 420 0.067 -10.520 1.298 -3.967 10.834 0.519 -147.504 2665.863 -3026.828 -0.047 0.953 0.826 -0 0.63 -0.78 0
1 4.21 421 0.081 -10.750 1.595 -2.747 11.749 1.709 -147.504 2665.863 -3026.828 -0.065 1.181 0.520 -0 0.63 -0.78 0
1 4.22 422 0.239 -11.445 4.075 -1.251 8.179 -2.808 -102.533 2635.883 -3026.828 -0.228 1.874 -1.966 -0 0.63 -0.78 0
1 4.23 423 0.129 -12.460 4.755 -9.399 3.540 -17.334 -72.553 2785.935 -3026.828 -0.117 2.889 -2.646 -0 0.63 -0.78 0
1 4.24 424 0.378 -13.284 3.606 -20.630 -0.244 -38.818 -207.465 2710.984 -2996.698 -0.347 3.711 -1.506 -0 0.63 -0.78 0
1 4.25 425 0.474 -13.394 1.992 -6.775 -3.479 -40.955 -207.465 2710.984 -2996.698 -0.392 3.816 0.082 0 -0.63 0.78 0
1 4.26 426 -0.311 -11.837 2.040 17.914 -5.127 -17.334 -72.553 2710.984 -2951.727 0.504 2.261 0.033 0.01 -0.63 0.78 0.01
1 4.27 427 -0.388 -11.205 2.241 2.319 4.242 -6.989 -147.504 2740.964 -2951.727 0.604 1.635 -0.145 0.01 -0.63 0.78 0.01
1 4.28 428 -0.163 -11.852 2.878 -18.280 8.118 -3.052 -147.504 2740.964 -2951.727 0.387 2.280 -0.785 0.01 -0.63 0.78 0.01
1 4.29 429 1.001 -13.513 3.055 -20.844 6.012 -4.822 -192.475 2650.873 -2981.708 -0.773 3.936 -0.991 0.01 -0.63 0.78 0.01
1 4.30 430 2.509 -13.729 3.304 7.935 1.190 5.463 -102.533 2740.964 -2891.766 -2.276 4.146 -1.264 0.01 -0.63 0.78 0.01
1 4.31 431 2.366 -12.953 3.912 15.808 8.087 16.083 -237.445 2800.925 -3011.838 -2.136 3.372 -1.867 0.01 -0.63 0.78 0.01
1 4.32 432 1.475 -12.029 4.142 7.935 20.966 26.398 -237.445 2800.925 -3011.838 -1.266 2.452 -2.073 0.01 -0.63 0.78 0.01
1 4.33 433 0.642 -11.435 3.960 14.130 25.147 27.252 -162.494 2680.854 -2936.737 -0.520 1.863 -1.861 0 -0.63 0.78 0.01
1 4.34 434 0.077 -10.252 4.003 24.078 20.111 30.029 -162.494 2755.955 -2936.737 -0.002 0.686 -1.879 0 -0.63 0.78 0.01
1 4.35 435 -0.019 -8.979 4.200 31.616 22.095 33.295 -162.494 2755.955 -2936.737 0.042 -0.579 -2.035 -0 -0.62 0.78 0
1 4.36 436 -0.426 -7.987 4.477 29.511 28.748 35.248 -117.523 2680.854 -2981.708 0.394 -1.556 -2.251 -0 -0.62 0.78 0
1 4.37 437 -1.322 -7.422 4.439 18.280 30.579 34.454 -72.553 2590.912 -2921.747 1.225 -2.107 -2.154 -0.01 -0.62 0.79 0
1 4.38 438 -1.489 -7.408 4.338 18.646 26.062 32.349 2.398 2635.883 -2921.747 1.326 -2.109 -2.005 -0.01 -0.62 0.79 0
1 4.39 439 -1.671 -7.432 4.022 20.172 19.714 27.710 2.398 2635.883 -2921.747 1.452 -2.077 -1.663 -0.01 -0.62 0.79 0
1 4.40 440 -1.748 -7.130 3.922 18.555 17.090 17.822 -42.572 2530.951 -2981.708 1.441 -2.362 -1.504 0.02 0.61 -0.79 0
1 4.41 441 -2.030 -7.130 3.955 13.184 18.036 14.038 2.398 2545.941 -3026.828 1.693 -2.354 -1.512 0.02 0.61 -0.79 0
1 4.42 442 -2.346 -7.370 3.754 7.050 17.548 10.193 2.398 2545.941 -3026.828 1.985 -2.110 -1.294 0.02 0.61 -0.79 0
1 4.43 443 -2.418 -7.322 3.424 3.113 11.261 7.507 32.379 2650.873 -3056.809 2.038 -2.155 -0.955 0.02 0.61 -0.79 0
1 4.44 444 -2.073 -7.781 2.950 -0.458 -3.723 4.120 47.369 2545.941 -3026.828 1.682 -1.693 -0.478 0.02 0.61 -0.79 0
1 4.45 445 -1.820 -8.284 3.208 -0.580 -4.395 10.010 92.340 2575.922 -3116.770 1.424 -1.190 -0.735 0.02 0.61 -0.79 0
1 4.46 446 -1.489 -8.830 3.180 -0.244 0.580 20.172 89.642 2575.622 -3123.665 1.084 -0.644 -0.706 0.02 0.61 -0.79 0
1 4.47 447 -1.566 -9.175 3.041 2.319 5.127 29.083 74.651 2665.563 -3003.593 1.128 -0.296 -0.560 0.03 0.61 -0.79 0
1 4.48 448 -1.839 -9.194 3.093 10.742 7.935 37.201 74.651 2635.583 -3003.593 1.295 -0.266 -0.591 0.03 0.61 -0.79 0.01
1 4.49 449 -1.777 -9.285 2.883 15.717 6.744 41.351 74.651 2635.583 -3003.593 1.166 -0.165 -0.359 0.03 0.61 -0.79 0.01
1 4.50 450 -1.666 -8.945 2.911 17.517 4.913 44.800 89.642 2455.550 -3018.583 0.985 -0.493 -0.361 0.03 0.61 -0.79 0.01
1 4.51 451 -1.590 -8.634 2.969 14.618 3.113 43.793 149.603 2635.583 -3078.694 0.835 -0.791 -0.391 0.04 0.61 -0.79 0.02
1 4.52 452 -1.475 -8.672 2.600 6.287 1.099 36.774 194.573 2470.690 -3003.593 0.652 -0.740 0.002 0.04 0.6 -0.8 0.02
1 4.53 453 -1.365 -8.864 2.480 1.556 -2.502 31.830 194.573 2470.690 -3003.593 0.482 -0.539 0.136 0.04 0.6 -0.8 0.02
1 4.54 454 -1.494 -9.146 2.289 0.916 -6.195 28.748 134.612 2575.622 -3063.704 0.561 -0.250 0.333 0.04 0.6 -0.8 0.02
1 4.55 455 -1.403 -9.261 2.351 4.211 -11.353 22.583 239.544 2650.573 -3063.704 0.391 -0.125 0.278 0.04 0.6 -0.8 0.03
1 4.56 456 -1.274 -9.228 2.361 6.744 -14.313 18.433 239.544 2650.573 -3063.704 0.234 -0.153 0.276 0.04 0.6 -0.8 0.03
1 4.57 457 -1.245 -9.127 2.279 8.179 -17.731 13.794 89.642 2500.671 -3123.665 0.186 -0.248 0.370 0.04 0.6 -0.8 0.03
1 4.58 458 -1.183 -8.931 2.351 8.698 -20.142 10.376 89.642 2500.671 -3123.665 0.112 -0.440 0.312 0.04 0.6 -0.8 0.03
1 4.59 459 -1.480 -8.897 2.035 9.247 -24.811 5.341 134.612 2575.622 -3063.704 0.404 -0.468 0.643 0.04 0.6 -0.8 0.03
1 4.60 460 -1.796 -8.672 1.805 11.169 -28.076 2.228 134.612 2575.622 -3063.704 0.719 -0.689 0.886 0.04 0.6 -0.8 0.04
1 4.61 461 -1.853 -8.653 1.695 10.834 -32.959 0.427 164.593 2425.570 -3063.704 0.781 -0.704 1.013 0.04 0.6 -0.8 0.04
1 4.62 462 -1.959 -8.481 1.647 7.874 -36.530 -0.549 164.593 2455.550 -3063.704 0.902 -0.870 1.091 0.04 0.6 -0.8 0.04
1 4.63 463 -2.140 -8.437 1.413 5.554 -41.046 -0.366 164.593 2455.550 -3063.704 1.094 -0.911 1.334 0.03 0.6 -0.8 0.04
1 4.64 464 -2.332 -8.308 1.202 4.517 -44.342 -1.801 149.603 2590.612 -3258.727 1.301 -1.039 1.556 0.03 0.6 -0.8 0.05
1 4.65 465 -2.433 -8.112 1.307 3.967 -47.882 -2.716 149.603 2590.612 -3258.727 1.420 -1.234 1.461 0.03 0.6 -0.8 0.05
1 4.66 466 -2.212 -7.834 1.168 3.967 -46.539 -0.702 149.603 2515.661 -3033.724 1.225 -1.511 1.614 0.03 0.6 -0.8 0.05
1 4.67 467 -1.786 -7.844 1.125 -0.763 -45.685 2.350 149.603 2515.661 -3033.724 0.822 -1.500 1.670 0.02 0.6 -0.8 0.05
1 4.68 468 -1.269 -8.040 1.518 -13.214 -41.809 3.693 74.651 2665.563 -3078.694 0.324 -1.303 1.286 0.02 0.6 -0.8 0.05
1 4.69 469 -0.785 -8.418 1.729 -25.940 -36.102 6.378 -90.241 2530.651 -3063.704 -0.145 -0.928 1.069 0.02 0.6 -0.8 0.06
1 4.70 470 -0.019 -8.931 1.877 -24.872 -24.048 8.789 -90.241 2530.651 -3063.704 -0.898 -0.435 0.858 0.01 0.6 -0.8 0.06
1 4.71 471 0.407 -8.792 1.858 -12.970 -13.702 9.216 -15.290 2530.651 -3093.685 -1.322 -0.584 0.844 0.01 0.6 -0.8 0.06
1 4.72 472 0.972 -8.648 1.523 -5.463 -7.172 8.514 -15.290 2530.651 -3093.685 -1.885 -0.732 1.163 0.01 0.6 -0.8 0.06
1 4.73 473 1.336 -8.643 1.322 -8.453 -2.625 7.904 -75.251 2635.583 -2928.642 -2.246 -0.741 1.350 0.01 0.6 -0.8 0.06
1 4.74 474 1.719 -8.505 1.049 -21.057 4.669 6.714 -75.251 2635.583 -2928.642 -2.623 -0.887 1.602 0.01 0.6 -0.79 0.06
1 4.75 475 1.590 -8.595 0.862 -26.215 9.674 2.014 -75.251 2635.583 -3033.724 -2.495 -0.804 1.758 0.01 0.61 -0.79 0.06
1 4.76 476 1.374 -8.629 0.623 -26.489 11.353 -7.050 -105.231 2635.583 -3078.694 -2.278 -0.783 1.956 0.01 0.61 -0.79 0.06
1 4.77 477 0.709 -8.327 0.464 -14.587 5.798 -25.513 -105.231 2635.583 -3078.694 -1.578 -1.108 2.038 0.01 0.61 -0.79 0.06
1 4.78 478 0.369 -8.284 0.522 -8.453 3.418 -33.112 -120.222 2530.651 -3093.685 -1.199 -1.159 1.961 0.01 0.61 -0.79 0.06
1 4.79 479 -0.316 -8.040 1.710 -8.637 3.113 -39.032 -120.222 2530.651 -3093.685 -0.464 -1.411 0.763 0.01 0.61 -0.79 0.06
1 4.80 480 -0.809 -8.888 5.502 -17.853 8.179 -42.236 -45.271 2575.622 -3018.583 0.088 -0.572 -3.045 0 0.61 -0.79 0.05
1 4.81 481 -1.283 -10.631 5.651 -41.168 24.506 -33.386 -45.271 2575.622 -3018.583 0.618 1.163 -3.208 0 0.61 -0.79 0.05
1 4.82 482 -3.117 -13.365 3.567 -85.755 11.200 -25.086 -150.202 2590.612 -3033.724 2.488 3.876 -1.201 0 0.62 -0.79 0.05
1 4.83 483 -2.983 -15.036 3.548 -58.838 3.754 -28.351 -105.231 2590.612 -2928.642 2.386 5.515 -1.304 0 0.62 -0.78 0.05
1 4.84 484 -2.198 -14.418 5.023 22.705 -11.322 -33.814 -105.231 2590.612 -2928.642 1.690 4.864 -2.901 -0 0.63 -0.78 0.04
1 4.85 485 -1.523 -13.671 5.651 20.569 -3.021 -24.506 -75.251 2665.563 -2898.662 1.067 4.124 -3.488 -0 0.62 -0.78 0.04
1 4.86 486 -2.054 -13.360 5.325 -30.304 9.979 -7.843 -75.251 2665.563 -2898.662 1.629 3.814 -3.149 -0 0.62 -0.78 0.04
1 4.87 487 -3.050 -13.183 4.607 -52.429 10.101 -3.754 -90.241 2755.655 -3093.685 2.631 3.624 -2.488 -0 0.63 -0.78 0.04
1 4.88 488 -3.611 -13.777 4.511 -27.344 -11.231 -4.547 -30.280 2860.586 -2898.662 3.197 4.202 -2.465 -0 0.63 -0.78 0.04
1 4.89 489 -2.888 -13.054 4.492 -12.482 -20.294 5.615 -180.183 2785.635 -2853.691 2.486 3.468 -2.492 -0.01 0.63 -0.77 0.04
1 4.90 490 -1.786 -12.278 4.511 3.845 -24.719 19.074 -180.183 2590.612 -2898.662 1.388 2.688 -2.533 -0.01 0.63 -0.77 0.04
1 4.91 491 -1.264 -10.530 4.420 23.102 -26.276 21.271 -180.183 2590.612 -2898.662 0.851 0.941 -2.440 -0.01 0.63 -0.77 0.04
1 4.92 492 -0.498 -8.921 4.745 29.724 -27.161 7.385 -195.323 2725.674 -2808.720 0.050 -0.648 -2.679 -0.01 0.63 -0.78 0.05
1 4.93 493 -0.206 -8.533 4.640 18.372 -20.722 9.125 -195.323 2725.674 -2808.720 -0.245 -1.022 -2.512 -0.01 0.63 -0.78 0.05
1 4.94 494 -0.038 -8.595 3.888 8.820 -12.024 15.259 -120.222 2800.625 -2988.603 -0.419 -0.950 -1.716 -0.01 0.62 -0.78 0.05
1 4.95 495 -0.134 -8.830 3.285 5.737 -7.050 16.632 -165.192 2800.625 -2913.652 -0.339 -0.708 -1.085 -0.01 0.62 -0.78 0.05
1 4.96 496 0.273 -8.782 3.189 13.489 -8.301 13.672 -195.323 2755.655 -2988.603 -0.765 -0.750 -0.968 -0.01 0.62 -0.78 0.05
1 4.97 497 0.488 -8.591 3.213 18.799 -10.529 12.238 -90.241 2680.554 -2913.652 -0.994 -0.935 -0.965 -0.01 0.62 -0.78 0.05
1 4.98 498 0.680 -8.375 3.371 16.480 -7.782 8.545 -90.241 2680.554 -2913.652 -1.194 -1.141 -1.088 -0.01 0.62 -0.78 0.06
1 4.99 499 0.675 -8.581 3.113 0.549 0.305 -4.028 -150.202 2785.635 -2928.642 -1.184 -0.921 -0.770 -0.01 0.62 -0.79 0.06
1 5.00 500 0.469 -9.022 2.758 -0.519 2.106 -14.618 -150.202 2785.635 -2928.642 -0.958 -0.480 -0.408 -0.01 0.62 -0.79 0.06
1 5.01 501 0.163 -9.338 2.615 6.744 -1.465 -21.637 -105.231 2815.616 -2958.623 -0.619 -0.164 -0.258 -0.01 0.62 -0.79 0.05
1 5.02 502 0.249 -8.979 2.710 13.031 -3.418 -26.917 -180.183 2635.583 -2898.662 -0.664 -0.521 -0.338 -0.01 0.62 -0.79 0.05
1 5.03 503 0.297 -8.437 2.672 14.954 -5.585 -34.180 -244.641 2755.355 -2696.593 -0.663 -1.058 -0.275 -0.02 0.61 -0.79 0.05
1 5.04 504 0.589 -8.394 2.576 10.864 -6.928 -33.600 -199.670 2650.423 -3071.649 -0.899 -1.096 -0.152 -0.02 0.61 -0.79 0.05
1 5.05 505 0.757 -8.260 2.605 6.683 -5.707 -28.778 -199.670 2650.423 -3071.649 -1.011 -1.226 -0.160 -0.02 0.61 -0.79 0.05
1 5.06 506 0.785 -8.303 2.639 4.181 -2.777 -25.421 -214.660 2785.335 -3011.688 -0.951 -1.180 -0.173 -0.02 0.61 -0.79 0.04
1 5.07 507 0.532 -8.198 2.208 0.488 -0.183 -19.836 -214.660 2785.335 -3011.688 -0.663 -1.285 0.262 -0.03 0.61 -0.79 0.04
1 5.08 508 0.374 -8.284 2.097 -2.441 -0.916 -17.304 -319.592 2575.322 -2876.626 -0.475 -1.199 0.373 -0.03 0.61 -0.79 0.04
1 5.09 509 0.330 -8.102 2.011 -5.127 -2.197 -17.212 -289.611 2710.384 -2936.737 -0.405 -1.382 0.456 -0.03 0.61 -0.79 0.04
1 5.10 510 0.302 -8.418 1.891 -7.477 -4.334 -16.449 -409.683 2590.312 -2861.636 -0.350 -1.068 0.568 -0.03 0.61 -0.79 0.04
1 5.11 511 0.364 -8.667 1.772 -8.637 -5.432 -16.693 -289.611 2740.365 -2906.606 -0.386 -0.821 0.679 -0.03 0.61 -0.79 0.04
1 5.12 512 0.469 -8.844 1.748 -7.568 -4.211 -14.343 -289.611 2740.365 -2906.606 -0.464 -0.647 0.691 -0.03 0.61 -0.79 0.04
1 5.13 513 0.431 -8.964 1.676 -7.813 -2.533 -12.421 -409.683 2785.335 -2861.636 -0.398 -0.531 0.749 -0.03 0.61 -0.79 0.04
1 5.14 514 0.627 -9.261 1.686 -6.134 -2.197 -9.094 -409.683 2785.335 -2861.636 -0.548 -0.241 0.710 -0.03 0.61 -0.79 0.04
1 5.15 515 0.623 -9.146 1.518 -2.930 -1.617 -7.446 -289.611 2740.365 -2906.606 -0.525 -0.359 0.867 -0.03 0.61 -0.79 0.04
1 5.16 516 0.838 -9.084 1.523 0.000 0.946 -4.639 -214.660 2665.414 -3086.639 -0.724 -0.423 0.854 -0.04 0.61 -0.79 0.04
1 5.17 517 0.800 -8.797 1.259 1.770 5.432 -0.305 -424.673 2845.446 -2921.597 -0.674 -0.711 1.113 -0.04 0.61 -0.79 0.04
1 5.18 518 0.800 -8.720 1.020 0.122 9.979 1.526 -274.621 2650.423 -3026.678 -0.667 -0.788 1.350 -0.04 0.61 -0.79 0.03
1 5.19 519 0.919 -8.591 0.814 -3.235 13.123 2.686 -274.621 2650.423 -3026.678 -0.788 -0.918 1.555 -0.04 0.61 -0.79 0.03
1 5.20 520 0.848 -8.447 0.642 -4.883 16.113 4.578 -364.712 2740.365 -2906.606 -0.723 -1.062 1.724 -0.03 0.61 -0.79 0.03
1 5.21 521 0.761 -8.327 0.742 -6.256 20.203 5.737 -364.712 2740.365 -2906.606 -0.660 -1.185 1.612 -0.03 0.62 -0.79 0.03
1 5.22 522 0.532 -8.414 0.613 -9.003 20.325 5.798 -484.634 2815.316 -3011.688 -0.445 -1.101 1.732 -0.03 0.62 -0.79 0.03
1 5.23 523 0.196 -8.610 0.852 -11.932 18.585 6.500 -349.572 2605.453 -2876.626 -0.124 -0.908 1.480 -0.03 0.62 -0.79 0.03
1 5.24 524 -0.005 -8.825 1.116 -12.329 17.822 5.615 -349.572 2680.404 -2996.698 0.063 -0.697 1.200 -0.03 0.62 -0.79 0.03
1 5.25 525 -0.508 -8.921 1.398 -10.803 16.388 4.639 -259.631 2710.384 -2936.737 0.553 -0.606 0.897 -0.03 0.62 -0.78 0.03
1 5.26 526 -0.766 -9.208 1.959 -8.392 13.184 1.801 -259.631 2710.384 -2936.737 0.798 -0.324 0.317 -0.03 0.62 -0.78 0.03
1 5.27 527 -0.728 -9.606 2.212 -9.399 11.627 2.136 -259.631 2785.335 -2861.636 0.748 0.070 0.048 -0.03 0.62 -0.78 0.03
1 5.28 528 -0.302 -9.841 2.045 -10.040 9.277 1.129 -259.631 2785.335 -2861.636 0.299 0.298 0.189 -0.02 0.62 -0.78 0.03
1 5.29 529 0.196 -10.056 1.973 -7.660 7.233 -3.204 -244.641 2650.423 -2921.597 -0.204 0.510 0.245 -0.02 0.62 -0.78 0.03
1 5.30 530 0.704 -10.430 2.050 -2.869 5.920 -5.615 -319.592 2800.326 -2876.626 -0.707 0.881 0.158 -0.02 0.62 -0.78 0.03
1 5.31 531 0.986 -10.410 1.853 0.885 6.195 -4.395 -319.592 2800.326 -2876.626 -0.978 0.861 0.350 -0.02 0.62 -0.78 0.03
1 5.32 532 0.613 -10.540 1.705 -2.289 14.740 3.296 -244.641 2755.355 -2951.727 -0.593 0.990 0.497 -0.02 0.62 -0.78 0.03
1 5.33 533 0.235 -10.204 1.173 -5.493 19.165 6.104 -244.641 2755.355 -2951.727 -0.213 0.654 1.022 -0.02 0.62 -0.78 0.03
1 5.34 534 -0.354 -10.123 1.274 -3.479 17.914 2.747 -109.579 2740.365 -2786.685 0.367 0.569 0.909 -0.02 0.62 -0.78 0.03
1 5.35 535 -0.235 -10.329 3.084 2.899 12.573 -5.707 -109.579 2740.365 -2786.685 0.237 0.772 -0.915 -0.02 0.62 -0.78 0.03
1 5.36 536 -0.125 -11.603 5.349 -3.448 3.052 -39.276 -244.641 2755.355 -2996.698 0.151 2.048 -3.172 -0.02 0.62 -0.78 0.02
1 5.37 537 -0.081 -13.284 4.966 -27.252 1.434 -61.951 -214.660 2935.388 -2861.636 0.176 3.726 -2.802 -0.02 0.62 -0.78 0.02
1 5.38 538 -0.120 -14.050 3.237 -30.762 -1.495 -65.949 -214.660 2935.388 -2861.636 0.309 4.484 -1.117 -0.03 0.63 -0.78 0.02
1 5.39 539 -0.560 -13.427 2.404 -3.387 -12.573 -49.042 -259.631 2740.365 -2906.606 0.844 3.856 -0.319 -0.03 0.63 -0.78 0.01
1 5.40 540 -1.379 -11.536 3.275 3.876 -7.263 -18.036 -259.631 2740.365 -2906.606 1.733 1.967 -1.187 -0.03 0.63 -0.78 0.01
1 5.41 541 -1.140 -12.043 3.548 -25.940 -1.770 -11.932 -409.683 3010.339 -2861.636 1.531 2.479 -1.449 -0.03 0.63 -0.78 0.01
1 5.42 542 0.249 -13.834 3.266 -36.163 -8.392 -7.538 -409.683 3010.339 -2861.636 0.163 4.265 -1.192 -0.03 0.63 -0.78 0.01
1 5.43 543 2.634 -14.706 3.812 5.768 -12.787 11.688 -424.673 2920.397 -2846.646 -2.203 5.120 -1.819 -0.04 0.63 -0.78 0.01
1 5.44 544 2.706 -13.963 4.310 19.013 0.031 29.022 -349.572 2845.446 -2951.727 -2.294 4.381 -2.300 -0.04 0.63 -0.78 0.01
1 5.45 545 2.231 -12.728 4.568 11.414 15.289 46.936 -349.572 2845.446 -2951.727 -1.871 3.149 -2.531 -0.03 0.63 -0.78 0.01
1 5.46 546 1.456 -11.756 4.334 9.155 19.898 54.627 -319.592 2950.378 -2921.597 -1.172 2.178 -2.280 -0.03 0.63 -0.78 0.01
1 5.47 547 0.120 -9.515 4.425 32.868 24.872 49.866 -199.670 2875.427 -2876.626 0.078 -0.061 -2.352 -0.03 0.63 -0.78 0.02
1 5.48 548 -0.637 -8.246 4.358 40.405 27.344 44.068 -244.641 2800.326 -2846.646 0.752 -1.322 -2.241 -0.02 0.63 -0.78 0.02
1 5.49 549 -1.173 -7.432 4.271 33.447 25.543 40.161 -244.641 2800.326 -2846.646 1.212 -2.120 -2.079 -0.02 0.62 -0.78 0.02
1 5.50 550 -1.336 -7.327 4.391 21.607 21.027 39.887 -184.680 2935.388 -3011.688 1.236 -2.199 -2.091 -0.01 0.62 -0.79 0.02
1 5.51 551 -1.307 -7.705 4.228 18.127 18.280 34.180 -214.660 2815.316 -2861.636 1.145 -1.813 -1.901 -0.01 0.62 -0.79 0.02
1 5.52 552 -1.427 -7.796 3.860 18.219 16.541 28.046 -214.660 2815.316 -2861.636 1.207 -1.713 -1.497 -0.01 0.62 -0.79 0.03
1 5.53 553 -1.571 -7.882 3.673 17.151 14.038 21.332 -154.699 2710.384 -3086.639 1.303 -1.617 -1.277 -0 0.61 -0.79 0.03
1 5.54 554 -2.184 -7.628 3.702 12.817 12.024 13.672 -79.598 2890.417 -2936.737 1.878 -1.862 -1.276 -0 0.61 -0.79 0.03
1 5.55 555 -2.174 -7.432 3.467 11.017 8.240 9.796 -34.627 2710.384 -3041.668 1.837 -2.050 -1.015 -0 0.61 -0.79 0.03
1 5.56 556 -1.757 -7.657 3.251 11.292 2.441 11.719 -34.627 2710.384 -3041.668 1.403 -1.820 -0.783 0 0.61 -0.79 0.03
1 5.57 557 -1.302 -8.069 3.103 13.458 -1.556 18.250 -34.627 2815.316 -3011.688 0.932 -1.404 -0.617 0 0.61 -0.79 0.03
1 5.58 558 -0.527 -8.279 3.314 13.001 1.007 28.168 -19.637 2650.423 -2951.727 0.100 -1.180 -0.787 0 0.61 -0.79 0.03
1 5.59 559 -0.441 -8.351 3.275 15.137 6.287 33.264 -19.637 2650.423 -2951.727 -0.031 -1.098 -0.721 0 0.61 -0.79 0.03
1 5.60 560 -0.560 -8.275 3.137 19.501 13.489 34.790 -124.569 2650.423 -2996.698 0.036 -1.164 -0.551 0.01 0.61 -0.79 0.04
1 5.61 561 -0.804 -8.155 3.041 25.787 19.714 36.377 -79.598 2710.384 -2936.737 0.224 -1.270 -0.418 0.01 0.61 -0.8 0.04
1 5.62 562 -1.341 -7.695 2.864 27.039 21.576 35.278 40.174 2815.316 -3041.668 0.700 -1.714 -0.200 0.01 0.6 -0.8 0.04
1 5.63 563 -1.283 -7.748 2.773 20.294 20.599 31.738 40.174 2815.316 -3041.668 0.583 -1.646 -0.071 0.01 0.6 -0.8 0.04
1 5.64 564 -1.302 -7.825 2.351 10.498 18.250 27.222 83.945 2845.596 -3210.309 0.548 -1.556 0.382 0.02 0.6 -0.8 0.04
1 5.65 565 -1.317 -8.404 2.212 2.258 15.747 18.463 38.975 2740.515 -3015.436 0.475 -0.963 0.545 0.02 0.6 -0.8 0.04
1 5.66 566 -1.341 -8.854 2.145 3.571 13.733 12.146 38.975 2740.515 -3015.436 0.470 -0.509 0.614 0.02 0.6 -0.8 0.04
1 5.67 567 -1.441 -9.170 2.054 7.660 12.024 6.378 23.984 2680.554 -3075.396 0.547 -0.190 0.707 0.02 0.6 -0.8 0.04
1 5.68 568 -1.556 -9.496 1.872 10.864 8.972 2.655 203.867 2800.476 -3000.445 0.646 0.139 0.896 0.03 0.6 -0.8 0.04
1 5.69 569 -1.681 -9.510 1.767 12.421 5.280 -1.923 143.906 2665.563 -3045.416 0.760 0.157 1.011 0.03 0.6 -0.8 0.04
1 5.70 570 -1.824 -9.242 1.666 16.205 -2.136 -5.951 143.906 2665.563 -3045.416 0.902 -0.107 1.123 0.03 0.6 -0.8 0.04
1 5.71 571 -1.939 -8.940 1.374 18.066 -6.866 -8.057 128.916 2680.554 -3030.426 1.019 -0.405 1.431 0.03 0.6 -0.8 0.04
1 5.72 572 -2.002 -8.686 1.044 6.683 -13.886 -10.162 68.955 2710.534 -3165.338 1.099 -0.650 1.794 0.03 0.6 -0.8 0.04
1 5.73 573 -1.920 -8.528 0.766 -0.916 -19.531 -9.552 68.955 2710.534 -3165.338 1.031 -0.810 2.071 0.02 0.6 -0.8 0.04
1 5.74 574 -1.982 -8.562 0.699 -4.883 -24.078 -8.545 143.906 2635.583 -3165.338 1.112 -0.780 2.132 0.02 0.6 -0.8 0.04
1 5.75 575 -2.198 -8.323 0.785 -6.256 -27.008 -8.484 188.877 2545.492 -3120.367 1.347 -1.024 2.036 0.02 0.6 -0.8 0.04
1 5.76 576 -2.514 -8.179 1.015 -9.857 -27.863 -9.277 219.007 2815.466 -3270.419 1.689 -1.171 1.801 0.02 0.6 -0.8 0.04
1 5.77 577 -2.504 -8.088 1.197 -15.717 -28.015 -8.698 219.007 2815.466 -3270.419 1.706 -1.267 1.610 0.02 0.6 -0.8 0.05
1 5.78 578 -2.480 -8.107 1.346 -20.935 -27.557 -6.317 53.965 2575.472 -3255.429 1.708 -1.255 1.445 0.01 0.6 -0.8 0.05
1 5.79 579 -2.351 -8.174 1.417 -21.790 -24.567 -2.289 68.955 2590.462 -3195.318 1.601 -1.198 1.348 0.01 0.6 -0.8 0.05
1 5.80 580 -1.911 -8.107 1.178 -16.480 -21.240 2.472 68.955 2590.462 -3195.318 1.187 -1.282 1.536 0.01 0.6 -0.8 0.05
1 5.81 581 -1.302 -8.035 1.360 -15.930 -19.562 1.770 53.965 2755.505 -3075.396 0.585 -1.360 1.334 0.01 0.6 -0.8 0.05
1 5.82 582 -0.996 -8.074 1.446 -19.196 -16.083 0.122 53.965 2725.524 -3075.396 0.285 -1.328 1.226 0.01 0.6 -0.8 0.05
1 5.83 583 -0.661 -8.112 1.240 -21.454 -12.512 -0.519 113.926 2710.534 -3165.338 -0.043 -1.298 1.406 0.01 0.6 -0.8 0.05
1 5.84 584 -0.057 -8.313 1.087 -23.621 -9.064 -0.946 113.926 2710.534 -3165.338 -0.639 -1.105 1.530 0.01 0.61 -0.79 0.05
1 5.85 585 0.144 -8.366 0.910 -24.872 -6.897 -3.448 68.955 2710.534 -3015.436 -0.833 -1.062 1.676 0 0.61 -0.79 0.05
1 5.86 586 0.326 -8.246 0.814 -24.933 -3.326 -7.416 -35.977 2665.563 -2910.354 -1.007 -1.192 1.737 0 0.61 -0.79 0.05
1 5.87 587 0.709 -8.102 2.519 -27.954 3.357 -16.907 -35.977 2665.563 -2910.354 -1.360 -1.356 -0.038 0 0.61 -0.79 0.05
1 5.88 588 1.025 -9.381 4.458 -38.086 15.045 -17.761 38.975 2710.534 -3045.416 -1.651 -0.091 -2.021 0 0.61 -0.79 0.05
1 5.89 589 1.073 -11.009 4.353 -40.375 23.773 -6.317 -35.977 2815.466 -2970.315 -1.669 1.524 -1.960 0 0.61 -0.79 0.05
1 5.90 590 0.972 -11.617 3.965 -42.236 22.583 0.488 -35.977 2815.466 -2970.315 -1.571 2.117 -1.634 0 0.62 -0.79 0.05
1 5.91 591 0.508 -12.498 3.678 -63.904 17.456 -1.740 -20.986 2755.505 -3105.377 -1.114 2.983 -1.413 0 0.62 -0.78 0.05
1 5.92 592 -0.364 -13.106 3.261 -57.190 5.005 -20.660 -80.947 2890.567 -3015.436 -0.247 3.571 -1.084 0 0.62 -0.78 0.04
1 5.93 593 -1.178 -13.327 3.251 -20.630 -3.021 -47.882 -50.967 2845.596 -3000.445 0.587 3.769 -1.166 0 0.63 -0.78 0.04
1 5.94 594 -2.423 -13.767 4.880 -7.050 -5.829 -62.287 -50.967 2845.596 -3000.445 1.986 4.190 -2.847 -0 0.63 -0.78 0.04
1 5.95 595 -5.148 -14.658 5.334 -47.577 8.545 -54.321 -80.947 3055.459 -2970.315 4.800 5.069 -3.339 -0 0.63 -0.78 0.03
1 5.96 596 -6.819 -14.940 4.712 -43.610 1.923 -38.941 -95.938 2875.577 -3000.445 6.545 5.335 -2.789 -0.01 0.63 -0.77 0.03
1 5.97 597 -6.919 -14.404 4.434 -18.005 -19.379 -19.440 -95.938 2875.577 -3000.445 6.698 4.787 -2.564 -0.01 0.64 -0.77 0.03
1 5.98 598 -3.941 -12.714 4.382 -6.287 -49.835 7.202 -20.986 2950.528 -3030.426 3.750 3.092 -2.531 -0.01 0.64 -0.77 0.03
1 5.99 599 -1.451 -11.967 4.774 -5.096 -52.246 17.517 -189.027 2860.586 -2796.878 1.269 2.343 -2.931 -0.01 0.64 -0.77 0.03
1 6.00 600 0.498 -11.512 4.559 8.026 -43.244 21.301 -189.027 2935.538 -2841.849 -0.686 1.887 -2.721 -0.02 0.64 -0.77 0.03
1 6.01 601 1.331 -10.492 4.439 28.320 -35.492 17.151 -189.027 2935.538 -2841.849 -1.536 0.869 -2.594 -0.02 0.64 -0.77 0.04
1 6.02 602 1.815 -8.840 4.180 40.985 -30.426 17.731 -99.085 2950.528 -2931.940 -2.049 -0.763 -2.238 -0.02 0.63 -0.77 0.04
1 6.03 603 1.848 -8.074 4.061 31.983 -27.741 19.592 -159.046 3130.561 -2976.911 -2.083 -1.513 -2.042 -0.02 0.63 -0.78 0.05
1 6.04 604 1.628 -7.537 3.654 24.689 -22.614 20.813 -159.046 3130.561 -2976.911 -1.867 -2.036 -1.573 -0.02 0.63 -0.78 0.05
1 6.05 605 1.863 -7.437 3.515 20.935 -19.074 18.768 -174.037 3070.600 -3006.891 -2.116 -2.127 -1.390 -0.02 0.63 -0.78 0.05
1 6.06 606 1.542 -7.365 3.544 15.991 -23.346 9.033 -114.076 2965.518 -2946.930 -1.813 -2.191 -1.388 -0.02 0.62 -0.78 0.05
1 6.07 607 1.350 -7.360 3.433 12.543 -22.888 1.099 -249.138 2950.528 -2961.920 -1.630 -2.190 -1.251 -0.02 0.62 -0.78 0.05
1 6.08 608 1.164 -7.662 3.395 6.683 -18.250 -7.416 -249.138 2950.528 -2961.920 -1.439 -1.883 -1.191 -0.03 0.62 -0.78 0.05
1 6.09 609 0.613 -8.380 3.055 -1.526 -11.139 -17.944 -339.079 2860.586 -2946.930 -0.849 -1.162 -0.833 -0.03 0.62 -0.78 0.05
1 6.10 610 0.345 -8.806 2.725 -2.777 -12.787 -22.797 -219.157 2890.567 -3051.862 -0.544 -0.736 -0.500 -0.03 0.62 -0.78 0.05
1 6.11 611 -0.010 -9.156 2.634 -1.099 -18.189 -23.316 -219.157 2890.567 -3051.862 -0.145 -0.386 -0.406 -0.03 0.62 -0.78 0.05
1 6.12 612 0.000 -9.223 2.605 3.723 -20.874 -23.285 -174.037 3025.629 -3006.891 -0.111 -0.319 -0.373 -0.03 0.62 -0.78 0.05
1 6.13 613 -0.057 -9.266 2.739 8.270 -21.271 -23.132 -249.138 2875.577 -3036.872 -0.011 -0.273 -0.494 -0.04 0.62 -0.78 0.05
1 6.14 614 0.498 -8.878 2.303 7.355 -23.285 -18.921 -219.157 2815.616 -3096.833 -0.525 -0.657 -0.040 -0.04 0.62 -0.78 0.05
1 6.15 615 0.800 -8.490 2.433 3.296 -24.292 -16.693 -219.157 2815.616 -3096.833 -0.788 -1.041 -0.153 -0.04 0.62 -0.78 0.05
1 6.16 616 1.154 -8.399 2.375 -4.181 -21.301 -14.404 -324.089 2950.528 -2931.940 -1.065 -1.129 -0.084 -0.05 0.62 -0.78 0.05
1 6.17 617 1.259 -8.476 2.337 -7.416 -19.104 -11.566 -294.108 3010.639 -2976.911 -1.139 -1.053 -0.051 -0.05 0.62 -0.78 0.05
1 6.18 618 0.958 -8.481 2.208 -9.338 -15.778 -9.003 -294.108 3010.639 -2976.911 -0.809 -1.050 0.069 -0.05 0.62 -0.78 0.05
1 6.19 619 0.953 -8.232 2.078 -11.017 -12.604 -8.575 -444.011 2935.538 -2976.911 -0.785 -1.302 0.184 -0.05 0.62 -0.78 0.05
1 6.20 620 1.216 -8.663 2.050 -11.078 -11.871 -8.850 -324.089 2920.547 -2886.819 -1.030 -0.875 0.197 -0.05 0.62 -0.78 0.05
1 6.21 621 1.360 -8.940 1.872 -9.094 -10.254 -9.583 -414.030 2935.538 -2976.911 -1.152 -0.600 0.359 -0.05 0.62 -0.78 0.05
1 6.22 622 1.408 -9.070 1.772 -6.409 -8.118 -11.261 -414.030 2935.538 -2976.911 -1.174 -0.473 0.447 -0.05 0.62 -0.78 0.05
1 6.23 623 1.652 -9.065 1.676 -4.517 -5.859 -11.719 -354.069 2920.547 -3006.891 -1.390 -0.480 0.531 -0.06 0.62 -0.78 0.05
1 6.24 624 1.599 -9.410 1.461 -5.585 -1.251 -10.071 -429.021 2950.528 -3036.872 -1.278 -0.137 0.729 -0.06 0.62 -0.78 0.05
1 6.25 625 1.633 -9.175 1.461 -4.242 1.434 -6.897 -429.021 2950.528 -3036.872 -1.287 -0.374 0.718 -0.06 0.62 -0.78 0.05
1 6.26 626 1.676 -9.218 1.326 -1.190 4.700 -4.486 -504.122 3025.629 -2931.940 -1.311 -0.332 0.843 -0.06 0.62 -0.78 0.05
1 6.27 627 1.714 -8.782 1.212 1.923 8.026 -3.296 -369.060 3130.561 -3021.881 -1.334 -0.768 0.953 -0.06 0.62 -0.78 0.04
1 6.28 628 1.757 -8.591 1.183 1.221 15.259 -1.617 -414.030 2890.567 -3096.833 -1.364 -0.959 0.982 -0.06 0.62 -0.78 0.04
1 6.29 629 1.374 -8.548 1.274 -0.519 22.430 0.183 -414.030 2890.567 -3096.833 -0.971 -1.002 0.890 -0.06 0.62 -0.78 0.04
1 6.30 630 1.053 -8.557 1.413 -3.235 27.435 3.662 -579.073 2950.528 -2931.940 -0.650 -0.993 0.750 -0.06 0.62 -0.78 0.04
1 6.31 631 0.761 -8.385 1.542 -3.967 30.151 8.362 -534.102 3100.580 -2931.940 -0.388 -1.168 0.615 -0.06 0.62 -0.78 0.04
1 6.32 632 0.809 -8.409 1.595 -4.089 30.274 8.637 -534.102 3100.580 -2931.940 -0.457 -1.145 0.560 -0.05 0.62 -0.78 0.04
1 6.33 633 0.934 -8.466 1.959 -6.958 31.342 8.514 -414.030 2935.538 -3051.862 -0.604 -1.089 0.191 -0.05 0.62 -0.78 0.04
1 6.34 634 1.288 -8.926 2.006 -10.193 31.921 8.820 -414.030 2935.538 -3051.862 -0.980 -0.632 0.134 -0.05 0.62 -0.78 0.04
1 6.35 635 0.986 -9.352 1.853 -15.015 33.478 11.047 -264.128 3085.590 -2976.911 -0.694 -0.210 0.274 -0.05 0.62 -0.78 0.03
1 6.36 636 0.627 -9.754 1.642 -17.059 34.760 10.498 -264.128 3085.590 -2976.911 -0.353 0.188 0.465 -0.04 0.62 -0.78 0.03
1 6.37 637 0.115 -10.190 1.528 -19.257 33.386 7.324 -294.108 2935.538 -3096.833 0.138 0.617 0.556 -0.04 0.63 -0.78 0.03
1 6.38 638 -0.139 -10.262 1.346 -17.242 30.640 1.312 -294.108 3010.639 -2916.800 0.358 0.676 0.679 -0.04 0.63 -0.78 0.03
1 6.39 639 -0.536 -10.382 1.250 -12.604 27.283 -0.854 -294.108 3010.639 -2916.800 0.746 0.790 0.749 -0.04 0.63 -0.78 0.03
1 6.40 640 -0.891 -10.396 1.173 -11.871 27.588 -1.801 -354.069 3070.600 -3036.872 1.089 0.799 0.803 -0.03 0.63 -0.77 0.03
1 6.41 641 -0.953 -10.650 1.087 -13.733 27.191 -1.923 -354.069 3070.600 -3036.872 1.139 1.048 0.866 -0.03 0.63 -0.77 0.02
1 6.42 642 -0.685 -10.760 0.661 -9.125 23.071 0.549 -189.027 3085.590 -2946.930 0.857 1.153 1.267 -0.03 0.63 -0.77 0.02
1 6.43 643 -0.254 -10.918 0.713 -2.930 19.959 1.984 -189.027 3085.590 -2946.930 0.419 1.308 1.201 -0.03 0.63 -0.77 0.02
1 6.44 644 0.196 -11.047 0.838 1.068 20.172 5.157 -264.128 3130.561 -2946.930 -0.039 1.436 1.071 -0.03 0.63 -0.77 0.02
1 6.45 645 0.393 -10.942 0.895 0.366 22.980 10.468 -84.095 3205.512 -2976.911 -0.246 1.331 1.015 -0.03 0.63 -0.77 0.02
1 6.46 646 0.843 -11.234 1.202 -1.923 23.560 14.587 -84.095 3205.512 -2976.911 -0.739 1.623 0.710 -0.02 0.63 -0.77 0.02
1 6.47 647 0.828 -11.608 2.639 -2.258 22.888 12.665 -204.017 3175.531 -3006.891 -0.752 1.996 -0.728 -0.02 0.63 -0.77 0.02
1 6.48 648 0.737 -12.297 3.788 -5.676 17.212 3.021 -204.017 3175.531 -3006.891 -0.683 2.685 -1.880 -0.02 0.63 -0.77 0.02
1 6.49 649 0.560 -12.967 4.496 -13.825 8.453 -13.489 -129.066 3100.580 -2826.858 -0.508 3.353 -2.600 -0.02 0.63 -0.77 0.02
1 6.50 650 -0.091 -13.614 3.419 -5.493 -3.296 -27.710 -129.066 3100.580 -2826.858 0.168 3.996 -1.543 -0.02 0.64 -0.77 0.02
1 6.51 651 -1.154 -13.011 2.739 4.242 -7.172 -22.461 -174.037 3070.600 -2886.819 1.272 3.390 -0.874 -0.02 0.64 -0.77 0.01
1 6.52 652 -1.642 -11.986 2.073 7.202 -7.935 -11.261 -189.027 3130.561 -2946.930 1.800 2.367 -0.205 -0.02 0.64 -0.77 0.01
1 6.53 653 -1.944 -11.291 1.671 6.775 -11.231 -0.183 -189.027 3130.561 -2946.930 2.126 1.675 0.208 -0.02 0.64 -0.77 0.01
1 6.54 654 -0.675 -11.526 2.011 2.167 -16.083 7.111 -114.975 3280.913 -2874.228 0.867 1.913 -0.115 -0.02 0.63 -0.77 0.01
1 6.55 655 0.053 -11.655 2.433 3.235 -8.637 15.381 -114.975 3280.913 -2874.228 0.131 2.043 -0.532 -0.02 0.63 -0.77 0.01
1 6.56 656 0.283 -11.564 2.763 6.897 -3.296 22.095 -84.995 3086.040 -3024.280 -0.121 1.953 -0.855 -0.02 0.63 -0.77 0.02
1 6.57 657 0.225 -10.870 3.089 10.101 -0.793 26.123 -84.995 3086.040 -3024.280 -0.096 1.261 -1.169 -0.02 0.63 -0.77 0.02
1 6.58 658 -0.378 -10.022 3.591 15.991 1.617 28.473 -190.076 2965.968 -3099.231 0.470 0.416 -1.654 -0.02 0.63 -0.77 0.02
1 6.59 659 -0.637 -9.501 4.104 15.106 0.214 27.008 -175.086 3146.000 -3039.270 0.687 -0.101 -2.143 -0.02 0.63 -0.77 0.02
1 6.60 660 -0.316 -9.252 4.429 15.228 -1.923 26.306 -175.086 3146.000 -3039.270 0.281 -0.335 -2.395 -0.02 0.63 -0.78 0.02
1 6.61 661 -0.096 -8.835 4.477 19.714 -0.244 27.954 34.777 3055.909 -3024.280 0.020 -0.742 -2.400 -0.02 0.63 -0.78 0.03
1 6.62 662 -0.010 -8.351 4.492 21.820 1.587 24.872 34.777 3055.909 -3024.280 -0.106 -1.215 -2.366 -0.01 0.63 -0.78 0.03
1 6.63 663 0.168 -7.959 4.501 22.614 3.357 19.501 -159.946 3086.040 -2919.198 -0.316 -1.595 -2.324 -0.01 0.62 -0.78 0.03
1 6.64 664 0.144 -7.786 4.420 20.355 5.432 21.637 19.787 3175.981 -3084.241 -0.318 -1.755 -2.190 -0.01 0.62 -0.78 0.03
1 6.65 665 -0.168 -7.499 4.267 16.541 8.881 24.933 -10.043 3160.991 -3054.260 -0.035 -2.030 -1.987 -0.01 0.62 -0.78 0.03
1 6.66 666 -0.733 -7.504 4.176 10.407 13.519 23.010 -25.034 3101.030 -3084.241 0.494 -2.016 -1.861 -0.01 0.62 -0.79 0.03
1 6.67 667 -1.255 -7.877 4.123 4.974 18.097 16.968 -25.034 3101.030 -3084.241 0.978 -1.637 -1.790 -0.01 0.62 -0.79 0.03
1 6.68 668 -1.805 -8.629 3.630 5.615 19.409 10.223 -84.995 3086.040 -3174.182 1.465 -0.876 -1.269 -0 0.62 -0.79 0.03
1 6.69 669 -1.719 -8.888 3.127 12.726 13.275 9.094 -84.995 3086.040 -3174.182 1.348 -0.611 -0.744 -0 0.62 -0.79 0.03
1 6.70 670 -1.547 -8.883 3.170 22.217 5.981 9.430 19.787 3025.929 -3084.241 1.149 -0.607 -0.758 0 0.61 -0.79 0.03
1 6.71 671 -1.025 -8.749 2.888 28.717 3.571 12.116 79.898 3146.000 -3114.221 0.603 -0.730 -0.434 0 0.61 -0.79 0.03
1 6.72 672 -0.311 -8.739 2.715 20.905 2.747 17.151 109.878 3086.040 -3174.182 -0.136 -0.726 -0.214 0 0.61 -0.79 0.03
1 6.73 673 -0.086 -8.773 2.706 8.942 4.913 18.677 -10.043 3160.991 -3174.182 -0.387 -0.681 -0.167 0 0.61 -0.79 0.03
1 6.74 674 -0.345 -9.065 2.605 3.052 9.888 21.454 -10.043 3160.991 -3174.182 -0.153 -0.382 -0.045 0.01 0.61 -0.79 0.03
1 6.75 675 -1.140 -9.314 2.409 7.599 17.151 23.682 154.399 2996.098 -3295.603 0.576 -0.125 0.165 0.01 0.61 -0.79 0.04
1 6.76 676 -1.901 -9.405 2.327 11.169 16.998 25.055 154.399 2996.098 -3295.603 1.293 -0.029 0.258 0.01 0.61 -0.79 0.04
1 6.77 677 -2.145 -9.414 2.308 11.627 13.123 26.337 109.429 3056.059 -3205.512 1.487 -0.012 0.291 0.01 0.61 -0.79 0.04
1 6.78 678 -2.275 -9.098 2.275 11.017 7.599 27.069 154.399 3071.049 -3190.521 1.563 -0.320 0.338 0.02 0.61 -0.79 0.04
1 6.79 679 -2.112 -8.868 2.112 10.284 2.655 25.330 184.380 3011.088 -3175.531 1.349 -0.542 0.514 0.02 0.6 -0.8 0.04
1 6.80 680 -1.978 -8.835 2.121 9.430 -0.397 20.630 109.429 2966.118 -3175.531 1.167 -0.568 0.518 0.02 0.6 -0.8 0.04
1 6.81 681 -1.815 -8.825 2.107 8.820 -4.395 14.984 109.429 2966.118 -3175.531 0.964 -0.571 0.544 0.02 0.6 -0.8 0.04
1 6.82 682 -1.705 -8.864 1.949 9.430 -9.369 10.315 139.409 2891.167 -3205.512 0.805 -0.521 0.725 0.02 0.6 -0.8 0.05
1 6.83 683 -1.743 -8.677 1.753 14.313 -18.158 4.272 139.409 2891.167 -3205.512 0.833 -0.703 0.936 0.02 0.6 -0.8 0.05
1 6.84 684 -1.824 -8.466 1.695 15.564 -22.827 0.671 184.380 3011.088 -3310.593 0.912 -0.908 1.013 0.02 0.6 -0.8 0.05
1 6.85 685 -1.959 -8.399 1.547 12.848 -26.154 -2.472 124.419 3071.049 -3190.521 1.054 -0.969 1.184 0.02 0.6 -0.8 0.05
1 6.86 686 -2.442 -8.318 1.408 8.911 -34.454 -4.730 199.370 2996.098 -3190.521 1.554 -1.046 1.345 0.02 0.6 -0.8 0.05
1 6.87 687 -2.878 -8.184 1.432 7.080 -39.551 -6.622 -55.464 2876.176 -3295.603 2.012 -1.176 1.340 0.02 0.6 -0.8 0.05
1 6.88 688 -2.964 -8.145 1.456 6.287 -45.532 -6.683 -55.464 2876.176 -3295.603 2.124 -1.212 1.333 0.01 0.6 -0.8 0.05
1 6.89 689 -2.868 -8.165 1.168 3.418 -51.636 -4.303 199.370 2996.098 -3325.583 2.058 -1.191 1.636 0.01 0.6 -0.8 0.06
1 6.90 690 -2.418 -8.088 1.044 -5.005 -54.260 2.502 199.370 2996.098 -3325.583 1.655 -1.266 1.777 0 0.6 -0.8 0.06
1 6.91 691 -1.915 -8.136 1.039 -10.498 -53.253 6.897 -10.343 3011.088 -3385.544 1.171 -1.221 1.779 0 0.6 -0.8 0.06
1 6.92 692 -1.288 -8.050 1.441 -13.275 -49.317 9.064 49.468 2876.176 -3325.583 0.557 -1.311 1.367 -0 0.6 -0.8 0.07
1 6.93 693 -1.087 -7.944 1.710 -12.970 -40.131 10.620 19.487 3026.079 -3265.623 0.363 -1.421 1.086 -0 0.6 -0.8 0.07
1 6.94 694 -0.867 -8.155 1.772 -15.381 -28.687 11.322 -175.386 3026.079 -3265.623 0.145 -1.214 1.010 -0.01 0.6 -0.8 0.07
1 6.95 695 -0.273 -8.495 1.791 -22.919 -24.719 13.763 -175.386 3026.079 -3265.623 -0.451 -0.879 0.974 -0.01 0.6 -0.8 0.07
1 6.96 696 0.369 -8.801 2.097 -30.884 -24.780 17.212 -10.343 2861.186 -3280.613 -1.099 -0.580 0.642 -0.01 0.6 -0.8 0.07
1 6.97 697 1.844 -9.438 2.485 -30.579 -20.874 19.653 -10.343 2861.186 -3280.613 -2.590 0.034 0.167 -0.01 0.6 -0.79 0.08
1 6.98 698 2.327 -9.242 2.265 -16.327 -10.529 13.825 -55.464 2876.176 -3325.583 -3.074 -0.173 0.349 -0.01 0.61 -0.79 0.08
1 6.99 699 2.045 -8.993 1.820 -1.434 2.441 4.700 -85.444 3011.088 -3310.593 -2.783 -0.428 0.777 -0.01 0.61 -0.79 0.08
1 7.00 700 1.484 -8.667 1.336 3.937 9.918 -5.737 -55.464 2951.127 -3265.623 -2.204 -0.755 1.259 -0.01 0.61 -0.79 0.08
1 7.01 701 0.747 -8.404 0.895 -3.387 6.897 -14.252 -10.343 3011.088 -3205.512 -1.441 -1.022 1.696 -0.01 0.61 -0.79 0.08
1 7.02 702 0.139 -8.375 0.474 -22.827 -5.249 -26.032 -10.343 3011.088 -3205.512 -0.810 -1.055 2.108 -0.01 0.61 -0.79 0.08
1 7.03 703 -0.043 -8.495 0.737 -28.656 -6.012 -30.914 109.429 3086.040 -3310.593 -0.591 -0.945 1.816 -0.02 0.61 -0.79 0.07
1 7.04 704 -0.570 -9.467 3.654 -39.063 2.960 -30.640 109.429 3086.040 -3310.593 0.033 -0.002 -1.184 -0.02 0.61 -0.79 0.07
1 7.05 705 -0.737 -10.956 4.506 -47.882 19.470 -18.799 -160.396 3086.040 -3235.642 0.240 1.471 -2.092 -0.02 0.61 -0.79 0.07
1 7.06 706 -1.355 -12.168 3.266 -50.903 26.856 -2.960 -130.415 3071.049 -3265.623 0.872 2.664 -0.925 -0.02 0.62 -0.78 0.07
1 7.07 707 -1.973 -12.690 2.581 -35.980 20.294 0.732 -130.415 3071.049 -3265.623 1.484 3.168 -0.313 -0.02 0.62 -0.78 0.06
1 7.08 708 -1.987 -12.493 2.830 6.195 7.477 -2.808 -40.474 3131.160 -3280.613 1.493 2.962 -0.605 -0.02 0.62 -0.78 0.06
1 7.09 709 -1.987 -11.320 2.883 11.139 -1.282 -8.331 -40.474 3131.160 -3280.613 1.494 1.789 -0.657 -0.02 0.62 -0.78 0.06
1 7.10 710 -2.160 -11.454 3.342 -16.815 1.099 -14.008 -205.366 3266.072 -3115.570 1.677 1.927 -1.099 -0.02 0.62 -0.78 0.06
1 7.11 711 -2.686 -12.819 3.726 -60.547 9.003 -14.465 -205.366 3266.072 -3115.570 2.224 3.288 -1.493 -0.02 0.62 -0.78 0.06
1 7.12 712 -3.874 -14.198 4.520 -50.354 8.820 -7.690 -265.777 3161.141 -3176.431 3.446 4.627 -2.459 -0.02 0.63 -0.78 0.06
1 7.13 713 -4.080 -14.409 5.176 -21.698 -1.709 -1.373 -115.725 3311.193 -3281.362 3.660 4.824 -3.176 -0.02 0.63 -0.77 0.06
1 7.14 714 -3.587 -13.849 5.325 -11.749 -9.064 5.676 -115.725 3311.193 -3281.362 3.169 4.259 -3.351 -0.02 0.63 -0.77 0.06
1 7.15 715 -1.599 -12.302 4.951 -1.251 -25.116 13.489 -220.806 3311.193 -2951.427 1.175 2.709 -2.990 -0.02 0.63 -0.77 0.06
1 7.16 716 -0.168 -11.191 5.148 8.301 -32.257 6.744 -220.806 3311.193 -2951.427 -0.268 1.599 -3.189 -0.02 0.63 -0.77 0.06
1 7.17 717 0.891 -10.554 5.445 14.893 -30.121 -3.235 -115.725 3281.212 -2981.408 -1.328 0.964 -3.475 -0.02 0.63 -0.77 0.06
1 7.18 718 1.207 -10.458 5.325 16.541 -22.736 -6.134 -115.725 3281.212 -2981.408 -1.632 0.872 -3.332 -0.02 0.63 -0.77 0.06
1 7.19 719 0.321 -10.037 4.434 18.921 -11.017 5.524 -130.715 3176.281 -3086.339 -0.720 0.461 -2.387 -0.03 0.63 -0.77 0.07
1 7.20 720 -0.239 -9.596 3.726 27.618 -8.392 10.681 -175.686 3341.173 -3011.388 -0.167 0.028 -1.647 -0.03 0.63 -0.78 0.07
1 7.21 721 -0.464 -8.878 3.271 36.621 -10.407 10.834 -175.686 3341.173 -3011.388 0.049 -0.677 -1.133 -0.03 0.62 -0.78 0.07
1 7.22 722 -0.469 -8.217 3.338 39.185 -12.756 8.698 -190.676 3281.212 -3131.460 0.043 -1.322 -1.133 -0.03 0.62 -0.78 0.07
1 7.23 723 0.067 -7.690 3.510 29.602 -11.383 6.775 -100.734 3266.222 -3191.421 -0.501 -1.833 -1.238 -0.03 0.62 -0.78 0.07
1 7.24 724 0.086 -7.671 3.596 20.172 -5.951 2.014 -10.793 3236.242 -3356.463 -0.525 -1.840 -1.277 -0.03 0.62 -0.78 0.07
1 7.25 725 0.244 -8.030 3.323 9.247 -0.824 -7.813 -10.793 3236.242 -3356.463 -0.684 -1.472 -0.969 -0.03 0.62 -0.78 0.07
1 7.26 726 0.421 -8.509 3.146 5.371 1.770 -17.090 -325.738 3101.180 -3116.470 -0.827 -0.987 -0.761 -0.03 0.61 -0.79 0.07
1 7.27 727 0.742 -8.830 2.600 15.045 -2.014 -28.076 -85.744 3206.261 -3176.431 -1.107 -0.663 -0.195 -0.03 0.61 -0.79 0.07
1 7.28 728 0.790 -8.868 2.773 18.585 -5.371 -31.860 -85.744 3206.261 -3176.431 -1.102 -0.619 -0.339 -0.03 0.61 -0.79 0.07
1 7.29 729 0.895 -8.505 2.835 16.876 -5.249 -31.952 -280.767 3026.229 -3296.353 -1.150 -0.977 -0.370 -0.03 0.61 -0.79 0.06
1 7.30 730 0.838 -8.500 2.696 13.336 -6.042 -31.983 -190.676 3131.160 -3176.431 -1.035 -0.976 -0.202 -0.04 0.61 -0.79 0.06
1 7.31 731 0.900 -8.366 2.615 12.451 -6.500 -30.060 -175.686 3176.281 -3266.372 -1.043 -1.105 -0.098 -0.04 0.61 -0.79 0.06
1 7.32 732 0.852 -8.380 2.509 9.918 -8.179 -27.222 -175.686 3176.281 -3266.372 -0.940 -1.085 0.030 -0.04 0.61 -0.79 0.06
1 7.33 733 0.584 -8.270 2.275 5.615 -8.514 -24.933 -175.686 3101.180 -3401.434 -0.624 -1.191 0.281 -0.04 0.61 -0.79 0.06
1 7.34 734 0.551 -8.308 2.308 0.061 -6.287 -19.592 -265.777 3131.160 -3356.463 -0.511 -1.149 0.263 -0.04 0.61 -0.79 0.05
1 7.35 735 0.306 -8.337 2.212 -0.488 -3.967 -16.205 -265.777 3131.160 -3356.463 -0.236 -1.119 0.359 -0.04 0.61 -0.79 0.05
1 7.36 736 0.134 -8.490 2.016 -0.214 -3.265 -14.069 -220.806 3131.160 -3431.415 -0.039 -0.966 0.556 -0.05 0.61 -0.79 0.05
1 7.37 737 0.005 -8.485 1.963 1.007 -3.998 -11.688 -340.728 3206.261 -3356.463 0.113 -0.970 0.609 -0.05 0.61 -0.79 0.05
1 7.38 738 0.125 -8.672 1.978 1.617 -3.632 -6.653 -430.819 3026.229 -3401.434 0.011 -0.783 0.597 -0.05 0.61 -0.79 0.05
1 7.39 739 0.211 -8.672 1.911 1.740 -2.411 -4.974 -430.819 3026.229 -3401.434 -0.062 -0.782 0.665 -0.05 0.61 -0.79 0.05
1 7.40 740 0.407 -8.868 1.638 0.671 -2.655 -2.869 -535.751 3071.199 -3266.372 -0.248 -0.586 0.938 -0.05 0.61 -0.79 0.05
1 7.41 741 0.608 -8.706 1.307 1.862 -2.716 0.031 -370.708 3131.160 -3236.392 -0.434 -0.750 1.263 -0.05 0.61 -0.79 0.05
1 7.42 742 0.757 -8.648 1.149 2.808 -2.106 2.747 -370.708 3131.160 -3236.392 -0.579 -0.807 1.422 -0.05 0.61 -0.79 0.05
1 7.43 743 0.867 -8.586 1.101 1.038 -0.580 4.761 -205.816 3266.222 -3266.372 -0.689 -0.869 1.471 -0.05 0.61 -0.79 0.05
1 7.44 744 1.178 -8.476 0.910 -2.045 2.625 5.951 -385.699 3296.203 -3266.372 -1.007 -0.978 1.665 -0.05 0.61 -0.79 0.05
1 7.45 745 1.073 -8.418 0.876 -3.632 3.632 6.531 -355.718 3071.199 -3296.353 -0.909 -1.036 1.697 -0.05 0.61 -0.79 0.05
1 7.46 746 0.828 -8.844 0.757 -8.270 10.101 10.986 -355.718 3071.199 -3296.353 -0.676 -0.612 1.811 -0.05 0.61 -0.79 0.05
1 7.47 747 0.469 -8.768 0.690 -8.362 13.031 11.169 -430.819 3071.199 -3401.434 -0.327 -0.694 1.858 -0.05 0.61 -0.79 0.05
1 7.48 748 -0.163 -8.859 0.963 -6.744 13.367 12.573 -355.718 3221.251 -3296.353 0.268 -0.613 1.551 -0.04 0.61 -0.79 0.05
1 7.49 749 -0.316 -8.811 1.130 -7.965 10.773 12.390 -355.718 3221.251 -3296.353 0.397 -0.666 1.364 -0.04 0.61 -0.79 0.05
1 7.50 750 -0.436 -9.079 1.360 -11.444 7.690 12.421 -385.699 3221.251 -3326.483 0.494 -0.403 1.114 -0.04 0.61 -0.79 0.05
1 7.51 751 -0.201 -9.180 1.427 -13.184 5.310 12.787 -370.708 3086.189 -3461.395 0.236 -0.309 1.023 -0.04 0.61 -0.79 0.05
1 7.52 752 -0.105 -9.319 1.255 -10.986 0.916 7.629 -295.757 3206.261 -3356.463 0.120 -0.176 1.171 -0.04 0.61 -0.79 0.05
1 7.53 753 0.010 -9.405 1.183 -13.001 -1.617 3.540 -295.757 3206.261 -3356.463 -0.008 -0.096 1.220 -0.04 0.61 -0.79 0.05
1 7.54 754 0.254 -9.347 1.097 -16.357 -3.937 -0.366 -340.728 3086.189 -3386.444 -0.258 -0.160 1.281 -0.04 0.61 -0.79 0.05
1 7.55 755 0.278 -9.793 1.068 -19.287 -5.707 -5.737 -325.738 3146.150 -3326.483 -0.280 0.278 1.280 -0.04 0.62 -0.79 0.05
1 7.56 756 0.225 -10.252 1.288 -15.106 -5.676 -11.169 -325.738 3146.150 -3326.483 -0.197 0.720 0.988 -0.04 0.62 -0.78 0.05
1 7.57 757 0.115 -10.535 1.355 -6.561 -4.913 -11.749 -130.715 3296.203 -3521.356 -0.065 0.997 0.894 -0.04 0.62 -0.78 0.05
1 7.58 758 -0.110 -10.583 1.628 0.366 -3.693 -10.712 -325.738 3266.222 -3326.483 0.180 1.041 0.607 -0.04 0.62 -0.78 0.05
1 7.59 759 -0.153 -10.348 1.872 2.930 -2.441 -8.881 -280.767 3371.154 -3266.372 0.239 0.806 0.359 -0.04 0.62 -0.78 0.05
1 7.60 760 0.211 -10.319 3.721 0.732 2.289 -9.399 -280.767 3371.154 -3266.372 -0.112 0.778 -1.488 -0.04 0.62 -0.78 0.05
1 7.61 761 0.278 -10.717 4.645 -5.432 4.364 -21.851 -385.699 3176.281 -3266.372 -0.166 1.176 -2.407 -0.04 0.62 -0.78 0.05
1 7.62 762 0.469 -11.588 5.330 -22.430 6.897 -38.391 -430.819 3341.173 -3446.405 -0.332 2.047 -3.096 -0.05 0.62 -0.78 0.05
1 7.63 763 0.469 -12.714 3.826 -32.410 -0.702 -54.749 -430.819 3341.173 -3446.405 -0.213 3.159 -1.660 -0.05 0.62 -0.78 0.04
1 7.64 764 0.761 -12.876 2.935 -17.365 -6.195 -57.312 -220.806 3236.242 -3281.362 -0.420 3.315 -0.813 -0.05 0.62 -0.78 0.04
1 7.65 765 0.498 -12.359 2.548 0.214 -2.655 -44.739 -460.800 3101.180 -3266.372 -0.073 2.798 -0.442 -0.05 0.62 -0.78 0.03
1 7.66 766 0.010 -11.684 2.820 -7.080 6.500 -28.198 -460.800 3101.180 -3266.372 0.476 2.126 -0.713 -0.06 0.62 -0.78 0.03
1 7.67 767 0.527 -12.350 3.333 -35.889 3.174 -12.085 -490.780 3311.193 -3236.392 -0.005 2.790 -1.243 -0.06 0.62 -0.78 0.03
1 7.68 768 1.930 -13.542 3.826 -27.954 -4.028 -6.775 -505.771 3221.251 -3371.454 -1.388 3.973 -1.782 -0.06 0.63 -0.78 0.03
1 7.69 769 2.993 -13.801 3.927 -5.188 -2.655 -1.709 -565.731 3236.242 -3311.343 -2.437 4.223 -1.929 -0.06 0.63 -0.78 0.03
1 7.70 770 3.299 -13.102 3.721 11.108 7.843 9.583 -565.731 3236.242 -3311.343 -2.746 3.523 -1.726 -0.06 0.63 -0.78 0.03
1 7.71 771 1.604 -12.005 3.840 0.671 28.961 38.788 -460.800 3266.222 -3221.401 -1.092 2.427 -1.832 -0.06 0.63 -0.78 0.03
1 7.72 772 0.259 -11.133 3.907 3.479 34.332 44.922 -325.738 3371.154 -3146.450 0.184 1.552 -1.896 -0.05 0.63 -0.78 0.03
1 7.73 773 -0.958 -10.386 3.836 18.127 33.386 41.748 -325.738 3371.154 -3146.450 1.326 0.805 -1.810 -0.05 0.63 -0.78 0.03
1 7.74 774 -1.868 -8.998 4.123 29.907 26.917 40.558 -295.757 3161.141 -3311.343 2.166 -0.579 -2.063 -0.04 0.63 -0.78 0.03
1 7.75 775 -2.174 -8.423 4.224 25.024 19.409 40.894 -295.757 3311.193 -3206.411 2.397 -1.144 -2.110 -0.04 0.63 -0.78 0.03
1 7.76 776 -1.987 -7.987 4.233 15.381 13.428 38.727 -355.718 3341.173 -3191.421 2.129 -1.568 -2.063 -0.04 0.62 -0.78 0.03
1 7.77 777 -1.710 -8.155 3.931 8.850 9.979 35.278 -355.718 3341.173 -3191.421 1.773 -1.392 -1.718 -0.03 0.62 -0.78 0.03
1 7.78 778 -1.259 -8.437 3.553 7.111 4.486 27.893 -280.767 3341.173 -3326.483 1.191 -1.095 -1.281 -0.03 0.62 -0.78 0.04
1 7.79 779 -1.058 -8.490 3.462 7.843 2.289 22.339 -220.806 3161.141 -3386.444 0.943 -1.037 -1.168 -0.02 0.62 -0.78 0.04
1 7.80 780 -1.240 -8.131 3.582 8.850 2.655 19.470 -220.806 3161.141 -3386.444 1.086 -1.390 -1.265 -0.02 0.62 -0.79 0.04
1 7.81 781 -1.283 -7.968 3.481 9.155 0.366 20.996 -265.777 3356.164 -3281.362 1.093 -1.546 -1.139 -0.02 0.62 -0.79 0.04
1 7.82 782 -1.207 -8.155 3.175 9.186 -2.045 25.055 -220.806 3311.193 -3491.375 0.983 -1.353 -0.813 -0.02 0.62 -0.79 0.04
1 7.83 783 -1.183 -8.428 2.993 8.240 -2.167 29.297 -220.806 3431.265 -3491.375 0.918 -1.073 -0.606 -0.02 0.61 -0.79 0.05
1 7.84 784 -1.231 -8.619 2.797 4.944 -0.397 31.983 -220.806 3431.265 -3491.375 0.918 -0.875 -0.388 -0.02 0.61 -0.79 0.05
1 7.85 785 -1.154 -8.730 2.710 4.486 -0.732 35.645 -25.783 3221.251 -3401.434 0.736 -0.754 -0.277 -0.01 0.61 -0.79 0.05
1 7.86 786 -1.293 -8.639 2.538 10.193 -0.397 37.048 -160.695 3311.193 -3491.375 0.818 -0.839 -0.093 -0.01 0.61 -0.79 0.06
1 7.87 787 -1.302 -8.442 2.653 14.801 0.122 36.163 -160.695 3311.193 -3491.375 0.768 -1.028 -0.188 -0.01 0.61 -0.79 0.06
1 7.88 788 -1.197 -8.303 2.490 14.313 -1.434 30.151 -115.725 3236.242 -3431.415 0.607 -1.156 0.001 -0.01 0.61 -0.79 0.06
1 7.89 789 -1.293 -8.059 2.634 9.644 -3.754 25.452 -55.764 3221.251 -3446.405 0.659 -1.392 -0.119 -0.01 0.61 -0.79 0.06
1 7.90 790 -1.504 -8.303 2.797 7.294 -6.531 22.034 -160.695 3281.212 -3491.375 0.833 -1.140 -0.265 -0.01 0.61 -0.79 0.06
1 7.91 791 -1.542 -8.466 2.758 8.972 -9.247 15.991 -160.695 3281.212 -3491.375 0.842 -0.972 -0.214 -0.01 0.61 -0.79 0.07
1 7.92 792 -1.710 -8.572 2.710 14.191 -14.099 10.925 -25.783 3221.251 -3326.483 0.962 -0.852 -0.128 -0 0.61 -0.79 0.07
1 7.93 793 -1.681 -8.548 2.629 16.235 -18.097 9.308 19.038 3266.222 -3476.385 0.918 -0.868 -0.019 -0 0.61 -0.79 0.07
1 7.94 794 -1.695 -8.342 2.380 15.076 -22.675 7.813 19.038 3266.222 -3476.385 0.921 -1.065 0.258 -0 0.6 -0.79 0.07
1 7.95 795 -1.494 -8.318 2.303 12.146 -26.306 4.517 109.129 3131.160 -3536.346 0.714 -1.081 0.360 -0.01 0.6 -0.79 0.07
1 7.96 796 -1.585 -8.485 2.126 8.118 -27.222 3.967 -85.744 3236.242 -3491.375 0.811 -0.908 0.558 -0.01 0.6 -0.79 0.07
1 7.97 797 -1.738 -8.624 2.136 7.050 -27.100 4.761 -25.783 3176.281 -3521.356 0.968 -0.765 0.564 -0.01 0.6 -0.79 0.08
1 7.98 798 -1.815 -8.658 1.863 5.707 -29.389 5.585 -25.783 3176.281 -3521.356 1.044 -0.728 0.849 -0.01 0.6 -0.8 0.08
1 7.99 799 -1.786 -8.533 1.705 4.608 -30.609 6.744 -9.594 3160.841 -3607.550 1.012 -0.849 1.017 -0.01 0.6 -0.8 0.08
1 8.00 800 -1.872 -8.849 1.666 -0.763 -31.769 8.850 -84.545 3280.763 -3532.449 1.089 -0.530 1.064 -0.01 0.6 -0.8 0.08
1 8.01 801 -1.767 -8.816 1.580 -3.387 -31.159 8.362 -84.545 3280.763 -3532.449 0.977 -0.564 1.146 -0.01 0.6 -0.79 0.09
1 8.02 802 -1.777 -8.811 1.518 -2.716 -31.708 5.859 -114.525 3310.893 -3532.449 0.981 -0.571 1.201 -0.02 0.6 -0.79 0.09
1 8.03 803 -1.523 -8.734 1.652 -2.930 -32.806 3.235 -174.636 3145.851 -3547.439 0.726 -0.649 1.061 -0.02 0.6 -0.79 0.09
1 8.04 804 -1.221 -8.763 1.949 -6.531 -33.692 2.136 -84.545 3160.841 -3487.478 0.427 -0.622 0.759 -0.02 0.6 -0.79 0.09
1 8.05 805 -0.943 -9.012 2.107 -10.345 -33.325 -0.305 -84.545 3160.841 -3487.478 0.155 -0.376 0.592 -0.02 0.6 -0.79 0.09
1 8.06 806 -0.733 -9.271 2.289 -9.583 -32.501 -2.563 -219.607 3310.893 -3457.498 -0.046 -0.122 0.397 -0.02 0.6 -0.79 0.1
1 8.07 807 -0.129 -9.175 2.246 -1.465 -28.107 -4.364 -219.607 3160.841 -3487.478 -0.613 -0.226 0.421 -0.03 0.6 -0.79 0.1
1 8.08 808 0.101 -9.127 2.461 0.763 -23.773 -4.944 -219.607 3160.841 -3487.478 -0.819 -0.275 0.207 -0.03 0.6 -0.79 0.1
1 8.09 809 0.019 -9.208 2.519 -3.021 -18.433 -5.493 -189.626 3235.792 -3352.566 -0.714 -0.195 0.151 -0.03 0.6 -0.79 0.1
1 8.10 810 -0.062 -9.156 2.672 -6.073 -13.367 -5.280 -189.626 3235.792 -3352.566 -0.611 -0.251 -0.006 -0.03 0.6 -0.79 0.1
1 8.11 811 -0.187 -9.328 2.581 -5.066 -9.155 -2.777 -219.607 3235.792 -3532.449 -0.468 -0.081 0.079 -0.03 0.6 -0.79 0.1
1 8.12 812 0.120 -9.247 2.567 -4.028 -4.456 0.336 -219.607 3235.792 -3532.449 -0.761 -0.165 0.087 -0.03 0.6 -0.79 0.1
1 8.13 813 0.168 -9.113 2.102 -1.892 -0.397 1.495 -324.539 3175.831 -3442.507 -0.800 -0.302 0.546 -0.03 0.6 -0.79 0.1
1 8.14 814 0.397 -8.754 1.513 -1.740 1.404 -2.106 -369.509 3430.815 -3562.579 -1.018 -0.664 1.127 -0.04 0.6 -0.79 0.1
1 8.15 815 0.201 -8.586 1.135 -3.967 2.472 -5.493 -369.509 3430.815 -3562.579 -0.811 -0.834 1.497 -0.04 0.6 -0.79 0.1
1 8.16 816 0.148 -8.299 1.001 -6.897 3.571 -9.460 -264.578 3385.844 -3562.579 -0.745 -1.125 1.621 -0.04 0.6 -0.79 0.1
1 8.17 817 -0.172 -8.500 0.551 -11.078 6.561 -11.139 -264.578 3385.844 -3562.579 -0.410 -0.928 2.060 -0.04 0.6 -0.79 0.1
1 8.18 818 -0.900 -8.691 0.168 -19.013 7.629 -12.238 -264.578 3280.763 -3427.517 0.333 -0.742 2.425 -0.04 0.61 -0.79 0.1
1 8.19 819 -1.786 -8.902 0.086 -24.597 7.141 -11.505 -264.578 3280.763 -3427.517 1.235 -0.540 2.481 -0.04 0.61 -0.79 0.09
1 8.20 820 -2.121 -9.117 0.618 -27.039 3.540 -11.383 -369.509 3310.893 -3607.550 1.582 -0.336 1.907 -0.04 0.61 -0.79 0.09
1 8.21 821 -2.112 -9.563 2.035 -29.877 1.709 -9.308 -264.578 3235.792 -3532.449 1.578 0.094 0.435 -0.04 0.61 -0.79 0.09
1 8.22 822 -1.911 -11.406 3.199 -37.445 11.536 5.768 -264.578 3235.792 -3532.449 1.370 1.913 -0.829 -0.04 0.61 -0.78 0.09
1 8.23 823 -1.834 -12.062 3.400 -42.816 13.214 10.132 -249.587 3370.854 -3517.458 1.280 2.555 -1.087 -0.04 0.62 -0.78 0.09
1 8.24 824 -1.221 -13.025 3.726 -41.290 15.289 11.810 -249.587 3370.854 -3517.458 0.647 3.504 -1.476 -0.04 0.62 -0.78 0.09
1 8.25 825 -0.393 -13.327 3.879 -21.607 6.012 12.726 -339.529 3430.815 -3427.517 -0.202 3.793 -1.687 -0.03 0.62 -0.78 0.09
1 8.26 826 1.025 -13.609 4.171 -5.615 10.223 11.414 -339.529 3430.815 -3427.517 -1.640 4.069 -2.017 -0.03 0.62 -0.78 0.09
1 8.27 827 1.087 -13.169 4.386 -3.448 21.881 7.813 -249.587 3445.805 -3322.436 -1.722 3.626 -2.246 -0.03 0.62 -0.78 0.09
1 8.28 828 0.239 -12.647 4.329 -14.130 31.433 -1.312 -174.636 3490.776 -3367.556 -0.903 3.101 -2.212 -0.03 0.63 -0.77 0.09
1 8.29 829 -0.795 -12.522 3.989 -26.520 27.557 -15.900 -174.636 3490.776 -3367.556 0.142 2.968 -1.909 -0.03 0.63 -0.77 0.09
1 8.30 830 -1.216 -12.843 3.984 -26.276 11.383 -27.832 -324.539 3445.805 -3397.537 0.595 3.277 -1.948 -0.03 0.63 -0.77 0.09
1 8.31 831 -0.867 -13.073 4.348 -15.381 11.475 -22.034 -324.539 3445.805 -3397.537 0.283 3.497 -2.347 -0.03 0.63 -0.77 0.08
1 8.32 832 -0.742 -12.441 3.994 15.167 14.771 -16.327 -112.427 3504.567 -3421.521 0.185 2.860 -2.010 -0.03 0.63 -0.77 0.08
1 8.33 833 -1.231 -10.147 3.922 26.001 9.460 -26.184 -112.427 3504.567 -3421.521 0.693 0.568 -1.924 -0.03 0.63 -0.77 0.08
1 8.34 834 -1.164 -9.122 4.295 29.053 5.005 -32.532 -337.430 3474.586 -3271.469 0.658 -0.451 -2.262 -0.03 0.63 -0.77 0.08
1 8.35 835 -1.058 -8.524 4.583 20.081 2.167 -28.137 -277.469 3519.557 -3361.410 0.596 -1.041 -2.499 -0.03 0.63 -0.77 0.08
1 8.36 836 -1.207 -7.825 4.133 15.503 3.998 -23.163 -277.469 3519.557 -3361.410 0.814 -1.722 -1.954 -0.03 0.62 -0.78 0.07
1 8.37 837 -1.288 -7.916 3.711 16.113 5.402 -18.585 -292.459 3474.586 -3481.482 0.920 -1.623 -1.491 -0.03 0.62 -0.78 0.07
1 8.38 838 -1.207 -7.796 3.567 15.442 6.470 -15.015 -292.459 3474.586 -3481.482 0.856 -1.734 -1.308 -0.03 0.62 -0.78 0.07
1 8.39 839 -0.843 -7.973 3.601 13.092 6.317 -12.604 -352.420 3414.625 -3391.391 0.512 -1.552 -1.320 -0.03 0.62 -0.78 0.07
1 8.40 840 -0.244 -8.093 3.433 13.794 5.249 -6.561 -217.358 3384.495 -3481.482 -0.070 -1.428 -1.132 -0.03 0.62 -0.78 0.07
1 8.41 841 0.129 -8.035 3.189 9.247 6.805 -8.209 -322.440 3294.554 -3436.511 -0.436 -1.478 -0.855 -0.03 0.62 -0.78 0.07
1 8.42 842 0.661 -8.519 3.041 3.021 11.932 -10.559 -262.479 3474.586 -3271.469 -0.957 -0.991 -0.691 -0.03 0.62 -0.78 0.07
1 8.43 843 0.733 -8.926 2.940 -0.366 15.930 -11.993 -262.479 3474.586 -3271.469 -1.014 -0.581 -0.579 -0.03 0.62 -0.78 0.07
1 8.44 844 0.532 -9.295 2.476 2.441 16.388 -17.517 -352.420 3414.625 -3541.443 -0.769 -0.211 -0.104 -0.03 0.61 -0.79 0.06
1 8.45 845 0.426 -9.247 2.519 8.728 12.634 -18.433 -352.420 3414.625 -3541.443 -0.635 -0.258 -0.140 -0.03 0.61 -0.79 0.06
1 8.46 846 0.330 -9.132 2.653 8.820 8.484 -17.914 -322.440 3489.577 -3361.410 -0.510 -0.369 -0.259 -0.03 0.61 -0.79 0.06
1 8.47 847 0.330 -8.935 2.782 4.089 5.493 -16.266 -322.440 3339.524 -3361.410 -0.482 -0.563 -0.374 -0.03 0.61 -0.79 0.06
1 8.48 848 0.642 -8.543 2.461 4.181 1.801 -15.259 -426.172 3219.303 -3463.494 -0.767 -0.953 -0.042 -0.04 0.61 -0.79 0.06
1 8.49 849 0.737 -8.457 2.394 3.387 -1.465 -15.350 -441.163 3474.287 -3418.523 -0.835 -1.037 0.034 -0.04 0.61 -0.79 0.05
1 8.50 850 0.656 -8.414 2.380 -1.007 -2.533 -14.252 -441.163 3474.287 -3418.523 -0.727 -1.079 0.056 -0.04 0.61 -0.79 0.05
1 8.51 851 0.350 -8.045 2.313 -6.714 -3.540 -12.573 -366.062 3384.345 -3373.402 -0.376 -1.448 0.120 -0.04 0.61 -0.79 0.05
1 8.52 852 0.125 -8.232 2.289 -10.407 -5.096 -12.054 -366.062 3384.345 -3373.402 -0.130 -1.264 0.133 -0.04 0.61 -0.79 0.05
1 8.53 853 0.134 -8.500 2.361 -11.108 -5.310 -10.651 -351.071 3519.407 -3643.526 -0.119 -1.000 0.047 -0.04 0.61 -0.79 0.05
1 8.54 854 0.110 -8.744 2.231 -9.216 -5.249 -10.162 -201.169 3489.427 -3463.494 -0.077 -0.759 0.161 -0.04 0.61 -0.79 0.05
1 8.55 855 -0.187 -8.892 2.045 -6.531 -5.951 -8.575 -261.130 3474.287 -3343.422 0.238 -0.614 0.337 -0.04 0.61 -0.79 0.05
1 8.56 856 -0.062 -8.801 2.045 -4.028 -6.256 -8.545 -351.071 3414.326 -3463.494 0.128 -0.707 0.328 -0.04 0.61 -0.79 0.05
1 8.57 857 0.096 -8.912 2.002 -1.801 -5.707 -6.073 -351.071 3414.326 -3463.494 -0.016 -0.598 0.364 -0.04 0.61 -0.79 0.05
1 8.58 858 0.464 -8.931 1.738 -0.641 -6.317 -3.021 -381.052 3294.404 -3433.513 -0.363 -0.580 0.622 -0.04 0.61 -0.79 0.05
1 8.59 859 0.924 -9.079 1.757 0.519 -3.357 1.343 -381.052 3294.404 -3433.513 -0.815 -0.432 0.600 -0.05 0.61 -0.79 0.05
1 8.60 860 1.010 -8.830 1.657 0.275 1.221 2.411 -381.052 3489.427 -3463.494 -0.896 -0.682 0.699 -0.05 0.61 -0.79 0.05
1 8.61 861 1.125 -8.667 1.437 1.007 4.944 4.395 -531.104 3264.423 -3388.542 -1.008 -0.845 0.918 -0.05 0.61 -0.79 0.05
1 8.62 862 1.159 -8.591 1.398 -2.777 10.620 5.707 -351.071 3414.326 -3463.494 -1.041 -0.923 0.952 -0.05 0.61 -0.79 0.05
1 8.63 863 1.044 -8.864 1.379 -4.486 14.893 8.911 -411.032 3504.417 -3418.523 -0.932 -0.651 0.966 -0.04 0.62 -0.79 0.05
1 8.64 864 0.680 -8.888 1.235 -5.920 18.799 12.146 -411.032 3504.417 -3418.523 -0.579 -0.629 1.101 -0.04 0.62 -0.79 0.05
1 8.65 865 0.364 -8.998 1.130 -8.301 20.722 13.062 -456.153 3489.427 -3433.513 -0.278 -0.522 1.194 -0.04 0.62 -0.79 0.05
1 8.66 866 0.043 -9.103 1.049 -9.003 18.311 8.148 -456.153 3489.427 -3433.513 0.001 -0.426 1.239 -0.04 0.62 -0.78 0.05
1 8.67 867 0.249 -9.295 1.130 -7.355 12.573 7.019 -351.071 3564.378 -3313.441 -0.220 -0.239 1.139 -0.04 0.62 -0.78 0.05
1 8.68 868 0.359 -9.400 1.484 -8.911 10.407 9.277 -501.124 3339.375 -3463.494 -0.342 -0.138 0.767 -0.04 0.62 -0.78 0.05
1 8.69 869 0.464 -9.850 1.599 -16.693 12.970 13.733 -261.130 3429.316 -3343.422 -0.462 0.308 0.632 -0.04 0.62 -0.78 0.05
1 8.70 870 0.005 -10.430 1.508 -17.548 12.268 13.702 -381.052 3489.427 -3433.513 -0.021 0.881 0.697 -0.04 0.62 -0.78 0.05
1 8.71 871 -0.081 -10.511 1.614 -12.268 9.491 10.712 -381.052 3489.427 -3433.513 0.043 0.955 0.561 -0.03 0.62 -0.78 0.05
1 8.72 872 -0.211 -10.300 1.695 -4.303 6.470 8.270 -336.081 3549.388 -3268.471 0.139 0.736 0.441 -0.03 0.62 -0.78 0.05
1 8.73 873 0.148 -9.630 1.585 3.387 6.561 6.897 -336.081 3549.388 -3268.471 -0.231 0.065 0.548 -0.03 0.62 -0.78 0.05
1 8.74 874 0.594 -9.563 1.781 4.974 9.216 9.522 -366.062 3474.287 -3418.523 -0.687 -0.001 0.354 -0.03 0.62 -0.78 0.05
1 8.75 875 0.713 -9.965 1.710 2.472 13.886 9.766 -291.110 3579.368 -3478.484 -0.819 0.402 0.431 -0.03 0.62 -0.78 0.05
1 8.76 876 0.824 -10.592 1.475 -3.601 19.684 8.179 -381.052 3594.358 -3358.412 -0.941 1.029 0.664 -0.03 0.62 -0.78 0.05
1 8.77 877 0.953 -10.635 1.547 -0.763 19.379 5.676 -261.130 3549.388 -3193.520 -1.080 1.071 0.583 -0.03 0.62 -0.78 0.05
1 8.78 878 0.924 -10.501 2.203 2.319 17.944 -1.221 -261.130 3549.388 -3193.520 -1.062 0.935 -0.078 -0.03 0.63 -0.78 0.04
1 8.79 879 1.020 -10.482 3.031 -7.019 19.135 -9.430 -321.091 3564.378 -3283.461 -1.164 0.917 -0.903 -0.03 0.63 -0.78 0.04
1 8.80 880 0.939 -11.694 4.429 -19.806 17.273 -29.144 -321.091 3564.378 -3283.461 -1.048 2.123 -2.325 -0.03 0.63 -0.78 0.04
1 8.81 881 0.891 -13.135 3.544 -34.821 17.120 -49.225 -261.130 3504.417 -3298.451 -0.954 3.556 -1.474 -0.03 0.63 -0.78 0.04
1 8.82 882 0.781 -13.853 2.222 -29.999 15.595 -53.681 -126.068 3594.358 -3358.412 -0.772 4.263 -0.204 -0.03 0.63 -0.78 0.03
1 8.83 883 0.268 -13.465 2.040 -0.153 10.437 -39.887 -126.068 3594.358 -3358.412 -0.187 3.869 -0.055 -0.03 0.63 -0.77 0.03
1 8.84 884 -0.388 -12.216 2.418 1.129 11.719 -19.043 -246.140 3564.378 -3253.480 0.520 2.621 -0.426 -0.03 0.63 -0.78 0.03
1 8.85 885 -0.417 -12.048 2.811 -13.519 11.993 -10.712 -246.140 3564.378 -3253.480 0.579 2.455 -0.812 -0.03 0.63 -0.78 0.02
1 8.86 886 0.158 -12.493 3.122 -11.200 14.069 -3.571 -214.061 3637.980 -3367.256 0.021 2.898 -1.137 -0.03 0.63 -0.78 0.02
1 8.87 887 0.723 -12.853 3.180 -2.991 17.304 7.416 -214.061 3637.980 -3367.256 -0.549 3.252 -1.219 -0.03 0.63 -0.77 0.02
1 8.88 888 0.747 -11.971 3.491 4.334 21.057 35.706 -379.103 3593.009 -3247.334 -0.610 2.372 -1.525 -0.03 0.63 -0.77 0.02
1 8.89 889 0.493 -11.320 3.936 2.014 23.346 48.706 -289.162 3758.052 -3292.305 -0.421 1.721 -1.964 -0.02 0.63 -0.77 0.02
1 8.90 890 -0.086 -10.635 4.018 4.242 24.201 53.894 -289.162 3758.052 -3292.305 0.079 1.037 -2.041 -0.02 0.63 -0.77 0.03
1 8.91 891 -0.235 -9.745 4.018 19.257 25.147 52.185 -169.090 3622.990 -3277.315 0.141 0.149 -2.031 -0.02 0.63 -0.77 0.03
1 8.92 892 -0.594 -8.256 4.171 27.008 28.290 43.884 -169.090 3622.990 -3277.315 0.415 -1.333 -2.153 -0.01 0.63 -0.78 0.03
1 8.93 893 -0.996 -7.566 4.420 28.107 31.799 36.530 -214.061 3608.000 -3262.325 0.740 -2.009 -2.349 -0.01 0.63 -0.78 0.03
1 8.94 894 -1.245 -7.006 4.180 25.208 31.281 32.440 -214.061 3608.000 -3262.325 0.922 -2.555 -2.050 -0 0.63 -0.78 0.03
1 8.95 895 -1.695 -6.287 3.860 21.454 23.712 21.973 -274.171 3518.058 -3382.247 1.264 -3.252 -1.658 0 0.62 -0.78 0.03
1 8.96 896 -1.858 -6.244 3.975 13.794 22.736 14.252 -94.139 3593.009 -3352.266 1.390 -3.287 -1.744 0 0.62 -0.78 0.03
1 8.97 897 -2.322 -6.465 4.219 5.219 25.360 7.904 -94.139 3593.009 -3352.266 1.830 -3.062 -1.972 0.01 0.62 -0.78 0.03
1 8.98 898 -2.682 -6.996 3.869 -3.510 24.811 2.258 -94.139 3593.009 -3382.247 2.171 -2.528 -1.619 0.01 0.62 -0.78 0.03
1 8.99 899 -2.993 -7.236 3.232 -9.583 11.475 -9.552 -94.139 3593.009 -3382.247 2.476 -2.291 -0.990 0.01 0.62 -0.78 0.03
1 9.00 900 -2.940 -7.997 3.074 -11.780 1.190 -12.482 -79.148 3427.967 -3472.338 2.431 -1.533 -0.845 0.01 0.62 -0.78 0.03
1 9.01 901 -2.576 -8.639 3.127 -9.186 -0.977 -6.409 -79.148 3427.967 -3472.338 2.085 -0.896 -0.914 0.01 0.62 -0.78 0.03
1 9.02 902 -2.150 -9.472 2.964 -5.035 1.007 5.585 -34.178 3637.980 -3412.377 1.636 -0.063 -0.757 0.01 0.62 -0.78 0.03
1 9.03 903 -1.590 -10.185 2.859 3.906 1.678 17.853 -4.047 3503.068 -3337.276 1.045 0.654 -0.647 0.01 0.62 -0.78 0.03
1 9.04 904 -1.365 -10.257 2.739 12.238 2.380 21.118 -4.047 3503.068 -3337.276 0.785 0.730 -0.515 0.01 0.62 -0.78 0.03
1 9.05 905 -1.216 -9.994 2.749 21.851 4.486 26.306 55.764 3443.107 -3247.334 0.600 0.475 -0.500 0.01 0.62 -0.78 0.03
1 9.06 906 -1.183 -9.132 2.452 22.492 6.744 31.738 221.855 3606.351 -3435.762 0.521 -0.375 -0.167 0.01 0.62 -0.78 0.04
1 9.07 907 -1.379 -8.801 2.356 13.123 4.486 27.618 71.803 3636.481 -3330.680 0.667 -0.693 -0.034 0.02 0.62 -0.79 0.04
1 9.08 908 -1.461 -8.888 2.102 5.035 0.153 22.003 71.803 3636.481 -3330.680 0.702 -0.597 0.244 0.02 0.62 -0.79 0.04
1 9.09 909 -1.403 -9.165 2.054 3.906 -4.364 17.090 -77.949 3501.419 -3405.781 0.577 -0.309 0.309 0.02 0.62 -0.79 0.04
1 9.10 910 -1.666 -9.309 1.858 10.742 -7.813 13.611 236.846 3486.429 -3270.719 0.816 -0.161 0.515 0.02 0.62 -0.79 0.04
1 9.11 911 -1.657 -9.256 1.647 14.160 -12.207 10.590 236.846 3486.429 -3270.719 0.785 -0.208 0.741 0.02 0.61 -0.79 0.05
1 9.12 912 -1.671 -9.165 1.619 15.106 -15.320 7.477 131.914 3621.491 -3240.739 0.785 -0.293 0.789 0.02 0.61 -0.79 0.05
1 9.13 913 -1.690 -8.993 1.437 13.916 -19.348 4.334 131.914 3411.478 -3345.670 0.795 -0.459 0.991 0.02 0.61 -0.79 0.05
1 9.14 914 -1.959 -8.821 1.269 12.695 -21.881 1.221 71.803 3231.445 -3465.742 1.058 -0.627 1.176 0.02 0.61 -0.79 0.05
1 9.15 915 -2.409 -8.734 1.116 12.329 -26.001 -1.221 71.803 3231.445 -3465.742 1.508 -0.709 1.345 0.02 0.61 -0.79 0.05
1 9.16 916 -2.447 -8.686 0.757 11.353 -31.494 -3.204 -32.979 3351.367 -3465.742 1.553 -0.750 1.731 0.02 0.61 -0.79 0.05
1 9.17 917 -2.318 -8.629 0.694 7.477 -37.445 -3.571 -17.988 3441.458 -3600.654 1.433 -0.807 1.800 0.01 0.61 -0.79 0.06
1 9.18 918 -1.753 -8.696 0.627 -3.082 -46.051 -1.892 -17.988 3441.458 -3600.654 0.879 -0.741 1.865 0.01 0.61 -0.79 0.06
1 9.19 919 -1.556 -8.696 0.656 -7.660 -48.706 -0.519 116.924 3501.419 -3405.781 0.695 -0.746 1.825 0.01 0.61 -0.79 0.06
1 9.20 920 -1.331 -8.763 0.761 -5.981 -45.868 0.946 -47.969 3336.376 -3375.801 0.483 -0.684 1.703 0.01 0.61 -0.79 0.06
1 9.21 921 -1.451 -8.663 0.977 -6.836 -44.220 1.099 -107.930 3426.468 -3360.661 0.618 -0.788 1.480 0 0.61 -0.79 0.07
1 9.22 922 -1.489 -8.806 1.259 -10.254 -43.030 1.678 -107.930 3426.468 -3360.661 0.671 -0.648 1.189 -0 0.61 -0.79 0.07
1 9.23 923 -1.499 -8.801 1.628 -13.611 -42.969 2.808 -77.949 3381.497 -3435.762 0.690 -0.657 0.804 -0 0.61 -0.79 0.07
1 9.24 924 -1.197 -8.749 1.963 -11.597 -36.591 8.453 -17.988 3516.409 -3270.719 0.398 -0.721 0.431 -0.01 0.61 -0.79 0.08
1 9.25 925 -0.948 -8.686 2.107 -8.484 -30.914 11.047 -17.988 3516.409 -3270.719 0.145 -0.786 0.275 -0.01 0.62 -0.78 0.08
1 9.26 926 -0.661 -8.643 2.279 -9.399 -25.513 12.299 -122.920 3261.425 -3300.700 -0.150 -0.830 0.094 -0.01 0.62 -0.78 0.08
1 9.27 927 -0.369 -8.619 2.131 -10.742 -20.722 12.695 -153.050 3576.370 -3210.758 -0.450 -0.856 0.233 -0.01 0.62 -0.78 0.08
1 9.28 928 0.321 -8.351 1.791 -6.775 -17.395 9.064 -2.998 3546.390 -3360.661 -1.147 -1.126 0.562 -0.01 0.62 -0.78 0.08
1 9.29 929 0.589 -8.236 1.743 -5.951 -11.200 6.409 -2.998 3546.390 -3360.661 -1.422 -1.243 0.601 -0.01 0.62 -0.78 0.08
1 9.30 930 0.623 -8.466 1.350 -9.094 -5.188 5.615 -153.050 3471.438 -3360.661 -1.460 -1.014 0.988 -0.01 0.62 -0.78 0.09
1 9.31 931 0.417 -8.500 0.919 -12.329 -1.038 2.319 -122.920 3561.380 -3165.788 -1.262 -0.986 1.392 -0.01 0.62 -0.78 0.09
1 9.32 932 0.350 -8.270 0.661 -9.216 -5.981 -8.423 -122.920 3561.380 -3165.788 -1.190 -1.220 1.634 -0.01 0.62 -0.78 0.09
1 9.33 933 0.627 -8.227 1.896 -8.514 -10.773 -16.876 -122.920 3411.478 -3195.768 -1.448 -1.268 0.388 -0.02 0.62 -0.78 0.09
1 9.34 934 1.322 -8.768 4.860 -14.679 -2.502 -17.578 -107.930 3576.370 -3285.709 -2.111 -0.732 -2.588 -0.02 0.62 -0.78 0.09
1 9.35 935 1.336 -10.746 5.205 -51.758 31.098 9.766 -196.672 3515.810 -3296.802 -2.091 1.240 -2.943 -0.02 0.62 -0.78 0.08
1 9.36 936 -0.129 -12.718 2.782 -71.564 40.222 12.787 -196.672 3515.810 -3296.802 -0.641 3.199 -0.587 -0.02 0.62 -0.78 0.08
1 9.37 937 -0.809 -13.384 1.221 -66.986 37.506 2.747 -361.714 3470.689 -3206.861 0.008 3.844 0.870 -0.01 0.63 -0.77 0.08
1 9.38 938 -1.346 -13.284 1.408 -28.900 0.824 -18.982 -241.643 3485.679 -3236.841 0.524 3.722 0.577 -0.01 0.63 -0.77 0.08
1 9.39 939 -0.852 -13.159 3.510 8.026 -14.648 -40.924 -241.643 3485.679 -3236.841 0.106 3.580 -1.579 -0.02 0.63 -0.77 0.08
1 9.40 940 -1.523 -13.288 3.946 -27.039 9.460 -36.377 -106.730 3635.731 -3176.880 0.839 3.705 -2.012 -0.02 0.63 -0.77 0.08
1 9.41 941 -3.433 -13.451 4.171 -50.537 24.780 -38.483 -121.721 3740.813 -3086.939 2.800 3.854 -2.290 -0.02 0.64 -0.77 0.07
1 9.42 942 -4.841 -14.394 4.042 -41.016 12.421 -37.872 -166.691 3590.761 -3086.939 4.260 4.780 -2.234 -0.02 0.64 -0.77 0.07
1 9.43 943 -4.511 -14.409 4.726 -20.264 -14.404 -16.846 -166.691 3590.761 -3086.939 3.983 4.781 -2.975 -0.02 0.64 -0.76 0.07
1 9.44 944 -3.156 -13.255 4.645 -5.981 -21.088 3.265 -406.685 3605.751 -3146.900 2.664 3.619 -2.928 -0.02 0.64 -0.76 0.07
1 9.45 945 -1.374 -11.976 4.578 5.280 -24.139 12.756 -271.623 3560.780 -2906.906 0.891 2.338 -2.872 -0.03 0.64 -0.76 0.07
1 9.46 946 0.086 -11.210 4.674 12.207 -24.323 10.162 -271.623 3560.780 -2906.906 -0.587 1.577 -2.943 -0.03 0.64 -0.76 0.07
1 9.47 947 1.403 -10.329 4.793 28.595 -15.167 6.165 -376.705 3620.741 -3011.838 -1.908 0.702 -3.031 -0.03 0.64 -0.76 0.07
1 9.48 948 1.235 -9.074 4.530 38.178 -8.972 5.920 -196.672 3560.780 -3011.838 -1.744 -0.543 -2.719 -0.03 0.64 -0.77 0.08
1 9.49 949 1.020 -8.327 4.185 36.682 -5.890 5.981 -196.672 3560.780 -3011.838 -1.527 -1.277 -2.306 -0.03 0.64 -0.77 0.08
1 9.50 950 0.781 -7.901 3.649 23.346 0.336 4.669 -316.594 3770.793 -3116.919 -1.282 -1.690 -1.699 -0.03 0.63 -0.77 0.08
1 9.51 951 0.790 -8.059 3.711 18.127 -0.427 3.754 -181.682 3680.702 -3176.880 -1.288 -1.521 -1.706 -0.03 0.63 -0.77 0.08
1 9.52 952 0.766 -7.882 3.577 21.607 -3.204 0.000 -346.724 3560.780 -3086.939 -1.268 -1.691 -1.543 -0.03 0.63 -0.77 0.08
1 9.53 953 0.713 -7.695 3.520 19.653 -1.831 -4.547 -346.724 3560.780 -3086.939 -1.204 -1.864 -1.416 -0.03 0.63 -0.78 0.08
1 9.54 954 0.718 -7.724 3.137 7.629 5.402 -18.738 -346.724 3515.810 -3086.939 -1.190 -1.831 -1.012 -0.03 0.63 -0.78 0.08
1 9.55 955 0.761 -8.035 3.079 5.829 9.216 -24.689 -316.594 3620.741 -3116.919 -1.204 -1.519 -0.944 -0.03 0.62 -0.78 0.08
1 9.56 956 0.709 -8.437 2.993 5.798 9.033 -29.846 -316.594 3620.741 -3116.919 -1.114 -1.117 -0.849 -0.03 0.62 -0.78 0.07
1 9.57 957 0.560 -8.859 2.859 3.784 8.911 -31.128 -271.623 3485.679 -3161.890 -0.915 -0.693 -0.699 -0.03 0.62 -0.78 0.07
1 9.58 958 0.374 -8.998 2.773 3.204 7.629 -31.128 -211.662 3470.689 -3176.880 -0.679 -0.553 -0.599 -0.03 0.62 -0.78 0.07
1 9.59 959 0.560 -8.935 2.710 4.608 5.524 -31.036 -286.613 3380.748 -3071.799 -0.816 -0.615 -0.526 -0.04 0.62 -0.78 0.07
1 9.60 960 0.503 -8.835 2.653 5.219 1.465 -30.762 -286.613 3380.748 -3071.799 -0.658 -0.712 -0.443 -0.04 0.62 -0.78 0.06
1 9.61 961 0.670 -8.586 2.744 4.761 1.343 -28.961 -376.705 3515.810 -3116.919 -0.777 -0.958 -0.522 -0.04 0.62 -0.78 0.06
1 9.62 962 0.584 -8.270 2.471 1.526 1.373 -25.604 -271.623 3440.708 -3056.809 -0.643 -1.272 -0.238 -0.04 0.62 -0.78 0.06
1 9.63 963 0.527 -8.318 2.351 -1.587 -0.061 -22.675 -271.623 3440.708 -3056.809 -0.546 -1.223 -0.114 -0.04 0.62 -0.78 0.06
1 9.64 964 0.215 -8.174 2.241 -8.728 -1.068 -19.714 -256.633 3425.718 -3146.900 -0.201 -1.368 -0.006 -0.04 0.62 -0.78 0.05
1 9.65 965 0.077 -8.466 2.006 -11.566 -1.526 -16.998 -406.685 3545.790 -3071.799 -0.031 -1.078 0.218 -0.04 0.62 -0.78 0.05
1 9.66 966 -0.005 -8.749 2.016 -13.702 -1.404 -11.932 -436.666 3470.689 -3176.880 0.079 -0.799 0.194 -0.05 0.62 -0.78 0.05
1 9.67 967 -0.029 -8.921 1.935 -12.177 0.305 -8.789 -436.666 3470.689 -3176.880 0.123 -0.630 0.256 -0.05 0.62 -0.78 0.05
1 9.68 968 0.043 -9.132 1.647 -7.385 1.556 -6.683 -601.108 3485.529 -3010.789 0.076 -0.427 0.512 -0.05 0.62 -0.78 0.05
1 9.69 969 0.244 -9.199 1.590 -4.303 1.404 -4.059 -601.108 3410.578 -3190.671 -0.116 -0.362 0.558 -0.05 0.62 -0.78 0.05
1 9.70 970 0.517 -9.146 1.422 -1.648 2.228 -1.129 -601.108 3410.578 -3190.671 -0.383 -0.416 0.718 -0.05 0.62 -0.78 0.05
1 9.71 971 0.680 -9.022 1.508 0.000 2.777 1.648 -511.017 3425.568 -3070.750 -0.542 -0.542 0.627 -0.05 0.62 -0.78 0.05
1 9.72 972 0.685 -9.003 1.374 -1.709 6.561 6.165 -526.007 3515.660 -3010.789 -0.547 -0.562 0.758 -0.05 0.62 -0.78 0.05
1 9.73 973 0.991 -8.940 1.374 -0.153 7.996 7.111 -436.066 3545.640 -3175.681 -0.858 -0.625 0.753 -0.05 0.62 -0.78 0.05
1 9.74 974 1.097 -9.046 1.192 2.136 9.888 7.813 -436.066 3545.640 -3175.681 -0.970 -0.521 0.931 -0.05 0.62 -0.78 0.05
1 9.75 975 1.053 -8.792 1.470 1.923 11.719 9.125 -481.037 3350.617 -3145.701 -0.941 -0.775 0.651 -0.05 0.62 -0.78 0.05
1 9.76 976 0.838 -8.696 1.202 -3.418 16.876 14.221 -256.033 3545.640 -3025.779 -0.739 -0.872 0.916 -0.05 0.62 -0.78 0.05
1 9.77 977 0.565 -8.667 1.212 -6.683 18.982 16.022 -256.033 3545.640 -3025.779 -0.488 -0.902 0.899 -0.04 0.62 -0.78 0.05
1 9.78 978 0.196 -8.691 1.073 -8.179 18.707 14.587 -316.144 3485.529 -3055.759 -0.147 -0.881 1.028 -0.04 0.63 -0.78 0.05
1 9.79 979 0.038 -8.595 0.895 -8.881 14.862 13.428 -436.066 3380.598 -3070.750 -0.016 -0.979 1.194 -0.04 0.63 -0.78 0.05
1 9.80 980 0.067 -8.639 1.010 -9.888 11.597 14.282 -511.017 3470.539 -3145.701 -0.069 -0.939 1.067 -0.04 0.63 -0.78 0.05
1 9.81 981 0.000 -8.758 1.326 -12.329 8.637 16.571 -511.017 3470.539 -3145.701 -0.025 -0.822 0.738 -0.04 0.63 -0.78 0.05
1 9.82 982 0.057 -9.204 1.681 -16.510 8.148 17.670 -421.076 3515.660 -3085.740 -0.108 -0.380 0.367 -0.04 0.63 -0.78 0.05
1 9.83 983 -0.177 -10.022 1.710 -19.226 8.057 14.862 -511.017 3500.669 -3025.779 0.076 0.428 0.285 -0.03 0.63 -0.77 0.05
1 9.84 984 -0.302 -10.343 1.666 -16.052 6.409 11.810 -511.017 3500.669 -3025.779 0.178 0.743 0.299 -0.03 0.63 -0.77 0.05
1 9.85 985 -0.378 -10.386 1.341 -10.956 1.587 7.721 -256.033 3470.539 -3250.782 0.237 0.782 0.600 -0.03 0.63 -0.77 0.05
1 9.86 986 -0.316 -9.999 1.403 -8.667 -2.747 6.134 -376.105 3485.529 -3085.740 0.163 0.390 0.519 -0.03 0.63 -0.77 0.05
1 9.87 987 0.000 -9.941 1.216 -9.522 -6.714 5.920 -271.023 3440.559 -3010.789 -0.161 0.330 0.690 -0.03 0.63 -0.77 0.05
1 9.88 988 0.330 -9.778 1.207 -10.620 -6.042 8.026 -271.023 3440.559 -3010.789 -0.497 0.163 0.681 -0.03 0.63 -0.77 0.05
1 9.89 989 0.340 -9.879 1.144 -11.322 -2.808 9.094 -451.056 3440.559 -2980.808 -0.513 0.260 0.724 -0.03 0.64 -0.77 0.05
1 9.90 990 0.460 -10.056 0.948 -10.651 -1.556 7.568 -376.105 3485.529 -2980.808 -0.647 0.429 0.878 -0.03 0.64 -0.77 0.06
1 9.91 991 0.828 -10.152 0.943 -5.829 -1.923 5.280 -376.105 3485.529 -2980.808 -1.019 0.522 0.863 -0.03 0.64 -0.77 0.06
1 9.92 992 1.183 -10.157 1.149 -1.404 -0.916 3.540 -271.023 3515.660 -3085.740 -1.371 0.524 0.644 -0.03 0.64 -0.77 0.06
1 9.93 993 1.518 -10.085 1.777 2.014 1.740 2.625 -271.023 3515.660 -3085.740 -1.700 0.451 0.011 -0.03 0.64 -0.77 0.06
1 9.94 994 1.810 -10.516 3.352 -2.167 4.486 -1.099 -346.125 3515.660 -2980.808 -1.983 0.882 -1.563 -0.03 0.64 -0.77 0.06
1 9.95 995 1.628 -11.301 3.898 -10.742 4.456 -11.078 -346.125 3515.660 -2980.808 -1.794 1.667 -2.107 -0.03 0.64 -0.77 0.05
1 9.96 996 1.417 -12.149 3.816 -17.700 6.073 -24.719 -256.033 3500.669 -2950.678 -1.571 2.513 -2.038 -0.03 0.64 -0.77 0.05
1 9.97 997 0.876 -12.915 3.007 -18.524 7.996 -36.316 -376.105 3485.529 -2935.688 -0.950 3.269 -1.279 -0.04 0.64 -0.77 0.05
1 9.98 998 -0.129 -12.939 1.815 -7.446 2.594 -37.262 -376.105 3485.529 -2935.688 0.114 3.289 -0.106 -0.04 0.64 -0.76 0.05
1 9.99 999 -0.455 -12.149 1.863 4.395 -2.289 -28.809 -421.076 3485.529 -2935.688 0.492 2.498 -0.159 -0.04 0.64 -0.76 0.05
1 10.00 1000 -0.484 -11.756 2.164 1.678 1.495 -22.797 -421.076 3485.529 -2935.688 0.563 2.107 -0.453 -0.04 0.64 -0.77 0.04
1 10.01 1001 0.512 -13.020 2.581 -14.069 6.165 -20.386 -436.066 3545.640 -2995.798 -0.399 3.371 -0.871 -0.04 0.64 -0.77 0.04
1 10.02 1002 1.446 -13.810 2.969 -8.057 1.953 -11.353 -436.066 3545.640 -2995.798 -1.302 4.159 -1.276 -0.04 0.64 -0.76 0.04
1 10.03 1003 1.887 -13.193 3.534 7.477 1.801 -0.458 -361.115 3380.598 -2890.717 -1.721 3.539 -1.855 -0.04 0.64 -0.76 0.04
1 10.04 1004 1.767 -12.407 3.797 14.282 9.338 12.054 -511.017 3425.568 -2995.798 -1.609 2.758 -2.091 -0.04 0.64 -0.77 0.04
1 10.05 1005 1.077 -11.584 3.884 6.348 17.517 27.161 -511.017 3425.568 -2995.798 -0.957 1.937 -2.163 -0.04 0.64 -0.77 0.04
1 10.06 1006 0.460 -11.162 3.946 3.754 18.463 35.858 -376.105 3365.607 -2905.707 -0.393 1.515 -2.221 -0.04 0.64 -0.77 0.04
1 10.07 1007 0.340 -10.621 4.022 14.893 16.541 37.842 -376.105 3365.607 -2905.707 -0.331 0.976 -2.287 -0.04 0.64 -0.77 0.04
1 10.08 1008 0.010 -9.343 3.946 27.496 21.027 39.703 -406.085 3470.539 -2890.717 -0.060 -0.298 -2.183 -0.03 0.64 -0.77 0.04
