COL1	TIME	ACC_X	ACC_Y	ACC_Z	GYR_X	GYR_Y	GYR_Z	MAG_X	MAG_Y	MAG_Z	LACC_X	LACC_Y	LACC_Z	QUAT_X	QUAT_Y	QUAT_Z	QUAT_W
1 0.00 0 0.048 -8.452 4.994 -2.808 0.153 -0.092 -67.606 1903.460 -3979.757 -0.063 0.020 0.000 -0.01 0.5 -0.87 0.01
1 0.01 1 -0.029 -8.615 5.028 -2.533 0.397 -0.916 -37.625 1783.388 -4054.858 0.014 0.182 -0.036 -0.01 0.5 -0.87 0.01
1 0.02 2 0.077 -8.528 5.033 -3.113 -0.244 -0.793 -37.625 1783.388 -4054.858 -0.089 0.094 -0.043 -0.01 0.5 -0.87 0.01
1 0.03 3 -0.005 -8.624 5.033 -2.441 -0.183 -0.397 -82.596 1798.378 -3889.816 -0.004 0.187 -0.048 -0.01 0.5 -0.87 0.01
1 0.04 4 -0.072 -8.639 4.918 -2.686 0.427 -0.549 -82.596 1798.378 -3889.816 0.064 0.199 0.064 -0.01 0.5 -0.87 0.01
1 0.05 5 -0.043 -8.663 4.860 -2.228 -0.305 -0.427 -67.606 1753.408 -4159.790 0.036 0.222 0.119 -0.01 0.5 -0.87 0.01
1 0.06 6 -0.010 -8.634 4.999 -2.258 -0.153 -0.305 -112.727 1783.388 -4084.839 0.003 0.192 -0.022 -0.01 0.5 -0.87 0.01
1 0.07 7 -0.062 -8.567 4.913 -2.167 -0.427 0.946 -67.606 1828.359 -3934.787 0.056 0.124 0.063 -0.01 0.5 -0.87 0.01
1 0.08 8 -0.062 -8.476 4.975 -2.838 -0.671 0.885 -52.616 1723.427 -4039.868 0.056 0.033 0.000 -0.01 0.5 -0.87 0.01
1 0.09 9 -0.029 -8.557 4.971 -3.357 -1.129 1.160 -52.616 1723.427 -4039.868 0.022 0.113 0.003 -0.01 0.5 -0.87 0.01
1 0.10 10 -0.139 -8.605 4.971 -2.777 -1.190 0.732 -67.606 1828.359 -3979.757 0.132 0.159 0.000 -0.01 0.5 -0.87 0.01
1 0.11 11 -0.115 -8.447 5.066 -2.869 -1.709 1.434 -67.606 1828.359 -3979.757 0.106 -0.001 -0.100 -0.01 0.5 -0.87 0.01
1 0.12 12 -0.096 -8.399 5.004 -2.960 -1.984 1.465 22.186 1798.378 -3919.796 0.086 -0.051 -0.040 -0.01 0.5 -0.87 0.01
1 0.13 13 -0.072 -8.466 4.851 -3.845 -2.289 1.923 -112.727 1828.359 -4054.858 0.061 0.015 0.111 -0.01 0.5 -0.87 0.01
1 0.14 14 -0.148 -8.586 5.023 -4.181 -2.502 1.953 -52.616 1768.398 -4174.780 0.137 0.132 -0.066 -0.01 0.5 -0.87 0.01
1 0.15 15 -0.139 -8.576 4.971 -4.486 -3.296 2.472 -37.625 1828.359 -3934.787 0.127 0.120 -0.017 -0.01 0.5 -0.87 0.01
1 0.16 16 -0.168 -8.562 5.042 -4.120 -2.716 1.801 -37.625 1828.359 -3934.787 0.154 0.103 -0.093 -0.01 0.5 -0.87 0.01
1 0.17 17 -0.125 -8.552 4.899 -3.998 -3.937 2.441 -127.717 1843.499 -3994.748 0.111 0.091 0.046 -0.01 0.5 -0.87 0.01
1 0.18 18 0.057 -8.663 4.971 -3.876 -3.632 2.869 -127.717 1843.499 -3994.748 -0.072 0.197 -0.033 -0.01 0.5 -0.87 0.01
1 0.19 19 0.034 -8.615 5.018 -4.303 -2.991 2.930 -37.625 1858.489 -3904.806 -0.049 0.147 -0.085 -0.01 0.5 -0.87 0.01
1 0.20 20 -0.005 -8.557 4.961 -4.272 -3.052 2.563 -82.596 1843.499 -3919.796 -0.011 0.087 -0.031 -0.01 0.5 -0.87 0.01
1 0.21 21 0.215 -8.414 4.951 -4.456 -2.991 2.533 -82.596 1843.499 -3919.796 -0.232 -0.059 -0.026 -0.01 0.5 -0.87 0.02
1 0.22 22 0.048 -8.576 4.927 -4.608 -2.808 2.502 -157.697 1843.499 -4069.849 -0.064 0.102 -0.006 -0.01 0.5 -0.87 0.02
1 0.23 23 -0.019 -8.509 4.851 -4.639 -2.899 2.045 -157.697 1843.499 -4069.849 0.003 0.032 0.065 -0.01 0.5 -0.87 0.02
1 0.24 24 0.053 -8.706 5.004 -5.035 -3.113 2.045 37.176 1828.359 -3934.787 -0.069 0.225 -0.093 -0.01 0.5 -0.87 0.02
1 0.25 25 0.096 -8.572 5.033 -4.761 -2.930 1.343 37.176 1828.359 -3934.787 -0.110 0.085 -0.132 -0.01 0.5 -0.87 0.02
1 0.26 26 -0.043 -8.667 5.023 -5.554 -2.747 1.343 -142.707 1903.460 -3979.757 0.031 0.178 -0.127 -0.01 0.5 -0.87 0.02
1 0.27 27 -0.105 -8.643 4.942 -5.310 -2.686 1.007 -22.635 1723.427 -4174.780 0.094 0.151 -0.052 -0.01 0.5 -0.87 0.02
1 0.28 28 -0.139 -8.648 4.942 -4.791 -2.594 0.671 -22.635 1723.427 -4174.780 0.129 0.152 -0.057 -0.01 0.5 -0.87 0.02
1 0.29 29 -0.057 -8.720 4.951 -4.425 -2.350 0.885 -37.625 1783.388 -3979.757 0.049 0.221 -0.072 -0.01 0.5 -0.87 0.02
1 0.30 30 -0.153 -8.648 4.918 -4.303 -2.625 0.427 -69.405 1981.859 -4080.342 0.146 0.147 -0.042 -0.01 0.5 -0.87 0.02
1 0.31 31 -0.005 -8.557 5.009 -4.700 -2.472 1.099 -84.395 1921.898 -3960.270 -0.002 0.054 -0.137 -0.01 0.5 -0.87 0.02
1 0.32 32 -0.081 -8.701 4.927 -5.157 -2.716 0.977 -84.395 1921.898 -3960.270 0.075 0.193 -0.064 -0.01 0.5 -0.86 0.02
1 0.33 33 0.038 -8.720 4.971 -4.211 -2.899 0.580 -114.375 1831.957 -4050.211 -0.044 0.209 -0.112 -0.01 0.5 -0.86 0.02
1 0.34 34 -0.010 -8.619 4.966 -3.540 -2.289 1.495 -69.405 1666.914 -3930.290 0.005 0.106 -0.112 -0.01 0.5 -0.86 0.02
1 0.35 35 -0.096 -8.538 4.889 -3.815 -1.556 2.197 -69.405 1666.914 -3930.290 0.091 0.023 -0.038 -0.01 0.5 -0.86 0.02
1 0.36 36 -0.010 -8.557 4.942 -4.639 -1.465 1.862 5.396 1786.836 -4005.241 0.004 0.040 -0.094 -0.01 0.5 -0.86 0.02
1 0.37 37 0.010 -8.447 5.076 -5.463 -1.160 2.350 5.396 1786.836 -4005.241 -0.015 -0.072 -0.232 -0.01 0.5 -0.86 0.02
1 0.38 38 -0.038 -8.524 4.904 -6.012 -0.641 1.801 20.387 1726.875 -4035.221 0.032 0.002 -0.064 -0.01 0.5 -0.86 0.02
1 0.39 39 -0.129 -8.677 4.865 -6.378 -0.641 1.495 20.387 1726.875 -4035.221 0.121 0.152 -0.031 -0.01 0.5 -0.86 0.02
1 0.40 40 -0.105 -8.988 4.904 -4.730 -0.793 1.160 -114.375 1906.908 -4050.211 0.094 0.457 -0.081 -0.01 0.5 -0.86 0.02
1 0.41 41 -0.168 -9.079 4.875 -3.693 -0.763 1.160 -39.424 1936.888 -4005.241 0.155 0.545 -0.057 -0.01 0.5 -0.86 0.02
1 0.42 42 -0.077 -9.026 4.832 -2.411 -0.244 2.136 -39.424 1936.888 -4005.241 0.062 0.490 -0.019 -0.01 0.5 -0.86 0.02
1 0.43 43 -0.182 -9.026 4.851 0.397 -0.641 2.655 -39.424 1936.888 -3975.260 0.165 0.488 -0.041 -0.01 0.5 -0.86 0.02
1 0.44 44 -0.053 -8.754 4.717 1.068 -1.221 3.296 -69.405 1861.937 -4050.211 0.032 0.216 0.094 -0.01 0.5 -0.86 0.02
1 0.45 45 -0.129 -8.691 4.722 0.488 -1.404 2.991 -204.467 1921.898 -3960.270 0.106 0.154 0.091 -0.01 0.5 -0.86 0.02
1 0.46 46 0.038 -8.878 4.707 0.549 -1.923 2.716 -204.467 1921.898 -3960.270 -0.065 0.342 0.106 -0.01 0.5 -0.86 0.02
1 0.47 47 0.024 -8.634 4.808 0.854 -1.251 3.082 -84.395 2041.820 -4065.202 -0.055 0.098 0.008 -0.01 0.5 -0.86 0.02
1 0.48 48 -0.067 -8.600 4.789 0.702 -1.129 3.235 -69.405 1906.908 -4080.342 0.033 0.066 0.029 -0.01 0.5 -0.86 0.02
1 0.49 49 -0.086 -8.691 4.860 0.519 -0.427 3.082 -69.405 1906.908 -4080.342 0.049 0.158 -0.041 -0.01 0.5 -0.86 0.02
1 0.50 50 0.005 -8.648 4.760 0.580 -0.854 2.533 5.396 2056.960 -3900.309 -0.045 0.116 0.061 -0.01 0.5 -0.86 0.02
1 0.51 51 0.019 -8.581 4.736 1.007 -1.007 2.319 -114.375 1936.888 -3975.260 -0.061 0.050 0.086 -0.01 0.5 -0.86 0.02
1 0.52 52 -0.077 -8.548 4.793 1.129 -0.916 2.197 -129.366 1876.927 -3960.270 0.033 0.017 0.031 -0.01 0.5 -0.86 0.02
1 0.53 53 -0.048 -8.619 4.793 1.251 -0.916 1.770 -129.366 1876.927 -3960.270 0.003 0.090 0.033 -0.01 0.5 -0.86 0.02
1 0.54 54 -0.144 -8.533 4.856 1.007 -1.068 1.862 -39.424 1981.859 -4005.241 0.097 0.006 -0.027 -0.01 0.5 -0.86 0.02
1 0.55 55 0.134 -8.552 4.827 0.732 -0.305 2.350 -114.375 1831.957 -3930.290 -0.183 0.027 0.006 -0.01 0.5 -0.86 0.02
1 0.56 56 0.010 -8.773 4.918 0.732 -0.458 2.045 -114.375 1831.957 -3930.290 -0.060 0.249 -0.083 -0.01 0.5 -0.86 0.02
1 0.57 57 0.077 -8.528 4.899 0.824 0.153 2.563 50.367 1876.927 -3960.270 -0.129 0.006 -0.061 -0.01 0.5 -0.86 0.02
1 0.58 58 -0.129 -8.581 4.961 0.366 0.092 2.045 -129.366 1771.846 -4035.221 0.075 0.060 -0.121 -0.01 0.5 -0.86 0.02
1 0.59 59 0.010 -8.500 4.894 0.336 -0.122 1.770 -129.366 1876.927 -4035.221 -0.066 -0.020 -0.052 -0.01 0.5 -0.86 0.02
1 0.60 60 -0.072 -8.648 4.846 -0.977 -0.153 1.648 -129.366 1876.927 -4035.221 0.012 0.129 -0.002 -0.01 0.5 -0.86 0.02
1 0.61 61 0.000 -8.672 4.803 -0.214 -0.519 1.526 -129.366 1921.898 -3960.270 -0.061 0.153 0.041 -0.01 0.5 -0.86 0.02
1 0.62 62 -0.034 -8.739 4.913 0.183 0.122 1.709 -39.424 1861.937 -3975.260 -0.027 0.220 -0.070 -0.01 0.5 -0.86 0.02
1 0.63 63 -0.062 -8.734 4.894 -0.427 -0.244 1.007 -39.424 1861.937 -3975.260 0.002 0.216 -0.050 -0.01 0.5 -0.86 0.02
1 0.64 64 -0.177 -8.672 4.918 0.031 0.122 1.160 -39.424 1861.937 -3930.290 0.117 0.154 -0.073 -0.01 0.5 -0.86 0.02
1 0.65 65 0.101 -8.715 4.827 0.183 0.824 1.099 -234.447 1996.849 -3990.250 -0.162 0.197 0.019 -0.01 0.5 -0.86 0.02
1 0.66 66 0.048 -8.758 4.822 1.038 1.099 0.397 5.396 1936.888 -3900.309 -0.110 0.241 0.025 -0.01 0.5 -0.86 0.02
1 0.67 67 -0.057 -8.739 4.774 1.221 0.671 1.007 5.396 1936.888 -3900.309 -0.005 0.223 0.074 -0.01 0.5 -0.86 0.02
1 0.68 68 -0.024 -8.686 4.793 1.587 1.160 0.549 -54.415 1876.927 -3990.250 -0.040 0.171 0.057 -0.01 0.5 -0.86 0.02
1 0.69 69 -0.048 -8.648 4.832 1.221 1.343 0.793 -24.434 1876.927 -3990.250 -0.018 0.136 0.024 -0.01 0.5 -0.86 0.02
1 0.70 70 -0.144 -8.509 4.846 1.404 1.678 0.610 -24.434 1876.927 -3990.250 0.076 -0.001 0.013 -0.01 0.5 -0.86 0.02
1 0.71 71 -0.010 -8.586 4.865 1.495 1.587 0.793 -129.366 1921.898 -3960.270 -0.060 0.077 -0.003 -0.01 0.5 -0.86 0.02
1 0.72 72 -0.115 -8.610 4.765 0.885 0.885 0.427 -54.415 1846.947 -3960.270 0.045 0.103 0.100 -0.01 0.5 -0.86 0.02
1 0.73 73 -0.115 -8.576 4.932 0.824 0.854 0.519 20.387 1966.869 -3915.299 0.045 0.070 -0.066 -0.01 0.5 -0.86 0.02
1 0.74 74 -0.153 -8.667 4.880 0.977 0.397 0.305 20.387 1966.869 -3915.299 0.082 0.163 -0.010 -0.01 0.5 -0.86 0.02
1 0.75 75 -0.120 -8.610 4.942 1.099 0.488 0.214 -54.415 1876.927 -3960.270 0.049 0.107 -0.070 -0.01 0.5 -0.87 0.02
1 0.76 76 -0.072 -8.749 4.884 2.136 0.092 0.305 -24.434 1771.846 -4095.332 0.001 0.249 -0.007 -0.01 0.5 -0.87 0.02
1 0.77 77 -0.168 -8.792 4.932 2.563 0.000 -0.305 -24.434 1771.846 -4095.332 0.097 0.294 -0.051 -0.01 0.5 -0.87 0.02
1 0.78 78 -0.144 -8.615 5.071 3.082 -0.427 -0.763 50.367 1921.898 -3990.250 0.073 0.120 -0.185 -0.01 0.5 -0.87 0.02
1 0.79 79 -0.067 -8.706 4.913 3.510 -0.916 -0.732 -69.405 1906.908 -4050.211 -0.002 0.214 -0.021 -0.01 0.5 -0.87 0.02
1 0.80 80 -0.081 -8.653 4.899 2.258 -1.404 -0.153 -24.434 1921.898 -3885.319 0.013 0.164 -0.002 -0.01 0.5 -0.87 0.02
1 0.81 81 0.024 -8.615 4.875 2.991 -1.465 1.099 -24.434 1921.898 -3885.319 -0.091 0.129 0.027 -0.01 0.5 -0.87 0.02
1 0.82 82 0.019 -8.653 4.827 3.693 -0.946 0.641 35.377 1786.836 -4050.211 -0.086 0.170 0.079 -0.01 0.5 -0.87 0.02
1 0.83 83 -0.057 -8.624 4.913 4.120 -0.946 0.641 -84.395 1801.826 -4095.332 -0.008 0.144 -0.001 -0 0.5 -0.87 0.02
1 0.84 84 -0.177 -8.552 4.923 2.319 -0.885 0.275 -84.395 1801.826 -4095.332 0.113 0.079 0.001 -0.01 0.5 -0.87 0.02
1 0.85 85 -0.014 -8.476 4.832 2.960 -1.343 0.641 -24.434 1801.826 -3960.270 -0.049 0.005 0.097 -0.01 0.5 -0.87 0.02
1 0.86 86 -0.024 -8.672 4.942 3.357 -1.404 0.458 -144.356 1786.836 -4005.241 -0.038 0.205 -0.008 -0.01 0.5 -0.87 0.02
1 0.87 87 -0.115 -8.629 4.813 2.350 -1.495 0.366 -144.356 1786.836 -4005.241 0.054 0.164 0.126 -0.01 0.5 -0.87 0.02
1 0.88 88 -0.072 -8.490 4.980 2.014 -1.831 0.000 -189.477 1786.836 -4050.211 0.012 0.028 -0.038 -0.01 0.5 -0.87 0.02
1 0.89 89 -0.038 -8.562 4.841 1.648 -1.587 0.153 50.367 1846.947 -4035.221 -0.020 0.102 0.105 -0.01 0.5 -0.87 0.02
1 0.90 90 -0.057 -8.495 5.047 1.923 -1.892 0.244 -69.405 1756.855 -4080.342 0.001 0.037 -0.097 -0.01 0.5 -0.87 0.02
1 0.91 91 0.110 -8.466 4.956 1.312 -1.221 0.305 -69.405 1756.855 -4080.342 -0.164 0.012 -0.000 -0.01 0.5 -0.87 0.02
1 0.92 92 0.005 -8.437 4.875 0.885 -1.190 0.427 -39.424 1861.937 -4005.241 -0.057 -0.015 0.084 -0.01 0.5 -0.87 0.02
1 0.93 93 -0.010 -8.490 4.975 0.702 -1.251 0.031 -159.346 1846.947 -4065.202 -0.040 0.039 -0.015 -0.01 0.5 -0.87 0.02
1 0.94 94 0.005 -8.452 4.899 0.305 -0.885 0.671 -159.346 1846.947 -4065.202 -0.053 0.001 0.064 -0.01 0.5 -0.87 0.02
1 0.95 95 -0.005 -8.576 4.870 -0.427 -1.129 0.519 -39.424 1786.836 -4185.273 -0.043 0.126 0.093 -0.01 0.5 -0.87 0.02
1 0.96 96 0.053 -8.466 4.841 0.275 -1.038 0.580 -39.424 1786.836 -4050.211 -0.101 0.016 0.122 -0.01 0.5 -0.87 0.02
1 0.97 97 0.043 -8.576 5.004 0.305 -1.312 0.336 -84.395 1921.898 -3990.250 -0.090 0.126 -0.041 -0.01 0.5 -0.87 0.02
1 0.98 98 -0.062 -8.548 4.971 -0.183 -1.495 0.946 -84.395 1921.898 -3990.250 0.016 0.097 -0.008 -0.01 0.5 -0.87 0.02
1 0.99 99 0.005 -8.533 5.004 -0.519 -1.312 0.244 -129.366 1801.826 -4065.202 -0.051 0.082 -0.042 -0.01 0.5 -0.87 0.02
1 1.00 100 -0.034 -8.686 5.018 -0.854 -1.343 0.214 -84.395 1846.947 -3915.299 -0.012 0.236 -0.056 -0.01 0.5 -0.87 0.02
1 1.01 101 -0.211 -8.682 4.927 -0.427 -1.556 0.275 -84.395 1846.947 -3915.299 0.165 0.231 0.034 -0.01 0.5 -0.87 0.02
1 1.02 102 -0.038 -8.720 4.942 0.732 -1.495 0.458 80.498 1831.957 -4080.342 -0.008 0.268 0.019 -0.01 0.5 -0.87 0.02
1 1.03 103 -0.077 -8.816 4.956 0.275 -1.312 1.038 -69.405 1906.908 -3975.260 0.031 0.365 0.006 -0.01 0.5 -0.87 0.01
1 1.04 104 -0.091 -8.706 4.817 0.854 -1.617 0.824 -84.395 1726.875 -4035.221 0.045 0.255 0.146 -0.01 0.5 -0.87 0.01
1 1.05 105 -0.139 -8.792 4.784 1.678 -1.465 0.854 -84.395 1726.875 -4035.221 0.093 0.342 0.180 -0.01 0.5 -0.87 0.02
1 1.06 106 -0.077 -8.754 4.870 2.594 -1.190 1.434 -54.415 1996.849 -3960.270 0.031 0.307 0.098 -0.01 0.5 -0.87 0.02
1 1.07 107 -0.129 -8.624 4.966 2.533 -1.312 1.099 20.387 1846.947 -3960.270 0.083 0.179 0.006 -0.01 0.5 -0.87 0.02
1 1.08 108 -0.024 -8.437 4.947 2.075 -1.617 2.045 20.387 1846.947 -3960.270 -0.023 -0.006 0.029 -0.01 0.5 -0.87 0.02
1 1.09 109 -0.096 -8.519 5.009 2.075 -1.740 1.282 -144.356 1831.957 -4050.211 0.049 0.078 -0.029 -0.01 0.5 -0.87 0.02
1 1.10 110 0.081 -8.471 5.004 2.899 -1.740 0.580 -24.434 1696.895 -3990.250 -0.128 0.033 -0.020 -0.01 0.5 -0.87 0.02
1 1.11 111 -0.005 -8.370 5.109 2.838 -1.404 1.129 -129.366 1771.846 -4095.332 -0.041 -0.065 -0.121 -0.01 0.5 -0.87 0.02
1 1.12 112 -0.010 -8.476 5.105 1.617 -0.885 0.031 -129.366 1771.846 -4095.332 -0.036 0.044 -0.111 -0.01 0.5 -0.87 0.02
1 1.13 113 0.038 -8.418 5.148 0.885 -0.488 0.671 -189.477 1711.885 -4080.342 -0.082 -0.009 -0.145 -0.01 0.49 -0.87 0.02
1 1.14 114 0.034 -8.394 5.133 0.519 -0.427 0.519 -129.366 1846.947 -4065.202 -0.077 -0.031 -0.127 -0.01 0.49 -0.87 0.02
1 1.15 115 0.014 -8.409 5.143 0.702 -0.214 0.702 -129.366 1846.947 -4065.202 -0.057 -0.015 -0.134 -0.01 0.49 -0.87 0.02
1 1.16 116 0.043 -8.524 5.138 0.916 -0.092 1.068 -84.395 1696.895 -3990.250 -0.085 0.102 -0.126 -0.01 0.49 -0.87 0.02
1 1.17 117 0.005 -8.505 5.143 0.732 0.427 0.122 -69.405 1756.855 -4050.211 -0.047 0.085 -0.128 -0.01 0.49 -0.87 0.02
1 1.18 118 0.010 -8.538 5.186 1.678 0.977 0.031 -114.375 1786.836 -4005.241 -0.051 0.120 -0.168 -0.01 0.49 -0.87 0.02
1 1.19 119 -0.081 -8.648 5.153 1.495 0.763 0.092 -114.375 1786.836 -4005.241 0.040 0.233 -0.131 -0.01 0.49 -0.87 0.02
1 1.20 120 0.048 -8.634 5.109 2.411 1.556 -0.610 -114.375 1756.855 -4080.342 -0.088 0.222 -0.081 -0.01 0.49 -0.87 0.02
1 1.21 121 -0.034 -8.629 5.124 2.289 1.007 -0.641 -84.395 1726.875 -3960.270 -0.006 0.220 -0.091 -0.01 0.49 -0.87 0.01
1 1.22 122 -0.115 -8.615 5.148 2.258 1.770 -0.519 -84.395 1726.875 -3960.270 0.075 0.208 -0.111 -0.01 0.49 -0.87 0.01
1 1.23 123 -0.034 -8.648 5.071 2.136 1.434 -0.366 -84.395 1801.826 -3960.270 -0.006 0.244 -0.030 -0.01 0.49 -0.87 0.01
1 1.24 124 -0.134 -8.701 5.038 3.265 1.923 -0.702 -54.415 1801.826 -4095.332 0.094 0.299 0.007 -0.01 0.49 -0.87 0.01
1 1.25 125 -0.014 -8.691 4.951 3.357 1.312 -1.038 -54.415 1801.826 -3990.250 -0.026 0.292 0.098 -0.01 0.49 -0.87 0.01
1 1.26 126 -0.148 -8.686 4.971 3.510 1.251 -0.671 -54.415 1801.826 -3990.250 0.108 0.290 0.084 -0.01 0.49 -0.87 0.01
1 1.27 127 -0.024 -8.485 5.090 3.845 1.709 -0.549 -129.366 1696.895 -4095.332 -0.016 0.092 -0.032 -0.01 0.49 -0.87 0.01
1 1.28 128 0.062 -8.595 5.200 3.357 1.221 -0.977 -39.424 1861.937 -4125.312 -0.103 0.209 -0.131 -0.01 0.49 -0.87 0.01
1 1.29 129 -0.005 -8.332 5.153 3.540 2.228 -0.397 -39.424 1861.937 -4125.312 -0.035 -0.051 -0.078 -0.01 0.49 -0.87 0.01
1 1.30 130 -0.053 -8.404 5.186 3.265 2.228 0.122 -69.405 1936.888 -4155.293 0.012 0.024 -0.105 -0 0.49 -0.87 0.01
1 1.31 131 -0.125 -8.457 5.143 1.587 1.465 -0.488 -39.424 1756.855 -4125.312 0.083 0.080 -0.057 -0 0.49 -0.87 0.01
1 1.32 132 -0.057 -8.394 5.052 1.404 1.709 -0.153 -24.434 1696.895 -4035.221 0.015 0.020 0.038 -0 0.49 -0.87 0.01
1 1.33 133 -0.110 -8.390 5.148 0.946 1.343 -0.366 -24.434 1696.895 -4035.221 0.067 0.017 -0.054 -0 0.49 -0.87 0.01
1 1.34 134 -0.168 -8.303 5.133 0.580 0.793 -0.031 -129.366 1651.924 -4035.221 0.124 -0.067 -0.037 -0 0.49 -0.87 0.01
1 1.35 135 -0.057 -8.337 5.210 -0.275 0.732 -0.153 -54.415 1696.895 -4065.202 0.013 -0.031 -0.110 -0 0.49 -0.87 0.01
1 1.36 136 -0.077 -8.375 5.263 -0.671 0.977 0.092 -54.415 1696.895 -4065.202 0.033 0.008 -0.161 -0 0.49 -0.87 0.01
1 1.37 137 -0.077 -8.418 5.114 -0.885 0.366 0.122 -39.424 1666.914 -4155.293 0.032 0.052 -0.011 -0 0.49 -0.87 0.01
1 1.38 138 -0.024 -8.418 5.124 -1.190 0.397 0.183 -39.424 1666.914 -4155.293 -0.020 0.052 -0.020 -0 0.49 -0.87 0.01
1 1.39 139 -0.077 -8.409 5.133 -1.831 -0.488 0.549 95.488 1696.895 -3960.270 0.032 0.043 -0.030 -0 0.49 -0.87 0.01
1 1.40 140 -0.067 -8.562 5.267 -1.007 -0.427 0.183 95.488 1696.895 -3960.270 0.022 0.196 -0.164 -0 0.49 -0.87 0.01
1 1.41 141 -0.144 -8.490 5.234 -1.678 -0.275 0.549 -69.405 1906.908 -4080.342 0.099 0.124 -0.131 -0 0.49 -0.87 0.01
1 1.42 142 -0.010 -8.552 5.239 -1.251 -0.977 0.885 35.377 1711.885 -4050.211 -0.036 0.186 -0.135 -0 0.49 -0.87 0.01
1 1.43 143 -0.129 -8.557 5.172 -0.122 -1.282 0.885 35.377 1711.885 -4050.211 0.084 0.191 -0.068 -0 0.49 -0.87 0.01
1 1.44 144 -0.067 -8.543 5.196 -0.580 -1.190 0.916 20.387 1696.895 -4065.202 0.021 0.176 -0.093 -0 0.49 -0.87 0.01
1 1.45 145 -0.053 -8.495 5.109 -0.610 -1.770 1.404 20.387 1696.895 -4065.202 0.007 0.129 -0.006 -0 0.49 -0.87 0.01
1 1.46 146 0.096 -8.581 5.114 -0.916 -2.197 1.892 50.367 1696.895 -4140.303 -0.142 0.215 -0.011 -0 0.49 -0.87 0.01
1 1.47 147 0.029 -8.495 5.109 -1.068 -1.984 1.282 4.947 1562.732 -4124.263 -0.075 0.128 -0.007 -0 0.49 -0.87 0.01
1 1.48 148 0.120 -8.466 5.186 -0.977 -1.617 1.221 -159.796 1877.827 -4139.253 -0.165 0.099 -0.084 -0 0.49 -0.87 0.01
1 1.49 149 -0.048 -8.461 5.162 -1.129 -1.556 1.160 -39.874 1667.813 -4124.263 0.003 0.094 -0.060 -0 0.49 -0.87 0.01
1 1.50 150 0.029 -8.533 5.133 -1.312 -1.434 1.068 -39.874 1667.813 -4124.263 -0.072 0.166 -0.031 -0 0.49 -0.87 0.01
1 1.51 151 -0.057 -8.495 5.215 -1.343 -1.709 1.251 19.937 1622.843 -3989.351 0.015 0.128 -0.113 -0 0.49 -0.87 0.01
1 1.52 152 -0.072 -8.433 5.229 -0.885 -2.045 1.099 19.937 1622.843 -3989.351 0.030 0.066 -0.127 -0 0.49 -0.87 0.01
1 1.53 153 -0.158 -8.447 5.143 -0.824 -1.862 1.434 -69.854 1787.735 -3974.361 0.116 0.080 -0.041 -0 0.49 -0.87 0.01
1 1.54 154 -0.110 -8.423 5.224 -1.129 -1.892 1.587 -69.854 1787.735 -3974.361 0.067 0.056 -0.122 -0 0.49 -0.87 0.01
1 1.55 155 -0.029 -8.476 5.258 -0.854 -2.289 1.434 34.927 1862.836 -3974.361 -0.015 0.109 -0.156 -0 0.49 -0.87 0.01
1 1.56 156 -0.038 -8.457 5.220 -0.610 -2.136 2.106 4.947 1757.755 -4124.263 -0.006 0.090 -0.117 -0 0.49 -0.87 0.01
1 1.57 157 -0.077 -8.538 5.378 -0.793 -2.716 3.204 4.947 1757.755 -4124.263 0.031 0.173 -0.272 -0 0.49 -0.87 0.01
1 1.58 158 -0.067 -8.461 5.263 -0.580 -3.296 3.021 -129.815 1802.726 -3959.221 0.020 0.097 -0.156 -0 0.49 -0.87 0.01
1 1.59 159 0.125 -8.409 5.358 0.244 -2.716 2.655 -129.815 1802.726 -3959.221 -0.173 0.045 -0.250 -0 0.49 -0.87 0.01
1 1.60 160 0.072 -8.524 5.220 0.214 -2.716 2.838 80.048 1832.706 -4049.312 -0.121 0.162 -0.109 -0 0.49 -0.87 0.01
1 1.61 161 0.086 -8.394 5.181 0.458 -2.411 2.380 80.048 1832.706 -4049.312 -0.136 0.034 -0.068 -0 0.49 -0.87 0.01
1 1.62 162 0.129 -8.600 5.243 0.885 -2.106 2.136 -69.854 1667.813 -3974.361 -0.179 0.241 -0.128 -0 0.49 -0.87 0.01
1 1.63 163 0.019 -8.619 5.258 1.648 -1.251 2.228 -69.854 1757.755 -4004.341 -0.069 0.262 -0.140 -0 0.49 -0.87 0.01
1 1.64 164 0.120 -8.514 5.119 1.923 -0.671 1.251 -69.854 1757.755 -4004.341 -0.170 0.161 0.005 -0 0.49 -0.87 0.01
1 1.65 165 -0.014 -8.495 5.138 2.289 -1.190 1.678 -84.845 1847.846 -3989.351 -0.036 0.143 -0.011 -0 0.49 -0.87 0.01
1 1.66 166 -0.086 -8.543 5.176 1.740 -1.129 1.129 -84.845 1847.846 -3989.351 0.036 0.194 -0.045 -0 0.49 -0.87 0.01
1 1.67 167 0.019 -8.610 5.119 1.404 -1.678 0.244 -129.815 1727.774 -4064.302 -0.069 0.263 0.015 -0 0.49 -0.87 0.01
1 1.68 168 0.062 -8.720 5.071 3.784 -2.380 0.244 -69.854 1787.735 -4079.292 -0.110 0.374 0.066 -0 0.49 -0.87 0.01
1 1.69 169 0.096 -8.696 5.315 4.974 -2.167 0.183 -69.854 1787.735 -4124.263 -0.141 0.353 -0.174 -0 0.49 -0.87 0.01
1 1.70 170 0.019 -8.801 5.162 6.378 -2.441 -0.549 -54.864 1697.794 -4139.253 -0.062 0.462 -0.015 -0 0.49 -0.87 0.01
1 1.71 171 0.043 -8.878 5.100 7.690 -1.831 -0.519 -54.864 1697.794 -4139.253 -0.082 0.544 0.056 -0 0.49 -0.87 0.01
1 1.72 172 0.024 -9.022 5.062 11.383 -2.808 -1.068 -159.796 1772.745 -4169.234 -0.056 0.700 0.114 -0.01 0.49 -0.87 0.01
1 1.73 173 -0.019 -9.050 5.095 14.252 -4.425 -1.038 -159.796 1772.745 -4169.234 -0.008 0.737 0.094 -0.01 0.48 -0.87 0.01
1 1.74 174 0.014 -9.357 5.176 16.937 -5.676 -1.984 19.937 1697.794 -3959.221 -0.035 1.055 0.030 -0.01 0.48 -0.87 0.01
1 1.75 175 -0.038 -9.386 5.306 21.576 -5.035 -2.502 -54.864 1772.745 -4139.253 0.025 1.096 -0.078 -0.01 0.48 -0.88 0.01
1 1.76 176 0.029 -8.931 5.488 27.557 -5.432 -2.045 -54.864 1652.823 -4169.234 -0.034 0.659 -0.233 -0.01 0.48 -0.88 0.01
1 1.77 177 0.206 -8.442 5.421 27.252 -4.242 -0.824 -39.874 1592.712 -4229.345 -0.203 0.191 -0.134 -0.01 0.48 -0.88 0.01
1 1.78 178 0.101 -8.208 5.421 23.712 -3.174 -0.092 -39.874 1592.712 -4229.345 -0.092 -0.021 -0.099 -0.01 0.48 -0.88 0.01
1 1.79 179 0.172 -8.160 5.258 21.301 -2.777 -0.458 -69.854 1592.712 -4124.263 -0.155 -0.028 0.127 -0.01 0.47 -0.88 0.01
1 1.80 180 0.220 -8.021 5.296 20.874 -2.899 0.641 -69.854 1592.712 -4124.263 -0.199 -0.149 0.115 -0.01 0.47 -0.88 0.01
1 1.81 181 0.345 -7.906 5.205 18.860 -1.709 0.000 -129.815 1652.823 -3989.351 -0.319 -0.247 0.233 -0.01 0.47 -0.88 0.01
1 1.82 182 0.431 -7.719 5.263 16.724 -2.136 1.221 19.937 1697.794 -4214.354 -0.401 -0.418 0.199 -0.01 0.47 -0.88 0.01
1 1.83 183 0.350 -7.130 5.287 11.597 -4.211 3.265 -114.825 1637.833 -4184.224 -0.317 -0.993 0.196 -0.01 0.47 -0.88 0.01
1 1.84 184 0.163 -7.092 5.411 6.714 -3.632 4.395 -129.815 1502.771 -3989.351 -0.127 -1.019 0.089 -0.01 0.47 -0.88 0.01
1 1.85 185 0.378 -7.164 5.416 1.617 -3.021 4.944 -129.815 1502.771 -3989.351 -0.343 -0.938 0.098 -0.01 0.47 -0.88 0.01
1 1.86 186 0.259 -7.623 5.583 -3.021 -1.770 5.707 -54.864 1577.722 -4139.253 -0.226 -0.471 -0.060 -0.01 0.47 -0.88 0.01
1 1.87 187 0.239 -7.719 5.708 -2.838 0.610 4.425 -54.864 1577.722 -4139.253 -0.211 -0.376 -0.185 -0.01 0.47 -0.88 0.01
1 1.88 188 0.393 -7.825 5.746 -3.204 2.594 4.059 -234.897 1622.843 -4169.234 -0.369 -0.271 -0.223 -0.01 0.47 -0.88 0.01
1 1.89 189 0.292 -7.757 5.780 -3.937 3.052 3.387 -84.845 1502.771 -4139.253 -0.273 -0.338 -0.258 -0.01 0.47 -0.88 0.01
1 1.90 190 0.244 -7.911 5.789 -6.195 3.052 2.930 19.937 1577.722 -4214.354 -0.229 -0.186 -0.269 -0.01 0.47 -0.88 0.01
1 1.91 191 0.374 -8.169 5.871 -7.446 3.998 1.465 -69.854 1487.781 -4259.325 -0.362 0.069 -0.355 -0.01 0.47 -0.88 0.01
1 1.92 192 0.359 -8.279 5.593 -7.172 6.165 1.190 -69.854 1487.781 -4259.325 -0.350 0.175 -0.084 -0.01 0.47 -0.88 0.01
1 1.93 193 0.441 -8.476 5.349 -6.012 7.477 -0.214 -114.825 1517.761 -4079.292 -0.435 0.366 0.154 -0.01 0.47 -0.88 0.01
1 1.94 194 0.421 -8.663 5.186 -3.113 7.874 -1.068 -114.825 1517.761 -4079.292 -0.420 0.544 0.302 -0.01 0.47 -0.88 0.01
1 1.95 195 0.273 -8.715 5.200 -2.319 7.813 -2.350 -24.884 1352.719 -4169.234 -0.273 0.593 0.282 -0.01 0.47 -0.88 0.01
1 1.96 196 0.259 -8.639 5.306 -1.862 8.301 -3.174 34.927 1562.732 -4229.345 -0.259 0.513 0.172 -0.01 0.47 -0.88 0.01
1 1.97 197 0.196 -8.667 5.210 -1.709 8.423 -3.876 -54.864 1457.800 -4094.283 -0.197 0.539 0.264 -0.01 0.47 -0.88 0.01
1 1.98 198 0.249 -8.672 5.339 -1.038 8.484 -4.242 -39.874 1517.761 -4154.244 -0.249 0.541 0.131 -0 0.47 -0.88 0.01
1 1.99 199 0.110 -8.648 5.215 -1.526 8.545 -5.707 -39.874 1517.761 -4154.244 -0.110 0.515 0.253 -0 0.47 -0.88 0.01
1 2.00 200 0.053 -8.528 5.311 -0.427 8.820 -5.615 4.947 1592.712 -4124.263 -0.050 0.393 0.154 -0 0.47 -0.88 0.01
1 2.01 201 0.038 -8.538 5.334 -0.580 7.904 -5.157 4.947 1592.712 -4124.263 -0.035 0.401 0.127 -0 0.47 -0.88 0.01
1 2.02 202 -0.172 -8.284 5.378 -1.282 7.385 -4.913 49.917 1652.823 -4169.234 0.176 0.146 0.082 -0 0.47 -0.88 0
1 2.03 203 -0.038 -8.409 5.291 -0.610 7.599 -4.608 -114.825 1592.712 -4079.292 0.041 0.270 0.167 -0 0.47 -0.88 0
1 2.04 204 -0.029 -8.509 5.454 -0.122 6.958 -3.296 -39.874 1562.732 -4079.292 0.031 0.369 0.003 -0 0.47 -0.88 0
1 2.05 205 0.077 -8.500 5.354 1.495 6.409 -2.228 -24.884 1727.774 -4169.234 -0.076 0.360 0.104 -0 0.47 -0.88 0
1 2.06 206 -0.182 -8.643 5.358 2.075 6.195 -0.977 -24.884 1727.774 -4169.234 0.180 0.505 0.102 -0 0.47 -0.88 0
1 2.07 207 -0.115 -8.437 5.344 2.228 5.280 -0.610 -54.864 1502.771 -4214.354 0.110 0.301 0.118 -0 0.47 -0.88 0
1 2.08 208 -0.163 -8.452 5.382 2.319 4.089 0.305 -54.864 1502.771 -4214.354 0.149 0.318 0.085 -0 0.47 -0.88 0
1 2.09 209 -0.187 -8.270 5.344 2.045 3.418 1.801 -24.884 1502.771 -4139.253 0.168 0.138 0.126 0 0.47 -0.88 0
1 2.10 210 -0.278 -8.303 5.416 1.617 2.808 1.648 49.917 1502.771 -4094.283 0.253 0.174 0.057 0 0.47 -0.88 0
1 2.11 211 -0.172 -8.174 5.344 1.190 2.411 1.404 49.917 1502.771 -4094.283 0.142 0.046 0.131 0 0.47 -0.88 0
1 2.12 212 -0.129 -8.016 5.411 0.366 0.549 3.235 80.048 1637.833 -4229.345 0.094 -0.110 0.066 0 0.47 -0.88 0
1 2.13 213 -0.134 -7.973 5.416 -1.160 0.366 4.517 80.048 1637.833 -4229.345 0.093 -0.152 0.063 0 0.47 -0.88 0
1 2.14 214 -0.110 -8.002 5.430 -2.686 -0.275 5.188 49.917 1622.843 -4094.283 0.063 -0.123 0.050 0 0.47 -0.88 0
1 2.15 215 -0.139 -7.916 5.311 -3.235 -0.519 4.669 49.917 1622.843 -4094.283 0.086 -0.210 0.168 0 0.47 -0.88 0
1 2.16 216 -0.043 -7.935 5.320 -2.563 0.732 2.716 19.937 1622.843 -4064.302 -0.020 -0.194 0.154 0 0.47 -0.88 0
1 2.17 217 -0.034 -7.901 5.449 -1.282 1.740 2.075 95.038 1502.771 -4139.253 -0.033 -0.228 0.023 0 0.47 -0.88 0
1 2.18 218 -0.029 -7.973 5.636 -0.854 1.862 2.472 95.038 1502.771 -4139.253 -0.042 -0.156 -0.163 0 0.47 -0.88 0
1 2.19 219 -0.062 -8.026 5.655 -2.106 2.075 3.418 110.028 1442.810 -4124.263 -0.013 -0.103 -0.181 0 0.47 -0.88 0
1 2.20 220 0.077 -8.169 5.703 -4.364 3.418 2.686 110.028 1442.810 -4124.263 -0.158 0.041 -0.230 0 0.47 -0.88 0
1 2.21 221 0.120 -8.370 5.622 -4.059 4.150 2.533 19.937 1457.800 -4064.302 -0.206 0.240 -0.152 0 0.47 -0.88 0
1 2.22 222 0.125 -8.375 5.550 -3.174 4.700 2.167 19.937 1457.800 -4064.302 -0.215 0.243 -0.083 0 0.47 -0.88 0
1 2.23 223 0.220 -8.236 5.569 -1.892 5.554 0.427 34.927 1592.712 -4184.224 -0.319 0.101 -0.106 0 0.47 -0.88 0
1 2.24 224 0.196 -8.423 5.612 -1.953 6.134 -1.465 -54.864 1622.843 -4139.253 -0.297 0.287 -0.150 0.01 0.47 -0.88 0
1 2.25 225 0.038 -8.715 5.588 -1.648 5.768 -2.594 -54.864 1622.843 -4139.253 -0.140 0.578 -0.128 0.01 0.47 -0.88 0
1 2.26 226 0.029 -8.797 5.507 0.092 6.012 -2.991 80.048 1637.833 -4049.312 -0.131 0.659 -0.047 0.01 0.47 -0.88 0
1 2.27 227 -0.278 -8.490 5.397 1.892 4.761 -3.357 80.048 1487.781 -4124.263 0.176 0.352 0.063 -0.01 -0.47 0.88 0
1 2.28 228 -0.421 -8.485 5.483 1.282 4.517 -3.571 49.917 1697.794 -4169.234 0.320 0.348 -0.023 -0.01 -0.47 0.88 0
1 2.29 229 -0.498 -8.500 5.469 -0.397 3.632 -3.265 49.917 1697.794 -4169.234 0.396 0.364 -0.006 -0.01 -0.47 0.88 0
1 2.30 230 -0.512 -8.490 5.349 0.702 1.495 -1.953 34.927 1592.712 -4079.292 0.409 0.355 0.114 -0.01 -0.47 0.88 0
1 2.31 231 -0.541 -8.390 5.512 3.204 0.916 -0.732 80.048 1592.712 -4079.292 0.437 0.255 -0.048 -0.01 -0.47 0.88 0
1 2.32 232 -0.474 -8.045 5.440 4.913 -0.183 0.885 80.048 1592.712 -4079.292 0.367 -0.086 0.030 -0.01 -0.47 0.88 0
1 2.33 233 -0.445 -8.131 5.555 3.906 -1.770 2.167 -24.884 1622.843 -4064.302 0.335 0.005 -0.078 -0.01 -0.47 0.88 0
1 2.34 234 -0.335 -8.155 5.545 3.052 -2.106 3.815 110.028 1667.813 -4184.224 0.220 0.033 -0.062 -0.01 -0.47 0.88 0
1 2.35 235 -0.187 -8.117 5.521 3.510 -3.662 4.364 80.048 1517.761 -4124.263 0.068 -0.002 -0.033 -0.01 -0.47 0.88 0
1 2.36 236 -0.062 -7.848 5.507 3.723 -3.723 4.761 80.048 1517.761 -4124.263 -0.060 -0.266 -0.013 -0.01 -0.47 0.88 0
1 2.37 237 -0.005 -7.939 5.555 2.655 -4.242 5.432 80.048 1487.781 -4124.263 -0.121 -0.170 -0.054 -0.01 -0.47 0.88 0
1 2.38 238 -0.024 -7.930 5.651 0.458 -3.296 4.272 34.927 1442.810 -4004.341 -0.105 -0.173 -0.140 -0.01 -0.47 0.88 0
1 2.39 239 -0.048 -8.078 5.651 -0.031 -3.387 3.723 34.927 1442.810 -4004.341 -0.083 -0.023 -0.137 0.01 0.47 -0.88 0
1 2.40 240 -0.010 -8.121 5.588 -0.183 -2.472 2.625 125.019 1547.742 -4244.335 -0.122 0.022 -0.073 0.01 0.47 -0.88 0
1 2.41 241 0.043 -8.011 5.560 -0.458 -2.136 3.113 19.937 1382.699 -4034.322 -0.175 -0.087 -0.043 0.01 0.47 -0.88 0
1 2.42 242 0.072 -7.944 5.627 -1.892 -1.617 1.709 4.947 1592.712 -4124.263 -0.204 -0.153 -0.108 0.01 0.47 -0.88 0
1 2.43 243 -0.005 -7.925 5.713 -3.510 -1.801 1.495 4.947 1592.712 -4124.263 -0.126 -0.172 -0.194 0.01 0.47 -0.88 0
1 2.44 244 0.144 -7.781 5.583 -3.662 -1.587 1.282 34.927 1562.732 -4049.312 -0.273 -0.316 -0.065 0.01 0.47 -0.88 0
1 2.45 245 0.053 -7.877 5.670 -5.280 -0.610 2.625 34.927 1562.732 -4079.292 -0.181 -0.224 -0.156 0.01 0.47 -0.88 0
1 2.46 246 0.005 -7.920 5.670 -5.585 0.458 3.235 34.927 1562.732 -4079.292 -0.134 -0.183 -0.160 0.01 0.47 -0.88 0
1 2.47 247 0.101 -8.064 5.564 -5.493 1.129 4.089 49.917 1727.774 -4139.253 -0.232 -0.042 -0.059 0.01 0.47 -0.88 0
1 2.48 248 0.148 -8.275 5.737 -6.561 2.014 4.883 80.048 1712.784 -4079.292 -0.285 0.165 -0.237 0.01 0.47 -0.88 0
1 2.49 249 0.086 -8.275 5.756 -7.446 2.991 5.585 -39.874 1367.709 -4049.312 -0.228 0.160 -0.263 0.01 0.47 -0.88 0
1 2.50 250 0.158 -8.021 5.473 -8.545 3.693 5.249 -39.874 1367.709 -4049.312 -0.307 -0.098 0.013 0.01 0.47 -0.88 0
1 2.51 251 0.125 -7.882 5.516 -9.277 3.998 3.998 34.927 1337.729 -4124.263 -0.281 -0.243 -0.039 0.01 0.47 -0.88 0
1 2.52 252 0.096 -7.686 5.516 -12.390 5.280 3.021 -24.884 1577.722 -4034.322 -0.265 -0.453 -0.060 0.01 0.47 -0.88 0
1 2.53 253 -0.125 -7.911 5.502 -14.343 4.578 2.045 -24.884 1577.722 -4034.322 -0.049 -0.237 -0.059 0.01 0.47 -0.88 0
1 2.54 254 -0.311 -7.892 5.579 -15.808 4.334 0.885 49.917 1577.722 -4094.283 0.132 -0.266 -0.151 0.01 0.47 -0.88 0
1 2.55 255 -0.436 -8.088 5.564 -16.327 3.448 0.977 49.917 1577.722 -4139.253 0.252 -0.081 -0.154 0.01 0.47 -0.88 0
1 2.56 256 -0.599 -8.332 5.502 -16.205 3.662 -0.031 -24.884 1622.843 -4094.283 0.410 0.151 -0.110 0.01 0.47 -0.88 0
1 2.57 257 -0.508 -8.145 5.703 -16.113 3.845 -0.671 -24.884 1622.843 -4094.283 0.314 -0.047 -0.329 0.01 0.48 -0.88 0
1 2.58 258 -0.532 -8.097 5.890 -16.510 4.822 -0.305 4.947 1592.712 -4154.244 0.333 -0.107 -0.534 0.01 0.48 -0.88 0
1 2.59 259 -0.685 -8.097 5.732 -16.968 5.585 -0.244 19.937 1652.823 -4064.302 0.481 -0.118 -0.393 0.01 0.48 -0.88 0
1 2.60 260 -0.632 -8.414 5.832 -17.090 6.317 1.404 19.937 1652.823 -4064.302 0.414 0.175 -0.529 0.01 0.48 -0.88 0
1 2.61 261 -0.599 -8.423 5.938 -15.289 7.507 0.641 80.048 1712.784 -4079.292 0.371 0.174 -0.652 0.01 0.48 -0.88 0
1 2.62 262 -0.627 -8.495 5.809 -13.336 8.759 2.777 4.947 1637.833 -4154.244 0.390 0.237 -0.537 0.01 0.48 -0.88 0
1 2.63 263 -0.675 -8.634 5.708 -11.383 10.071 2.533 184.979 1757.755 -4124.263 0.425 0.368 -0.449 0.01 0.48 -0.88 0
1 2.64 264 -0.579 -8.610 5.660 -10.925 12.634 3.113 184.979 1757.755 -4124.263 0.316 0.337 -0.413 0.02 0.48 -0.88 0
1 2.65 265 -0.766 -8.696 5.445 -9.918 12.451 3.204 110.028 1667.813 -4079.292 0.487 0.416 -0.209 0.02 0.48 -0.88 0
1 2.66 266 -0.752 -8.806 5.330 -7.996 13.458 3.998 4.947 1487.781 -3929.240 0.456 0.520 -0.106 0.02 0.48 -0.88 0
1 2.67 267 -0.766 -8.639 5.176 -6.012 14.679 2.655 4.947 1487.781 -3929.240 0.435 0.341 0.028 -0.02 -0.48 0.87 0
1 2.68 268 -0.761 -8.385 4.937 -5.096 14.252 1.862 154.999 1562.732 -4049.312 0.412 0.083 0.259 -0.02 -0.48 0.87 0
1 2.69 269 -0.833 -8.572 4.851 -5.737 14.130 1.709 154.999 1832.706 -4004.341 0.468 0.265 0.337 -0.02 -0.48 0.87 0
1 2.70 270 -1.030 -8.902 4.745 -6.653 12.573 1.740 154.999 1832.706 -4004.341 0.649 0.590 0.432 -0.02 -0.49 0.87 0
1 2.71 271 -0.986 -9.098 4.698 -5.829 10.773 1.923 154.999 1592.712 -3929.240 0.590 0.780 0.468 -0.02 -0.49 0.87 0
1 2.72 272 -0.939 -9.376 4.731 -4.486 10.529 2.869 199.970 1847.846 -4139.253 0.528 1.051 0.423 -0.02 -0.49 0.87 0
1 2.73 273 -0.838 -9.448 4.793 -3.204 9.552 4.608 154.999 1712.784 -4124.263 0.412 1.116 0.349 -0.03 -0.49 0.87 0
1 2.74 274 -0.594 -9.472 4.564 -1.587 9.644 8.270 154.999 1712.784 -4124.263 0.135 1.133 0.564 -0.03 -0.49 0.87 0
1 2.75 275 -0.675 -9.204 4.592 3.204 8.545 8.575 244.940 1697.794 -3989.351 0.198 0.862 0.529 -0.03 -0.49 0.87 0
1 2.76 276 -0.565 -9.055 4.511 6.073 8.575 9.644 214.960 1862.836 -3974.361 0.069 0.715 0.610 -0.03 -0.49 0.87 0
1 2.77 277 -0.551 -8.926 4.573 2.289 8.698 11.597 214.960 1862.836 -3974.361 0.035 0.588 0.550 -0.03 -0.49 0.87 0
1 2.78 278 -0.623 -8.835 4.530 -3.418 6.775 16.388 110.028 1787.735 -4049.312 0.086 0.497 0.591 -0.03 -0.49 0.87 0
1 2.79 279 -0.781 -8.591 4.295 1.740 2.777 15.472 169.989 1697.794 -4034.322 0.218 0.249 0.818 0.03 0.49 -0.87 0
1 2.80 280 -0.781 -8.370 4.362 -0.244 5.707 14.465 259.931 1832.706 -4079.292 0.194 0.028 0.746 0.03 0.49 -0.87 0
1 2.81 281 -1.073 -8.543 4.233 -4.730 5.219 15.381 259.931 1832.706 -4079.292 0.462 0.201 0.873 0.03 0.49 -0.87 0
1 2.82 282 -1.197 -8.768 4.027 -4.517 -1.434 16.449 320.042 1697.794 -3989.351 0.537 0.417 1.059 0.04 0.49 -0.87 0
1 2.83 283 -1.063 -8.725 4.056 0.000 -2.289 15.839 169.989 1877.827 -4169.234 0.380 0.370 1.020 0.04 0.49 -0.87 0.01
1 2.84 284 -1.020 -8.710 3.941 0.732 -2.411 14.465 169.989 1877.827 -4169.234 0.316 0.354 1.130 0.04 0.49 -0.87 0.01
1 2.85 285 -0.948 -8.849 4.018 2.411 -2.533 12.909 274.921 1802.726 -4064.302 0.226 0.492 1.049 0.04 0.49 -0.87 0.01
1 2.86 286 -0.886 -8.648 3.812 2.686 -3.754 11.810 335.032 1832.706 -3929.240 0.148 0.291 1.253 0.04 0.49 -0.87 0.01
1 2.87 287 -0.852 -8.658 3.951 2.472 -5.127 10.712 169.989 1772.745 -4034.322 0.100 0.300 1.111 0.04 0.49 -0.87 0.01
1 2.88 288 -0.785 -8.538 3.994 1.068 -5.005 8.698 169.989 1772.745 -4034.322 0.022 0.179 1.065 0.04 0.49 -0.87 0.01
1 2.89 289 -0.776 -8.514 3.941 0.641 -4.395 8.514 409.233 1669.013 -4078.093 -0.004 0.153 1.111 0.04 0.49 -0.87 0.01
1 2.90 290 -0.833 -8.457 4.018 0.549 -4.669 6.531 274.171 1773.944 -3988.002 0.047 0.094 1.030 0.04 0.49 -0.87 0.01
1 2.91 291 -0.948 -8.658 3.965 -1.007 -3.876 4.730 274.171 1773.944 -3988.002 0.157 0.293 1.079 0.04 0.49 -0.87 0.01
1 2.92 292 -0.982 -8.485 4.003 -1.343 -4.272 3.296 319.142 1803.925 -3883.070 0.187 0.117 1.034 0.04 0.49 -0.87 0.01
1 2.93 293 -0.996 -8.485 4.003 -1.495 -5.615 1.801 259.181 1713.983 -3928.041 0.200 0.113 1.028 0.04 0.49 -0.87 0.01
1 2.94 294 -1.255 -8.409 3.984 -3.723 -6.226 -1.495 184.230 1713.983 -3928.041 0.460 0.033 1.041 0.04 0.49 -0.87 0.01
1 2.95 295 -1.312 -8.414 3.812 -5.432 -7.568 -2.533 184.230 1713.983 -3928.041 0.523 0.032 1.205 0.04 0.49 -0.87 0.01
1 2.96 296 -1.504 -8.600 3.845 -7.660 -9.399 -3.754 289.162 1833.905 -3928.041 0.726 0.203 1.148 0.04 0.49 -0.87 0.01
1 2.97 297 -1.504 -8.749 3.888 -8.057 -10.773 -4.334 349.123 1698.993 -3913.051 0.733 0.343 1.090 0.04 0.49 -0.87 0.01
1 2.98 298 -1.326 -8.849 3.879 -8.850 -11.566 -2.869 349.123 1698.993 -3913.051 0.565 0.433 1.084 0.04 0.5 -0.87 0.01
1 2.99 299 -1.374 -8.873 3.912 -8.301 -12.970 0.580 259.181 1788.935 -3973.012 0.620 0.447 1.035 0.04 0.5 -0.87 0.01
1 3.00 300 -1.293 -8.844 4.018 -9.460 -14.191 3.296 364.113 1788.935 -4047.963 0.544 0.409 0.914 0.04 0.5 -0.87 0.02
1 3.01 301 -1.144 -8.730 4.118 -11.322 -14.801 4.425 259.181 1713.983 -4047.963 0.400 0.284 0.797 0.03 0.5 -0.87 0.02
1 3.02 302 -1.001 -8.854 4.214 -12.817 -15.564 5.859 259.181 1713.983 -4047.963 0.258 0.399 0.684 0.03 0.5 -0.87 0.02
1 3.03 303 -0.939 -9.141 4.238 -13.336 -16.785 7.294 244.191 1623.892 -3913.051 0.198 0.675 0.642 0.03 0.5 -0.87 0.02
1 3.04 304 -0.929 -9.319 4.233 -9.064 -16.632 7.782 184.230 1788.935 -4002.992 0.193 0.831 0.610 0.03 0.5 -0.86 0.02
1 3.05 305 -1.044 -9.275 4.147 -6.348 -18.616 8.453 184.230 1788.935 -4002.992 0.309 0.780 0.682 0.03 0.5 -0.86 0.02
1 3.06 306 -1.111 -9.290 4.042 -5.371 -20.538 8.881 154.100 1833.905 -3973.012 0.377 0.788 0.777 0.03 0.5 -0.86 0.02
1 3.07 307 -1.389 -9.194 3.989 -5.676 -22.644 9.766 349.123 1728.974 -3883.070 0.656 0.687 0.820 0.03 0.5 -0.86 0.02
1 3.08 308 -1.259 -9.266 4.061 -3.754 -25.513 8.545 109.129 1713.983 -3928.041 0.528 0.752 0.738 0.03 0.5 -0.86 0.03
1 3.09 309 -1.326 -9.443 4.156 -2.655 -27.741 8.911 109.129 1713.983 -3928.041 0.598 0.925 0.634 0.03 0.5 -0.86 0.03
1 3.10 310 -1.245 -9.443 4.415 -2.136 -29.114 8.789 169.090 1623.892 -3883.070 0.522 0.920 0.368 0.03 0.51 -0.86 0.03
1 3.11 311 -0.905 -10.061 5.560 0.732 -26.917 10.101 154.100 1788.935 -3973.012 0.196 1.535 -0.780 0.02 0.51 -0.86 0.03
1 3.12 312 -0.656 -10.544 5.847 0.427 -22.400 14.191 154.100 1788.935 -3973.012 -0.047 2.021 -1.062 0.02 0.51 -0.86 0.03
1 3.13 313 -0.900 -10.008 5.344 -0.854 -20.233 15.656 154.100 1758.954 -3928.041 0.193 1.487 -0.556 0.02 0.51 -0.86 0.04
1 3.14 314 -1.039 -9.247 5.220 6.134 -21.759 15.076 154.100 1758.954 -3928.041 0.326 0.729 -0.426 0.02 0.51 -0.86 0.04
1 3.15 315 -0.450 -10.257 5.952 -5.219 -17.181 12.939 49.168 1803.925 -3913.051 -0.266 1.746 -1.148 0.02 0.5 -0.86 0.04
1 3.16 316 -0.455 -10.793 5.291 -7.843 -13.825 13.580 49.168 1803.925 -3913.051 -0.264 2.282 -0.487 0.02 0.5 -0.86 0.04
1 3.17 317 -0.862 -10.362 4.678 4.913 -13.702 11.841 94.139 1698.993 -3733.018 0.137 1.847 0.118 0.02 0.5 -0.86 0.04
1 3.18 318 -0.939 -10.075 5.330 5.890 -15.289 9.399 -85.744 1803.925 -3913.051 0.207 1.572 -0.513 0.02 0.5 -0.86 0.04
1 3.19 319 -0.934 -10.137 5.162 1.160 -12.939 8.026 -84.995 1802.726 -3914.400 0.201 1.639 -0.337 0.02 0.5 -0.86 0.05
1 3.20 320 -1.269 -10.046 4.717 6.195 -14.191 8.728 94.738 1697.794 -3809.468 0.536 1.551 0.114 0.02 0.5 -0.86 0.05
1 3.21 321 -1.302 -9.706 4.784 9.125 -15.839 7.996 94.738 1697.794 -3809.468 0.570 1.219 0.060 0.02 0.5 -0.86 0.05
1 3.22 322 -1.326 -9.390 4.736 5.280 -16.632 8.423 154.849 1832.706 -4049.462 0.597 0.911 0.122 0.01 0.5 -0.86 0.05
1 3.23 323 -1.212 -9.491 4.645 4.944 -18.768 9.644 154.849 1832.706 -4049.462 0.483 1.016 0.222 0.01 0.5 -0.86 0.05
1 3.24 324 -0.939 -9.352 4.669 6.531 -20.660 11.566 -40.024 1787.735 -3974.511 0.207 0.881 0.204 0.01 0.5 -0.86 0.05
1 3.25 325 -0.737 -8.974 4.587 8.453 -21.729 12.787 4.797 1562.732 -3794.478 0.005 0.507 0.292 0.01 0.5 -0.86 0.05
1 3.26 326 -0.421 -8.528 4.913 8.179 -22.339 11.078 4.797 1562.732 -3794.478 -0.311 0.075 -0.010 0.01 0.5 -0.86 0.06
1 3.27 327 -0.292 -8.428 4.990 8.911 -23.590 8.820 94.738 1697.794 -3989.501 -0.434 -0.019 -0.073 0.01 0.5 -0.86 0.06
1 3.28 328 -0.211 -8.107 5.234 10.345 -23.743 7.141 94.738 1697.794 -3989.501 -0.505 -0.331 -0.301 0.01 0.5 -0.86 0.06
1 3.29 329 -0.072 -7.767 5.445 9.766 -23.529 4.883 -55.014 1802.726 -3914.400 -0.629 -0.660 -0.492 0.01 0.5 -0.87 0.06
1 3.30 330 0.101 -7.394 5.411 6.165 -19.745 0.092 -55.014 1802.726 -3914.400 -0.784 -1.024 -0.439 0.01 0.5 -0.87 0.06
1 3.31 331 0.187 -7.307 5.593 5.585 -18.036 -3.418 -84.995 1652.823 -3959.371 -0.851 -1.101 -0.603 0 0.5 -0.87 0.06
1 3.32 332 0.393 -7.145 5.660 3.723 -16.296 -5.859 -145.105 1637.833 -3869.429 -1.033 -1.255 -0.653 0 0.49 -0.87 0.06
1 3.33 333 0.455 -6.757 5.641 5.157 -13.336 -10.223 -145.105 1637.833 -3869.429 -1.040 -1.629 -0.603 -0 0.49 -0.87 0.06
1 3.34 334 0.321 -6.431 5.617 0.275 -12.787 -11.200 -220.057 1712.784 -4049.462 -0.878 -1.949 -0.567 -0 0.49 -0.87 0.06
1 3.35 335 0.445 -6.512 5.550 -4.700 -10.712 -13.123 -220.057 1712.784 -4049.462 -0.977 -1.869 -0.499 -0 0.49 -0.87 0.06
1 3.36 336 0.551 -6.867 5.469 -8.575 -10.376 -14.923 -220.057 1667.813 -4184.374 -1.057 -1.520 -0.424 -0.01 0.49 -0.87 0.06
1 3.37 337 0.785 -7.020 5.622 -8.240 -8.484 -17.120 -220.057 1667.813 -4184.374 -1.263 -1.373 -0.585 -0.01 0.49 -0.87 0.06
1 3.38 338 0.895 -7.743 5.545 -11.810 -5.737 -17.853 -160.096 1727.774 -3914.400 -1.334 -0.652 -0.509 -0.01 0.49 -0.87 0.06
1 3.39 339 0.804 -7.959 5.430 -11.810 -4.150 -21.423 -190.076 1592.712 -3899.410 -1.206 -0.442 -0.400 -0.01 0.49 -0.87 0.06
1 3.40 340 0.910 -8.088 5.411 -11.078 -3.632 -27.527 -190.076 1592.712 -3899.410 -1.228 -0.326 -0.397 -0.01 0.49 -0.87 0.06
1 3.41 341 0.785 -8.481 5.737 -16.663 -1.831 -28.198 -205.066 1502.771 -3959.371 -1.056 0.059 -0.733 -0.01 0.49 -0.87 0.05
1 3.42 342 0.417 -8.801 5.674 -19.714 -0.366 -27.710 -205.066 1502.771 -3959.371 -0.642 0.368 -0.689 -0.02 0.5 -0.87 0.05
1 3.43 343 0.412 -9.055 5.363 -17.059 2.441 -31.891 -355.119 1577.722 -3884.419 -0.593 0.607 -0.399 -0.02 0.5 -0.87 0.05
1 3.44 344 0.062 -8.768 5.153 -7.782 -0.488 -35.156 -220.057 1667.813 -3869.429 -0.199 0.310 -0.204 -0.02 0.5 -0.87 0.05
1 3.45 345 0.091 -8.811 5.124 -13.580 -0.092 -38.117 -280.018 1727.774 -3914.400 -0.179 0.348 -0.183 -0.02 0.5 -0.87 0.04
1 3.46 346 0.010 -9.079 4.846 -11.169 1.099 -35.767 -250.037 1667.813 -3899.410 -0.047 0.608 0.081 -0.02 0.5 -0.87 0.04
1 3.47 347 0.029 -8.840 4.769 -6.195 -1.801 -35.156 -250.037 1667.813 -3899.410 -0.019 0.360 0.143 -0.02 0.5 -0.87 0.04
1 3.48 348 0.077 -8.428 4.769 -5.615 -3.723 -32.288 -324.988 1787.735 -3899.410 0.026 -0.062 0.125 -0.03 0.5 -0.87 0.03
1 3.49 349 0.153 -8.619 4.578 -7.050 -4.303 -30.884 -324.988 1787.735 -3899.410 -0.006 0.127 0.310 -0.03 0.5 -0.87 0.03
1 3.50 350 0.153 -8.533 4.420 -4.608 -6.165 -29.266 -280.018 1727.774 -3779.488 0.038 0.036 0.459 -0.03 0.5 -0.86 0.03
1 3.51 351 0.479 -8.528 4.372 -3.357 -5.310 -25.360 -309.998 1652.823 -3914.400 -0.246 0.029 0.501 -0.03 0.5 -0.86 0.03
1 3.52 352 0.737 -8.495 4.338 0.824 -3.754 -21.820 -370.109 1637.833 -3719.377 -0.467 -0.006 0.530 -0.03 0.5 -0.86 0.03
1 3.53 353 0.785 -8.519 4.123 1.190 -2.869 -18.799 -400.089 1862.836 -3929.390 -0.479 0.018 0.744 -0.03 0.5 -0.86 0.03
1 3.54 354 0.905 -8.619 4.185 4.578 -1.465 -15.167 -400.089 1862.836 -3929.390 -0.567 0.120 0.681 -0.03 0.5 -0.86 0.02
1 3.55 355 0.986 -8.313 4.161 8.392 0.000 -11.719 -295.008 1757.755 -3899.410 -0.598 -0.180 0.714 -0.04 0.5 -0.86 0.02
1 3.56 356 1.188 -8.169 4.171 7.385 3.296 -8.484 -295.008 1757.755 -3899.410 -0.780 -0.317 0.713 -0.04 0.5 -0.87 0.02
1 3.57 357 1.030 -8.074 4.065 7.721 5.432 -6.073 -400.089 1757.755 -3929.390 -0.609 -0.408 0.827 -0.04 0.5 -0.87 0.02
1 3.58 358 1.039 -8.102 3.874 7.111 7.843 -4.913 -309.998 1697.794 -3884.419 -0.611 -0.374 1.026 -0.04 0.5 -0.87 0.02
1 3.59 359 0.929 -8.083 3.764 4.852 11.231 -3.601 -370.109 1712.784 -3869.429 -0.495 -0.389 1.142 -0.04 0.5 -0.87 0.02
1 3.60 360 0.996 -7.834 3.668 3.754 12.878 -1.678 -370.109 1637.833 -3869.429 -0.560 -0.635 1.243 -0.04 0.5 -0.87 0.02
1 3.61 361 0.967 -7.427 3.433 2.991 14.435 -0.061 -370.109 1637.833 -3869.429 -0.533 -1.041 1.480 -0.04 0.5 -0.87 0.02
1 3.62 362 1.106 -7.561 3.132 -5.188 18.951 -0.732 -324.988 1712.784 -4004.491 -0.694 -0.903 1.791 -0.03 0.5 -0.87 0.02
1 3.63 363 1.197 -8.461 3.419 -9.674 21.088 -2.167 -324.988 1712.784 -4004.491 -0.798 -0.007 1.498 -0.03 0.5 -0.87 0.02
1 3.64 364 1.283 -9.175 3.520 -6.470 23.529 -2.686 -309.998 1727.774 -3809.468 -0.894 0.698 1.383 -0.03 0.5 -0.87 0.01
1 3.65 365 1.432 -9.376 3.884 4.303 25.391 -3.937 -309.998 1772.745 -3959.371 -1.050 0.892 1.007 -0.03 0.5 -0.87 0.01
1 3.66 366 1.226 -9.041 4.180 14.069 26.337 -5.859 -309.998 1697.794 -3734.367 -0.850 0.558 0.713 -0.03 0.5 -0.87 0.01
1 3.67 367 1.130 -8.921 4.530 10.803 25.696 -8.118 -295.008 1637.833 -3869.429 -0.761 0.446 0.376 -0.03 0.5 -0.87 0.01
1 3.68 368 1.144 -8.916 4.678 9.613 23.316 -9.583 -295.008 1637.833 -3869.429 -0.778 0.448 0.241 -0.03 0.5 -0.87 0.01
1 3.69 369 1.092 -8.179 4.645 9.949 21.484 -9.522 -220.057 1637.833 -3794.478 -0.726 -0.282 0.286 -0.03 0.5 -0.87 0.01
1 3.70 370 0.690 -7.432 4.405 -1.953 18.585 -12.299 -220.057 1637.833 -3794.478 -0.319 -1.016 0.548 -0.02 0.5 -0.87 0
1 3.71 371 0.441 -7.829 4.190 -14.374 14.618 -13.733 -220.057 1592.712 -3794.478 -0.067 -0.621 0.759 -0.02 0.5 -0.87 0
1 3.72 372 0.326 -8.495 4.214 -22.736 8.850 -16.022 -324.988 1592.712 -3824.458 0.058 0.033 0.715 -0.02 0.5 -0.87 0
1 3.73 373 0.680 -9.333 3.893 -21.942 4.639 -17.090 -324.988 1637.833 -3869.429 -0.281 0.854 1.004 0.02 -0.5 0.87 0
1 3.74 374 0.867 -9.563 3.386 -14.374 12.543 -10.193 -370.109 1712.784 -3824.458 -0.448 1.066 1.480 0.02 -0.5 0.87 0
1 3.75 375 0.881 -9.625 3.740 -14.069 21.454 -7.965 -370.109 1712.784 -3824.458 -0.452 1.113 1.097 0.02 -0.5 0.86 0
1 3.76 376 0.311 -11.813 7.164 -37.445 22.095 -26.764 -370.109 1637.833 -3929.390 0.120 3.271 -2.381 0.02 -0.51 0.86 0.01
1 3.77 377 0.067 -13.030 7.317 -46.570 21.057 -35.187 -370.109 1637.833 -3929.390 0.390 4.459 -2.586 0.02 -0.51 0.86 0.01
1 3.78 378 0.412 -11.066 5.119 0.122 8.087 -26.276 -324.988 1787.735 -3794.478 0.074 2.478 -0.423 0.02 -0.51 0.86 0.01
1 3.79 379 0.603 -9.285 6.388 4.913 -0.854 -29.511 -309.998 1622.843 -3734.367 -0.084 0.703 -1.684 0.02 -0.51 0.86 0.01
1 3.80 380 1.168 -9.630 7.250 -27.374 -0.122 -28.595 -309.998 1652.823 -3914.400 -0.608 1.049 -2.548 0.02 -0.51 0.86 0.02
1 3.81 381 1.729 -11.315 6.445 -34.119 2.655 -21.881 -400.089 1832.706 -3824.458 -1.133 2.715 -1.785 0.03 -0.51 0.86 0.02
1 3.82 382 1.700 -11.177 6.345 -20.081 2.655 -18.677 -400.089 1832.706 -3824.458 -1.076 2.553 -1.732 0.03 -0.51 0.86 0.02
1 3.83 383 1.341 -10.181 5.981 -16.022 6.989 -12.726 -355.119 1697.794 -3704.387 -0.692 1.543 -1.397 0.03 -0.52 0.86 0.02
1 3.84 384 0.982 -9.271 5.588 -20.050 11.963 -5.188 -355.119 1697.794 -3704.387 -0.314 0.613 -1.046 0.03 -0.52 0.86 0.02
1 3.85 385 1.164 -9.232 5.617 -16.815 11.810 0.732 -370.109 1862.836 -3794.478 -0.498 0.562 -1.098 0.03 -0.52 0.85 0.02
1 3.86 386 1.451 -8.974 5.818 -9.491 14.069 7.111 -280.018 1727.774 -3734.367 -0.795 0.295 -1.315 0.03 -0.52 0.85 0.02
1 3.87 387 1.547 -8.289 5.962 -3.296 20.233 10.162 -280.018 1727.774 -3734.367 -0.911 -0.395 -1.466 0.02 -0.52 0.85 0.02
1 3.88 388 1.202 -7.063 5.976 2.716 24.933 8.759 -309.998 1802.726 -3809.468 -0.587 -1.618 -1.471 0.02 -0.52 0.85 0.02
1 3.89 389 0.814 -6.541 5.818 5.463 26.611 3.052 -309.998 1802.726 -3809.468 -0.223 -2.133 -1.295 0.02 -0.52 0.85 0.02
1 3.90 390 0.292 -6.043 5.574 1.831 27.893 -0.427 -355.119 1802.726 -3704.387 0.280 -2.619 -1.027 0.02 -0.52 0.86 0.02
1 3.91 391 -0.436 -5.761 5.215 -7.507 21.820 -2.197 -355.119 1802.726 -3704.387 0.975 -2.898 -0.657 0.02 -0.52 0.86 0.03
1 3.92 392 -0.891 -5.742 5.497 -11.017 16.632 -4.395 -355.119 1772.745 -3779.488 1.420 -2.922 -0.947 0.02 -0.52 0.86 0.03
1 3.93 393 -1.192 -6.661 5.416 -13.733 16.144 -2.411 -295.008 1787.735 -3689.396 1.716 -2.010 -0.879 0.01 -0.52 0.85 0.03
1 3.94 394 -1.470 -7.264 5.382 -13.611 13.794 -2.350 -295.008 1787.735 -3689.396 1.987 -1.415 -0.861 0.01 -0.52 0.85 0.03
1 3.95 395 -1.575 -7.719 5.363 -12.939 9.705 -1.068 -280.018 1802.726 -3584.465 2.073 -0.964 -0.847 0.01 -0.52 0.85 0.03
1 3.96 396 -1.393 -8.763 5.746 -9.735 7.477 -1.526 -280.018 1802.726 -3584.465 1.872 0.076 -1.235 0.01 -0.52 0.85 0.03
1 3.97 397 -1.188 -9.055 5.828 -9.277 5.219 5.066 -55.014 1697.794 -3704.387 1.648 0.366 -1.319 0.01 -0.52 0.85 0.03
1 3.98 398 -0.781 -8.864 5.655 -5.768 3.082 8.057 -55.014 1697.794 -3704.387 1.220 0.171 -1.151 0.01 -0.52 0.85 0.03
1 3.99 399 -0.354 -8.361 5.588 -3.815 2.258 14.435 -70.004 1712.784 -3794.478 0.753 -0.333 -1.083 0.01 -0.52 0.85 0.03
1 4.00 400 -0.182 -7.944 5.454 -8.667 -0.061 18.829 -190.076 1862.836 -3689.396 0.553 -0.749 -0.946 0.01 -0.52 0.85 0.03
1 4.01 401 0.163 -8.030 5.306 -13.245 0.122 19.684 -190.076 1862.836 -3689.396 0.179 -0.666 -0.801 0.01 -0.52 0.85 0.03
1 4.02 402 0.230 -8.054 4.990 -16.388 1.373 25.574 -190.076 1907.807 -3719.377 0.082 -0.648 -0.495 0 -0.52 0.85 0.02
1 4.03 403 -0.201 -8.303 4.808 -13.550 3.632 28.931 -190.076 1907.807 -3719.377 0.477 -0.407 -0.326 0 -0.52 0.85 0.02
1 4.04 404 -0.139 -8.466 4.884 -12.390 4.700 31.189 -145.105 1787.735 -3569.475 0.376 -0.252 -0.414 0 -0.52 0.85 0.02
1 4.05 405 -0.412 -8.524 4.645 -8.606 5.676 31.189 -145.105 1787.735 -3569.475 0.602 -0.202 -0.187 0 -0.52 0.85 0.02
1 4.06 406 -0.656 -8.184 4.554 -7.935 -0.061 32.074 -130.115 1847.846 -3659.416 0.747 -0.551 -0.112 -0 -0.52 0.85 0.01
1 4.07 407 -0.555 -8.294 4.487 -9.430 1.495 31.769 -250.037 1757.755 -3614.445 0.599 -0.445 -0.052 -0 -0.52 0.85 0.01
1 4.08 408 -0.718 -8.476 4.496 -11.047 1.251 31.159 -250.037 1757.755 -3614.445 0.714 -0.268 -0.071 -0.01 -0.52 0.85 0.01
1 4.09 409 -0.742 -8.624 4.348 -11.169 0.031 28.534 -145.105 1862.836 -3644.426 0.693 -0.126 0.065 -0.01 -0.52 0.85 0.01
1 4.10 410 -0.781 -8.619 4.008 -10.223 -3.448 28.626 -84.995 1802.726 -3629.436 0.689 -0.137 0.393 -0.01 -0.52 0.85 0
1 4.11 411 -0.824 -8.476 3.951 -9.644 -5.585 26.367 -130.115 1922.797 -3584.465 0.691 -0.286 0.436 -0.01 -0.53 0.85 0
1 4.12 412 -0.943 -8.299 3.936 -13.672 -7.294 24.963 -130.115 1922.797 -3584.465 0.774 -0.469 0.438 0.01 0.53 -0.85 0
1 4.13 413 -0.919 -8.184 3.869 -15.595 -7.050 23.071 -115.125 1787.735 -3644.426 0.716 -0.592 0.489 0.01 0.53 -0.85 0
1 4.14 414 -1.240 -8.433 3.692 -15.137 -8.057 24.628 -115.125 1907.807 -3644.426 0.976 -0.360 0.628 0.01 0.53 -0.85 0.01
1 4.15 415 -1.269 -8.394 3.692 -12.085 -10.651 22.797 -115.125 1907.807 -3644.426 0.971 -0.407 0.608 0.01 0.53 -0.85 0.01
1 4.16 416 -1.465 -8.279 3.807 -10.468 -13.397 21.942 -25.034 1802.726 -3584.465 1.139 -0.529 0.477 0.01 0.53 -0.85 0.01
1 4.17 417 -1.523 -8.476 3.553 -9.155 -17.029 19.196 -160.096 1847.846 -3629.436 1.169 -0.338 0.718 0.01 0.53 -0.85 0.01
1 4.18 418 -1.676 -8.313 3.553 -8.789 -25.055 15.839 49.768 1997.749 -3629.436 1.301 -0.506 0.705 0.01 0.53 -0.85 0.02
1 4.19 419 -1.480 -8.390 3.323 -7.568 -27.954 13.947 49.768 1997.749 -3629.436 1.087 -0.434 0.922 0.01 0.53 -0.85 0.02
1 4.20 420 -1.465 -8.246 3.156 -6.897 -33.264 10.864 -84.995 1877.827 -3554.484 1.058 -0.588 1.067 0.01 0.53 -0.85 0.02
1 4.21 421 -1.207 -8.155 3.098 -7.202 -35.004 10.925 -115.125 2057.709 -3464.393 0.800 -0.685 1.113 0.01 0.53 -0.85 0.03
1 4.22 422 -1.015 -8.404 3.141 -11.536 -36.377 9.460 -112.427 2053.062 -3470.689 0.619 -0.440 1.061 0.01 0.53 -0.84 0.03
1 4.23 423 -0.982 -8.639 3.213 -13.397 -37.262 7.507 -52.316 1918.000 -3530.650 0.595 -0.213 0.974 0 0.54 -0.84 0.03
1 4.24 424 -0.757 -8.868 3.366 -12.207 -38.330 7.233 -82.296 1918.000 -3560.630 0.380 0.007 0.801 0 0.54 -0.84 0.03
1 4.25 425 -0.589 -8.562 3.314 -11.108 -38.178 4.578 -127.417 2037.922 -3740.663 0.226 -0.309 0.835 0 0.54 -0.84 0.03
1 4.26 426 -0.594 -8.418 3.510 -16.022 -37.537 0.977 -127.417 2037.922 -3740.663 0.248 -0.461 0.622 -0 0.54 -0.84 0.04
1 4.27 427 -0.584 -8.667 3.572 -21.179 -36.621 2.014 -277.319 1767.948 -3560.630 0.258 -0.222 0.540 -0 0.54 -0.84 0.04
1 4.28 428 -0.431 -9.256 3.606 -25.971 -32.013 -1.129 -112.427 1782.938 -3545.640 0.145 0.338 0.447 -0.01 0.54 -0.84 0.04
1 4.29 429 -0.335 -9.558 3.826 -23.377 -29.327 1.068 -112.427 1782.938 -3545.640 0.068 0.624 0.192 -0.01 0.54 -0.84 0.04
1 4.30 430 -0.072 -9.989 3.965 -21.423 -25.116 2.838 -322.440 1977.961 -3620.591 -0.181 1.040 0.021 -0.01 0.54 -0.84 0.04
1 4.31 431 -0.010 -10.324 3.836 -19.287 -21.301 4.517 -127.417 1918.000 -3485.679 -0.231 1.362 0.122 -0.01 0.55 -0.84 0.04
1 4.32 432 0.211 -10.382 3.831 -10.681 -11.200 4.944 -292.310 1977.961 -3620.591 -0.445 1.409 0.104 -0.02 0.55 -0.84 0.05
1 4.33 433 -0.196 -10.386 3.577 -6.165 -7.904 8.179 -292.310 1977.961 -3620.591 -0.036 1.407 0.343 -0.02 0.55 -0.84 0.05
1 4.34 434 -0.287 -10.602 3.271 -9.186 -3.784 3.113 -157.397 1992.952 -3530.650 0.051 1.620 0.641 -0.02 0.55 -0.84 0.05
1 4.35 435 -0.680 -11.421 2.931 -7.202 -1.251 2.686 -322.440 1932.991 -3500.669 0.441 2.429 0.960 -0.02 0.55 -0.83 0.05
1 4.36 436 -1.044 -11.579 2.576 -1.312 -2.869 -0.397 -322.440 1932.991 -3500.669 0.804 2.584 1.307 -0.02 0.55 -0.83 0.05
1 4.37 437 -1.212 -11.517 2.615 3.876 -6.195 -0.336 -352.420 1992.952 -3530.650 0.975 2.523 1.271 -0.02 0.55 -0.83 0.05
1 4.38 438 -0.991 -11.694 2.935 7.385 -9.460 -0.610 -532.303 2037.922 -3410.578 0.760 2.703 0.958 -0.02 0.55 -0.83 0.05
1 4.39 439 -0.785 -12.431 4.224 7.080 -10.193 2.319 -366.361 2123.667 -3551.786 0.561 3.446 -0.318 -0.02 0.55 -0.83 0.05
1 4.40 440 -0.479 -12.967 4.994 13.886 -0.977 16.541 -366.361 2123.667 -3551.786 0.255 3.987 -1.078 -0.02 0.55 -0.84 0.05
1 4.41 441 -0.929 -11.119 4.482 28.351 -1.038 21.271 -306.250 1988.604 -3461.695 0.688 2.146 -0.550 -0.02 0.55 -0.84 0.05
1 4.42 442 -1.020 -10.066 5.105 17.029 -5.798 21.179 -291.260 2078.696 -3476.685 0.751 1.109 -1.136 -0.02 0.55 -0.84 0.05
1 4.43 443 -0.421 -10.841 4.865 -9.094 -3.510 20.325 -291.260 2078.696 -3476.685 0.104 1.901 -0.864 -0.02 0.54 -0.84 0.06
1 4.44 444 -0.215 -10.750 4.578 0.244 0.763 20.447 -291.260 1973.614 -3446.705 -0.129 1.807 -0.586 -0.02 0.54 -0.84 0.06
1 4.45 445 -0.168 -10.329 4.841 8.301 3.204 18.860 -321.241 1928.644 -3506.815 -0.204 1.389 -0.843 -0.02 0.54 -0.84 0.06
1 4.46 446 -0.067 -9.529 4.889 3.845 4.974 18.921 -291.260 1928.644 -3446.705 -0.332 0.596 -0.879 -0.01 0.54 -0.84 0.06
1 4.47 447 -0.259 -9.275 4.650 1.617 6.836 16.174 -291.260 1928.644 -3446.705 -0.168 0.347 -0.633 -0.01 0.54 -0.84 0.06
1 4.48 448 -0.354 -9.117 4.611 6.134 5.066 13.489 -321.241 1898.663 -3506.815 -0.097 0.193 -0.589 -0.01 0.54 -0.84 0.06
1 4.49 449 -0.220 -8.533 4.827 8.972 1.068 11.749 -306.250 2033.575 -3596.757 -0.251 -0.386 -0.793 -0.01 0.54 -0.84 0.06
1 4.50 450 -0.120 -8.169 5.282 9.918 -1.495 5.249 -306.250 2033.575 -3596.757 -0.377 -0.731 -1.210 -0.01 0.54 -0.84 0.06
1 4.51 451 -0.005 -8.002 5.272 12.970 -3.204 3.906 -276.270 2063.706 -3356.763 -0.494 -0.887 -1.175 -0.01 0.54 -0.84 0.07
1 4.52 452 0.254 -7.576 5.536 14.404 -5.371 5.310 -306.250 1958.624 -3536.796 -0.752 -1.299 -1.409 -0.01 0.54 -0.84 0.07
1 4.53 453 0.053 -7.327 5.684 14.130 -5.829 5.920 -306.250 1958.624 -3536.796 -0.550 -1.533 -1.524 -0.01 0.54 -0.84 0.07
1 4.54 454 0.029 -7.231 5.464 7.874 -7.233 5.646 -276.270 1913.653 -3491.675 -0.525 -1.613 -1.270 -0.01 0.53 -0.84 0.07
1 4.55 455 0.153 -7.427 5.516 4.334 -8.484 6.104 -321.241 1928.644 -3581.767 -0.648 -1.403 -1.295 -0.01 0.53 -0.84 0.07
1 4.56 456 0.421 -7.379 5.392 6.805 -9.491 8.362 -321.241 1823.712 -3506.815 -0.914 -1.441 -1.150 -0.01 0.53 -0.84 0.07
1 4.57 457 0.412 -7.537 5.425 7.172 -8.118 10.223 -321.241 1823.712 -3506.815 -0.906 -1.262 -1.139 -0.01 0.53 -0.84 0.07
1 4.58 458 0.488 -7.829 5.430 5.829 -6.805 10.773 -351.221 1958.624 -3566.776 -0.985 -0.959 -1.122 -0.01 0.53 -0.85 0.07
1 4.59 459 0.517 -8.184 5.301 6.989 -4.822 10.132 -276.270 1868.683 -3491.675 -1.016 -0.594 -0.972 -0.01 0.53 -0.85 0.07
1 4.60 460 0.623 -8.088 5.105 4.211 -3.998 10.956 -276.270 1868.683 -3491.675 -1.125 -0.681 -0.759 -0.02 0.53 -0.85 0.07
1 4.61 461 0.555 -8.107 5.277 5.707 -7.629 7.141 -276.270 1988.604 -3536.796 -1.059 -0.655 -0.917 -0.02 0.53 -0.85 0.07
1 4.62 462 0.742 -8.107 5.382 4.456 -4.700 0.488 -201.319 1958.624 -3641.728 -1.242 -0.646 -1.004 -0.02 0.53 -0.85 0.07
1 4.63 463 0.541 -8.193 5.263 3.418 -3.204 -4.578 -441.312 1823.712 -3551.786 -1.031 -0.552 -0.867 -0.02 0.52 -0.85 0.07
1 4.64 464 0.512 -8.337 5.210 -0.488 -4.395 -15.625 -441.312 1823.712 -3551.786 -0.962 -0.399 -0.791 -0.02 0.52 -0.85 0.07
1 4.65 465 0.417 -8.471 5.057 4.578 -2.502 -24.048 -366.361 1748.611 -3506.815 -0.832 -0.262 -0.630 -0.02 0.52 -0.85 0.07
1 4.66 466 0.450 -8.495 4.765 1.892 -4.059 -27.313 -381.352 1763.601 -3461.695 -0.822 -0.235 -0.326 -0.02 0.52 -0.85 0.07
1 4.67 467 0.354 -8.706 4.817 7.355 -3.723 -32.440 -381.352 1763.601 -3461.695 -0.678 -0.021 -0.370 -0.02 0.52 -0.85 0.07
1 4.68 468 -0.053 -8.289 4.678 8.270 -6.653 -30.914 -381.352 1868.683 -3311.792 -0.219 -0.432 -0.215 -0.03 0.52 -0.85 0.07
1 4.69 469 0.081 -8.533 4.745 8.087 -5.493 -31.555 -351.221 1763.601 -3596.757 -0.303 -0.182 -0.269 -0.03 0.52 -0.85 0.07
1 4.70 470 -0.091 -8.619 4.559 8.911 -5.371 -26.733 -291.260 1898.663 -3626.737 -0.080 -0.090 -0.069 -0.03 0.52 -0.85 0.06
1 4.71 471 -0.105 -8.174 4.286 10.925 -7.538 -22.095 -291.260 1898.663 -3626.737 -0.023 -0.529 0.218 -0.03 0.52 -0.85 0.06
1 4.72 472 0.158 -7.959 4.496 7.477 -9.766 -21.393 -351.221 1838.702 -3536.796 -0.213 -0.729 0.038 -0.03 0.52 -0.85 0.06
1 4.73 473 0.335 -8.054 4.214 3.967 -6.866 -20.752 -246.290 1928.644 -3476.685 -0.354 -0.627 0.333 -0.03 0.52 -0.85 0.06
1 4.74 474 0.417 -8.327 4.137 4.364 -8.514 -17.792 -246.290 1928.644 -3476.685 -0.402 -0.350 0.416 -0.04 0.52 -0.85 0.06
1 4.75 475 0.642 -8.203 4.128 7.904 -8.148 -15.106 -321.241 1748.611 -3506.815 -0.595 -0.471 0.433 -0.04 0.52 -0.85 0.06
1 4.76 476 0.953 -8.437 4.401 11.749 -6.592 -15.198 -306.250 1838.702 -3491.675 -0.876 -0.230 0.172 -0.04 0.52 -0.85 0.06
1 4.77 477 1.140 -8.308 4.549 11.597 -6.378 -13.886 -516.264 1778.591 -3581.767 -1.031 -0.350 0.040 -0.04 0.51 -0.86 0.05
1 4.78 478 1.250 -8.222 4.487 16.266 -3.571 -12.909 -516.264 1778.591 -3581.767 -1.110 -0.427 0.119 -0.04 0.51 -0.86 0.05
1 4.79 479 0.996 -7.987 4.477 15.930 -1.770 -9.491 -321.241 1778.591 -3446.705 -0.803 -0.635 0.176 -0.04 0.51 -0.86 0.05
1 4.80 480 1.097 -8.016 4.439 15.595 -0.366 -8.972 -441.312 1778.591 -3476.685 -0.883 -0.594 0.237 -0.04 0.51 -0.86 0.05
1 4.81 481 1.068 -7.801 4.104 13.794 2.899 -4.242 -441.312 1778.591 -3476.685 -0.837 -0.796 0.595 -0.04 0.51 -0.86 0.05
1 4.82 482 0.977 -7.346 4.133 5.554 5.463 -2.838 -441.312 1823.712 -3581.767 -0.736 -1.242 0.583 -0.04 0.51 -0.86 0.05
1 4.83 483 0.814 -7.848 4.027 -1.526 9.918 -2.655 -546.244 1928.644 -3656.718 -0.574 -0.735 0.695 -0.04 0.51 -0.86 0.05
1 4.84 484 0.958 -8.275 3.496 -4.608 12.054 -2.716 -381.352 1838.702 -3566.776 -0.719 -0.310 1.224 -0.04 0.51 -0.86 0.05
1 4.85 485 1.144 -7.839 3.304 0.702 12.054 1.251 -381.352 1838.702 -3566.776 -0.904 -0.751 1.408 -0.04 0.51 -0.86 0.05
1 4.86 486 1.255 -7.791 3.582 -5.402 15.900 1.007 -516.264 1748.611 -3581.767 -1.020 -0.799 1.129 -0.04 0.51 -0.86 0.05
1 4.87 487 1.441 -8.835 3.769 -17.395 21.851 0.885 -561.234 1688.650 -3641.728 -1.229 0.233 0.923 -0.04 0.51 -0.86 0.05
1 4.88 488 1.480 -9.539 3.821 -12.177 24.567 -0.793 -561.234 1688.650 -3641.728 -1.274 0.923 0.844 -0.04 0.51 -0.86 0.05
1 4.89 489 1.595 -9.841 3.927 -0.641 27.039 -1.953 -291.260 1748.611 -3551.786 -1.395 1.215 0.721 -0.04 0.51 -0.86 0.04
1 4.90 490 1.676 -9.395 4.037 6.775 29.175 -1.709 -366.361 1823.712 -3701.688 -1.483 0.768 0.608 -0.04 0.51 -0.86 0.04
1 4.91 491 1.427 -8.955 3.879 5.066 38.300 -6.866 -531.254 1763.601 -3566.776 -1.240 0.330 0.771 -0.04 0.51 -0.86 0.04
1 4.92 492 1.116 -8.983 3.606 0.427 41.321 -12.665 -531.254 1763.601 -3566.776 -0.936 0.362 1.050 -0.03 0.51 -0.86 0.04
1 4.93 493 0.848 -9.304 3.726 -1.434 39.856 -18.005 -351.221 1718.630 -3491.675 -0.673 0.682 0.929 -0.03 0.51 -0.86 0.04
1 4.94 494 0.517 -9.682 3.879 3.998 36.835 -24.109 -321.241 1778.591 -3581.767 -0.336 1.055 0.766 -0.03 0.51 -0.86 0.03
1 4.95 495 0.297 -9.568 3.874 5.402 35.095 -26.733 -321.241 1778.591 -3581.767 -0.105 0.941 0.772 -0.03 0.51 -0.86 0.03
1 4.96 496 -0.062 -9.639 3.764 3.662 32.196 -27.924 -231.299 1868.683 -3536.796 0.266 1.014 0.884 -0.03 0.51 -0.86 0.02
1 4.97 497 -0.254 -9.769 3.678 0.885 29.450 -27.527 -231.299 1868.683 -3536.796 0.471 1.143 0.969 -0.03 0.51 -0.86 0.02
1 4.98 498 -0.512 -9.908 3.635 0.061 23.407 -25.391 -306.250 1793.582 -3536.796 0.742 1.279 1.006 -0.02 0.51 -0.86 0.02
1 4.99 499 -0.627 -9.788 3.567 -0.488 18.189 -21.393 -306.250 1793.582 -3536.796 0.869 1.155 1.065 -0.02 0.51 -0.86 0.02
1 5.00 500 -0.603 -9.951 3.596 0.092 14.130 -16.998 -351.221 1838.702 -3671.708 0.854 1.314 1.029 -0.02 0.51 -0.86 0.01
1 5.01 501 -0.148 -9.730 3.184 1.282 18.829 -7.538 -321.241 1778.591 -3656.718 0.407 1.086 1.426 -0.02 0.51 -0.86 0.01
1 5.02 502 0.326 -9.481 3.151 -0.671 22.156 -1.862 -321.241 1778.591 -3656.718 -0.076 0.833 1.451 -0.02 0.51 -0.86 0.01
1 5.03 503 0.139 -9.572 4.587 -10.590 23.132 -1.617 -366.361 1898.663 -3581.767 0.096 0.917 0.002 -0.02 0.52 -0.86 0.01
1 5.04 504 -0.268 -11.612 5.842 -42.114 21.729 -17.090 -366.361 1898.663 -3581.767 0.493 2.943 -1.278 -0.02 0.52 -0.86 0.01
1 5.05 505 0.340 -11.857 3.975 0.702 10.620 -14.679 -216.309 1748.611 -3581.767 -0.103 3.158 0.533 -0.02 0.52 -0.85 0.01
1 5.06 506 0.263 -10.066 5.081 24.445 2.625 -12.482 -216.309 1748.611 -3581.767 -0.013 1.359 -0.588 -0.02 0.52 -0.85 0
1 5.07 507 0.048 -9.189 6.694 5.371 -0.519 -13.062 -306.250 1718.630 -3491.675 0.218 0.500 -2.171 -0.02 0.52 -0.85 0
1 5.08 508 0.287 -9.898 6.335 -19.653 3.143 -11.383 -246.290 1748.611 -3551.786 0.013 1.211 -1.810 -0.02 0.52 -0.85 0
1 5.09 509 0.268 -10.085 6.254 -16.174 1.282 -10.864 -246.290 1748.611 -3551.786 0.046 1.386 -1.751 -0.02 0.52 -0.85 0
1 5.10 510 0.867 -10.037 6.685 -5.646 -6.470 -16.480 -186.329 1823.712 -3581.767 -0.532 1.332 -2.195 -0.02 0.52 -0.85 0
1 5.11 511 1.336 -9.065 6.560 -0.854 -4.272 -13.702 -186.329 1823.712 -3581.767 -0.975 0.359 -2.075 0.02 -0.52 0.85 0
1 5.12 512 1.389 -8.179 6.302 -4.822 1.038 -12.299 -306.250 1793.582 -3461.695 -1.008 -0.526 -1.817 0.02 -0.52 0.85 0
1 5.13 513 1.259 -7.461 6.359 -6.134 10.315 -13.733 -306.250 1793.582 -3461.695 -0.856 -1.240 -1.868 0.02 -0.52 0.85 0
1 5.14 514 1.125 -7.408 6.374 -5.066 14.160 -14.130 -441.312 1898.663 -3506.815 -0.703 -1.288 -1.875 0.02 -0.52 0.85 0
1 5.15 515 1.259 -6.714 6.187 2.380 16.357 -17.792 -291.260 1928.644 -3701.688 -0.820 -1.976 -1.678 0.02 -0.52 0.85 0
1 5.16 516 0.924 -6.393 6.139 -0.610 18.280 -21.668 -291.260 1928.644 -3701.688 -0.448 -2.275 -1.591 0.02 -0.52 0.86 0.01
1 5.17 517 0.766 -6.402 5.861 -8.514 17.212 -20.477 -321.241 1853.692 -3506.815 -0.270 -2.257 -1.299 0.02 -0.52 0.86 0.01
1 5.18 518 0.263 -6.647 5.583 -9.125 16.510 -23.987 -321.241 1853.692 -3506.815 0.251 -2.016 -1.031 0.02 -0.52 0.86 0.01
1 5.19 519 -0.273 -6.738 5.363 -9.796 15.381 -23.285 -186.329 1778.591 -3476.685 0.808 -1.929 -0.820 0.02 -0.52 0.86 0.02
1 5.20 520 -0.876 -7.226 5.248 -11.780 8.209 -23.132 -231.299 1838.702 -3536.796 1.433 -1.445 -0.715 0.02 -0.52 0.85 0.02
1 5.21 521 -1.178 -7.695 5.406 -11.963 7.385 -21.027 -291.260 1928.644 -3581.767 1.759 -0.981 -0.886 0.02 -0.52 0.85 0.02
1 5.22 522 -1.384 -8.399 5.311 -12.146 4.761 -18.982 -291.260 1898.663 -3476.685 1.979 -0.278 -0.796 0.02 -0.52 0.85 0.02
1 5.23 523 -1.523 -9.103 5.320 -11.475 -3.632 -14.801 -291.260 1898.663 -3476.685 2.134 0.419 -0.820 0.02 -0.52 0.85 0.02
1 5.24 524 -1.417 -9.304 5.109 -7.996 -8.545 -7.477 -291.260 1778.591 -3506.815 2.034 0.616 -0.618 0.02 -0.52 0.85 0.02
1 5.25 525 -1.360 -8.998 4.942 -5.402 -12.756 4.028 -291.260 1778.591 -3506.815 1.982 0.306 -0.458 0.02 -0.52 0.85 0.02
1 5.26 526 -1.188 -8.864 5.095 -4.089 -18.646 13.275 -456.303 1868.683 -3596.757 1.795 0.169 -0.615 0.02 -0.52 0.85 0.02
1 5.27 527 -1.015 -8.696 5.301 -0.671 -18.860 22.339 -351.221 1913.653 -3596.757 1.602 -0.001 -0.823 0.02 -0.52 0.85 0.02
1 5.28 528 -0.881 -8.442 5.133 -5.463 -21.088 32.013 -321.241 2003.595 -3506.815 1.436 -0.255 -0.651 0.02 -0.52 0.85 0.02
1 5.29 529 -0.766 -8.485 5.258 -6.805 -25.726 36.438 -396.342 1823.712 -3401.734 1.285 -0.214 -0.776 0.02 -0.52 0.85 0.01
1 5.30 530 -0.670 -8.739 5.138 -4.059 -25.330 40.436 -396.342 1823.712 -3401.734 1.148 0.035 -0.661 0.02 -0.52 0.85 0.01
1 5.31 531 -0.843 -8.634 5.004 -2.075 -24.750 43.366 -291.260 1973.614 -3551.786 1.229 -0.076 -0.528 0.02 -0.52 0.85 0
1 5.32 532 -1.087 -8.208 4.975 -3.998 -28.931 46.326 -291.260 1973.614 -3551.786 1.423 -0.503 -0.497 -0.02 0.52 -0.85 0
1 5.33 533 -0.939 -8.270 5.157 -7.599 -28.381 47.028 -381.352 1838.702 -3536.796 1.223 -0.444 -0.681 -0.02 0.52 -0.85 0.01
1 5.34 534 -0.843 -8.409 4.865 -8.575 -24.262 46.295 -246.290 1973.614 -3506.815 1.074 -0.309 -0.394 -0.02 0.52 -0.85 0.01
1 5.35 535 -0.675 -8.217 4.564 -10.162 -23.010 49.988 -351.221 1913.653 -3491.675 0.852 -0.504 -0.098 -0.02 0.52 -0.85 0.02
1 5.36 536 -0.292 -8.169 4.616 -13.306 -23.010 48.065 -381.352 1988.604 -3536.796 0.411 -0.558 -0.160 -0.02 0.52 -0.85 0.02
1 5.37 537 0.163 -8.390 4.693 -12.665 -19.501 47.180 -381.352 1988.604 -3536.796 -0.097 -0.345 -0.249 -0.02 0.52 -0.85 0.03
1 5.38 538 0.316 -8.634 4.453 -7.690 -16.327 44.647 -306.250 1913.653 -3461.695 -0.351 -0.112 -0.032 -0.02 0.52 -0.85 0.03
1 5.39 539 0.096 -8.303 4.405 -3.601 -16.113 41.596 -306.250 1913.653 -3461.695 -0.176 -0.446 0.009 -0.02 0.52 -0.85 0.04
1 5.40 540 -0.005 -8.212 4.377 0.488 -15.259 36.286 -396.342 2003.595 -3371.753 -0.116 -0.537 0.037 -0.02 0.52 -0.85 0.04
1 5.41 541 -0.225 -8.241 4.262 -0.061 -13.306 34.119 -246.290 1973.614 -3506.815 0.068 -0.505 0.155 -0.02 0.52 -0.85 0.04
1 5.42 542 -0.316 -8.332 4.338 1.099 -14.038 26.459 -396.342 1928.644 -3506.815 0.125 -0.413 0.081 -0.02 0.52 -0.85 0.05
1 5.43 543 -0.493 -8.394 4.195 5.829 -12.909 23.682 -366.361 2003.595 -3476.685 0.276 -0.348 0.227 -0.02 0.52 -0.85 0.05
1 5.44 544 -0.747 -8.256 4.104 6.683 -13.184 20.477 -366.361 2003.595 -3476.685 0.506 -0.482 0.328 -0.02 0.52 -0.85 0.05
1 5.45 545 -0.785 -8.169 3.989 6.561 -14.954 13.519 -246.290 1898.663 -3446.705 0.507 -0.557 0.463 -0.02 0.52 -0.85 0.06
1 5.46 546 -0.915 -8.203 3.864 4.913 -16.327 10.986 -246.290 1898.663 -3446.705 0.626 -0.518 0.596 -0.02 0.52 -0.85 0.06
1 5.47 547 -0.704 -8.160 3.749 4.852 -17.700 8.392 -366.361 2078.696 -3476.685 0.409 -0.558 0.718 -0.02 0.52 -0.85 0.06
1 5.48 548 -0.713 -8.404 3.831 2.228 -17.487 5.890 -291.260 2078.696 -3626.737 0.418 -0.311 0.642 -0.02 0.52 -0.85 0.06
1 5.49 549 -0.579 -8.591 3.965 0.732 -17.670 5.676 -321.241 1823.712 -3446.705 0.285 -0.123 0.510 -0.02 0.52 -0.85 0.06
1 5.50 550 -0.555 -8.926 3.749 2.136 -19.226 2.991 -231.299 2108.676 -3596.757 0.265 0.212 0.726 -0.02 0.52 -0.85 0.06
1 5.51 551 -0.575 -8.787 3.888 0.305 -18.921 -2.380 -231.299 2108.676 -3596.757 0.290 0.074 0.588 -0.02 0.52 -0.85 0.06
1 5.52 552 -0.728 -8.797 3.615 1.984 -20.294 -3.906 -366.361 1973.614 -3371.753 0.471 0.082 0.859 -0.02 0.52 -0.85 0.06
1 5.53 553 -0.718 -8.624 3.630 2.319 -21.240 -4.700 -366.361 1973.614 -3371.753 0.479 -0.091 0.844 -0.03 0.52 -0.85 0.07
1 5.54 554 -0.464 -8.672 3.606 0.275 -22.064 -5.493 -396.342 2048.715 -3656.718 0.246 -0.045 0.866 -0.03 0.52 -0.85 0.07
1 5.55 555 -0.421 -8.993 3.582 -2.869 -19.470 -7.477 -306.250 1988.604 -3416.724 0.225 0.273 0.886 -0.03 0.52 -0.85 0.07
1 5.56 556 -0.426 -8.931 3.448 -0.458 -19.928 -6.500 -381.352 1988.604 -3536.796 0.251 0.207 1.013 -0.03 0.52 -0.85 0.07
1 5.57 557 -0.302 -8.859 3.213 -2.197 -20.508 -8.331 -396.342 2048.715 -3506.815 0.149 0.131 1.242 -0.03 0.52 -0.85 0.07
1 5.58 558 -0.115 -9.060 3.290 -6.683 -20.386 -6.683 -396.342 2048.715 -3506.815 -0.014 0.328 1.158 -0.03 0.52 -0.85 0.07
1 5.59 559 0.115 -9.553 3.328 -10.498 -18.860 -5.463 -441.312 2003.595 -3476.685 -0.220 0.815 1.107 -0.04 0.52 -0.85 0.07
1 5.60 560 0.230 -9.836 3.414 -1.282 -14.465 -4.730 -441.312 2003.595 -3476.685 -0.294 1.078 0.984 -0.04 0.52 -0.85 0.07
1 5.61 561 0.163 -9.620 3.266 0.946 -13.062 -5.096 -381.352 1958.624 -3416.724 -0.208 0.858 1.124 -0.04 0.52 -0.85 0.07
1 5.62 562 0.005 -9.893 3.261 1.251 -10.925 -3.876 -471.293 1898.663 -3446.705 -0.034 1.128 1.123 -0.04 0.52 -0.85 0.07
1 5.63 563 -0.235 -9.788 2.978 2.502 -10.681 -4.639 -471.293 1898.663 -3446.705 0.219 1.020 1.398 -0.04 0.52 -0.85 0.07
1 5.64 564 -0.536 -9.812 2.729 6.104 -13.916 -4.944 -351.221 1958.624 -3536.796 0.533 1.041 1.642 -0.04 0.52 -0.85 0.07
1 5.65 565 -0.795 -10.104 2.485 4.791 -17.975 -4.974 -351.221 1958.624 -3536.796 0.805 1.332 1.884 -0.04 0.52 -0.85 0.07
1 5.66 566 -0.828 -10.118 2.500 3.845 -23.987 -4.150 -546.244 2123.667 -3581.767 0.852 1.344 1.865 -0.04 0.52 -0.85 0.07
1 5.67 567 -0.532 -12.134 5.344 -3.784 -28.656 1.373 -546.244 2123.667 -3581.767 0.591 3.354 -0.992 -0.05 0.53 -0.85 0.07
1 5.68 568 0.589 -14.557 6.805 -18.707 -16.510 19.287 -471.293 2003.595 -3476.685 -0.519 5.772 -2.463 -0.05 0.53 -0.85 0.07
1 5.69 569 0.498 -12.048 5.397 24.750 -3.357 27.771 -606.355 2108.676 -3491.675 -0.449 3.255 -1.069 -0.05 0.53 -0.85 0.08
1 5.70 570 0.388 -10.492 5.991 23.102 -4.761 29.053 -606.355 2108.676 -3491.675 -0.373 1.720 -1.621 -0.05 0.52 -0.85 0.08
1 5.71 571 0.872 -10.841 6.460 -6.714 1.007 30.457 -516.264 2003.595 -3446.705 -0.894 2.079 -2.071 -0.05 0.52 -0.85 0.08
1 5.72 572 1.111 -10.698 6.014 4.822 4.486 24.017 -516.264 2003.595 -3446.705 -1.175 1.932 -1.634 -0.05 0.52 -0.85 0.08
1 5.73 573 1.250 -10.329 6.345 -0.153 6.622 17.883 -456.303 1988.604 -3416.724 -1.351 1.565 -1.960 -0.05 0.52 -0.85 0.08
1 5.74 574 0.809 -10.123 5.579 -6.226 10.407 13.428 -456.303 1988.604 -3416.724 -0.940 1.362 -1.189 -0.04 0.52 -0.85 0.08
1 5.75 575 0.254 -8.964 4.942 1.740 7.996 3.693 -606.355 1958.624 -3416.724 -0.428 0.201 -0.559 -0.04 0.52 -0.85 0.09
1 5.76 576 0.115 -8.380 5.205 -3.235 5.585 0.244 -366.361 1928.644 -3581.767 -0.293 -0.381 -0.818 -0.04 0.52 -0.85 0.08
1 5.77 577 0.029 -8.418 5.354 -4.608 6.958 -2.686 -366.361 1928.644 -3581.767 -0.207 -0.342 -0.965 -0.04 0.52 -0.85 0.08
1 5.78 578 -0.254 -8.035 5.339 2.594 8.820 -5.005 -471.293 1928.644 -3476.685 0.078 -0.723 -0.946 -0.04 0.52 -0.85 0.08
1 5.79 579 -0.570 -7.528 5.172 9.125 4.364 -2.563 -471.293 1928.644 -3476.685 0.395 -1.223 -0.763 -0.04 0.52 -0.85 0.08
1 5.80 580 -0.680 -7.078 5.387 11.597 -0.977 -0.336 -441.312 1823.712 -3551.786 0.503 -1.663 -0.959 -0.04 0.52 -0.85 0.08
1 5.81 581 -0.532 -6.694 5.651 13.947 -3.967 2.716 -441.312 1823.712 -3551.786 0.352 -2.033 -1.197 -0.04 0.52 -0.85 0.08
1 5.82 582 -0.436 -6.718 5.847 5.493 -4.272 3.326 -516.264 1973.614 -3626.737 0.252 -1.985 -1.347 -0.04 0.52 -0.85 0.08
1 5.83 583 -0.374 -6.857 5.880 1.465 -3.754 3.540 -366.361 2003.595 -3476.685 0.188 -1.839 -1.366 -0.04 0.52 -0.85 0.08
1 5.84 584 -0.158 -6.934 5.962 4.761 -5.280 3.265 -366.361 2003.595 -3476.685 -0.031 -1.753 -1.429 -0.04 0.52 -0.85 0.08
1 5.85 585 0.034 -7.379 5.967 3.937 -1.343 2.197 -426.322 1913.653 -3491.675 -0.222 -1.296 -1.412 -0.04 0.52 -0.85 0.09
1 5.86 586 0.220 -7.939 5.603 -1.221 6.012 -1.282 -441.312 1898.663 -3476.685 -0.409 -0.726 -1.030 -0.04 0.51 -0.85 0.09
1 5.87 587 0.445 -8.433 5.579 0.275 7.477 -1.221 -471.293 1898.663 -3551.786 -0.633 -0.227 -0.994 -0.04 0.51 -0.85 0.09
1 5.88 588 0.532 -8.265 5.325 3.296 4.150 1.495 -471.293 1898.663 -3551.786 -0.718 -0.390 -0.732 -0.04 0.51 -0.85 0.08
1 5.89 589 0.929 -8.002 5.176 3.571 6.439 -2.075 -681.306 2033.575 -3536.796 -1.113 -0.641 -0.560 -0.04 0.51 -0.85 0.08
1 5.90 590 0.905 -8.308 5.133 -2.533 8.118 -4.089 -471.293 1928.644 -3581.767 -1.083 -0.330 -0.508 -0.04 0.51 -0.85 0.08
1 5.91 591 1.250 -8.514 4.966 -3.204 7.416 -7.111 -471.293 1928.644 -3581.767 -1.418 -0.123 -0.339 -0.04 0.51 -0.85 0.08
1 5.92 592 1.360 -8.442 5.133 -1.434 6.805 -12.878 -531.254 1958.624 -3596.757 -1.511 -0.195 -0.506 -0.04 0.51 -0.85 0.08
1 5.93 593 1.532 -8.404 4.913 -0.885 6.470 -17.395 -396.342 2003.595 -3581.767 -1.659 -0.231 -0.280 -0.04 0.51 -0.85 0.08
1 5.94 594 1.427 -8.433 4.908 -5.249 7.233 -22.766 -486.283 2033.575 -3566.776 -1.524 -0.201 -0.273 -0.04 0.51 -0.85 0.08
1 5.95 595 1.259 -8.500 4.798 -4.364 10.925 -25.879 -486.283 2033.575 -3566.776 -1.319 -0.135 -0.163 -0.04 0.51 -0.85 0.08
1 5.96 596 0.685 -8.433 4.745 -3.021 9.155 -27.283 -621.345 2003.595 -3656.718 -0.669 -0.205 -0.115 -0.04 0.51 -0.85 0.07
1 5.97 597 0.646 -8.390 4.808 -3.937 8.667 -26.581 -516.264 1928.644 -3581.767 -0.595 -0.248 -0.179 -0.05 0.51 -0.86 0.07
1 5.98 598 0.163 -8.706 4.803 -0.488 7.568 -27.374 -516.264 1928.644 -3581.767 -0.077 0.068 -0.174 -0.05 0.51 -0.86 0.07
1 5.99 599 -0.172 -8.361 4.678 3.265 5.524 -26.550 -486.283 1958.624 -3566.776 0.291 -0.275 -0.047 -0.05 0.51 -0.86 0.07
1 6.00 600 -0.244 -8.351 4.769 4.547 1.404 -22.522 -351.221 2033.575 -3641.728 0.393 -0.280 -0.131 -0.05 0.51 -0.86 0.06
1 6.01 601 -0.230 -8.102 4.698 4.852 -2.197 -21.179 -366.361 2003.595 -3506.815 0.406 -0.524 -0.051 -0.05 0.51 -0.86 0.06
1 6.02 602 -0.038 -8.208 4.726 5.005 -4.761 -18.585 -366.361 2003.595 -3506.815 0.240 -0.413 -0.070 -0.05 0.51 -0.86 0.06
1 6.03 603 0.134 -8.212 4.769 6.378 -4.608 -15.411 -381.352 1868.683 -3641.728 0.094 -0.402 -0.103 -0.05 0.51 -0.86 0.06
1 6.04 604 0.551 -8.002 4.635 7.568 -4.242 -9.583 -546.244 1823.712 -3581.767 -0.278 -0.599 0.054 -0.05 0.51 -0.86 0.06
1 6.05 605 0.948 -7.911 4.520 9.369 -1.892 -9.491 -546.244 1823.712 -3581.767 -0.658 -0.682 0.182 -0.05 0.51 -0.86 0.06
1 6.06 606 1.149 -7.829 4.798 7.416 1.373 -9.247 -486.283 1958.624 -3566.776 -0.841 -0.755 -0.081 -0.05 0.51 -0.86 0.06
1 6.07 607 1.197 -8.121 4.683 6.256 4.272 -6.866 -516.264 1898.663 -3551.786 -0.872 -0.455 0.047 -0.05 0.51 -0.86 0.06
1 6.08 608 1.513 -8.160 4.707 11.017 9.583 -7.324 -561.234 1913.653 -3716.679 -1.176 -0.410 0.035 -0.05 0.51 -0.86 0.06
1 6.09 609 1.484 -7.868 4.573 11.139 11.963 -7.172 -561.234 1913.653 -3716.679 -1.134 -0.693 0.185 -0.05 0.5 -0.86 0.05
1 6.10 610 1.341 -7.882 4.501 7.843 15.015 -7.965 -486.283 1958.624 -3596.757 -0.980 -0.668 0.274 -0.05 0.5 -0.86 0.05
1 6.11 611 0.977 -8.265 4.267 2.502 18.799 -10.284 -456.303 1988.604 -3641.728 -0.601 -0.271 0.532 -0.05 0.5 -0.86 0.05
1 6.12 612 1.010 -8.256 3.941 5.005 18.250 -9.644 -456.303 1988.604 -3641.728 -0.628 -0.278 0.862 -0.05 0.5 -0.86 0.05
1 6.13 613 0.943 -7.896 4.018 6.500 17.914 -9.399 -591.365 1928.644 -3551.786 -0.557 -0.633 0.793 -0.05 0.5 -0.86 0.05
1 6.14 614 0.953 -8.083 4.156 -1.221 21.027 -9.674 -591.365 1928.644 -3626.737 -0.563 -0.443 0.660 -0.05 0.5 -0.86 0.05
1 6.15 615 0.843 -8.682 3.826 -3.662 24.262 -7.690 -426.322 1868.683 -3671.708 -0.451 0.154 0.987 -0.05 0.5 -0.86 0.04
1 6.16 616 0.752 -8.892 3.797 -0.244 25.757 -6.989 -426.322 1868.683 -3671.708 -0.363 0.360 1.008 -0.05 0.5 -0.86 0.04
1 6.17 617 0.862 -9.319 3.931 -2.533 27.100 -8.545 -561.234 1868.683 -3641.728 -0.479 0.784 0.869 -0.05 0.5 -0.86 0.04
1 6.18 618 0.488 -9.687 3.912 -0.946 29.389 -9.613 -486.283 1868.683 -3596.757 -0.111 1.149 0.883 -0.05 0.5 -0.86 0.04
1 6.19 619 0.182 -9.553 3.769 10.132 25.848 -10.132 -486.283 1868.683 -3596.757 0.183 1.011 1.020 -0.04 0.5 -0.86 0.04
1 6.20 620 -0.153 -9.252 3.975 10.315 22.522 -11.536 -381.352 1988.604 -3671.708 0.512 0.713 0.822 -0.04 0.5 -0.86 0.04
1 6.21 621 -0.096 -9.568 4.190 8.453 19.348 -13.397 -396.342 2003.595 -3731.669 0.451 1.033 0.614 -0.04 0.5 -0.86 0.03
1 6.22 622 -0.053 -9.759 4.195 10.620 17.120 -13.123 -396.342 1898.663 -3551.786 0.409 1.228 0.616 -0.04 0.5 -0.86 0.03
1 6.23 623 -0.273 -9.007 3.979 13.641 13.794 -11.658 -396.342 1898.663 -3551.786 0.630 0.482 0.841 -0.04 0.5 -0.86 0.03
1 6.24 624 -0.383 -8.806 4.032 5.524 14.404 -11.353 -426.322 1868.683 -3716.679 0.742 0.289 0.802 -0.04 0.5 -0.86 0.03
1 6.25 625 -0.656 -8.821 3.989 -3.510 13.550 -11.108 -486.283 2033.575 -3641.728 1.016 0.307 0.851 -0.04 0.5 -0.86 0.03
1 6.26 626 -0.603 -9.381 3.740 -7.050 10.345 -9.125 -486.283 2033.575 -3641.728 0.958 0.857 1.083 -0.04 0.5 -0.86 0.03
1 6.27 627 -0.259 -9.347 3.754 -3.998 10.315 -7.843 -486.283 1958.624 -3716.679 0.610 0.815 1.054 -0.04 0.5 -0.86 0.03
1 6.28 628 0.096 -9.189 3.625 -3.876 11.353 -4.669 -426.322 1958.624 -3596.757 0.253 0.651 1.172 -0.04 0.5 -0.86 0.03
1 6.29 629 0.268 -9.117 3.577 -7.355 12.970 -0.763 -426.322 1958.624 -3596.757 0.074 0.572 1.208 -0.03 0.5 -0.86 0.02
1 6.30 630 0.623 -9.687 3.496 -9.644 16.663 2.258 -306.250 1958.624 -3671.708 -0.291 1.131 1.271 -0.03 0.51 -0.86 0.02
1 6.31 631 0.603 -10.386 4.755 -8.423 16.693 1.770 -246.290 2003.595 -3656.718 -0.285 1.818 -0.009 -0.03 0.51 -0.86 0.02
1 6.32 632 0.642 -11.564 5.981 -16.785 14.618 -4.517 -396.342 1973.614 -3836.750 -0.335 2.985 -1.255 -0.03 0.51 -0.86 0.02
1 6.33 633 1.092 -11.291 5.124 -1.251 10.040 -4.913 -396.192 1973.314 -3837.350 -0.792 2.692 -0.434 -0.03 0.51 -0.86 0.02
1 6.34 634 0.915 -10.171 5.852 9.613 4.486 -6.317 -276.120 1958.324 -3747.259 -0.614 1.575 -1.155 -0.03 0.51 -0.86 0.02
1 6.35 635 0.857 -10.066 6.900 -6.989 2.686 -7.416 -426.172 1913.204 -3597.356 -0.550 1.475 -2.195 -0.03 0.51 -0.86 0.02
1 6.36 636 0.809 -10.281 6.886 -12.085 3.052 -1.862 -426.172 1913.204 -3597.356 -0.495 1.685 -2.191 -0.03 0.51 -0.86 0.02
1 6.37 637 0.259 -10.252 7.188 -10.071 1.251 0.153 -321.091 1928.194 -3627.337 0.055 1.649 -2.506 -0.03 0.51 -0.86 0.02
1 6.38 638 0.359 -9.817 6.661 -1.801 1.007 4.334 -291.110 2048.266 -3507.265 -0.046 1.206 -1.991 -0.03 0.51 -0.86 0.02
1 6.39 639 0.364 -8.399 6.182 8.698 0.977 8.331 -321.091 1973.314 -3837.350 -0.055 -0.214 -1.518 -0.03 0.51 -0.86 0.02
1 6.40 640 0.321 -7.054 6.388 2.838 3.082 12.207 -321.091 1973.314 -3837.350 -0.036 -1.542 -1.690 -0.03 0.51 -0.86 0.02
1 6.41 641 0.321 -6.953 6.407 -7.751 8.514 11.169 -396.192 1898.213 -3762.399 -0.054 -1.635 -1.693 -0.03 0.51 -0.86 0.02
1 6.42 642 0.316 -6.943 5.895 -8.545 9.033 9.155 -291.110 1853.243 -3657.317 -0.069 -1.642 -1.175 -0.03 0.51 -0.86 0.02
1 6.43 643 0.575 -6.685 5.583 -0.061 5.981 5.463 -291.110 1853.243 -3657.317 -0.343 -1.898 -0.858 -0.03 0.51 -0.86 0.02
1 6.44 644 0.862 -5.689 5.512 4.913 4.059 0.885 -306.101 1913.204 -3717.278 -0.639 -2.889 -0.777 -0.03 0.51 -0.86 0.02
1 6.45 645 0.934 -5.387 5.746 0.824 5.127 -0.519 -156.198 2108.227 -3747.259 -0.716 -3.186 -1.004 -0.03 0.51 -0.86 0.02
1 6.46 646 0.814 -5.373 5.885 -8.728 6.958 0.305 -351.071 1868.233 -3822.360 -0.599 -3.198 -1.138 -0.03 0.51 -0.86 0.02
1 6.47 647 0.326 -6.330 5.526 -22.003 6.805 1.373 -351.071 1868.233 -3822.360 -0.115 -2.244 -0.785 -0.02 0.51 -0.86 0.02
1 6.48 648 -0.326 -7.537 5.243 -20.325 3.143 -1.282 -186.179 2003.295 -3657.317 0.527 -1.066 -0.556 -0.02 0.51 -0.86 0.02
1 6.49 649 -0.666 -8.064 5.311 -17.090 -0.946 -1.617 -201.169 1913.204 -3672.308 0.866 -0.548 -0.639 -0.02 0.51 -0.86 0.02
1 6.50 650 -0.929 -8.246 5.550 -16.754 -1.434 -1.984 -201.169 1913.204 -3672.308 1.126 -0.374 -0.893 -0.02 0.51 -0.86 0.02
1 6.51 651 -0.963 -8.758 5.483 -21.301 -2.350 -0.366 -381.202 2033.275 -3747.259 1.156 0.129 -0.842 -0.02 0.51 -0.86 0.02
1 6.52 652 -0.991 -9.319 5.277 -17.517 -6.195 5.524 -231.149 2033.275 -3567.376 1.178 0.678 -0.657 -0.02 0.51 -0.86 0.02
1 6.53 653 -0.862 -9.199 5.176 -11.627 -8.423 11.047 -246.140 2048.266 -3807.370 1.039 0.547 -0.577 -0.02 0.51 -0.86 0.02
1 6.54 654 -0.412 -8.734 5.157 -9.735 -11.932 16.357 -246.140 2048.266 -3807.370 0.574 0.075 -0.572 -0.02 0.52 -0.86 0.02
1 6.55 655 -0.306 -8.615 5.153 -12.573 -11.719 25.665 -156.198 2063.256 -3537.396 0.425 -0.057 -0.589 -0.02 0.52 -0.86 0.03
1 6.56 656 -0.330 -8.653 4.827 -11.017 -13.886 32.562 -351.071 1988.305 -3567.376 0.418 -0.026 -0.275 -0.02 0.52 -0.86 0.03
1 6.57 657 -0.402 -8.514 5.085 -5.157 -12.970 33.905 -351.071 1988.305 -3567.376 0.453 -0.169 -0.543 -0.02 0.52 -0.85 0.03
1 6.58 658 -0.594 -8.394 5.018 -9.399 -12.634 37.048 -231.149 2063.256 -3717.278 0.604 -0.291 -0.479 -0.02 0.52 -0.85 0.03
1 6.59 659 -0.733 -8.548 4.592 -11.353 -15.839 39.398 -291.110 2048.266 -3732.269 0.699 -0.142 -0.062 -0.02 0.52 -0.85 0.04
1 6.60 660 -0.699 -8.548 4.717 -7.782 -16.205 39.948 -321.091 2078.246 -3732.269 0.621 -0.148 -0.197 -0.02 0.52 -0.85 0.04
1 6.61 661 -0.795 -8.701 4.674 -5.890 -15.839 38.056 -321.091 2078.246 -3732.269 0.670 0.002 -0.163 -0.02 0.52 -0.85 0.04
1 6.62 662 -0.589 -8.878 4.664 -6.409 -16.632 38.361 -141.208 2168.188 -3657.317 0.420 0.177 -0.158 -0.02 0.52 -0.85 0.05
1 6.63 663 -0.555 -8.667 4.458 -5.615 -16.815 35.492 -306.101 2063.256 -3567.376 0.302 -0.037 0.037 -0.02 0.52 -0.85 0.05
1 6.64 664 -0.536 -8.409 4.257 -3.204 -15.289 36.072 -306.101 2063.256 -3567.376 0.244 -0.297 0.233 -0.02 0.52 -0.85 0.06
1 6.65 665 -0.488 -8.246 4.089 -1.129 -14.801 30.914 -156.198 2033.275 -3717.278 0.158 -0.459 0.399 -0.02 0.52 -0.85 0.06
1 6.66 666 -0.417 -8.074 4.185 -3.265 -15.808 29.724 -156.198 2033.275 -3822.360 0.056 -0.631 0.302 -0.02 0.52 -0.85 0.06
1 6.67 667 -0.263 -8.160 4.022 -3.540 -15.137 24.628 -156.198 2213.308 -3642.327 -0.125 -0.546 0.461 -0.02 0.52 -0.85 0.06
1 6.68 668 -0.421 -8.165 3.965 -3.815 -15.747 22.644 -156.198 2213.308 -3642.327 0.010 -0.542 0.515 -0.02 0.52 -0.85 0.07
1 6.69 669 -0.661 -8.069 3.869 -4.547 -15.595 20.294 -126.218 2108.227 -3822.360 0.231 -0.639 0.607 -0.02 0.52 -0.85 0.07
1 6.70 670 -0.814 -7.978 3.821 -5.432 -15.564 16.052 -186.179 2123.217 -3702.288 0.350 -0.733 0.644 -0.02 0.52 -0.85 0.07
1 6.71 671 -0.967 -8.040 3.922 -5.737 -15.991 13.550 -186.179 2123.217 -3702.288 0.492 -0.673 0.538 -0.02 0.52 -0.85 0.07
1 6.72 672 -1.073 -8.131 3.821 -6.561 -15.961 13.397 -291.110 2123.217 -3702.288 0.589 -0.585 0.633 -0.02 0.52 -0.85 0.08
1 6.73 673 -1.279 -8.074 3.807 -4.578 -19.470 11.993 -291.110 2123.217 -3702.288 0.786 -0.646 0.639 -0.02 0.52 -0.85 0.08
1 6.74 674 -1.030 -7.987 3.869 -5.920 -21.881 7.843 -231.149 2183.178 -3672.308 0.531 -0.734 0.572 -0.02 0.52 -0.85 0.08
1 6.75 675 -0.967 -8.299 3.826 -8.881 -20.294 7.294 -231.149 2183.178 -3672.308 0.467 -0.426 0.609 -0.02 0.52 -0.85 0.08
1 6.76 676 -0.895 -8.600 3.687 -12.482 -19.318 6.958 -201.169 2213.308 -3672.308 0.396 -0.129 0.739 -0.02 0.52 -0.85 0.08
1 6.77 677 -0.824 -8.998 3.826 -7.507 -20.599 4.852 -231.149 2063.256 -3672.308 0.326 0.252 0.568 -0.02 0.52 -0.85 0.08
1 6.78 678 -0.618 -9.098 3.855 -5.096 -19.898 7.660 -231.149 2063.256 -3672.308 0.125 0.347 0.529 -0.02 0.53 -0.85 0.08
1 6.79 679 -0.340 -9.199 3.740 -4.761 -19.013 7.538 -231.149 2138.207 -3792.379 -0.150 0.444 0.636 -0.02 0.53 -0.85 0.09
1 6.80 680 -0.311 -9.184 3.740 -3.937 -20.508 6.928 -231.149 2138.207 -3792.379 -0.174 0.425 0.628 -0.02 0.53 -0.85 0.09
1 6.81 681 0.072 -9.601 3.745 -0.610 -19.592 5.676 -381.202 2288.259 -3567.376 -0.550 0.838 0.616 -0.03 0.53 -0.85 0.09
1 6.82 682 0.129 -9.577 3.697 2.625 -17.609 4.700 -381.202 2288.259 -3567.376 -0.598 0.811 0.659 -0.03 0.53 -0.85 0.09
1 6.83 683 0.034 -9.352 3.520 5.646 -16.876 2.350 -306.101 2138.207 -3717.278 -0.492 0.584 0.834 -0.03 0.53 -0.85 0.09
1 6.84 684 -0.010 -9.094 3.180 2.075 -15.015 2.472 -351.071 2288.259 -3537.396 -0.425 0.327 1.179 -0.03 0.53 -0.84 0.09
1 6.85 685 -0.225 -9.170 3.165 -2.014 -14.404 1.282 -351.071 2288.259 -3537.396 -0.200 0.401 1.189 -0.03 0.53 -0.84 0.09
1 6.86 686 -0.043 -9.204 3.160 -3.998 -12.573 -0.092 -381.202 2258.279 -3642.327 -0.371 0.429 1.184 -0.03 0.53 -0.84 0.09
1 6.87 687 -0.215 -9.486 3.156 -6.073 -10.254 -1.862 -381.202 2258.279 -3642.327 -0.187 0.705 1.177 -0.03 0.53 -0.84 0.09
1 6.88 688 -0.168 -10.113 3.251 -4.242 -8.240 -2.991 -396.192 2243.289 -3732.269 -0.222 1.324 1.066 -0.03 0.53 -0.84 0.09
1 6.89 689 -0.364 -10.037 3.160 -1.251 -7.721 -3.448 -396.192 2243.289 -3732.269 -0.014 1.240 1.142 -0.04 0.53 -0.84 0.09
1 6.90 690 -0.670 -10.128 2.974 3.235 -9.583 -4.700 -216.159 2168.188 -3702.288 0.304 1.324 1.317 -0.04 0.53 -0.84 0.09
1 6.91 691 -0.747 -10.046 2.931 5.402 -12.573 -4.120 -351.071 2183.178 -3747.259 0.393 1.240 1.355 -0.04 0.53 -0.84 0.09
1 6.92 692 -0.943 -10.276 2.849 7.629 -17.395 -1.099 -351.071 2183.178 -3747.259 0.612 1.467 1.432 -0.04 0.53 -0.84 0.09
1 6.93 693 -0.881 -10.362 3.093 8.759 -22.278 2.319 -456.153 2183.178 -3642.327 0.559 1.553 1.187 -0.04 0.53 -0.84 0.09
1 6.94 694 -0.599 -11.406 4.554 5.432 -24.048 7.538 -456.153 2183.178 -3642.327 0.286 2.600 -0.266 -0.04 0.53 -0.84 0.1
1 6.95 695 0.043 -12.738 5.698 0.214 -18.250 19.043 -456.153 2138.207 -3747.259 -0.354 3.935 -1.402 -0.04 0.53 -0.84 0.1
1 6.96 696 -0.158 -11.416 6.058 24.201 -9.491 27.161 -456.153 2138.207 -3747.259 -0.172 2.617 -1.755 -0.04 0.53 -0.84 0.1
1 6.97 697 0.192 -11.191 7.269 3.387 -6.805 28.442 -381.202 2063.256 -3747.259 -0.550 2.408 -2.937 -0.04 0.53 -0.84 0.1
1 6.98 698 0.713 -12.259 6.915 -7.568 3.296 30.090 -396.192 2198.318 -3702.288 -1.104 3.485 -2.566 -0.04 0.53 -0.84 0.1
1 6.99 699 0.259 -10.310 5.473 20.325 4.517 21.820 -396.192 2198.318 -3702.288 -0.732 1.542 -1.121 -0.04 0.53 -0.84 0.11
1 7.00 700 0.053 -10.022 5.909 9.796 4.730 11.414 -291.110 2198.318 -3762.399 -0.553 1.270 -1.530 -0.04 0.52 -0.84 0.11
1 7.01 701 -0.431 -10.262 5.272 1.953 7.996 5.402 -291.110 2198.318 -3762.399 -0.086 1.515 -0.884 -0.04 0.52 -0.84 0.11
1 7.02 702 -1.020 -9.668 4.803 10.986 5.554 -0.458 -381.202 2183.178 -3717.278 0.493 0.925 -0.407 -0.03 0.52 -0.84 0.11
1 7.03 703 -1.288 -8.806 4.841 11.932 -0.610 -8.118 -381.202 2108.227 -3747.259 0.760 0.072 -0.428 -0.03 0.52 -0.84 0.11
1 7.04 704 -1.307 -8.581 5.090 10.590 -4.822 -9.522 -456.153 2138.207 -3792.379 0.786 -0.143 -0.657 -0.03 0.52 -0.85 0.11
1 7.05 705 -1.269 -8.414 5.430 16.815 -6.928 -8.759 -366.211 2273.269 -3762.399 0.756 -0.302 -0.979 -0.03 0.52 -0.85 0.11
1 7.06 706 -1.226 -7.810 5.464 22.186 -11.078 -6.378 -366.211 2273.269 -3762.399 0.725 -0.892 -0.985 -0.04 0.52 -0.85 0.11
1 7.07 707 -1.010 -6.915 5.492 21.179 -11.353 -3.876 -471.143 2078.246 -3657.317 0.531 -1.748 -0.935 -0.04 0.52 -0.85 0.11
1 7.08 708 -0.632 -6.594 5.492 19.196 -11.231 -2.167 -471.143 2078.246 -3657.317 0.162 -2.048 -0.896 -0.04 0.51 -0.85 0.11
1 7.09 709 -0.402 -6.129 5.502 18.372 -12.116 1.312 -381.202 2183.178 -3672.308 -0.057 -2.499 -0.878 -0.04 0.51 -0.85 0.11
1 7.10 710 0.014 -6.268 5.770 16.449 -11.963 1.343 -366.211 2123.217 -3807.370 -0.466 -2.347 -1.121 -0.04 0.51 -0.85 0.11
1 7.11 711 0.599 -6.465 5.995 5.219 -5.005 -0.366 -366.211 2078.246 -3732.269 -1.044 -2.139 -1.324 -0.04 0.51 -0.85 0.11
1 7.12 712 1.140 -7.092 5.876 -0.031 1.373 -2.716 -456.153 2108.227 -3747.259 -1.581 -1.505 -1.192 -0.04 0.51 -0.85 0.11
1 7.13 713 1.298 -7.647 5.794 -0.397 4.334 -3.906 -456.153 2108.227 -3747.259 -1.727 -0.941 -1.094 -0.04 0.51 -0.85 0.11
1 7.14 714 1.461 -7.365 5.670 3.479 7.813 -9.125 -441.163 2123.217 -3807.370 -1.860 -1.213 -0.946 -0.04 0.51 -0.85 0.11
1 7.15 715 1.279 -7.662 5.684 -3.845 10.956 -13.458 -441.163 2123.217 -3807.370 -1.655 -0.910 -0.949 -0.04 0.51 -0.85 0.11
1 7.16 716 0.752 -7.791 5.492 -7.813 13.123 -15.717 -486.133 2063.256 -3717.278 -1.106 -0.780 -0.754 -0.04 0.51 -0.85 0.1
1 7.17 717 0.551 -8.188 5.315 -8.118 11.475 -24.078 -366.211 2003.295 -3912.301 -0.880 -0.385 -0.579 -0.04 0.51 -0.86 0.1
1 7.18 718 0.239 -8.548 5.200 -3.326 10.498 -30.396 -306.101 1988.305 -3927.292 -0.536 -0.029 -0.468 -0.04 0.51 -0.86 0.1
1 7.19 719 0.034 -8.471 5.095 -1.495 9.491 -30.823 -426.172 2033.275 -3852.340 -0.294 -0.107 -0.364 -0.04 0.51 -0.86 0.1
1 7.20 720 -0.105 -8.495 4.889 -3.357 4.761 -33.539 -426.172 2033.275 -3852.340 -0.118 -0.084 -0.156 -0.04 0.51 -0.86 0.09
1 7.21 721 0.077 -8.864 5.009 -5.280 2.411 -33.325 -426.172 2108.227 -3852.340 -0.214 0.280 -0.282 -0.04 0.51 -0.86 0.09
1 7.22 722 0.038 -8.777 4.587 -3.204 1.251 -28.076 -426.172 2108.227 -3852.340 -0.134 0.191 0.136 -0.05 0.51 -0.86 0.09
1 7.23 723 0.057 -8.710 4.535 -3.418 -1.434 -27.008 -456.153 2183.178 -3897.311 -0.116 0.121 0.184 -0.05 0.51 -0.86 0.09
1 7.24 724 0.192 -8.854 4.587 1.801 -0.397 -27.588 -456.153 2108.227 -3822.360 -0.211 0.263 0.128 -0.05 0.51 -0.86 0.08
1 7.25 725 0.263 -8.844 4.712 0.092 -1.465 -24.048 -351.071 1988.305 -3852.340 -0.246 0.255 0.006 -0.05 0.51 -0.86 0.08
1 7.26 726 0.062 -8.557 4.520 3.296 -1.099 -20.508 -381.202 1913.204 -3852.340 -0.011 -0.032 0.197 -0.05 0.51 -0.86 0.08
1 7.27 727 0.043 -8.342 4.664 6.744 -2.747 -18.402 -381.202 1913.204 -3852.340 0.036 -0.246 0.058 -0.05 0.51 -0.86 0.08
1 7.28 728 0.283 -8.251 4.410 7.935 -4.822 -18.555 -426.172 2108.227 -3822.360 -0.148 -0.325 0.331 -0.05 0.51 -0.86 0.08
1 7.29 729 0.661 -8.117 4.506 9.460 -3.784 -17.700 -426.172 2108.227 -3822.360 -0.498 -0.452 0.247 -0.05 0.5 -0.86 0.07
1 7.30 730 0.661 -8.054 4.530 13.275 -3.845 -17.487 -531.104 1988.305 -3972.262 -0.469 -0.505 0.238 -0.05 0.5 -0.86 0.07
1 7.31 731 0.824 -7.738 4.554 12.054 -4.364 -16.663 -471.143 2078.246 -3732.269 -0.603 -0.811 0.232 -0.06 0.5 -0.86 0.07
1 7.32 732 1.039 -7.968 4.568 11.261 -1.587 -15.472 -456.153 2108.227 -3897.311 -0.789 -0.570 0.235 -0.06 0.5 -0.86 0.07
1 7.33 733 1.302 -7.791 4.473 13.428 0.000 -15.595 -486.133 2063.256 -3972.262 -1.024 -0.737 0.347 -0.06 0.5 -0.86 0.07
1 7.34 734 1.312 -7.839 4.449 12.848 2.075 -15.106 -486.133 2063.256 -3972.262 -1.006 -0.678 0.390 -0.06 0.5 -0.86 0.07
1 7.35 735 1.437 -7.963 4.482 12.116 6.622 -14.557 -381.202 1988.305 -3897.311 -1.104 -0.542 0.375 -0.06 0.5 -0.86 0.07
1 7.36 736 1.384 -7.896 4.200 13.886 11.810 -10.071 -381.202 1988.305 -3897.311 -1.010 -0.587 0.693 -0.06 0.5 -0.86 0.06
1 7.37 737 1.494 -7.628 4.027 13.428 16.419 -8.789 -591.215 2078.246 -3912.301 -1.109 -0.844 0.884 -0.06 0.5 -0.86 0.06
1 7.38 738 1.283 -7.537 4.075 8.881 20.599 -8.087 -426.172 2063.256 -3927.292 -0.900 -0.924 0.854 -0.06 0.5 -0.86 0.06
1 7.39 739 1.269 -7.829 3.879 2.350 24.902 -7.843 -486.133 2033.275 -4047.363 -0.891 -0.625 1.063 -0.06 0.49 -0.87 0.06
1 7.40 740 1.159 -7.700 3.299 1.709 27.802 -3.326 -426.172 2033.275 -3927.292 -0.786 -0.753 1.645 -0.06 0.49 -0.87 0.06
1 7.41 741 1.034 -7.930 3.453 -3.510 28.748 -3.448 -426.172 2033.275 -3927.292 -0.677 -0.521 1.497 -0.05 0.49 -0.87 0.06
1 7.42 742 1.197 -8.739 3.663 -8.942 31.830 -4.272 -546.094 1973.314 -3987.402 -0.857 0.288 1.287 -0.05 0.49 -0.87 0.06
1 7.43 743 1.053 -9.036 3.520 1.587 37.109 -2.014 -546.094 1973.314 -3987.402 -0.742 0.570 1.406 -0.05 0.5 -0.87 0.05
1 7.44 744 0.800 -8.457 3.606 4.822 39.765 -1.740 -516.114 1973.314 -3837.350 -0.508 -0.012 1.318 -0.05 0.5 -0.87 0.05
1 7.45 745 0.560 -8.639 3.802 -4.425 40.436 -6.409 -456.153 1958.324 -3852.340 -0.290 0.168 1.119 -0.04 0.5 -0.87 0.05
1 7.46 746 0.397 -9.443 4.018 -7.751 41.229 -10.071 -456.153 1958.324 -3852.340 -0.145 0.965 0.892 -0.04 0.5 -0.87 0.05
1 7.47 747 0.048 -9.328 4.089 7.904 37.964 -12.970 -366.211 2048.266 -3807.370 0.190 0.843 0.808 -0.04 0.5 -0.86 0.04
1 7.48 748 -0.249 -8.677 3.989 8.484 32.013 -15.961 -366.211 2048.266 -3807.370 0.475 0.192 0.909 -0.04 0.5 -0.86 0.04
1 7.49 749 -0.105 -8.639 3.769 0.824 30.212 -18.921 -186.179 2003.295 -4017.383 0.324 0.158 1.137 -0.04 0.5 -0.87 0.04
1 7.50 750 -0.225 -8.821 3.941 -6.409 26.581 -19.196 -186.179 2003.295 -4017.383 0.444 0.334 0.955 -0.03 0.5 -0.87 0.03
1 7.51 751 -0.239 -8.964 3.816 -8.820 22.492 -18.402 -381.202 1988.305 -3852.340 0.462 0.470 1.066 -0.03 0.5 -0.86 0.03
1 7.52 752 -0.096 -9.759 3.702 -10.529 21.973 -16.480 -276.120 2063.256 -3852.340 0.322 1.255 1.164 -0.03 0.5 -0.86 0.03
1 7.53 753 -0.062 -10.200 4.113 -6.683 23.041 -11.231 -276.120 2063.256 -3852.340 0.289 1.684 0.731 -0.03 0.5 -0.86 0.03
1 7.54 754 -0.493 -11.095 5.679 -11.627 18.921 -12.238 -351.071 1988.305 -4002.393 0.717 2.573 -0.846 -0.03 0.5 -0.86 0.03
1 7.55 755 -0.498 -12.359 5.957 -14.893 17.273 -16.052 -351.071 1988.305 -4002.393 0.727 3.827 -1.142 -0.03 0.5 -0.86 0.02
1 7.56 756 -0.685 -11.943 6.886 0.275 11.231 -16.876 -351.071 2138.207 -3822.360 0.923 3.398 -2.092 -0.03 0.5 -0.86 0.02
1 7.57 757 -0.642 -12.062 8.045 -13.306 3.937 -22.644 -351.071 2138.207 -3822.360 0.892 3.518 -3.252 -0.03 0.5 -0.86 0.02
1 7.58 758 0.508 -11.258 6.872 0.153 1.343 -9.583 -231.149 1988.305 -4002.393 -0.210 2.701 -2.104 -0.03 0.51 -0.86 0.02
1 7.59 759 1.010 -10.501 7.619 0.092 -0.366 -3.540 -366.211 2048.266 -3987.402 -0.703 1.947 -2.847 -0.03 0.51 -0.86 0.02
1 7.60 760 1.676 -10.813 7.470 -15.076 3.998 -5.066 -366.211 2048.266 -3987.402 -1.363 2.256 -2.703 -0.03 0.51 -0.86 0.02
1 7.61 761 2.164 -10.046 6.297 -3.479 11.169 -0.488 -231.149 2108.227 -3972.262 -1.849 1.481 -1.545 -0.03 0.51 -0.86 0.02
1 7.62 762 2.227 -8.184 6.153 7.355 18.219 4.334 -231.149 2108.227 -3972.262 -1.920 -0.380 -1.399 -0.03 0.51 -0.86 0.02
1 7.63 763 2.126 -7.633 6.263 -0.763 24.170 -0.305 -246.140 2078.246 -4062.354 -1.836 -0.924 -1.496 -0.03 0.51 -0.86 0.02
1 7.64 764 1.705 -7.604 5.818 -3.937 29.480 -4.974 -246.140 2078.246 -4062.354 -1.418 -0.946 -1.038 -0.03 0.51 -0.86 0.01
1 7.65 765 1.159 -6.675 5.224 1.038 29.785 -10.132 -291.110 2078.246 -4017.383 -0.876 -1.866 -0.427 -0.02 0.5 -0.86 0.01
1 7.66 766 0.900 -6.187 5.344 0.305 26.581 -11.200 -231.149 1988.305 -4002.393 -0.621 -2.349 -0.538 -0.02 0.5 -0.86 0.01
1 7.67 767 0.804 -5.564 5.344 -4.700 25.238 -11.444 -231.149 1988.305 -4002.393 -0.529 -2.971 -0.537 -0.02 0.5 -0.86 0.01
1 7.68 768 0.393 -5.234 5.267 -6.836 26.276 -11.139 -321.091 2123.217 -4017.383 -0.120 -3.304 -0.465 -0.02 0.5 -0.86 0
1 7.69 769 -0.249 -5.066 5.454 -5.096 25.757 -9.705 -321.091 2123.217 -4017.383 0.517 -3.475 -0.657 -0.02 0.5 -0.86 0
1 7.70 770 -1.379 -5.287 5.488 -8.911 21.271 -6.073 -141.208 2123.217 -3912.301 1.640 -3.259 -0.697 -0.02 0.51 -0.86 0
1 7.71 771 -2.131 -5.713 5.473 -15.869 15.198 -6.165 -141.208 2123.217 -3912.301 2.384 -2.837 -0.691 -0.02 0.51 -0.86 0
1 7.72 772 -2.643 -6.814 5.483 -19.592 8.728 -4.883 -126.218 1913.204 -3972.262 2.893 -1.758 -0.740 0.01 -0.51 0.86 0
1 7.73 773 -2.543 -7.547 5.521 -13.947 3.357 -1.709 -321.091 2048.266 -3987.402 2.772 -1.032 -0.789 0.01 -0.51 0.86 0
1 7.74 774 -2.208 -7.892 5.708 -10.468 0.519 0.671 -321.091 2048.266 -3987.402 2.417 -0.691 -0.983 0.01 -0.51 0.86 0
1 7.75 775 -1.858 -8.591 5.794 -10.010 -2.899 7.233 -306.101 2108.227 -4077.344 2.047 0.005 -1.073 0.01 -0.51 0.86 0
1 7.76 776 -0.982 -8.840 5.727 -9.918 -7.141 17.090 -81.097 2108.227 -4047.363 1.147 0.251 -1.011 -0.01 0.51 -0.86 0
1 7.77 777 -0.608 -8.414 5.703 -8.881 -8.820 21.973 -156.198 2063.256 -4077.344 0.747 -0.180 -0.994 -0.01 0.51 -0.86 0
1 7.78 778 -0.158 -8.323 5.756 -9.369 -10.986 23.529 -156.198 2063.256 -4077.344 0.269 -0.274 -1.052 -0.01 0.51 -0.86 0
1 7.79 779 0.120 -8.390 5.789 -16.388 -10.834 27.527 -21.136 2033.275 -4077.344 -0.035 -0.209 -1.089 -0.01 0.51 -0.86 0.01
1 7.80 780 -0.024 -8.461 5.478 -18.646 -12.054 31.128 -51.117 2033.275 -4077.344 0.052 -0.153 -0.806 -0.01 0.51 -0.86 0.01
1 7.81 781 -0.192 -8.414 5.373 -17.120 -10.407 32.959 -51.117 2033.275 -4077.344 0.188 -0.210 -0.718 -0.01 0.51 -0.86 0.01
1 7.82 782 -0.417 -8.174 5.282 -15.289 -10.071 33.508 -141.208 2168.188 -4062.354 0.376 -0.458 -0.642 -0.01 0.51 -0.86 0.02
1 7.83 783 -0.776 -7.949 5.100 -16.846 -8.820 33.661 -306.101 2108.227 -3927.292 0.696 -0.690 -0.474 -0.01 0.51 -0.86 0.02
1 7.84 784 -1.015 -8.155 5.052 -23.834 -11.749 32.501 -156.198 2183.178 -4047.363 0.894 -0.493 -0.443 -0.01 0.51 -0.86 0.02
1 7.85 785 -1.092 -8.634 4.860 -20.752 -11.383 30.945 -156.198 2183.178 -4047.363 0.928 -0.026 -0.275 -0 0.52 -0.86 0.02
1 7.86 786 -1.006 -8.725 4.745 -18.921 -12.817 33.081 37.476 2080.195 -3984.854 0.803 0.054 -0.183 -0 0.52 -0.86 0.03
1 7.87 787 -0.900 -8.500 4.568 -14.832 -10.925 31.036 7.495 2245.237 -3879.772 0.620 -0.191 -0.047 -0 0.52 -0.85 0.03
1 7.88 788 -0.886 -8.179 4.506 -14.923 -11.627 29.114 7.495 2245.237 -3879.772 0.569 -0.519 -0.001 -0 0.52 -0.85 0.03
1 7.89 789 -0.876 -8.351 4.415 -15.442 -12.939 27.954 -187.378 2245.237 -3984.854 0.526 -0.353 0.074 -0 0.52 -0.85 0.04
1 7.90 790 -0.857 -8.576 4.247 -14.465 -14.008 27.802 -127.417 2335.179 -3894.763 0.475 -0.136 0.224 -0 0.52 -0.85 0.04
1 7.91 791 -0.761 -8.605 4.338 -12.604 -14.862 24.536 -82.296 2140.156 -3924.743 0.351 -0.114 0.117 -0 0.52 -0.85 0.04
1 7.92 792 -0.924 -8.557 4.224 -12.909 -14.710 23.254 -82.296 2140.156 -3924.743 0.488 -0.168 0.216 -0 0.52 -0.85 0.04
1 7.93 793 -1.053 -8.734 4.065 -9.460 -16.602 24.506 7.495 2245.237 -3909.753 0.593 0.002 0.359 -0 0.52 -0.85 0.05
1 7.94 794 -1.245 -8.955 4.224 -7.416 -18.494 22.217 -82.296 2290.208 -3924.743 0.738 0.214 0.179 -0 0.52 -0.85 0.05
1 7.95 795 -1.068 -8.964 4.027 -6.165 -19.409 21.973 -82.296 2290.208 -3924.743 0.540 0.220 0.367 -0 0.53 -0.85 0.05
1 7.96 796 -1.264 -8.945 3.874 -1.526 -22.034 19.104 -37.326 2320.188 -3834.802 0.717 0.199 0.513 -0 0.53 -0.85 0.05
1 7.97 797 -1.307 -8.782 3.979 -3.937 -24.780 22.400 -52.316 2290.208 -3924.743 0.745 0.036 0.405 -0 0.53 -0.85 0.06
1 7.98 798 -1.164 -8.715 3.788 -0.702 -25.910 17.761 -142.407 2320.188 -3984.854 0.586 -0.032 0.592 -0 0.53 -0.85 0.06
1 7.99 799 -1.298 -8.528 3.649 -2.533 -28.931 17.944 -142.407 2320.188 -3984.854 0.708 -0.218 0.731 -0 0.53 -0.85 0.06
1 8.00 800 -0.967 -8.466 3.711 -1.465 -32.044 14.221 -82.296 2260.228 -3999.844 0.368 -0.281 0.667 -0 0.53 -0.85 0.06
1 8.01 801 -0.953 -8.361 3.644 -2.899 -33.417 13.275 -127.417 2215.257 -3894.763 0.351 -0.387 0.732 -0 0.53 -0.85 0.07
1 8.02 802 -0.924 -8.409 3.601 -5.798 -36.621 8.728 -127.417 2215.257 -3894.763 0.330 -0.343 0.769 -0.01 0.53 -0.85 0.07
1 8.03 803 -0.785 -8.658 3.711 -6.805 -37.445 5.859 -22.335 2260.228 -3969.864 0.203 -0.098 0.652 -0.01 0.53 -0.85 0.07
1 8.04 804 -0.599 -8.576 3.553 -7.996 -37.262 3.510 -112.427 2350.169 -3879.772 0.034 -0.185 0.801 -0.01 0.53 -0.85 0.07
1 8.05 805 -0.608 -8.859 3.563 -7.751 -35.797 0.427 -202.368 2260.228 -3969.864 0.064 0.091 0.782 -0.01 0.53 -0.85 0.08
1 8.06 806 -0.589 -9.232 3.405 -8.392 -34.760 -1.221 -202.368 2260.228 -3969.864 0.069 0.458 0.929 -0.02 0.53 -0.85 0.08
1 8.07 807 -0.474 -9.314 3.481 -5.066 -33.569 -0.519 -217.358 2275.218 -3804.821 -0.022 0.531 0.838 -0.02 0.53 -0.85 0.08
1 8.08 808 -0.350 -9.266 3.405 -2.502 -32.166 -0.977 -202.368 2290.208 -3999.844 -0.123 0.477 0.904 -0.02 0.53 -0.84 0.08
1 8.09 809 -0.316 -9.352 3.232 -1.434 -30.945 -3.510 -202.368 2290.208 -3999.844 -0.106 0.554 1.063 -0.03 0.53 -0.84 0.08
1 8.10 810 -0.546 -9.472 3.093 -1.221 -31.860 -4.852 -277.319 2380.149 -3999.844 0.151 0.669 1.196 -0.03 0.53 -0.84 0.08
1 8.11 811 -0.939 -9.520 3.069 -0.427 -34.638 -5.005 -322.440 2350.169 -3939.733 0.571 0.712 1.213 -0.03 0.53 -0.84 0.08
1 8.12 812 -1.149 -9.333 3.041 0.153 -37.140 -2.930 -383.000 2262.176 -3921.595 0.808 0.522 1.235 -0.03 0.53 -0.84 0.08
1 8.13 813 -1.063 -9.357 3.160 -1.129 -37.964 -0.275 -383.000 2262.176 -3921.595 0.745 0.542 1.110 -0.03 0.53 -0.84 0.09
1 8.14 814 -0.771 -10.027 2.940 -3.143 -36.286 7.050 -368.010 2277.167 -3981.556 0.472 1.208 1.323 -0.04 0.53 -0.84 0.09
1 8.15 815 -0.498 -10.204 2.940 2.350 -36.163 11.292 -397.991 2127.264 -3876.625 0.213 1.379 1.311 -0.04 0.53 -0.84 0.09
1 8.16 816 -0.292 -9.903 2.931 8.514 -37.048 13.519 -397.991 2127.264 -3876.625 0.020 1.073 1.312 -0.04 0.53 -0.84 0.09
1 8.17 817 -0.364 -9.826 2.840 7.965 -39.154 14.099 -278.069 2217.206 -4041.667 0.097 0.998 1.406 -0.04 0.53 -0.84 0.1
1 8.18 818 -0.450 -10.056 2.777 10.010 -41.504 15.198 -383.000 2142.254 -3846.644 0.190 1.229 1.471 -0.05 0.53 -0.84 0.1
1 8.19 819 -0.623 -10.181 2.926 12.390 -42.175 14.313 -383.000 2142.254 -3846.644 0.368 1.356 1.328 -0.05 0.53 -0.84 0.1
1 8.20 820 -0.781 -10.104 2.677 14.740 -43.854 12.268 -487.932 2337.277 -4041.667 0.534 1.283 1.586 -0.05 0.53 -0.84 0.1
1 8.21 821 -0.804 -10.473 2.720 14.343 -46.478 11.993 -518.062 2277.167 -4086.638 0.566 1.656 1.553 -0.05 0.53 -0.84 0.11
1 8.22 822 -0.402 -11.339 4.133 13.550 -45.410 15.900 -487.932 2262.176 -4041.667 0.174 2.527 0.149 -0.05 0.53 -0.84 0.11
1 8.23 823 0.589 -13.485 6.431 2.777 -34.180 27.466 -487.932 2262.176 -4041.667 -0.806 4.682 -2.128 -0.06 0.53 -0.84 0.11
1 8.24 824 0.623 -12.896 6.091 30.304 -4.913 35.370 -697.945 2352.268 -3981.556 -0.877 4.105 -1.766 -0.06 0.53 -0.84 0.12
1 8.25 825 1.025 -12.000 6.694 29.083 -6.622 32.318 -487.932 2217.206 -4176.579 -1.321 3.234 -2.324 -0.06 0.52 -0.84 0.12
1 8.26 826 1.824 -11.828 6.527 17.914 4.272 27.863 -487.932 2217.206 -4176.579 -2.160 3.080 -2.121 -0.05 0.52 -0.84 0.12
1 8.27 827 1.135 -10.837 5.488 32.349 8.514 22.644 -548.043 2397.238 -4161.589 -1.508 2.105 -1.054 -0.05 0.52 -0.84 0.12
1 8.28 828 0.527 -9.170 5.646 17.578 -2.594 12.482 -622.994 2322.137 -3981.556 -0.931 0.464 -1.166 -0.05 0.52 -0.84 0.12
1 8.29 829 1.269 -8.993 5.243 3.326 -2.258 -1.709 -518.062 2322.137 -4086.638 -1.690 0.304 -0.731 -0.05 0.52 -0.85 0.12
1 8.30 830 1.025 -9.079 4.899 15.472 1.221 -13.977 -518.062 2322.137 -4086.638 -1.438 0.397 -0.373 -0.05 0.52 -0.85 0.12
1 8.31 831 0.383 -8.686 5.641 22.064 4.425 -20.966 -487.932 2292.157 -4101.628 -0.735 0.028 -1.064 -0.05 0.51 -0.85 0.12
1 8.32 832 -0.057 -8.399 6.024 21.820 5.707 -21.484 -518.062 2247.186 -4131.608 -0.262 -0.242 -1.413 -0.05 0.51 -0.85 0.12
1 8.33 833 -0.493 -7.882 6.383 23.590 5.096 -21.729 -518.062 2247.186 -4131.608 0.203 -0.740 -1.733 -0.05 0.51 -0.85 0.12
1 8.34 834 -0.872 -7.255 6.077 27.191 1.404 -19.989 -533.053 2142.254 -4176.579 0.606 -1.343 -1.381 -0.05 0.51 -0.85 0.12
1 8.35 835 -1.288 -6.297 6.091 24.506 -5.402 -10.712 -533.053 2112.274 -4251.680 1.043 -2.274 -1.346 -0.05 0.5 -0.85 0.12
1 8.36 836 -1.240 -5.612 5.991 19.684 -9.338 -6.683 -593.014 2127.264 -4086.638 1.007 -2.932 -1.197 -0.05 0.5 -0.86 0.12
1 8.37 837 -1.044 -5.492 6.058 12.756 -12.085 -3.754 -593.014 2127.264 -4086.638 0.824 -3.032 -1.228 -0.05 0.5 -0.86 0.12
1 8.38 838 -0.785 -5.876 6.283 -2.350 -12.970 0.275 -608.004 2112.274 -4221.550 0.593 -2.633 -1.424 -0.06 0.5 -0.86 0.12
1 8.39 839 0.330 -7.370 6.345 -4.089 -9.918 3.052 -637.984 2292.157 -4326.631 -0.515 -1.136 -1.481 -0.06 0.5 -0.86 0.12
1 8.40 840 1.087 -8.102 6.460 -1.038 -4.822 6.622 -638.134 2298.303 -4315.389 -1.267 -0.398 -1.585 -0.06 0.5 -0.86 0.12
1 8.41 841 1.192 -8.193 6.311 4.669 -2.014 9.033 -638.134 2073.299 -4165.486 -1.371 -0.299 -1.424 -0.06 0.5 -0.86 0.12
1 8.42 842 1.456 -8.227 6.254 7.721 -0.061 6.928 -548.043 2253.332 -4375.500 -1.634 -0.256 -1.349 -0.06 0.5 -0.86 0.12
1 8.43 843 1.671 -8.131 6.062 7.751 3.601 1.038 -653.125 2133.260 -4150.496 -1.845 -0.339 -1.137 -0.06 0.5 -0.86 0.12
1 8.44 844 1.700 -8.155 5.765 11.780 3.906 -8.637 -653.125 2133.260 -4150.496 -1.864 -0.305 -0.821 -0.06 0.49 -0.86 0.12
1 8.45 845 1.585 -7.997 5.646 8.179 4.395 -13.123 -818.167 2193.371 -4240.438 -1.729 -0.450 -0.678 -0.06 0.49 -0.86 0.12
1 8.46 846 1.250 -8.236 5.411 5.280 5.341 -20.355 -533.053 2268.322 -4165.486 -1.339 -0.192 -0.411 -0.06 0.49 -0.86 0.11
1 8.47 847 1.302 -8.567 5.138 5.707 4.089 -28.534 -533.053 2268.322 -4165.486 -1.353 0.144 -0.128 -0.06 0.49 -0.86 0.11
1 8.48 848 1.235 -8.404 4.956 8.453 5.188 -30.640 -608.154 2148.250 -4315.389 -1.241 -0.012 0.065 -0.06 0.49 -0.86 0.11
1 8.49 849 1.135 -8.050 4.765 5.859 4.669 -34.271 -638.134 2148.250 -4270.418 -1.094 -0.360 0.267 -0.06 0.49 -0.86 0.11
1 8.50 850 0.742 -8.370 4.482 -0.092 5.890 -35.431 -683.105 2073.299 -4315.389 -0.652 -0.034 0.558 -0.06 0.49 -0.86 0.1
1 8.51 851 0.369 -8.466 4.650 3.937 5.615 -35.889 -683.105 2073.299 -4315.389 -0.231 0.064 0.392 -0.07 0.49 -0.86 0.1
1 8.52 852 0.239 -8.356 4.468 6.531 5.615 -30.945 -728.076 2133.260 -4300.398 -0.055 -0.045 0.576 -0.07 0.49 -0.86 0.1
1 8.53 853 -0.110 -7.930 4.286 8.087 4.303 -25.299 -698.095 2133.260 -4300.398 0.364 -0.460 0.772 -0.07 0.49 -0.87 0.09
1 8.54 854 -0.196 -8.011 4.410 6.897 2.899 -20.874 -698.095 2133.260 -4300.398 0.477 -0.373 0.656 -0.07 0.49 -0.87 0.09
1 8.55 855 -0.086 -7.863 4.353 7.996 2.075 -15.747 -563.033 2118.270 -4090.385 0.386 -0.516 0.722 -0.07 0.49 -0.87 0.09
1 8.56 856 0.062 -7.781 4.449 8.728 1.831 -13.031 -548.043 2133.260 -4300.398 0.253 -0.591 0.635 -0.07 0.49 -0.87 0.09
1 8.57 857 0.105 -7.911 4.506 7.477 2.045 -10.193 -623.144 2058.309 -4330.379 0.223 -0.454 0.589 -0.07 0.49 -0.87 0.09
1 8.58 858 0.498 -7.992 4.439 10.681 4.639 -7.080 -623.144 2058.309 -4330.379 -0.161 -0.367 0.665 -0.07 0.48 -0.87 0.09
1 8.59 859 0.680 -7.681 4.247 12.238 7.111 -6.195 -653.125 2058.309 -4150.496 -0.337 -0.671 0.868 -0.07 0.48 -0.87 0.09
1 8.60 860 1.121 -7.537 3.998 7.965 13.275 -7.141 -788.037 1998.348 -4270.418 -0.772 -0.796 1.147 -0.07 0.48 -0.87 0.08
1 8.61 861 1.370 -7.523 3.850 3.357 18.463 -8.789 -788.037 1998.348 -4270.418 -1.022 -0.804 1.307 -0.07 0.48 -0.87 0.08
1 8.62 862 1.403 -7.489 3.663 1.770 24.933 -10.742 -623.144 2013.338 -4300.398 -1.059 -0.833 1.500 -0.07 0.48 -0.87 0.08
1 8.63 863 1.255 -7.322 3.400 -3.693 31.586 -11.292 -623.144 2013.338 -4300.398 -0.918 -0.999 1.766 -0.06 0.48 -0.87 0.08
1 8.64 864 1.164 -7.748 3.237 -14.191 37.628 -12.939 -638.134 1998.348 -4315.389 -0.837 -0.576 1.925 -0.06 0.48 -0.87 0.08
1 8.65 865 1.149 -7.609 2.820 -14.343 40.009 -13.275 -638.134 1998.348 -4315.389 -0.834 -0.723 2.329 -0.06 0.48 -0.87 0.08
1 8.66 866 1.235 -8.040 3.007 -21.057 43.335 -14.099 -458.102 1998.348 -4345.369 -0.935 -0.302 2.127 -0.06 0.48 -0.87 0.07
1 8.67 867 1.226 -8.974 3.371 -23.132 46.234 -16.510 -563.033 2073.299 -4240.438 -0.941 0.618 1.742 -0.06 0.49 -0.87 0.07
1 8.68 868 1.049 -9.237 3.740 -6.714 50.232 -15.991 -563.033 2073.299 -4240.438 -0.784 0.844 1.312 -0.05 0.49 -0.87 0.06
1 8.69 869 0.694 -8.323 4.310 1.160 48.187 -18.951 -698.095 2133.260 -4330.379 -0.440 -0.079 0.730 -0.05 0.49 -0.87 0.06
1 8.70 870 0.503 -7.647 4.425 -2.441 46.051 -24.109 -698.095 2133.260 -4330.379 -0.255 -0.755 0.614 -0.05 0.49 -0.87 0.06
1 8.71 871 0.254 -7.571 4.516 -11.383 41.412 -30.090 -518.062 2208.361 -4300.398 -0.004 -0.834 0.518 -0.05 0.49 -0.87 0.05
1 8.72 872 0.192 -7.959 4.362 -21.210 31.159 -33.783 -518.062 2208.361 -4300.398 0.068 -0.454 0.657 -0.04 0.49 -0.87 0.05
1 8.73 873 0.187 -8.437 4.042 -23.407 24.353 -31.677 -548.043 2013.338 -4405.480 0.091 0.011 0.954 -0.04 0.49 -0.87 0.05
1 8.74 874 0.268 -8.902 4.065 -23.041 21.790 -28.931 -368.160 2178.381 -4405.480 0.032 0.458 0.900 -0.04 0.49 -0.87 0.04
1 8.75 875 0.153 -8.696 3.539 -15.656 23.102 -19.562 -368.160 2178.381 -4405.480 0.183 0.218 1.365 -0.04 0.5 -0.87 0.04
1 8.76 876 0.057 -8.749 2.787 -16.968 27.008 -10.864 -458.102 2268.322 -4315.389 0.282 0.256 2.091 -0.04 0.5 -0.86 0.04
1 8.77 877 0.168 -9.084 3.141 -21.393 30.579 -4.486 -458.102 2268.322 -4315.389 0.161 0.572 1.705 -0.04 0.5 -0.86 0.03
1 8.78 878 0.249 -10.860 6.876 -29.205 29.572 -8.240 -518.062 2253.332 -4300.398 0.062 2.327 -2.068 -0.04 0.5 -0.86 0.03
1 8.79 879 -0.077 -14.054 7.192 -33.814 27.008 -31.159 -473.092 2178.381 -4330.379 0.385 5.492 -2.435 -0.04 0.51 -0.86 0.03
1 8.80 880 -0.172 -10.271 5.971 30.762 14.984 -23.254 -458.102 2268.322 -4345.369 0.502 1.677 -1.273 -0.04 0.51 -0.86 0.03
1 8.81 881 -0.426 -7.379 7.566 -0.977 -4.822 -27.283 -548.043 2433.365 -4225.447 0.774 -1.199 -2.839 -0.04 0.51 -0.86 0.03
1 8.82 882 0.632 -11.789 7.140 -61.554 -3.357 -30.640 -548.043 2433.365 -4225.447 -0.208 3.200 -2.441 -0.04 0.51 -0.86 0.02
1 8.83 883 0.670 -13.197 6.407 -30.182 -2.380 -19.257 -488.082 2223.352 -4165.486 -0.207 4.571 -1.780 -0.04 0.51 -0.86 0.02
1 8.84 884 0.752 -11.617 6.809 -6.805 -1.648 -13.275 -488.082 2223.352 -4165.486 -0.262 2.977 -2.210 -0.04 0.51 -0.86 0.02
1 8.85 885 0.718 -10.267 6.383 -9.003 4.089 -9.613 -593.164 2358.264 -4150.496 -0.210 1.624 -1.792 -0.04 0.51 -0.86 0.02
1 8.86 886 0.527 -9.850 5.866 -11.810 8.087 0.061 -443.111 2478.335 -4255.428 -0.012 1.201 -1.287 -0.04 0.51 -0.86 0.02
1 8.87 887 0.814 -9.103 6.120 1.892 4.089 12.146 -383.150 2418.375 -4315.389 -0.308 0.448 -1.552 -0.04 0.52 -0.86 0.02
1 8.88 888 1.470 -8.323 6.115 9.003 2.258 9.369 -548.043 2328.283 -4255.428 -0.982 -0.333 -1.546 -0.04 0.52 -0.86 0.02
1 8.89 889 2.059 -7.556 6.024 10.345 4.822 5.920 -548.043 2328.283 -4255.428 -1.583 -1.092 -1.439 -0.04 0.51 -0.86 0.02
1 8.90 890 2.212 -6.556 5.751 8.423 15.961 -1.556 -458.102 2418.375 -4165.486 -1.736 -2.065 -1.114 -0.04 0.51 -0.86 0.02
1 8.91 891 1.781 -6.043 5.646 9.125 19.501 -2.472 -458.102 2418.375 -4165.486 -1.300 -2.562 -0.982 -0.04 0.51 -0.86 0.02
1 8.92 892 1.159 -5.627 5.540 6.744 19.775 -3.204 -443.111 2403.384 -4300.398 -0.688 -2.972 -0.862 -0.04 0.51 -0.86 0.02
1 8.93 893 0.575 -5.622 5.694 -1.068 21.271 -4.547 -443.111 2403.384 -4225.447 -0.113 -2.971 -1.005 -0.04 0.51 -0.86 0.02
1 8.94 894 -0.306 -6.608 5.804 -15.808 24.689 -7.568 -398.141 2358.264 -4225.447 0.759 -1.987 -1.118 -0.04 0.51 -0.86 0.01
1 8.95 895 -0.737 -7.145 5.617 -14.343 24.231 -8.575 -353.170 2418.375 -4270.418 1.183 -1.459 -0.946 -0.03 0.51 -0.86 0.01
1 8.96 896 -1.379 -7.729 5.464 -13.794 19.592 -9.186 -353.170 2418.375 -4270.418 1.815 -0.881 -0.804 -0.03 0.51 -0.86 0.01
1 8.97 897 -1.532 -8.691 5.555 -16.876 12.878 -6.470 -323.040 2358.264 -4300.398 1.942 0.071 -0.912 -0.03 0.51 -0.86 0.01
1 8.98 898 -1.480 -9.165 5.234 -11.810 14.313 -5.402 -323.040 2358.264 -4300.398 1.875 0.537 -0.604 -0.03 0.51 -0.86 0.01
1 8.99 899 -1.159 -8.864 5.167 -3.906 9.918 1.068 -428.121 2268.322 -4165.486 1.535 0.231 -0.544 -0.03 0.51 -0.86 0.01
1 9.00 900 -0.963 -8.677 5.574 -2.899 4.700 11.841 -488.082 2493.326 -4135.506 1.317 0.044 -0.950 -0.03 0.51 -0.86 0.01
1 9.01 901 -0.963 -8.471 5.349 -5.493 4.089 15.350 -443.111 2403.384 -4225.447 1.291 -0.161 -0.721 -0.03 0.51 -0.86 0.01
1 9.02 902 -0.613 -8.595 5.220 -5.249 1.007 21.851 -323.040 2598.257 -4120.366 0.908 -0.038 -0.593 -0.02 0.51 -0.86 0.01
1 9.03 903 -0.723 -8.528 5.167 -5.798 -2.075 29.877 -323.040 2598.257 -4120.366 0.984 -0.108 -0.542 -0.02 0.51 -0.86 0.01
1 9.04 904 -0.723 -8.054 5.143 1.282 -1.526 28.809 -323.040 2478.335 -4225.447 0.899 -0.582 -0.514 -0.02 0.51 -0.86 0.02
1 9.05 905 -1.063 -8.155 4.942 -7.050 -3.876 34.851 -323.040 2478.335 -4225.447 1.194 -0.480 -0.309 -0.02 0.51 -0.86 0.02
1 9.06 906 -1.188 -7.930 4.971 -8.728 -9.430 38.361 -398.141 2508.316 -4180.477 1.266 -0.708 -0.343 -0.02 0.51 -0.86 0.02
1 9.07 907 -1.207 -8.447 4.913 -9.186 -8.484 39.124 -368.160 2478.335 -4120.366 1.232 -0.195 -0.292 -0.02 0.51 -0.86 0.03
1 9.08 908 -1.068 -8.093 4.731 -7.629 -10.468 40.833 -383.150 2343.273 -4060.405 1.037 -0.553 -0.118 -0.02 0.51 -0.86 0.03
1 9.09 909 -0.915 -8.179 4.750 -8.331 -11.231 40.711 -458.102 2388.244 -4135.506 0.828 -0.470 -0.143 -0.01 0.51 -0.86 0.03
1 9.10 910 -0.781 -8.227 4.741 -9.003 -10.132 39.948 -458.102 2388.244 -4135.506 0.641 -0.425 -0.140 -0.01 0.51 -0.86 0.04
1 9.11 911 -0.613 -8.136 4.650 -9.155 -9.857 37.232 -323.040 2508.316 -4075.395 0.422 -0.519 -0.057 -0.01 0.52 -0.86 0.04
1 9.12 912 -0.575 -8.270 4.511 -8.453 -9.522 34.363 -323.040 2508.316 -4075.395 0.293 -0.391 0.066 -0.01 0.52 -0.86 0.05
1 9.13 913 -0.503 -8.102 4.501 -8.881 -9.216 31.311 -293.059 2478.335 -4150.496 0.181 -0.561 0.068 -0.01 0.52 -0.85 0.05
1 9.14 914 -0.565 -8.227 4.324 -9.003 -8.667 28.595 -278.069 2493.326 -4060.405 0.209 -0.440 0.237 -0.01 0.52 -0.85 0.05
1 9.15 915 -0.666 -8.203 4.367 -9.888 -9.430 26.001 -308.049 2568.277 -4240.438 0.277 -0.468 0.183 -0.01 0.52 -0.85 0.05
1 9.16 916 -1.073 -8.136 4.171 -6.622 -11.383 21.149 -143.157 2478.335 -4150.496 0.656 -0.539 0.370 -0.01 0.52 -0.85 0.06
1 9.17 917 -1.283 -7.939 4.080 -7.416 -13.489 18.677 -145.705 2483.132 -4141.952 0.842 -0.737 0.455 -0.01 0.52 -0.85 0.06
1 9.18 918 -1.595 -8.394 4.032 -6.928 -16.205 16.052 -205.666 2648.175 -4201.913 1.131 -0.285 0.496 -0.01 0.52 -0.85 0.06
1 9.19 919 -1.437 -8.610 3.917 -5.096 -20.325 12.787 -205.666 2648.175 -4201.913 0.939 -0.076 0.595 -0.01 0.52 -0.85 0.06
1 9.20 920 -1.355 -8.505 3.922 -1.038 -21.973 11.627 -280.767 2543.093 -4126.961 0.849 -0.184 0.584 -0.01 0.52 -0.85 0.07
1 9.21 921 -1.221 -8.160 3.769 -0.214 -22.919 10.559 -235.796 2423.171 -4126.961 0.708 -0.528 0.737 -0.01 0.52 -0.85 0.07
1 9.22 922 -0.891 -8.188 3.764 -3.876 -23.254 9.705 -235.796 2423.171 -4126.961 0.375 -0.500 0.740 -0.01 0.52 -0.85 0.07
1 9.23 923 -0.599 -8.447 3.812 -7.660 -21.912 8.423 -235.796 2573.074 -4232.043 0.083 -0.244 0.687 -0.01 0.52 -0.85 0.07
1 9.24 924 -0.397 -8.428 3.601 -5.951 -20.416 7.629 -235.796 2573.074 -4232.043 -0.115 -0.269 0.887 -0.01 0.52 -0.85 0.07
1 9.25 925 -0.364 -8.088 3.668 -6.989 -20.722 7.202 -370.708 2603.204 -4111.971 -0.144 -0.614 0.811 -0.01 0.52 -0.85 0.07
1 9.26 926 -0.536 -8.150 3.639 -16.083 -21.362 3.235 -370.708 2603.204 -4111.971 0.042 -0.565 0.816 -0.02 0.52 -0.85 0.08
1 9.27 927 -0.469 -8.514 3.520 -20.142 -18.921 -0.610 -250.787 2603.204 -4037.020 -0.014 -0.213 0.914 -0.02 0.52 -0.85 0.08
1 9.28 928 -0.680 -9.055 3.534 -20.569 -17.822 -4.761 -310.748 2498.123 -4022.030 0.212 0.313 0.870 -0.02 0.52 -0.85 0.08
1 9.29 929 -0.694 -9.424 3.716 -19.836 -18.860 -9.155 -310.748 2498.123 -4022.030 0.246 0.666 0.658 -0.02 0.53 -0.85 0.08
1 9.30 930 -0.680 -9.750 3.544 -17.517 -19.531 -10.529 -235.796 2498.123 -4052.010 0.256 0.976 0.801 -0.02 0.53 -0.85 0.08
1 9.31 931 -0.618 -10.018 3.290 -11.292 -18.127 -11.566 -235.796 2498.123 -4052.010 0.221 1.229 1.028 -0.03 0.53 -0.85 0.08
1 9.32 932 -0.484 -10.128 3.251 -6.866 -20.538 -8.972 -310.748 2723.126 -4022.030 0.113 1.327 1.043 -0.03 0.53 -0.84 0.08
1 9.33 933 -0.469 -9.989 3.141 -3.021 -21.240 -7.294 -310.748 2723.126 -4022.030 0.124 1.178 1.135 -0.03 0.53 -0.84 0.08
1 9.34 934 -0.215 -10.027 2.787 -0.183 -23.529 -3.845 -295.757 2633.185 -3992.049 -0.084 1.203 1.465 -0.03 0.53 -0.84 0.08
1 9.35 935 -0.120 -10.032 2.950 3.021 -23.071 -2.045 -295.757 2558.083 -3992.049 -0.159 1.203 1.294 -0.03 0.53 -0.84 0.08
1 9.36 936 -0.158 -10.056 2.830 3.448 -21.942 0.702 -295.757 2558.083 -3992.049 -0.103 1.224 1.409 -0.04 0.53 -0.84 0.08
1 9.37 937 -0.215 -10.171 2.677 3.601 -21.271 2.167 -400.689 2708.136 -3992.049 -0.031 1.336 1.557 -0.04 0.53 -0.84 0.08
1 9.38 938 -0.345 -10.377 2.509 6.256 -23.102 8.026 -400.689 2708.136 -3992.049 0.109 1.539 1.718 -0.04 0.53 -0.84 0.08
1 9.39 939 -0.388 -10.377 2.375 9.491 -25.574 9.857 -430.669 2723.126 -3946.929 0.158 1.537 1.848 -0.04 0.53 -0.84 0.08
1 9.40 940 -0.469 -10.439 2.471 11.047 -28.320 12.024 -430.669 2723.126 -3946.929 0.242 1.598 1.751 -0.04 0.53 -0.84 0.09
1 9.41 941 -0.584 -10.971 3.687 10.834 -32.074 16.296 -490.780 2648.175 -3946.929 0.361 2.139 0.555 -0.04 0.53 -0.84 0.09
1 9.42 942 -0.096 -12.790 5.540 3.082 -29.602 20.294 -400.689 2708.136 -3886.968 -0.129 3.966 -1.283 -0.04 0.53 -0.84 0.09
1 9.43 943 0.512 -13.997 6.316 5.890 -19.440 31.647 -400.689 2708.136 -3886.968 -0.750 5.175 -2.054 -0.05 0.53 -0.84 0.09
1 9.44 944 0.484 -12.431 6.187 33.203 -12.299 37.750 -475.190 2636.183 -3908.554 -0.755 3.620 -1.905 -0.04 0.53 -0.84 0.1
1 9.45 945 0.503 -11.019 6.761 31.769 -12.238 38.727 -475.190 2636.183 -3908.554 -0.817 2.233 -2.430 -0.04 0.53 -0.84 0.1
1 9.46 946 1.235 -11.014 6.134 10.712 -7.355 33.600 -565.282 2696.144 -3968.515 -1.593 2.250 -1.764 -0.04 0.52 -0.84 0.1
1 9.47 947 1.767 -11.095 6.340 14.710 -3.906 28.961 -565.282 2696.144 -3968.515 -2.165 2.342 -1.950 -0.04 0.52 -0.84 0.11
1 9.48 948 1.556 -9.252 6.077 18.127 2.716 20.142 -490.181 2546.091 -3968.515 -2.023 0.525 -1.641 -0.04 0.52 -0.85 0.11
1 9.49 949 0.828 -8.581 5.598 11.810 7.233 9.979 -490.181 2771.095 -4013.635 -1.321 -0.132 -1.139 -0.04 0.52 -0.85 0.11
1 9.50 950 0.034 -8.423 5.440 4.303 7.507 1.404 -490.181 2771.095 -4013.635 -0.529 -0.279 -0.959 -0.04 0.52 -0.85 0.11
1 9.51 951 -0.455 -8.481 5.449 -0.122 7.599 -5.402 -490.181 2546.091 -4013.635 -0.039 -0.215 -0.957 -0.04 0.52 -0.85 0.11
1 9.52 952 -0.776 -7.978 5.636 4.364 2.930 -11.261 -430.220 2621.192 -4013.635 0.287 -0.714 -1.136 -0.04 0.52 -0.85 0.11
1 9.53 953 -0.872 -7.681 5.330 7.568 0.885 -11.749 -490.181 2621.192 -4013.635 0.394 -1.004 -0.815 -0.04 0.52 -0.85 0.11
1 9.54 954 -0.986 -7.236 5.339 10.345 -3.448 -11.108 -490.181 2621.192 -4013.635 0.521 -1.440 -0.805 -0.04 0.52 -0.85 0.11
1 9.55 955 -1.097 -6.613 5.449 13.336 -8.270 -7.751 -535.301 2546.091 -4223.648 0.645 -2.051 -0.892 -0.04 0.52 -0.85 0.11
1 9.56 956 -1.025 -6.110 5.713 7.568 -10.620 -3.662 -490.181 2471.140 -4013.635 0.600 -2.531 -1.110 -0.04 0.51 -0.85 0.11
1 9.57 957 -1.073 -6.326 5.938 0.977 -12.421 -4.150 -490.181 2471.140 -4013.635 0.662 -2.311 -1.325 -0.04 0.51 -0.85 0.11
1 9.58 958 -0.713 -6.824 5.852 -3.052 -13.397 -1.892 -490.181 2501.121 -4073.596 0.317 -1.813 -1.237 -0.04 0.51 -0.85 0.11
1 9.59 959 -0.278 -7.446 6.129 -2.563 -12.573 -0.977 -535.301 2621.192 -4043.616 -0.107 -1.188 -1.510 -0.04 0.51 -0.85 0.11
1 9.60 960 0.326 -8.016 6.096 3.754 -11.108 -1.801 -640.233 2546.091 -4043.616 -0.701 -0.612 -1.465 -0.04 0.51 -0.85 0.11
1 9.61 961 0.642 -8.093 6.053 8.789 -8.362 -0.549 -640.233 2546.091 -4043.616 -1.003 -0.528 -1.405 -0.05 0.51 -0.85 0.11
1 9.62 962 0.680 -7.614 5.799 7.172 -6.195 -0.946 -535.301 2501.121 -3968.515 -1.027 -0.995 -1.129 -0.05 0.51 -0.85 0.11
1 9.63 963 0.646 -7.872 5.622 1.282 -5.341 -4.181 -625.243 2711.134 -3953.524 -0.965 -0.717 -0.914 -0.05 0.51 -0.85 0.11
1 9.64 964 0.843 -7.978 5.521 1.740 -4.669 -11.688 -625.243 2711.134 -3953.524 -1.141 -0.606 -0.802 -0.05 0.51 -0.85 0.11
1 9.65 965 0.910 -8.193 5.344 0.549 -3.784 -15.381 -550.292 2486.130 -3878.573 -1.180 -0.386 -0.614 -0.05 0.51 -0.85 0.11
1 9.66 966 1.015 -8.184 5.296 -0.061 -2.899 -20.172 -595.262 2516.111 -3983.655 -1.251 -0.393 -0.560 -0.05 0.51 -0.85 0.11
1 9.67 967 0.900 -8.026 4.980 1.801 -3.540 -27.069 -595.262 2606.052 -3953.524 -1.096 -0.548 -0.237 -0.05 0.51 -0.85 0.11
1 9.68 968 0.991 -7.805 4.793 0.610 -2.594 -27.985 -595.262 2606.052 -3953.524 -1.143 -0.765 -0.043 -0.05 0.5 -0.85 0.11
1 9.69 969 0.963 -7.796 4.760 -2.014 -2.502 -29.144 -640.233 2501.121 -3893.563 -1.068 -0.773 -0.005 -0.06 0.5 -0.86 0.1
1 9.70 970 0.551 -7.987 4.669 -3.815 0.122 -29.327 -730.174 2606.052 -3953.524 -0.561 -0.580 0.089 -0.06 0.5 -0.86 0.1
1 9.71 971 0.354 -8.251 4.587 0.519 1.160 -27.680 -730.174 2606.052 -3953.524 -0.321 -0.317 0.170 -0.06 0.5 -0.86 0.1
1 9.72 972 0.148 -8.260 4.401 1.343 -1.495 -24.506 -640.233 2396.189 -3938.534 -0.077 -0.306 0.360 -0.06 0.5 -0.86 0.1
1 9.73 973 0.057 -8.208 4.477 1.923 -3.662 -21.179 -700.194 2606.052 -4028.625 0.048 -0.356 0.286 -0.06 0.5 -0.86 0.1
1 9.74 974 0.072 -8.342 4.496 0.793 -2.197 -16.602 -730.174 2516.111 -3908.554 0.063 -0.220 0.270 -0.06 0.5 -0.86 0.09
1 9.75 975 0.340 -8.471 4.415 0.519 -2.350 -13.580 -730.174 2516.111 -3908.554 -0.180 -0.089 0.353 -0.06 0.5 -0.86 0.09
1 9.76 976 0.402 -8.514 4.511 5.524 -0.397 -10.559 -700.194 2516.111 -3983.655 -0.221 -0.045 0.259 -0.07 0.5 -0.86 0.09
1 9.77 977 0.828 -8.169 4.362 6.744 -0.702 -8.606 -775.295 2486.130 -3953.524 -0.630 -0.386 0.413 -0.07 0.5 -0.86 0.09
1 9.78 978 1.317 -8.217 4.501 7.324 2.686 -9.399 -775.295 2486.130 -3953.524 -1.087 -0.327 0.293 -0.07 0.5 -0.86 0.09
1 9.79 979 1.432 -8.136 4.516 6.866 5.463 -8.850 -565.282 2396.189 -4043.616 -1.184 -0.402 0.289 -0.07 0.5 -0.86 0.09
1 9.80 980 1.556 -8.064 4.391 6.775 8.972 -8.331 -685.204 2351.068 -3968.515 -1.293 -0.468 0.424 -0.07 0.5 -0.86 0.09
1 9.81 981 1.628 -7.973 4.262 5.096 13.031 -9.735 -819.966 2398.587 -4038.669 -1.351 -0.553 0.562 -0.07 0.5 -0.86 0.09
1 9.82 982 1.489 -7.829 4.061 0.641 17.792 -11.108 -819.966 2398.587 -4038.669 -1.198 -0.692 0.770 -0.07 0.5 -0.86 0.09
1 9.83 983 1.619 -7.580 3.917 -0.183 20.599 -12.299 -655.073 2413.728 -3903.757 -1.315 -0.939 0.917 -0.07 0.5 -0.86 0.09
1 9.84 984 1.384 -7.753 3.970 -3.906 23.560 -12.970 -685.054 2473.688 -3888.767 -1.070 -0.766 0.865 -0.07 0.5 -0.86 0.08
1 9.85 985 1.441 -7.920 3.529 -8.392 26.154 -11.536 -685.054 2473.688 -3888.767 -1.123 -0.605 1.294 -0.07 0.5 -0.86 0.08
1 9.86 986 1.355 -8.107 3.630 -6.378 27.222 -12.146 -849.946 2443.708 -4053.659 -1.037 -0.423 1.185 -0.06 0.5 -0.86 0.08
1 9.87 987 1.355 -8.758 3.879 -10.651 29.450 -12.085 -624.943 2368.607 -3978.708 -1.037 0.223 0.926 -0.06 0.5 -0.86 0.08
1 9.88 988 1.250 -9.065 3.702 -8.301 33.203 -8.789 -730.024 2338.626 -3873.776 -0.931 0.520 1.086 -0.06 0.5 -0.86 0.07
1 9.89 989 1.044 -8.380 3.381 0.641 38.361 -8.301 -730.024 2338.626 -3873.776 -0.732 -0.172 1.395 -0.06 0.5 -0.86 0.07
1 9.90 990 0.761 -7.858 3.515 -8.484 39.856 -10.254 -639.933 2548.640 -4008.688 -0.460 -0.696 1.257 -0.06 0.5 -0.86 0.07
1 9.91 991 0.713 -8.361 3.563 -19.684 41.412 -13.855 -624.943 2488.679 -3768.695 -0.428 -0.196 1.205 -0.06 0.5 -0.86 0.07
1 9.92 992 0.532 -9.405 3.836 -13.306 40.497 -16.907 -624.943 2488.679 -3768.695 -0.264 0.820 0.883 -0.05 0.51 -0.86 0.06
1 9.93 993 0.163 -9.390 3.874 -1.862 38.635 -18.494 -549.992 2413.728 -3948.728 0.102 0.796 0.827 -0.05 0.51 -0.86 0.06
1 9.94 994 -0.057 -9.050 4.061 -0.061 36.682 -19.348 -535.001 2503.669 -3963.718 0.319 0.453 0.635 -0.05 0.51 -0.86 0.06
1 9.95 995 -0.081 -9.161 4.185 -3.052 32.257 -20.081 -535.001 2503.669 -3963.718 0.342 0.561 0.506 -0.05 0.51 -0.86 0.05
1 9.96 996 0.110 -9.539 4.367 0.122 27.344 -16.815 -549.992 2413.728 -3903.757 0.153 0.935 0.318 -0.05 0.51 -0.86 0.05
1 9.97 997 0.374 -9.285 4.310 3.479 23.651 -12.817 -549.992 2443.708 -3903.757 -0.109 0.680 0.372 -0.05 0.51 -0.86 0.05
1 9.98 998 0.651 -9.089 4.549 3.418 20.630 -9.766 -685.054 2503.669 -3753.705 -0.386 0.484 0.134 -0.04 0.51 -0.86 0.05
1 9.99 999 0.656 -8.993 4.271 -1.923 20.294 -6.073 -685.054 2503.669 -3753.705 -0.391 0.390 0.415 -0.04 0.51 -0.86 0.05
1 10.00 1000 0.680 -9.659 3.338 -8.514 23.743 1.068 -609.953 2308.646 -3933.737 -0.426 1.049 1.336 -0.04 0.51 -0.86 0.04
1 10.01 1001 0.685 -9.764 3.180 -7.507 24.963 4.120 -475.041 2338.626 -3873.776 -0.447 1.144 1.476 -0.04 0.51 -0.86 0.04
1 10.02 1002 0.488 -10.760 5.148 -12.939 25.116 2.472 -475.041 2338.626 -3873.776 -0.270 2.128 -0.513 -0.04 0.51 -0.86 0.04
1 10.03 1003 0.134 -13.149 6.680 -30.212 21.820 -12.878 -490.031 2428.718 -3783.685 0.069 4.506 -2.066 -0.04 0.51 -0.86 0.04
1 10.04 1004 -0.010 -11.727 4.865 17.273 16.327 -11.047 -369.959 2413.728 -3768.695 0.217 3.066 -0.285 -0.04 0.51 -0.86 0.04
1 10.05 1005 -0.182 -9.764 6.398 20.325 6.989 -12.299 -399.939 2368.607 -3903.757 0.394 1.109 -1.805 -0.04 0.51 -0.86 0.04
