COL1	TIME	ACC_X	ACC_Y	ACC_Z	GYR_X	GYR_Y	GYR_Z	MAG_X	MAG_Y	MAG_Z	LACC_X	LACC_Y	LACC_Z	QUAT_X	QUAT_Y	QUAT_Z	QUAT_W
1 0.00 0 0.110 -9.046 3.721 -0.519 0.031 1.526 -234.447 2527.953 -3972.112 0.043 0.028 0.114 -0.04 0.55 -0.83 0.04
1 0.01 1 0.235 -8.945 3.740 -0.549 -0.397 1.495 -234.447 2527.953 -3972.112 -0.082 -0.073 0.094 -0.04 0.55 -0.83 0.04
1 0.02 2 0.077 -9.098 3.864 0.641 -0.092 1.312 -309.398 2527.953 -4077.044 0.076 0.080 -0.031 -0.04 0.55 -0.83 0.04
1 0.03 3 0.125 -8.979 3.735 1.190 -0.275 1.526 -309.398 2527.953 -4077.044 0.028 -0.039 0.098 -0.04 0.55 -0.83 0.04
1 0.04 4 0.177 -9.031 3.807 0.641 -0.458 1.282 -384.350 2602.904 -3897.011 -0.024 0.014 0.027 -0.04 0.55 -0.83 0.04
1 0.05 5 0.311 -8.892 3.893 -1.129 -0.671 1.526 -264.428 2572.924 -3972.112 -0.158 -0.125 -0.060 -0.04 0.55 -0.83 0.04
1 0.06 6 0.350 -8.988 3.816 -0.427 -0.488 0.854 -264.428 2572.924 -3972.112 -0.197 -0.030 0.017 -0.04 0.55 -0.83 0.04
1 0.07 7 0.201 -9.113 3.769 0.183 -0.244 0.916 -324.389 2587.914 -4062.054 -0.048 0.095 0.065 -0.04 0.55 -0.83 0.04
1 0.08 8 0.134 -9.007 3.697 -0.122 -0.214 0.702 -234.447 2453.002 -4002.093 0.020 -0.011 0.137 -0.04 0.55 -0.83 0.04
1 0.09 9 0.187 -9.022 3.773 -0.366 -0.946 1.099 -324.389 2407.881 -3912.151 -0.033 0.004 0.059 -0.04 0.55 -0.83 0.04
1 0.10 10 -0.014 -9.012 3.726 -0.275 -0.336 1.312 -324.389 2407.881 -3912.151 0.168 -0.006 0.107 -0.04 0.55 -0.83 0.04
1 0.11 11 0.192 -9.060 3.721 -0.549 -0.763 0.854 -324.389 2437.862 -4092.034 -0.039 0.041 0.111 -0.04 0.55 -0.83 0.04
1 0.12 12 0.206 -8.983 3.807 0.183 -0.610 1.068 -354.369 2557.934 -4017.083 -0.053 -0.035 0.024 -0.04 0.55 -0.83 0.04
1 0.13 13 0.225 -9.012 3.740 0.153 -1.373 1.434 -354.369 2557.934 -4017.083 -0.072 -0.007 0.090 -0.04 0.55 -0.83 0.04
1 0.14 14 0.192 -8.969 3.812 0.061 -0.275 1.953 -264.428 2647.875 -3972.112 -0.038 -0.050 0.018 -0.04 0.55 -0.83 0.04
1 0.15 15 0.172 -9.137 3.884 -0.214 0.031 1.678 -429.320 2437.862 -3957.122 -0.019 0.117 -0.054 -0.04 0.55 -0.83 0.04
1 0.16 16 0.034 -9.070 3.826 -0.214 -0.214 1.892 -414.330 2602.904 -3972.112 0.119 0.050 0.004 -0.04 0.55 -0.83 0.04
1 0.17 17 0.206 -8.993 3.807 0.122 -0.336 1.495 -414.330 2602.904 -3972.112 -0.053 -0.027 0.022 -0.04 0.55 -0.83 0.04
1 0.18 18 0.244 -9.012 3.793 -0.183 0.000 1.312 -249.438 2557.934 -3957.122 -0.091 -0.008 0.037 -0.04 0.55 -0.83 0.04
1 0.19 19 0.139 -9.117 3.869 -0.610 -0.275 1.038 -384.350 2527.953 -3897.011 0.014 0.098 -0.040 -0.04 0.55 -0.83 0.04
1 0.20 20 0.196 -9.003 3.797 -0.092 -0.549 1.282 -384.350 2527.953 -3897.011 -0.044 -0.017 0.032 -0.04 0.55 -0.83 0.04
1 0.21 21 0.072 -8.950 3.663 -0.366 -0.580 0.732 -309.398 2602.904 -3927.142 0.081 -0.070 0.166 -0.04 0.55 -0.83 0.04
1 0.22 22 0.153 -9.113 3.658 0.092 0.153 0.763 -234.447 2572.924 -4002.093 -0.001 0.093 0.170 -0.04 0.55 -0.83 0.04
1 0.23 23 0.077 -8.945 3.807 0.092 -0.427 1.099 -294.408 2512.963 -3987.103 0.076 -0.075 0.020 -0.04 0.55 -0.83 0.04
1 0.24 24 0.134 -9.137 3.692 0.092 -0.275 1.221 -294.408 2512.963 -3987.103 0.018 0.116 0.135 -0.04 0.55 -0.83 0.04
1 0.25 25 0.134 -9.098 3.749 0.031 0.092 1.404 -354.369 2407.881 -3987.103 0.018 0.077 0.077 -0.04 0.55 -0.83 0.04
1 0.26 26 0.115 -8.916 3.726 0.031 0.122 1.465 -264.428 2422.872 -4077.044 0.037 -0.105 0.100 -0.04 0.55 -0.83 0.04
1 0.27 27 0.057 -8.926 3.754 0.305 -1.099 1.282 -264.428 2422.872 -4077.044 0.094 -0.095 0.071 -0.04 0.55 -0.83 0.04
1 0.28 28 0.134 -9.031 3.754 -0.092 -0.946 1.312 -354.369 2557.934 -4062.054 0.016 0.010 0.071 -0.04 0.55 -0.83 0.04
1 0.29 29 0.043 -8.940 3.721 0.427 -0.824 1.831 -294.408 2482.982 -3957.122 0.107 -0.081 0.104 -0.04 0.55 -0.83 0.04
1 0.30 30 0.153 -9.041 3.730 0.275 -1.801 2.014 -534.402 2482.982 -3957.122 -0.004 0.019 0.094 -0.04 0.55 -0.83 0.04
1 0.31 31 0.201 -8.964 3.721 0.183 -1.068 1.190 -534.402 2482.982 -3957.122 -0.052 -0.058 0.103 -0.04 0.55 -0.83 0.04
1 0.32 32 0.101 -9.122 3.740 0.214 -0.610 1.465 -309.398 2453.002 -4077.044 0.049 0.100 0.083 -0.04 0.55 -0.83 0.04
1 0.33 33 0.024 -9.017 3.821 0.153 -1.282 1.648 -309.398 2497.973 -3927.142 0.125 -0.006 0.001 -0.04 0.55 -0.83 0.04
1 0.34 34 0.187 -9.151 3.754 0.671 -1.404 1.862 -309.398 2497.973 -3927.142 -0.038 0.129 0.068 -0.04 0.55 -0.83 0.04
1 0.35 35 0.101 -9.074 3.788 0.946 -0.885 1.678 -384.350 2527.953 -4002.093 0.049 0.051 0.034 -0.04 0.55 -0.83 0.04
1 0.36 36 0.215 -8.983 3.869 0.488 -1.190 1.404 -339.379 2527.953 -3927.142 -0.066 -0.040 -0.049 -0.04 0.55 -0.83 0.04
1 0.37 37 0.101 -9.084 3.711 0.000 -0.977 1.495 -249.438 2482.982 -3957.122 0.049 0.061 0.109 -0.04 0.55 -0.83 0.04
1 0.38 38 0.139 -9.132 3.855 -0.610 -1.190 1.678 -249.438 2482.982 -3957.122 0.010 0.108 -0.035 -0.04 0.55 -0.83 0.04
1 0.39 39 0.129 -9.098 3.764 -0.397 -0.885 0.824 -429.320 2437.862 -3987.103 0.020 0.075 0.056 -0.04 0.55 -0.83 0.04
1 0.40 40 0.077 -9.132 3.778 0.275 -1.373 0.916 -249.438 2587.914 -3957.122 0.073 0.108 0.041 -0.04 0.55 -0.83 0.04
1 0.41 41 0.220 -8.902 3.773 0.031 -1.068 1.587 -249.438 2587.914 -3957.122 -0.071 -0.122 0.045 -0.04 0.55 -0.83 0.04
1 0.42 42 0.134 -8.921 3.702 0.244 -0.671 1.221 -384.350 2377.901 -3972.112 0.015 -0.103 0.117 -0.04 0.55 -0.83 0.04
1 0.43 43 0.077 -9.026 3.730 -0.244 -0.336 1.068 -399.340 2512.963 -3987.103 0.073 0.002 0.088 -0.04 0.55 -0.83 0.04
1 0.44 44 0.206 -9.098 3.716 0.305 -1.007 1.617 -339.379 2527.953 -4002.093 -0.057 0.074 0.102 -0.04 0.55 -0.83 0.04
1 0.45 45 0.168 -9.098 3.702 1.251 -0.732 1.434 -339.379 2527.953 -4002.093 -0.018 0.074 0.117 -0.04 0.55 -0.83 0.04
1 0.46 46 0.072 -9.079 3.759 1.740 -0.732 1.709 -339.379 2602.904 -4077.044 0.078 0.056 0.061 -0.04 0.55 -0.83 0.04
1 0.47 47 0.196 -9.141 3.682 1.099 -1.221 1.617 -234.447 2422.872 -4002.093 -0.047 0.118 0.139 -0.04 0.55 -0.83 0.04
1 0.48 48 0.187 -9.094 3.716 0.519 -1.160 2.289 -234.447 2422.872 -4002.093 -0.037 0.071 0.106 -0.04 0.55 -0.83 0.04
1 0.49 49 0.163 -9.041 3.860 -0.153 -0.946 1.526 -339.379 2677.855 -4152.145 -0.013 0.018 -0.039 -0.04 0.55 -0.83 0.04
1 0.50 50 0.134 -9.041 3.769 -0.397 -1.038 2.167 -324.389 2587.914 -3912.151 0.016 0.018 0.052 -0.04 0.55 -0.83 0.04
1 0.51 51 0.153 -9.041 3.587 -0.214 -0.519 2.014 -384.350 2527.953 -3972.112 -0.003 0.017 0.234 -0.04 0.55 -0.83 0.04
1 0.52 52 0.225 -8.892 3.658 -0.885 -0.641 2.014 -384.350 2527.953 -3972.112 -0.075 -0.132 0.161 -0.04 0.55 -0.83 0.04
1 0.53 53 0.129 -8.892 3.668 -0.366 -1.038 1.678 -174.336 2587.914 -3987.103 0.021 -0.132 0.151 -0.04 0.55 -0.83 0.04
1 0.54 54 0.153 -8.945 3.816 -0.336 -0.519 1.923 -309.398 2453.002 -3927.142 -0.003 -0.079 0.002 -0.04 0.55 -0.83 0.04
1 0.55 55 0.096 -9.103 3.682 0.275 -0.793 2.228 -309.398 2453.002 -3927.142 0.055 0.079 0.136 -0.04 0.55 -0.83 0.04
1 0.56 56 0.148 -9.103 3.826 0.275 0.000 0.916 -414.330 2572.924 -3897.011 0.002 0.078 -0.009 -0.04 0.55 -0.83 0.04
1 0.57 57 0.249 -9.050 3.682 0.061 -0.336 0.946 -219.307 2482.982 -3882.021 -0.098 0.026 0.135 -0.04 0.55 -0.83 0.04
1 0.58 58 0.254 -9.074 3.706 0.732 -0.397 1.160 -219.307 2482.982 -3882.021 -0.102 0.050 0.111 -0.04 0.55 -0.83 0.04
1 0.59 59 0.225 -9.127 3.802 1.068 -0.153 1.038 -204.317 2497.973 -4002.093 -0.073 0.102 0.015 -0.04 0.55 -0.83 0.04
1 0.60 60 0.235 -9.089 3.706 0.427 -0.549 1.495 -249.438 2557.934 -3987.103 -0.081 0.064 0.110 -0.04 0.55 -0.83 0.04
1 0.61 61 0.235 -9.094 3.745 -0.549 0.122 1.129 -309.398 2453.002 -4002.093 -0.081 0.068 0.072 -0.04 0.55 -0.83 0.04
1 0.62 62 0.192 -9.036 3.759 -0.336 0.000 1.251 -309.398 2453.002 -4002.093 -0.038 0.011 0.057 -0.03 0.55 -0.83 0.04
1 0.63 63 0.096 -9.046 3.778 0.031 0.092 1.312 -339.379 2453.002 -4032.073 0.059 0.020 0.037 -0.03 0.55 -0.83 0.04
1 0.64 64 0.168 -9.055 3.730 -0.366 -0.183 1.495 -429.320 2437.862 -3882.021 -0.013 0.029 0.084 -0.04 0.55 -0.83 0.04
1 0.65 65 0.115 -9.046 3.663 0.488 -0.732 1.068 -429.320 2437.862 -3882.021 0.040 0.020 0.151 -0.04 0.55 -0.83 0.04
1 0.66 66 0.057 -8.979 3.625 0.519 -0.519 1.648 -309.398 2572.924 -3867.031 0.098 -0.048 0.188 -0.04 0.55 -0.83 0.04
1 0.67 67 0.105 -8.931 3.721 0.610 -0.977 2.045 -264.428 2572.924 -3972.112 0.050 -0.096 0.091 -0.04 0.55 -0.83 0.04
1 0.68 68 0.172 -8.979 3.740 0.488 -0.458 1.678 -294.408 2437.862 -3957.122 -0.018 -0.048 0.072 -0.04 0.55 -0.83 0.04
1 0.69 69 0.158 -9.065 3.793 1.007 -0.824 2.014 -294.408 2437.862 -3957.122 -0.004 0.038 0.019 -0.03 0.55 -0.83 0.04
1 0.70 70 0.177 -9.113 3.745 0.732 -0.977 2.441 -324.389 2512.963 -3987.103 -0.023 0.085 0.066 -0.03 0.55 -0.83 0.04
1 0.71 71 0.187 -9.012 3.807 0.122 -0.427 2.045 -324.389 2512.963 -3837.050 -0.032 -0.016 0.003 -0.03 0.55 -0.83 0.04
1 0.72 72 0.096 -8.916 3.702 -0.214 -0.488 1.831 -324.389 2512.963 -3837.050 0.059 -0.111 0.108 -0.03 0.55 -0.83 0.04
1 0.73 73 0.249 -8.907 3.639 -0.061 -0.305 1.770 -294.408 2482.982 -3957.122 -0.094 -0.121 0.170 -0.03 0.55 -0.83 0.04
1 0.74 74 0.158 -8.902 3.759 0.946 -0.671 1.068 -354.369 2632.885 -3987.103 -0.003 -0.126 0.049 -0.03 0.55 -0.83 0.04
1 0.75 75 0.206 -9.175 3.745 1.007 -1.160 2.045 -324.389 2437.862 -3987.103 -0.050 0.147 0.065 -0.04 0.55 -0.83 0.04
1 0.76 76 0.225 -9.065 3.721 0.336 -0.366 1.648 -324.389 2437.862 -3987.103 -0.069 0.037 0.088 -0.04 0.55 -0.83 0.04
1 0.77 77 0.168 -9.218 3.821 1.221 -0.275 1.312 -264.428 2527.953 -4032.073 -0.011 0.190 -0.013 -0.03 0.55 -0.83 0.04
1 0.78 78 0.168 -9.194 3.797 0.397 -0.488 1.495 -324.389 2482.982 -4122.015 -0.012 0.166 0.012 -0.03 0.55 -0.83 0.04
1 0.79 79 0.125 -9.184 3.658 0.671 -0.305 1.495 -324.389 2482.982 -4122.015 0.031 0.156 0.150 -0.03 0.55 -0.83 0.04
1 0.80 80 0.278 -9.094 3.678 0.793 -0.946 1.282 -309.398 2497.973 -3927.142 -0.122 0.065 0.130 -0.03 0.55 -0.83 0.04
1 0.81 81 0.235 -9.084 3.769 0.458 -0.732 1.343 -429.320 2482.982 -3957.122 -0.078 0.055 0.039 -0.03 0.55 -0.83 0.04
1 0.82 82 0.254 -9.012 3.773 0.580 -0.427 1.770 -339.379 2572.924 -4002.093 -0.097 -0.017 0.034 -0.03 0.55 -0.83 0.04
1 0.83 83 0.086 -9.065 3.635 0.519 -0.671 1.770 -339.379 2572.924 -4002.093 0.071 0.036 0.172 -0.03 0.55 -0.83 0.04
1 0.84 84 0.297 -8.935 3.687 0.854 -0.916 2.106 -219.307 2557.934 -4017.083 -0.140 -0.094 0.119 -0.03 0.55 -0.83 0.04
1 0.85 85 0.139 -9.103 3.673 0.702 -1.099 1.892 -384.350 2572.924 -4002.093 0.017 0.074 0.134 -0.03 0.55 -0.83 0.04
1 0.86 86 0.302 -9.103 3.596 0.977 -1.617 2.197 -384.350 2572.924 -4002.093 -0.145 0.074 0.210 -0.03 0.55 -0.83 0.04
1 0.87 87 0.206 -9.094 3.826 1.038 -1.129 2.289 -324.389 2512.963 -4017.083 -0.050 0.064 -0.020 -0.03 0.55 -0.83 0.04
1 0.88 88 0.196 -9.098 3.678 1.221 -1.068 2.136 -489.431 2302.950 -3897.011 -0.039 0.069 0.129 -0.04 0.55 -0.83 0.04
1 0.89 89 0.029 -8.945 3.860 1.068 -1.129 2.502 -354.369 2557.934 -3957.122 0.128 -0.084 -0.053 -0.04 0.55 -0.83 0.04
1 0.90 90 0.220 -9.026 3.816 0.702 -1.190 2.502 -354.369 2557.934 -3957.122 -0.064 -0.002 -0.008 -0.04 0.55 -0.83 0.04
1 0.91 91 0.311 -8.964 3.721 0.916 -0.702 1.312 -354.369 2482.982 -3987.103 -0.155 -0.064 0.088 -0.04 0.55 -0.83 0.04
1 0.92 92 0.120 -9.050 3.850 1.648 -0.549 2.197 -309.398 2497.973 -3822.060 0.038 0.022 -0.042 -0.04 0.55 -0.83 0.04
1 0.93 93 0.148 -9.108 3.812 1.038 0.061 2.289 -309.398 2497.973 -3822.060 0.009 0.080 -0.001 -0.04 0.55 -0.83 0.04
1 0.94 94 0.177 -8.959 3.654 1.495 -0.305 2.167 -54.415 2572.924 -3972.112 -0.021 -0.067 0.159 -0.04 0.55 -0.83 0.04
1 0.95 95 0.182 -8.993 3.869 1.099 -0.458 1.678 -264.428 2602.904 -3897.011 -0.026 -0.032 -0.053 -0.03 0.55 -0.83 0.04
1 0.96 96 0.206 -9.046 3.735 0.732 -0.305 1.404 -324.389 2557.934 -3987.103 -0.050 0.021 0.082 -0.03 0.55 -0.83 0.04
1 0.97 97 0.230 -9.070 3.778 1.373 -0.641 1.251 -324.389 2557.934 -3987.103 -0.073 0.045 0.040 -0.03 0.55 -0.83 0.04
1 0.98 98 0.316 -9.036 3.793 1.343 -0.397 1.953 -219.307 2362.911 -4017.083 -0.159 0.012 0.027 -0.03 0.55 -0.83 0.04
1 0.99 99 0.206 -9.141 3.826 1.892 -0.824 1.709 -354.369 2407.881 -4092.034 -0.048 0.119 -0.004 -0.03 0.55 -0.83 0.04
1 1.00 100 0.153 -8.883 3.898 1.099 -0.275 1.404 -354.369 2407.881 -4092.034 0.004 -0.139 -0.074 -0.03 0.55 -0.83 0.04
1 1.01 101 0.019 -8.955 3.826 0.702 -0.427 1.617 -414.330 2602.904 -4002.093 0.138 -0.067 -0.002 -0.03 0.55 -0.83 0.04
1 1.02 102 0.139 -9.007 3.749 0.824 -0.671 1.617 -324.389 2437.862 -4017.083 0.018 -0.014 0.075 -0.03 0.55 -0.83 0.04
1 1.03 103 0.168 -9.022 3.788 1.160 -0.153 1.862 -294.408 2437.862 -3957.122 -0.010 0.000 0.037 -0.03 0.55 -0.83 0.04
1 1.04 104 0.096 -9.098 3.769 2.380 -1.312 2.045 -294.408 2437.862 -3957.122 0.061 0.078 0.058 -0.03 0.55 -0.83 0.04
1 1.05 105 0.249 -9.065 3.864 2.167 -0.519 2.350 -399.340 2632.885 -3987.103 -0.093 0.045 -0.035 -0.03 0.55 -0.83 0.04
1 1.06 106 0.101 -9.003 3.783 2.075 -1.099 2.441 -399.340 2557.934 -3912.151 0.056 -0.016 0.049 -0.03 0.55 -0.83 0.04
1 1.07 107 0.153 -9.031 3.816 1.587 -0.885 2.289 -399.340 2557.934 -3912.151 0.002 0.014 0.018 -0.03 0.55 -0.83 0.04
1 1.08 108 0.105 -9.060 3.831 1.587 -0.977 2.136 -354.369 2482.982 -3912.151 0.050 0.044 0.006 -0.03 0.55 -0.83 0.04
1 1.09 109 0.196 -9.007 3.821 2.106 -0.793 1.373 -354.369 2482.982 -3912.151 -0.041 -0.008 0.017 -0.03 0.55 -0.83 0.04
1 1.10 110 0.125 -8.935 3.764 1.160 -0.977 1.923 -294.408 2407.881 -4122.015 0.030 -0.078 0.079 -0.03 0.55 -0.83 0.04
1 1.11 111 0.134 -9.041 3.797 1.617 -1.068 1.801 -294.408 2407.881 -4122.015 0.020 0.027 0.047 -0.03 0.55 -0.83 0.04
1 1.12 112 0.182 -9.007 3.783 0.946 -0.580 1.404 -264.428 2453.002 -4002.093 -0.028 -0.006 0.062 -0.03 0.55 -0.83 0.04
1 1.13 113 0.201 -8.921 3.692 0.580 -0.671 1.465 -414.330 2497.973 -4032.073 -0.047 -0.092 0.152 -0.03 0.55 -0.83 0.04
1 1.14 114 0.125 -9.079 3.764 1.556 -0.519 1.648 -414.330 2497.973 -4032.073 0.030 0.066 0.081 -0.03 0.55 -0.83 0.04
1 1.15 115 0.263 -9.036 3.864 1.801 0.549 1.678 -354.369 2482.982 -3987.103 -0.108 0.024 -0.018 -0.03 0.55 -0.83 0.04
1 1.16 116 0.172 -9.041 3.826 1.282 0.366 1.587 -354.369 2482.982 -3987.103 -0.018 0.029 0.022 -0.03 0.55 -0.83 0.04
1 1.17 117 0.306 -8.964 3.831 0.427 0.183 1.801 -429.320 2437.862 -3987.103 -0.152 -0.046 0.021 -0.03 0.55 -0.83 0.04
1 1.18 118 0.091 -8.959 3.797 1.221 -0.702 0.977 -429.320 2437.862 -3987.103 0.065 -0.050 0.055 -0.03 0.55 -0.83 0.04
1 1.19 119 0.062 -9.036 3.793 1.343 -0.092 1.526 -429.320 2362.911 -3957.122 0.094 0.027 0.061 -0.03 0.55 -0.83 0.04
1 1.20 120 0.048 -8.998 3.840 1.892 0.366 1.312 -234.447 2453.002 -3897.011 0.108 -0.010 0.015 -0.03 0.55 -0.83 0.04
1 1.21 121 0.101 -8.897 3.850 1.587 -0.122 1.434 -234.447 2453.002 -3897.011 0.055 -0.110 0.008 -0.03 0.55 -0.83 0.04
1 1.22 122 0.182 -8.950 3.840 0.366 -0.122 1.862 -249.438 2407.881 -4017.083 -0.027 -0.057 0.019 -0.03 0.55 -0.83 0.04
1 1.23 123 0.201 -8.969 3.754 0.488 -0.702 1.648 -249.438 2407.881 -4017.083 -0.046 -0.038 0.105 -0.03 0.55 -0.83 0.04
1 1.24 124 0.125 -8.902 3.802 1.190 -0.549 2.472 -354.369 2437.862 -3987.103 0.031 -0.104 0.059 -0.03 0.55 -0.83 0.04
1 1.25 125 0.220 -8.888 3.855 0.305 -0.549 2.472 -354.369 2437.862 -3987.103 -0.066 -0.118 0.008 -0.03 0.55 -0.83 0.04
1 1.26 126 0.206 -8.888 3.773 0.488 0.427 2.106 -264.428 2647.875 -4002.093 -0.052 -0.118 0.089 -0.03 0.55 -0.83 0.04
1 1.27 127 0.182 -9.003 3.826 -0.122 -0.275 1.923 -264.428 2453.002 -3867.031 -0.028 -0.003 0.037 -0.03 0.55 -0.83 0.04
1 1.28 128 0.105 -9.036 3.845 0.153 -0.671 1.465 -264.428 2453.002 -3867.031 0.049 0.031 0.017 -0.03 0.55 -0.83 0.04
1 1.29 129 0.134 -9.003 3.745 0.732 -0.275 1.556 -414.330 2347.920 -3972.112 0.020 -0.003 0.117 -0.03 0.55 -0.83 0.04
1 1.30 130 0.163 -9.079 3.840 0.244 -0.183 1.373 -414.330 2347.920 -3972.112 -0.009 0.074 0.022 -0.03 0.55 -0.83 0.04
1 1.31 131 0.168 -9.007 3.716 0.000 -0.671 1.404 -249.438 2362.911 -3987.103 -0.014 0.002 0.146 -0.03 0.55 -0.83 0.04
1 1.32 132 0.345 -8.888 3.917 0.549 -0.793 1.434 -249.438 2362.911 -3987.103 -0.191 -0.118 -0.056 -0.03 0.55 -0.83 0.04
1 1.33 133 0.192 -8.926 3.912 0.580 -0.305 1.099 -399.340 2437.862 -4092.034 -0.037 -0.080 -0.051 -0.03 0.55 -0.83 0.04
1 1.34 134 0.211 -9.050 3.812 0.305 0.153 0.946 -219.307 2407.881 -3882.021 -0.056 0.045 0.050 -0.03 0.55 -0.83 0.04
1 1.35 135 0.172 -8.959 3.831 0.580 0.122 1.343 -219.307 2407.881 -3882.021 -0.018 -0.046 0.031 -0.03 0.55 -0.83 0.04
1 1.36 136 0.168 -8.983 3.816 0.061 -0.275 1.404 -219.307 2437.862 -4017.083 -0.013 -0.022 0.045 -0.03 0.55 -0.83 0.04
1 1.37 137 0.139 -9.060 3.855 -0.092 -0.214 1.495 -219.307 2437.862 -4017.083 0.015 0.054 0.007 -0.03 0.55 -0.83 0.04
1 1.38 138 0.168 -8.955 3.922 -0.336 -0.061 1.770 -294.408 2437.862 -4092.034 -0.013 -0.051 -0.060 -0.03 0.55 -0.83 0.04
1 1.39 139 0.120 -9.031 3.730 1.190 -0.061 1.312 -414.330 2347.920 -3867.031 0.035 0.025 0.131 -0.03 0.55 -0.83 0.04
1 1.40 140 0.163 -9.003 4.003 0.977 -0.427 1.648 -414.330 2377.901 -4032.073 -0.008 -0.003 -0.142 -0.03 0.55 -0.83 0.04
1 1.41 141 -0.024 -8.935 3.922 0.671 -0.702 1.404 -249.438 2557.934 -4062.054 0.179 -0.070 -0.060 -0.03 0.55 -0.83 0.04
1 1.42 142 0.019 -8.988 3.907 -0.122 -0.061 0.854 -249.438 2557.934 -4062.054 0.135 -0.017 -0.045 -0.03 0.55 -0.83 0.04
1 1.43 143 0.144 -8.983 3.864 0.031 -0.824 1.495 -294.408 2512.963 -3837.050 0.010 -0.022 -0.002 -0.03 0.55 -0.83 0.04
1 1.44 144 0.086 -9.017 3.922 1.343 -0.580 2.014 -294.408 2512.963 -3837.050 0.067 0.011 -0.060 -0.03 0.55 -0.83 0.04
1 1.45 145 0.024 -8.983 3.917 0.610 -0.916 1.556 -234.447 2422.872 -3927.142 0.129 -0.022 -0.054 -0.03 0.55 -0.83 0.04
1 1.46 146 0.235 -8.983 3.821 0.946 -0.427 0.946 -204.317 2497.973 -3972.112 -0.083 -0.021 0.043 -0.03 0.55 -0.83 0.04
1 1.47 147 0.072 -8.998 3.816 0.854 -0.610 1.068 -174.336 2362.911 -3987.103 0.080 -0.007 0.048 -0.03 0.55 -0.83 0.04
1 1.48 148 0.172 -9.007 3.850 0.854 -0.885 1.465 -294.408 2407.881 -3957.122 -0.021 0.003 0.015 -0.03 0.55 -0.83 0.04
1 1.49 149 0.072 -9.007 3.907 0.793 -0.671 0.885 -294.408 2407.881 -3957.122 0.080 0.003 -0.043 -0.03 0.55 -0.83 0.04
1 1.50 150 0.086 -9.022 3.879 1.007 -0.183 1.129 -309.398 2647.875 -4002.093 0.065 0.017 -0.014 -0.03 0.55 -0.83 0.04
1 1.51 151 0.230 -8.969 3.898 1.312 -1.160 1.556 -309.398 2647.875 -4002.093 -0.078 -0.035 -0.031 -0.03 0.55 -0.83 0.04
1 1.52 152 0.196 -8.974 3.797 1.068 -1.160 1.312 -264.428 2527.953 -3897.011 -0.044 -0.029 0.070 -0.03 0.55 -0.83 0.04
1 1.53 153 0.196 -8.979 3.898 1.648 -1.068 1.556 -249.438 2557.934 -4062.054 -0.043 -0.025 -0.030 -0.03 0.55 -0.83 0.04
1 1.54 154 0.153 -9.036 3.903 0.946 -0.641 1.434 -399.340 2482.982 -4017.083 0.000 0.033 -0.034 -0.03 0.55 -0.83 0.04
1 1.55 155 0.196 -8.969 3.922 1.129 -0.275 1.587 -174.336 2437.862 -4062.054 -0.043 -0.034 -0.053 -0.03 0.55 -0.83 0.04
1 1.56 156 0.163 -8.969 3.951 0.580 -0.153 1.312 -174.336 2437.862 -4062.054 -0.009 -0.033 -0.080 -0.03 0.55 -0.83 0.04
1 1.57 157 0.163 -9.117 3.879 1.495 0.000 1.526 -399.340 2557.934 -4017.083 -0.009 0.116 -0.007 -0.03 0.55 -0.83 0.04
1 1.58 158 0.168 -9.012 3.821 1.678 0.305 1.465 -399.340 2557.934 -4017.083 -0.014 0.012 0.053 -0.03 0.55 -0.83 0.04
1 1.59 159 0.139 -8.983 3.845 1.251 -0.031 1.221 -384.350 2422.872 -3972.112 0.015 -0.016 0.031 -0.03 0.55 -0.83 0.04
1 1.60 160 0.182 -9.003 3.855 1.526 -0.183 1.190 -294.408 2587.914 -4017.083 -0.028 0.004 0.023 -0.03 0.55 -0.83 0.04
1 1.61 161 0.268 -8.916 3.845 1.312 0.183 1.465 -384.350 2497.973 -3972.112 -0.115 -0.082 0.034 -0.03 0.55 -0.83 0.04
1 1.62 162 0.105 -9.084 3.836 2.136 0.000 1.617 -249.438 2362.911 -4017.083 0.049 0.087 0.046 -0.03 0.55 -0.83 0.04
1 1.63 163 0.134 -9.041 3.845 0.916 0.031 1.282 -249.438 2362.911 -4017.083 0.019 0.045 0.039 -0.03 0.55 -0.83 0.04
1 1.64 164 0.235 -8.969 3.884 0.977 0.183 1.556 -384.350 2527.953 -4152.145 -0.081 -0.027 0.001 -0.03 0.55 -0.83 0.04
1 1.65 165 0.096 -8.940 3.821 1.007 -0.214 1.556 -384.350 2527.953 -4152.145 0.058 -0.055 0.064 -0.03 0.55 -0.83 0.04
1 1.66 166 0.125 -8.988 3.850 1.190 0.397 2.228 -324.389 2437.862 -4062.054 0.029 -0.007 0.035 -0.03 0.55 -0.83 0.04
1 1.67 167 0.148 -8.940 3.941 1.160 -0.092 1.465 -249.438 2482.982 -4017.083 0.004 -0.054 -0.053 -0.03 0.55 -0.83 0.04
1 1.68 168 0.230 -9.031 3.903 1.129 -0.061 1.282 -354.369 2482.982 -3957.122 -0.077 0.037 -0.014 -0.03 0.55 -0.83 0.04
1 1.69 169 0.144 -9.046 3.840 0.580 0.336 1.709 -249.438 2482.982 -4122.015 0.010 0.052 0.050 -0.03 0.55 -0.84 0.04
1 1.70 170 0.091 -9.031 3.740 1.526 0.427 1.678 -249.438 2482.982 -4122.015 0.063 0.038 0.152 -0.03 0.55 -0.84 0.04
1 1.71 171 0.144 -9.079 3.836 1.831 0.458 0.977 -339.379 2422.872 -3972.112 0.010 0.087 0.058 -0.03 0.55 -0.84 0.04
1 1.72 172 0.153 -9.084 3.879 1.251 0.549 1.495 -339.379 2422.872 -3972.112 0.000 0.093 0.017 -0.03 0.55 -0.84 0.04
1 1.73 173 0.192 -9.103 3.998 1.404 0.397 1.373 -354.369 2557.934 -4092.034 -0.039 0.112 -0.102 -0.03 0.55 -0.84 0.04
1 1.74 174 0.134 -8.983 3.869 1.648 0.458 1.648 -384.350 2453.002 -4107.024 0.019 -0.006 0.029 -0.03 0.55 -0.84 0.04
1 1.75 175 0.110 -8.974 3.965 0.275 0.488 1.648 -399.340 2512.963 -3987.103 0.042 -0.014 -0.062 -0.03 0.55 -0.84 0.04
1 1.76 176 0.120 -9.084 3.970 1.678 0.610 1.099 -324.389 2512.963 -4017.083 0.032 0.096 -0.066 -0.03 0.55 -0.84 0.04
1 1.77 177 0.086 -8.897 3.955 1.709 0.061 1.373 -324.389 2512.963 -4017.083 0.066 -0.090 -0.050 -0.03 0.55 -0.84 0.04
1 1.78 178 0.053 -8.921 3.936 1.251 0.275 1.434 -294.408 2332.930 -3912.151 0.099 -0.065 -0.029 -0.03 0.55 -0.84 0.04
1 1.79 179 0.278 -9.007 3.898 1.404 0.031 1.434 -294.408 2332.930 -3912.151 -0.127 0.022 0.012 -0.03 0.55 -0.84 0.04
1 1.80 180 0.192 -9.098 3.836 2.411 -0.183 1.282 -249.438 2362.911 -4017.083 -0.040 0.114 0.076 -0.03 0.55 -0.84 0.03
1 1.81 181 0.153 -9.031 3.816 1.129 -0.214 1.312 -234.447 2527.953 -3927.142 -0.002 0.048 0.098 -0.03 0.55 -0.84 0.03
1 1.82 182 0.110 -8.859 3.874 1.740 -0.580 1.953 -264.428 2422.872 -3972.112 0.041 -0.123 0.042 -0.03 0.55 -0.84 0.03
1 1.83 183 0.244 -9.017 3.884 1.648 -0.488 1.801 -174.336 2332.930 -3957.122 -0.093 0.036 0.035 -0.03 0.55 -0.84 0.03
1 1.84 184 0.254 -8.897 3.893 1.190 0.153 1.373 -174.336 2332.930 -3957.122 -0.102 -0.083 0.027 -0.03 0.55 -0.84 0.03
1 1.85 185 0.057 -8.950 3.912 1.434 -0.061 1.465 -354.369 2482.982 -4017.083 0.094 -0.030 0.009 -0.03 0.55 -0.84 0.03
1 1.86 186 0.148 -8.892 3.898 1.007 -0.610 1.984 -354.369 2482.982 -4017.083 0.003 -0.087 0.025 -0.03 0.55 -0.84 0.03
1 1.87 187 0.187 -8.749 3.855 0.458 -0.153 1.190 -249.438 2362.911 -4017.083 -0.036 -0.231 0.068 -0.03 0.55 -0.84 0.03
1 1.88 188 0.086 -8.801 3.965 0.549 -0.214 1.282 -219.307 2437.862 -3837.050 0.065 -0.178 -0.043 -0.03 0.55 -0.84 0.03
1 1.89 189 0.201 -8.974 3.759 0.519 -0.366 1.648 -219.307 2437.862 -3837.050 -0.050 -0.006 0.164 -0.03 0.55 -0.84 0.03
1 1.90 190 0.163 -8.964 3.864 0.580 0.122 1.862 -234.447 2453.002 -3927.142 -0.012 -0.015 0.058 -0.03 0.55 -0.84 0.03
1 1.91 191 0.172 -8.907 3.869 0.366 -0.214 1.801 -234.447 2453.002 -3927.142 -0.021 -0.073 0.054 -0.03 0.55 -0.84 0.03
1 1.92 192 0.115 -8.964 3.965 0.763 0.336 2.075 -174.336 2437.862 -4062.054 0.036 -0.015 -0.042 -0.03 0.55 -0.84 0.03
1 1.93 193 0.211 -8.907 3.879 0.488 -0.305 1.923 -174.336 2437.862 -4062.054 -0.060 -0.072 0.045 -0.03 0.55 -0.84 0.03
1 1.94 194 0.105 -8.916 3.903 0.366 -0.763 2.258 -339.379 2422.872 -4032.073 0.045 -0.063 0.021 -0.03 0.55 -0.84 0.03
1 1.95 195 0.129 -8.959 3.965 0.854 -0.122 2.258 -399.340 2332.930 -3987.103 0.022 -0.019 -0.041 -0.03 0.55 -0.84 0.03
1 1.96 196 0.077 -8.964 3.922 0.549 -0.061 1.617 -399.340 2332.930 -3987.103 0.074 -0.015 0.002 -0.03 0.55 -0.84 0.03
1 1.97 197 0.005 -8.830 3.936 1.099 0.153 1.373 -309.398 2453.002 -3927.142 0.144 -0.148 -0.011 -0.03 0.55 -0.84 0.03
1 1.98 198 0.019 -8.969 3.912 1.190 -1.801 1.556 -309.398 2453.002 -3927.142 0.129 -0.009 0.014 -0.03 0.55 -0.84 0.03
1 1.99 199 -0.177 -8.888 3.864 2.045 -2.197 2.014 -264.428 2377.901 -4152.145 0.325 -0.090 0.063 -0.03 0.55 -0.84 0.03
1 2.00 200 -0.129 -8.945 3.984 1.556 -3.204 2.380 -264.428 2377.901 -4152.145 0.275 -0.031 -0.054 -0.03 0.55 -0.84 0.03
1 2.01 201 -0.010 -8.988 3.821 0.183 -4.272 2.228 -264.428 2453.002 -3972.112 0.154 0.013 0.111 -0.03 0.55 -0.84 0.03
1 2.02 202 0.177 -8.835 4.046 -0.732 -5.280 3.876 -249.438 2362.911 -3912.151 -0.033 -0.141 -0.115 -0.03 0.55 -0.84 0.03
1 2.03 203 0.378 -8.811 4.032 -2.502 -5.249 3.510 -249.438 2362.911 -3912.151 -0.234 -0.165 -0.102 -0.03 0.55 -0.84 0.03
1 2.04 204 0.508 -8.782 3.989 -3.082 -3.967 3.052 -309.398 2422.872 -3972.112 -0.359 -0.196 -0.063 -0.03 0.55 -0.84 0.04
1 2.05 205 0.522 -8.710 3.931 -2.014 -3.235 2.808 -309.398 2422.872 -3972.112 -0.370 -0.269 -0.008 -0.03 0.55 -0.84 0.04
1 2.06 206 0.479 -8.864 3.869 -1.312 -2.655 2.808 -384.350 2377.901 -3822.060 -0.325 -0.116 0.053 -0.03 0.55 -0.84 0.04
1 2.07 207 0.522 -8.931 3.998 -0.366 -2.747 2.625 -384.350 2377.901 -3822.060 -0.367 -0.049 -0.077 -0.03 0.55 -0.84 0.04
1 2.08 208 0.541 -8.993 4.003 0.092 -2.350 3.448 -219.307 2587.914 -3912.151 -0.384 0.013 -0.082 -0.03 0.55 -0.84 0.04
1 2.09 209 0.603 -9.050 3.960 0.977 -2.106 4.425 -414.330 2422.872 -4002.093 -0.445 0.071 -0.039 -0.03 0.55 -0.84 0.04
1 2.10 210 0.599 -8.912 3.984 1.862 -2.747 3.906 -414.330 2422.872 -4002.093 -0.440 -0.067 -0.061 -0.03 0.55 -0.84 0.04
1 2.11 211 0.718 -8.907 3.965 2.045 -1.984 4.425 -384.350 2527.953 -3972.112 -0.556 -0.070 -0.037 -0.03 0.55 -0.84 0.04
1 2.12 212 0.675 -8.921 3.845 0.854 -0.793 5.066 -384.350 2527.953 -3972.112 -0.513 -0.054 0.086 -0.03 0.55 -0.84 0.04
1 2.13 213 0.742 -8.849 3.936 0.702 1.190 5.249 -384.350 2302.950 -4077.044 -0.580 -0.126 -0.003 -0.03 0.55 -0.84 0.04
1 2.14 214 0.919 -9.055 3.860 -0.549 2.472 5.219 -384.350 2302.950 -4077.044 -0.759 0.081 0.074 -0.03 0.55 -0.84 0.04
1 2.15 215 0.857 -8.907 3.793 -1.099 1.709 5.157 -219.307 2482.982 -3912.151 -0.697 -0.068 0.140 -0.03 0.55 -0.84 0.04
1 2.16 216 0.905 -8.777 3.663 -1.434 2.167 5.554 -294.408 2332.930 -4017.083 -0.747 -0.199 0.267 -0.03 0.55 -0.84 0.04
1 2.17 217 1.082 -8.821 3.491 -1.007 3.937 6.256 -294.408 2332.930 -4017.083 -0.926 -0.157 0.437 -0.03 0.55 -0.84 0.04
1 2.18 218 1.226 -8.844 3.553 1.038 5.371 7.050 -399.340 2332.930 -3987.103 -1.072 -0.134 0.371 -0.03 0.55 -0.84 0.04
1 2.19 219 1.279 -8.744 3.510 2.045 7.629 7.599 -309.398 2347.920 -3972.112 -1.131 -0.235 0.414 -0.03 0.55 -0.84 0.04
1 2.20 220 1.317 -8.926 3.606 2.289 9.583 8.331 -339.379 2377.901 -4077.044 -1.174 -0.052 0.320 -0.03 0.55 -0.84 0.04
1 2.21 221 1.365 -9.108 3.567 1.587 11.353 8.270 -339.379 2377.901 -4077.044 -1.228 0.130 0.359 -0.03 0.55 -0.84 0.04
1 2.22 222 1.255 -8.983 3.587 1.221 13.336 8.118 -324.389 2587.914 -4062.054 -1.126 0.005 0.340 -0.03 0.55 -0.84 0.04
1 2.23 223 1.149 -9.108 3.582 2.167 13.763 6.256 -354.369 2332.930 -3912.151 -1.028 0.130 0.344 -0.03 0.55 -0.84 0.03
1 2.24 224 1.183 -9.247 3.639 0.854 13.519 5.035 -354.369 2332.930 -3912.151 -1.069 0.268 0.286 -0.03 0.55 -0.84 0.03
1 2.25 225 0.771 -9.180 3.730 0.275 13.641 3.082 -264.428 2453.002 -4032.073 -0.664 0.201 0.195 -0.03 0.55 -0.84 0.03
1 2.26 226 0.800 -9.247 3.759 -2.594 14.282 -0.092 -249.438 2632.885 -4017.083 -0.699 0.265 0.161 -0.03 0.55 -0.84 0.03
1 2.27 227 0.613 -9.275 3.726 -3.723 14.313 -1.617 -339.379 2377.901 -3897.011 -0.513 0.292 0.188 -0.03 0.55 -0.84 0.03
1 2.28 228 0.862 -9.309 3.888 -5.432 12.482 -3.571 -339.379 2377.901 -3897.011 -0.761 0.322 0.018 -0.03 0.55 -0.84 0.03
1 2.29 229 0.943 -9.199 3.816 -5.676 10.986 -4.272 -204.317 2302.950 -3792.080 -0.837 0.208 0.081 -0.03 0.55 -0.84 0.03
1 2.30 230 1.044 -9.127 3.855 -5.920 10.590 -4.974 -219.307 2407.881 -4062.054 -0.930 0.132 0.034 -0.03 0.55 -0.84 0.03
1 2.31 231 1.020 -9.132 3.955 -4.395 12.817 -5.188 -219.307 2407.881 -4062.054 -0.897 0.134 -0.074 -0.03 0.55 -0.84 0.03
1 2.32 232 0.919 -9.007 3.931 -3.815 13.886 -5.402 -219.307 2482.982 -4017.083 -0.788 0.007 -0.057 -0.03 0.55 -0.83 0.03
1 2.33 233 0.800 -8.902 3.845 -3.906 13.977 -6.012 -114.375 2362.911 -4062.054 -0.653 -0.102 0.020 -0.02 0.55 -0.83 0.02
1 2.34 234 0.666 -8.974 3.840 -4.395 14.252 -6.897 -204.317 2422.872 -3927.142 -0.512 -0.033 0.019 -0.02 0.55 -0.83 0.02
1 2.35 235 0.771 -9.003 3.807 -4.974 12.360 -7.385 -204.317 2422.872 -3927.142 -0.610 -0.006 0.047 -0.02 0.55 -0.83 0.02
1 2.36 236 0.766 -9.017 3.797 -4.059 11.139 -7.416 -144.356 2587.914 -4017.083 -0.595 0.006 0.051 -0.02 0.55 -0.83 0.02
1 2.37 237 0.857 -9.137 3.745 -2.289 10.284 -7.629 -249.438 2482.982 -3957.122 -0.676 0.123 0.098 -0.02 0.55 -0.83 0.02
1 2.38 238 0.867 -9.012 3.773 -0.580 10.559 -7.538 -249.438 2482.982 -3957.122 -0.674 -0.002 0.067 -0.02 0.55 -0.83 0.02
1 2.39 239 0.819 -9.022 3.807 -0.458 10.925 -7.904 -234.447 2527.953 -4002.093 -0.616 0.007 0.033 -0.02 0.55 -0.83 0.02
1 2.40 240 0.603 -8.892 3.639 -1.190 11.597 -8.026 -84.395 2497.973 -3897.011 -0.380 -0.122 0.199 -0.02 0.55 -0.83 0.01
1 2.41 241 0.555 -9.031 3.635 -2.075 12.177 -7.660 -159.346 2377.901 -4002.093 -0.323 0.016 0.201 -0.02 0.55 -0.83 0.01
1 2.42 242 0.354 -9.094 3.601 -3.601 11.871 -9.522 -159.346 2377.901 -4002.093 -0.113 0.077 0.231 -0.02 0.55 -0.83 0.01
1 2.43 243 0.340 -9.026 3.721 -3.754 10.071 -9.979 -129.366 2602.904 -3927.142 -0.089 0.008 0.105 -0.02 0.55 -0.83 0.01
1 2.44 244 0.249 -9.060 3.639 -3.326 8.698 -10.254 -114.375 2362.911 -3987.103 0.013 0.039 0.181 -0.02 0.55 -0.83 0.01
1 2.45 245 0.364 -9.007 3.702 -2.228 8.789 -9.979 -114.375 2362.911 -3987.103 -0.091 -0.015 0.114 -0.02 0.55 -0.83 0.01
1 2.46 246 0.364 -8.931 3.783 -2.960 8.942 -9.644 -204.317 2453.002 -3972.112 -0.080 -0.093 0.029 -0.02 0.55 -0.83 0.01
1 2.47 247 0.187 -9.065 3.855 -4.486 8.820 -10.040 -144.356 2407.881 -3957.122 0.108 0.040 -0.046 -0.02 0.55 -0.83 0
1 2.48 248 0.273 -9.127 3.591 -3.601 7.782 -10.468 -159.346 2602.904 -3897.011 0.043 0.098 0.206 -0.02 0.55 -0.83 0
1 2.49 249 0.273 -9.290 3.673 -2.655 6.531 -10.773 -159.346 2602.904 -3897.011 0.054 0.259 0.119 -0.02 0.55 -0.83 0
1 2.50 250 0.273 -9.376 3.644 -0.854 6.561 -10.742 -144.356 2632.885 -3912.151 0.067 0.344 0.144 0.02 -0.55 0.83 0
1 2.51 251 0.101 -9.328 3.654 -1.221 5.676 -11.383 -129.366 2572.924 -3867.031 0.252 0.296 0.132 0.02 -0.55 0.83 0
1 2.52 252 0.010 -9.328 3.587 -2.563 4.089 -10.529 -129.366 2572.924 -3867.031 0.356 0.295 0.197 0.02 -0.55 0.83 0
1 2.53 253 -0.048 -9.323 3.639 -2.991 2.533 -10.407 -84.395 2497.973 -3822.060 0.425 0.289 0.140 0.02 -0.55 0.83 0
1 2.54 254 -0.105 -9.314 3.635 -3.662 2.777 -8.881 -294.408 2587.914 -3987.103 0.494 0.278 0.139 0.02 -0.55 0.83 0
1 2.55 255 -0.201 -9.319 3.596 -3.876 4.120 -6.775 -204.317 2602.904 -3927.142 0.608 0.278 0.165 0.02 -0.55 0.83 0.01
1 2.56 256 -0.326 -9.410 3.721 -3.296 4.334 -4.974 -204.317 2602.904 -3927.142 0.736 0.367 0.034 0.02 -0.55 0.83 0.01
1 2.57 257 -0.383 -9.218 3.591 -2.777 3.204 -2.563 -144.356 2587.914 -3912.151 0.794 0.173 0.158 0.02 -0.56 0.83 0.01
1 2.58 258 -0.354 -9.242 3.730 -2.441 1.373 0.610 -174.336 2632.885 -3987.103 0.762 0.195 0.014 0.02 -0.56 0.83 0.01
1 2.59 259 -0.431 -9.132 3.702 -3.418 0.458 2.533 -174.336 2632.885 -3987.103 0.834 0.083 0.039 0.02 -0.56 0.83 0.01
1 2.60 260 -0.445 -9.414 3.706 -1.251 -0.061 5.737 -204.317 2497.973 -3927.142 0.840 0.363 0.030 0.02 -0.56 0.83 0.01
1 2.61 261 -0.551 -9.457 3.749 0.946 0.610 8.148 5.396 2557.934 -3837.050 0.934 0.405 -0.016 0.02 -0.56 0.83 0.01
1 2.62 262 -0.958 -9.472 3.702 5.219 -0.610 10.315 -159.346 2602.904 -3867.031 1.308 0.419 0.036 0.02 -0.56 0.83 0.01
1 2.63 263 -1.121 -9.505 3.730 4.242 -1.343 10.101 -159.346 2602.904 -3867.031 1.449 0.455 0.014 0.02 -0.56 0.83 0.01
1 2.64 264 -1.283 -9.271 3.577 2.441 -3.510 10.590 -129.366 2527.953 -3927.142 1.590 0.221 0.171 0.02 -0.56 0.83 0
1 2.65 265 -1.461 -9.304 3.572 0.793 -6.256 10.010 -219.307 2587.914 -3957.122 1.745 0.254 0.178 0.02 -0.56 0.83 0
1 2.66 266 -1.437 -9.199 3.553 1.404 -7.629 10.071 -219.307 2587.914 -3957.122 1.700 0.148 0.196 0.01 -0.56 0.83 0
1 2.67 267 -1.398 -9.141 3.486 1.587 -10.742 9.705 -144.356 2437.862 -3807.070 1.642 0.090 0.264 0.01 -0.56 0.83 0
1 2.68 268 -1.480 -9.132 3.390 0.336 -12.421 9.827 -144.356 2662.865 -3837.050 1.705 0.081 0.360 -0.01 0.56 -0.83 0
1 2.69 269 -1.422 -9.060 3.247 0.458 -13.245 9.705 -144.356 2662.865 -3837.050 1.632 0.008 0.503 -0.01 0.56 -0.83 0
1 2.70 270 -1.451 -9.113 3.098 1.617 -14.465 11.353 -129.366 2453.002 -3867.031 1.627 0.058 0.646 -0.01 0.56 -0.83 0
1 2.71 271 -1.231 -9.299 3.146 4.578 -16.083 12.268 -174.336 2587.914 -3987.103 1.390 0.244 0.597 -0.01 0.56 -0.83 0.01
1 2.72 272 -1.130 -9.309 3.199 6.042 -18.646 14.740 -309.398 2527.953 -4032.073 1.272 0.254 0.547 -0.01 0.56 -0.83 0.01
1 2.73 273 -0.800 -9.462 3.295 7.568 -21.027 18.127 -309.398 2527.953 -4032.073 0.922 0.409 0.455 -0.01 0.56 -0.83 0.01
1 2.74 274 -0.407 -9.659 3.539 3.540 -19.623 23.132 -234.447 2602.904 -3867.031 0.510 0.607 0.217 -0.01 0.56 -0.83 0.01
1 2.75 275 -0.306 -9.673 3.582 0.671 -16.419 24.078 -144.356 2512.963 -3987.103 0.387 0.622 0.176 -0.01 0.56 -0.83 0.01
1 2.76 276 -0.287 -9.644 3.462 1.129 -13.306 24.323 -144.356 2512.963 -3987.103 0.344 0.593 0.295 -0.01 0.56 -0.83 0.02
1 2.77 277 -0.623 -9.548 3.304 2.930 -9.827 23.285 -294.408 2587.914 -4017.083 0.625 0.496 0.450 -0.01 0.56 -0.83 0.02
1 2.78 278 -0.781 -9.386 3.299 0.916 -8.514 21.698 -159.346 2602.904 -3972.112 0.754 0.333 0.454 -0.01 0.56 -0.83 0.02
1 2.79 279 -0.723 -9.165 3.146 -1.556 -7.050 19.989 -219.307 2557.934 -3912.151 0.668 0.112 0.605 -0.01 0.56 -0.83 0.02
1 2.80 280 -0.857 -9.094 3.036 -2.686 -7.172 18.829 -219.307 2557.934 -3912.151 0.775 0.038 0.709 -0.01 0.56 -0.83 0.03
1 2.81 281 -0.838 -9.141 3.146 -3.204 -6.042 16.998 -219.307 2557.934 -3882.021 0.730 0.082 0.590 -0.01 0.56 -0.83 0.03
1 2.82 282 -0.627 -9.137 3.156 0.824 -5.371 15.808 -234.447 2647.875 -3927.142 0.496 0.075 0.573 -0.01 0.56 -0.83 0.03
1 2.83 283 -0.508 -9.094 3.089 5.066 -4.700 14.679 -234.447 2647.875 -3927.142 0.355 0.030 0.636 -0.01 0.56 -0.83 0.03
1 2.84 284 -0.417 -8.955 3.227 8.057 -3.632 10.986 -264.428 2572.924 -4032.073 0.228 -0.105 0.505 -0.01 0.56 -0.83 0.03
1 2.85 285 -0.517 -8.926 3.184 10.407 -2.838 9.674 -249.438 2512.963 -3912.151 0.315 -0.129 0.557 -0.01 0.56 -0.83 0.03
1 2.86 286 -0.661 -8.730 3.108 11.139 -2.686 7.751 -249.438 2662.865 -3837.050 0.448 -0.321 0.645 -0.01 0.56 -0.83 0.04
1 2.87 287 -0.680 -8.868 3.314 10.956 -2.716 6.226 -249.438 2662.865 -3837.050 0.457 -0.177 0.451 -0.01 0.55 -0.83 0.04
1 2.88 288 -0.632 -8.730 3.180 10.132 -3.326 5.707 -204.317 2572.924 -3822.060 0.401 -0.310 0.598 -0.01 0.55 -0.83 0.04
1 2.89 289 -0.761 -8.849 3.089 7.202 -2.777 3.632 -234.447 2572.924 -3867.031 0.523 -0.186 0.699 -0.01 0.55 -0.83 0.04
1 2.90 290 -0.771 -8.787 3.050 4.364 -2.625 3.906 -234.447 2572.924 -3867.031 0.527 -0.245 0.744 -0.01 0.55 -0.83 0.04
1 2.91 291 -0.790 -8.931 2.859 3.815 -4.425 3.540 -24.434 2497.973 -3927.142 0.536 -0.099 0.940 -0.01 0.55 -0.83 0.04
1 2.92 292 -0.737 -9.151 2.988 6.165 -5.493 4.761 -309.398 2527.953 -3927.142 0.478 0.121 0.812 -0.01 0.55 -0.83 0.04
1 2.93 293 -0.824 -9.127 2.888 6.104 -6.683 5.066 -219.307 2512.963 -3957.122 0.560 0.099 0.916 -0.01 0.55 -0.83 0.04
1 2.94 294 -0.723 -9.108 2.744 4.608 -8.026 4.028 -219.307 2512.963 -3957.122 0.455 0.081 1.062 -0.01 0.55 -0.83 0.04
1 2.95 295 -0.824 -9.022 2.835 2.563 -7.751 2.655 -129.366 2453.002 -3927.142 0.554 -0.005 0.971 -0.01 0.55 -0.83 0.04
1 2.96 296 -0.709 -9.017 2.706 0.671 -8.240 1.923 -204.317 2453.002 -3897.011 0.437 -0.011 1.097 -0.01 0.55 -0.83 0.04
1 2.97 297 -0.776 -9.108 2.720 0.763 -9.644 2.289 -204.317 2453.002 -3897.011 0.504 0.078 1.078 -0.01 0.55 -0.83 0.04
1 2.98 298 -0.728 -9.003 2.701 0.488 -10.254 0.519 -294.408 2482.982 -3882.021 0.457 -0.030 1.092 -0.01 0.55 -0.83 0.04
1 2.99 299 -0.627 -9.007 2.548 -1.373 -9.247 -0.122 -234.447 2572.924 -3927.142 0.363 -0.030 1.233 -0.01 0.55 -0.83 0.04
1 3.00 300 -0.594 -8.864 2.562 -2.655 -9.277 -1.282 -234.447 2453.002 -3927.142 0.334 -0.178 1.209 -0.01 0.55 -0.83 0.04
1 3.01 301 -0.436 -8.998 2.629 -4.089 -9.277 -1.678 -234.447 2453.002 -3927.142 0.182 -0.049 1.131 -0.01 0.55 -0.83 0.04
1 3.02 302 -0.599 -8.945 2.643 -3.571 -9.705 -2.502 -204.317 2377.901 -3867.031 0.353 -0.107 1.104 -0.01 0.56 -0.83 0.04
1 3.03 303 -0.546 -8.888 2.557 -3.265 -11.292 -3.479 -219.307 2362.911 -3912.151 0.309 -0.169 1.179 -0.02 0.56 -0.83 0.05
1 3.04 304 -0.441 -9.046 2.476 -3.693 -10.803 -4.303 -219.307 2362.911 -3912.151 0.214 -0.016 1.249 -0.02 0.56 -0.83 0.05
1 3.05 305 -0.364 -9.017 2.370 -3.601 -10.651 -4.211 -204.317 2602.904 -4107.024 0.149 -0.050 1.343 -0.02 0.56 -0.83 0.05
1 3.06 306 -0.532 -9.127 2.557 -2.563 -10.803 -4.486 -264.428 2497.973 -3927.142 0.342 0.050 1.132 -0.02 0.56 -0.83 0.05
1 3.07 307 -0.445 -9.299 2.538 -1.556 -10.254 -4.608 -249.438 2512.963 -3837.050 0.268 0.218 1.140 -0.02 0.56 -0.83 0.05
1 3.08 308 -0.527 -9.448 2.706 -1.923 -10.376 -4.150 -249.438 2512.963 -3837.050 0.362 0.362 0.963 -0.02 0.56 -0.83 0.05
1 3.09 309 -0.498 -9.539 2.562 -2.808 -9.552 -4.150 -354.369 2332.930 -4017.083 0.344 0.449 1.097 -0.02 0.56 -0.83 0.05
1 3.10 310 -0.833 -9.486 2.576 -3.021 -9.766 -3.723 -399.340 2587.914 -3807.070 0.690 0.391 1.071 -0.02 0.56 -0.83 0.05
1 3.11 311 -0.919 -9.505 2.533 -2.930 -9.216 -3.479 -399.340 2587.914 -3807.070 0.784 0.405 1.102 -0.02 0.56 -0.83 0.05
1 3.12 312 -0.761 -9.462 2.514 -2.106 -8.789 -2.869 -234.447 2527.953 -3822.060 0.633 0.357 1.109 -0.02 0.56 -0.83 0.05
1 3.13 313 -0.742 -9.553 2.586 -1.709 -8.331 -2.991 -354.369 2407.881 -3837.050 0.625 0.440 1.016 -0.03 0.56 -0.83 0.05
1 3.14 314 -0.939 -9.501 2.461 -0.977 -8.606 -2.289 -339.379 2527.953 -3897.011 0.827 0.384 1.131 -0.03 0.56 -0.83 0.05
1 3.15 315 -1.063 -9.472 2.437 -2.655 -9.064 -2.686 -339.379 2527.953 -3897.011 0.955 0.351 1.146 -0.03 0.56 -0.82 0.05
1 3.16 316 -1.250 -9.520 2.447 -2.411 -8.453 -3.296 -399.340 2632.885 -3912.151 1.145 0.394 1.125 -0.03 0.56 -0.82 0.05
1 3.17 317 -1.451 -9.639 2.476 -0.946 -9.033 -3.998 -399.340 2632.885 -3837.050 1.349 0.510 1.085 -0.03 0.56 -0.82 0.05
1 3.18 318 -1.504 -9.740 3.496 3.326 -8.759 -3.326 -399.340 2632.885 -3837.050 1.404 0.607 0.056 -0.03 0.56 -0.82 0.05
1 3.19 319 -1.149 -10.042 4.702 12.878 -9.583 0.244 -444.311 2422.872 -3822.060 1.051 0.907 -1.153 -0.03 0.56 -0.82 0.05
1 3.20 320 0.029 -10.683 4.295 10.040 -21.881 10.834 -294.408 2512.963 -3957.122 -0.121 1.564 -0.708 -0.03 0.56 -0.82 0.05
1 3.21 321 0.479 -10.918 4.348 -1.923 -23.041 15.503 -429.320 2632.885 -3777.089 -0.575 1.801 -0.754 -0.03 0.56 -0.82 0.05
1 3.22 322 1.264 -11.641 4.611 -6.928 2.106 28.107 -429.320 2632.885 -3777.089 -1.383 2.517 -1.038 -0.03 0.56 -0.82 0.06
1 3.23 323 0.857 -11.507 4.904 16.998 18.097 32.196 -429.320 2437.862 -3912.151 -1.019 2.383 -1.330 -0.03 0.56 -0.82 0.06
1 3.24 324 0.163 -11.009 4.827 16.388 20.630 29.846 -324.389 2482.982 -3912.151 -0.378 1.896 -1.228 -0.03 0.56 -0.82 0.06
1 3.25 325 -0.594 -11.038 4.042 -7.904 28.839 23.590 -324.389 2482.982 -3912.151 0.329 1.933 -0.425 -0.02 0.56 -0.83 0.06
1 3.26 326 -1.365 -11.133 3.520 -15.869 31.860 16.357 -399.340 2557.934 -3957.122 1.052 2.028 0.090 -0.02 0.56 -0.83 0.06
1 3.27 327 -1.935 -10.894 3.108 -12.390 26.428 7.294 -399.340 2557.934 -3957.122 1.581 1.781 0.480 -0.02 0.56 -0.82 0.06
1 3.28 328 -1.925 -10.444 3.371 -3.296 15.167 -4.578 -354.369 2512.963 -3957.122 1.534 1.320 0.185 -0.02 0.56 -0.82 0.06
1 3.29 329 -1.839 -9.975 3.333 -3.510 13.214 -8.759 -354.369 2512.963 -3957.122 1.450 0.849 0.218 -0.01 0.56 -0.82 0.06
1 3.30 330 -1.528 -9.615 3.165 -6.775 7.843 -11.047 -204.317 2497.973 -3822.060 1.143 0.486 0.378 -0.01 0.56 -0.82 0.06
1 3.31 331 -1.178 -9.232 3.127 -8.789 1.312 -12.054 -204.317 2497.973 -3927.142 0.799 0.097 0.401 -0.01 0.57 -0.82 0.06
1 3.32 332 -0.814 -8.912 3.318 -7.294 -0.610 -9.613 -204.317 2497.973 -3927.142 0.446 -0.230 0.194 -0.01 0.57 -0.82 0.05
1 3.33 333 -0.575 -8.394 3.424 -6.317 -0.153 -8.789 -249.438 2332.930 -3987.103 0.219 -0.752 0.076 -0.02 0.57 -0.82 0.05
1 3.34 334 -0.182 -8.054 3.438 -7.843 -3.967 -7.294 -249.438 2332.930 -3987.103 -0.162 -1.096 0.053 -0.02 0.57 -0.82 0.05
1 3.35 335 0.579 -7.724 3.946 -9.155 -4.974 -4.944 -354.369 2437.862 -3807.070 -0.895 -1.436 -0.476 -0.02 0.57 -0.82 0.05
1 3.36 336 1.082 -7.413 4.133 -6.378 -0.397 -3.357 -354.369 2437.862 -3807.070 -1.387 -1.752 -0.674 -0.02 0.57 -0.82 0.05
1 3.37 337 1.518 -7.068 4.190 -2.625 4.517 -1.038 -234.447 2497.973 -3927.142 -1.818 -2.100 -0.740 -0.02 0.57 -0.82 0.05
1 3.38 338 1.791 -6.924 4.166 3.815 9.460 0.427 -264.428 2602.904 -3822.060 -2.091 -2.244 -0.718 -0.02 0.57 -0.82 0.05
1 3.39 339 2.040 -7.049 4.008 16.022 15.411 3.723 -264.428 2602.904 -3822.060 -2.346 -2.116 -0.551 -0.02 0.57 -0.82 0.05
1 3.40 340 1.820 -7.595 3.884 35.553 20.538 9.766 -429.320 2437.862 -3807.070 -2.139 -1.560 -0.400 -0.02 0.57 -0.82 0.05
1 3.41 341 1.580 -8.078 4.018 45.624 24.780 12.360 -429.320 2437.862 -3807.070 -1.920 -1.058 -0.489 -0.01 0.57 -0.82 0.05
1 3.42 342 0.685 -8.964 4.286 45.593 39.551 15.289 -174.336 2437.862 -3912.151 -1.075 -0.119 -0.627 -0.01 0.56 -0.83 0.05
1 3.43 343 -0.091 -8.931 4.611 30.914 45.746 15.137 -174.336 2437.862 -3912.151 -0.333 -0.126 -0.892 -0.01 0.56 -0.83 0.05
1 3.44 344 -1.063 -8.998 4.549 6.104 42.969 13.886 -69.405 2437.862 -3912.151 0.598 -0.042 -0.792 -0 0.56 -0.83 0.05
1 3.45 345 -1.609 -9.055 4.449 -14.496 31.555 11.078 -174.336 2332.930 -3912.151 1.102 0.019 -0.689 -0 0.56 -0.83 0.05
1 3.46 346 -1.762 -9.026 3.922 -19.836 19.714 6.073 -174.336 2332.930 -3912.151 1.220 -0.016 -0.183 0 0.56 -0.83 0.05
1 3.47 347 -0.857 -8.888 3.845 -3.235 4.578 -1.434 -24.434 2197.868 -3897.011 0.292 -0.164 -0.131 0 0.56 -0.83 0.05
1 3.48 348 -0.153 -8.768 4.281 1.404 -0.854 -6.256 -24.434 2197.868 -3897.011 -0.421 -0.286 -0.576 0 0.56 -0.83 0.05
1 3.49 349 0.656 -8.667 4.549 -0.793 -1.526 -11.169 -84.395 2377.901 -3897.011 -1.222 -0.386 -0.840 0 0.56 -0.83 0.05
1 3.50 350 1.781 -8.754 4.654 -8.972 4.547 -17.365 -219.307 2407.881 -3807.070 -2.294 -0.301 -0.940 0 0.56 -0.83 0.04
1 3.51 351 2.107 -8.667 4.506 -10.040 9.644 -20.996 -174.336 2287.959 -3597.057 -2.580 -0.392 -0.798 0 0.56 -0.83 0.04
1 3.52 352 2.337 -8.576 4.128 -6.256 15.564 -21.942 -219.307 2332.930 -3837.050 -2.765 -0.487 -0.426 -0 0.56 -0.83 0.04
1 3.53 353 2.073 -8.677 3.917 1.221 22.247 -21.515 -219.307 2332.930 -3837.050 -2.459 -0.389 -0.217 -0 0.56 -0.83 0.04
1 3.54 354 1.408 -8.835 4.003 10.864 32.776 -21.515 -114.375 2257.979 -3837.050 -1.756 -0.230 -0.296 -0 0.56 -0.83 0.04
1 3.55 355 0.785 -8.945 4.022 8.179 37.720 -20.783 -114.375 2257.979 -3837.050 -1.103 -0.115 -0.300 -0 0.56 -0.83 0.03
1 3.56 356 -0.057 -9.113 3.912 -0.519 37.659 -18.524 -144.356 2512.963 -3732.119 -0.225 0.060 -0.170 0 0.56 -0.83 0.03
1 3.57 357 -0.225 -9.184 3.783 -3.967 35.828 -17.700 -144.356 2512.963 -3732.119 -0.049 0.130 -0.044 0 0.56 -0.83 0.02
1 3.58 358 -0.412 -9.079 3.314 -7.050 27.893 -14.832 -84.395 2302.950 -3747.109 0.144 0.020 0.415 0 0.56 -0.83 0.02
1 3.59 359 -0.235 -9.094 3.347 -4.730 23.132 -14.008 -114.375 2407.881 -3807.070 -0.027 0.029 0.369 0 0.56 -0.83 0.02
1 3.60 360 -0.086 -8.931 3.280 -2.350 20.233 -12.726 -114.375 2407.881 -3807.070 -0.167 -0.137 0.428 0 0.56 -0.83 0.02
1 3.61 361 0.536 -8.777 3.658 -1.770 21.271 -10.254 35.527 2407.881 -3912.151 -0.781 -0.293 0.044 0 0.56 -0.83 0.02
1 3.62 362 0.498 -8.806 3.740 -4.700 23.438 -8.698 35.527 2407.881 -3912.151 -0.734 -0.266 -0.042 0.01 0.56 -0.83 0.01
1 3.63 363 0.512 -8.682 3.788 -6.165 23.529 -8.392 50.967 2301.151 -3750.856 -0.741 -0.393 -0.095 0.01 0.56 -0.83 0.01
1 3.64 364 0.469 -8.634 3.654 -9.064 23.224 -7.324 -128.916 2451.203 -3750.856 -0.687 -0.448 0.022 0.01 0.56 -0.83 0.01
1 3.65 365 0.455 -8.658 3.567 -8.545 23.407 -6.470 -113.926 2361.112 -3810.817 -0.668 -0.429 0.097 0.01 0.56 -0.83 0.01
1 3.66 366 0.364 -8.519 3.534 -5.005 23.651 -6.134 -68.955 2511.164 -3735.866 -0.575 -0.572 0.120 0.01 0.56 -0.83 0.01
1 3.67 367 0.177 -8.595 3.462 -3.815 24.994 -4.639 -68.955 2511.164 -3735.866 -0.387 -0.498 0.185 0.01 0.56 -0.83 0
1 3.68 368 0.110 -8.686 3.338 -0.092 26.337 -4.059 5.996 2481.184 -3630.785 -0.322 -0.409 0.305 0.01 0.56 -0.83 0
1 3.69 369 -0.278 -8.696 3.079 1.465 24.506 -3.357 5.996 2481.184 -3630.785 0.061 -0.400 0.561 0.01 0.56 -0.83 0
1 3.70 370 -0.642 -8.720 2.792 1.831 22.522 -2.533 -38.825 2481.184 -3735.866 0.419 -0.377 0.847 -0.01 -0.56 0.83 0
1 3.71 371 -0.747 -8.701 2.538 4.181 14.496 1.190 20.986 2451.203 -3720.876 0.504 -0.397 1.098 -0.02 -0.56 0.83 0
1 3.72 372 -0.522 -8.744 2.610 3.845 8.392 3.418 95.938 2376.102 -3825.808 0.267 -0.353 1.025 -0.02 -0.56 0.83 0
1 3.73 373 -0.316 -8.801 2.562 2.899 3.265 5.615 216.009 2511.164 -3675.905 0.052 -0.296 1.072 -0.02 -0.56 0.83 0
1 3.74 374 -0.077 -8.734 2.629 1.343 -0.610 8.698 216.009 2511.164 -3675.905 -0.197 -0.364 1.002 -0.02 -0.56 0.83 0
1 3.75 375 0.091 -8.854 2.514 0.519 -1.190 10.284 50.967 2271.170 -3645.775 -0.374 -0.246 1.112 -0.02 -0.56 0.83 0
1 3.76 376 0.364 -8.955 2.615 -0.061 -1.465 12.817 50.967 2271.170 -3645.775 -0.657 -0.147 1.006 -0.02 -0.56 0.83 0
1 3.77 377 0.426 -8.902 2.571 -0.702 -0.214 14.069 -83.945 2301.151 -3720.876 -0.729 -0.202 1.043 -0.02 -0.56 0.83 0
1 3.78 378 0.436 -8.926 2.629 -1.190 1.129 14.435 -158.896 2376.102 -3615.794 -0.751 -0.181 0.978 0.02 0.56 -0.83 0
1 3.79 379 0.397 -8.926 2.763 -4.791 2.808 15.259 65.957 2361.112 -3705.886 -0.739 -0.187 0.825 0.02 0.56 -0.83 0
1 3.80 380 0.211 -8.979 2.888 -4.883 3.204 15.259 50.967 2451.203 -3750.856 -0.568 -0.139 0.688 0.02 0.56 -0.83 0
1 3.81 381 0.053 -9.003 3.074 -5.554 3.387 14.771 50.967 2451.203 -3750.856 -0.425 -0.119 0.489 0.02 0.56 -0.83 0
1 3.82 382 -0.077 -8.801 3.347 -7.111 2.167 14.374 5.996 2406.232 -3735.866 -0.313 -0.324 0.205 0.02 0.56 -0.83 0
1 3.83 383 -0.148 -8.720 4.032 -11.017 1.862 13.611 5.996 2406.232 -3735.866 -0.257 -0.409 -0.492 0.02 0.56 -0.82 0
1 3.84 384 -0.484 -8.825 3.931 -13.336 5.035 12.512 35.977 2286.161 -3780.837 0.063 -0.308 -0.404 0.02 0.57 -0.82 0.01
1 3.85 385 -0.565 -8.730 3.591 -22.064 7.568 11.841 186.029 2361.112 -3675.905 0.127 -0.408 -0.077 0.02 0.57 -0.82 0.01
1 3.86 386 -0.632 -9.122 1.887 -30.396 1.343 12.238 65.957 2361.112 -3780.837 0.156 -0.038 1.562 0.02 0.57 -0.82 0.01
1 3.87 387 -0.359 -9.539 0.886 -18.066 -1.587 14.435 65.957 2556.135 -3675.905 -0.135 0.361 2.515 0.03 0.57 -0.82 0.01
1 3.88 388 -0.029 -9.577 0.804 2.563 -2.350 16.754 65.957 2556.135 -3675.905 -0.484 0.388 2.563 0.03 0.57 -0.82 0.01
1 3.89 389 0.110 -9.620 0.963 18.280 -3.174 18.463 95.938 2496.174 -3540.843 -0.641 0.430 2.398 0.03 0.57 -0.82 0.01
1 3.90 390 0.541 -9.975 1.259 27.618 -3.113 16.846 95.938 2496.174 -3540.843 -1.089 0.790 2.114 0.03 0.57 -0.82 0.01
1 3.91 391 1.207 -10.501 3.635 32.044 7.141 7.874 95.938 2421.223 -3540.843 -1.766 1.326 -0.237 0.03 0.57 -0.82 0.01
1 3.92 392 1.312 -11.287 5.593 39.185 27.680 -5.646 155.898 2271.170 -3645.775 -1.873 2.124 -2.164 0.03 0.57 -0.82 0.01
1 3.93 393 -0.101 -10.611 5.440 22.614 35.278 -26.123 50.967 2346.122 -3750.856 -0.465 1.488 -1.906 0.03 0.56 -0.82 0.01
1 3.94 394 -0.623 -10.559 4.693 -25.147 17.822 -47.669 201.019 2376.102 -3645.775 0.087 1.438 -1.147 0.03 0.56 -0.83 0.01
1 3.95 395 -0.517 -12.268 4.042 -26.611 2.014 -59.845 201.019 2376.102 -3645.775 0.048 3.128 -0.539 0.03 0.57 -0.82 0
1 3.96 396 -0.239 -12.541 4.200 7.263 -12.299 -61.218 95.938 2271.170 -3585.814 -0.143 3.387 -0.722 -0.03 -0.57 0.82 0
1 3.97 397 0.259 -11.023 3.299 7.233 -27.283 -57.617 95.938 2271.170 -3585.814 -0.546 1.872 0.194 -0.02 -0.57 0.82 0.01
1 3.98 398 0.891 -10.674 2.385 -33.203 -47.119 -50.873 65.957 2436.213 -3525.853 -1.079 1.520 1.111 -0.02 -0.57 0.82 0.01
1 3.99 399 1.288 -11.167 2.725 -33.081 -47.272 -40.466 -38.825 2256.180 -3780.837 -1.376 1.998 0.733 -0.01 -0.57 0.82 0.01
1 4.00 400 1.695 -10.880 3.654 -10.132 -27.405 -23.163 -53.965 2496.174 -3615.794 -1.627 1.680 -0.277 -0 -0.57 0.82 0.01
1 4.01 401 1.528 -10.487 4.238 6.439 -10.620 -11.780 20.986 2376.102 -3615.794 -1.417 1.285 -0.869 -0 -0.57 0.82 0.01
1 4.02 402 0.986 -9.960 4.971 21.240 1.740 -2.228 20.986 2376.102 -3615.794 -0.857 0.764 -1.587 0 -0.57 0.82 0.01
1 4.03 403 0.316 -9.457 5.521 23.285 10.925 2.075 -218.857 2436.213 -3675.905 -0.186 0.273 -2.106 0 -0.57 0.82 0.01
1 4.04 404 -0.412 -9.103 5.622 10.590 14.252 0.854 -218.857 2436.213 -3675.905 0.535 -0.071 -2.177 -0 -0.57 0.82 0.01
1 4.05 405 -0.771 -9.156 5.344 -14.008 3.906 -5.463 -143.906 2481.184 -3735.866 0.887 -0.009 -1.875 -0 -0.57 0.82 0.01
1 4.06 406 -1.101 -9.343 5.445 -20.599 -5.554 -11.169 -53.965 2301.151 -3615.794 1.216 0.177 -1.977 -0 -0.57 0.82 0.01
1 4.07 407 -1.384 -9.141 5.512 -15.259 -14.221 -16.419 -53.965 2301.151 -3615.794 1.509 -0.029 -2.059 -0 -0.57 0.82 0.01
1 4.08 408 -1.820 -8.346 5.234 -11.047 -29.755 -23.590 -128.916 2421.223 -3645.775 2.005 -0.833 -1.807 0 -0.57 0.82 0.01
1 4.09 409 -1.657 -7.767 4.923 -15.930 -38.147 -25.055 -128.916 2421.223 -3645.775 1.880 -1.413 -1.499 0 -0.57 0.82 0.01
1 4.10 410 -1.475 -7.556 4.453 -22.064 -40.070 -22.797 -263.828 2526.154 -3585.814 1.740 -1.627 -1.042 0.01 -0.57 0.82 0.01
1 4.11 411 -1.231 -7.963 4.037 -17.517 -37.445 -15.991 -263.828 2526.154 -3585.814 1.535 -1.226 -0.645 0.01 -0.57 0.82 0.01
1 4.12 412 -0.948 -8.294 3.716 1.648 -35.919 -0.336 -218.857 2481.184 -3555.833 1.287 -0.901 -0.343 0.01 -0.57 0.82 0.01
1 4.13 413 -0.963 -8.227 3.759 11.932 -37.293 12.726 -308.949 2301.151 -3465.892 1.317 -0.967 -0.385 0.02 -0.57 0.82 0.01
1 4.14 414 -0.589 -8.270 3.864 14.374 -38.025 24.811 -308.949 2301.151 -3465.892 0.942 -0.918 -0.473 0.02 -0.57 0.82 0.01
1 4.15 415 -0.579 -8.437 3.912 10.681 -39.856 35.339 -323.939 2406.232 -3555.833 0.914 -0.742 -0.497 0.02 -0.57 0.82 0
1 4.16 416 -0.350 -8.696 4.113 2.777 -45.685 44.037 -353.770 2435.463 -3782.336 0.616 -0.473 -0.665 -0.02 0.57 -0.82 0.01
1 4.17 417 -0.211 -8.754 4.200 -3.296 -52.063 44.190 -398.890 2360.512 -3557.333 0.437 -0.415 -0.745 -0.02 0.57 -0.82 0.01
1 4.18 418 -0.072 -8.653 4.209 -11.566 -55.939 41.779 -398.890 2360.512 -3557.333 0.263 -0.517 -0.758 -0.02 0.57 -0.82 0.02
1 4.19 419 0.077 -8.591 4.185 -19.043 -56.183 35.706 -488.832 2570.525 -3647.274 0.088 -0.585 -0.748 -0.03 0.57 -0.82 0.02
1 4.20 420 0.412 -8.265 3.802 -28.168 -52.338 27.832 -353.770 2435.463 -3632.284 -0.265 -0.920 -0.389 -0.03 0.57 -0.82 0.03
1 4.21 421 0.474 -8.179 3.611 -30.396 -47.119 23.560 -353.770 2435.463 -3632.284 -0.337 -1.019 -0.230 -0.03 0.57 -0.82 0.03
1 4.22 422 0.512 -8.284 3.453 -23.560 -36.499 19.135 -668.864 2420.473 -3542.342 -0.384 -0.940 -0.147 -0.03 0.57 -0.82 0.04
1 4.23 423 0.383 -8.481 3.318 -15.198 -30.884 17.914 -668.864 2420.473 -3542.342 -0.258 -0.754 -0.040 -0.04 0.58 -0.82 0.04
1 4.24 424 0.206 -8.591 3.314 -7.080 -27.557 16.754 -443.861 2525.555 -3617.293 -0.087 -0.650 -0.052 -0.04 0.58 -0.82 0.04
1 4.25 425 -0.014 -8.677 3.194 -0.977 -26.428 15.472 -443.861 2525.555 -3617.293 0.127 -0.566 0.062 -0.04 0.58 -0.81 0.04
1 4.26 426 -0.120 -8.825 3.256 3.204 -27.283 12.482 -488.832 2495.574 -3512.362 0.226 -0.417 0.001 -0.04 0.58 -0.81 0.05
1 4.27 427 0.105 -8.816 3.060 7.111 -28.504 8.148 -488.832 2450.604 -3617.293 -0.002 -0.424 0.204 -0.04 0.58 -0.81 0.05
1 4.28 428 0.335 -8.619 3.060 7.965 -26.215 6.714 -488.832 2450.604 -3617.293 -0.229 -0.617 0.214 -0.04 0.58 -0.82 0.05
1 4.29 429 0.378 -8.404 2.907 6.500 -22.888 5.310 -533.802 2630.486 -3527.352 -0.266 -0.829 0.378 -0.04 0.57 -0.82 0.05
1 4.30 430 0.464 -8.538 2.696 -0.031 -16.724 4.456 -503.822 2405.483 -3602.303 -0.337 -0.690 0.601 -0.05 0.57 -0.82 0.05
1 4.31 431 0.388 -8.442 2.734 -2.319 -13.489 4.486 -503.822 2405.483 -3497.372 -0.254 -0.787 0.560 -0.05 0.57 -0.82 0.06
1 4.32 432 0.067 -8.509 2.883 -4.791 -11.139 3.906 -503.822 2405.483 -3497.372 0.072 -0.722 0.405 -0.05 0.57 -0.82 0.06
1 4.33 433 -0.302 -8.423 2.773 -8.850 -10.040 3.143 -533.802 2660.467 -3527.352 0.443 -0.812 0.505 -0.05 0.57 -0.81 0.06
1 4.34 434 -0.603 -8.572 2.825 -14.557 -11.688 2.380 -578.773 2360.512 -3497.372 0.746 -0.669 0.436 -0.05 0.58 -0.81 0.06
1 4.35 435 -0.771 -8.663 2.873 -17.792 -13.489 2.686 -578.773 2360.512 -3497.372 0.913 -0.585 0.367 -0.05 0.58 -0.81 0.06
1 4.36 436 -0.713 -8.739 2.830 -20.630 -14.648 2.106 -578.773 2405.483 -3677.254 0.855 -0.518 0.385 -0.05 0.58 -0.81 0.06
1 4.37 437 -0.488 -8.495 2.413 -21.759 -15.167 2.991 -594.213 2372.205 -3369.655 0.629 -0.783 0.739 -0.05 0.58 -0.81 0.06
1 4.38 438 -0.345 -8.500 2.428 -20.081 -13.367 3.662 -699.145 2567.228 -3369.655 0.485 -0.790 0.691 -0.05 0.58 -0.81 0.06
1 4.39 439 -0.215 -8.595 2.366 -18.066 -11.505 4.456 -699.145 2567.228 -3369.655 0.354 -0.704 0.723 -0.05 0.58 -0.81 0.06
1 4.40 440 -0.057 -8.639 2.303 -13.428 -10.590 5.005 -579.223 2477.136 -3789.981 0.194 -0.670 0.757 -0.05 0.58 -0.81 0.06
1 4.41 441 0.029 -8.605 2.174 -10.986 -9.369 4.730 -579.223 2627.188 -3324.984 0.107 -0.711 0.864 -0.06 0.58 -0.81 0.06
1 4.42 442 -0.192 -8.821 2.231 -8.789 -10.162 4.089 -579.373 2625.240 -3330.081 0.326 -0.502 0.788 -0.06 0.59 -0.81 0.07
1 4.43 443 -0.153 -8.873 2.102 -9.552 -11.902 3.082 -564.382 2415.227 -3479.983 0.287 -0.455 0.900 -0.06 0.59 -0.81 0.07
1 4.44 444 0.077 -9.261 2.155 -12.909 -10.651 0.092 -699.444 2520.308 -3450.002 0.060 -0.079 0.809 -0.06 0.59 -0.8 0.07
1 4.45 445 -0.153 -9.371 2.131 -15.167 -6.866 -2.960 -669.464 2640.230 -3479.983 0.297 0.024 0.809 -0.06 0.59 -0.8 0.07
1 4.46 446 -0.297 -9.611 2.217 -18.158 -3.540 -6.836 -669.464 2640.230 -3479.983 0.450 0.254 0.694 -0.06 0.59 -0.8 0.07
1 4.47 447 -0.450 -9.505 2.155 -22.339 -2.136 -9.827 -699.444 2490.328 -3345.071 0.615 0.139 0.724 -0.06 0.59 -0.8 0.07
1 4.48 448 -0.450 -9.563 2.093 -26.306 -2.991 -13.916 -669.464 2490.328 -3375.051 0.628 0.185 0.747 -0.06 0.59 -0.8 0.07
1 4.49 449 -0.345 -9.362 1.973 -26.550 -2.747 -15.381 -669.464 2490.328 -3375.051 0.540 -0.029 0.824 -0.06 0.59 -0.8 0.07
1 4.50 450 -0.354 -9.357 1.982 -26.856 -3.571 -15.533 -729.425 2445.207 -3270.120 0.570 -0.046 0.771 -0.06 0.6 -0.8 0.07
1 4.51 451 -0.134 -9.620 2.519 -23.865 -1.953 -14.923 -699.444 2640.230 -3420.022 0.394 0.194 0.148 -0.07 0.6 -0.79 0.06
1 4.52 452 0.048 -9.481 3.165 -16.602 0.549 -12.421 -564.382 2670.210 -3450.002 0.232 0.046 -0.532 -0.07 0.6 -0.79 0.06
1 4.53 453 0.177 -9.520 3.362 -9.613 1.160 -10.742 -564.382 2670.210 -3450.002 0.120 0.080 -0.747 -0.07 0.6 -0.79 0.06
1 4.54 454 0.546 -9.323 3.213 -7.141 -0.549 -9.674 -699.444 2640.230 -3450.002 -0.233 -0.118 -0.606 -0.07 0.6 -0.79 0.06
1 4.55 455 0.374 -9.031 2.169 -9.857 -5.096 -10.071 -684.454 2625.240 -3254.979 -0.042 -0.411 0.433 -0.07 0.6 -0.79 0.06
1 4.56 456 0.144 -9.390 0.690 -6.683 -13.641 -10.773 -684.454 2625.240 -3254.979 0.208 -0.056 1.897 -0.07 0.6 -0.79 0.06
1 4.57 457 -0.220 -10.113 0.455 9.155 -17.639 -10.803 -624.493 2565.279 -3345.071 0.595 0.662 2.110 -0.07 0.6 -0.79 0.06
1 4.58 458 -0.603 -11.196 0.560 33.020 -17.853 -7.660 -774.396 2775.292 -3180.028 1.001 1.743 1.996 -0.07 0.6 -0.79 0.06
1 4.59 459 -1.216 -12.187 1.604 61.127 -15.167 -0.702 -684.454 2655.220 -3330.081 1.645 2.761 1.044 -0.07 0.6 -0.79 0.06
1 4.60 460 -1.140 -12.498 4.295 77.057 -11.139 6.439 -684.454 2655.220 -3330.081 1.576 3.099 -1.554 -0.08 0.6 -0.8 0.06
1 4.61 461 -0.565 -13.322 4.123 93.811 -17.853 20.325 -654.474 2550.289 -3180.028 0.994 3.958 -1.264 -0.07 0.59 -0.8 0.06
1 4.62 462 1.140 -13.446 4.904 47.089 -40.436 36.530 -699.444 2595.259 -3375.051 -0.733 4.121 -1.919 -0.07 0.58 -0.8 0.07
1 4.63 463 3.371 -12.402 5.272 -58.685 -5.615 59.113 -699.444 2595.259 -3375.051 -3.002 3.085 -2.258 -0.08 0.58 -0.81 0.07
1 4.64 464 3.065 -13.164 4.923 -22.583 30.121 60.669 -849.497 2400.236 -3510.113 -2.767 3.820 -1.983 -0.07 0.59 -0.8 0.08
1 4.65 465 2.251 -12.876 4.765 -0.854 36.347 59.876 -774.396 2475.188 -3360.061 -2.048 3.515 -1.872 -0.07 0.59 -0.8 0.08
1 4.66 466 1.370 -10.770 3.256 -33.386 47.424 52.429 -684.454 2550.289 -3285.110 -1.363 1.400 -0.384 -0.06 0.59 -0.8 0.08
1 4.67 467 0.407 -9.946 2.246 -60.394 59.754 40.589 -684.454 2550.289 -3285.110 -0.492 0.559 0.567 -0.06 0.59 -0.8 0.08
1 4.68 468 -1.389 -10.362 2.174 -54.688 63.141 23.102 -684.454 2625.240 -3285.110 1.233 0.949 0.546 -0.05 0.6 -0.79 0.08
1 4.69 469 -2.897 -10.822 2.571 -10.468 50.171 3.418 -669.464 2595.259 -3315.090 2.687 1.389 0.076 -0.05 0.6 -0.79 0.08
1 4.70 470 -3.702 -10.343 2.974 47.882 32.745 -14.465 -669.464 2595.259 -3315.090 3.477 0.912 -0.321 -0.05 0.6 -0.79 0.08
1 4.71 471 -2.988 -8.380 4.200 84.381 10.315 -33.508 -519.412 2715.331 -3315.090 2.781 -1.028 -1.464 -0.04 0.6 -0.8 0.08
1 4.72 472 -2.107 -6.833 4.607 60.089 3.540 -36.591 -504.421 2505.318 -3435.012 1.928 -2.539 -1.748 -0.04 0.59 -0.8 0.07
1 4.73 473 -0.374 -6.412 4.602 -15.717 3.815 -22.614 -609.503 2505.318 -3435.012 0.275 -2.917 -1.600 -0.05 0.59 -0.81 0.07
1 4.74 474 0.532 -7.537 4.463 -41.687 8.362 -3.906 -609.503 2505.318 -3435.012 -0.604 -1.803 -1.497 -0.05 0.59 -0.8 0.07
1 4.75 475 0.943 -8.969 3.769 -20.081 11.566 18.738 -594.363 2445.207 -3239.989 -1.020 -0.389 -0.859 -0.05 0.59 -0.8 0.07
1 4.76 476 1.638 -9.587 3.381 32.868 4.150 40.863 -594.363 2415.227 -3555.084 -1.745 0.229 -0.473 -0.05 0.59 -0.8 0.07
1 4.77 477 2.212 -9.266 3.826 79.163 -2.808 58.594 -594.363 2415.227 -3555.084 -2.372 -0.069 -0.848 -0.04 0.59 -0.8 0.07
1 4.78 478 3.218 -7.872 4.377 68.329 9.857 67.871 -624.493 2520.308 -3345.071 -3.445 -1.421 -1.276 -0.04 0.58 -0.81 0.08
1 4.79 479 3.002 -7.705 4.037 34.729 24.078 60.120 -534.402 2355.266 -3464.993 -3.304 -1.547 -0.820 -0.04 0.58 -0.81 0.08
1 4.80 480 2.366 -8.505 4.094 19.470 50.934 31.372 -504.421 2430.217 -3464.993 -2.796 -0.704 -0.770 -0.03 0.57 -0.81 0.08
1 4.81 481 1.571 -8.524 4.372 21.240 58.289 19.531 -504.421 2430.217 -3464.993 -2.040 -0.672 -1.016 -0.03 0.57 -0.82 0.08
1 4.82 482 -0.848 -8.064 4.334 19.409 56.488 -18.250 -519.412 2415.227 -3479.983 0.359 -1.116 -0.939 -0.03 0.57 -0.82 0.08
1 4.83 483 -1.695 -8.366 3.836 5.432 47.272 -39.612 -414.480 2370.256 -3450.002 1.214 -0.805 -0.414 -0.02 0.57 -0.82 0.08
1 4.84 484 -1.298 -8.639 3.496 2.716 33.478 -55.908 -414.480 2370.256 -3450.002 0.849 -0.531 -0.066 -0.02 0.57 -0.82 0.07
1 4.85 485 0.737 -8.639 3.697 3.174 23.254 -60.181 -354.369 2355.266 -3540.094 -1.127 -0.531 -0.262 -0.02 0.57 -0.82 0.07
1 4.86 486 1.508 -8.605 4.051 -3.326 28.290 -50.018 -429.470 2400.236 -3540.094 -1.823 -0.566 -0.611 -0.02 0.57 -0.82 0.06
1 4.87 487 1.676 -8.615 4.276 -10.010 38.605 -36.408 -429.470 2400.236 -3540.094 -1.918 -0.558 -0.835 -0.03 0.57 -0.82 0.06
1 4.88 488 0.646 -8.562 3.658 -11.993 43.549 -17.365 -309.398 2265.324 -3450.002 -0.807 -0.619 -0.235 -0.02 0.57 -0.82 0.05
1 4.89 489 0.340 -8.452 3.577 -6.622 40.466 -10.132 -309.398 2370.256 -3555.084 -0.492 -0.734 -0.166 -0.02 0.57 -0.82 0.05
1 4.90 490 0.043 -8.466 3.309 -1.587 37.628 -5.035 -414.480 2295.305 -3479.983 -0.197 -0.722 0.096 -0.02 0.57 -0.82 0.04
1 4.91 491 0.086 -8.404 3.218 2.167 33.142 -4.272 -414.480 2295.305 -3479.983 -0.248 -0.784 0.187 -0.02 0.57 -0.82 0.04
1 4.92 492 0.263 -8.605 3.639 8.301 26.001 -7.324 -474.441 2430.217 -3285.110 -0.432 -0.581 -0.229 -0.02 0.57 -0.82 0.04
1 4.93 493 0.278 -8.619 3.553 11.444 23.743 -9.308 -474.441 2325.285 -3360.061 -0.447 -0.562 -0.131 -0.02 0.57 -0.82 0.04
1 4.94 494 0.397 -8.615 3.486 14.984 22.736 -10.498 -474.441 2325.285 -3360.061 -0.562 -0.560 -0.046 -0.02 0.57 -0.82 0.04
1 4.95 495 0.436 -8.485 3.285 15.503 23.956 -10.681 -339.379 2295.305 -3450.002 -0.584 -0.673 0.200 -0.02 0.57 -0.82 0.04
1 4.96 496 0.206 -8.375 3.170 12.360 25.208 -10.590 -399.490 2325.285 -3405.032 -0.346 -0.775 0.335 -0.01 0.57 -0.82 0.03
1 4.97 497 0.187 -8.366 3.050 8.759 24.475 -9.644 -309.398 2265.324 -3315.090 -0.321 -0.779 0.470 -0.01 0.57 -0.82 0.03
1 4.98 498 0.072 -8.102 2.978 5.157 24.353 -8.026 -309.398 2265.324 -3315.090 -0.202 -1.039 0.551 -0.01 0.57 -0.82 0.03
1 4.99 499 -0.043 -8.093 2.854 0.305 24.017 -5.890 -264.428 2445.207 -3479.983 -0.088 -1.046 0.681 -0.01 0.57 -0.82 0.03
1 5.00 500 -0.225 -7.872 2.557 -6.439 20.783 -1.068 -249.438 2475.188 -3510.113 0.091 -1.267 0.977 -0.01 0.57 -0.82 0.03
1 5.01 501 -0.594 -7.796 2.452 -10.010 16.876 2.594 -249.438 2475.188 -3510.113 0.453 -1.347 1.074 -0.01 0.57 -0.82 0.03
1 5.02 502 -0.546 -7.757 2.346 -12.116 9.033 7.477 -219.457 2280.314 -3405.032 0.383 -1.396 1.151 -0.01 0.57 -0.82 0.03
1 5.03 503 -0.402 -7.939 2.380 -10.345 7.446 11.139 -384.500 2340.275 -3450.002 0.225 -1.220 1.100 -0.01 0.57 -0.82 0.03
1 5.04 504 -0.374 -8.241 2.409 -3.235 7.813 14.984 -309.398 2340.275 -3479.983 0.177 -0.923 1.059 -0.01 0.57 -0.82 0.03
1 5.05 505 -0.407 -8.337 2.337 3.784 6.348 19.226 -309.398 2340.275 -3479.983 0.187 -0.827 1.129 -0.01 0.57 -0.82 0.03
1 5.06 506 -0.364 -8.303 2.418 6.104 2.472 22.705 -234.447 2415.227 -3375.051 0.114 -0.857 1.054 -0 0.57 -0.82 0.03
1 5.07 507 -0.235 -8.610 2.524 2.014 -2.228 26.093 -234.447 2295.305 -3420.022 -0.047 -0.547 0.957 -0 0.57 -0.82 0.03
1 5.08 508 -0.072 -8.878 2.586 1.068 -7.721 28.046 -234.447 2295.305 -3420.022 -0.244 -0.277 0.896 -0 0.57 -0.82 0.03
1 5.09 509 -0.038 -9.065 2.552 -0.183 -13.702 30.975 -129.366 2445.207 -3375.051 -0.310 -0.090 0.927 -0 0.57 -0.82 0.03
1 5.10 510 0.230 -9.175 2.624 -1.251 -16.510 33.020 -143.906 2277.167 -3366.957 -0.640 0.018 0.844 -0 0.57 -0.82 0.04
1 5.11 511 0.326 -9.304 2.725 -1.465 -17.548 34.515 -338.779 2292.307 -3426.917 -0.768 0.147 0.738 -0 0.57 -0.82 0.04
1 5.12 512 0.397 -9.462 3.069 -1.862 -16.083 33.875 -338.779 2292.307 -3426.917 -0.871 0.305 0.388 -0 0.57 -0.82 0.05
1 5.13 513 0.388 -9.635 3.371 -6.622 -13.855 33.142 -173.887 2277.167 -3472.038 -0.893 0.476 0.080 -0 0.57 -0.82 0.05
1 5.14 514 0.397 -9.692 3.898 -15.381 -12.543 24.628 -233.848 2442.209 -3606.950 -0.931 0.531 -0.459 -0 0.57 -0.82 0.05
1 5.15 515 0.340 -9.721 3.860 -18.860 -9.857 19.226 -233.848 2442.209 -3606.950 -0.895 0.554 -0.439 -0 0.57 -0.82 0.05
1 5.16 516 0.249 -9.457 2.787 -17.304 -5.157 12.421 -218.857 2472.189 -3546.989 -0.827 0.274 0.586 -0 0.57 -0.82 0.06
1 5.17 517 0.057 -9.261 2.073 -16.754 -4.425 11.353 -203.867 2337.277 -3531.999 -0.642 0.069 1.273 -0 0.57 -0.82 0.06
1 5.18 518 0.417 -8.926 0.575 -15.442 -5.066 9.796 -248.838 2397.238 -3442.058 -1.006 -0.278 2.738 -0 0.58 -0.82 0.06
1 5.19 519 0.584 -9.386 0.081 0.153 -5.280 8.972 -248.838 2397.238 -3442.058 -1.175 0.170 3.199 -0 0.58 -0.81 0.06
1 5.20 520 0.915 -10.094 0.010 24.323 -0.488 4.913 -143.906 2502.170 -3472.038 -1.505 0.874 3.259 -0 0.58 -0.81 0.06
1 5.21 521 1.398 -10.200 0.105 34.943 4.456 1.007 -113.776 2427.219 -3336.976 -1.982 0.985 3.179 -0 0.58 -0.82 0.06
1 5.22 522 1.719 -10.425 1.911 17.609 1.892 -7.233 -113.776 2427.219 -3336.976 -2.290 1.218 1.398 -0 0.58 -0.82 0.06
1 5.23 523 1.518 -11.416 6.714 27.405 2.655 -21.362 -173.887 2202.215 -3292.005 -2.063 2.210 -3.398 -0.01 0.58 -0.82 0.06
1 5.24 524 0.948 -11.684 7.307 58.136 37.995 -39.765 -353.770 2277.167 -3442.058 -1.420 2.510 -3.893 -0.01 0.57 -0.82 0.05
1 5.25 525 -0.761 -9.615 6.220 -24.811 27.222 -63.812 -218.857 2247.186 -3517.009 0.335 0.461 -2.749 -0.01 0.57 -0.82 0.05
1 5.26 526 -0.910 -11.981 3.223 -75.684 -2.686 -72.724 -218.857 2247.186 -3517.009 0.571 2.798 0.183 -0.01 0.57 -0.82 0.04
1 5.27 527 -0.718 -13.082 3.146 -11.749 -23.712 -61.768 -248.838 2277.167 -3442.058 0.485 3.864 0.172 -0.01 0.57 -0.82 0.04
1 5.28 528 -0.618 -11.244 5.143 10.529 -27.893 -55.115 -173.887 2247.186 -3411.927 0.485 2.024 -1.824 -0.02 0.57 -0.82 0.04
1 5.29 529 -1.216 -8.777 3.764 -32.288 -53.467 -51.941 -173.887 2247.186 -3411.927 1.179 -0.436 -0.424 -0.02 0.57 -0.82 0.03
1 5.30 530 -0.579 -8.481 3.247 -77.149 -73.364 -48.065 -338.779 2412.229 -3426.917 0.637 -0.741 0.069 -0.03 0.57 -0.82 0.03
1 5.31 531 1.451 -10.032 4.362 -52.368 -51.422 -29.389 -263.828 2337.277 -3321.986 -1.205 0.741 -1.255 -0.04 0.58 -0.81 0.03
1 5.32 532 1.915 -10.334 5.143 22.888 -22.003 -12.878 -293.809 2427.219 -3262.025 -1.608 1.029 -2.083 -0.04 0.58 -0.81 0.03
1 5.33 533 1.513 -9.821 6.086 75.867 13.214 -1.373 -293.809 2427.219 -3262.025 -1.184 0.536 -2.971 -0.04 0.58 -0.81 0.03
1 5.34 534 0.311 -9.228 6.618 68.207 34.241 0.946 -518.812 2442.209 -3321.986 0.011 -0.020 -3.391 -0.04 0.58 -0.81 0.03
1 5.35 535 -0.939 -9.156 6.340 23.224 26.764 -5.585 -608.903 2352.268 -3411.927 1.245 -0.063 -3.029 -0.04 0.57 -0.82 0.03
1 5.36 536 -1.877 -10.113 5.483 -20.752 -5.005 -21.484 -609.203 2349.270 -3418.523 2.187 0.902 -2.153 -0.04 0.57 -0.82 0.03
1 5.37 537 -1.638 -9.682 4.621 -13.184 -14.313 -26.581 -474.141 2349.270 -3418.523 1.977 0.463 -1.316 -0.04 0.57 -0.82 0.03
1 5.38 538 -1.906 -9.544 4.247 -8.606 -20.020 -29.511 -474.141 2349.270 -3418.523 2.289 0.318 -0.965 -0.04 0.58 -0.82 0.03
1 5.39 539 -1.839 -9.716 3.994 -7.751 -39.246 -24.750 -564.083 2439.361 -3433.513 2.305 0.488 -0.728 -0.05 0.58 -0.82 0.03
1 5.40 540 -1.125 -9.237 4.228 -18.707 -50.720 -12.634 -564.083 2439.361 -3433.513 1.628 0.006 -0.976 -0.05 0.58 -0.82 0.03
1 5.41 541 -0.464 -9.046 4.195 -35.156 -51.361 4.913 -474.141 2349.270 -3448.503 0.993 -0.194 -0.972 -0.05 0.58 -0.81 0.03
1 5.42 542 -0.383 -9.132 4.037 -39.673 -47.333 23.712 -579.073 2394.240 -3343.572 0.916 -0.125 -0.863 -0.06 0.58 -0.81 0.03
1 5.43 543 -0.594 -9.161 3.850 -22.064 -43.274 47.241 -579.073 2394.240 -3343.572 1.104 -0.114 -0.726 -0.06 0.58 -0.81 0.04
1 5.44 544 -0.929 -8.950 4.032 -12.054 -44.403 56.976 -624.193 2514.312 -3358.562 1.393 -0.338 -0.941 -0.06 0.58 -0.81 0.04
1 5.45 545 -1.140 -8.840 4.238 -8.942 -49.683 62.500 -624.193 2514.312 -3358.562 1.540 -0.457 -1.164 -0.06 0.58 -0.81 0.05
1 5.46 546 -1.144 -8.787 4.300 -14.740 -62.531 58.045 -669.164 2439.361 -3253.630 1.400 -0.520 -1.243 -0.06 0.58 -0.81 0.06
1 5.47 547 -0.685 -9.098 4.190 -18.585 -68.848 47.699 -669.164 2439.361 -3253.630 0.883 -0.216 -1.149 -0.06 0.58 -0.81 0.07
1 5.48 548 -0.091 -9.046 3.979 -18.890 -69.092 33.600 -624.193 2439.361 -3388.542 0.254 -0.275 -0.957 -0.06 0.58 -0.81 0.07
1 5.49 549 0.469 -8.749 3.711 -20.172 -62.531 19.898 -594.063 2589.263 -3358.562 -0.319 -0.579 -0.710 -0.06 0.59 -0.8 0.08
1 5.50 550 0.967 -8.289 3.467 -26.886 -51.117 8.820 -594.063 2589.263 -3358.562 -0.810 -1.047 -0.491 -0.07 0.59 -0.8 0.08
1 5.51 551 1.724 -7.825 3.022 -38.147 -29.205 0.244 -669.164 2589.263 -3328.582 -1.548 -1.522 -0.082 -0.07 0.59 -0.8 0.08
1 5.52 552 1.695 -7.887 2.734 -35.614 -15.625 -1.160 -669.164 2589.263 -3328.582 -1.504 -1.477 0.152 -0.07 0.59 -0.8 0.08
1 5.53 553 1.106 -7.896 2.648 -12.116 -4.425 0.885 -819.066 2574.273 -3193.520 -0.896 -1.494 0.148 -0.08 0.59 -0.8 0.08
1 5.54 554 0.603 -7.949 2.777 5.402 -0.488 2.167 -819.066 2574.273 -3193.520 -0.391 -1.444 0.008 -0.08 0.59 -0.8 0.08
1 5.55 555 -0.110 -8.165 2.897 14.496 1.526 2.838 -774.096 2619.244 -3238.640 0.321 -1.225 -0.100 -0.08 0.59 -0.8 0.08
1 5.56 556 -0.646 -8.533 2.797 13.672 0.031 1.923 -849.197 2544.292 -3133.559 0.855 -0.850 0.022 -0.08 0.59 -0.8 0.08
1 5.57 557 -1.379 -8.548 3.026 11.993 -7.263 1.526 -849.197 2544.292 -3133.559 1.585 -0.830 -0.188 -0.08 0.59 -0.8 0.09
1 5.58 558 -1.475 -8.284 2.974 6.134 -23.254 0.458 -744.115 2499.322 -3343.572 1.675 -1.088 -0.117 -0.08 0.59 -0.8 0.09
1 5.59 559 -1.212 -8.188 2.892 -1.648 -29.511 0.092 -744.115 2499.322 -3343.572 1.409 -1.180 -0.023 -0.08 0.59 -0.8 0.09
1 5.60 560 -0.464 -7.853 2.739 -11.108 -27.710 0.916 -759.105 2559.283 -3208.510 0.684 -1.517 0.121 -0.08 0.59 -0.8 0.09
1 5.61 561 -0.168 -7.748 2.610 -12.695 -25.848 0.885 -759.105 2559.283 -3208.510 0.400 -1.628 0.233 -0.08 0.59 -0.8 0.09
1 5.62 562 0.460 -7.935 2.327 -18.250 -20.569 1.923 -759.105 2439.361 -3208.510 -0.218 -1.448 0.492 -0.08 0.59 -0.8 0.09
1 5.63 563 0.613 -8.141 2.174 -21.179 -16.022 1.923 -774.096 2574.273 -3193.520 -0.363 -1.250 0.618 -0.09 0.59 -0.8 0.09
1 5.64 564 0.680 -8.270 2.160 -21.790 -12.665 0.854 -774.096 2574.273 -3193.520 -0.424 -1.130 0.600 -0.09 0.59 -0.79 0.09
1 5.65 565 0.306 -8.591 2.083 -15.991 -9.399 -1.190 -909.158 2664.364 -3208.510 -0.044 -0.818 0.647 -0.09 0.59 -0.79 0.09
1 5.66 566 -0.192 -8.801 2.050 -11.566 -10.986 -3.571 -909.158 2664.364 -3208.510 0.461 -0.614 0.656 -0.09 0.6 -0.79 0.09
1 5.67 567 -0.311 -9.094 2.126 -10.986 -13.062 -5.859 -819.066 2649.374 -3058.607 0.592 -0.327 0.559 -0.09 0.6 -0.79 0.09
1 5.68 568 -0.584 -9.275 2.212 -12.360 -11.475 -9.888 -819.066 2499.322 -3163.539 0.890 -0.156 0.432 -0.09 0.6 -0.79 0.1
1 5.69 569 -0.599 -9.582 2.193 -11.749 -10.681 -11.536 -924.148 2694.345 -3268.621 0.919 0.145 0.431 -0.09 0.6 -0.79 0.1
1 5.70 570 -0.608 -9.654 2.169 -13.275 -9.552 -12.939 -864.187 2589.263 -3208.510 0.946 0.212 0.435 -0.09 0.6 -0.79 0.1
1 5.71 571 -0.522 -9.668 1.882 -15.503 -10.803 -13.855 -864.187 2589.263 -3208.510 0.878 0.221 0.698 -0.1 0.6 -0.79 0.09
1 5.72 572 -0.105 -9.405 1.681 -18.524 -12.817 -15.381 -804.076 2664.364 -3103.578 0.482 -0.050 0.871 -0.1 0.6 -0.79 0.09
1 5.73 573 -0.019 -9.357 1.595 -20.355 -11.780 -17.578 -804.076 2664.364 -3103.578 0.419 -0.105 0.925 -0.1 0.6 -0.79 0.09
1 5.74 574 -0.110 -9.175 1.513 -20.355 -9.644 -18.616 -924.148 2649.374 -3163.539 0.539 -0.295 0.971 -0.1 0.6 -0.79 0.09
1 5.75 575 -0.125 -9.275 1.528 -13.397 -7.324 -18.677 -924.148 2694.345 -3133.559 0.611 -0.209 0.889 -0.1 0.61 -0.78 0.09
1 5.76 576 -0.302 -9.481 1.757 -6.866 -6.622 -18.524 -849.796 2767.647 -3093.685 0.815 -0.008 0.637 -0.1 0.61 -0.78 0.09
1 5.77 577 -0.479 -9.754 1.772 -1.190 -7.874 -15.198 -999.849 2692.696 -3138.655 1.017 0.263 0.609 -0.11 0.61 -0.78 0.09
1 5.78 578 -0.340 -10.133 2.050 4.028 -11.108 -10.315 -999.849 2692.696 -3138.655 0.896 0.641 0.326 -0.11 0.61 -0.78 0.09
1 5.79 579 -0.168 -10.037 2.308 11.139 -15.137 -3.540 -954.878 2692.696 -3168.636 0.736 0.547 0.071 -0.11 0.61 -0.78 0.09
1 5.80 580 0.081 -9.721 2.571 15.106 -14.923 1.190 -954.878 2692.696 -3168.636 0.494 0.234 -0.181 -0.11 0.61 -0.78 0.09
1 5.81 581 0.211 -9.486 2.346 10.468 -13.916 4.303 -849.796 2692.696 -3168.636 0.367 0.005 0.063 -0.11 0.6 -0.78 0.09
1 5.82 582 0.321 -9.836 1.370 -5.615 -14.313 7.172 -1014.839 2812.768 -3153.646 0.251 0.358 1.057 -0.11 0.6 -0.78 0.09
1 5.83 583 -0.053 -10.540 0.848 -9.888 -14.771 8.453 -939.888 2707.686 -3108.675 0.619 1.057 1.561 -0.11 0.6 -0.78 0.1
1 5.84 584 -0.306 -11.172 0.603 -2.106 -13.123 7.935 -1014.839 2662.715 -3258.727 0.864 1.682 1.780 -0.11 0.61 -0.78 0.1
1 5.85 585 -0.804 -11.689 0.474 16.754 -11.414 8.026 -1014.839 2662.715 -3258.727 1.357 2.200 1.911 -0.11 0.6 -0.78 0.1
1 5.86 586 -1.221 -12.125 0.594 33.356 -13.428 8.789 -954.878 2647.725 -3243.587 1.769 2.643 1.823 -0.11 0.6 -0.78 0.1
1 5.87 587 -0.824 -11.928 3.113 46.906 -20.264 11.505 -954.878 2647.725 -3243.587 1.366 2.460 -0.645 -0.11 0.6 -0.78 0.1
1 5.88 588 0.077 -12.225 3.481 63.935 -22.308 19.043 -1074.800 2767.647 -3168.636 0.460 2.773 -0.952 -0.11 0.6 -0.79 0.1
1 5.89 589 2.715 -12.383 3.979 12.238 -41.626 39.978 -1044.819 2587.764 -3078.694 -2.217 2.973 -1.287 -0.11 0.59 -0.79 0.11
1 5.90 590 3.477 -11.957 4.032 -26.550 -33.997 48.187 -1134.911 2692.696 -3138.655 -3.024 2.541 -1.353 -0.11 0.59 -0.79 0.11
1 5.91 591 3.816 -12.034 3.721 -44.495 18.951 52.674 -1014.839 2557.634 -3258.727 -3.435 2.593 -1.118 -0.11 0.6 -0.79 0.12
1 5.92 592 3.117 -12.517 4.573 -27.557 39.551 54.321 -1014.839 2557.634 -3258.727 -2.820 3.059 -2.026 -0.11 0.6 -0.78 0.12
1 5.93 593 2.332 -12.311 4.664 -17.975 47.058 56.183 -1014.839 2662.715 -3108.675 -2.128 2.841 -2.152 -0.1 0.6 -0.78 0.12
1 5.94 594 0.824 -10.219 3.567 -31.098 53.314 45.838 -1014.839 2662.715 -3108.675 -0.717 0.741 -1.078 -0.1 0.6 -0.78 0.12
1 5.95 595 -0.168 -9.553 3.160 -48.615 54.627 32.501 -984.858 2662.715 -3258.727 0.186 0.065 -0.708 -0.09 0.6 -0.78 0.12
1 5.96 596 -2.016 -9.788 3.189 -14.587 51.575 10.254 -804.826 2587.764 -3048.714 1.915 0.271 -0.853 -0.09 0.61 -0.78 0.12
1 5.97 597 -2.706 -9.524 3.146 8.179 47.486 2.747 -759.855 2932.689 -3108.675 2.568 0.008 -0.810 -0.08 0.61 -0.78 0.12
1 5.98 598 -3.151 -8.107 3.764 54.230 27.008 -15.503 -759.855 2707.686 -3213.606 2.993 -1.394 -1.367 -0.08 0.61 -0.78 0.11
1 5.99 599 -2.399 -7.427 4.516 48.218 18.341 -16.846 -759.855 2707.686 -3213.606 2.236 -2.051 -2.030 -0.08 0.61 -0.78 0.11
1 6.00 600 -1.786 -6.733 4.645 20.660 12.665 -11.902 -774.845 2917.699 -3138.655 1.624 -2.725 -2.082 -0.08 0.6 -0.79 0.11
1 6.01 601 -1.149 -6.800 4.200 -12.421 -2.075 6.256 -774.845 2917.699 -3138.655 0.999 -2.653 -1.618 -0.08 0.6 -0.79 0.11
1 6.02 602 0.445 -8.892 3.089 11.475 -8.728 26.093 -744.865 2797.627 -3243.587 -0.597 -0.564 -0.521 -0.08 0.6 -0.79 0.11
1 6.03 603 1.518 -10.137 2.591 69.672 -17.731 45.960 -759.855 2632.735 -3153.646 -1.695 0.684 -0.014 -0.08 0.6 -0.79 0.11
1 6.04 604 3.577 -9.682 4.549 107.270 -16.113 66.376 -729.875 2782.637 -3183.626 -3.864 0.297 -1.743 -0.07 0.59 -0.79 0.12
1 6.05 605 3.998 -8.533 5.153 61.951 6.836 65.003 -669.914 2707.686 -3468.590 -4.374 -0.805 -2.205 -0.07 0.59 -0.8 0.13
1 6.06 606 3.333 -8.294 4.434 11.017 30.060 51.972 -669.914 2707.686 -3468.590 -3.785 -1.017 -1.411 -0.07 0.58 -0.8 0.13
1 6.07 607 2.332 -8.830 4.089 -6.592 44.800 31.433 -729.875 2632.735 -3438.610 -2.835 -0.473 -1.049 -0.06 0.58 -0.8 0.13
1 6.08 608 0.709 -8.859 4.161 10.407 47.486 -2.136 -729.875 2632.735 -3438.610 -1.244 -0.442 -1.121 -0.06 0.58 -0.8 0.13
1 6.09 609 -0.728 -8.409 4.027 9.522 42.572 -23.560 -579.822 2647.725 -3273.717 0.179 -0.887 -0.972 -0.06 0.58 -0.8 0.13
1 6.10 610 -0.378 -8.327 3.826 1.068 33.447 -40.497 -609.803 2497.673 -3303.698 -0.161 -0.962 -0.751 -0.06 0.58 -0.8 0.12
1 6.11 611 1.226 -8.390 3.836 -8.606 25.452 -52.429 -579.822 2617.745 -3348.668 -1.667 -0.903 -0.754 -0.06 0.58 -0.8 0.12
1 6.12 612 1.781 -8.490 3.749 -5.157 34.729 -47.089 -564.832 2632.735 -3438.610 -2.150 -0.807 -0.673 -0.06 0.58 -0.8 0.11
1 6.13 613 1.595 -8.524 3.745 -1.617 47.333 -36.194 -564.832 2632.735 -3438.610 -1.902 -0.776 -0.669 -0.06 0.58 -0.8 0.11
1 6.14 614 0.982 -8.902 3.721 0.153 51.788 -26.032 -624.793 2707.686 -3108.675 -1.248 -0.398 -0.642 -0.06 0.58 -0.8 0.1
1 6.15 615 0.378 -9.285 3.635 3.235 46.845 -16.235 -624.793 2707.686 -3108.675 -0.623 -0.014 -0.552 -0.06 0.58 -0.8 0.1
1 6.16 616 0.096 -9.161 3.726 6.317 38.910 -8.392 -534.852 2692.696 -3303.698 -0.334 -0.136 -0.634 -0.05 0.58 -0.81 0.1
1 6.17 617 -0.043 -8.940 3.663 3.510 35.553 -5.768 -504.871 2572.624 -3243.587 -0.195 -0.352 -0.560 -0.05 0.58 -0.81 0.09
1 6.18 618 0.101 -8.686 3.414 -2.197 30.914 -5.157 -504.871 2572.624 -3243.587 -0.343 -0.603 -0.301 -0.05 0.58 -0.81 0.09
1 6.19 619 0.316 -8.706 3.304 2.655 23.743 -6.989 -654.923 2647.725 -3348.668 -0.562 -0.582 -0.187 -0.05 0.58 -0.81 0.09
1 6.20 620 0.359 -8.710 3.127 8.759 20.477 -7.721 -654.923 2647.725 -3348.668 -0.601 -0.575 -0.003 -0.05 0.58 -0.81 0.09
1 6.21 621 0.522 -8.629 3.156 12.482 17.975 -9.094 -489.881 2557.634 -3438.610 -0.755 -0.652 -0.016 -0.05 0.58 -0.81 0.09
1 6.22 622 0.546 -8.610 3.160 14.954 15.747 -10.681 -489.881 2557.634 -3438.610 -0.767 -0.664 -0.001 -0.05 0.58 -0.81 0.08
1 6.23 623 0.848 -8.404 3.204 12.390 20.294 -12.695 -534.852 2617.745 -3348.668 -1.053 -0.863 -0.021 -0.05 0.58 -0.81 0.08
1 6.24 624 0.919 -8.289 2.926 7.538 24.414 -12.360 -474.891 2572.624 -3303.698 -1.108 -0.971 0.276 -0.05 0.58 -0.81 0.08
1 6.25 625 0.752 -8.433 2.926 4.517 29.633 -10.132 -474.891 2572.624 -3303.698 -0.925 -0.823 0.290 -0.05 0.58 -0.81 0.08
1 6.26 626 0.469 -8.313 2.926 4.395 33.814 -7.843 -594.812 2632.735 -3393.639 -0.631 -0.941 0.297 -0.04 0.58 -0.81 0.08
1 6.27 627 -0.316 -8.059 2.500 2.380 35.553 -2.747 -414.780 2434.864 -3370.254 0.149 -1.191 0.734 -0.04 0.58 -0.81 0.07
1 6.28 628 -0.623 -8.198 2.509 -1.740 32.990 -0.427 -579.822 2569.926 -3310.144 0.443 -1.051 0.725 -0.04 0.58 -0.81 0.07
1 6.29 629 -0.833 -8.241 2.342 -3.662 29.907 2.686 -579.822 2569.926 -3310.144 0.640 -1.009 0.889 -0.04 0.58 -0.81 0.07
1 6.30 630 -0.862 -8.251 2.241 -1.923 25.330 6.836 -399.790 2464.844 -3385.245 0.651 -1.001 0.984 -0.04 0.58 -0.81 0.07
1 6.31 631 -0.991 -8.188 2.097 4.211 17.975 12.970 -504.871 2569.926 -3430.215 0.759 -1.063 1.126 -0.03 0.58 -0.81 0.07
1 6.32 632 -0.977 -8.078 2.231 6.653 13.855 16.480 -504.871 2569.926 -3430.215 0.721 -1.171 0.996 -0.03 0.58 -0.81 0.07
1 6.33 633 -0.876 -8.346 2.093 6.378 4.547 22.492 -354.819 2644.877 -3355.264 0.563 -0.895 1.153 -0.03 0.58 -0.81 0.07
1 6.34 634 -0.642 -8.385 2.203 2.563 -1.038 25.238 -354.819 2644.877 -3355.264 0.296 -0.853 1.051 -0.03 0.58 -0.81 0.07
1 6.35 635 -0.330 -8.533 2.246 -3.754 -4.517 29.266 -219.757 2689.848 -3355.264 -0.049 -0.702 1.010 -0.03 0.58 -0.81 0.07
1 6.36 636 -0.187 -8.835 2.284 -6.134 -5.219 32.196 -219.757 2689.848 -3355.264 -0.230 -0.402 0.963 -0.03 0.58 -0.81 0.07
1 6.37 637 -0.096 -9.213 2.576 -5.096 -2.350 34.851 -399.790 2494.825 -3430.215 -0.363 -0.027 0.657 -0.03 0.58 -0.81 0.08
1 6.38 638 -0.239 -9.730 2.864 2.350 6.195 36.896 -294.858 2494.825 -3460.196 -0.263 0.489 0.360 -0.02 0.58 -0.81 0.08
1 6.39 639 -0.527 -9.702 2.729 4.364 8.362 36.041 -294.858 2494.825 -3460.196 -0.025 0.463 0.491 -0.02 0.58 -0.81 0.08
1 6.40 640 -0.704 -9.275 2.974 -2.258 3.052 30.792 -324.838 2494.825 -3535.147 0.053 0.043 0.247 -0.02 0.58 -0.81 0.08
1 6.41 641 -0.646 -9.314 3.069 -2.747 -0.641 25.482 -324.838 2494.825 -3535.147 -0.045 0.082 0.145 -0.02 0.58 -0.81 0.09
1 6.42 642 -0.661 -9.151 2.571 1.343 -5.280 21.607 -294.858 2539.795 -3460.196 -0.061 -0.080 0.639 -0.02 0.58 -0.81 0.09
1 6.43 643 -0.484 -8.988 2.011 4.059 -7.965 19.257 -294.858 2539.795 -3460.196 -0.263 -0.241 1.200 -0.02 0.58 -0.81 0.09
1 6.44 644 -0.292 -8.931 1.508 4.761 -8.209 17.304 -174.786 2569.926 -3430.215 -0.474 -0.297 1.702 -0.02 0.58 -0.81 0.09
1 6.45 645 0.120 -9.213 1.106 10.132 -6.470 14.221 -264.877 2509.815 -3295.153 -0.901 -0.013 2.103 -0.02 0.58 -0.81 0.09
1 6.46 646 0.402 -9.577 0.972 16.693 -7.416 10.132 -264.877 2509.815 -3295.153 -1.195 0.352 2.239 -0.02 0.58 -0.81 0.09
1 6.47 647 1.087 -9.788 1.135 23.865 -9.949 5.981 -219.757 2719.828 -3430.215 -1.884 0.566 2.084 -0.02 0.58 -0.81 0.09
1 6.48 648 2.083 -9.927 2.054 27.680 -8.972 -3.174 -159.796 2584.916 -3370.254 -2.852 0.716 1.204 -0.02 0.58 -0.81 0.09
1 6.49 649 2.610 -10.367 4.425 32.868 3.174 -12.482 -219.757 2614.896 -3430.215 -3.345 1.164 -1.137 -0.02 0.58 -0.81 0.09
1 6.50 650 2.610 -11.488 6.043 47.333 39.276 -25.604 -219.757 2614.896 -3430.215 -3.326 2.302 -2.705 -0.02 0.57 -0.81 0.09
1 6.51 651 0.685 -11.339 5.756 42.908 63.599 -36.987 -294.858 2539.795 -3535.147 -1.384 2.175 -2.354 -0.02 0.57 -0.82 0.09
1 6.52 652 -1.240 -10.535 4.166 -42.328 15.808 -59.113 -264.877 2509.815 -3505.167 0.569 1.383 -0.726 -0.02 0.57 -0.82 0.08
1 6.53 653 -0.905 -12.489 2.773 -39.459 -7.111 -64.636 -264.877 2509.815 -3505.167 0.301 3.317 0.626 -0.02 0.57 -0.82 0.08
1 6.54 654 -0.469 -12.307 1.853 16.388 -19.653 -56.183 -264.877 2479.834 -3475.186 -0.041 3.106 1.481 -0.02 0.57 -0.82 0.07
1 6.55 655 -0.474 -10.094 2.112 12.695 -26.001 -49.561 -159.796 2434.864 -3580.268 0.146 0.902 1.268 -0.03 0.57 -0.82 0.07
1 6.56 656 -0.158 -10.401 2.208 -16.998 -34.058 -42.969 -339.829 2479.834 -3505.167 -0.087 1.206 1.175 -0.03 0.57 -0.82 0.07
1 6.57 657 0.081 -11.138 2.710 -19.531 -36.774 -34.332 -339.829 2479.834 -3505.167 -0.249 1.928 0.635 -0.04 0.57 -0.82 0.07
1 6.58 658 0.206 -11.349 3.491 1.831 -30.426 -24.384 -354.819 2389.893 -3385.245 -0.308 2.130 -0.167 -0.04 0.57 -0.82 0.07
1 6.59 659 0.766 -10.401 4.161 24.597 -20.813 -13.489 -414.780 2584.916 -3475.186 -0.822 1.186 -0.826 -0.04 0.57 -0.82 0.07
1 6.60 660 0.594 -9.132 5.105 28.534 -0.916 -2.625 -414.780 2584.916 -3475.186 -0.623 -0.068 -1.729 -0.04 0.57 -0.82 0.07
1 6.61 661 0.029 -9.012 5.334 11.658 8.118 -2.747 -474.891 2689.848 -3565.127 -0.045 -0.170 -1.911 -0.04 0.57 -0.82 0.07
1 6.62 662 -0.670 -9.261 5.033 -12.024 -6.470 -13.031 -309.848 2554.936 -3475.186 0.668 0.095 -1.564 -0.04 0.57 -0.82 0.06
1 6.63 663 -0.532 -9.544 5.402 -18.341 -18.219 -23.346 -429.770 2569.926 -3535.147 0.554 0.374 -1.943 -0.05 0.57 -0.82 0.06
1 6.64 664 -0.608 -9.443 5.670 -15.228 -22.217 -32.623 -429.770 2569.926 -3535.147 0.677 0.267 -2.231 -0.05 0.57 -0.82 0.06
1 6.65 665 -0.833 -9.309 5.622 -9.094 -23.743 -40.283 -444.760 2509.815 -3505.167 0.965 0.126 -2.202 -0.05 0.57 -0.82 0.06
1 6.66 666 -1.250 -9.012 5.560 -9.613 -29.511 -42.938 -414.780 2509.815 -3370.254 1.455 -0.174 -2.152 -0.05 0.57 -0.82 0.06
1 6.67 667 -1.355 -9.501 5.239 -10.162 -32.257 -37.293 -414.780 2509.815 -3370.254 1.628 0.316 -1.832 -0.06 0.57 -0.82 0.06
1 6.68 668 -1.235 -10.080 4.779 -5.188 -26.703 -26.062 -489.881 2584.916 -3625.238 1.582 0.891 -1.389 -0.06 0.57 -0.82 0.06
1 6.69 669 -0.881 -9.888 4.429 -1.068 -23.682 -1.923 -609.803 2494.825 -3490.176 1.322 0.699 -1.053 -0.07 0.57 -0.82 0.06
1 6.70 670 -0.929 -9.687 4.343 -3.143 -23.804 7.050 -594.812 2509.815 -3475.186 1.380 0.497 -0.971 -0.07 0.57 -0.82 0.06
1 6.71 671 -1.168 -9.237 4.305 -4.364 -22.553 29.572 -594.812 2509.815 -3475.186 1.597 0.045 -0.936 -0.07 0.57 -0.82 0.06
1 6.72 672 -1.298 -8.907 4.219 0.031 -24.109 40.344 -594.812 2629.887 -3475.186 1.683 -0.288 -0.849 -0.07 0.57 -0.82 0.06
1 6.73 673 -1.446 -8.514 4.166 1.160 -27.252 48.554 -669.764 2584.916 -3475.186 1.774 -0.680 -0.791 -0.07 0.57 -0.82 0.07
1 6.74 674 -1.839 -8.457 4.238 -1.099 -39.154 49.774 -669.764 2584.916 -3475.186 2.100 -0.738 -0.856 -0.07 0.57 -0.82 0.07
1 6.75 675 -1.676 -8.428 4.315 -5.829 -50.171 42.694 -579.822 2614.896 -3535.147 1.872 -0.766 -0.928 -0.07 0.57 -0.82 0.08
1 6.76 676 -1.106 -8.193 4.161 -18.768 -62.348 26.184 -579.822 2689.848 -3535.147 1.220 -1.005 -0.783 -0.07 0.57 -0.82 0.09
1 6.77 677 -0.857 -8.121 4.219 -23.407 -63.355 20.508 -594.812 2509.815 -3550.137 0.962 -1.085 -0.863 -0.07 0.57 -0.81 0.09
1 6.78 678 -0.010 -8.145 3.582 -31.525 -58.624 10.773 -594.812 2509.815 -3550.137 0.122 -1.073 -0.259 -0.07 0.57 -0.81 0.09
1 6.79 679 0.283 -7.959 3.309 -29.999 -50.354 8.331 -594.812 2704.838 -3505.167 -0.155 -1.275 -0.027 -0.08 0.57 -0.81 0.1
1 6.80 680 0.402 -7.930 3.151 -22.583 -41.809 10.407 -654.773 2719.828 -3490.176 -0.260 -1.318 0.090 -0.08 0.57 -0.81 0.1
1 6.81 681 0.292 -7.815 3.036 -7.385 -32.379 15.076 -654.773 2719.828 -3490.176 -0.144 -1.443 0.176 -0.08 0.57 -0.81 0.1
1 6.82 682 0.125 -7.695 2.921 -1.862 -30.304 17.426 -609.803 2464.844 -3385.245 0.022 -1.567 0.277 -0.08 0.57 -0.81 0.1
1 6.83 683 -0.067 -7.949 2.849 -0.214 -29.846 19.318 -654.773 2689.848 -3430.215 0.207 -1.315 0.344 -0.08 0.57 -0.81 0.11
1 6.84 684 -0.273 -7.834 2.658 2.563 -29.877 18.433 -654.773 2689.848 -3430.215 0.403 -1.431 0.534 -0.09 0.57 -0.81 0.11
1 6.85 685 -0.421 -8.121 2.485 8.392 -34.149 15.320 -924.748 2764.799 -3490.476 0.534 -1.140 0.716 -0.09 0.57 -0.81 0.11
1 6.86 686 -0.397 -8.097 2.653 10.620 -36.102 12.817 -729.875 2554.786 -3400.385 0.509 -1.160 0.560 -0.09 0.57 -0.81 0.12
1 6.87 687 -0.321 -8.040 2.715 10.223 -36.499 9.613 -684.754 2614.747 -3460.496 0.435 -1.212 0.513 -0.09 0.57 -0.81 0.12
1 6.88 688 0.000 -8.088 2.691 0.458 -34.729 6.073 -684.754 2614.747 -3460.496 0.122 -1.160 0.549 -0.09 0.57 -0.81 0.12
1 6.89 689 0.330 -7.954 2.442 -6.470 -31.494 2.960 -714.884 2614.747 -3565.427 -0.198 -1.293 0.800 -0.09 0.57 -0.81 0.12
1 6.90 690 0.608 -7.978 2.366 -9.674 -27.252 0.732 -909.757 2704.838 -3580.417 -0.463 -1.272 0.870 -0.1 0.57 -0.81 0.12
1 6.91 691 0.747 -8.112 2.236 -12.939 -19.409 -1.617 -744.865 2689.848 -3460.496 -0.573 -1.148 0.968 -0.1 0.57 -0.8 0.12
1 6.92 692 0.551 -8.404 2.107 -10.223 -16.357 -1.770 -744.865 2689.848 -3460.496 -0.364 -0.862 1.079 -0.1 0.57 -0.8 0.12
1 6.93 693 0.460 -8.418 2.136 -7.172 -14.526 -2.869 -759.855 2554.786 -3445.505 -0.260 -0.852 1.036 -0.1 0.57 -0.8 0.13
1 6.94 694 0.259 -8.835 2.246 -3.876 -13.489 -4.578 -774.845 2689.848 -3490.476 -0.045 -0.438 0.916 -0.1 0.57 -0.8 0.13
1 6.95 695 0.043 -8.797 2.394 -1.617 -12.299 -6.073 -774.845 2689.848 -3490.476 0.186 -0.480 0.758 -0.1 0.57 -0.8 0.13
1 6.96 696 -0.259 -8.945 2.337 -2.075 -10.162 -8.820 -819.816 2644.877 -3460.496 0.504 -0.333 0.809 -0.1 0.57 -0.8 0.12
1 6.97 697 -0.417 -9.199 2.389 -6.165 -9.460 -10.559 -909.757 2734.818 -3475.486 0.678 -0.081 0.751 -0.11 0.57 -0.8 0.12
1 6.98 698 -0.560 -9.146 2.351 -9.522 -6.165 -12.299 -909.757 2734.818 -3475.486 0.839 -0.137 0.777 -0.11 0.57 -0.8 0.12
1 6.99 699 -0.680 -9.357 2.121 -13.092 -2.777 -14.893 -744.865 2794.779 -3565.427 0.993 0.062 0.969 -0.11 0.58 -0.8 0.12
1 7.00 700 -0.661 -9.477 2.188 -16.419 -1.007 -16.724 -864.787 2884.871 -3400.385 0.992 0.174 0.877 -0.11 0.58 -0.8 0.12
1 7.01 701 -0.718 -9.400 2.164 -20.355 0.031 -19.104 -894.767 2689.848 -3490.476 1.069 0.088 0.870 -0.11 0.58 -0.8 0.12
1 7.02 702 -0.919 -9.635 2.117 -22.583 0.427 -20.996 -894.767 2689.848 -3490.476 1.292 0.312 0.882 -0.11 0.58 -0.8 0.12
1 7.03 703 -0.862 -10.032 2.136 -17.639 -2.899 -21.362 -924.748 2719.828 -3565.427 1.257 0.698 0.825 -0.11 0.58 -0.8 0.12
1 7.04 704 -0.852 -10.085 2.126 -13.031 -6.744 -20.477 -849.796 2689.848 -3535.447 1.271 0.741 0.801 -0.11 0.58 -0.8 0.12
1 7.05 705 -0.642 -9.884 2.083 -8.087 -10.407 -18.494 -849.796 2689.848 -3535.447 1.084 0.533 0.816 -0.11 0.58 -0.8 0.12
1 7.06 706 -0.182 -9.850 2.433 -6.287 -12.970 -10.681 -1119.771 2704.838 -3550.437 0.670 0.491 0.432 -0.12 0.58 -0.8 0.11
1 7.07 707 0.345 -9.903 2.998 -6.744 -11.871 -4.272 -1014.839 2809.770 -3295.453 0.159 0.540 -0.148 -0.12 0.58 -0.8 0.11
1 7.08 708 0.498 -9.702 3.529 -5.005 -6.287 2.441 -1014.839 2854.740 -3445.505 0.013 0.335 -0.691 -0.12 0.58 -0.79 0.11
1 7.09 709 0.733 -9.577 3.357 -4.120 -0.854 7.507 -1014.839 2854.740 -3445.505 -0.223 0.210 -0.522 -0.12 0.58 -0.79 0.11
1 7.10 710 0.757 -9.362 2.624 -14.252 0.061 9.338 -1074.800 2869.880 -3385.395 -0.255 -0.007 0.206 -0.12 0.58 -0.79 0.12
1 7.11 711 0.345 -9.807 1.121 -25.147 -2.686 6.165 -984.858 2884.871 -3505.466 0.147 0.430 1.685 -0.12 0.59 -0.79 0.12
1 7.12 712 -0.005 -10.386 0.311 -11.658 -5.432 3.174 -984.858 2884.871 -3505.466 0.491 0.997 2.452 -0.12 0.59 -0.79 0.12
1 7.13 713 -0.929 -11.133 0.651 32.868 -8.911 -3.082 -954.878 2794.779 -3355.414 1.417 1.734 2.078 -0.12 0.59 -0.79 0.12
1 7.14 714 -1.264 -11.344 1.638 52.094 -9.155 -4.669 -999.849 2869.880 -3670.509 1.763 1.961 1.146 -0.12 0.59 -0.79 0.12
1 7.15 715 -1.317 -11.143 3.816 63.233 -10.437 -5.157 -1029.829 2989.802 -3430.515 1.829 1.784 -0.955 -0.12 0.58 -0.8 0.12
1 7.16 716 -0.680 -11.579 4.434 76.416 -14.954 0.977 -1029.829 2989.802 -3430.515 1.206 2.250 -1.477 -0.12 0.58 -0.8 0.12
1 7.17 717 1.159 -12.460 4.300 28.137 -42.755 23.895 -1104.780 2719.828 -3310.443 -0.627 3.167 -1.234 -0.12 0.57 -0.8 0.12
1 7.18 718 2.413 -12.173 3.658 -45.258 -32.562 44.922 -1119.771 2734.818 -3505.466 -1.888 2.900 -0.531 -0.12 0.57 -0.8 0.12
1 7.19 719 2.696 -12.881 3.093 -35.767 -0.183 49.896 -1119.771 2734.818 -3505.466 -2.208 3.591 -0.012 -0.12 0.57 -0.8 0.13
1 7.20 720 2.509 -13.638 4.477 4.944 29.297 57.129 -924.748 2794.779 -3460.496 -2.167 4.317 -1.469 -0.12 0.58 -0.8 0.13
1 7.21 721 2.452 -13.446 4.477 6.348 35.156 60.578 -1044.819 2734.818 -3580.417 -2.205 4.126 -1.459 -0.11 0.58 -0.8 0.13
1 7.22 722 1.719 -11.569 3.635 -11.749 45.288 55.145 -1044.819 2779.789 -3505.466 -1.574 2.249 -0.610 -0.11 0.58 -0.8 0.13
1 7.23 723 0.881 -10.473 3.170 -35.736 59.754 43.274 -1044.819 2779.789 -3505.466 -0.831 1.143 -0.172 -0.1 0.58 -0.8 0.14
1 7.24 724 -0.541 -10.248 2.907 -35.950 60.913 28.534 -849.796 2869.880 -3535.447 0.508 0.900 0.038 -0.1 0.58 -0.79 0.13
1 7.25 725 -1.767 -9.788 3.079 12.054 44.190 4.059 -774.845 2839.750 -3535.447 1.674 0.427 -0.181 -0.09 0.59 -0.79 0.13
1 7.26 726 -2.002 -8.983 3.759 42.816 36.011 -10.223 -774.845 2839.750 -3535.447 1.870 -0.377 -0.860 -0.09 0.59 -0.79 0.13
1 7.27 727 -1.642 -7.686 4.176 50.324 31.098 -19.867 -804.826 2809.770 -3550.437 1.493 -1.657 -1.222 -0.09 0.58 -0.8 0.13
1 7.28 728 -0.819 -6.374 4.200 18.555 27.527 -24.384 -699.744 2929.841 -3550.437 0.686 -2.925 -1.108 -0.08 0.58 -0.8 0.13
1 7.29 729 -0.110 -6.661 4.420 -1.099 25.360 -18.280 -864.787 2779.789 -3445.505 -0.000 -2.632 -1.311 -0.08 0.58 -0.8 0.12
1 7.30 730 0.455 -7.705 4.587 -3.906 29.419 -6.531 -864.787 2779.789 -3445.505 -0.553 -1.590 -1.483 -0.08 0.58 -0.8 0.12
1 7.31 731 0.623 -8.725 4.334 11.078 33.814 10.864 -699.744 2884.871 -3625.388 -0.728 -0.568 -1.224 -0.08 0.58 -0.8 0.12
1 7.32 732 0.833 -9.074 4.171 40.100 28.656 34.607 -774.845 2764.799 -3535.447 -0.969 -0.207 -1.028 -0.08 0.58 -0.8 0.12
1 7.33 733 1.432 -8.509 4.564 43.274 28.961 41.992 -774.845 2764.799 -3535.447 -1.618 -0.752 -1.363 -0.07 0.58 -0.81 0.12
1 7.34 734 1.853 -8.064 4.453 27.496 37.262 42.694 -684.754 2794.779 -3640.378 -2.100 -1.172 -1.185 -0.07 0.57 -0.81 0.12
1 7.35 735 1.173 -8.299 3.711 12.024 44.891 33.173 -729.875 2779.789 -3550.437 -1.543 -0.902 -0.357 -0.06 0.57 -0.81 0.12
1 7.36 736 0.618 -8.414 4.070 18.921 47.363 20.172 -624.793 2779.789 -3655.369 -1.038 -0.777 -0.694 -0.06 0.57 -0.81 0.12
1 7.37 737 0.000 -8.476 4.511 25.848 48.645 3.235 -624.793 2779.789 -3655.369 -0.456 -0.701 -1.102 -0.06 0.57 -0.81 0.12
1 7.38 738 -0.512 -8.375 4.487 20.538 48.889 -13.977 -519.711 2855.340 -3624.039 0.040 -0.786 -1.038 -0.05 0.57 -0.81 0.12
1 7.39 739 -0.891 -8.457 4.200 8.820 43.091 -28.320 -669.764 2735.268 -3578.918 0.420 -0.693 -0.721 -0.05 0.57 -0.81 0.12
1 7.40 740 0.029 -8.485 4.061 -3.387 29.358 -42.450 -669.764 2735.268 -3578.918 -0.478 -0.660 -0.569 -0.05 0.57 -0.82 0.11
1 7.41 741 0.900 -8.409 4.080 -4.547 29.114 -44.678 -594.812 2660.317 -3728.971 -1.309 -0.739 -0.588 -0.05 0.57 -0.82 0.11
1 7.42 742 1.264 -8.366 3.941 -2.655 40.222 -36.408 -324.838 2840.350 -3849.042 -1.567 -0.787 -0.452 -0.05 0.57 -0.82 0.1
1 7.43 743 0.848 -8.361 3.797 -2.686 44.220 -28.717 -399.790 2720.278 -3713.980 -1.110 -0.793 -0.309 -0.05 0.57 -0.82 0.1
1 7.44 744 0.450 -8.452 3.524 -1.923 42.694 -20.691 -399.790 2720.278 -3713.980 -0.688 -0.703 -0.036 -0.05 0.57 -0.82 0.09
1 7.45 745 0.134 -8.198 3.438 -1.373 40.222 -14.587 -504.721 2720.278 -3639.029 -0.360 -0.958 0.049 -0.05 0.57 -0.82 0.09
1 7.46 746 -0.014 -8.064 3.275 -0.824 36.194 -10.254 -474.741 2690.297 -3713.980 -0.208 -1.092 0.211 -0.04 0.57 -0.82 0.09
1 7.47 747 -0.163 -8.141 3.165 1.312 29.358 -8.514 -474.741 2690.297 -3713.980 -0.063 -1.016 0.319 -0.04 0.57 -0.82 0.08
1 7.48 748 -0.014 -8.385 3.247 7.935 24.323 -9.338 -504.721 2795.229 -3849.042 -0.214 -0.772 0.237 -0.04 0.57 -0.82 0.08
1 7.49 749 0.350 -8.366 3.443 13.062 22.553 -12.177 -399.790 2690.297 -3743.961 -0.568 -0.783 0.064 -0.04 0.57 -0.82 0.08
1 7.50 750 0.412 -8.423 3.285 13.031 22.492 -12.116 -414.780 2705.288 -3728.971 -0.620 -0.718 0.241 -0.04 0.56 -0.82 0.08
1 7.51 751 0.460 -8.543 3.227 12.909 22.644 -11.322 -414.780 2705.288 -3728.971 -0.657 -0.592 0.316 -0.04 0.56 -0.82 0.07
1 7.52 752 0.546 -8.490 3.079 10.925 23.895 -11.749 -204.767 2660.317 -3788.932 -0.732 -0.638 0.482 -0.04 0.56 -0.82 0.07
1 7.53 753 0.532 -8.452 3.022 7.446 23.987 -10.925 -309.698 2585.366 -3834.052 -0.708 -0.672 0.552 -0.04 0.56 -0.82 0.07
1 7.54 754 0.412 -8.418 2.844 0.397 23.987 -7.751 -309.698 2585.366 -3834.052 -0.579 -0.703 0.736 -0.04 0.56 -0.82 0.07
1 7.55 755 0.321 -8.279 2.797 -1.495 23.468 -4.334 -339.829 2660.317 -3728.971 -0.483 -0.842 0.782 -0.03 0.56 -0.82 0.07
1 7.56 756 0.081 -8.303 2.729 -4.242 20.386 0.519 -234.747 2630.336 -3788.932 -0.253 -0.821 0.841 -0.03 0.56 -0.82 0.06
1 7.57 757 -0.144 -8.399 2.648 -4.395 16.693 4.364 -429.770 2840.350 -3773.941 -0.037 -0.729 0.914 -0.03 0.56 -0.82 0.06
1 7.58 758 -0.101 -8.370 2.701 -5.585 13.855 6.439 -429.770 2840.350 -3773.941 -0.094 -0.760 0.854 -0.03 0.56 -0.82 0.06
1 7.59 759 -0.239 -8.576 2.567 -5.005 11.841 9.888 -399.790 2540.245 -3669.010 0.029 -0.557 0.980 -0.03 0.56 -0.82 0.06
1 7.60 760 -0.259 -8.672 2.308 -2.869 9.094 13.458 -159.796 2630.336 -3684.000 0.028 -0.465 1.227 -0.03 0.56 -0.82 0.06
1 7.61 761 -0.230 -8.447 2.188 -3.876 3.510 19.440 -159.796 2630.336 -3684.000 -0.023 -0.693 1.337 -0.03 0.57 -0.82 0.06
1 7.62 762 -0.354 -8.294 2.112 -7.721 -1.526 22.186 -249.737 2720.278 -3818.912 0.076 -0.847 1.410 -0.03 0.57 -0.82 0.06
1 7.63 763 -0.287 -8.327 2.035 -9.766 -6.104 25.024 -249.737 2720.278 -3818.912 -0.020 -0.817 1.477 -0.03 0.57 -0.82 0.06
1 7.64 764 -0.273 -8.629 2.064 -12.604 -12.543 28.320 -324.838 2720.278 -3773.941 -0.094 -0.523 1.420 -0.02 0.57 -0.82 0.07
1 7.65 765 0.091 -8.959 1.987 -12.085 -14.710 29.846 -324.838 2720.278 -3773.941 -0.488 -0.200 1.476 -0.02 0.57 -0.82 0.07
1 7.66 766 -0.072 -9.319 2.078 -5.981 -14.832 31.830 -429.770 2720.278 -3713.980 -0.356 0.152 1.361 -0.02 0.57 -0.82 0.07
1 7.67 767 0.196 -9.505 2.643 1.160 -13.702 34.302 -204.767 2705.288 -3788.932 -0.656 0.335 0.783 -0.02 0.57 -0.82 0.08
1 7.68 768 0.268 -9.381 3.089 -1.129 -9.705 34.058 -204.767 2705.288 -3788.932 -0.763 0.211 0.334 -0.02 0.57 -0.82 0.08
1 7.69 769 0.244 -9.453 3.496 -12.848 -8.240 30.762 -294.708 2765.249 -3743.961 -0.774 0.284 -0.075 -0.02 0.57 -0.82 0.08
1 7.70 770 0.168 -9.520 3.845 -20.477 -9.522 26.062 -294.708 2765.249 -3743.961 -0.730 0.347 -0.441 -0.02 0.57 -0.82 0.08
1 7.71 771 0.235 -9.472 3.381 -17.944 -6.928 20.630 -249.737 2690.297 -3669.010 -0.843 0.283 -0.028 -0.02 0.57 -0.81 0.09
1 7.72 772 0.201 -9.007 2.337 -15.076 -3.387 19.043 -249.737 2690.297 -3669.010 -0.826 -0.189 0.993 -0.02 0.57 -0.81 0.09
1 7.73 773 0.354 -8.442 1.197 -16.937 -1.251 18.036 -249.737 2870.330 -3713.980 -0.996 -0.762 2.106 -0.02 0.58 -0.81 0.09
1 7.74 774 0.464 -8.423 0.460 -15.503 1.953 17.700 -249.737 2765.249 -3743.961 -1.129 -0.788 2.820 -0.02 0.58 -0.81 0.09
1 7.75 775 0.733 -9.113 0.311 -4.852 1.526 16.998 -249.737 2765.249 -3743.961 -1.421 -0.103 2.949 -0.02 0.58 -0.81 0.09
1 7.76 776 1.125 -9.773 0.455 24.567 1.587 12.268 -219.757 2870.330 -3743.961 -1.830 0.555 2.796 -0.02 0.58 -0.81 0.09
1 7.77 777 1.681 -10.090 1.053 35.828 3.052 6.561 -219.757 2870.330 -3743.961 -2.392 0.874 2.204 -0.02 0.58 -0.81 0.09
1 7.78 778 1.882 -10.492 4.449 41.443 9.125 -3.021 -219.757 2765.249 -3669.010 -2.589 1.286 -1.163 -0.02 0.58 -0.81 0.09
1 7.79 779 0.977 -12.369 6.967 64.148 54.932 -26.764 -129.815 2885.320 -3834.052 -1.657 3.204 -3.563 -0.02 0.57 -0.82 0.09
1 7.80 780 -1.226 -10.530 6.896 11.169 44.220 -41.565 -69.854 2645.926 -3817.413 0.559 1.393 -3.416 -0.02 0.57 -0.82 0.08
1 7.81 781 -1.695 -11.009 4.061 -82.886 5.646 -63.263 -174.936 2765.998 -3772.442 1.080 1.858 -0.607 -0.02 0.57 -0.82 0.08
1 7.82 782 -0.694 -13.202 1.714 -58.319 -27.618 -58.838 -174.936 2765.998 -3772.442 0.173 4.002 1.620 -0.02 0.57 -0.82 0.07
1 7.83 783 0.417 -12.168 3.433 21.973 -24.597 -48.889 -69.854 2540.995 -3952.325 -0.840 2.944 -0.151 -0.02 0.58 -0.81 0.07
1 7.84 784 -0.225 -10.841 3.213 6.592 -24.933 -43.793 -69.854 2540.995 -3952.325 -0.111 1.623 0.095 -0.03 0.57 -0.81 0.07
1 7.85 785 -0.350 -10.516 3.065 -31.433 -50.568 -39.642 -264.877 2780.988 -3832.403 0.091 1.302 0.263 -0.03 0.57 -0.82 0.07
1 7.86 786 0.986 -11.215 3.907 -55.878 -57.343 -27.893 -219.907 2765.998 -3772.442 -1.080 1.961 -0.683 -0.04 0.58 -0.81 0.07
1 7.87 787 1.461 -11.119 4.377 -22.736 -38.941 -14.038 -339.979 2885.920 -3937.335 -1.492 1.841 -1.222 -0.05 0.58 -0.81 0.07
1 7.88 788 1.025 -10.228 4.923 21.637 -18.250 0.092 -414.930 2855.939 -3757.302 -1.023 0.945 -1.783 -0.05 0.58 -0.81 0.07
1 7.89 789 0.445 -9.299 5.397 44.159 -1.465 8.087 -414.930 2855.939 -3757.302 -0.439 0.030 -2.216 -0.05 0.58 -0.81 0.07
1 7.90 790 -0.345 -8.471 5.674 38.941 9.552 9.979 -429.920 2870.930 -3772.442 0.341 -0.774 -2.424 -0.05 0.58 -0.81 0.07
1 7.91 791 -1.638 -7.997 5.636 0.977 2.747 -0.214 -429.920 2870.930 -3772.442 1.617 -1.225 -2.321 -0.05 0.57 -0.82 0.07
1 7.92 792 -1.868 -8.342 5.512 -17.365 -11.292 -14.465 -324.988 2840.949 -3847.394 1.836 -0.870 -2.168 -0.05 0.57 -0.82 0.07
1 7.93 793 -1.896 -9.137 4.750 -9.033 -31.433 -35.126 -354.969 2720.877 -3772.442 1.908 -0.079 -1.417 -0.05 0.57 -0.82 0.07
1 7.94 794 -1.844 -9.692 4.176 4.486 -45.136 -43.244 -429.920 2765.998 -3952.325 1.914 0.478 -0.839 -0.05 0.57 -0.82 0.07
1 7.95 795 -1.628 -9.386 4.056 9.430 -59.387 -45.471 -414.930 2810.969 -3832.403 1.773 0.177 -0.705 -0.06 0.57 -0.82 0.07
1 7.96 796 -0.910 -8.892 4.042 -2.594 -66.345 -38.513 -414.930 2810.969 -3832.403 1.136 -0.309 -0.676 -0.06 0.57 -0.82 0.07
1 7.97 797 0.139 -9.127 4.070 -20.783 -61.981 -24.475 -489.881 3080.943 -3787.433 0.163 -0.075 -0.713 -0.07 0.57 -0.82 0.07
1 7.98 798 0.781 -9.750 3.869 -20.874 -45.349 3.571 -489.731 3082.592 -3780.987 -0.422 0.539 -0.541 -0.07 0.57 -0.82 0.07
1 7.99 799 0.613 -9.778 3.759 -9.918 -37.232 21.820 -684.754 2842.598 -3810.967 -0.225 0.558 -0.462 -0.07 0.57 -0.81 0.07
1 8.00 800 0.297 -9.773 4.080 -3.632 -27.680 44.434 -684.754 2872.579 -3736.016 0.062 0.543 -0.807 -0.08 0.57 -0.81 0.08
1 8.01 801 -0.134 -9.539 3.960 -6.042 -24.445 53.589 -699.744 2857.588 -3721.026 0.442 0.306 -0.690 -0.08 0.57 -0.81 0.08
1 8.02 802 -1.403 -8.935 3.879 -9.399 -28.412 56.519 -699.744 2962.670 -3780.987 1.643 -0.302 -0.615 -0.07 0.57 -0.81 0.08
1 8.03 803 -1.657 -8.964 3.639 -12.390 -37.293 52.765 -699.744 2962.670 -3780.987 1.826 -0.279 -0.387 -0.07 0.57 -0.81 0.09
1 8.04 804 -1.872 -8.859 3.505 -10.223 -49.439 43.671 -609.653 2947.680 -3810.967 1.978 -0.390 -0.267 -0.07 0.57 -0.81 0.09
1 8.05 805 -1.159 -8.691 3.630 -9.003 -62.103 24.292 -609.653 2947.680 -3810.967 1.221 -0.562 -0.402 -0.07 0.57 -0.81 0.1
1 8.06 806 -0.464 -8.586 3.582 -14.832 -61.768 13.184 -594.663 2962.670 -3825.958 0.508 -0.670 -0.363 -0.08 0.57 -0.81 0.1
1 8.07 807 -0.101 -8.327 3.295 -22.949 -56.946 4.913 -594.663 2962.670 -3721.026 0.148 -0.934 -0.090 -0.08 0.57 -0.81 0.11
1 8.08 808 0.666 -8.505 3.247 -26.245 -43.305 2.258 -774.695 2842.598 -3585.964 -0.577 -0.777 -0.104 -0.09 0.58 -0.8 0.11
1 8.09 809 0.852 -8.595 3.266 -19.989 -31.159 4.303 -834.656 2812.618 -3825.958 -0.743 -0.697 -0.156 -0.09 0.58 -0.8 0.11
1 8.10 810 0.694 -8.691 3.232 -10.407 -20.752 7.294 -834.656 2812.618 -3825.958 -0.571 -0.609 -0.146 -0.09 0.58 -0.8 0.12
1 8.11 811 0.297 -8.701 3.218 -2.136 -16.052 9.460 -714.734 3067.602 -3736.016 -0.169 -0.602 -0.140 -0.09 0.58 -0.8 0.12
1 8.12 812 -0.369 -8.557 3.146 4.059 -15.778 8.881 -714.734 3067.602 -3736.016 0.495 -0.746 -0.067 -0.09 0.58 -0.8 0.12
1 8.13 813 -0.532 -8.663 3.069 5.341 -14.893 8.179 -864.787 2962.670 -3825.958 0.653 -0.638 0.016 -0.09 0.58 -0.8 0.12
1 8.14 814 -0.579 -8.691 3.137 7.629 -15.747 6.531 -804.676 3037.621 -3751.006 0.695 -0.606 -0.041 -0.09 0.58 -0.8 0.12
1 8.15 815 -0.431 -8.342 2.988 7.477 -18.768 3.662 -804.676 2932.689 -3721.026 0.540 -0.948 0.132 -0.09 0.58 -0.8 0.12
1 8.16 816 -0.364 -7.963 2.888 2.319 -20.233 1.099 -864.787 3037.621 -3616.094 0.476 -1.322 0.243 -0.09 0.58 -0.8 0.12
1 8.17 817 -0.086 -7.743 2.878 -6.104 -18.616 0.824 -864.787 3037.621 -3616.094 0.209 -1.542 0.253 -0.1 0.58 -0.8 0.12
1 8.18 818 0.211 -7.872 2.777 -12.909 -15.289 -0.092 -894.767 2992.650 -3736.016 -0.078 -1.417 0.342 -0.1 0.58 -0.8 0.12
1 8.19 819 0.105 -7.791 2.787 -16.724 -12.268 0.549 -893.868 2994.299 -3730.470 0.037 -1.505 0.312 -0.1 0.58 -0.8 0.12
1 8.20 820 0.120 -7.935 2.538 -13.062 -7.782 0.549 -953.979 3024.280 -3700.489 0.029 -1.369 0.537 -0.1 0.58 -0.8 0.12
1 8.21 821 -0.101 -8.346 2.758 -7.263 -7.904 -1.282 -953.979 3099.231 -3805.571 0.255 -0.964 0.296 -0.1 0.58 -0.8 0.12
1 8.22 822 -0.517 -8.811 2.988 3.235 -11.108 -3.174 -893.868 2949.329 -3805.571 0.685 -0.504 0.051 -0.1 0.58 -0.8 0.12
1 8.23 823 -0.761 -8.849 2.974 6.378 -13.733 -3.754 -923.998 3024.280 -3730.470 0.936 -0.464 0.072 -0.1 0.58 -0.8 0.13
1 8.24 824 -0.915 -8.945 2.950 4.547 -14.038 -5.035 -923.998 3024.280 -3730.470 1.098 -0.365 0.105 -0.1 0.58 -0.8 0.13
1 8.25 825 -0.900 -8.959 2.926 0.366 -13.306 -5.890 -953.979 3069.250 -3625.538 1.092 -0.349 0.134 -0.1 0.58 -0.8 0.13
1 8.26 826 -0.919 -9.060 2.643 -4.211 -13.092 -6.317 -953.979 3069.250 -3625.538 1.120 -0.249 0.414 -0.1 0.58 -0.8 0.13
1 8.27 827 -0.498 -9.074 2.457 -5.829 -13.916 -6.378 -923.998 3024.280 -3700.489 0.708 -0.237 0.592 -0.1 0.58 -0.8 0.13
1 8.28 828 -0.244 -9.151 2.581 -5.402 -12.451 -6.104 -773.946 3024.280 -3835.551 0.464 -0.164 0.456 -0.11 0.58 -0.8 0.13
1 8.29 829 0.139 -9.362 2.586 -1.068 -9.644 -5.035 -1028.930 3099.231 -3655.519 0.105 0.041 0.432 -0.11 0.58 -0.8 0.13
1 8.30 830 0.139 -9.309 2.437 -1.892 -8.331 -5.157 -938.988 3039.270 -3715.479 0.118 -0.013 0.575 -0.11 0.58 -0.8 0.13
1 8.31 831 0.273 -9.544 2.524 -1.495 -4.303 -5.096 -938.988 3039.270 -3715.479 -0.006 0.220 0.482 -0.11 0.58 -0.8 0.13
1 8.32 832 -0.077 -9.687 2.466 -2.869 -1.373 -5.005 -1043.920 3039.270 -3850.542 0.354 0.362 0.534 -0.11 0.58 -0.8 0.13
1 8.33 833 -0.306 -9.864 2.251 -2.594 -1.343 -5.768 -1043.920 3039.270 -3850.542 0.592 0.537 0.741 -0.11 0.58 -0.8 0.13
1 8.34 834 -0.646 -9.955 2.126 2.075 -3.815 -6.561 -998.949 3069.250 -3655.519 0.940 0.625 0.857 -0.11 0.58 -0.8 0.13
1 8.35 835 -0.881 -9.917 2.131 5.310 -7.019 -6.897 -938.988 3084.241 -3670.509 1.182 0.586 0.847 -0.11 0.58 -0.8 0.12
1 8.36 836 -0.838 -9.908 2.227 10.223 -11.200 -6.897 -1028.930 3069.250 -3730.470 1.154 0.577 0.753 -0.11 0.58 -0.8 0.12
1 8.37 837 -0.814 -9.984 2.193 12.604 -12.329 -6.958 -983.959 3159.192 -3565.427 1.138 0.657 0.796 -0.11 0.58 -0.8 0.13
1 8.38 838 -0.627 -10.075 2.370 16.571 -11.810 -5.463 -983.959 3159.192 -3565.427 0.960 0.753 0.633 -0.11 0.58 -0.8 0.13
1 8.39 839 -0.579 -10.085 2.284 16.724 -13.001 -5.524 -893.868 2994.299 -3700.489 0.921 0.768 0.737 -0.11 0.58 -0.8 0.13
1 8.40 840 -0.646 -9.932 2.212 12.329 -14.252 -4.547 -893.868 2994.299 -3700.489 0.997 0.620 0.823 -0.11 0.58 -0.8 0.13
1 8.41 841 -0.488 -9.764 2.289 3.601 -14.557 -2.960 -1088.891 3114.221 -3670.509 0.847 0.455 0.755 -0.11 0.58 -0.8 0.13
1 8.42 842 -0.220 -9.615 2.265 1.831 -13.123 -1.434 -1163.992 3159.192 -3850.542 0.586 0.307 0.779 -0.12 0.58 -0.8 0.13
1 8.43 843 -0.426 -9.644 2.035 0.824 -11.993 -0.916 -1163.992 3159.192 -3850.542 0.798 0.335 1.005 -0.12 0.58 -0.8 0.13
1 8.44 844 -0.565 -9.951 1.494 2.991 -15.228 -0.671 -1134.011 3069.250 -3700.489 0.943 0.638 1.533 -0.12 0.58 -0.8 0.13
1 8.45 845 -0.661 -10.166 1.197 3.204 -16.388 -1.129 -1134.011 3069.250 -3700.489 1.043 0.851 1.822 -0.12 0.58 -0.8 0.13
1 8.46 846 -0.584 -10.032 1.183 4.974 -17.090 -1.648 -1103.881 3099.231 -3700.489 0.971 0.714 1.827 -0.12 0.58 -0.8 0.13
1 8.47 847 -0.608 -9.893 1.092 7.080 -17.242 -1.770 -1103.881 3099.231 -3700.489 0.999 0.573 1.911 -0.12 0.58 -0.8 0.13
1 8.48 848 -0.737 -9.788 0.809 13.336 -16.602 -1.648 -1088.891 3114.221 -3670.509 1.133 0.466 2.189 -0.12 0.58 -0.8 0.13
1 8.49 849 -0.690 -9.544 1.398 17.304 -18.097 -1.007 -1118.871 3114.221 -3775.440 1.088 0.223 1.601 -0.12 0.58 -0.8 0.13
1 8.50 850 -0.273 -9.644 3.261 28.473 -19.165 0.000 -1118.871 3114.221 -3775.440 0.675 0.326 -0.254 -0.12 0.58 -0.8 0.13
1 8.51 851 1.188 -10.722 2.552 52.063 -34.729 13.245 -1178.982 3024.280 -3730.470 -0.780 1.432 0.542 -0.12 0.57 -0.8 0.14
1 8.52 852 2.658 -11.454 2.820 22.797 -46.936 27.283 -1178.982 3024.280 -3730.470 -2.253 2.186 0.339 -0.12 0.57 -0.8 0.14
1 8.53 853 3.697 -11.382 3.395 -16.266 -28.839 40.070 -1268.923 2889.218 -3775.440 -3.313 2.118 -0.224 -0.13 0.57 -0.8 0.14
1 8.54 854 4.027 -12.287 5.042 14.343 2.441 45.624 -1268.923 2889.218 -3775.440 -3.690 3.015 -1.890 -0.13 0.57 -0.8 0.15
1 8.55 855 3.769 -13.111 5.828 55.542 21.362 52.216 -1283.914 2949.329 -3805.571 -3.501 3.849 -2.637 -0.12 0.57 -0.8 0.15
1 8.56 856 2.284 -10.698 5.215 38.574 42.999 49.927 -1208.962 2994.299 -3805.571 -2.101 1.463 -1.941 -0.12 0.56 -0.8 0.15
1 8.57 857 0.939 -8.907 3.558 -0.122 62.073 38.208 -1208.962 2994.299 -3805.571 -0.846 -0.306 -0.217 -0.11 0.56 -0.8 0.15
1 8.58 858 0.019 -8.868 3.132 -21.881 64.759 26.459 -1103.881 2919.198 -3865.532 -0.007 -0.338 0.226 -0.11 0.56 -0.8 0.15
1 8.59 859 -1.207 -9.534 3.295 -1.526 64.484 13.611 -1043.920 2859.237 -3850.542 1.094 0.310 0.013 -0.1 0.57 -0.8 0.15
1 8.60 860 -1.944 -8.864 3.467 16.968 56.336 8.789 -1088.891 3009.290 -4000.444 1.778 -0.359 -0.156 -0.09 0.57 -0.8 0.15
1 8.61 861 -2.088 -7.523 3.520 16.235 42.572 6.042 -1088.891 3009.290 -4000.444 1.874 -1.689 -0.183 -0.09 0.57 -0.81 0.15
1 8.62 862 -1.848 -6.910 3.759 4.211 29.297 8.789 -953.979 2919.198 -3865.532 1.600 -2.294 -0.404 -0.09 0.57 -0.81 0.15
1 8.63 863 -1.154 -7.370 3.031 5.127 10.956 15.381 -893.868 3069.250 -3985.454 0.880 -1.833 0.326 -0.09 0.57 -0.81 0.15
1 8.64 864 -0.364 -8.552 3.022 29.816 -1.495 23.254 -893.868 3069.250 -3985.454 0.065 -0.649 0.339 -0.08 0.57 -0.81 0.15
1 8.65 865 0.445 -9.261 3.663 54.138 -6.134 29.999 -833.907 2934.188 -3850.542 -0.772 0.073 -0.271 -0.08 0.57 -0.81 0.15
1 8.66 866 1.949 -9.510 4.808 39.673 -5.554 33.112 -909.008 2964.319 -3895.512 -2.342 0.380 -1.269 -0.08 0.56 -0.81 0.15
1 8.67 867 2.844 -9.912 4.961 12.054 -0.885 28.595 -818.917 3069.250 -3985.454 -3.271 0.803 -1.373 -0.08 0.56 -0.81 0.15
1 8.68 868 3.295 -9.812 4.779 0.549 10.010 18.860 -818.917 3069.250 -3985.454 -3.757 0.709 -1.180 -0.08 0.56 -0.81 0.16
1 8.69 869 3.405 -9.453 4.386 0.427 23.529 6.928 -833.907 3039.270 -3955.473 -3.895 0.351 -0.787 -0.08 0.56 -0.81 0.16
1 8.70 870 2.911 -9.003 4.080 -2.899 37.811 -6.714 -653.874 2874.228 -3865.532 -3.420 -0.099 -0.483 -0.07 0.56 -0.81 0.16
1 8.71 871 2.145 -8.514 3.812 -5.035 47.547 -26.489 -653.874 2874.228 -3865.532 -2.633 -0.591 -0.219 -0.07 0.56 -0.81 0.15
1 8.72 872 2.050 -8.256 3.682 -4.181 48.645 -36.499 -818.917 2994.299 -3865.532 -2.506 -0.854 -0.097 -0.07 0.56 -0.81 0.15
1 8.73 873 1.719 -8.222 3.721 -2.075 54.962 -44.434 -668.864 3084.241 -3955.473 -2.084 -0.895 -0.146 -0.07 0.56 -0.81 0.14
1 8.74 874 1.212 -8.437 3.788 -1.038 60.486 -44.403 -803.926 3084.241 -3955.473 -1.527 -0.682 -0.215 -0.07 0.56 -0.82 0.13
1 8.75 875 0.493 -8.677 3.975 -0.824 61.646 -39.765 -803.926 3084.241 -3955.473 -0.768 -0.445 -0.402 -0.07 0.56 -0.82 0.13
1 8.76 876 0.019 -8.825 4.022 -4.272 58.991 -33.661 -818.917 2949.329 -4015.434 -0.265 -0.297 -0.450 -0.07 0.56 -0.82 0.12
1 8.77 877 -0.484 -8.696 3.864 -8.301 51.819 -28.870 -608.903 2949.329 -3985.454 0.257 -0.429 -0.298 -0.07 0.56 -0.82 0.12
1 8.78 878 -0.546 -8.725 3.472 -11.200 38.117 -21.973 -608.903 2949.329 -3985.454 0.331 -0.405 0.083 -0.06 0.56 -0.82 0.11
1 8.79 879 -0.450 -8.682 3.419 -8.118 29.572 -18.463 -623.894 2814.267 -4000.444 0.245 -0.454 0.121 -0.06 0.56 -0.82 0.11
1 8.80 880 -0.125 -8.380 3.438 -0.092 21.637 -13.550 -684.004 2919.198 -3910.502 -0.062 -0.764 0.082 -0.06 0.56 -0.82 0.1
1 8.81 881 0.148 -8.303 3.400 2.869 18.921 -11.505 -728.975 2964.319 -4030.574 -0.326 -0.840 0.122 -0.06 0.56 -0.82 0.1
1 8.82 882 0.436 -8.476 3.462 4.303 18.372 -8.972 -728.975 2964.319 -4030.574 -0.604 -0.666 0.065 -0.06 0.56 -0.82 0.1
1 8.83 883 0.517 -8.600 3.400 5.981 17.700 -8.514 -608.903 2994.299 -4015.434 -0.677 -0.539 0.135 -0.06 0.56 -0.82 0.1
1 8.84 884 0.694 -8.390 3.544 9.155 18.005 -7.874 -593.913 2964.319 -4105.525 -0.845 -0.746 0.001 -0.06 0.56 -0.82 0.1
1 8.85 885 0.776 -8.433 3.572 11.719 21.545 -7.660 -593.913 2964.319 -4105.525 -0.918 -0.697 -0.014 -0.06 0.56 -0.82 0.1
1 8.86 886 0.723 -8.414 3.577 11.597 24.872 -7.294 -413.880 2816.665 -3993.848 -0.857 -0.710 -0.001 -0.06 0.56 -0.82 0.1
1 8.87 887 0.833 -8.141 3.563 10.864 27.802 -5.981 -653.874 2996.698 -3933.737 -0.961 -0.976 0.032 -0.06 0.56 -0.82 0.09
1 8.88 888 0.369 -8.203 3.232 7.202 30.518 -2.502 -653.874 2876.626 -3903.757 -0.496 -0.900 0.395 -0.05 0.56 -0.82 0.09
1 8.89 889 0.029 -8.208 3.232 5.829 30.365 -0.549 -653.874 2876.626 -3903.757 -0.168 -0.892 0.404 -0.05 0.56 -0.82 0.09
1 8.90 890 -0.239 -8.476 3.050 6.165 27.405 1.495 -563.933 2966.717 -3993.848 0.085 -0.620 0.594 -0.05 0.56 -0.82 0.09
1 8.91 891 -0.479 -8.399 2.830 6.989 22.064 3.632 -533.952 3026.678 -4008.838 0.309 -0.693 0.822 -0.05 0.56 -0.82 0.09
1 8.92 892 -0.627 -8.466 2.696 8.423 11.017 8.759 -533.952 3026.678 -4008.838 0.439 -0.623 0.962 -0.05 0.56 -0.82 0.09
1 8.93 893 -0.306 -8.327 2.375 9.277 2.991 11.597 -653.874 2951.577 -3978.858 0.098 -0.759 1.290 -0.05 0.56 -0.82 0.09
1 8.94 894 0.005 -8.265 2.485 7.843 -3.448 14.282 -444.011 3011.688 -4053.809 -0.231 -0.817 1.190 -0.04 0.56 -0.82 0.09
1 8.95 895 0.469 -8.409 2.418 2.045 -6.256 16.571 -383.900 3011.688 -3993.848 -0.728 -0.664 1.276 -0.04 0.56 -0.83 0.09
1 8.96 896 0.718 -8.849 2.504 -1.434 -6.256 18.219 -383.900 3011.688 -3993.848 -0.995 -0.223 1.192 -0.04 0.56 -0.82 0.09
1 8.97 897 1.087 -9.429 2.667 -1.617 -3.815 19.196 -488.981 2936.587 -4053.809 -1.376 0.353 1.020 -0.04 0.56 -0.82 0.09
1 8.98 898 1.149 -9.467 2.653 -1.251 -1.770 19.959 -563.933 2936.587 -4053.809 -1.452 0.389 1.025 -0.04 0.56 -0.82 0.09
1 8.99 899 1.101 -9.194 2.706 -3.998 -0.610 20.966 -563.933 2936.587 -4053.809 -1.419 0.112 0.963 -0.04 0.56 -0.82 0.09
1 9.00 900 0.632 -9.036 2.725 -17.853 -1.038 19.867 -383.900 2861.636 -4023.829 -0.965 -0.051 0.929 -0.04 0.56 -0.82 0.09
1 9.01 901 0.297 -9.141 2.993 -19.898 -2.106 18.280 -473.991 2846.646 -3978.858 -0.646 0.044 0.634 -0.04 0.56 -0.82 0.09
1 9.02 902 -0.038 -9.026 3.237 -11.047 -2.777 15.595 -353.919 2996.698 -3978.858 -0.342 -0.093 0.331 -0.04 0.56 -0.82 0.1
1 9.03 903 -0.230 -8.514 2.777 -9.338 -2.045 15.595 -353.919 2996.698 -3978.858 -0.165 -0.611 0.776 -0.04 0.56 -0.82 0.1
1 9.04 904 -0.235 -7.710 1.494 -18.036 -4.883 17.029 -444.011 2861.636 -3948.877 -0.178 -1.421 2.041 -0.04 0.56 -0.82 0.1
1 9.05 905 0.034 -7.346 0.287 -30.792 -8.514 20.111 -353.919 3101.629 -3903.757 -0.465 -1.796 3.218 -0.04 0.57 -0.82 0.1
1 9.06 906 0.421 -7.331 -0.359 -34.668 -8.331 24.323 -353.919 3101.629 -3903.757 -0.877 -1.826 3.819 -0.04 0.57 -0.82 0.1
1 9.07 907 0.785 -8.318 1.954 -1.404 -6.592 29.877 -444.011 3041.668 -4023.829 -1.271 -0.855 1.462 -0.04 0.57 -0.81 0.1
1 9.08 908 1.121 -9.797 4.674 52.826 3.448 26.550 -444.011 2966.717 -3843.796 -1.642 0.622 -1.271 -0.04 0.57 -0.81 0.1
1 9.09 909 0.196 -11.014 6.240 102.936 48.493 8.087 -353.919 3146.600 -3723.874 -0.789 1.912 -2.655 -0.04 0.56 -0.82 0.11
1 9.10 910 -0.915 -10.717 7.054 73.395 50.537 -5.096 -353.919 3146.600 -3723.874 0.294 1.665 -3.351 -0.03 0.56 -0.82 0.1
1 9.11 911 -1.973 -12.896 6.297 -60.303 -12.390 -44.312 -398.890 3176.581 -3933.737 1.376 3.837 -2.606 -0.03 0.56 -0.82 0.1
1 9.12 912 0.642 -13.159 4.669 -33.142 -60.547 -50.598 -293.958 2951.577 -4083.790 -1.156 4.064 -1.056 -0.04 0.56 -0.82 0.1
1 9.13 913 3.103 -10.147 3.807 -7.782 -49.225 -42.908 -293.958 2951.577 -4083.790 -3.512 1.035 -0.222 -0.04 0.56 -0.82 0.1
1 9.14 914 1.939 -10.018 2.394 -40.558 -15.778 -38.727 -293.958 2846.646 -3828.806 -2.267 0.897 1.176 -0.05 0.56 -0.82 0.1
1 9.15 915 1.925 -12.029 3.879 -25.879 -20.508 -40.405 -503.972 3101.629 -4008.838 -2.162 2.885 -0.362 -0.05 0.56 -0.82 0.1
1 9.16 916 2.763 -11.584 6.019 28.046 6.836 -36.560 -444.011 3086.639 -3918.747 -2.860 2.421 -2.544 -0.06 0.57 -0.82 0.09
1 9.17 917 2.208 -10.712 6.330 25.086 19.409 -34.760 -444.011 3086.639 -3918.747 -2.260 1.563 -2.818 -0.06 0.56 -0.82 0.09
1 9.18 918 -0.129 -9.970 6.163 -20.844 32.196 -28.687 -488.981 2966.717 -4023.829 0.107 0.821 -2.650 -0.06 0.56 -0.82 0.08
1 9.19 919 -1.542 -10.315 5.579 -17.395 27.039 -26.703 -743.965 3101.629 -3798.825 1.544 1.154 -2.097 -0.06 0.56 -0.82 0.08
1 9.20 920 -2.322 -9.836 5.282 9.888 21.973 -25.940 -743.965 3101.629 -3798.825 2.350 0.669 -1.815 -0.06 0.57 -0.82 0.08
1 9.21 921 -3.170 -8.332 5.042 18.219 8.453 -27.680 -623.894 3041.668 -3948.877 3.226 -0.826 -1.554 -0.06 0.56 -0.82 0.08
1 9.22 922 -3.151 -8.361 5.033 2.502 -7.721 -28.351 -728.975 2936.587 -3888.767 3.229 -0.784 -1.510 -0.06 0.56 -0.82 0.07
1 9.23 923 -2.715 -9.319 4.789 -3.448 -22.369 -26.337 -728.975 2936.587 -3888.767 2.812 0.182 -1.245 -0.06 0.56 -0.82 0.07
1 9.24 924 -2.212 -9.572 4.554 -0.793 -42.267 -18.066 -623.894 3011.688 -3888.767 2.387 0.439 -1.006 -0.06 0.56 -0.82 0.07
1 9.25 925 -1.528 -9.371 4.319 -8.209 -54.260 -12.604 -488.981 2936.587 -3918.747 1.753 0.237 -0.776 -0.06 0.56 -0.82 0.07
1 9.26 926 -0.445 -9.433 4.434 -19.898 -62.561 -4.547 -758.956 2966.717 -3948.877 0.704 0.295 -0.904 -0.07 0.56 -0.82 0.08
1 9.27 927 0.369 -9.448 4.276 -26.886 -58.991 7.507 -758.956 2966.717 -3948.877 -0.081 0.299 -0.774 -0.07 0.56 -0.82 0.08
1 9.28 928 1.346 -9.529 4.540 -20.081 -40.436 25.208 -743.965 3071.649 -3828.806 -1.041 0.368 -1.073 -0.08 0.56 -0.82 0.08
1 9.29 929 0.967 -9.357 4.516 -14.435 -23.651 36.347 -698.995 3086.639 -3888.767 -0.664 0.185 -1.076 -0.08 0.56 -0.82 0.08
1 9.30 930 0.316 -9.084 4.324 -15.381 -14.099 43.366 -698.995 3086.639 -3888.767 -0.036 -0.094 -0.901 -0.08 0.57 -0.82 0.09
1 9.31 931 -0.814 -9.089 3.941 -19.409 -12.695 43.640 -848.147 3073.148 -3688.347 0.994 -0.105 -0.553 -0.08 0.57 -0.81 0.09
1 9.32 932 -1.255 -8.940 3.850 -12.848 -17.151 38.056 -908.258 3088.138 -3703.337 1.377 -0.262 -0.483 -0.08 0.57 -0.81 0.1
1 9.33 933 -1.532 -8.873 3.860 -6.866 -23.804 28.534 -863.138 3193.070 -3808.419 1.607 -0.334 -0.504 -0.08 0.57 -0.81 0.1
1 9.34 934 -1.475 -8.572 3.903 -6.439 -30.487 17.273 -863.138 3193.070 -3808.419 1.517 -0.638 -0.553 -0.08 0.57 -0.81 0.1
1 9.35 935 -1.188 -8.485 3.936 -11.353 -31.952 7.660 -803.177 3043.167 -3598.406 1.214 -0.726 -0.592 -0.08 0.57 -0.81 0.11
1 9.36 936 -0.412 -8.437 3.692 -17.700 -27.527 -0.275 -863.138 3118.119 -3658.367 0.439 -0.779 -0.360 -0.08 0.57 -0.81 0.11
1 9.37 937 0.144 -8.342 3.539 -16.357 -20.905 -1.068 -863.138 3118.119 -3658.367 -0.106 -0.881 -0.226 -0.08 0.57 -0.81 0.11
1 9.38 938 0.436 -8.227 3.390 -11.017 -13.458 0.000 -848.147 3103.128 -3688.347 -0.386 -1.003 -0.097 -0.08 0.57 -0.81 0.11
1 9.39 939 0.369 -8.054 3.328 -1.556 -6.226 1.404 -803.177 3118.119 -3703.337 -0.301 -1.183 -0.056 -0.08 0.57 -0.81 0.11
1 9.40 940 0.163 -8.102 3.371 1.648 -5.066 1.404 -848.147 3148.099 -3613.396 -0.090 -1.135 -0.098 -0.08 0.57 -0.81 0.11
1 9.41 941 -0.383 -8.145 3.290 5.035 -4.272 0.458 -848.147 3148.099 -3613.396 0.458 -1.090 -0.012 -0.08 0.57 -0.81 0.11
1 9.42 942 -0.579 -8.279 3.295 5.035 -5.951 0.977 -863.138 3343.122 -3628.386 0.658 -0.953 -0.009 -0.08 0.57 -0.81 0.11
1 9.43 943 -1.077 -8.366 3.333 4.578 -10.559 1.801 -863.138 3163.089 -3763.448 1.155 -0.863 -0.038 -0.08 0.57 -0.81 0.11
1 9.44 944 -1.207 -8.289 3.247 4.578 -16.144 2.625 -863.138 3163.089 -3763.448 1.282 -0.937 0.057 -0.08 0.57 -0.81 0.11
1 9.45 945 -1.015 -8.064 3.165 0.214 -20.233 3.510 -758.206 3163.089 -3628.386 1.088 -1.159 0.146 -0.09 0.57 -0.81 0.12
1 9.46 946 -0.570 -7.973 3.122 -7.874 -21.607 5.585 -893.268 3148.099 -3688.347 0.647 -1.250 0.189 -0.09 0.57 -0.81 0.12
1 9.47 947 -0.326 -8.160 2.955 -12.573 -18.066 5.829 -998.200 3253.181 -3643.376 0.408 -1.068 0.344 -0.09 0.57 -0.81 0.12
1 9.48 948 -0.263 -8.160 3.022 -12.177 -14.740 5.737 -998.200 3253.181 -3643.376 0.348 -1.075 0.258 -0.09 0.57 -0.81 0.12
1 9.49 949 -0.192 -8.241 2.864 -10.071 -12.665 5.157 -923.249 3178.080 -3643.376 0.278 -0.999 0.400 -0.09 0.57 -0.81 0.12
1 9.50 950 -0.263 -8.433 2.907 -7.782 -12.451 5.005 -953.229 3223.050 -3688.347 0.351 -0.812 0.343 -0.09 0.57 -0.81 0.12
1 9.51 951 -0.488 -8.509 3.031 -6.042 -14.008 2.228 -953.229 3223.050 -3688.347 0.576 -0.740 0.207 -0.09 0.57 -0.81 0.12
1 9.52 952 -0.326 -8.935 2.873 -5.280 -14.160 1.495 -893.268 3148.099 -3568.425 0.414 -0.317 0.356 -0.09 0.57 -0.81 0.12
1 9.53 953 -0.297 -8.969 2.787 -1.770 -11.810 -0.153 -818.167 3148.099 -3538.445 0.392 -0.288 0.428 -0.09 0.57 -0.81 0.12
1 9.54 954 -0.153 -9.204 2.701 0.000 -10.162 -0.122 -848.147 3148.099 -3718.328 0.253 -0.055 0.511 -0.1 0.57 -0.81 0.13
1 9.55 955 0.096 -9.208 2.854 -0.519 -6.775 -1.038 -848.147 3148.099 -3718.328 0.009 -0.051 0.355 -0.1 0.57 -0.8 0.13
1 9.56 956 0.101 -9.208 2.782 -2.594 -2.289 -2.228 -923.249 3223.050 -3538.445 0.010 -0.052 0.422 -0.1 0.57 -0.8 0.13
1 9.57 957 0.101 -9.323 2.768 -5.524 2.960 -3.571 -893.268 3298.151 -3613.396 0.016 0.060 0.429 -0.1 0.57 -0.8 0.13
1 9.58 958 0.010 -9.491 2.811 -8.606 6.866 -7.782 -893.268 3298.151 -3613.396 0.114 0.224 0.375 -0.1 0.57 -0.8 0.12
1 9.59 959 -0.192 -9.505 2.768 -11.475 8.301 -11.414 -998.200 3178.080 -3718.328 0.323 0.234 0.405 -0.1 0.57 -0.8 0.12
1 9.60 960 -0.460 -9.568 2.643 -14.160 7.446 -15.381 -938.239 3193.070 -3553.435 0.617 0.283 0.489 -0.1 0.58 -0.8 0.12
1 9.61 961 -0.781 -9.773 2.490 -11.871 5.951 -17.029 -998.200 3103.128 -3568.425 0.954 0.481 0.618 -0.1 0.58 -0.8 0.12
1 9.62 962 -0.910 -9.855 2.389 -7.843 4.730 -17.700 -998.200 3103.128 -3568.425 1.100 0.556 0.699 -0.1 0.58 -0.8 0.12
1 9.63 963 -1.101 -9.927 2.366 -2.869 0.549 -18.250 -1043.170 3193.070 -3448.354 1.309 0.624 0.709 -0.1 0.58 -0.8 0.12
1 9.64 964 -0.996 -9.817 2.480 -0.427 -2.838 -16.388 -1028.180 3223.050 -3508.464 1.222 0.511 0.584 -0.1 0.58 -0.8 0.12
1 9.65 965 -1.030 -9.778 2.639 4.028 -5.493 -14.343 -1028.180 3223.050 -3508.464 1.272 0.471 0.421 -0.1 0.58 -0.8 0.12
1 9.66 966 -0.977 -9.553 2.753 5.157 -8.209 -13.062 -1013.190 3163.089 -3448.354 1.235 0.247 0.307 -0.1 0.58 -0.8 0.12
1 9.67 967 -0.728 -9.424 2.753 4.303 -11.353 -11.475 -1013.190 3163.089 -3448.354 1.002 0.119 0.310 -0.1 0.58 -0.8 0.12
1 9.68 968 -0.263 -9.548 2.777 -1.007 -14.984 -9.247 -1073.151 3178.080 -3508.464 0.569 0.246 0.291 -0.1 0.58 -0.8 0.12
1 9.69 969 -0.038 -9.692 2.423 -5.554 -15.076 -7.660 -1073.151 3178.080 -3508.464 0.360 0.388 0.639 -0.1 0.58 -0.8 0.12
1 9.70 970 0.010 -9.721 2.006 -8.148 -13.550 -6.104 -1118.271 3268.171 -3478.334 0.328 0.413 1.041 -0.11 0.58 -0.8 0.12
1 9.71 971 0.014 -9.793 1.700 -4.578 -12.116 -5.219 -1028.180 3148.099 -3613.396 0.338 0.479 1.330 -0.11 0.58 -0.8 0.12
1 9.72 972 -0.287 -10.219 1.585 6.439 -10.254 -4.181 -1028.180 3148.099 -3613.396 0.652 0.901 1.429 -0.11 0.58 -0.8 0.12
1 9.73 973 -0.527 -10.233 1.599 13.733 -8.484 -3.784 -1103.281 3178.080 -3643.376 0.901 0.914 1.409 -0.11 0.58 -0.8 0.12
1 9.74 974 -0.800 -10.353 1.561 19.959 -9.827 -4.028 -1103.281 3178.080 -3643.376 1.181 1.035 1.452 -0.11 0.58 -0.8 0.12
1 9.75 975 -1.302 -10.315 1.595 21.545 -12.024 -2.686 -1118.271 3313.142 -3658.367 1.690 1.008 1.451 -0.11 0.58 -0.8 0.12
1 9.76 976 -1.432 -10.104 1.408 19.592 -16.602 -1.190 -1118.271 3313.142 -3658.367 1.819 0.803 1.655 -0.11 0.58 -0.8 0.12
1 9.77 977 -1.489 -9.726 1.868 16.998 -17.639 0.885 -1133.262 3148.099 -3538.445 1.874 0.429 1.209 -0.11 0.57 -0.8 0.12
1 9.78 978 -1.374 -9.592 3.184 19.226 -17.212 4.578 -1133.262 3103.128 -3643.376 1.753 0.299 -0.094 -0.11 0.57 -0.8 0.12
1 9.79 979 -0.862 -9.596 3.601 27.466 -19.318 10.010 -1133.262 3103.128 -3643.376 1.229 0.312 -0.485 -0.11 0.57 -0.8 0.13
1 9.80 980 0.785 -10.659 2.639 3.967 -45.197 26.733 -1358.265 2998.047 -3568.425 -0.433 1.388 0.518 -0.11 0.57 -0.8 0.13
1 9.81 981 2.351 -11.440 3.563 -24.841 -44.678 42.511 -1356.916 2999.396 -3563.628 -2.013 2.172 -0.395 -0.11 0.57 -0.8 0.13
1 9.82 982 3.620 -12.580 4.803 24.902 -15.381 54.016 -1266.825 3119.468 -3518.658 -3.368 3.294 -1.680 -0.12 0.57 -0.8 0.14
1 9.83 983 3.836 -12.412 4.755 46.570 -10.620 57.495 -1266.825 3119.468 -3518.658 -3.654 3.141 -1.585 -0.11 0.57 -0.8 0.14
1 9.84 984 3.477 -11.200 4.348 29.694 4.456 55.512 -1251.834 3179.429 -3458.547 -3.370 1.950 -1.116 -0.11 0.57 -0.8 0.15
1 9.85 985 2.260 -10.353 3.208 -3.784 32.776 48.096 -1116.922 2969.416 -3593.609 -2.234 1.112 0.055 -0.11 0.57 -0.8 0.15
1 9.86 986 0.713 -9.802 2.318 -26.001 48.859 36.286 -1116.922 2969.416 -3593.609 -0.769 0.556 0.930 -0.11 0.57 -0.8 0.15
1 9.87 987 -1.192 -9.975 1.844 -12.604 40.985 14.038 -1041.821 3089.487 -3518.658 1.078 0.714 1.359 -0.1 0.57 -0.8 0.15
1 9.88 988 -1.638 -9.912 2.265 12.421 31.738 1.282 -1041.821 3089.487 -3518.658 1.478 0.640 0.902 -0.1 0.57 -0.8 0.15
1 9.89 989 -1.628 -9.242 3.146 28.137 30.731 -5.157 -1026.831 3149.448 -3638.580 1.439 -0.031 0.019 -0.1 0.57 -0.8 0.15
1 9.90 990 -1.532 -7.815 3.548 28.137 27.618 -9.003 -921.300 3150.348 -3499.920 1.313 -1.431 -0.309 -0.09 0.57 -0.8 0.15
1 9.91 991 -1.393 -7.475 3.826 14.069 19.226 -5.707 -1011.241 3090.387 -3514.910 1.171 -1.759 -0.550 -0.09 0.57 -0.8 0.15
1 9.92 992 -0.929 -7.973 4.037 3.448 9.430 1.526 -1026.231 3000.295 -3559.881 0.706 -1.255 -0.746 -0.09 0.57 -0.8 0.15
1 9.93 993 -0.297 -8.605 4.664 8.331 6.592 13.245 -1026.231 3000.295 -3559.881 0.063 -0.620 -1.364 -0.09 0.57 -0.8 0.15
1 9.94 994 0.278 -8.844 5.014 27.893 6.439 31.464 -936.290 3015.286 -3619.842 -0.536 -0.370 -1.688 -0.09 0.57 -0.8 0.15
1 9.95 995 0.939 -8.629 4.769 33.936 -0.732 42.755 -936.290 3015.286 -3619.842 -1.236 -0.567 -1.396 -0.09 0.57 -0.81 0.15
1 9.96 996 2.260 -8.782 4.822 41.657 -2.747 51.514 -906.310 3090.387 -3514.910 -2.659 -0.366 -1.330 -0.08 0.56 -0.81 0.16
1 9.97 997 2.758 -9.046 4.822 43.701 0.031 51.422 -906.310 3090.387 -3514.910 -3.209 -0.073 -1.260 -0.08 0.56 -0.81 0.16
