COL1	TIME	ACC_X	ACC_Y	ACC_Z	GYR_X	GYR_Y	GYR_Z	MAG_X	MAG_Y	MAG_Z	LACC_X	LACC_Y	LACC_Z	QUAT_X	QUAT_Y	QUAT_Z	QUAT_W
1 0.00 0 0.187 -9.778 1.829 -0.336 -1.221 0.763 -299.955 -209.863 -3104.927 0.012 0.134 -0.102 -0.05 0.64 -0.77 0.04
1 0.01 1 0.172 -9.692 1.796 -0.244 -0.610 0.885 -449.857 -89.941 -2984.855 0.026 0.048 -0.068 -0.05 0.64 -0.77 0.04
1 0.02 2 0.153 -9.721 1.772 -1.160 -0.885 1.221 -449.857 -89.941 -2984.855 0.045 0.076 -0.044 -0.05 0.64 -0.77 0.04
1 0.03 3 0.139 -9.726 1.719 -1.556 -0.519 1.282 -299.955 -239.994 -3134.908 0.059 0.081 0.009 -0.05 0.64 -0.77 0.04
1 0.04 4 0.086 -9.706 1.757 -1.373 -0.519 0.732 -374.906 -164.893 -3104.927 0.111 0.062 -0.029 -0.05 0.64 -0.77 0.04
1 0.05 5 0.158 -9.687 1.714 -0.427 -0.458 0.488 -374.906 -164.893 -3104.927 0.039 0.043 0.014 -0.05 0.64 -0.77 0.04
1 0.06 6 0.101 -9.788 1.733 -0.427 -1.068 0.793 -299.955 -14.990 -2909.904 0.096 0.144 -0.005 -0.05 0.64 -0.77 0.04
1 0.07 7 0.220 -9.773 1.724 -0.732 -1.312 0.916 -299.955 -14.990 -2909.904 -0.023 0.129 0.005 -0.05 0.64 -0.77 0.04
1 0.08 8 0.201 -9.817 1.676 -0.549 -1.495 0.214 -434.867 -104.932 -3074.947 -0.005 0.172 0.053 -0.05 0.64 -0.77 0.04
1 0.09 9 0.177 -9.841 1.772 -0.427 -1.282 0.488 -434.867 -104.932 -3074.947 0.019 0.196 -0.044 -0.05 0.64 -0.77 0.04
1 0.10 10 0.077 -9.927 1.690 -1.617 0.336 1.312 -524.958 -164.893 -2984.855 0.120 0.282 0.038 -0.05 0.64 -0.77 0.04
1 0.11 11 0.134 -9.797 1.604 -1.678 -0.519 0.702 -359.916 -149.902 -3074.947 0.062 0.153 0.123 -0.05 0.64 -0.77 0.04
1 0.12 12 0.316 -9.807 1.753 -1.190 -0.916 1.465 -359.916 -149.902 -3074.947 -0.121 0.162 -0.026 -0.05 0.64 -0.77 0.04
1 0.13 13 0.215 -9.572 1.738 -1.038 -0.549 1.587 -434.867 -29.980 -3074.947 -0.020 -0.072 -0.012 -0.05 0.64 -0.77 0.04
1 0.14 14 0.249 -9.659 1.753 -1.678 -0.366 1.556 -434.867 -29.980 -3074.947 -0.053 0.014 -0.027 -0.05 0.64 -0.77 0.04
1 0.15 15 0.091 -9.654 1.729 -1.251 -1.068 1.190 -374.906 -119.922 -3104.927 0.105 0.009 -0.002 -0.05 0.64 -0.77 0.04
1 0.16 16 0.057 -9.783 1.657 -0.122 -1.007 1.129 -434.867 -104.932 -3014.986 0.138 0.138 0.070 -0.05 0.64 -0.77 0.04
1 0.17 17 0.158 -9.773 1.743 0.214 -0.458 1.434 -359.916 -149.902 -3044.966 0.036 0.129 -0.016 -0.05 0.64 -0.77 0.04
1 0.18 18 0.172 -9.750 1.714 -1.343 -0.885 1.007 -269.974 -119.922 -3029.976 0.021 0.105 0.013 -0.05 0.64 -0.77 0.04
1 0.19 19 0.201 -9.673 1.762 -0.946 -0.610 0.763 -269.974 -119.922 -3029.976 -0.007 0.028 -0.035 -0.05 0.64 -0.77 0.04
1 0.20 20 0.230 -9.702 1.777 -0.916 -0.763 1.007 -494.978 -119.922 -2984.855 -0.036 0.057 -0.050 -0.05 0.64 -0.77 0.04
1 0.21 21 0.196 -9.773 1.705 -1.007 -0.610 1.221 -494.978 -119.922 -2984.855 -0.002 0.129 0.022 -0.05 0.64 -0.77 0.04
1 0.22 22 0.316 -9.778 1.705 -0.824 -0.702 0.732 -224.854 -44.971 -2879.924 -0.122 0.134 0.023 -0.05 0.64 -0.77 0.04
1 0.23 23 0.220 -9.850 1.676 -0.824 -1.129 1.038 -359.916 -29.980 -3074.947 -0.025 0.205 0.051 -0.05 0.64 -0.77 0.04
1 0.24 24 0.302 -9.764 1.844 -0.122 -1.099 0.732 -374.906 -209.863 -3029.976 -0.106 0.119 -0.117 -0.05 0.64 -0.77 0.04
1 0.25 25 0.177 -9.802 1.781 -0.732 -0.397 0.946 -389.896 -149.902 -3119.917 0.019 0.158 -0.054 -0.05 0.64 -0.77 0.04
1 0.26 26 0.115 -9.764 1.710 -1.678 -0.763 1.526 -389.896 -149.902 -3119.917 0.082 0.119 0.018 -0.05 0.64 -0.77 0.04
1 0.27 27 0.101 -9.845 1.700 -1.434 -0.366 0.946 -434.867 -74.951 -2939.885 0.095 0.201 0.027 -0.05 0.64 -0.77 0.04
1 0.28 28 0.192 -9.821 1.729 -0.580 -1.526 0.671 -434.867 -74.951 -2939.885 0.004 0.177 -0.002 -0.05 0.64 -0.77 0.04
1 0.29 29 0.259 -9.716 1.772 -0.275 -1.617 0.977 -464.997 -104.932 -3014.986 -0.064 0.071 -0.046 -0.05 0.64 -0.77 0.04
1 0.30 30 0.115 -9.716 1.719 -1.221 -0.854 0.885 -329.935 -149.902 -3044.966 0.079 0.071 0.008 -0.05 0.64 -0.77 0.04
1 0.31 31 0.144 -9.649 1.858 -1.251 -1.068 0.671 -419.876 -164.893 -3209.859 0.051 0.004 -0.131 -0.05 0.64 -0.77 0.04
1 0.32 32 0.158 -9.836 1.767 -0.702 -0.946 0.916 -464.997 -29.980 -3119.917 0.036 0.191 -0.040 -0.05 0.64 -0.77 0.04
1 0.33 33 0.081 -9.697 1.686 -1.038 -1.190 0.946 -464.997 -29.980 -3119.917 0.113 0.052 0.042 -0.05 0.64 -0.77 0.04
1 0.34 34 0.144 -9.797 1.801 -0.031 -1.068 1.343 -419.876 -14.990 -2984.855 0.050 0.153 -0.074 -0.05 0.64 -0.77 0.04
1 0.35 35 0.134 -9.869 1.652 -1.343 -0.854 0.763 -419.876 -14.990 -2984.855 0.059 0.225 0.075 -0.05 0.64 -0.77 0.04
1 0.36 36 0.239 -9.826 1.738 -0.732 -1.343 1.190 -359.916 -179.883 -3074.947 -0.046 0.182 -0.011 -0.05 0.64 -0.77 0.04
1 0.37 37 0.297 -9.922 1.733 -0.671 -1.190 0.946 -419.876 -89.941 -3104.927 -0.103 0.277 -0.006 -0.05 0.64 -0.77 0.04
1 0.38 38 0.292 -9.702 1.705 -0.977 -1.190 1.312 -374.906 -209.863 -2879.924 -0.097 0.057 0.022 -0.05 0.64 -0.77 0.04
1 0.39 39 0.225 -9.788 1.743 -0.885 -1.221 1.068 -389.896 -179.883 -3119.917 -0.030 0.143 -0.017 -0.05 0.64 -0.77 0.04
1 0.40 40 0.182 -9.740 1.767 -0.763 -1.221 0.519 -389.896 -179.883 -3119.917 0.014 0.095 -0.041 -0.05 0.64 -0.77 0.04
1 0.41 41 0.230 -9.807 1.844 -1.038 -0.854 0.977 -284.964 -149.902 -3014.986 -0.034 0.162 -0.117 -0.05 0.64 -0.77 0.04
1 0.42 42 0.254 -9.745 1.777 -0.763 -1.343 1.160 -284.964 -149.902 -3014.986 -0.058 0.100 -0.050 -0.05 0.64 -0.77 0.04
1 0.43 43 0.105 -9.754 1.815 -0.671 -1.007 1.038 -374.906 -119.922 -3029.976 0.091 0.110 -0.088 -0.05 0.64 -0.77 0.04
1 0.44 44 0.101 -9.682 1.815 -0.732 -0.977 0.824 -374.906 -89.941 -3134.908 0.096 0.038 -0.088 -0.05 0.64 -0.77 0.04
1 0.45 45 0.206 -9.702 1.724 -0.885 -1.038 1.373 -374.906 -119.922 -2984.855 -0.010 0.057 0.004 -0.05 0.64 -0.77 0.04
1 0.46 46 0.163 -9.807 1.767 -0.732 -0.977 0.916 -209.863 0.000 -3149.898 0.033 0.162 -0.039 -0.05 0.64 -0.77 0.04
1 0.47 47 0.043 -9.702 1.686 -0.946 -0.977 1.526 -209.863 0.000 -3149.898 0.152 0.057 0.042 -0.05 0.64 -0.77 0.04
1 0.48 48 0.225 -9.754 1.733 -1.038 -1.190 0.519 -359.916 -179.883 -2894.914 -0.031 0.110 -0.006 -0.05 0.64 -0.77 0.04
1 0.49 49 0.335 -9.716 1.762 -0.885 -1.648 0.885 -359.916 -179.883 -2894.914 -0.141 0.071 -0.035 -0.05 0.64 -0.77 0.04
1 0.50 50 0.215 -9.888 1.724 -0.916 -1.282 0.641 -449.857 -14.990 -2984.855 -0.020 0.244 0.003 -0.05 0.64 -0.77 0.04
1 0.51 51 0.249 -9.759 1.628 -0.488 -1.129 0.275 -464.997 -179.883 -3044.966 -0.054 0.114 0.099 -0.05 0.64 -0.77 0.04
1 0.52 52 0.254 -9.773 1.796 -1.221 -1.251 0.977 -329.935 -74.951 -3149.898 -0.058 0.129 -0.069 -0.05 0.64 -0.77 0.04
1 0.53 53 0.215 -9.807 1.733 -1.007 -1.007 1.099 -419.876 -119.922 -3029.976 -0.020 0.162 -0.007 -0.05 0.64 -0.77 0.04
1 0.54 54 0.168 -9.706 1.686 -1.129 -0.549 0.671 -419.876 -119.922 -3029.976 0.028 0.062 0.041 -0.05 0.64 -0.77 0.04
1 0.55 55 0.259 -9.764 1.642 -0.610 -1.007 1.251 -269.974 -209.863 -3104.927 -0.063 0.119 0.084 -0.05 0.64 -0.77 0.04
1 0.56 56 0.144 -9.682 1.690 -0.702 -0.946 1.312 -269.974 -209.863 -3104.927 0.052 0.038 0.036 -0.05 0.64 -0.77 0.04
1 0.57 57 0.201 -9.702 1.666 -1.068 -1.007 0.916 -374.906 -239.994 -3059.957 -0.006 0.057 0.059 -0.05 0.64 -0.77 0.04
1 0.58 58 0.268 -9.692 1.738 -1.129 -1.740 1.282 -329.935 -149.902 -3014.986 -0.072 0.047 -0.012 -0.05 0.64 -0.77 0.04
1 0.59 59 0.235 -9.773 1.753 -0.275 -0.916 0.916 -329.935 -149.902 -3014.986 -0.039 0.129 -0.027 -0.05 0.64 -0.77 0.04
1 0.60 60 0.201 -9.750 1.700 -0.244 -0.488 1.617 -329.935 0.000 -3044.966 -0.005 0.105 0.026 -0.05 0.64 -0.77 0.04
1 0.61 61 0.110 -9.697 1.786 -1.190 -0.824 1.678 -329.935 0.000 -3044.966 0.087 0.052 -0.060 -0.05 0.64 -0.77 0.04
1 0.62 62 0.129 -9.702 1.719 -2.106 -0.732 1.526 -494.978 -89.941 -3164.888 0.067 0.057 0.007 -0.05 0.64 -0.77 0.04
1 0.63 63 0.134 -9.745 1.738 -1.801 -1.129 1.038 -494.978 -89.941 -3164.888 0.062 0.100 -0.013 -0.05 0.64 -0.77 0.04
1 0.64 64 0.201 -9.807 1.743 -0.244 -1.526 0.793 -344.925 -164.893 -2849.943 -0.006 0.162 -0.017 -0.05 0.64 -0.77 0.04
1 0.65 65 0.196 -9.793 1.738 -0.336 -1.129 0.885 -254.984 -179.883 -3074.947 -0.002 0.148 -0.012 -0.05 0.64 -0.77 0.04
1 0.66 66 0.168 -9.726 1.858 -0.702 -0.885 1.160 -254.984 -179.883 -3074.947 0.027 0.081 -0.132 -0.05 0.64 -0.77 0.04
1 0.67 67 0.259 -9.773 1.858 -0.214 -1.190 1.465 -389.896 -104.932 -3119.917 -0.063 0.129 -0.132 -0.05 0.64 -0.77 0.04
1 0.68 68 0.201 -9.745 1.705 -0.793 -0.854 1.343 -389.896 -104.932 -3119.917 -0.005 0.100 0.022 -0.05 0.64 -0.77 0.04
1 0.69 69 0.239 -9.745 1.777 -0.885 -0.854 1.373 -284.964 -149.902 -3074.947 -0.043 0.100 -0.050 -0.05 0.64 -0.77 0.04
1 0.70 70 0.201 -9.759 1.729 -1.434 -1.312 0.793 -284.964 -149.902 -3074.947 -0.005 0.114 -0.002 -0.05 0.64 -0.77 0.04
1 0.71 71 0.249 -9.730 1.681 -0.763 -1.312 0.916 -389.896 -74.951 -3119.917 -0.053 0.086 0.046 -0.05 0.64 -0.77 0.04
1 0.72 72 0.134 -9.711 1.767 -0.702 -1.190 1.160 -299.955 -89.941 -2984.855 0.062 0.066 -0.041 -0.05 0.64 -0.77 0.04
1 0.73 73 0.254 -9.659 1.714 -0.916 -1.007 1.251 -299.955 -89.941 -2984.855 -0.057 0.014 0.012 -0.05 0.64 -0.77 0.04
1 0.74 74 0.072 -9.821 1.595 -0.366 -1.007 0.610 -464.997 -224.854 -2939.885 0.124 0.177 0.132 -0.05 0.64 -0.77 0.04
1 0.75 75 0.187 -9.778 1.743 -0.824 -1.221 0.885 -254.984 -104.932 -3044.966 0.009 0.133 -0.017 -0.05 0.64 -0.77 0.04
1 0.76 76 0.081 -9.750 1.858 -1.068 -0.671 1.129 -329.935 -149.902 -2969.865 0.114 0.105 -0.132 -0.05 0.64 -0.77 0.04
1 0.77 77 0.206 -9.759 1.834 -1.068 -1.251 0.793 -329.935 -149.902 -2969.865 -0.011 0.114 -0.107 -0.05 0.64 -0.77 0.04
1 0.78 78 0.187 -9.778 1.710 -0.793 -0.946 0.732 -359.916 -179.883 -3044.966 0.008 0.134 0.018 -0.05 0.64 -0.77 0.04
1 0.79 79 0.211 -9.807 1.815 0.214 -1.465 0.946 -419.876 -239.994 -2954.875 -0.016 0.162 -0.088 -0.05 0.64 -0.77 0.04
1 0.80 80 0.220 -9.864 1.686 -0.702 -1.251 1.099 -419.876 -239.994 -2954.875 -0.025 0.220 0.042 -0.05 0.64 -0.77 0.04
1 0.81 81 0.192 -9.764 1.767 -1.099 -0.427 1.587 -434.867 -224.854 -3014.986 0.003 0.119 -0.040 -0.05 0.64 -0.77 0.04
1 0.82 82 0.172 -9.663 1.642 -0.732 -0.885 1.617 -374.906 -44.971 -3104.927 0.023 0.019 0.085 -0.05 0.64 -0.77 0.04
1 0.83 83 0.172 -9.644 1.671 -0.397 -0.854 1.160 -359.916 -149.902 -3074.947 0.023 -0.000 0.056 -0.05 0.64 -0.77 0.04
1 0.84 84 0.172 -9.730 1.815 -1.038 -1.068 0.610 -359.916 -149.902 -3074.947 0.023 0.086 -0.088 -0.05 0.64 -0.77 0.04
1 0.85 85 0.168 -9.596 1.695 -1.251 -0.854 0.824 -344.925 -209.863 -3059.957 0.028 -0.048 0.033 -0.05 0.64 -0.77 0.04
1 0.86 86 0.192 -9.697 1.695 -1.404 -0.671 0.610 -359.916 -74.951 -3119.917 0.004 0.052 0.033 -0.05 0.64 -0.77 0.04
1 0.87 87 0.129 -9.754 1.657 -1.862 -0.519 0.488 -359.916 -74.951 -3119.917 0.066 0.110 0.071 -0.05 0.64 -0.77 0.04
1 0.88 88 0.196 -9.821 1.657 -1.160 -1.678 1.587 -299.955 -89.941 -3029.976 -0.001 0.177 0.071 -0.05 0.64 -0.77 0.04
1 0.89 89 0.235 -9.706 1.710 -0.641 -1.129 1.282 -329.935 -179.883 -2939.885 -0.040 0.062 0.018 -0.05 0.64 -0.77 0.04
1 0.90 90 0.086 -9.802 1.863 -1.099 -1.190 1.068 -449.857 -164.893 -3059.957 0.109 0.158 -0.136 -0.05 0.64 -0.77 0.04
1 0.91 91 0.134 -9.817 1.681 -1.892 -1.068 1.709 -449.857 -164.893 -3059.957 0.061 0.172 0.047 -0.05 0.64 -0.77 0.04
1 0.92 92 0.215 -9.750 1.839 -1.312 -1.007 1.312 -359.916 -104.932 -3014.986 -0.021 0.105 -0.111 -0.05 0.64 -0.77 0.04
1 0.93 93 0.244 -9.773 1.805 -0.793 -1.465 1.404 -344.925 -44.971 -3059.957 -0.050 0.129 -0.077 -0.05 0.64 -0.77 0.04
1 0.94 94 0.206 -9.797 1.738 -0.763 -0.977 1.678 -344.925 -44.971 -3059.957 -0.012 0.153 -0.010 -0.05 0.64 -0.77 0.04
1 0.95 95 0.244 -9.788 1.805 -0.610 -1.160 1.221 -494.978 -14.990 -3104.927 -0.050 0.144 -0.076 -0.05 0.64 -0.77 0.04
1 0.96 96 0.206 -9.615 1.810 -0.580 -1.251 1.190 -359.916 -104.932 -3074.947 -0.012 -0.029 -0.082 -0.05 0.64 -0.77 0.04
1 0.97 97 0.273 -9.773 1.801 -0.549 -1.099 0.580 -494.978 -164.893 -3059.957 -0.079 0.129 -0.072 -0.05 0.64 -0.77 0.04
1 0.98 98 0.225 -9.750 1.762 -0.458 -0.885 0.397 -494.978 -164.893 -3059.957 -0.030 0.105 -0.033 -0.05 0.64 -0.77 0.04
1 0.99 99 0.153 -9.754 1.690 -0.214 -1.221 0.854 -434.867 -74.951 -3044.966 0.042 0.110 0.039 -0.05 0.64 -0.77 0.04
1 1.00 100 0.101 -9.615 1.738 -0.854 -1.160 0.732 -434.867 0.000 -3044.966 0.094 -0.029 -0.009 -0.05 0.64 -0.77 0.04
1 1.01 101 0.168 -9.711 1.839 -0.946 -1.007 0.702 -434.867 0.000 -3044.966 0.027 0.067 -0.110 -0.05 0.64 -0.77 0.04
1 1.02 102 0.105 -9.735 1.805 -1.465 -0.732 0.854 -359.916 -149.902 -3014.986 0.090 0.091 -0.075 -0.05 0.64 -0.77 0.04
1 1.03 103 0.230 -9.706 1.700 -0.549 -1.190 0.732 -419.876 -164.893 -3029.976 -0.035 0.062 0.031 -0.05 0.64 -0.77 0.04
1 1.04 104 0.192 -9.836 1.638 -0.336 -1.404 1.617 -434.867 -149.902 -3014.986 0.003 0.192 0.093 -0.05 0.64 -0.77 0.04
1 1.05 105 0.201 -9.778 1.791 -0.183 -1.526 1.831 -434.867 -149.902 -3014.986 -0.007 0.134 -0.060 -0.05 0.64 -0.77 0.04
1 1.06 106 0.283 -9.845 1.767 -0.702 -1.038 1.190 -464.997 -224.854 -3044.966 -0.088 0.201 -0.036 -0.05 0.64 -0.77 0.04
1 1.07 107 0.254 -9.783 1.551 -0.885 -1.160 1.678 -464.997 -104.932 -3044.966 -0.059 0.139 0.180 -0.05 0.64 -0.77 0.04
1 1.08 108 0.192 -9.807 1.829 -0.214 -1.282 1.099 -464.997 -104.932 -3044.966 0.004 0.163 -0.098 -0.05 0.64 -0.77 0.04
1 1.09 109 0.163 -9.759 1.638 -0.275 -1.587 1.007 -359.916 -179.883 -3014.986 0.033 0.115 0.093 -0.05 0.64 -0.77 0.04
1 1.10 110 0.206 -9.735 1.824 -0.214 -2.014 1.801 -419.876 -89.941 -3059.957 -0.010 0.091 -0.093 -0.05 0.64 -0.77 0.04
1 1.11 111 0.086 -9.769 1.815 -0.305 -1.495 0.946 -359.916 -254.984 -3044.966 0.109 0.125 -0.083 -0.05 0.64 -0.77 0.04
1 1.12 112 0.297 -9.682 1.753 0.000 -2.258 0.916 -359.916 -254.984 -3044.966 -0.102 0.039 -0.019 -0.05 0.64 -0.77 0.04
1 1.13 113 0.321 -9.754 1.820 -0.122 -1.587 1.465 -299.955 -164.893 -3104.927 -0.125 0.111 -0.086 -0.05 0.64 -0.77 0.04
1 1.14 114 0.206 -9.821 1.772 -1.160 -0.092 1.038 -449.857 -164.893 -2954.875 -0.010 0.178 -0.037 -0.05 0.64 -0.77 0.04
1 1.15 115 0.144 -9.687 1.623 -1.160 -0.580 0.732 -449.857 -164.893 -2954.875 0.052 0.044 0.111 -0.05 0.64 -0.77 0.04
1 1.16 116 0.235 -9.750 1.848 -0.366 -1.343 0.519 -374.906 -44.971 -3059.957 -0.039 0.106 -0.114 -0.05 0.64 -0.77 0.04
1 1.17 117 0.196 -9.802 1.719 -0.458 -1.099 1.251 -359.916 -74.951 -3074.947 0.000 0.159 0.016 -0.05 0.64 -0.77 0.04
1 1.18 118 0.043 -9.659 1.705 -1.099 -0.397 1.465 -359.916 -74.951 -3074.947 0.154 0.015 0.030 -0.05 0.64 -0.77 0.04
1 1.19 119 0.182 -9.802 1.690 -1.007 -1.282 0.763 -419.876 -119.922 -3134.908 0.015 0.159 0.044 -0.05 0.64 -0.77 0.04
1 1.20 120 0.172 -9.912 1.710 -0.427 -1.160 0.305 -344.925 -119.922 -3059.957 0.024 0.269 0.025 -0.05 0.64 -0.77 0.04
1 1.21 121 0.201 -9.716 1.743 0.916 -1.465 1.007 -389.896 -299.955 -3014.986 -0.004 0.073 -0.009 -0.05 0.64 -0.77 0.04
1 1.22 122 0.230 -9.721 1.662 0.366 -1.434 1.404 -389.896 -299.955 -3014.986 -0.033 0.078 0.073 -0.05 0.64 -0.77 0.04
1 1.23 123 0.292 -9.711 1.824 -0.092 -1.648 1.221 -284.964 -104.932 -2969.865 -0.095 0.068 -0.090 -0.05 0.64 -0.77 0.04
1 1.24 124 0.297 -9.740 1.834 -0.275 -1.801 1.221 -269.974 -164.893 -2984.855 -0.100 0.097 -0.101 -0.05 0.64 -0.77 0.04
1 1.25 125 0.259 -9.778 1.748 -1.099 -1.312 1.068 -269.974 -164.893 -2984.855 -0.060 0.135 -0.014 -0.05 0.64 -0.77 0.04
1 1.26 126 0.144 -9.726 1.868 -1.892 -1.007 0.671 -299.955 -119.922 -2954.875 0.055 0.082 -0.132 -0.05 0.64 -0.77 0.04
1 1.27 127 0.115 -9.726 1.738 -1.465 -2.014 0.763 -299.955 -239.994 -3029.976 0.083 0.083 -0.003 -0.05 0.64 -0.77 0.04
1 1.28 128 0.206 -9.706 1.710 -0.305 -1.923 0.610 -389.896 0.000 -3119.917 -0.008 0.063 0.026 -0.05 0.64 -0.77 0.04
1 1.29 129 0.340 -9.678 1.815 -0.305 -1.587 0.580 -389.896 0.000 -3119.917 -0.142 0.035 -0.079 -0.05 0.64 -0.77 0.04
1 1.30 130 0.187 -9.773 1.786 -0.763 -1.617 1.068 -434.867 -179.883 -3119.917 0.012 0.131 -0.050 -0.05 0.64 -0.77 0.04
1 1.31 131 0.144 -9.783 1.777 -0.671 -1.556 1.099 -359.916 -74.951 -3119.917 0.056 0.140 -0.040 -0.05 0.64 -0.77 0.04
1 1.32 132 0.163 -9.721 1.710 0.000 -1.801 0.977 -359.916 -74.951 -3119.917 0.036 0.078 0.028 -0.05 0.64 -0.77 0.04
1 1.33 133 0.139 -9.702 1.743 -0.122 -2.441 0.641 -419.876 -89.941 -2984.855 0.060 0.059 -0.006 -0.05 0.64 -0.77 0.04
1 1.34 134 0.249 -9.769 1.844 -0.214 -2.228 0.366 -509.968 0.000 -3119.917 -0.050 0.126 -0.106 -0.05 0.64 -0.77 0.04
1 1.35 135 0.125 -9.793 1.796 -1.495 -1.312 0.549 -389.896 -299.955 -3074.947 0.075 0.150 -0.057 -0.05 0.64 -0.77 0.04
1 1.36 136 0.168 -9.879 1.767 -1.099 -1.556 1.160 -389.896 -299.955 -3074.947 0.032 0.236 -0.028 -0.05 0.64 -0.77 0.04
1 1.37 137 0.134 -9.735 1.791 0.092 -2.380 1.221 -434.867 -149.902 -3014.986 0.065 0.093 -0.053 -0.05 0.64 -0.77 0.04
1 1.38 138 0.249 -9.697 1.671 0.214 -2.136 1.404 -374.906 -44.971 -3134.908 -0.050 0.055 0.069 -0.05 0.64 -0.77 0.04
1 1.39 139 0.330 -9.812 1.839 -0.824 -1.892 1.038 -374.906 -44.971 -3134.908 -0.131 0.170 -0.097 -0.05 0.64 -0.77 0.04
1 1.40 140 0.249 -9.773 1.580 -0.458 -0.732 1.190 -329.935 -179.883 -3014.986 -0.048 0.132 0.162 -0.05 0.64 -0.77 0.04
1 1.41 141 0.153 -9.788 1.757 -0.824 -0.275 1.526 -284.964 -299.955 -3074.947 0.048 0.146 -0.015 -0.05 0.64 -0.77 0.04
1 1.42 142 0.148 -9.826 1.786 -0.488 -0.305 1.678 -299.955 -119.922 -3059.957 0.052 0.184 -0.044 -0.05 0.64 -0.77 0.04
1 1.43 143 0.311 -9.692 1.762 -0.641 -0.763 1.648 -299.955 -119.922 -3059.957 -0.111 0.050 -0.021 -0.05 0.64 -0.77 0.04
1 1.44 144 0.263 -9.750 1.690 -0.702 -0.580 1.068 -464.997 -179.883 -3074.947 -0.063 0.108 0.051 -0.05 0.64 -0.77 0.04
1 1.45 145 0.168 -9.659 1.753 -0.122 -0.641 1.404 -494.978 -119.922 -3209.859 0.033 0.017 -0.011 -0.05 0.64 -0.77 0.04
1 1.46 146 0.225 -9.702 1.671 -0.244 -0.458 1.129 -494.978 -119.922 -3209.859 -0.024 0.060 0.069 -0.05 0.64 -0.77 0.04
1 1.47 147 0.172 -9.821 1.796 0.183 -0.641 0.519 -359.916 -74.951 -3074.947 0.029 0.179 -0.054 -0.05 0.64 -0.77 0.04
1 1.48 148 0.144 -9.659 1.748 0.427 -0.702 -0.366 -359.916 -149.902 -3074.947 0.057 0.017 -0.005 -0.05 0.64 -0.77 0.04
1 1.49 149 0.177 -9.750 1.810 -0.153 -0.763 0.305 -434.867 -179.883 -3074.947 0.026 0.108 -0.066 -0.05 0.64 -0.77 0.04
1 1.50 150 0.354 -9.726 1.757 -1.160 -0.397 0.916 -434.867 -179.883 -3074.947 -0.152 0.084 -0.013 -0.05 0.64 -0.77 0.04
1 1.51 151 0.187 -9.893 1.820 -0.610 -0.397 1.068 -254.984 -74.951 -3074.947 0.016 0.252 -0.075 -0.05 0.64 -0.77 0.04
1 1.52 152 0.283 -9.797 1.762 -0.458 -0.732 1.038 -434.867 -74.951 -3119.917 -0.080 0.156 -0.018 -0.05 0.64 -0.77 0.04
1 1.53 153 0.249 -9.831 1.791 -0.427 -0.397 1.129 -434.867 -74.951 -3119.917 -0.046 0.189 -0.048 -0.05 0.64 -0.77 0.04
1 1.54 154 0.244 -9.702 1.686 -0.854 -0.824 1.068 -449.857 -239.994 -3134.908 -0.040 0.060 0.057 -0.05 0.64 -0.77 0.04
1 1.55 155 0.187 -9.750 1.781 -0.244 -1.221 0.977 -389.896 -29.980 -3254.979 0.018 0.108 -0.038 -0.05 0.64 -0.77 0.04
1 1.56 156 0.101 -9.783 1.753 0.061 -0.977 0.793 -329.935 -74.951 -3044.966 0.104 0.142 -0.009 -0.05 0.64 -0.77 0.04
1 1.57 157 0.120 -9.874 1.748 0.763 -1.923 0.519 -329.935 -74.951 -3044.966 0.085 0.232 -0.005 -0.05 0.64 -0.77 0.04
1 1.58 158 0.244 -9.831 1.753 1.099 -2.472 0.275 -434.867 -179.883 -2969.865 -0.039 0.190 -0.008 -0.05 0.64 -0.77 0.04
1 1.59 159 0.306 -9.769 1.824 1.923 -3.479 -0.275 -539.948 -104.932 -3044.966 -0.099 0.128 -0.077 -0.05 0.64 -0.77 0.04
1 1.60 160 0.393 -9.697 1.801 1.282 -2.563 -0.885 -539.948 -104.932 -3044.966 -0.182 0.057 -0.048 -0.05 0.64 -0.77 0.04
1 1.61 161 0.412 -9.702 1.777 0.946 -2.747 -0.397 -344.925 -239.994 -3059.957 -0.197 0.063 -0.021 -0.05 0.64 -0.77 0.04
1 1.62 162 0.364 -9.678 1.858 0.336 -2.014 -1.434 -344.925 -239.994 -3059.957 -0.144 0.039 -0.099 -0.05 0.64 -0.77 0.04
1 1.63 163 0.311 -9.793 1.896 1.617 -3.448 -1.251 -449.857 -89.941 -3029.976 -0.081 0.155 -0.133 -0.05 0.64 -0.77 0.04
1 1.64 164 0.354 -9.726 1.968 2.319 -3.052 -1.556 -449.857 -89.941 -3029.976 -0.119 0.089 -0.200 -0.05 0.64 -0.77 0.04
1 1.65 165 0.369 -9.845 1.944 3.418 -4.334 -2.380 -464.997 -149.902 -3119.917 -0.127 0.210 -0.170 -0.05 0.64 -0.77 0.04
1 1.66 166 0.287 -9.711 2.021 3.967 -4.608 -3.174 -419.876 -164.893 -2984.855 -0.039 0.078 -0.240 -0.05 0.64 -0.77 0.04
1 1.67 167 0.306 -9.754 2.006 4.791 -5.829 -3.235 -419.876 -164.893 -2984.855 -0.050 0.123 -0.217 -0.05 0.64 -0.77 0.04
1 1.68 168 0.431 -9.745 1.930 6.409 -6.348 -4.395 -434.867 -74.951 -3014.986 -0.166 0.115 -0.131 -0.05 0.64 -0.77 0.04
1 1.69 169 0.584 -9.735 1.987 6.287 -7.050 -3.998 -434.867 -74.951 -3014.986 -0.310 0.108 -0.177 -0.05 0.64 -0.77 0.04
1 1.70 170 0.575 -9.635 2.083 3.571 -4.852 -2.930 -434.867 -224.854 -3119.917 -0.280 0.012 -0.251 -0.05 0.64 -0.77 0.04
1 1.71 171 0.431 -9.630 2.035 2.014 -3.235 -1.862 -434.867 -224.854 -3119.917 -0.128 0.009 -0.196 -0.05 0.64 -0.77 0.04
1 1.72 172 0.350 -9.750 1.863 2.502 -3.815 -1.709 -359.916 -179.883 -3074.947 -0.041 0.130 -0.018 -0.05 0.63 -0.77 0.04
1 1.73 173 0.335 -9.807 2.083 5.371 -5.554 -1.282 -434.867 -149.902 -2969.865 -0.021 0.188 -0.232 -0.05 0.63 -0.77 0.04
1 1.74 174 0.479 -9.692 1.987 7.751 -6.348 -0.610 -434.867 -149.902 -2969.865 -0.160 0.076 -0.126 -0.05 0.63 -0.77 0.04
1 1.75 175 0.565 -9.702 2.016 6.928 -6.226 0.366 -374.906 -239.994 -3209.859 -0.242 0.088 -0.142 -0.05 0.63 -0.77 0.04
1 1.76 176 0.599 -9.802 1.911 6.439 -5.829 0.549 -374.906 -239.994 -3209.859 -0.271 0.191 -0.025 -0.06 0.63 -0.77 0.04
1 1.77 177 0.541 -9.812 1.973 9.155 -7.080 1.038 -539.948 -74.951 -3074.947 -0.205 0.206 -0.063 -0.06 0.63 -0.77 0.04
1 1.78 178 0.350 -9.649 2.026 10.132 -8.331 1.862 -539.948 -74.951 -3074.947 -0.011 0.046 -0.101 -0.06 0.63 -0.77 0.04
1 1.79 179 0.450 -9.534 2.016 9.644 -9.430 1.831 -494.978 -314.945 -3209.859 -0.110 -0.066 -0.075 -0.06 0.63 -0.77 0.04
1 1.80 180 0.541 -9.481 1.925 8.118 -8.911 1.556 -269.974 -89.941 -3239.989 -0.198 -0.115 0.031 -0.06 0.63 -0.77 0.04
1 1.81 181 0.613 -9.596 2.136 6.378 -7.050 3.235 -269.974 -89.941 -3239.989 -0.267 0.002 -0.168 -0.06 0.63 -0.77 0.04
1 1.82 182 0.431 -9.706 1.848 6.104 -4.974 4.059 -434.867 -104.932 -3044.966 -0.085 0.115 0.131 -0.06 0.63 -0.77 0.04
1 1.83 183 0.402 -9.659 1.853 6.378 -6.226 4.578 -434.867 -104.932 -3044.966 -0.057 0.069 0.135 -0.06 0.63 -0.77 0.04
1 1.84 184 0.618 -9.754 1.844 7.141 -6.775 4.211 -569.929 -239.994 -3134.908 -0.278 0.168 0.164 -0.06 0.63 -0.77 0.04
1 1.85 185 0.656 -9.793 1.767 6.439 -4.852 4.578 -569.929 -239.994 -3134.908 -0.318 0.209 0.251 -0.06 0.63 -0.78 0.04
1 1.86 186 0.575 -9.884 1.820 6.592 -3.540 4.486 -449.857 -284.964 -3284.960 -0.239 0.301 0.207 -0.06 0.63 -0.78 0.05
1 1.87 187 0.675 -9.817 1.753 6.531 -1.984 4.364 -374.906 -239.994 -3209.859 -0.342 0.236 0.282 -0.06 0.63 -0.78 0.05
1 1.88 188 0.637 -9.821 1.724 7.599 -1.221 3.174 -374.906 -239.994 -3209.859 -0.305 0.243 0.320 -0.06 0.63 -0.78 0.05
1 1.89 189 0.886 -9.788 1.743 6.683 0.916 2.472 -449.857 -239.994 -3209.859 -0.555 0.211 0.311 -0.06 0.63 -0.78 0.05
1 1.90 190 0.795 -9.922 1.767 6.714 2.045 1.160 -449.857 -239.994 -3209.859 -0.463 0.347 0.296 -0.06 0.63 -0.78 0.05
1 1.91 191 0.814 -10.080 1.796 7.141 2.594 0.580 -419.876 -164.893 -3209.859 -0.481 0.507 0.276 -0.06 0.63 -0.78 0.05
1 1.92 192 0.761 -9.817 1.872 8.362 3.845 -0.427 -449.857 -239.994 -3239.989 -0.421 0.248 0.218 -0.06 0.62 -0.78 0.04
1 1.93 193 0.680 -9.769 1.891 6.744 4.089 -0.916 -344.925 -119.922 -3164.888 -0.336 0.203 0.211 -0.06 0.62 -0.78 0.04
1 1.94 194 0.455 -9.721 1.982 5.798 4.211 -1.770 -569.929 -119.922 -3104.927 -0.107 0.157 0.129 -0.06 0.62 -0.78 0.04
1 1.95 195 0.460 -9.778 1.891 5.920 4.822 -2.106 -569.929 -119.922 -3104.927 -0.108 0.217 0.228 -0.06 0.62 -0.78 0.04
1 1.96 196 0.575 -9.735 1.882 6.714 4.456 -0.854 -389.896 -299.955 -3194.869 -0.219 0.176 0.246 -0.06 0.62 -0.78 0.04
1 1.97 197 0.599 -9.668 2.160 6.042 4.761 0.244 -389.896 -299.955 -3194.869 -0.241 0.111 -0.022 -0.06 0.62 -0.78 0.04
1 1.98 198 0.522 -9.644 1.853 5.859 4.425 -0.031 -464.997 -329.935 -3149.898 -0.163 0.089 0.294 -0.06 0.62 -0.78 0.04
1 1.99 199 0.623 -9.654 2.011 7.416 4.181 0.458 -464.997 -254.984 -3224.999 -0.261 0.103 0.154 -0.06 0.62 -0.78 0.04
1 2.00 200 0.541 -9.668 1.911 6.378 5.432 1.160 -359.916 -104.932 -3299.950 -0.178 0.120 0.265 -0.06 0.62 -0.78 0.04
1 2.01 201 0.579 -9.572 1.925 5.280 6.012 1.648 -374.906 -209.863 -3059.957 -0.217 0.026 0.260 -0.06 0.62 -0.78 0.04
1 2.02 202 0.503 -9.491 1.805 3.906 6.134 1.984 -374.906 -209.863 -3059.957 -0.143 -0.054 0.387 -0.06 0.62 -0.78 0.04
1 2.03 203 0.584 -9.544 1.935 3.265 6.256 2.869 -584.919 -254.984 -3254.979 -0.227 -0.000 0.263 -0.05 0.62 -0.78 0.04
1 2.04 204 0.546 -9.568 1.963 2.625 6.989 3.693 -584.919 -254.984 -3254.979 -0.192 0.025 0.238 -0.05 0.62 -0.78 0.04
1 2.05 205 0.306 -9.620 1.901 3.082 7.568 2.502 -434.867 -254.984 -3299.950 0.042 0.078 0.304 -0.05 0.62 -0.78 0.04
1 2.06 206 0.412 -9.558 1.959 2.838 8.148 3.235 -464.997 -299.955 -3119.917 -0.067 0.016 0.251 -0.05 0.62 -0.78 0.04
1 2.07 207 0.278 -9.539 1.796 1.648 8.362 4.334 -434.867 -329.935 -3194.869 0.054 -0.001 0.421 -0.05 0.62 -0.78 0.04
1 2.08 208 0.254 -9.529 1.997 -0.305 9.155 4.211 -374.906 -284.964 -3164.888 0.069 -0.011 0.221 -0.05 0.62 -0.78 0.04
1 2.09 209 0.335 -9.611 1.925 0.641 9.064 4.852 -374.906 -284.964 -3164.888 -0.021 0.070 0.293 -0.05 0.62 -0.78 0.04
1 2.10 210 0.335 -9.697 1.858 1.160 9.674 4.639 -284.964 -224.854 -3254.979 -0.030 0.156 0.361 -0.05 0.62 -0.78 0.04
1 2.11 211 0.225 -9.587 1.820 0.580 10.223 5.066 -284.964 -224.854 -3254.979 0.071 0.046 0.400 -0.05 0.62 -0.78 0.04
1 2.12 212 0.168 -9.510 1.801 -0.336 9.674 6.317 -539.948 -299.955 -3254.979 0.119 -0.031 0.420 -0.05 0.62 -0.78 0.04
1 2.13 213 0.153 -9.572 1.762 -1.556 10.742 6.409 -284.964 -329.935 -3254.979 0.122 0.031 0.458 -0.05 0.62 -0.78 0.04
1 2.14 214 0.091 -9.529 1.729 -3.174 10.895 7.385 -389.896 -299.955 -3149.898 0.158 -0.015 0.482 -0.05 0.62 -0.78 0.04
1 2.15 215 0.192 -9.750 1.714 -2.533 11.322 6.470 -344.925 -239.994 -3164.888 0.043 0.204 0.490 -0.04 0.62 -0.78 0.04
1 2.16 216 0.340 -9.855 1.858 -0.610 11.871 6.378 -344.925 -239.994 -3164.888 -0.118 0.308 0.342 -0.04 0.62 -0.78 0.04
1 2.17 217 0.335 -9.793 1.915 0.793 11.688 6.134 -254.984 -254.984 -3299.950 -0.124 0.245 0.282 -0.04 0.62 -0.78 0.04
1 2.18 218 0.187 -9.630 1.992 -0.580 13.672 6.195 -254.984 -254.984 -3299.950 0.013 0.082 0.206 -0.04 0.62 -0.78 0.04
1 2.19 219 0.062 -9.386 2.064 -3.143 16.022 5.005 -284.964 -254.984 -3149.898 0.126 -0.163 0.133 -0.04 0.62 -0.78 0.03
1 2.20 220 -0.153 -9.333 2.145 -3.662 16.388 3.998 -359.916 -254.984 -3149.898 0.329 -0.217 0.049 -0.04 0.62 -0.78 0.03
1 2.21 221 -0.115 -9.299 2.050 -1.160 14.832 2.808 -194.873 -389.896 -3104.927 0.269 -0.252 0.138 -0.04 0.62 -0.78 0.03
1 2.22 222 -0.115 -9.352 1.925 -0.671 13.550 3.113 -374.906 -119.922 -3314.940 0.259 -0.199 0.263 -0.04 0.62 -0.78 0.03
1 2.23 223 -0.168 -9.524 1.887 0.092 13.092 3.998 -374.906 -119.922 -3314.940 0.302 -0.027 0.300 -0.03 0.62 -0.78 0.03
1 2.24 224 -0.024 -10.037 1.887 1.862 12.054 5.646 -284.964 -224.854 -3194.869 0.146 0.485 0.301 -0.03 0.62 -0.78 0.03
1 2.25 225 -0.067 -10.477 1.925 5.371 11.261 8.392 -284.964 -224.854 -3194.869 0.176 0.926 0.265 -0.03 0.62 -0.78 0.03
1 2.26 226 0.144 -10.453 1.978 9.399 10.773 11.963 -194.873 -314.945 -3284.960 -0.051 0.903 0.220 -0.03 0.62 -0.78 0.03
1 2.27 227 0.125 -10.386 2.069 7.751 13.672 13.947 -299.955 -239.994 -3134.908 -0.052 0.839 0.141 -0.03 0.62 -0.78 0.03
1 2.28 228 -0.182 -10.190 1.786 2.869 18.066 16.022 -224.854 -284.964 -3239.989 0.205 0.646 0.439 -0.03 0.62 -0.78 0.03
1 2.29 229 -0.345 -10.032 1.824 1.495 19.348 17.181 -179.883 -299.955 -3074.947 0.337 0.488 0.402 -0.02 0.62 -0.78 0.03
1 2.30 230 -0.632 -9.855 1.619 1.190 19.623 17.944 -179.883 -299.955 -3074.947 0.590 0.311 0.607 -0.02 0.62 -0.78 0.03
1 2.31 231 -0.723 -9.649 1.484 1.526 18.860 17.029 -104.932 -179.883 -3149.898 0.647 0.105 0.739 -0.02 0.62 -0.78 0.03
1 2.32 232 -0.876 -9.371 1.360 0.031 19.806 16.388 -104.932 -179.883 -3149.898 0.766 -0.173 0.861 -0.02 0.62 -0.78 0.03
1 2.33 233 -1.092 -9.261 1.164 -4.883 18.860 13.977 -179.883 -254.984 -3194.869 0.947 -0.284 1.051 -0.02 0.62 -0.78 0.03
1 2.34 234 -1.365 -9.836 0.972 -4.425 16.388 14.801 -209.863 -254.984 -3299.950 1.187 0.288 1.232 -0.01 0.62 -0.78 0.03
1 2.35 235 -1.302 -9.984 0.996 0.305 12.756 14.679 -209.863 -254.984 -3299.950 1.091 0.434 1.194 -0.01 0.62 -0.78 0.03
1 2.36 236 -1.298 -9.783 1.121 4.913 7.111 16.907 -119.922 -314.945 -3164.888 1.021 0.232 1.054 -0.01 0.62 -0.78 0.03
1 2.37 237 -1.269 -9.529 1.015 3.296 5.707 18.738 -119.922 -314.945 -3164.888 0.958 -0.021 1.160 -0.01 0.62 -0.78 0.03
1 2.38 238 -1.092 -9.769 1.202 -1.373 2.747 19.653 14.990 -284.964 -3209.859 0.745 0.218 0.969 -0 0.62 -0.78 0.03
1 2.39 239 -0.948 -10.104 1.039 -1.099 0.275 21.545 14.990 -284.964 -3209.859 0.567 0.553 1.123 -0 0.62 -0.78 0.03
1 2.40 240 -0.670 -10.128 1.010 3.540 -2.838 23.132 -59.961 -224.854 -3194.869 0.255 0.577 1.144 -0 0.62 -0.78 0.04
1 2.41 241 -0.397 -10.228 1.207 3.845 -1.587 25.086 0.000 -374.906 -3194.869 -0.053 0.678 0.944 -0 0.62 -0.78 0.04
1 2.42 242 -0.287 -9.984 1.006 1.221 -0.244 25.330 0.000 -374.906 -3194.869 -0.198 0.435 1.143 0 0.62 -0.78 0.04
1 2.43 243 -0.417 -9.864 1.212 -4.059 2.319 24.292 -59.961 -254.984 -3224.999 -0.137 0.316 0.923 0 0.63 -0.78 0.04
1 2.44 244 -0.546 -9.697 1.183 -5.005 5.554 23.773 -59.961 -254.984 -3224.999 -0.042 0.147 0.939 0 0.63 -0.78 0.04
1 2.45 245 -0.737 -9.726 1.360 -4.944 5.524 23.834 59.961 -374.906 -3299.950 0.115 0.175 0.748 0.01 0.63 -0.78 0.04
1 2.46 246 -0.996 -9.486 1.274 -3.693 5.646 22.217 59.961 -374.906 -3299.950 0.339 -0.065 0.821 0.01 0.63 -0.78 0.04
1 2.47 247 -0.876 -9.371 1.245 -2.533 3.784 19.806 -29.980 -419.876 -3149.898 0.185 -0.179 0.840 0.01 0.63 -0.78 0.04
1 2.48 248 -0.843 -9.256 1.255 -0.549 3.693 18.677 134.912 -299.955 -3119.917 0.122 -0.294 0.822 0.01 0.63 -0.78 0.04
1 2.49 249 -0.690 -9.208 1.259 -0.580 3.479 18.036 134.912 -299.955 -3119.917 -0.059 -0.341 0.811 0.01 0.63 -0.78 0.05
1 2.50 250 -0.876 -9.295 1.259 1.648 3.967 16.357 0.000 -299.955 -3149.898 0.075 -0.253 0.801 0.02 0.63 -0.78 0.05
1 2.51 251 -0.747 -9.213 1.197 2.197 4.181 14.984 0.000 -299.955 -3149.898 -0.077 -0.333 0.861 0.02 0.63 -0.78 0.05
1 2.52 252 -0.761 -9.175 1.288 -0.305 5.920 12.085 -44.971 -284.964 -3164.888 -0.083 -0.370 0.767 0.02 0.63 -0.78 0.05
1 2.53 253 -0.948 -9.275 1.121 -4.791 7.172 10.620 -44.971 -284.964 -3164.888 0.087 -0.269 0.927 0.02 0.63 -0.78 0.05
1 2.54 254 -0.963 -9.606 0.800 -7.416 8.942 10.010 0.000 -374.906 -3254.979 0.084 0.059 1.234 0.02 0.63 -0.78 0.05
1 2.55 255 -1.269 -9.596 0.838 -6.561 6.836 7.629 14.990 -314.945 -3239.989 0.374 0.047 1.175 0.02 0.63 -0.77 0.05
1 2.56 256 -1.283 -9.544 0.934 -5.402 5.524 6.012 14.990 -314.945 -3239.989 0.374 -0.008 1.060 0.02 0.63 -0.77 0.05
1 2.57 257 -1.513 -9.548 0.771 -5.371 4.150 5.615 104.932 -449.857 -3119.917 0.591 -0.006 1.206 0.02 0.63 -0.77 0.05
1 2.58 258 -1.599 -9.275 0.905 -4.944 1.495 4.730 0.000 -299.955 -3224.999 0.653 -0.283 1.041 0.02 0.63 -0.77 0.05
1 2.59 259 -1.614 -9.323 0.804 -3.937 -1.373 4.150 119.922 -314.945 -3209.859 0.657 -0.236 1.128 0.02 0.63 -0.77 0.05
1 2.60 260 -1.614 -9.132 0.872 -2.380 -3.326 3.845 119.922 -314.945 -3209.859 0.647 -0.429 1.049 0.03 0.63 -0.77 0.05
1 2.61 261 -1.580 -9.122 0.939 -1.862 -4.852 3.967 89.941 -359.916 -3164.888 0.605 -0.440 0.973 0.03 0.63 -0.77 0.05
1 2.62 262 -1.623 -9.132 0.895 -2.380 -6.989 2.411 104.932 -419.876 -3194.869 0.641 -0.431 1.009 0.03 0.63 -0.77 0.05
1 2.63 263 -1.801 -9.395 0.776 1.984 -11.597 1.038 104.932 -419.876 -3194.869 0.813 -0.169 1.121 0.03 0.63 -0.77 0.05
1 2.64 264 -1.810 -9.539 0.881 5.371 -15.564 -0.092 104.932 -254.984 -3149.898 0.819 -0.025 1.012 0.03 0.63 -0.77 0.05
1 2.65 265 -1.801 -9.295 0.872 8.362 -20.905 -0.732 179.883 -329.935 -3149.898 0.809 -0.268 1.031 0.02 0.63 -0.77 0.05
1 2.66 266 -1.719 -9.208 1.101 6.256 -23.560 -0.244 59.961 -299.955 -3149.898 0.730 -0.352 0.810 0.02 0.63 -0.77 0.05
1 2.67 267 -1.542 -9.659 1.274 4.547 -25.269 0.946 59.961 -299.955 -3149.898 0.555 0.099 0.645 0.02 0.63 -0.77 0.05
1 2.68 268 -1.360 -10.018 1.164 5.859 -25.024 3.601 0.000 -329.935 -3074.947 0.375 0.459 0.761 0.02 0.63 -0.77 0.05
1 2.69 269 -1.082 -10.353 1.077 8.423 -26.550 6.653 119.922 -239.994 -3029.976 0.096 0.796 0.856 0.02 0.63 -0.77 0.05
1 2.70 270 -0.603 -10.530 1.360 9.979 -25.513 7.599 119.922 -239.994 -3029.976 -0.384 0.976 0.584 0.02 0.63 -0.77 0.05
1 2.71 271 -0.642 -10.583 1.393 7.782 -21.210 8.514 14.990 -314.945 -3104.927 -0.347 1.031 0.562 0.02 0.63 -0.77 0.06
1 2.72 272 -0.986 -10.789 1.532 3.662 -14.008 7.385 0.000 -329.935 -3149.898 -0.005 1.241 0.441 0.02 0.63 -0.77 0.06
1 2.73 273 -1.159 -10.923 1.240 3.204 -12.665 6.287 0.000 -374.906 -3329.931 0.162 1.377 0.742 0.02 0.63 -0.77 0.06
1 2.74 274 -1.777 -11.387 0.991 5.371 -11.627 3.937 0.000 -374.906 -3329.931 0.778 1.844 1.000 0.02 0.63 -0.77 0.06
1 2.75 275 -1.987 -11.526 0.761 8.759 -14.648 1.678 29.980 -224.854 -3224.999 0.988 1.985 1.242 0.02 0.63 -0.77 0.06
1 2.76 276 -1.805 -11.584 0.441 9.918 -18.616 -0.031 -59.961 -299.955 -3329.931 0.811 2.046 1.580 0.02 0.63 -0.77 0.06
1 2.77 277 -1.690 -11.258 0.340 8.606 -21.545 1.862 -59.961 -299.955 -3329.931 0.704 1.723 1.700 0.02 0.63 -0.77 0.06
1 2.78 278 -1.518 -11.181 0.656 0.763 -23.499 4.822 -29.980 -419.876 -3074.947 0.538 1.650 1.402 0.01 0.63 -0.78 0.06
1 2.79 279 -1.475 -12.594 2.112 -1.526 -25.696 10.071 -119.922 -509.968 -3209.859 0.497 3.064 -0.045 0.01 0.63 -0.78 0.06
1 2.80 280 0.215 -14.902 2.485 13.977 -34.485 29.877 -59.961 -374.906 -3224.999 -1.215 5.378 -0.405 0.01 0.63 -0.78 0.07
1 2.81 281 0.120 -9.165 0.766 19.165 -24.048 24.292 -59.961 -374.906 -3224.999 -1.150 -0.349 1.346 0.01 0.63 -0.78 0.07
1 2.82 282 0.019 -8.188 0.819 -18.158 -16.602 18.616 -29.980 -494.978 -3119.917 -1.071 -1.319 1.311 0.01 0.63 -0.78 0.07
1 2.83 283 -0.297 -11.560 1.465 -52.246 -2.655 18.219 -89.941 -359.916 -3239.989 -0.776 2.045 0.625 0.01 0.63 -0.78 0.07
1 2.84 284 -2.231 -13.494 -0.455 -14.435 -10.742 12.085 -89.941 -359.916 -3239.989 1.138 3.966 2.470 0.01 0.63 -0.77 0.07
1 2.85 285 -2.648 -11.397 0.939 8.484 -28.381 0.153 -89.941 -434.867 -3209.859 1.537 1.864 1.043 0.01 0.63 -0.77 0.07
1 2.86 286 -2.595 -10.726 2.576 -4.608 -32.593 -8.148 0.000 -374.906 -3194.869 1.488 1.196 -0.582 0.01 0.63 -0.77 0.08
1 2.87 287 -2.792 -11.296 2.476 -18.768 -33.295 -11.047 -89.941 -464.997 -3164.888 1.730 1.758 -0.493 0.01 0.63 -0.77 0.08
1 2.88 288 -2.835 -10.104 1.882 -10.590 -42.236 -12.817 -89.941 -464.997 -3164.888 1.802 0.559 0.083 0.01 0.63 -0.77 0.08
1 2.89 289 -2.729 -8.873 2.030 -7.324 -54.077 -17.273 -194.873 -389.896 -3104.927 1.725 -0.676 -0.072 0 0.63 -0.77 0.08
1 2.90 290 -2.615 -8.734 2.452 -10.284 -62.958 -19.623 -134.912 -449.857 -3074.947 1.641 -0.819 -0.495 -0 0.63 -0.77 0.08
1 2.91 291 -2.519 -8.744 2.682 -12.909 -65.247 -15.961 -134.912 -449.857 -3074.947 1.581 -0.813 -0.727 -0.01 0.63 -0.77 0.08
1 2.92 292 -2.471 -7.844 2.777 -8.087 -75.379 -4.791 -164.893 -389.896 -3239.989 1.563 -1.717 -0.824 -0.01 0.63 -0.77 0.08
1 2.93 293 -2.069 -7.441 3.251 -4.303 -84.259 3.265 -224.854 -434.867 -3104.927 1.180 -2.120 -1.294 -0.01 0.63 -0.77 0.09
1 2.94 294 -1.164 -7.121 3.735 -4.395 -83.527 11.536 -224.854 -434.867 -3104.927 0.299 -2.442 -1.773 -0.02 0.63 -0.77 0.09
1 2.95 295 -0.014 -8.184 3.496 -9.949 -72.693 22.858 -434.867 -329.935 -3074.947 -0.838 -1.379 -1.527 -0.03 0.63 -0.77 0.1
1 2.96 296 0.584 -8.993 3.237 -8.392 -67.963 25.879 -374.906 -509.968 -3164.888 -1.446 -0.568 -1.266 -0.03 0.63 -0.77 0.1
1 2.97 297 1.235 -9.539 3.180 -2.045 -62.042 26.795 -344.925 -509.968 -3164.888 -2.105 -0.019 -1.197 -0.03 0.63 -0.77 0.11
1 2.98 298 1.695 -9.448 3.055 -0.336 -51.880 26.001 -344.925 -509.968 -3164.888 -2.570 -0.106 -1.056 -0.03 0.63 -0.77 0.11
1 2.99 299 1.628 -8.615 3.060 -9.705 -36.255 15.961 -359.916 -374.906 -3149.898 -2.505 -0.936 -1.046 -0.04 0.63 -0.77 0.11
1 3.00 300 1.135 -8.648 2.940 -17.365 -27.985 5.646 -389.896 -374.906 -3119.917 -2.006 -0.902 -0.922 -0.04 0.63 -0.77 0.12
1 3.01 301 0.570 -8.888 2.686 -19.898 -23.163 -4.059 -389.896 -374.906 -3119.917 -1.425 -0.666 -0.677 -0.04 0.63 -0.77 0.12
1 3.02 302 0.254 -9.127 2.452 -19.470 -22.827 -16.602 -599.909 -314.945 -3059.957 -1.051 -0.439 -0.478 -0.04 0.63 -0.77 0.12
1 3.03 303 0.417 -9.146 2.442 -18.280 -21.240 -19.714 -509.968 -329.935 -3044.966 -1.172 -0.427 -0.487 -0.05 0.63 -0.77 0.12
1 3.04 304 0.321 -9.438 2.366 -18.860 -17.578 -20.233 -494.978 -314.945 -3239.989 -1.031 -0.142 -0.430 -0.05 0.63 -0.77 0.12
1 3.05 305 0.220 -9.505 2.418 -18.158 -17.029 -21.240 -494.978 -314.945 -3239.989 -0.886 -0.083 -0.503 -0.05 0.63 -0.76 0.12
1 3.06 306 0.527 -9.544 2.480 -14.587 -20.386 -21.759 -524.958 -314.945 -3029.976 -1.149 -0.051 -0.583 -0.05 0.63 -0.76 0.11
1 3.07 307 0.934 -9.275 2.729 -5.554 -20.203 -21.545 -659.870 -449.857 -2969.865 -1.508 -0.324 -0.843 -0.06 0.63 -0.76 0.11
1 3.08 308 1.164 -8.998 2.849 -4.150 -17.853 -21.729 -659.870 -449.857 -2969.865 -1.689 -0.605 -0.964 -0.06 0.63 -0.76 0.11
1 3.09 309 1.221 -8.835 2.749 -4.730 -14.313 -22.675 -629.890 -239.994 -3029.976 -1.645 -0.771 -0.856 -0.06 0.63 -0.76 0.11
1 3.10 310 0.967 -8.801 2.825 -4.150 -12.116 -23.346 -690.000 -329.935 -3044.966 -1.340 -0.806 -0.930 -0.07 0.63 -0.76 0.11
1 3.11 311 0.790 -8.897 2.725 -2.716 -10.620 -25.024 -854.893 -464.997 -3059.957 -1.113 -0.712 -0.826 -0.07 0.63 -0.77 0.11
1 3.12 312 0.527 -8.892 2.715 -3.601 -9.430 -24.780 -854.893 -464.997 -3059.957 -0.800 -0.717 -0.811 -0.07 0.63 -0.77 0.11
1 3.13 313 0.335 -8.878 2.672 -4.028 -8.545 -24.933 -614.899 -299.955 -3119.917 -0.561 -0.732 -0.764 -0.07 0.63 -0.77 0.11
1 3.14 314 0.144 -8.696 2.452 -0.641 -6.989 -22.705 -749.961 -284.964 -3059.957 -0.325 -0.914 -0.539 -0.07 0.63 -0.77 0.1
1 3.15 315 0.182 -8.811 2.322 -0.702 -6.165 -21.179 -749.961 -284.964 -3059.957 -0.322 -0.798 -0.404 -0.07 0.63 -0.77 0.1
1 3.16 316 -0.005 -8.691 2.102 0.641 -5.615 -18.127 -794.932 -374.906 -3014.986 -0.066 -0.917 -0.175 -0.08 0.63 -0.77 0.1
1 3.17 317 0.019 -8.854 1.997 1.190 -5.829 -18.036 -704.991 -389.896 -2909.904 -0.060 -0.753 -0.064 -0.08 0.63 -0.77 0.1
1 3.18 318 0.421 -9.285 2.208 4.852 -4.425 -14.374 -869.883 -329.935 -2939.885 -0.434 -0.321 -0.267 -0.08 0.63 -0.77 0.1
1 3.19 319 0.522 -9.457 2.198 8.575 -1.984 -11.719 -869.883 -329.935 -2939.885 -0.509 -0.146 -0.246 -0.08 0.63 -0.77 0.1
1 3.20 320 0.623 -9.223 2.251 10.925 2.075 -13.245 -869.883 -449.857 -2939.885 -0.588 -0.377 -0.281 -0.08 0.63 -0.77 0.1
1 3.21 321 0.527 -9.467 2.174 16.205 0.854 -7.324 -824.913 -314.945 -3134.908 -0.464 -0.129 -0.185 -0.08 0.63 -0.77 0.1
1 3.22 322 0.800 -9.534 2.093 12.543 -3.052 -9.460 -824.913 -314.945 -3134.908 -0.718 -0.057 -0.079 -0.08 0.62 -0.77 0.1
1 3.23 323 0.891 -9.639 2.064 12.726 -1.526 -8.637 -839.903 -419.876 -3044.966 -0.790 0.054 -0.029 -0.08 0.62 -0.77 0.09
1 3.24 324 0.958 -9.759 1.733 12.299 1.465 -7.141 -764.952 -449.857 -2969.865 -0.818 0.182 0.341 -0.08 0.62 -0.77 0.09
1 3.25 325 0.852 -9.165 1.671 11.566 3.876 -7.172 -914.854 -419.876 -3014.986 -0.696 -0.408 0.421 -0.08 0.62 -0.77 0.09
1 3.26 326 0.804 -9.242 1.489 6.592 5.585 -7.019 -914.854 -419.876 -3014.986 -0.632 -0.328 0.616 -0.09 0.62 -0.77 0.09
1 3.27 327 0.915 -9.208 1.288 3.326 6.378 -5.707 -929.994 -434.867 -2984.855 -0.728 -0.359 0.824 -0.09 0.62 -0.77 0.09
1 3.28 328 0.972 -8.868 1.101 2.472 8.637 -4.211 -989.955 -374.906 -3119.917 -0.772 -0.699 1.012 -0.09 0.62 -0.77 0.09
1 3.29 329 0.795 -8.500 1.039 -1.373 10.376 -2.930 -989.955 -374.906 -3119.917 -0.584 -1.067 1.074 -0.09 0.62 -0.77 0.09
1 3.30 330 0.742 -8.150 0.991 -8.514 13.428 -1.404 -899.864 -464.997 -2879.924 -0.523 -1.418 1.117 -0.09 0.62 -0.77 0.09
1 3.31 331 0.575 -8.131 0.728 -21.362 20.447 0.061 -899.864 -539.948 -3104.927 -0.359 -1.443 1.353 -0.08 0.62 -0.77 0.09
1 3.32 332 0.273 -8.399 0.618 -23.224 24.536 1.160 -839.903 -419.876 -2939.885 -0.064 -1.182 1.432 -0.08 0.62 -0.77 0.09
1 3.33 333 0.062 -8.964 0.694 -21.149 24.078 0.793 -839.903 -419.876 -2939.885 0.139 -0.624 1.324 -0.08 0.62 -0.77 0.09
1 3.34 334 -0.081 -9.587 1.173 -15.808 21.240 -0.183 -914.854 -449.857 -3014.986 0.276 -0.008 0.813 -0.08 0.63 -0.77 0.08
1 3.35 335 -0.024 -10.276 1.542 -8.331 16.602 -0.397 -974.965 -284.964 -3029.976 0.213 0.676 0.419 -0.08 0.63 -0.77 0.08
1 3.36 336 0.096 -10.324 2.016 4.272 3.815 2.441 -974.965 -284.964 -3029.976 0.088 0.722 -0.066 -0.08 0.63 -0.77 0.08
1 3.37 337 0.599 -10.118 2.064 5.859 -1.129 4.272 -869.883 -419.876 -3014.986 -0.421 0.516 -0.112 -0.08 0.63 -0.77 0.08
1 3.38 338 1.475 -9.726 1.360 2.594 1.862 9.369 -869.883 -524.958 -2969.865 -1.306 0.127 0.609 -0.08 0.63 -0.77 0.08
1 3.39 339 1.647 -9.702 1.255 0.854 7.385 10.620 -869.883 -449.857 -3119.917 -1.484 0.103 0.715 -0.08 0.63 -0.77 0.08
1 3.40 340 1.365 -10.425 0.297 -12.726 25.452 12.360 -869.883 -449.857 -3119.917 -1.213 0.823 1.660 -0.08 0.63 -0.77 0.08
1 3.41 341 1.068 -11.335 -0.407 -14.740 33.020 13.428 -824.913 -389.896 -2879.924 -0.932 1.727 2.333 -0.08 0.63 -0.77 0.08
1 3.42 342 0.819 -11.751 -0.814 -12.634 34.454 11.627 -899.864 -209.863 -2909.904 -0.712 2.139 2.722 -0.07 0.63 -0.77 0.08
1 3.43 343 1.398 -11.497 -0.723 -15.167 32.562 1.526 -899.864 -209.863 -2909.904 -1.315 1.882 2.614 -0.07 0.63 -0.77 0.08
1 3.44 344 1.959 -13.082 2.409 -26.123 36.194 -11.047 -764.952 -374.906 -2864.934 -1.889 3.463 -0.537 -0.07 0.63 -0.77 0.08
1 3.45 345 1.585 -17.478 5.133 -47.699 61.768 -32.715 -764.952 -374.906 -2864.934 -1.513 7.853 -3.294 -0.07 0.63 -0.77 0.08
1 3.46 346 -1.671 -13.379 0.814 21.698 17.456 -35.523 -674.860 -314.945 -2984.855 1.806 3.737 0.934 -0.07 0.64 -0.76 0.07
1 3.47 347 -0.613 -10.956 2.806 -2.045 10.223 -43.091 -674.860 -314.945 -2984.855 0.804 1.321 -1.026 -0.07 0.64 -0.77 0.06
1 3.48 348 -0.905 -12.838 0.991 -39.703 34.271 -36.163 -749.961 -464.997 -3059.957 1.155 3.201 0.769 -0.07 0.64 -0.77 0.06
1 3.49 349 -1.025 -14.275 -0.460 -9.247 22.186 -22.583 -779.942 -359.916 -2849.943 1.316 4.630 2.171 -0.07 0.64 -0.76 0.06
1 3.50 350 0.905 -12.508 0.651 18.219 14.374 -10.407 -779.942 -359.916 -2849.943 -0.589 2.864 1.063 -0.07 0.64 -0.76 0.06
1 3.51 351 1.714 -11.277 1.652 -16.693 39.551 3.448 -869.883 -524.958 -2894.914 -1.390 1.638 0.087 -0.07 0.64 -0.77 0.05
1 3.52 352 1.326 -11.708 1.240 -28.076 46.417 9.491 -869.883 -524.958 -2894.914 -1.012 2.067 0.488 -0.07 0.64 -0.77 0.05
1 3.53 353 0.872 -10.645 1.350 1.770 35.706 10.132 -704.991 -434.867 -2954.875 -0.605 0.992 0.320 -0.06 0.64 -0.76 0.05
1 3.54 354 0.670 -9.319 1.805 13.062 34.668 9.216 -704.991 -434.867 -2954.875 -0.424 -0.333 -0.126 -0.06 0.64 -0.76 0.05
1 3.55 355 0.833 -8.797 2.361 5.585 39.337 8.118 -869.883 -299.955 -2819.963 -0.605 -0.852 -0.661 -0.06 0.64 -0.76 0.05
1 3.56 356 0.915 -9.299 2.959 -0.671 42.847 5.402 -704.991 -389.896 -2774.992 -0.702 -0.347 -1.247 -0.05 0.64 -0.76 0.05
1 3.57 357 1.015 -9.256 3.405 6.256 43.884 5.341 -704.991 -389.896 -2774.992 -0.815 -0.389 -1.680 -0.05 0.64 -0.77 0.05
1 3.58 358 0.661 -8.208 3.783 15.747 47.028 6.836 -614.899 -254.984 -2819.963 -0.473 -1.432 -2.030 -0.05 0.64 -0.77 0.04
1 3.59 359 0.053 -7.327 3.721 11.078 48.950 9.766 -614.899 -254.984 -2819.963 0.119 -2.307 -1.928 -0.05 0.64 -0.77 0.04
1 3.60 360 -0.551 -7.082 2.907 2.228 46.173 4.547 -674.860 -284.964 -2909.904 0.676 -2.544 -1.073 -0.04 0.64 -0.77 0.04
1 3.61 361 -0.402 -7.188 2.615 0.244 44.525 3.632 -674.860 -284.964 -2909.904 0.510 -2.438 -0.777 -0.04 0.64 -0.77 0.04
1 3.62 362 -0.057 -8.030 2.351 -0.610 41.382 -4.334 -509.968 -419.876 -2789.982 0.154 -1.595 -0.514 -0.04 0.64 -0.77 0.04
1 3.63 363 0.187 -8.888 2.394 3.387 40.405 -5.676 -524.958 -464.997 -2594.959 -0.093 -0.738 -0.555 -0.03 0.64 -0.77 0.03
1 3.64 364 -0.091 -9.213 2.524 3.082 40.894 -4.272 -524.958 -464.997 -2594.959 0.183 -0.410 -0.672 -0.03 0.64 -0.77 0.03
1 3.65 365 -0.599 -9.304 2.447 -6.104 38.147 -4.700 -524.958 -464.997 -2774.992 0.686 -0.317 -0.586 -0.03 0.64 -0.77 0.03
1 3.66 366 -0.670 -9.524 2.720 -9.522 36.163 -1.678 -524.958 -464.997 -2774.992 0.753 -0.097 -0.858 -0.03 0.64 -0.77 0.03
1 3.67 367 -1.140 -9.405 2.524 -5.127 35.492 1.953 -569.929 -434.867 -2909.904 1.212 -0.218 -0.669 -0.03 0.64 -0.77 0.03
1 3.68 368 -1.580 -9.055 2.701 -4.364 27.313 4.974 -524.958 -314.945 -2879.924 1.613 -0.567 -0.845 -0.02 0.64 -0.77 0.02
1 3.69 369 -1.796 -9.103 2.729 -9.369 25.208 8.240 -374.906 -389.896 -2699.891 1.804 -0.520 -0.874 -0.02 0.64 -0.77 0.02
1 3.70 370 -1.891 -9.309 2.562 -12.268 23.468 14.130 -464.997 -419.876 -2789.982 1.866 -0.315 -0.714 -0.02 0.64 -0.77 0.02
1 3.71 371 -1.997 -9.395 2.389 -9.399 17.670 17.090 -464.997 -419.876 -2789.982 1.930 -0.231 -0.552 -0.02 0.64 -0.77 0.02
1 3.72 372 -1.839 -9.390 2.600 -3.906 9.827 23.438 -494.978 -464.997 -2774.992 1.727 -0.236 -0.768 -0.01 0.64 -0.77 0.02
1 3.73 373 -1.676 -9.199 2.720 -5.249 10.010 26.611 -494.978 -464.997 -2774.992 1.515 -0.427 -0.887 -0.01 0.64 -0.77 0.03
1 3.74 374 -1.566 -9.165 2.581 -6.256 8.759 29.663 -299.955 -434.867 -2699.891 1.353 -0.459 -0.748 -0.01 0.64 -0.77 0.03
1 3.75 375 -1.446 -8.912 2.423 -6.104 4.334 31.067 -299.955 -359.916 -2699.891 1.124 -0.711 -0.595 -0 0.64 -0.77 0.03
1 3.76 376 -1.389 -8.825 2.409 -7.233 1.038 29.785 -284.964 -524.958 -2819.963 1.012 -0.796 -0.583 -0 0.64 -0.77 0.03
1 3.77 377 -1.408 -8.787 2.418 -6.348 -1.312 29.053 -299.955 -314.945 -2849.943 0.981 -0.833 -0.596 -0 0.64 -0.77 0.04
1 3.78 378 -1.279 -8.495 2.404 -7.935 -3.113 26.947 -299.955 -314.945 -2849.943 0.804 -1.123 -0.584 0 0.64 -0.77 0.04
1 3.79 379 -1.379 -8.490 2.193 -6.348 -4.669 23.865 -209.863 -494.978 -2609.950 0.862 -1.126 -0.378 0 0.64 -0.77 0.04
1 3.80 380 -1.346 -8.447 2.107 -5.768 -6.348 23.010 -209.863 -494.978 -2609.950 0.790 -1.168 -0.296 0 0.64 -0.77 0.04
1 3.81 381 -1.614 -8.414 1.973 -5.096 -8.362 21.515 -179.883 -449.857 -2894.914 1.024 -1.201 -0.167 0 0.64 -0.77 0.04
1 3.82 382 -1.566 -8.303 1.801 -2.472 -13.825 18.036 -344.925 -434.867 -2669.911 0.923 -1.309 -0.004 0 0.64 -0.77 0.05
1 3.83 383 -1.494 -8.576 1.872 -0.305 -17.487 16.388 -284.964 -299.955 -2564.979 0.831 -1.035 -0.077 0 0.64 -0.77 0.05
1 3.84 384 -1.379 -8.548 1.930 2.808 -20.081 15.442 -209.863 -449.857 -2894.914 0.695 -1.061 -0.130 0 0.64 -0.77 0.05
1 3.85 385 -1.403 -8.639 1.992 3.204 -22.400 13.641 -209.863 -449.857 -2894.914 0.698 -0.967 -0.182 0 0.64 -0.77 0.05
1 3.86 386 -1.293 -8.524 1.877 4.395 -24.750 11.963 -254.984 -494.978 -2684.901 0.570 -1.078 -0.056 0 0.64 -0.77 0.05
1 3.87 387 -1.269 -8.792 2.016 6.592 -27.618 10.742 -254.984 -494.978 -2684.901 0.535 -0.807 -0.183 0 0.64 -0.77 0.06
1 3.88 388 -1.269 -8.821 1.992 7.294 -28.870 10.132 -329.935 -329.935 -2684.901 0.523 -0.775 -0.144 0 0.64 -0.77 0.06
1 3.89 389 -1.283 -8.902 1.796 6.287 -29.327 9.644 -344.925 -389.896 -2774.992 0.527 -0.689 0.069 0 0.64 -0.77 0.06
1 3.90 390 -1.039 -8.409 1.710 3.113 -28.961 7.599 -389.896 -494.978 -2759.852 0.268 -1.175 0.185 -0 0.64 -0.77 0.06
1 3.91 391 -0.963 -8.581 1.341 -1.984 -29.144 4.639 -359.916 -569.929 -2789.982 0.189 -1.001 0.561 -0 0.63 -0.77 0.07
1 3.92 392 -0.881 -8.663 1.183 -5.402 -29.175 2.655 -359.916 -569.929 -2789.982 0.111 -0.920 0.720 -0 0.63 -0.77 0.07
1 3.93 393 -0.919 -8.715 1.197 -6.470 -29.175 -0.061 -539.948 -494.978 -2759.852 0.156 -0.869 0.701 -0.01 0.63 -0.77 0.07
1 3.94 394 -0.924 -8.505 0.895 -7.568 -27.802 -5.707 -539.948 -494.978 -2759.852 0.170 -1.082 0.994 -0.01 0.64 -0.77 0.07
1 3.95 395 -0.958 -7.896 0.536 -13.458 -29.907 -10.681 -374.906 -509.968 -2774.992 0.219 -1.693 1.345 -0.01 0.64 -0.77 0.07
1 3.96 396 -1.010 -7.973 0.206 -22.614 -31.036 -13.672 -389.896 -524.958 -2639.930 0.295 -1.621 1.663 -0.01 0.64 -0.77 0.07
1 3.97 397 -1.030 -8.854 0.043 -29.968 -30.121 -16.205 -524.958 -464.997 -2849.943 0.375 -0.756 1.763 -0.02 0.64 -0.77 0.07
1 3.98 398 -1.173 -10.037 -0.211 -27.680 -31.830 -16.937 -434.867 -524.958 -2639.930 0.550 0.416 1.971 -0.02 0.64 -0.76 0.07
1 3.99 399 -1.446 -11.086 0.014 -18.463 -35.675 -17.761 -434.867 -524.958 -2639.930 0.855 1.455 1.699 -0.02 0.64 -0.76 0.08
1 4.00 400 -1.269 -11.775 0.642 -5.219 -40.161 -15.808 -374.906 -359.916 -2549.989 0.711 2.138 1.046 -0.03 0.64 -0.76 0.08
1 4.01 401 -0.910 -12.134 1.207 4.059 -40.772 -10.223 -374.906 -359.916 -2549.989 0.385 2.495 0.481 -0.03 0.64 -0.76 0.08
1 4.02 402 0.302 -11.550 2.260 3.143 -33.356 -1.251 -509.968 -449.857 -2639.930 -0.802 1.912 -0.560 -0.03 0.64 -0.76 0.08
1 4.03 403 0.575 -11.430 2.897 -2.563 -17.334 4.913 -464.997 -329.935 -2684.901 -1.060 1.793 -1.187 -0.03 0.64 -0.76 0.08
1 4.04 404 0.067 -10.406 1.710 -14.832 2.594 10.437 -494.978 -389.896 -2699.891 -0.560 0.767 -0.008 -0.04 0.64 -0.76 0.08
1 4.05 405 -0.254 -10.248 1.073 -23.743 4.150 8.087 -614.899 -329.935 -2759.852 -0.252 0.605 0.604 -0.04 0.64 -0.76 0.08
1 4.06 406 -0.101 -10.075 -1.001 -30.121 -3.693 0.458 -614.899 -329.935 -2759.852 -0.412 0.426 2.633 -0.04 0.64 -0.76 0.08
1 4.07 407 0.306 -10.798 -1.657 -27.344 -9.918 -9.918 -599.909 -434.867 -2699.891 -0.811 1.138 3.229 -0.04 0.65 -0.76 0.08
1 4.08 408 0.306 -11.909 -0.929 -14.526 -6.592 -10.803 -599.909 -434.867 -2699.891 -0.789 2.241 2.455 -0.04 0.65 -0.76 0.08
1 4.09 409 1.058 -22.061 2.006 18.127 -39.551 21.515 -659.870 -419.876 -2534.999 -1.525 12.390 -0.492 -0.04 0.65 -0.76 0.08
1 4.10 410 0.661 -13.901 2.485 55.451 -4.272 39.948 -599.909 -314.945 -2594.959 -1.137 4.235 -0.947 -0.04 0.65 -0.76 0.08
1 4.11 411 -1.212 -7.312 0.627 31.372 11.475 40.436 -599.909 -314.945 -2594.959 0.685 -2.341 0.977 -0.04 0.65 -0.76 0.09
1 4.12 412 -0.651 -12.905 2.509 -86.792 2.411 36.194 -704.991 -359.916 -2624.940 0.012 3.259 -0.900 -0.04 0.65 -0.76 0.09
1 4.13 413 -2.811 -14.461 1.058 -55.451 30.487 41.718 -704.991 -359.916 -2624.940 2.113 4.800 0.428 -0.03 0.65 -0.75 0.09
1 4.14 414 -5.234 -12.939 0.359 1.160 -0.305 23.285 -509.968 -374.906 -2609.950 4.474 3.273 1.066 -0.03 0.65 -0.75 0.09
1 4.15 415 -4.195 -11.852 2.136 29.511 -53.620 3.632 -509.968 -374.906 -2609.950 3.414 2.190 -0.692 -0.03 0.65 -0.75 0.1
1 4.16 416 -2.140 -8.543 3.338 15.686 -47.943 0.641 -704.991 -314.945 -2624.940 1.370 -1.112 -1.841 -0.03 0.65 -0.75 0.1
1 4.17 417 -2.639 -7.063 3.007 -9.857 -38.269 -0.763 -629.890 -239.994 -2729.872 1.874 -2.585 -1.466 -0.04 0.65 -0.75 0.1
1 4.18 418 -3.036 -6.886 2.524 -24.841 -45.288 -3.571 -629.890 -239.994 -2729.872 2.277 -2.761 -0.975 -0.04 0.65 -0.75 0.1
1 4.19 419 -2.188 -8.064 2.615 -3.021 -63.629 10.101 -524.958 -239.994 -2519.858 1.458 -1.593 -1.113 -0.04 0.65 -0.75 0.11
1 4.20 420 -1.231 -8.452 2.624 21.332 -70.160 22.125 -524.958 -239.994 -2519.858 0.497 -1.202 -1.108 -0.05 0.65 -0.75 0.11
1 4.21 421 -0.072 -8.940 3.089 34.577 -73.944 27.985 -524.958 -314.945 -2594.959 -0.685 -0.703 -1.516 -0.05 0.65 -0.75 0.12
1 4.22 422 1.087 -9.620 3.682 34.302 -67.566 34.027 -524.958 -314.945 -2594.959 -1.866 -0.009 -2.037 -0.05 0.64 -0.75 0.12
1 4.23 423 1.978 -9.520 3.572 16.571 -35.553 42.206 -674.860 -359.916 -2519.858 -2.779 -0.095 -1.856 -0.05 0.64 -0.76 0.13
1 4.24 424 1.518 -9.333 3.175 2.380 -15.320 40.253 -734.971 -329.935 -2684.901 -2.349 -0.270 -1.407 -0.05 0.64 -0.76 0.13
1 4.25 425 1.106 -9.405 2.902 -7.599 -6.073 30.945 -734.971 -329.935 -2684.901 -1.970 -0.191 -1.109 -0.05 0.64 -0.76 0.13
1 4.26 426 0.575 -9.529 2.634 -10.834 -3.174 10.071 -674.860 -389.896 -2519.858 -1.482 -0.063 -0.842 -0.05 0.64 -0.76 0.14
1 4.27 427 0.249 -9.381 2.528 -13.336 -1.404 -3.937 -674.860 -389.896 -2519.858 -1.152 -0.213 -0.745 -0.05 0.64 -0.76 0.14
1 4.28 428 -0.014 -9.132 2.136 -14.771 -1.556 -18.951 -629.890 -359.916 -2594.959 -0.869 -0.467 -0.366 -0.05 0.64 -0.76 0.14
1 4.29 429 -0.005 -9.362 1.801 -14.191 -3.265 -33.173 -629.890 -359.916 -2594.959 -0.838 -0.243 -0.048 -0.06 0.64 -0.76 0.13
1 4.30 430 0.005 -9.730 1.815 -12.268 -3.387 -42.542 -690.000 -299.955 -2504.868 -0.786 0.117 -0.079 -0.06 0.64 -0.76 0.13
1 4.31 431 -0.292 -9.850 1.585 -11.780 -1.404 -43.671 -764.952 -374.906 -2534.999 -0.417 0.228 0.136 -0.06 0.64 -0.76 0.13
1 4.32 432 -0.560 -9.845 1.470 -10.986 -3.693 -43.152 -764.952 -374.906 -2534.999 -0.077 0.216 0.235 -0.06 0.64 -0.76 0.13
1 4.33 433 -0.536 -9.577 1.432 -7.050 -8.240 -41.351 -779.942 -359.916 -2594.959 -0.033 -0.059 0.258 -0.07 0.64 -0.76 0.12
1 4.34 434 0.062 -9.247 1.777 -1.129 -13.611 -36.682 -779.942 -164.893 -2519.858 -0.506 -0.399 -0.103 -0.07 0.64 -0.76 0.12
1 4.35 435 0.326 -8.883 1.901 0.763 -14.221 -33.600 -839.903 -374.906 -2639.930 -0.708 -0.765 -0.225 -0.07 0.64 -0.76 0.12
1 4.36 436 0.469 -8.399 1.805 1.495 -16.510 -30.731 -839.903 -374.906 -2639.930 -0.794 -1.250 -0.124 -0.08 0.64 -0.76 0.12
1 4.37 437 0.527 -8.284 1.935 -0.732 -14.801 -30.426 -824.913 -434.867 -2549.989 -0.798 -1.366 -0.248 -0.08 0.64 -0.76 0.12
1 4.38 438 0.656 -8.289 1.872 0.580 -13.123 -26.154 -869.883 -299.955 -2609.950 -0.879 -1.362 -0.185 -0.08 0.64 -0.76 0.11
1 4.39 439 0.704 -8.390 1.891 1.465 -11.627 -23.224 -869.883 -299.955 -2609.950 -0.882 -1.262 -0.202 -0.08 0.64 -0.76 0.11
1 4.40 440 0.709 -8.342 1.781 1.312 -8.667 -21.393 -779.942 -359.916 -2474.888 -0.846 -1.310 -0.088 -0.09 0.64 -0.76 0.11
1 4.41 441 0.618 -8.428 1.714 5.371 -3.967 -19.989 -1019.936 -374.906 -2684.901 -0.684 -1.223 -0.012 -0.09 0.64 -0.76 0.11
1 4.42 442 0.340 -8.399 1.853 10.071 -1.617 -15.839 -1034.926 -209.863 -2549.989 -0.375 -1.250 -0.140 -0.09 0.64 -0.76 0.11
1 4.43 443 0.326 -8.476 1.868 12.726 1.068 -13.062 -1034.926 -209.863 -2549.989 -0.337 -1.170 -0.137 -0.09 0.64 -0.76 0.11
1 4.44 444 0.263 -8.528 1.762 14.313 3.357 -9.888 -869.883 -329.935 -2714.881 -0.255 -1.114 -0.011 -0.09 0.63 -0.76 0.11
1 4.45 445 0.263 -8.806 1.556 15.503 7.080 -7.568 -944.984 -224.854 -2534.999 -0.242 -0.832 0.218 -0.09 0.63 -0.76 0.11
1 4.46 446 0.201 -9.026 1.283 19.531 8.392 -4.578 -944.984 -224.854 -2534.999 -0.169 -0.607 0.515 -0.09 0.63 -0.76 0.11
1 4.47 447 0.359 -8.926 1.231 18.555 8.057 -3.601 -899.864 -314.945 -2519.858 -0.319 -0.702 0.595 -0.09 0.63 -0.76 0.11
1 4.48 448 0.618 -9.141 1.279 11.597 7.782 -0.885 -794.932 -329.935 -2564.979 -0.566 -0.478 0.595 -0.09 0.63 -0.76 0.11
1 4.49 449 0.704 -9.022 1.097 7.416 10.071 1.068 -944.984 -449.857 -2564.979 -0.649 -0.595 0.790 -0.09 0.63 -0.76 0.11
1 4.50 450 0.699 -8.667 0.828 3.967 11.078 0.153 -944.984 -449.857 -2564.979 -0.645 -0.947 1.067 -0.09 0.63 -0.77 0.11
1 4.51 451 0.704 -8.830 0.766 -3.998 14.160 -1.495 -869.883 -419.876 -2684.901 -0.651 -0.784 1.133 -0.09 0.63 -0.77 0.11
1 4.52 452 0.800 -9.017 0.340 -9.552 14.832 -2.838 -929.994 -389.896 -2624.940 -0.745 -0.599 1.548 -0.09 0.63 -0.77 0.1
1 4.53 453 1.097 -8.299 0.139 -9.125 10.529 -2.686 -929.994 -389.896 -2624.940 -1.035 -1.322 1.728 -0.09 0.63 -0.76 0.1
1 4.54 454 1.097 -8.624 -0.014 -20.081 16.846 -2.197 -899.864 -359.916 -2624.940 -1.030 -0.999 1.867 -0.09 0.63 -0.76 0.1
1 4.55 455 1.106 -9.558 0.024 -26.978 22.003 -0.214 -1034.926 -389.896 -2624.940 -1.038 -0.070 1.805 -0.09 0.63 -0.76 0.1
1 4.56 456 1.154 -10.568 0.273 -14.771 25.391 5.493 -974.965 -359.916 -2624.940 -1.087 0.924 1.467 -0.09 0.64 -0.76 0.1
1 4.57 457 1.006 -10.516 1.499 -6.012 26.184 7.019 -974.965 -359.916 -2624.940 -0.945 0.866 0.212 -0.09 0.64 -0.76 0.1
1 4.58 458 0.584 -10.640 2.164 -9.369 25.391 7.568 -1004.945 -314.945 -2519.858 -0.532 0.989 -0.465 -0.09 0.64 -0.76 0.1
1 4.59 459 -0.005 -10.741 2.255 -18.494 24.445 7.111 -764.952 -329.935 -2564.979 0.043 1.087 -0.571 -0.08 0.64 -0.76 0.1
1 4.60 460 -0.182 -11.296 1.384 -15.350 7.019 7.904 -764.952 -329.935 -2564.979 0.206 1.637 0.273 -0.08 0.64 -0.76 0.1
1 4.61 461 0.316 -10.698 0.350 -5.280 -1.221 10.315 -869.883 -224.854 -2609.950 -0.305 1.035 1.282 -0.08 0.64 -0.76 0.1
1 4.62 462 0.503 -9.936 -0.096 -4.761 8.942 14.099 -989.955 -299.955 -2564.979 -0.505 0.271 1.718 -0.08 0.64 -0.76 0.1
1 4.63 463 -0.704 -9.793 -1.551 -22.553 34.393 24.323 -854.893 -314.945 -2594.959 0.653 0.120 3.125 -0.08 0.64 -0.76 0.1
1 4.64 464 -0.781 -11.129 1.298 -25.147 40.894 22.095 -854.893 -314.945 -2594.959 0.682 1.447 0.219 -0.08 0.65 -0.75 0.1
1 4.65 465 -1.839 -16.645 2.787 -45.075 73.456 -11.047 -839.903 -329.935 -2564.979 1.705 6.957 -1.320 -0.07 0.65 -0.75 0.1
1 4.66 466 -3.419 -18.072 -1.125 -19.867 29.968 -27.008 -749.961 -284.964 -2699.891 3.298 8.373 2.520 -0.07 0.65 -0.75 0.09
1 4.67 467 -1.700 -12.522 1.566 46.784 -32.562 -42.236 -749.961 -284.964 -2699.891 1.622 2.823 -0.165 -0.07 0.65 -0.75 0.09
1 4.68 468 -0.043 -12.498 1.125 -33.325 -2.838 -46.356 -794.932 -299.955 -2564.979 0.040 2.808 0.336 -0.08 0.65 -0.75 0.09
1 4.69 469 1.212 -14.461 0.153 -21.301 -15.381 -34.973 -824.913 -389.896 -2549.989 -1.140 4.767 1.281 -0.08 0.65 -0.75 0.08
1 4.70 470 3.520 -12.618 1.733 14.893 12.848 -15.808 -824.913 -359.916 -2474.888 -3.345 2.921 -0.328 -0.08 0.65 -0.75 0.08
1 4.71 471 3.175 -11.904 1.815 -13.153 38.788 -1.099 -824.913 -359.916 -2474.888 -2.986 2.210 -0.395 -0.08 0.65 -0.75 0.08
1 4.72 472 2.433 -11.857 1.767 -27.680 46.600 8.972 -899.864 -314.945 -2474.888 -2.254 2.158 -0.372 -0.08 0.65 -0.75 0.08
1 4.73 473 1.777 -10.990 2.083 -17.120 48.859 15.259 -929.994 -209.863 -2414.927 -1.622 1.286 -0.724 -0.08 0.65 -0.75 0.08
1 4.74 474 1.192 -9.932 2.380 -4.822 52.796 17.456 -929.994 -209.863 -2414.927 -1.071 0.224 -1.040 -0.07 0.65 -0.75 0.08
1 4.75 475 0.503 -9.175 3.218 0.885 55.237 4.211 -690.000 -254.984 -2504.868 -0.412 -0.532 -1.877 -0.07 0.65 -0.75 0.07
1 4.76 476 0.230 -8.921 4.018 8.514 53.528 -3.174 -659.870 -224.854 -2354.966 -0.155 -0.785 -2.663 -0.07 0.65 -0.75 0.07
1 4.77 477 -0.297 -8.730 4.166 16.266 55.786 -8.575 -659.870 -224.854 -2354.966 0.367 -0.972 -2.784 -0.06 0.65 -0.75 0.07
1 4.78 478 -1.595 -8.691 3.443 15.900 52.735 -24.597 -899.864 -209.863 -2414.927 1.673 -0.997 -1.968 -0.06 0.65 -0.76 0.06
1 4.79 479 -1.580 -9.184 2.854 6.226 39.337 -26.581 -764.952 -299.955 -2564.979 1.675 -0.497 -1.340 -0.06 0.65 -0.76 0.06
1 4.80 480 -1.053 -9.228 2.299 9.857 24.994 -29.144 -659.870 -254.984 -2504.868 1.169 -0.451 -0.762 -0.06 0.65 -0.76 0.06
1 4.81 481 -0.321 -8.782 1.982 22.522 14.130 -29.877 -659.870 -254.984 -2504.868 0.466 -0.891 -0.418 -0.06 0.65 -0.76 0.06
1 4.82 482 1.269 -9.256 2.533 8.270 14.008 -24.139 -659.870 -224.854 -2429.917 -1.087 -0.410 -0.929 -0.06 0.64 -0.76 0.05
1 4.83 483 1.312 -9.970 2.342 -8.148 25.757 -18.036 -690.000 -149.902 -2429.917 -1.091 0.309 -0.712 -0.06 0.64 -0.76 0.05
1 4.84 484 0.187 -10.123 1.963 -13.123 31.708 -10.254 -690.000 -149.902 -2429.917 0.067 0.463 -0.331 -0.06 0.64 -0.76 0.05
1 4.85 485 -0.857 -10.113 2.313 -20.447 24.017 -1.648 -674.860 -89.941 -2414.927 1.127 0.449 -0.713 -0.06 0.64 -0.76 0.05
1 4.86 486 -1.159 -9.711 2.078 -18.890 20.477 6.928 -764.952 -179.883 -2564.979 1.416 0.042 -0.502 -0.06 0.65 -0.76 0.05
1 4.87 487 -1.642 -9.357 2.117 -13.519 19.806 18.005 -734.971 -299.955 -2564.979 1.873 -0.316 -0.561 -0.05 0.65 -0.76 0.05
1 4.88 488 -2.260 -8.773 2.241 -6.775 19.898 28.046 -734.971 -299.955 -2564.979 2.442 -0.903 -0.696 -0.05 0.65 -0.76 0.05
1 4.89 489 -2.624 -8.423 2.136 -4.608 13.519 29.999 -674.860 -209.863 -2474.888 2.743 -1.254 -0.592 -0.05 0.65 -0.76 0.05
1 4.90 490 -2.361 -8.643 2.021 -6.439 4.303 31.159 -599.909 -239.994 -2444.907 2.414 -1.034 -0.477 -0.05 0.65 -0.76 0.05
1 4.91 491 -1.982 -8.792 2.021 -7.660 2.380 34.027 -599.909 -239.994 -2444.907 1.970 -0.886 -0.480 -0.04 0.65 -0.76 0.05
1 4.92 492 -1.719 -8.677 1.710 -6.653 0.366 38.330 -599.909 -284.964 -2414.927 1.574 -1.002 -0.178 -0.04 0.65 -0.76 0.06
1 4.93 493 -1.777 -8.519 1.954 -6.653 -0.916 39.826 -690.000 -299.955 -2504.868 1.562 -1.159 -0.428 -0.04 0.65 -0.76 0.06
1 4.94 494 -1.710 -8.294 2.011 -9.247 -2.808 39.368 -734.971 -104.932 -2504.868 1.427 -1.384 -0.492 -0.04 0.65 -0.76 0.06
1 4.95 495 -1.676 -8.131 1.872 -11.841 -4.334 37.567 -734.971 -104.932 -2504.868 1.332 -1.546 -0.365 -0.03 0.65 -0.76 0.07
1 4.96 496 -1.532 -8.131 1.791 -10.773 -8.118 34.424 -524.958 -164.893 -2519.858 1.135 -1.547 -0.300 -0.03 0.65 -0.76 0.07
1 4.97 497 -1.116 -8.198 1.710 -7.050 -13.428 28.870 -434.867 -149.902 -2504.868 0.672 -1.480 -0.232 -0.03 0.65 -0.76 0.07
1 4.98 498 -0.862 -8.160 1.666 -3.387 -16.876 24.658 -434.867 -149.902 -2504.868 0.378 -1.518 -0.198 -0.03 0.65 -0.75 0.07
1 4.99 499 -0.713 -8.026 1.604 0.031 -18.585 20.569 -629.890 -164.893 -2519.858 0.196 -1.650 -0.140 -0.03 0.65 -0.75 0.08
1 5.00 500 -0.776 -7.777 1.508 3.387 -20.630 15.167 -509.968 -179.883 -2564.979 0.209 -1.896 -0.037 -0.03 0.65 -0.75 0.08
1 5.01 501 -0.948 -7.786 1.508 3.265 -21.759 11.810 -569.929 -164.893 -2474.888 0.366 -1.884 -0.028 -0.03 0.65 -0.75 0.08
1 5.02 502 -0.848 -7.930 1.441 1.648 -21.759 7.813 -569.929 -164.893 -2474.888 0.256 -1.738 0.046 -0.03 0.65 -0.75 0.08
1 5.03 503 -0.881 -8.313 1.494 1.312 -21.210 5.829 -464.997 -179.883 -2564.979 0.285 -1.354 -0.002 -0.03 0.65 -0.75 0.09
1 5.04 504 -1.006 -8.610 1.465 2.655 -21.393 3.296 -359.916 -224.854 -2504.868 0.409 -1.057 0.033 -0.03 0.65 -0.75 0.09
1 5.05 505 -0.943 -8.701 1.302 1.709 -20.477 2.228 -359.916 -224.854 -2504.868 0.348 -0.965 0.203 -0.04 0.65 -0.75 0.09
1 5.06 506 -1.168 -9.098 1.178 0.275 -19.684 1.373 -614.899 -254.984 -2534.999 0.575 -0.566 0.333 -0.04 0.65 -0.75 0.09
1 5.07 507 -0.929 -9.333 1.025 0.336 -19.013 -0.885 -509.968 -149.902 -2609.950 0.337 -0.331 0.491 -0.04 0.65 -0.75 0.09
1 5.08 508 -0.833 -9.295 0.804 0.458 -21.423 -3.021 -584.919 -149.902 -2459.897 0.246 -0.369 0.712 -0.04 0.65 -0.75 0.09
1 5.09 509 -0.618 -9.070 0.690 -0.488 -22.522 -4.913 -584.919 -149.902 -2459.897 0.040 -0.595 0.826 -0.04 0.65 -0.75 0.09
1 5.10 510 -0.393 -9.084 0.824 -4.852 -20.477 -4.547 -434.867 -29.980 -2639.930 -0.172 -0.582 0.687 -0.04 0.65 -0.75 0.09
1 5.11 511 -0.508 -8.782 0.675 -9.216 -17.304 -4.456 -584.919 -149.902 -2534.999 -0.044 -0.886 0.825 -0.04 0.65 -0.75 0.09
1 5.12 512 -0.498 -8.423 0.541 -16.205 -17.120 -7.782 -584.919 -149.902 -2534.999 -0.041 -1.249 0.945 -0.05 0.65 -0.75 0.09
1 5.13 513 -0.536 -8.447 0.335 -19.836 -16.846 -9.155 -674.860 -89.941 -2519.858 0.014 -1.229 1.131 -0.05 0.65 -0.75 0.1
1 5.14 514 -1.116 -8.481 -0.014 -25.177 -15.533 -13.458 -539.948 -224.854 -2459.897 0.634 -1.206 1.424 -0.05 0.65 -0.75 0.1
1 5.15 515 -1.188 -8.801 -0.273 -26.459 -21.088 -15.198 -734.971 -224.854 -2534.999 0.732 -0.891 1.647 -0.05 0.65 -0.75 0.1
1 5.16 516 -1.293 -9.501 -0.340 -25.604 -25.482 -17.334 -734.971 -224.854 -2534.999 0.863 -0.199 1.671 -0.05 0.66 -0.75 0.1
1 5.17 517 -1.374 -10.118 -0.259 -20.905 -28.107 -18.005 -690.000 -29.980 -2324.985 0.971 0.411 1.544 -0.06 0.66 -0.75 0.1
1 5.18 518 -1.437 -10.884 0.005 -12.360 -33.569 -17.304 -569.929 14.990 -2594.959 1.060 1.172 1.244 -0.06 0.66 -0.74 0.1
1 5.19 519 -1.097 -11.876 0.651 1.404 -36.560 -10.071 -569.929 14.990 -2594.959 0.749 2.159 0.579 -0.06 0.66 -0.74 0.1
1 5.20 520 -0.699 -11.880 0.967 5.737 -35.919 -5.219 -674.860 44.971 -2549.989 0.377 2.164 0.266 -0.06 0.66 -0.74 0.1
1 5.21 521 -0.431 -12.000 1.240 6.409 -27.710 2.350 -674.860 44.971 -2549.989 0.127 2.284 0.003 -0.07 0.66 -0.74 0.1
1 5.22 522 -0.608 -11.272 0.757 0.641 -14.282 9.827 -734.971 -179.883 -2429.917 0.304 1.559 0.506 -0.07 0.66 -0.74 0.1
1 5.23 523 -0.536 -10.722 -0.125 -5.707 -14.191 9.247 -734.971 -179.883 -2429.917 0.222 1.008 1.388 -0.07 0.66 -0.74 0.1
1 5.24 524 -0.192 -10.535 -0.737 -9.888 -18.402 4.150 -584.919 -104.932 -2534.999 -0.131 0.820 1.987 -0.07 0.66 -0.74 0.11
1 5.25 525 0.326 -12.541 0.201 -3.510 -30.457 2.869 -674.860 -89.941 -2474.888 -0.648 2.823 1.022 -0.07 0.66 -0.74 0.11
1 5.26 526 3.869 -23.555 3.275 52.124 -67.932 35.858 -674.860 -89.941 -2474.888 -4.191 13.838 -2.044 -0.07 0.66 -0.74 0.11
1 5.27 527 3.673 -14.485 4.362 83.741 -12.665 52.338 -674.860 -89.941 -2444.907 -4.022 4.778 -3.062 -0.08 0.65 -0.74 0.11
1 5.28 528 1.580 -7.269 1.154 58.624 25.116 52.094 -674.860 -89.941 -2444.907 -1.997 -2.419 0.264 -0.07 0.65 -0.75 0.12
1 5.29 529 0.723 -11.378 3.860 -79.468 11.444 45.105 -764.952 -299.955 -2504.868 -1.282 1.710 -2.354 -0.07 0.65 -0.75 0.12
1 5.30 530 -1.513 -14.754 1.705 -86.701 58.899 46.204 -764.952 -299.955 -2504.868 0.888 5.071 -0.325 -0.06 0.65 -0.75 0.12
1 5.31 531 -5.287 -14.002 -0.910 -25.635 48.309 30.304 -599.909 -89.941 -2594.959 4.585 4.309 2.175 -0.06 0.66 -0.74 0.12
1 5.32 532 -6.235 -11.081 -0.364 32.745 -13.458 0.824 -674.860 -14.990 -2444.907 5.495 1.389 1.614 -0.06 0.66 -0.74 0.12
1 5.33 533 -5.009 -8.404 1.006 42.084 -48.737 -19.867 -674.860 -14.990 -2444.907 4.283 -1.281 0.306 -0.06 0.66 -0.74 0.12
1 5.34 534 -4.501 -7.777 2.179 -10.620 -41.840 -29.389 -584.919 29.980 -2639.930 3.804 -1.902 -0.809 -0.06 0.65 -0.74 0.12
1 5.35 535 -4.554 -8.696 2.117 -33.814 -47.211 -20.416 -584.919 29.980 -2639.930 3.881 -0.983 -0.737 -0.06 0.65 -0.74 0.13
1 5.36 536 -2.404 -9.534 2.016 -1.404 -72.632 8.392 -749.961 -44.971 -2474.888 1.742 -0.154 -0.696 -0.07 0.65 -0.74 0.13
1 5.37 537 -0.599 -9.357 2.409 46.173 -83.344 25.330 -749.961 -44.971 -2474.888 -0.082 -0.326 -1.059 -0.07 0.65 -0.74 0.14
1 5.38 538 1.326 -9.582 3.400 75.531 -87.952 39.978 -690.000 0.000 -2429.917 -2.034 -0.084 -1.950 -0.08 0.65 -0.74 0.14
1 5.39 539 3.127 -9.965 4.702 70.648 -79.865 51.514 -734.971 29.980 -2504.868 -3.864 0.322 -3.116 -0.08 0.64 -0.75 0.15
1 5.40 540 4.391 -9.936 5.129 41.962 -45.685 58.594 -734.971 29.980 -2504.868 -5.188 0.316 -3.437 -0.08 0.64 -0.75 0.16
1 5.41 541 2.931 -8.643 3.582 10.559 7.385 51.239 -764.952 0.000 -2564.979 -3.804 -0.960 -1.834 -0.08 0.64 -0.75 0.16
1 5.42 542 1.465 -8.165 3.108 3.204 10.986 33.966 -764.952 0.000 -2564.979 -2.400 -1.427 -1.329 -0.07 0.64 -0.75 0.16
1 5.43 543 0.613 -8.528 3.055 0.610 11.047 10.498 -764.952 -179.883 -2504.868 -1.582 -1.056 -1.256 -0.07 0.63 -0.75 0.16
1 5.44 544 -0.790 -8.758 2.624 0.122 16.205 -15.350 -674.860 -119.922 -2669.911 -0.183 -0.823 -0.809 -0.07 0.63 -0.75 0.16
1 5.45 545 -1.178 -8.859 2.150 -1.343 14.038 -29.450 -659.870 -74.951 -2639.930 0.232 -0.724 -0.328 -0.07 0.63 -0.75 0.16
1 5.46 546 -1.001 -9.065 1.724 -0.793 10.345 -40.833 -674.860 -119.922 -2594.959 0.099 -0.522 0.099 -0.07 0.63 -0.75 0.16
1 5.47 547 -0.814 -9.194 1.609 0.824 8.148 -48.767 -674.860 -119.922 -2594.959 -0.027 -0.398 0.213 -0.07 0.63 -0.75 0.15
1 5.48 548 -0.407 -9.457 1.710 -2.838 6.348 -52.826 -704.991 -89.941 -2549.989 -0.363 -0.141 0.112 -0.07 0.63 -0.76 0.15
1 5.49 549 -0.196 -9.366 1.571 -3.448 6.012 -48.615 -704.991 -89.941 -2549.989 -0.496 -0.238 0.249 -0.08 0.63 -0.76 0.15
1 5.50 550 -0.115 -9.189 1.575 -0.641 5.402 -42.420 -734.971 -224.854 -2639.930 -0.502 -0.422 0.238 -0.08 0.63 -0.76 0.14
1 5.51 551 0.153 -8.969 1.657 4.456 2.441 -36.163 -690.000 -29.980 -2564.979 -0.641 -0.649 0.157 -0.08 0.63 -0.76 0.14
1 5.52 552 0.646 -8.773 1.887 4.608 2.625 -35.858 -764.952 -74.951 -2564.979 -1.076 -0.847 -0.065 -0.08 0.63 -0.76 0.13
1 5.53 553 0.857 -8.734 2.016 4.608 0.305 -34.607 -854.893 -119.922 -2669.911 -1.228 -0.886 -0.185 -0.09 0.63 -0.76 0.13
1 5.54 554 1.264 -8.624 2.064 6.317 1.740 -33.966 -854.893 -119.922 -2669.911 -1.574 -0.996 -0.223 -0.09 0.63 -0.76 0.13
1 5.55 555 1.346 -8.672 2.150 7.416 6.622 -33.814 -944.984 -74.951 -2639.930 -1.594 -0.947 -0.294 -0.09 0.63 -0.76 0.13
1 5.56 556 1.073 -8.519 2.150 6.622 10.620 -30.884 -944.984 -74.951 -2639.930 -1.260 -1.099 -0.279 -0.09 0.63 -0.76 0.12
1 5.57 557 0.876 -8.595 1.959 6.531 14.221 -30.914 -914.854 -104.932 -2714.881 -1.014 -1.021 -0.074 -0.09 0.63 -0.76 0.12
1 5.58 558 0.364 -8.754 1.829 4.883 18.066 -29.083 -974.965 -44.971 -2594.959 -0.406 -0.859 0.078 -0.09 0.63 -0.76 0.12
1 5.59 559 0.072 -8.777 1.556 7.751 18.127 -25.696 -824.913 -119.922 -2594.959 -0.073 -0.833 0.361 -0.09 0.63 -0.76 0.11
1 5.60 560 -0.043 -8.691 1.432 8.362 16.632 -21.301 -974.965 89.941 -2669.911 0.076 -0.917 0.497 -0.09 0.63 -0.77 0.11
1 5.61 561 -0.048 -8.816 1.523 6.928 16.632 -17.029 -974.965 89.941 -2669.911 0.106 -0.790 0.419 -0.09 0.63 -0.77 0.11
1 5.62 562 -0.206 -8.974 1.274 5.280 18.127 -11.078 -929.994 -209.863 -2669.911 0.282 -0.630 0.677 -0.09 0.63 -0.77 0.11
1 5.63 563 -0.273 -8.979 0.986 8.575 15.533 -3.143 -929.994 -209.863 -2669.911 0.357 -0.624 0.970 -0.09 0.63 -0.77 0.11
1 5.64 564 -0.335 -9.132 0.953 10.681 13.611 0.336 -944.984 -74.951 -2759.852 0.419 -0.469 1.011 -0.09 0.63 -0.77 0.11
1 5.65 565 0.038 -8.868 0.943 11.810 11.505 2.350 -1094.887 -149.902 -2684.901 0.041 -0.730 1.031 -0.09 0.63 -0.77 0.11
1 5.66 566 0.460 -8.495 1.044 11.139 10.040 4.791 -1019.936 -104.932 -2684.901 -0.396 -1.099 0.954 -0.09 0.62 -0.77 0.11
1 5.67 567 0.733 -8.323 0.895 6.042 12.268 5.920 -839.903 -29.980 -2609.950 -0.678 -1.268 1.119 -0.09 0.62 -0.77 0.11
1 5.68 568 0.934 -8.294 0.905 -1.617 15.625 6.470 -839.903 -29.980 -2609.950 -0.891 -1.295 1.117 -0.09 0.62 -0.77 0.11
1 5.69 569 0.934 -8.548 0.776 -7.019 19.470 6.226 -854.893 -209.863 -2699.891 -0.904 -1.042 1.243 -0.09 0.62 -0.77 0.11
1 5.70 570 1.030 -8.471 0.369 -8.759 18.646 6.226 -854.893 -209.863 -2699.891 -1.014 -1.121 1.639 -0.09 0.62 -0.77 0.1
1 5.71 571 1.159 -8.198 0.177 -11.383 18.402 6.958 -1004.945 -44.971 -2774.992 -1.158 -1.397 1.819 -0.08 0.63 -0.77 0.1
1 5.72 572 1.140 -8.615 0.125 -21.362 25.757 7.690 -989.955 -104.932 -2639.930 -1.154 -0.983 1.858 -0.08 0.63 -0.77 0.1
1 5.73 573 1.130 -9.874 0.177 -28.015 31.952 9.430 -974.965 -164.893 -2849.943 -1.177 0.262 1.733 -0.08 0.63 -0.77 0.1
1 5.74 574 0.939 -10.353 0.819 -20.264 31.342 11.383 -749.961 -164.893 -2699.891 -1.000 0.731 1.040 -0.08 0.63 -0.76 0.1
1 5.75 575 0.464 -10.444 2.040 -12.848 33.478 9.979 -749.961 -164.893 -2699.891 -0.542 0.815 -0.216 -0.08 0.63 -0.76 0.1
1 5.76 576 -0.397 -10.583 1.997 -17.914 34.302 11.932 -824.913 -44.971 -2729.872 0.303 0.951 -0.193 -0.08 0.63 -0.76 0.1
1 5.77 577 -1.480 -10.702 2.246 -24.231 27.252 13.977 -824.913 -44.971 -2729.872 1.359 1.066 -0.470 -0.07 0.64 -0.76 0.1
1 5.78 578 -1.580 -10.755 1.097 -16.235 -1.160 12.726 -779.942 -164.893 -2804.973 1.434 1.112 0.644 -0.07 0.64 -0.76 0.1
1 5.79 579 -0.776 -10.018 0.139 -6.012 -7.111 14.557 -899.864 89.941 -2729.872 0.611 0.370 1.575 -0.07 0.64 -0.76 0.1
1 5.80 580 -1.188 -9.199 -1.585 -9.735 16.113 25.910 -659.870 0.000 -2819.963 0.967 -0.454 3.263 -0.07 0.64 -0.76 0.1
1 5.81 581 -1.001 -10.080 -1.920 -18.463 20.325 31.677 -690.000 0.000 -2639.930 0.730 0.422 3.560 -0.07 0.64 -0.76 0.1
1 5.82 582 -0.613 -12.608 2.849 -19.928 30.701 27.405 -690.000 0.000 -2639.930 0.285 2.943 -1.264 -0.06 0.64 -0.76 0.1
1 5.83 583 -2.203 -20.083 4.415 -56.763 75.165 -21.240 -629.890 -89.941 -2594.959 1.839 10.413 -2.867 -0.06 0.65 -0.75 0.1
1 5.84 584 -2.212 -16.880 -1.666 6.409 -12.299 -16.632 -629.890 -89.941 -2594.959 1.873 7.195 3.129 -0.06 0.65 -0.75 0.09
1 5.85 585 0.340 -10.535 3.500 14.710 -16.052 -52.124 -599.909 119.922 -2729.872 -0.639 0.857 -1.988 -0.06 0.65 -0.75 0.1
1 5.86 586 0.292 -13.719 -0.283 -62.042 0.549 -47.882 -539.948 -74.951 -2609.950 -0.510 4.048 1.849 -0.07 0.64 -0.76 0.09
1 5.87 587 2.073 -15.577 -0.345 -13.153 -24.384 -33.173 -539.948 -74.951 -2609.950 -2.215 5.893 1.840 -0.07 0.65 -0.75 0.09
1 5.88 588 3.242 -12.096 1.537 27.832 16.846 -17.883 -839.903 -29.980 -2714.881 -3.282 2.410 -0.044 -0.07 0.65 -0.75 0.09
1 5.89 589 2.706 -10.961 1.801 -15.808 34.699 -9.033 -839.903 -29.980 -2714.881 -2.726 1.280 -0.280 -0.07 0.65 -0.75 0.09
1 5.90 590 2.002 -11.071 1.537 -36.713 34.363 -5.280 -674.860 119.922 -2729.872 -2.017 1.385 -0.051 -0.07 0.65 -0.75 0.08
1 5.91 591 1.451 -10.626 1.561 -25.757 32.410 -1.801 -674.860 119.922 -2729.872 -1.466 0.931 -0.127 -0.07 0.65 -0.75 0.08
1 5.92 592 1.039 -9.232 2.366 -1.160 34.577 0.183 -690.000 74.951 -2639.930 -1.058 -0.466 -0.961 -0.07 0.65 -0.75 0.08
1 5.93 593 0.924 -8.902 3.386 5.188 36.011 -3.510 -674.860 119.922 -2624.940 -0.940 -0.797 -1.983 -0.07 0.65 -0.75 0.08
1 5.94 594 0.666 -8.749 4.190 13.397 40.802 -5.676 -674.860 119.922 -2624.940 -0.677 -0.948 -2.770 -0.07 0.65 -0.75 0.08
1 5.95 595 -0.570 -8.294 4.128 19.135 46.051 -9.979 -674.860 44.971 -2669.911 0.570 -1.390 -2.624 -0.06 0.65 -0.76 0.07
1 5.96 596 -1.135 -8.294 3.505 15.076 42.084 -15.045 -674.860 44.971 -2669.911 1.140 -1.382 -1.952 -0.06 0.65 -0.76 0.07
1 5.97 597 -1.403 -8.763 2.840 6.256 33.661 -18.646 -749.961 44.971 -2624.940 1.416 -0.907 -1.248 -0.06 0.64 -0.76 0.07
1 5.98 598 -1.044 -9.213 2.476 6.561 23.682 -20.203 -749.961 44.971 -2624.940 1.068 -0.453 -0.864 -0.06 0.64 -0.76 0.06
1 5.99 599 -0.378 -9.060 2.045 16.937 12.848 -20.386 -764.952 29.980 -2639.930 0.420 -0.603 -0.411 -0.06 0.64 -0.76 0.06
1 6.00 600 1.298 -9.299 2.658 7.904 9.613 -20.203 -734.971 0.000 -2684.901 -1.231 -0.358 -0.991 -0.06 0.64 -0.76 0.06
1 6.01 601 1.159 -10.152 2.691 -13.245 22.766 -13.611 -734.971 0.000 -2684.901 -1.059 0.499 -1.000 -0.06 0.64 -0.76 0.06
1 6.02 602 -0.445 -10.362 1.992 -20.325 29.602 -2.045 -690.000 -29.980 -2684.901 0.584 0.706 -0.327 -0.06 0.64 -0.76 0.06
1 6.03 603 -1.135 -10.008 1.982 -16.571 21.942 4.822 -690.000 -29.980 -2684.901 1.266 0.347 -0.341 -0.06 0.64 -0.76 0.06
1 6.04 604 -1.235 -9.558 2.179 -17.731 16.541 12.329 -704.991 284.964 -2804.973 1.345 -0.107 -0.559 -0.05 0.64 -0.76 0.06
1 6.05 605 -1.489 -9.199 2.026 -16.724 14.984 22.583 -704.991 284.964 -2804.973 1.563 -0.470 -0.427 -0.05 0.64 -0.76 0.06
1 6.06 606 -2.064 -8.955 1.968 -11.322 14.832 30.365 -779.942 -14.990 -2729.872 2.087 -0.717 -0.387 -0.05 0.65 -0.76 0.06
1 6.07 607 -2.011 -9.352 1.973 -10.010 4.028 33.173 -584.919 149.902 -2789.982 1.971 -0.321 -0.402 -0.05 0.65 -0.76 0.06
1 6.08 608 -1.566 -9.639 2.073 -10.498 -1.709 34.515 -584.919 149.902 -2789.982 1.461 -0.035 -0.513 -0.05 0.65 -0.76 0.06
1 6.09 609 -1.164 -9.386 1.935 -6.378 -3.174 36.774 -524.958 -89.941 -2729.872 0.997 -0.290 -0.385 -0.04 0.65 -0.76 0.06
1 6.10 610 -1.168 -9.161 1.925 -6.928 -2.228 40.375 -494.978 119.922 -2774.992 0.878 -0.513 -0.385 -0.04 0.65 -0.76 0.07
1 6.11 611 -1.259 -9.070 1.848 -10.803 -1.953 41.718 -569.929 119.922 -2699.891 0.904 -0.603 -0.315 -0.04 0.65 -0.76 0.07
1 6.12 612 -1.231 -8.897 1.963 -13.550 -0.366 41.382 -569.929 119.922 -2699.891 0.808 -0.775 -0.443 -0.04 0.65 -0.76 0.07
1 6.13 613 -1.389 -8.667 1.690 -14.130 -1.678 38.941 -374.906 119.922 -2729.872 0.900 -1.004 -0.185 -0.03 0.65 -0.76 0.08
1 6.14 614 -1.226 -8.471 1.528 -13.977 -5.249 31.799 -374.906 284.964 -2774.992 0.676 -1.200 -0.039 -0.03 0.65 -0.75 0.08
1 6.15 615 -1.212 -8.227 1.508 -12.482 -7.477 27.283 -374.906 284.964 -2774.992 0.615 -1.444 -0.040 -0.03 0.65 -0.75 0.08
1 6.16 616 -1.025 -8.121 1.417 -10.468 -11.749 20.416 -329.935 179.883 -2684.901 0.358 -1.550 0.017 -0.03 0.65 -0.75 0.08
1 6.17 617 -0.915 -7.944 1.480 -9.399 -13.062 18.219 -329.935 179.883 -2684.901 0.223 -1.727 -0.057 -0.03 0.65 -0.75 0.09
1 6.18 618 -0.771 -7.887 1.393 -2.228 -15.930 14.374 -434.867 149.902 -2609.950 0.061 -1.784 0.022 -0.03 0.65 -0.75 0.09
1 6.19 619 -0.862 -7.844 1.288 1.831 -18.524 11.902 -434.867 149.902 -2609.950 0.136 -1.826 0.129 -0.03 0.65 -0.75 0.09
1 6.20 620 -0.958 -7.892 1.432 3.235 -20.508 10.315 -284.964 149.902 -2684.901 0.221 -1.776 -0.008 -0.03 0.65 -0.75 0.09
1 6.21 621 -0.852 -8.150 1.269 4.791 -20.905 8.118 -419.876 119.922 -2624.940 0.107 -1.516 0.164 -0.03 0.65 -0.75 0.09
1 6.22 622 -0.843 -8.265 1.144 5.676 -20.813 4.395 -419.876 119.922 -2624.940 0.093 -1.399 0.300 -0.03 0.65 -0.75 0.09
1 6.23 623 -0.771 -8.380 1.125 2.960 -19.379 2.228 -329.935 104.932 -2684.901 0.020 -1.282 0.331 -0.03 0.65 -0.75 0.09
1 6.24 624 -1.010 -8.643 1.077 -2.411 -14.435 -0.122 -329.935 179.883 -2639.930 0.266 -1.017 0.392 -0.03 0.65 -0.75 0.1
1 6.25 625 -1.135 -8.485 0.675 -4.059 -13.489 -2.686 -284.964 254.984 -2789.982 0.396 -1.176 0.793 -0.03 0.65 -0.75 0.1
1 6.26 626 -1.164 -7.968 0.555 -5.676 -18.494 -5.707 -284.964 254.984 -2789.982 0.435 -1.694 0.909 -0.03 0.65 -0.75 0.1
1 6.27 627 -0.919 -7.863 0.661 -10.559 -21.790 -8.301 -464.997 29.980 -2684.901 0.207 -1.802 0.797 -0.04 0.65 -0.75 0.1
1 6.28 628 -0.742 -8.064 0.761 -15.686 -22.095 -8.820 -359.916 149.902 -2759.852 0.048 -1.604 0.683 -0.04 0.65 -0.75 0.1
1 6.29 629 -0.809 -8.500 0.369 -19.714 -22.003 -7.843 -359.916 149.902 -2759.852 0.134 -1.173 1.054 -0.04 0.65 -0.75 0.1
1 6.30 630 -0.943 -8.289 -0.072 -16.480 -25.238 -9.247 -524.958 209.863 -2699.891 0.285 -1.389 1.469 -0.04 0.65 -0.75 0.1
1 6.31 631 -0.867 -8.399 -0.393 -17.914 -28.900 -11.200 -539.948 149.902 -2639.930 0.228 -1.283 1.768 -0.04 0.65 -0.75 0.1
1 6.32 632 -0.919 -9.917 -0.493 -23.102 -26.978 -10.681 -584.919 149.902 -2684.901 0.328 0.225 1.819 -0.05 0.66 -0.75 0.1
1 6.33 633 -1.144 -11.196 -0.388 -20.477 -24.536 -10.407 -584.919 149.902 -2684.901 0.574 1.497 1.670 -0.05 0.66 -0.75 0.1
1 6.34 634 -1.293 -11.569 -0.345 -11.963 -28.381 -10.162 -524.958 209.863 -2729.872 0.742 1.865 1.596 -0.05 0.66 -0.74 0.1
1 6.35 635 -1.082 -11.248 0.302 -0.244 -36.286 -10.223 -494.978 164.893 -2699.891 0.554 1.542 0.940 -0.05 0.66 -0.74 0.1
1 6.36 636 -0.326 -10.707 1.590 2.625 -33.478 -3.906 -494.978 164.893 -2699.891 -0.180 1.000 -0.342 -0.06 0.66 -0.74 0.1
1 6.37 637 0.196 -10.444 1.623 -6.256 -21.423 1.007 -449.857 164.893 -2729.872 -0.686 0.737 -0.365 -0.06 0.66 -0.74 0.1
1 6.38 638 -0.211 -10.784 1.757 -12.360 -8.972 7.233 -690.000 254.984 -2639.930 -0.271 1.077 -0.501 -0.06 0.66 -0.74 0.11
1 6.39 639 -1.053 -11.493 0.498 -13.825 7.843 10.071 -569.929 314.945 -2804.973 0.558 1.782 0.726 -0.06 0.66 -0.74 0.11
1 6.40 640 -1.834 -11.445 -0.747 -11.078 2.075 6.561 -569.929 314.945 -2804.973 1.324 1.732 1.952 -0.06 0.66 -0.74 0.11
1 6.41 641 -1.384 -11.502 -0.900 -1.801 -12.360 -1.831 -569.929 284.964 -2699.891 0.868 1.789 2.093 -0.06 0.66 -0.74 0.11
1 6.42 642 -0.125 -14.811 0.972 20.081 -34.424 -5.402 -524.958 209.863 -2729.872 -0.381 5.098 0.226 -0.06 0.66 -0.74 0.11
1 6.43 643 3.333 -23.976 2.035 56.641 -59.113 25.360 -524.958 209.863 -2729.872 -3.828 14.269 -0.788 -0.06 0.66 -0.74 0.11
1 6.44 644 2.878 -11.435 2.246 100.128 3.601 49.957 -524.958 359.916 -2624.940 -3.413 1.743 -0.900 -0.06 0.65 -0.75 0.11
1 6.45 645 1.772 -7.695 1.259 47.943 18.402 49.011 -674.860 359.916 -2699.891 -2.378 -1.972 0.229 -0.06 0.65 -0.75 0.12
1 6.46 646 0.287 -13.427 3.295 -86.273 43.152 52.674 -539.948 104.932 -2714.881 -1.040 3.779 -1.752 -0.05 0.65 -0.75 0.12
1 6.47 647 -3.567 -15.352 -0.330 -63.202 73.639 48.523 -539.948 104.932 -2714.881 2.726 5.691 1.739 -0.05 0.65 -0.75 0.12
1 6.48 648 -6.647 -13.940 -1.097 11.292 29.877 25.879 -509.968 149.902 -2864.934 5.727 4.274 2.431 -0.04 0.66 -0.74 0.12
1 6.49 649 -6.153 -10.166 0.139 54.779 -28.137 0.153 -509.968 179.883 -2894.914 5.204 0.509 1.234 -0.04 0.65 -0.75 0.12
1 6.50 650 -4.468 -7.671 0.924 32.990 -43.823 -19.562 -509.968 179.883 -2894.914 3.536 -1.975 0.533 -0.04 0.65 -0.75 0.12
1 6.51 651 -4.032 -7.949 1.274 -38.025 -35.645 -30.975 -389.896 329.935 -2789.982 3.114 -1.693 0.217 -0.04 0.65 -0.75 0.12
1 6.52 652 -4.204 -9.146 0.804 -48.401 -42.755 -26.947 -494.978 119.922 -2849.943 3.341 -0.507 0.651 -0.05 0.65 -0.75 0.12
1 6.53 653 -3.855 -9.788 0.699 -18.738 -63.843 -13.031 -494.978 119.922 -2849.943 3.019 0.123 0.690 -0.05 0.65 -0.75 0.12
1 6.54 654 -1.695 -8.155 1.959 42.755 -89.600 10.620 -449.857 314.945 -2804.973 0.871 -1.513 -0.581 -0.06 0.65 -0.74 0.13
1 6.55 655 0.072 -7.413 2.868 64.423 -96.039 22.949 -509.968 329.935 -2714.881 -0.902 -2.241 -1.403 -0.06 0.65 -0.75 0.13
1 6.56 656 2.346 -8.021 3.673 59.540 -97.962 35.431 -734.971 329.935 -2894.914 -3.192 -1.615 -2.098 -0.06 0.64 -0.75 0.14
1 6.57 657 4.477 -9.692 4.631 40.070 -84.503 48.401 -734.971 329.935 -2894.914 -5.342 0.076 -2.952 -0.07 0.64 -0.75 0.15
1 6.58 658 5.315 -10.271 4.123 25.574 -20.844 58.838 -599.909 209.863 -2909.904 -6.218 0.672 -2.371 -0.07 0.64 -0.75 0.15
1 6.59 659 3.544 -8.624 2.993 25.574 6.378 49.927 -659.870 149.902 -2819.963 -4.523 -0.960 -1.197 -0.07 0.64 -0.75 0.16
1 6.60 660 1.331 -7.748 3.137 5.859 16.419 22.308 -509.968 104.932 -2864.934 -2.427 -1.810 -1.270 -0.06 0.63 -0.75 0.16
1 6.61 661 0.599 -8.160 3.007 -2.167 21.423 12.787 -509.968 104.932 -2864.934 -1.725 -1.395 -1.140 -0.06 0.63 -0.75 0.16
1 6.62 662 -1.403 -9.079 2.375 -9.216 32.227 -14.160 -539.948 224.854 -3074.947 0.276 -0.477 -0.518 -0.06 0.63 -0.75 0.16
1 6.63 663 -2.212 -9.726 1.863 -3.967 24.719 -28.900 -584.919 224.854 -2894.914 1.104 0.165 -0.016 -0.06 0.63 -0.75 0.16
1 6.64 664 -2.255 -9.778 1.619 3.815 14.038 -39.368 -584.919 224.854 -2894.914 1.181 0.213 0.224 -0.06 0.63 -0.76 0.15
1 6.65 665 -1.815 -9.788 1.757 3.784 6.042 -44.190 -539.948 74.951 -2939.885 0.790 0.218 0.089 -0.06 0.63 -0.76 0.15
1 6.66 666 -0.910 -9.515 1.671 -3.296 0.488 -45.105 -509.968 29.980 -2894.914 -0.057 -0.060 0.178 -0.06 0.63 -0.76 0.15
1 6.67 667 -0.354 -9.462 1.513 -1.251 -2.655 -42.572 -509.968 29.980 -2894.914 -0.548 -0.120 0.333 -0.06 0.63 -0.76 0.14
1 6.68 668 0.168 -9.213 1.642 7.202 -5.432 -39.002 -524.958 164.893 -2954.875 -0.938 -0.380 0.205 -0.06 0.63 -0.76 0.14
1 6.69 669 0.441 -9.036 1.772 9.552 -4.669 -34.668 -584.919 104.932 -2894.914 -1.146 -0.560 0.088 -0.07 0.63 -0.76 0.14
1 6.70 670 0.536 -8.907 1.772 7.965 -3.601 -33.539 -659.870 104.932 -3014.986 -1.181 -0.691 0.103 -0.07 0.63 -0.76 0.13
1 6.71 671 0.484 -8.706 1.767 10.468 -3.204 -33.112 -659.870 104.932 -3014.986 -1.068 -0.893 0.122 -0.07 0.63 -0.76 0.13
1 6.72 672 0.455 -8.361 1.791 9.003 -5.371 -32.166 -569.929 89.941 -2954.875 -0.982 -1.238 0.115 -0.07 0.63 -0.76 0.13
1 6.73 673 0.412 -8.313 1.757 8.209 -5.890 -32.959 -704.991 119.922 -2879.924 -0.888 -1.285 0.163 -0.07 0.63 -0.76 0.13
1 6.74 674 0.268 -8.361 1.729 6.104 -4.730 -31.067 -704.991 119.922 -2879.924 -0.693 -1.237 0.205 -0.08 0.63 -0.76 0.13
1 6.75 675 0.220 -8.572 1.604 6.500 -4.303 -25.330 -929.994 209.863 -2849.943 -0.552 -1.026 0.351 -0.08 0.63 -0.76 0.12
1 6.76 676 0.163 -8.677 1.662 9.583 -3.662 -19.928 -989.955 29.980 -2864.934 -0.457 -0.919 0.305 -0.08 0.63 -0.77 0.12
1 6.77 677 0.115 -8.528 1.676 13.031 -2.960 -17.487 -824.913 89.941 -2954.875 -0.376 -1.065 0.308 -0.08 0.63 -0.77 0.12
1 6.78 678 0.182 -8.490 1.542 14.465 -2.258 -13.397 -824.913 89.941 -2954.875 -0.417 -1.100 0.463 -0.08 0.63 -0.77 0.12
1 6.79 679 0.235 -8.615 1.628 14.893 0.641 -8.850 -779.942 89.941 -2984.855 -0.450 -0.971 0.400 -0.08 0.62 -0.77 0.12
1 6.80 680 -0.110 -8.806 1.283 13.214 4.517 -3.052 -869.883 0.000 -3014.986 -0.093 -0.775 0.768 -0.08 0.62 -0.77 0.12
1 6.81 681 -0.306 -9.036 1.192 13.367 2.563 -0.336 -869.883 0.000 -3014.986 0.109 -0.541 0.878 -0.08 0.62 -0.77 0.12
1 6.82 682 -0.239 -9.232 1.207 13.306 0.488 2.075 -839.903 104.932 -3014.986 0.044 -0.341 0.879 -0.08 0.62 -0.77 0.12
1 6.83 683 0.125 -9.132 1.125 10.986 -2.808 1.923 -869.883 74.951 -3014.986 -0.323 -0.435 0.989 -0.08 0.62 -0.77 0.12
1 6.84 684 0.421 -9.098 1.068 8.942 -4.761 2.686 -869.883 179.883 -2969.865 -0.618 -0.467 1.057 -0.08 0.62 -0.77 0.12
1 6.85 685 0.661 -8.801 1.020 7.446 -4.547 2.686 -869.883 179.883 -2969.865 -0.855 -0.762 1.112 -0.08 0.62 -0.77 0.12
1 6.86 686 0.742 -8.303 0.828 2.869 -4.364 2.533 -854.893 119.922 -3104.927 -0.932 -1.259 1.307 -0.08 0.62 -0.77 0.12
1 6.87 687 0.833 -8.284 0.876 -3.815 -1.831 1.526 -749.961 89.941 -3134.908 -1.024 -1.278 1.263 -0.08 0.62 -0.77 0.12
1 6.88 688 1.039 -8.495 0.369 -13.611 -1.465 1.526 -749.961 89.941 -3134.908 -1.231 -1.069 1.762 -0.08 0.62 -0.77 0.12
1 6.89 689 1.216 -8.236 0.105 -12.085 -3.448 2.960 -794.932 254.984 -3074.947 -1.408 -1.331 2.007 -0.08 0.62 -0.77 0.12
1 6.90 690 1.590 -8.509 -0.062 -22.125 6.378 5.402 -914.854 74.951 -3119.917 -1.788 -1.067 2.136 -0.08 0.62 -0.77 0.12
1 6.91 691 1.619 -9.682 0.125 -28.290 15.991 7.324 -764.952 149.902 -2939.885 -1.827 0.099 1.915 -0.08 0.62 -0.77 0.12
1 6.92 692 1.619 -10.707 0.364 -23.285 22.217 9.918 -764.952 149.902 -2939.885 -1.828 1.113 1.621 -0.08 0.63 -0.77 0.12
1 6.93 693 1.183 -10.908 1.149 -14.099 25.055 10.864 -704.991 119.922 -3059.957 -1.407 1.307 0.799 -0.08 0.63 -0.77 0.12
1 6.94 694 0.776 -10.832 1.757 -11.688 24.078 9.735 -914.854 29.980 -2969.865 -1.022 1.227 0.172 -0.08 0.63 -0.77 0.11
1 6.95 695 -0.211 -10.932 2.370 -24.536 19.898 7.324 -914.854 29.980 -2969.865 -0.054 1.324 -0.460 -0.08 0.63 -0.76 0.11
1 6.96 696 -0.627 -11.320 1.652 -26.856 7.996 7.629 -899.864 209.863 -3059.957 0.346 1.706 0.225 -0.07 0.63 -0.76 0.11
1 6.97 697 -0.283 -10.377 0.441 -15.564 -4.913 11.047 -854.893 164.893 -3059.957 -0.024 0.750 1.368 -0.07 0.63 -0.76 0.11
1 6.98 698 -0.412 -10.022 0.163 -13.794 -0.580 12.543 -674.860 164.893 -2984.855 0.090 0.391 1.620 -0.07 0.64 -0.76 0.11
1 6.99 699 -1.451 -8.739 -1.595 -15.869 14.679 23.712 -674.860 164.893 -2984.855 1.097 -0.897 3.343 -0.07 0.64 -0.76 0.11
1 7.00 700 -1.106 -9.477 0.718 -17.517 22.766 28.351 -749.961 284.964 -2954.875 0.703 -0.166 0.984 -0.07 0.64 -0.76 0.12
1 7.01 701 -2.069 -13.935 3.927 -40.070 65.857 3.448 -690.000 299.955 -2969.865 1.615 4.287 -2.268 -0.07 0.64 -0.76 0.11
1 7.02 702 -3.098 -17.632 -0.723 -7.294 -9.064 -20.294 -690.000 299.955 -2969.865 2.641 7.970 2.300 -0.06 0.64 -0.75 0.11
1 7.03 703 -0.637 -12.541 2.140 58.380 -36.286 -35.645 -749.961 284.964 -2954.875 0.212 2.870 -0.613 -0.06 0.65 -0.75 0.11
1 7.04 704 0.402 -12.948 0.718 -29.389 -12.665 -36.835 -599.909 284.964 -2909.904 -0.706 3.291 0.917 -0.07 0.64 -0.76 0.11
1 7.05 705 1.551 -13.959 0.503 -31.433 -22.034 -31.586 -599.909 314.945 -2954.875 -1.799 4.292 1.089 -0.07 0.64 -0.76 0.1
1 7.06 706 3.697 -14.265 2.088 13.794 7.843 -22.095 -599.909 314.945 -2954.875 -3.900 4.597 -0.501 -0.07 0.64 -0.76 0.1
1 7.07 707 3.323 -12.503 1.556 7.874 24.811 -12.787 -839.903 149.902 -3014.986 -3.500 2.837 0.051 -0.07 0.64 -0.76 0.1
1 7.08 708 2.950 -10.884 1.729 -5.554 21.332 -1.709 -854.893 209.863 -2879.924 -3.116 1.220 -0.114 -0.07 0.64 -0.76 0.1
1 7.09 709 2.615 -9.807 2.428 -18.219 30.182 9.186 -854.893 209.863 -2879.924 -2.787 0.140 -0.825 -0.07 0.64 -0.76 0.1
1 7.10 710 1.805 -9.606 2.835 -21.820 50.293 12.238 -869.883 254.984 -2939.885 -1.991 -0.065 -1.259 -0.07 0.64 -0.76 0.1
1 7.11 711 1.178 -9.802 3.338 -8.637 53.101 4.425 -869.883 254.984 -2939.885 -1.376 0.127 -1.789 -0.07 0.65 -0.75 0.1
1 7.12 712 -0.220 -9.117 4.324 18.280 54.901 -4.181 -839.903 254.984 -2819.963 0.012 -0.555 -2.761 -0.06 0.65 -0.76 0.09
1 7.13 713 -1.480 -8.639 4.056 21.698 52.429 -15.808 -839.903 254.984 -2819.963 1.271 -1.026 -2.444 -0.06 0.64 -0.76 0.09
1 7.14 714 -2.016 -8.548 3.548 12.177 46.021 -24.170 -779.942 314.945 -2849.943 1.815 -1.109 -1.888 -0.06 0.64 -0.76 0.08
1 7.15 715 -2.093 -9.467 3.113 7.965 37.262 -24.963 -629.890 359.916 -2879.924 1.906 -0.184 -1.420 -0.06 0.64 -0.76 0.08
1 7.16 716 -1.518 -9.400 2.624 7.782 25.604 -24.323 -629.890 359.916 -2879.924 1.345 -0.247 -0.908 -0.05 0.64 -0.76 0.08
1 7.17 717 -0.043 -9.113 2.504 21.973 13.031 -24.078 -690.000 224.854 -2969.865 -0.110 -0.530 -0.764 -0.05 0.64 -0.76 0.08
1 7.18 718 0.905 -9.376 3.065 9.857 13.123 -22.369 -690.000 224.854 -2969.865 -1.029 -0.261 -1.287 -0.05 0.64 -0.76 0.08
1 7.19 719 0.536 -10.027 2.557 -15.778 28.442 -10.681 -839.903 254.984 -2819.963 -0.596 0.396 -0.749 -0.06 0.64 -0.77 0.07
1 7.20 720 -0.345 -9.821 2.174 -17.029 28.656 -2.808 -839.903 254.984 -2819.963 0.298 0.187 -0.382 -0.05 0.64 -0.77 0.07
1 7.21 721 -0.651 -9.505 2.322 -17.059 21.607 3.815 -704.991 239.994 -3029.976 0.600 -0.133 -0.552 -0.05 0.64 -0.77 0.07
1 7.22 722 -0.843 -9.046 2.169 -14.465 16.937 12.329 -704.991 119.922 -3029.976 0.775 -0.597 -0.419 -0.05 0.64 -0.76 0.07
1 7.23 723 -1.326 -8.744 2.160 -8.637 17.700 24.262 -704.991 119.922 -3029.976 1.227 -0.901 -0.424 -0.05 0.64 -0.76 0.07
1 7.24 724 -1.868 -8.260 2.088 -5.798 15.808 30.975 -659.870 299.955 -2969.865 1.717 -1.385 -0.359 -0.05 0.64 -0.76 0.07
1 7.25 725 -1.982 -8.557 1.906 -4.272 9.949 28.900 -659.870 299.955 -2969.865 1.778 -1.088 -0.184 -0.05 0.64 -0.76 0.07
1 7.26 726 -1.729 -8.912 1.906 -3.510 3.387 27.496 -749.961 239.994 -2954.875 1.472 -0.733 -0.188 -0.04 0.64 -0.76 0.07
1 7.27 727 -1.374 -8.945 1.944 0.702 0.275 30.274 -614.899 299.955 -3074.947 1.012 -0.697 -0.227 -0.04 0.64 -0.76 0.08
1 7.28 728 -1.508 -8.696 2.016 0.214 0.397 31.433 -614.899 299.955 -2939.885 1.094 -0.942 -0.293 -0.04 0.64 -0.76 0.08
1 7.29 729 -1.422 -8.466 1.887 -3.357 0.946 32.776 -659.870 374.906 -2894.914 0.954 -1.169 -0.161 -0.04 0.64 -0.76 0.08
1 7.30 730 -1.341 -8.394 1.949 -8.301 -0.092 32.684 -659.870 374.906 -2894.914 0.821 -1.239 -0.228 -0.03 0.64 -0.76 0.08
1 7.31 731 -1.350 -8.356 1.671 -9.888 -2.350 32.349 -614.899 329.935 -2969.865 0.783 -1.277 0.038 -0.03 0.64 -0.76 0.08
1 7.32 732 -1.269 -8.351 1.633 -7.843 -6.256 28.931 -614.899 329.935 -2969.865 0.656 -1.281 0.062 -0.03 0.64 -0.76 0.09
1 7.33 733 -1.121 -8.294 1.432 -5.249 -8.514 25.787 -419.876 389.896 -2879.924 0.467 -1.338 0.253 -0.03 0.64 -0.76 0.09
1 7.34 734 -0.934 -8.308 1.475 -2.411 -13.825 20.783 -389.896 254.984 -2894.914 0.214 -1.321 0.200 -0.03 0.64 -0.76 0.09
1 7.35 735 -0.785 -8.265 1.575 -0.732 -16.388 18.219 -419.876 389.896 -2954.875 0.041 -1.362 0.099 -0.03 0.64 -0.76 0.09
1 7.36 736 -0.872 -8.461 1.551 2.319 -16.724 14.984 -449.857 239.994 -2879.924 0.107 -1.164 0.126 -0.03 0.64 -0.76 0.1
1 7.37 737 -0.867 -8.552 1.513 4.059 -17.181 12.360 -449.857 239.994 -2879.924 0.086 -1.070 0.172 -0.03 0.64 -0.76 0.1
1 7.38 738 -1.073 -8.706 1.551 4.578 -16.907 10.986 -374.906 434.867 -2804.973 0.280 -0.914 0.143 -0.03 0.64 -0.76 0.1
1 7.39 739 -1.125 -8.797 1.542 5.951 -16.174 7.568 -374.906 434.867 -2804.973 0.321 -0.820 0.163 -0.03 0.64 -0.76 0.1
1 7.40 740 -1.106 -8.777 1.403 4.578 -16.052 5.127 -584.919 299.955 -2789.982 0.293 -0.837 0.314 -0.03 0.64 -0.76 0.1
1 7.41 741 -1.030 -8.859 1.250 3.479 -14.496 1.862 -569.929 359.916 -2954.875 0.209 -0.751 0.485 -0.03 0.64 -0.76 0.1
1 7.42 742 -1.044 -8.797 1.235 2.441 -14.404 0.763 -449.857 284.964 -2849.943 0.224 -0.813 0.504 -0.03 0.64 -0.76 0.1
1 7.43 743 -1.058 -8.442 1.006 -1.373 -14.130 -1.953 -344.925 209.863 -2804.973 0.243 -1.167 0.737 -0.03 0.64 -0.76 0.1
1 7.44 744 -0.977 -8.351 0.690 -5.341 -13.763 -3.662 -344.925 209.863 -2804.973 0.170 -1.259 1.052 -0.03 0.64 -0.76 0.1
1 7.45 745 -0.891 -8.212 0.527 -8.637 -13.977 -5.341 -434.867 449.857 -2969.865 0.095 -1.400 1.208 -0.03 0.64 -0.76 0.1
1 7.46 746 -1.087 -8.701 0.330 -13.733 -16.785 -7.507 -434.867 449.857 -2969.865 0.305 -0.915 1.393 -0.04 0.64 -0.76 0.1
1 7.47 747 -1.154 -8.667 0.306 -14.099 -17.883 -7.904 -539.948 224.854 -2939.885 0.389 -0.953 1.400 -0.04 0.64 -0.76 0.1
1 7.48 748 -1.173 -8.682 -0.139 -13.336 -22.217 -13.397 -509.968 329.935 -2819.963 0.446 -0.948 1.809 -0.04 0.64 -0.76 0.11
1 7.49 749 -1.149 -8.907 -0.086 -14.618 -23.346 -14.710 -599.909 284.964 -2849.943 0.450 -0.727 1.739 -0.04 0.64 -0.76 0.11
1 7.50 750 -1.269 -9.448 -0.125 -15.015 -24.475 -18.036 -509.968 254.984 -2789.982 0.597 -0.194 1.746 -0.04 0.64 -0.76 0.11
1 7.51 751 -1.293 -9.438 -0.172 -13.123 -29.450 -18.311 -509.968 254.984 -2789.982 0.651 -0.210 1.763 -0.05 0.65 -0.75 0.11
1 7.52 752 -1.259 -9.242 -0.034 -12.909 -35.523 -17.700 -629.890 584.919 -2879.924 0.648 -0.413 1.597 -0.05 0.65 -0.75 0.11
1 7.53 753 -0.986 -9.673 0.369 -14.557 -37.811 -16.296 -629.890 584.919 -2879.924 0.406 0.012 1.168 -0.05 0.65 -0.75 0.11
1 7.54 754 -1.087 -10.856 1.331 -10.681 -29.663 -7.965 -779.942 434.867 -2699.891 0.535 1.189 0.179 -0.06 0.65 -0.75 0.11
1 7.55 755 -1.049 -10.918 1.125 -7.813 -25.665 -3.845 -674.860 389.896 -2729.872 0.517 1.247 0.367 -0.06 0.65 -0.75 0.11
1 7.56 756 -0.862 -11.382 1.355 -2.136 -24.078 2.228 -764.952 374.906 -2789.982 0.354 1.708 0.124 -0.06 0.65 -0.75 0.11
1 7.57 757 -0.819 -11.435 0.929 -1.862 -18.585 5.280 -854.893 389.896 -2699.891 0.313 1.761 0.551 -0.06 0.65 -0.75 0.11
1 7.58 758 -0.814 -11.014 -0.019 -6.500 -20.874 5.585 -854.893 389.896 -2699.891 0.305 1.339 1.497 -0.06 0.65 -0.75 0.11
1 7.59 759 -0.297 -10.535 -1.188 -12.451 -28.259 -0.275 -824.913 389.896 -2699.891 -0.211 0.859 2.657 -0.07 0.65 -0.75 0.12
1 7.60 760 0.374 -10.822 -1.666 -11.139 -37.323 -5.371 -824.913 389.896 -2699.891 -0.870 1.141 3.102 -0.07 0.65 -0.75 0.12
1 7.61 761 1.997 -19.973 0.627 36.560 -59.448 11.627 -734.971 374.906 -2789.982 -2.474 10.288 0.789 -0.07 0.65 -0.75 0.12
1 7.62 762 3.960 -21.927 5.564 61.371 -51.727 51.880 -779.942 389.896 -2699.891 -4.431 12.247 -4.107 -0.07 0.65 -0.75 0.12
1 7.63 763 1.288 -7.896 1.053 64.667 -1.892 54.901 -794.932 299.955 -2789.982 -1.886 -1.739 0.631 -0.07 0.64 -0.75 0.13
1 7.64 764 1.757 -10.525 3.275 -39.581 -5.035 43.610 -764.952 329.935 -2819.963 -2.419 0.904 -1.533 -0.07 0.64 -0.76 0.13
1 7.65 765 0.388 -14.500 3.213 -78.034 40.802 50.629 -764.952 329.935 -2819.963 -1.115 4.869 -1.553 -0.07 0.64 -0.75 0.14
1 7.66 766 -3.802 -15.510 0.977 -39.581 49.469 45.349 -690.000 329.935 -2759.852 2.988 5.868 0.573 -0.06 0.65 -0.75 0.14
1 7.67 767 -5.473 -13.154 0.570 19.806 2.380 19.562 -690.000 329.935 -2759.852 4.593 3.511 0.941 -0.06 0.65 -0.75 0.14
1 7.68 768 -3.893 -8.232 1.772 35.065 -38.513 -11.749 -629.890 389.896 -2774.992 2.996 -1.402 -0.215 -0.06 0.65 -0.75 0.14
1 7.69 769 -3.663 -7.087 2.217 -1.465 -36.652 -20.905 -614.899 329.935 -2789.982 2.775 -2.537 -0.596 -0.06 0.64 -0.75 0.14
1 7.70 770 -4.233 -7.724 2.021 -33.417 -34.729 -22.064 -614.899 329.935 -2789.982 3.372 -1.899 -0.380 -0.06 0.64 -0.75 0.14
1 7.71 771 -3.778 -8.773 1.346 -22.247 -60.913 -6.989 -734.971 419.876 -2759.852 2.969 -0.868 0.218 -0.07 0.64 -0.75 0.14
1 7.72 772 -1.968 -8.619 1.714 18.066 -84.564 6.317 -734.971 419.876 -2759.852 1.157 -1.022 -0.160 -0.07 0.64 -0.75 0.15
1 7.73 773 -0.086 -8.567 2.835 54.993 -94.361 20.142 -690.000 224.854 -2714.881 -0.730 -1.066 -1.225 -0.07 0.64 -0.75 0.15
1 7.74 774 1.551 -9.031 3.884 62.561 -89.447 33.112 -690.000 224.854 -2714.881 -2.376 -0.582 -2.166 -0.08 0.64 -0.75 0.16
1 7.75 775 2.969 -9.735 4.554 39.429 -71.442 44.769 -839.903 329.935 -2864.934 -3.807 0.144 -2.724 -0.08 0.63 -0.75 0.16
1 7.76 776 3.716 -10.286 3.927 8.423 -30.182 49.713 -1079.896 314.945 -2774.992 -4.591 0.711 -2.031 -0.08 0.63 -0.75 0.17
1 7.77 777 3.318 -9.606 3.180 9.735 -11.322 41.046 -1079.896 314.945 -2774.992 -4.254 0.041 -1.262 -0.08 0.63 -0.75 0.17
1 7.78 778 1.930 -8.409 3.204 6.317 0.641 17.426 -1004.945 164.893 -2729.872 -2.935 -1.140 -1.242 -0.08 0.63 -0.75 0.18
1 7.79 779 0.924 -8.299 3.151 -9.735 8.026 0.610 -1004.945 164.893 -2729.872 -1.925 -1.248 -1.175 -0.08 0.63 -0.75 0.18
1 7.80 780 0.283 -8.567 2.686 -19.379 13.977 -16.602 -974.965 209.863 -2729.872 -1.264 -0.983 -0.719 -0.08 0.63 -0.75 0.18
1 7.81 781 -0.019 -8.892 2.059 -13.916 14.374 -31.525 -974.965 209.863 -2729.872 -0.925 -0.666 -0.113 -0.08 0.63 -0.75 0.17
1 7.82 782 -0.259 -9.156 1.757 -2.502 12.543 -40.283 -929.994 284.964 -2804.973 -0.632 -0.410 0.176 -0.08 0.63 -0.75 0.17
1 7.83 783 -0.508 -9.448 2.026 0.549 9.277 -49.011 -914.854 29.980 -2894.914 -0.318 -0.125 -0.095 -0.08 0.63 -0.76 0.17
1 7.84 784 -0.584 -9.596 2.097 -3.113 8.240 -47.272 -914.854 29.980 -2894.914 -0.169 0.019 -0.164 -0.09 0.63 -0.76 0.16
1 7.85 785 -0.101 -9.410 1.791 -0.366 0.885 -38.574 -989.955 254.984 -2684.901 -0.520 -0.179 0.137 -0.09 0.63 -0.76 0.16
1 7.86 786 0.101 -9.256 1.954 1.709 -1.221 -36.408 -989.955 254.984 -2684.901 -0.662 -0.336 -0.025 -0.09 0.63 -0.76 0.16
1 7.87 787 0.843 -9.141 2.198 4.181 -0.336 -31.372 -839.903 149.902 -2789.982 -1.347 -0.452 -0.261 -0.09 0.63 -0.76 0.15
1 7.88 788 1.125 -8.835 2.107 5.341 -0.244 -27.222 -839.903 149.902 -2789.982 -1.574 -0.760 -0.161 -0.09 0.63 -0.76 0.15
1 7.89 789 1.302 -8.442 2.035 6.439 0.885 -25.696 -989.955 149.902 -2759.852 -1.700 -1.152 -0.078 -0.1 0.63 -0.76 0.15
1 7.90 790 1.116 -8.318 1.978 7.172 5.981 -27.405 -1004.945 164.893 -2669.911 -1.469 -1.276 -0.009 -0.1 0.62 -0.76 0.15
1 7.91 791 1.087 -8.308 1.920 3.845 9.216 -26.123 -1004.945 164.893 -2669.911 -1.400 -1.285 0.060 -0.1 0.62 -0.76 0.15
1 7.92 792 0.498 -8.572 1.762 4.700 12.024 -24.078 -1004.945 164.893 -2774.992 -0.738 -1.020 0.232 -0.1 0.62 -0.76 0.14
1 7.93 793 0.397 -8.509 1.781 5.920 12.726 -23.102 -1004.945 164.893 -2774.992 -0.606 -1.082 0.222 -0.1 0.62 -0.76 0.14
1 7.94 794 -0.115 -8.595 1.753 8.789 13.062 -20.416 -1079.896 314.945 -2774.992 -0.064 -0.993 0.263 -0.1 0.62 -0.76 0.14
1 7.95 795 -0.101 -8.658 1.796 10.315 9.827 -16.235 -1079.896 314.945 -2774.992 -0.052 -0.929 0.233 -0.1 0.62 -0.76 0.14
1 7.96 796 -0.134 -8.619 1.891 9.705 8.637 -13.855 -1139.857 149.902 -2714.881 0.003 -0.964 0.153 -0.1 0.62 -0.77 0.13
1 7.97 797 -0.057 -8.758 1.891 7.507 8.789 -11.658 -1184.978 164.893 -2699.891 -0.055 -0.822 0.168 -0.1 0.62 -0.77 0.13
1 7.98 798 0.220 -9.208 1.642 4.334 7.935 -7.202 -1184.978 164.893 -2699.891 -0.318 -0.370 0.427 -0.1 0.62 -0.77 0.13
1 7.99 799 0.206 -9.414 1.480 6.836 8.942 -3.998 -1154.998 164.893 -2849.943 -0.292 -0.163 0.596 -0.1 0.62 -0.77 0.13
1 8.00 800 0.297 -9.232 1.437 7.416 6.195 -1.068 -1139.857 299.955 -2894.914 -0.372 -0.342 0.655 -0.1 0.62 -0.77 0.13
1 8.01 801 0.484 -9.094 1.288 5.188 6.012 -0.183 -1199.968 149.902 -2789.982 -0.555 -0.479 0.810 -0.1 0.62 -0.77 0.13
1 8.02 802 0.661 -9.137 0.991 3.693 6.622 0.336 -1199.968 149.902 -2789.982 -0.729 -0.435 1.110 -0.1 0.62 -0.77 0.13
1 8.03 803 0.915 -8.993 1.006 3.021 7.782 1.892 -1064.906 74.951 -2939.885 -0.980 -0.579 1.095 -0.1 0.62 -0.77 0.13
1 8.04 804 0.939 -8.892 0.895 -1.007 9.277 2.563 -1184.978 119.922 -2774.992 -1.002 -0.680 1.203 -0.1 0.62 -0.77 0.13
1 8.05 805 1.020 -8.485 0.316 -3.693 6.805 5.890 -1184.978 119.922 -2774.992 -1.082 -1.089 1.772 -0.1 0.62 -0.77 0.13
1 8.06 806 1.077 -7.896 0.235 -6.683 6.744 7.904 -1199.968 179.883 -2969.865 -1.140 -1.682 1.838 -0.1 0.62 -0.77 0.13
1 8.07 807 1.374 -7.968 0.072 -30.609 16.388 11.871 -1094.887 254.984 -2864.934 -1.466 -1.616 1.970 -0.1 0.62 -0.77 0.13
1 8.08 808 1.341 -9.228 -0.019 -39.612 24.536 15.503 -1079.896 44.971 -2804.973 -1.456 -0.367 2.012 -0.1 0.62 -0.76 0.13
1 8.09 809 1.159 -10.094 0.192 -33.356 29.877 19.409 -1079.896 44.971 -2804.973 -1.300 0.487 1.738 -0.1 0.63 -0.76 0.13
1 8.10 810 0.742 -10.540 1.221 -20.538 31.128 20.355 -1169.988 29.980 -2864.934 -0.909 0.922 0.652 -0.09 0.63 -0.76 0.13
1 8.11 811 0.177 -10.449 2.107 -14.221 26.672 17.944 -1079.896 119.922 -2879.924 -0.373 0.825 -0.268 -0.09 0.63 -0.76 0.13
1 8.12 812 -0.824 -10.305 2.634 -20.599 17.059 17.639 -1079.896 119.922 -2879.924 0.600 0.677 -0.818 -0.09 0.63 -0.76 0.13
1 8.13 813 -0.776 -10.391 1.925 -22.888 1.709 15.595 -1019.936 179.883 -2714.881 0.520 0.760 -0.134 -0.09 0.63 -0.76 0.13
1 8.14 814 -0.287 -9.932 0.848 -15.167 -6.836 20.355 -1154.998 209.863 -2804.973 0.002 0.296 0.916 -0.09 0.63 -0.76 0.13
1 8.15 815 -0.345 -8.830 -0.445 -12.726 14.923 37.964 -1034.926 239.994 -2699.891 -0.007 -0.812 2.159 -0.09 0.64 -0.76 0.13
1 8.16 816 -0.546 -9.079 -0.067 -19.684 30.365 49.164 -1034.926 239.994 -2699.891 0.131 -0.567 1.746 -0.08 0.64 -0.75 0.13
1 8.17 817 -1.360 -11.919 3.577 -26.611 57.709 42.511 -869.883 254.984 -2609.950 0.863 2.270 -1.937 -0.08 0.64 -0.75 0.13
1 8.18 818 -4.463 -18.565 1.944 -62.988 81.513 -19.745 -1004.945 239.994 -2729.872 3.907 8.910 -0.361 -0.07 0.64 -0.75 0.13
1 8.19 819 -3.481 -16.171 -0.991 20.203 -23.895 -14.740 -1004.945 239.994 -2729.872 2.947 6.502 2.495 -0.07 0.65 -0.75 0.13
1 8.20 820 -0.436 -10.803 2.911 11.780 -15.106 -40.466 -854.893 239.994 -2699.891 -0.063 1.142 -1.345 -0.08 0.64 -0.75 0.13
1 8.21 821 0.259 -13.743 0.412 -58.716 -15.106 -35.706 -869.883 179.883 -2609.950 -0.695 4.087 1.205 -0.08 0.64 -0.75 0.13
1 8.22 822 2.849 -15.156 1.537 8.637 -19.013 -18.524 -824.913 89.941 -2804.973 -3.179 5.477 -0.035 -0.09 0.65 -0.75 0.13
1 8.23 823 3.429 -12.843 1.240 16.937 3.448 -8.148 -824.913 89.941 -2804.973 -3.730 3.167 0.286 -0.09 0.64 -0.75 0.12
1 8.24 824 3.563 -11.224 1.073 -9.216 12.756 6.195 -1094.887 74.951 -2564.979 -3.857 1.551 0.471 -0.09 0.64 -0.75 0.12
1 8.25 825 3.433 -10.750 1.116 -31.799 26.154 21.271 -1019.936 104.932 -2504.868 -3.745 1.074 0.406 -0.09 0.64 -0.75 0.12
1 8.26 826 2.749 -10.607 1.370 -36.743 46.204 30.945 -1019.936 104.932 -2504.868 -3.102 0.924 0.101 -0.08 0.65 -0.75 0.12
1 8.27 827 1.101 -10.645 2.035 -14.038 58.472 17.273 -1004.945 209.863 -2624.940 -1.510 0.957 -0.618 -0.08 0.65 -0.75 0.12
1 8.28 828 0.230 -10.501 2.734 7.294 50.995 2.991 -944.984 224.854 -2609.950 -0.682 0.810 -1.348 -0.08 0.65 -0.75 0.12
1 8.29 829 -0.709 -8.955 4.070 20.203 46.539 -10.590 -914.854 254.984 -2639.930 0.238 -0.731 -2.653 -0.07 0.65 -0.75 0.12
1 8.30 830 -1.053 -8.509 4.238 18.463 47.791 -15.625 -914.854 254.984 -2639.930 0.592 -1.170 -2.775 -0.07 0.65 -0.75 0.11
1 8.31 831 -2.615 -7.968 4.080 7.629 52.551 -25.726 -839.903 224.854 -2714.881 2.168 -1.706 -2.578 -0.07 0.65 -0.75 0.11
1 8.32 832 -3.529 -8.121 3.318 1.892 47.241 -28.259 -869.883 254.984 -2609.950 3.096 -1.549 -1.789 -0.06 0.65 -0.75 0.11
1 8.33 833 -3.663 -8.083 2.768 4.486 35.034 -29.450 -869.883 254.984 -2609.950 3.241 -1.585 -1.221 -0.06 0.65 -0.75 0.11
1 8.34 834 -2.083 -8.710 2.413 15.381 12.299 -27.618 -854.893 239.994 -2669.911 1.674 -0.955 -0.846 -0.06 0.65 -0.75 0.1
1 8.35 835 -0.771 -9.237 2.538 9.552 7.874 -24.719 -899.864 89.941 -2594.959 0.382 -0.424 -0.941 -0.06 0.64 -0.76 0.1
1 8.36 836 0.335 -10.300 2.725 -3.906 10.773 -17.822 -929.994 209.863 -2669.911 -0.666 0.643 -1.092 -0.06 0.64 -0.76 0.1
1 8.37 837 0.479 -10.319 2.557 -6.714 12.177 -13.275 -929.994 209.863 -2669.911 -0.785 0.661 -0.924 -0.06 0.64 -0.76 0.1
1 8.38 838 -0.172 -9.558 2.433 -5.798 17.151 1.068 -824.913 119.922 -2774.992 -0.120 -0.101 -0.802 -0.06 0.64 -0.76 0.1
1 8.39 839 -0.541 -9.438 2.437 -8.820 17.242 10.986 -869.883 74.951 -2534.999 0.242 -0.221 -0.810 -0.06 0.64 -0.76 0.1
1 8.40 840 -1.331 -9.505 2.452 -9.522 18.585 21.759 -869.883 74.951 -2534.999 1.008 -0.154 -0.831 -0.06 0.64 -0.76 0.1
1 8.41 841 -2.145 -9.390 2.251 -6.042 19.684 27.496 -779.942 209.863 -2699.891 1.778 -0.269 -0.636 -0.06 0.64 -0.76 0.1
1 8.42 842 -2.682 -9.256 2.016 -2.258 10.193 26.459 -794.932 254.984 -2564.979 2.258 -0.401 -0.403 -0.05 0.64 -0.76 0.1
1 8.43 843 -2.591 -9.386 1.935 -4.669 4.211 27.832 -794.932 254.984 -2564.979 2.110 -0.269 -0.321 -0.05 0.64 -0.76 0.1
1 8.44 844 -2.313 -9.371 1.834 -6.775 2.167 30.853 -764.952 179.883 -2789.982 1.717 -0.278 -0.227 -0.05 0.64 -0.76 0.1
1 8.45 845 -2.313 -9.366 1.642 -7.446 -1.373 30.548 -854.893 209.863 -2594.959 1.659 -0.280 -0.042 -0.05 0.65 -0.76 0.11
1 8.46 846 -2.021 -9.429 1.719 -7.202 -6.897 29.175 -779.942 44.971 -2624.940 1.311 -0.215 -0.127 -0.05 0.65 -0.75 0.11
1 8.47 847 -1.729 -9.156 1.657 -6.317 -9.003 26.550 -779.942 44.971 -2624.940 0.970 -0.486 -0.073 -0.04 0.65 -0.75 0.11
1 8.48 848 -1.374 -9.046 1.561 -6.256 -12.512 24.201 -704.991 209.863 -2774.992 0.572 -0.593 0.018 -0.04 0.65 -0.75 0.11
1 8.49 849 -0.895 -8.600 1.580 -7.202 -12.482 22.980 -629.890 119.922 -2774.992 0.055 -1.036 -0.007 -0.04 0.65 -0.75 0.12
1 8.50 850 -0.814 -8.615 1.542 -6.653 -11.658 21.698 -629.890 119.922 -2774.992 -0.060 -1.020 0.025 -0.04 0.65 -0.75 0.12
1 8.51 851 -0.757 -8.524 1.547 -3.326 -11.444 17.914 -824.913 239.994 -2729.872 -0.171 -1.108 0.008 -0.04 0.65 -0.75 0.12
1 8.52 852 -0.718 -8.519 1.408 -1.404 -11.597 14.771 -839.903 179.883 -2684.901 -0.230 -1.111 0.145 -0.04 0.65 -0.75 0.12
1 8.53 853 -0.757 -8.461 1.499 0.824 -10.834 12.512 -674.860 209.863 -2549.989 -0.209 -1.166 0.056 -0.04 0.65 -0.75 0.12
1 8.54 854 -0.895 -8.471 1.499 2.563 -11.261 9.644 -674.860 209.863 -2549.989 -0.084 -1.154 0.061 -0.04 0.65 -0.75 0.13
1 8.55 855 -0.790 -8.595 1.480 4.578 -12.329 6.928 -794.932 104.932 -2684.901 -0.198 -1.028 0.087 -0.04 0.65 -0.75 0.13
1 8.56 856 -0.824 -8.725 1.494 7.355 -14.435 2.441 -690.000 149.902 -2684.901 -0.170 -0.896 0.084 -0.04 0.65 -0.75 0.13
1 8.57 857 -0.848 -8.505 1.575 7.446 -12.360 1.129 -690.000 149.902 -2684.901 -0.145 -1.114 0.016 -0.04 0.65 -0.75 0.13
1 8.58 858 -0.709 -8.433 1.461 5.493 -10.834 0.397 -794.932 224.854 -2759.852 -0.282 -1.184 0.145 -0.04 0.65 -0.75 0.13
1 8.59 859 -0.891 -8.528 1.393 -0.031 -8.057 -3.296 -690.000 254.984 -2789.982 -0.091 -1.086 0.230 -0.05 0.64 -0.75 0.13
1 8.60 860 -1.192 -8.251 1.049 -2.411 -6.409 -4.883 -674.860 164.893 -2699.891 0.220 -1.364 0.577 -0.05 0.64 -0.75 0.13
1 8.61 861 -1.164 -8.117 0.986 -4.608 -8.301 -8.728 -674.860 164.893 -2699.891 0.203 -1.500 0.637 -0.05 0.64 -0.75 0.13
1 8.62 862 -1.144 -8.131 0.737 -9.308 -10.315 -12.817 -839.903 224.854 -2714.881 0.202 -1.489 0.880 -0.05 0.64 -0.75 0.13
1 8.63 863 -1.097 -8.145 0.785 -15.198 -9.399 -13.245 -749.961 314.945 -2729.872 0.177 -1.479 0.818 -0.05 0.64 -0.75 0.13
1 8.64 864 -1.111 -8.528 0.206 -21.210 -11.169 -15.503 -749.961 314.945 -2729.872 0.215 -1.101 1.376 -0.05 0.65 -0.75 0.13
1 8.65 865 -0.852 -8.868 0.105 -21.515 -11.932 -17.029 -659.870 104.932 -2714.881 -0.017 -0.768 1.449 -0.05 0.65 -0.75 0.13
1 8.66 866 -0.886 -9.386 0.311 -17.242 -9.827 -17.365 -839.903 224.854 -2609.950 0.074 -0.266 1.179 -0.06 0.65 -0.75 0.13
1 8.67 867 -1.116 -9.046 0.263 -15.472 -11.169 -19.257 -779.942 119.922 -2699.891 0.332 -0.613 1.196 -0.06 0.65 -0.75 0.13
1 8.68 868 -0.972 -8.983 0.412 -17.578 -13.550 -20.447 -779.942 119.922 -2699.891 0.219 -0.682 1.019 -0.06 0.65 -0.75 0.13
1 8.69 869 -0.963 -9.232 0.421 -20.813 -11.108 -19.226 -824.913 44.971 -2699.891 0.242 -0.441 0.977 -0.06 0.65 -0.75 0.13
1 8.70 870 -1.068 -9.587 0.589 -22.186 -6.897 -17.273 -974.965 89.941 -2774.992 0.376 -0.093 0.773 -0.06 0.65 -0.74 0.13
1 8.71 871 -1.341 -10.726 1.374 -14.099 -3.052 -13.062 -974.965 89.941 -2774.992 0.673 1.040 -0.049 -0.06 0.65 -0.74 0.13
1 8.72 872 -1.269 -11.172 1.580 -4.395 0.183 -8.514 -944.984 149.902 -2714.881 0.618 1.480 -0.280 -0.07 0.66 -0.74 0.13
1 8.73 873 -0.728 -10.425 1.168 -3.204 0.549 -8.057 -944.984 149.902 -2609.950 0.105 0.730 0.121 -0.07 0.66 -0.74 0.12
1 8.74 874 -0.541 -10.434 1.092 -7.446 2.167 -8.514 -1019.936 149.902 -2714.881 -0.069 0.738 0.190 -0.07 0.66 -0.74 0.12
1 8.75 875 -0.503 -10.415 0.690 -25.055 9.613 -8.545 -1019.936 149.902 -2714.881 -0.093 0.714 0.567 -0.07 0.66 -0.74 0.12
1 8.76 876 -0.627 -10.123 -0.168 -32.837 9.125 -12.543 -1004.945 239.994 -2699.891 0.046 0.416 1.379 -0.07 0.66 -0.74 0.12
1 8.77 877 -0.642 -9.759 -0.972 -34.699 4.456 -18.311 -944.984 74.951 -2714.881 0.082 0.043 2.125 -0.07 0.66 -0.74 0.12
1 8.78 878 -0.809 -10.774 0.857 -23.438 -1.678 -24.628 -944.984 74.951 -2714.881 0.279 1.049 0.232 -0.07 0.66 -0.74 0.12
1 8.79 879 -0.014 -15.271 2.026 4.456 -12.909 -17.792 -914.854 254.984 -2684.901 -0.479 5.538 -0.987 -0.07 0.66 -0.73 0.12
1 8.80 880 1.829 -15.716 2.888 43.121 -12.726 23.834 -974.965 209.863 -2699.891 -2.296 5.986 -1.815 -0.08 0.66 -0.74 0.12
1 8.81 881 1.532 -12.599 2.188 61.585 3.632 29.389 -1019.936 179.883 -2459.897 -2.037 2.880 -1.036 -0.07 0.66 -0.74 0.12
1 8.82 882 0.292 -9.951 3.041 37.750 9.491 30.670 -1019.936 179.883 -2459.897 -0.846 0.246 -1.793 -0.07 0.66 -0.74 0.12
1 8.83 883 -0.326 -11.608 3.639 -6.409 25.482 32.623 -1079.896 359.916 -2594.959 -0.266 1.912 -2.343 -0.07 0.65 -0.74 0.13
1 8.84 884 -1.891 -13.509 2.150 -27.283 38.117 32.501 -1034.926 164.893 -2729.872 1.246 3.813 -0.876 -0.07 0.66 -0.74 0.13
1 8.85 885 -3.012 -13.006 1.168 16.510 18.616 17.700 -1034.926 164.893 -2729.872 2.314 3.309 0.069 -0.06 0.66 -0.74 0.13
1 8.86 886 -2.610 -9.007 1.561 30.609 4.578 5.493 -929.994 209.863 -2774.992 1.878 -0.685 -0.314 -0.06 0.66 -0.74 0.13
1 8.87 887 -2.480 -7.762 2.040 10.956 8.362 -2.869 -929.994 209.863 -2774.992 1.729 -1.923 -0.749 -0.06 0.66 -0.74 0.13
1 8.88 888 -2.888 -8.428 2.107 -29.144 14.313 -3.876 -914.854 224.854 -2639.930 2.137 -1.256 -0.806 -0.06 0.66 -0.74 0.13
1 8.89 889 -2.610 -9.208 1.484 -24.475 3.998 -0.916 -914.854 224.854 -2639.930 1.855 -0.481 -0.224 -0.06 0.66 -0.74 0.13
1 8.90 890 -1.489 -9.544 1.561 5.432 -15.900 2.411 -824.913 44.971 -2669.911 0.721 -0.148 -0.323 -0.06 0.66 -0.74 0.13
1 8.91 891 0.330 -9.405 2.428 34.729 -27.069 8.789 -869.883 179.883 -2789.982 -1.106 -0.282 -1.164 -0.06 0.66 -0.74 0.13
1 8.92 892 2.126 -9.697 3.520 38.910 -19.013 25.055 -869.883 179.883 -2789.982 -2.907 0.019 -2.188 -0.06 0.65 -0.74 0.13
1 8.93 893 4.286 -10.621 3.855 24.597 2.106 33.753 -899.864 164.893 -2729.872 -5.074 0.955 -2.445 -0.06 0.65 -0.74 0.13
1 8.94 894 4.367 -10.535 3.682 16.693 27.344 36.102 -899.864 164.893 -2729.872 -5.200 0.879 -2.229 -0.06 0.65 -0.75 0.13
1 8.95 895 3.151 -9.438 3.309 16.815 48.706 22.797 -869.883 0.000 -2789.982 -4.095 -0.200 -1.810 -0.05 0.65 -0.75 0.14
1 8.96 896 1.959 -8.782 3.338 12.207 57.892 8.392 -869.883 0.000 -2789.982 -2.926 -0.850 -1.814 -0.05 0.65 -0.75 0.13
1 8.97 897 0.986 -9.036 3.175 4.150 64.179 -6.256 -704.991 89.941 -2909.904 -1.950 -0.593 -1.630 -0.05 0.65 -0.75 0.13
1 8.98 898 0.283 -9.548 2.931 0.977 68.543 -20.935 -794.932 74.951 -2759.852 -1.229 -0.081 -1.377 -0.04 0.65 -0.75 0.13
1 8.99 899 -0.019 -9.912 2.466 6.531 69.519 -33.997 -794.932 74.951 -2759.852 -0.897 0.280 -0.908 -0.04 0.65 -0.75 0.12
1 9.00 900 0.105 -10.027 2.428 16.937 68.421 -47.241 -674.860 44.971 -2879.924 -0.976 0.393 -0.858 -0.04 0.65 -0.75 0.11
1 9.01 901 0.637 -10.046 2.461 16.083 68.299 -51.819 -674.860 44.971 -2879.924 -1.449 0.411 -0.869 -0.04 0.65 -0.75 0.11
1 9.02 902 0.876 -10.051 2.399 12.848 69.428 -50.690 -869.883 104.932 -2789.982 -1.622 0.414 -0.783 -0.04 0.65 -0.76 0.1
1 9.03 903 0.943 -9.941 2.346 8.026 74.280 -45.136 -749.961 119.922 -2774.992 -1.551 0.300 -0.695 -0.04 0.64 -0.76 0.09
1 9.04 904 0.857 -9.821 2.164 4.364 75.104 -40.589 -659.870 104.932 -2714.881 -1.405 0.179 -0.504 -0.03 0.64 -0.76 0.08
1 9.05 905 0.656 -9.855 2.045 2.350 75.867 -35.919 -674.860 44.971 -2849.943 -1.154 0.210 -0.380 -0.03 0.64 -0.76 0.08
1 9.06 906 0.752 -9.673 2.145 3.967 77.057 -30.975 -674.860 44.971 -2849.943 -1.208 0.027 -0.478 -0.03 0.64 -0.76 0.07
1 9.07 907 0.737 -9.802 2.026 6.653 77.820 -24.597 -704.991 164.893 -2849.943 -1.159 0.155 -0.353 -0.03 0.64 -0.76 0.07
1 9.08 908 0.747 -9.572 2.375 10.651 78.217 -22.522 -704.991 164.893 -2849.943 -1.140 -0.074 -0.694 -0.02 0.64 -0.76 0.06
1 9.09 909 0.670 -9.515 2.322 14.221 78.705 -19.745 -494.978 14.990 -2909.904 -1.039 -0.130 -0.626 -0.02 0.64 -0.76 0.05
1 9.10 910 0.541 -9.371 2.246 16.357 80.384 -17.456 -704.991 119.922 -2849.943 -0.876 -0.267 -0.503 -0.02 0.64 -0.77 0.04
1 9.11 911 0.690 -9.625 2.222 17.761 80.811 -17.120 -659.870 149.902 -2864.934 -1.012 -0.009 -0.454 -0.01 0.64 -0.77 0.04
1 9.12 912 0.694 -9.745 2.255 18.677 82.520 -15.778 -629.890 -119.922 -2909.904 -1.007 0.116 -0.460 -0.01 0.64 -0.77 0.04
1 9.13 913 0.651 -9.544 2.164 18.951 85.877 -14.435 -629.890 -119.922 -2909.904 -0.955 -0.080 -0.340 -0.01 0.64 -0.77 0.03
1 9.14 914 0.407 -9.376 2.054 17.242 87.830 -14.130 -449.857 89.941 -2909.904 -0.705 -0.243 -0.202 -0 0.64 -0.77 0.03
1 9.15 915 0.302 -9.343 1.968 12.207 88.867 -14.587 -449.857 89.941 -2909.904 -0.597 -0.272 -0.092 0 0.64 -0.77 0.02
1 9.16 916 0.374 -9.285 1.786 10.132 90.882 -14.954 -389.896 74.951 -2969.865 -0.667 -0.326 0.107 0.01 0.64 -0.77 0.02
1 9.17 917 0.225 -9.323 1.743 10.925 92.072 -14.465 -344.925 44.971 -2984.855 -0.517 -0.282 0.176 0.01 0.63 -0.77 0.01
1 9.18 918 0.383 -9.366 1.801 9.552 91.767 -15.167 -449.857 -164.893 -2984.855 -0.675 -0.237 0.131 0.02 0.63 -0.77 0
1 9.19 919 0.311 -9.414 1.858 9.247 92.652 -16.113 -254.984 -29.980 -3044.966 -0.602 -0.187 0.084 -0.02 -0.63 0.77 0
1 9.20 920 0.369 -9.304 1.537 9.674 90.546 -16.968 -254.984 -29.980 -3044.966 -0.658 -0.295 0.415 -0.03 -0.63 0.77 0.01
1 9.21 921 0.479 -9.218 1.475 9.857 88.501 -16.693 -179.883 0.000 -2894.914 -0.764 -0.379 0.486 -0.03 -0.63 0.77 0.02
1 9.22 922 0.713 -9.505 1.681 6.989 89.630 -15.472 -179.883 0.000 -2894.914 -0.995 -0.091 0.288 -0.03 -0.63 0.77 0.02
1 9.23 923 0.302 -9.524 1.714 10.559 90.119 -12.939 -299.955 -44.971 -3029.976 -0.579 -0.070 0.260 -0.04 -0.63 0.77 0.03
1 9.24 924 -0.177 -9.515 1.571 8.911 87.952 -10.590 -164.893 -44.971 -2954.875 -0.105 -0.076 0.424 -0.05 -0.63 0.77 0.03
1 9.25 925 -0.057 -9.237 1.652 8.881 87.097 -9.796 -209.863 0.000 -2894.914 -0.233 -0.352 0.350 -0.05 -0.63 0.77 0.04
1 9.26 926 0.225 -8.792 1.398 5.829 85.877 -6.622 0.000 0.000 -2939.885 -0.527 -0.795 0.612 -0.05 -0.63 0.78 0.04
1 9.27 927 0.627 -8.902 1.302 -1.282 90.241 -3.876 0.000 0.000 -2939.885 -0.943 -0.684 0.708 -0.06 -0.63 0.77 0.05
1 9.28 928 0.560 -9.568 1.374 -8.179 97.718 0.305 -59.961 -74.951 -3194.869 -0.893 -0.021 0.624 -0.06 -0.63 0.77 0.05
1 9.29 929 -0.034 -9.793 1.130 -8.698 104.035 4.883 -59.961 -74.951 -3194.869 -0.324 0.201 0.848 -0.07 -0.63 0.77 0.06
1 9.30 930 -0.527 -9.778 1.025 -5.402 97.840 3.387 59.961 0.000 -2969.865 0.137 0.183 0.930 -0.07 -0.63 0.77 0.06
1 9.31 931 -0.268 -9.620 1.240 -4.028 91.065 0.641 89.941 -119.922 -3104.927 -0.155 0.022 0.695 -0.08 -0.63 0.77 0.06
1 9.32 932 0.077 -9.821 1.465 -0.885 90.027 3.845 134.912 -74.951 -2939.885 -0.552 0.220 0.439 -0.09 -0.63 0.77 0.07
1 9.33 933 -0.110 -9.793 1.346 1.312 91.919 9.827 164.893 -89.941 -2909.904 -0.394 0.191 0.548 -0.1 -0.63 0.77 0.08
1 9.34 934 -0.359 -9.855 1.360 5.371 88.684 12.634 164.893 -89.941 -2909.904 -0.183 0.253 0.526 -0.1 -0.63 0.77 0.08
1 9.35 935 -0.484 -9.812 1.393 9.033 83.008 12.299 194.873 -44.971 -2909.904 -0.099 0.212 0.491 -0.11 -0.63 0.77 0.08
1 9.36 936 -0.426 -9.654 1.690 14.893 76.844 10.315 194.873 -44.971 -2909.904 -0.195 0.058 0.199 -0.11 -0.63 0.77 0.08
1 9.37 937 -0.393 -9.505 1.920 14.557 73.487 8.728 569.929 -89.941 -2879.924 -0.264 -0.086 -0.019 -0.12 -0.62 0.77 0.09
1 9.38 938 -0.034 -9.548 1.920 11.871 72.113 7.965 419.876 -44.971 -2774.992 -0.655 -0.038 -0.004 -0.12 -0.62 0.77 0.09
1 9.39 939 -0.105 -9.903 2.069 9.003 72.510 6.989 524.958 -89.941 -2879.924 -0.637 0.325 -0.132 -0.13 -0.62 0.77 0.1
1 9.40 940 -0.354 -10.070 2.030 9.277 72.571 5.066 434.867 -224.854 -2894.914 -0.413 0.496 -0.087 -0.13 -0.62 0.77 0.1
1 9.41 941 -0.752 -10.008 2.164 9.674 71.411 3.662 434.867 -224.854 -2894.914 -0.040 0.437 -0.215 -0.14 -0.62 0.77 0.1
1 9.42 942 -1.235 -10.224 2.576 10.498 68.878 1.068 599.909 -164.893 -2774.992 0.420 0.656 -0.620 -0.14 -0.62 0.77 0.11
1 9.43 943 -1.566 -10.506 2.926 10.529 65.155 -3.326 599.909 -164.893 -2774.992 0.730 0.942 -0.959 -0.14 -0.62 0.77 0.11
1 9.44 944 -2.332 -10.736 3.318 13.947 57.984 -10.986 659.870 -224.854 -2789.982 1.482 1.176 -1.340 -0.15 -0.61 0.77 0.11
1 9.45 945 -2.366 -10.784 3.563 14.832 51.270 -14.221 689.851 -149.902 -2759.852 1.513 1.226 -1.571 -0.15 -0.61 0.77 0.11
1 9.46 946 -2.193 -10.578 3.534 12.634 44.403 -14.771 689.851 -149.902 -2759.852 1.345 1.023 -1.526 -0.15 -0.61 0.77 0.12
1 9.47 947 -1.350 -10.602 3.582 11.627 38.269 -10.437 734.971 -149.902 -2789.982 0.518 1.052 -1.547 -0.15 -0.61 0.77 0.12
1 9.48 948 -0.326 -10.406 3.323 15.198 35.217 -5.920 734.971 -149.902 -2789.982 -0.504 0.858 -1.273 -0.15 -0.61 0.77 0.12
1 9.49 949 0.139 -10.147 3.386 20.233 35.156 -3.204 839.903 -149.902 -2789.982 -0.970 0.604 -1.315 -0.16 -0.61 0.77 0.13
1 9.50 950 1.001 -9.893 3.524 23.743 40.802 -0.458 839.903 -149.902 -2789.982 -1.835 0.358 -1.423 -0.16 -0.61 0.77 0.13
1 9.51 951 1.250 -9.620 3.635 22.553 52.277 1.343 704.991 -44.971 -2879.924 -2.083 0.093 -1.494 -0.16 -0.6 0.77 0.13
1 9.52 952 1.446 -9.706 3.376 22.095 60.059 -0.427 839.903 -74.951 -2819.963 -2.281 0.188 -1.197 -0.16 -0.6 0.77 0.13
1 9.53 953 1.484 -9.922 3.500 26.093 69.428 -3.815 839.903 -74.951 -2819.963 -2.321 0.412 -1.286 -0.16 -0.6 0.77 0.14
1 9.54 954 0.895 -9.740 3.491 32.105 81.330 -11.597 899.864 -209.863 -2954.875 -1.728 0.248 -1.198 -0.17 -0.6 0.77 0.15
1 9.55 955 0.517 -9.994 3.438 33.661 88.196 -16.846 899.864 -209.863 -2954.875 -1.345 0.513 -1.099 -0.17 -0.59 0.77 0.15
1 9.56 956 0.172 -10.276 3.237 34.180 95.398 -18.189 899.864 -209.863 -2729.872 -0.996 0.807 -0.851 -0.17 -0.59 0.77 0.16
1 9.57 957 -0.402 -10.516 3.213 36.774 101.746 -16.968 899.864 -209.863 -2729.872 -0.422 1.058 -0.783 -0.18 -0.59 0.77 0.16
1 9.58 958 -0.838 -10.559 3.069 39.063 103.882 -17.151 974.965 -314.945 -2774.992 0.002 1.113 -0.596 -0.18 -0.58 0.77 0.17
1 9.59 959 -0.637 -9.864 2.945 42.633 103.241 -17.975 1184.978 -284.964 -2909.904 -0.213 0.432 -0.427 -0.19 -0.58 0.77 0.17
1 9.60 960 -0.153 -9.376 2.978 41.474 105.347 -17.456 1184.978 -284.964 -2909.904 -0.710 -0.042 -0.411 -0.19 -0.58 0.77 0.18
1 9.61 961 0.053 -9.199 2.849 37.201 116.639 -12.756 1079.896 -434.867 -2729.872 -0.944 -0.190 -0.186 -0.2 -0.57 0.77 0.19
1 9.62 962 -0.287 -8.988 2.543 35.156 122.803 -11.261 1079.896 -434.867 -2729.872 -0.627 -0.388 0.159 -0.2 -0.57 0.77 0.2
1 9.63 963 -0.512 -8.801 2.097 33.661 127.716 -14.160 1094.887 -419.876 -2789.982 -0.431 -0.562 0.638 -0.21 -0.56 0.77 0.2
1 9.64 964 -0.613 -8.730 1.901 33.112 130.921 -18.341 1094.887 -419.876 -2789.982 -0.358 -0.623 0.861 -0.22 -0.56 0.77 0.21
1 9.65 965 -0.785 -8.595 1.772 32.227 133.576 -22.614 1409.981 -209.863 -2849.943 -0.211 -0.747 1.015 -0.22 -0.56 0.77 0.22
1 9.66 966 -1.006 -8.730 1.561 32.196 136.078 -28.534 1259.929 -359.916 -2729.872 -0.012 -0.604 1.249 -0.23 -0.55 0.77 0.22
1 9.67 967 -1.101 -8.667 1.475 30.518 137.024 -32.684 1259.929 -359.916 -2729.872 0.066 -0.656 1.361 -0.23 -0.55 0.77 0.23
1 9.68 968 -1.216 -8.777 1.259 28.778 136.902 -37.140 1484.933 -464.997 -2594.959 0.157 -0.533 1.609 -0.24 -0.54 0.77 0.25
1 9.69 969 -1.317 -8.921 1.302 27.832 136.902 -37.506 1484.933 -464.997 -2594.959 0.250 -0.386 1.575 -0.25 -0.54 0.76 0.25
1 9.70 970 -1.484 -9.070 1.437 25.971 136.261 -39.032 1439.962 -434.867 -2624.940 0.410 -0.234 1.448 -0.26 -0.54 0.76 0.26
1 9.71 971 -1.786 -9.098 1.173 23.377 136.689 -38.757 1439.962 -434.867 -2624.940 0.705 -0.203 1.717 -0.26 -0.53 0.76 0.27
1 9.72 972 -1.925 -9.161 1.312 20.416 134.736 -39.032 1664.965 -314.945 -2549.989 0.835 -0.140 1.578 -0.27 -0.53 0.76 0.28
1 9.73 973 -2.188 -9.295 1.121 15.442 133.118 -38.727 1544.894 -254.984 -2504.868 1.089 -0.006 1.764 -0.27 -0.53 0.75 0.28
1 9.74 974 -1.954 -9.419 1.125 13.519 130.097 -38.056 1544.894 -254.984 -2504.868 0.845 0.116 1.749 -0.28 -0.53 0.75 0.29
1 9.75 975 -1.839 -9.448 1.154 11.536 127.778 -37.537 1754.907 -299.955 -2279.865 0.720 0.142 1.707 -0.28 -0.52 0.75 0.3
1 9.76 976 -1.791 -9.333 1.384 9.277 124.604 -38.849 1679.956 -254.984 -2354.966 0.658 0.018 1.443 -0.3 -0.52 0.74 0.31
1 9.77 977 -1.532 -9.271 1.413 6.012 121.796 -39.490 1829.858 -329.935 -2354.966 0.397 -0.049 1.396 -0.3 -0.52 0.74 0.32
1 9.78 978 -1.489 -9.184 1.393 3.265 121.827 -38.971 1829.858 -329.935 -2354.966 0.356 -0.143 1.392 -0.31 -0.51 0.73 0.32
1 9.79 979 -1.628 -9.261 1.379 0.793 122.803 -38.147 1904.959 -299.955 -2174.933 0.497 -0.074 1.381 -0.31 -0.51 0.73 0.33
1 9.80 980 -2.107 -9.309 1.288 -1.617 120.789 -37.506 1754.907 -254.984 -2069.852 0.976 -0.035 1.443 -0.32 -0.51 0.73 0.33
1 9.81 981 -2.380 -9.405 1.226 -3.174 116.822 -37.201 1754.907 -254.984 -2069.852 1.249 0.052 1.473 -0.32 -0.51 0.72 0.34
1 9.82 982 -2.782 -9.635 1.298 -4.700 112.732 -35.706 1919.949 -209.863 -1964.920 1.649 0.273 1.368 -0.33 -0.51 0.72 0.35
1 9.83 983 -2.959 -9.630 1.389 -10.651 107.239 -33.600 1844.848 -164.893 -2039.871 1.818 0.248 1.203 -0.34 -0.51 0.71 0.36
1 9.84 984 -2.964 -9.381 1.451 -15.656 102.753 -31.403 1979.910 -29.980 -1919.949 1.816 -0.012 1.098 -0.34 -0.5 0.71 0.36
1 9.85 985 -2.883 -9.199 1.504 -17.761 100.037 -30.609 1979.910 -29.980 -1919.949 1.728 -0.206 0.997 -0.35 -0.5 0.7 0.37
1 9.86 986 -2.888 -9.079 1.537 -19.623 96.802 -29.755 1994.900 -164.893 -1754.907 1.726 -0.338 0.914 -0.35 -0.5 0.7 0.37
1 9.87 987 -2.825 -8.945 1.652 -22.308 95.825 -29.663 2009.891 -179.883 -1814.868 1.659 -0.485 0.747 -0.35 -0.5 0.7 0.37
1 9.88 988 -2.854 -9.026 1.508 -23.651 94.300 -30.487 2009.891 -179.883 -1814.868 1.684 -0.417 0.837 -0.36 -0.5 0.69 0.38
1 9.89 989 -2.868 -8.926 1.499 -24.017 91.095 -32.715 2054.861 -104.932 -1694.946 1.698 -0.530 0.792 -0.36 -0.5 0.69 0.38
1 9.90 990 -2.715 -8.907 1.499 -24.078 87.281 -36.408 2039.871 -44.971 -1679.956 1.547 -0.563 0.737 -0.37 -0.5 0.68 0.38
1 9.91 991 -2.342 -8.643 1.619 -26.550 82.123 -41.504 1844.848 -164.893 -1529.903 1.202 -0.855 0.509 -0.38 -0.5 0.68 0.39
1 9.92 992 -2.203 -8.595 1.585 -29.755 80.963 -44.647 1844.848 -164.893 -1529.903 1.088 -0.918 0.487 -0.38 -0.5 0.67 0.39
1 9.93 993 -2.150 -8.816 1.642 -32.776 79.071 -47.882 2114.972 164.893 -1424.972 1.068 -0.714 0.369 -0.38 -0.5 0.67 0.4
1 9.94 994 -2.203 -8.902 1.585 -34.363 76.691 -50.965 2009.891 -74.951 -1334.880 1.160 -0.645 0.365 -0.39 -0.5 0.66 0.4
1 9.95 995 -2.308 -9.366 2.164 -30.701 71.350 -55.603 2009.891 -74.951 -1334.880 1.311 -0.198 -0.277 -0.39 -0.5 0.66 0.41
1 9.96 996 -2.160 -9.783 2.227 -25.940 65.582 -55.542 1904.959 104.932 -1259.929 1.213 0.202 -0.396 -0.39 -0.5 0.65 0.41
