COL1	TIME	ACC_X	ACC_Y	ACC_Z	GYR_X	GYR_Y	GYR_Z	MAG_X	MAG_Y	MAG_Z	LACC_X	LACC_Y	LACC_Z	QUAT_X	QUAT_Y	QUAT_Z	QUAT_W
1 0.00 0 0.306 -8.873 4.315 -0.183 -0.793 1.068 116.174 2413.128 -3731.519 -0.002 0.028 -0.106 -0.01 -0.53 0.84 0.05
1 0.01 1 0.412 -8.969 4.315 -0.427 -1.190 0.732 26.083 2503.219 -3821.460 -0.108 0.124 -0.105 -0.01 -0.53 0.84 0.05
1 0.02 2 0.345 -9.022 4.300 -0.732 -1.556 1.160 26.083 2503.219 -3821.460 -0.040 0.177 -0.091 -0.01 -0.53 0.84 0.05
1 0.03 3 0.316 -8.907 4.137 -0.641 -1.251 1.251 26.083 2503.219 -3821.460 -0.011 0.062 0.072 -0.01 -0.53 0.84 0.05
1 0.04 4 0.283 -8.926 4.358 -0.427 -1.648 0.580 131.165 2353.167 -3866.431 0.022 0.081 -0.149 -0.01 -0.53 0.84 0.05
1 0.05 5 0.259 -9.041 4.315 -1.038 -1.129 1.343 41.073 2338.177 -3911.402 0.046 0.196 -0.104 -0.01 -0.53 0.84 0.05
1 0.06 6 0.244 -8.916 4.281 -0.824 -0.977 0.732 41.073 2338.177 -3911.402 0.060 0.072 -0.071 -0.01 -0.53 0.84 0.05
1 0.07 7 0.421 -8.950 4.233 -0.580 -1.343 0.519 146.155 2218.105 -3881.421 -0.117 0.106 -0.023 -0.01 -0.53 0.84 0.05
1 0.08 8 0.230 -8.892 4.224 -0.732 -1.038 1.038 146.155 2293.206 -3836.451 0.075 0.048 -0.013 -0.01 -0.53 0.84 0.05
1 0.09 9 0.263 -8.902 4.262 -1.190 -1.068 1.282 116.174 2383.147 -3806.470 0.041 0.058 -0.051 -0.01 -0.53 0.84 0.05
1 0.10 10 0.345 -8.773 4.291 -0.793 -0.580 1.617 116.174 2383.147 -3806.470 -0.040 -0.071 -0.080 -0.01 -0.53 0.84 0.05
1 0.11 11 0.345 -8.878 4.324 -0.977 -0.549 0.885 71.054 2383.147 -3836.451 -0.040 0.034 -0.113 -0.01 -0.53 0.84 0.05
1 0.12 12 0.273 -8.912 4.329 -0.702 -1.099 1.373 206.116 2398.138 -3716.529 0.031 0.068 -0.117 -0.01 -0.53 0.84 0.05
1 0.13 13 0.263 -8.916 4.353 -0.854 -0.977 1.312 206.116 2398.138 -3716.529 0.041 0.073 -0.141 -0.01 -0.53 0.84 0.05
1 0.14 14 0.192 -8.916 4.305 -0.671 -0.977 1.343 71.054 2458.099 -3806.470 0.113 0.073 -0.093 -0.01 -0.53 0.84 0.05
1 0.15 15 0.326 -8.868 4.338 -1.221 -0.763 0.854 116.174 2383.147 -3911.402 -0.022 0.025 -0.126 -0.01 -0.53 0.84 0.05
1 0.16 16 0.374 -8.888 4.233 -0.885 -0.671 1.495 311.047 2353.167 -3791.480 -0.070 0.045 -0.020 -0.01 -0.53 0.84 0.05
1 0.17 17 0.359 -8.926 4.343 -1.312 -0.641 1.221 311.047 2353.167 -3791.480 -0.055 0.083 -0.130 -0.01 -0.53 0.84 0.05
1 0.18 18 0.383 -8.912 4.329 -1.160 -1.038 1.312 41.073 2488.079 -3761.500 -0.078 0.069 -0.115 -0.01 -0.53 0.84 0.05
1 0.19 19 0.235 -8.950 4.300 -0.824 -0.824 0.275 131.165 2428.118 -3866.431 0.070 0.107 -0.086 -0.01 -0.53 0.84 0.05
1 0.20 20 0.350 -9.041 4.343 -0.641 -1.221 0.824 131.165 2428.118 -3866.431 -0.045 0.198 -0.129 -0.01 -0.53 0.84 0.05
1 0.21 21 0.283 -8.964 4.281 -0.763 -0.305 1.282 161.145 2428.118 -3791.480 0.022 0.122 -0.067 -0.01 -0.53 0.84 0.05
1 0.22 22 0.340 -8.859 4.300 -0.763 -0.671 0.854 206.116 2398.138 -3866.431 -0.036 0.016 -0.086 -0.01 -0.53 0.84 0.05
1 0.23 23 0.335 -8.931 4.295 -0.702 -0.092 1.526 41.073 2338.177 -3806.470 -0.030 0.089 -0.081 -0.01 -0.53 0.84 0.05
1 0.24 24 0.345 -8.835 4.238 -1.190 -0.336 1.129 41.073 2338.177 -3806.470 -0.039 -0.007 -0.023 -0.01 -0.53 0.84 0.05
1 0.25 25 0.268 -8.950 4.329 -0.671 -0.061 0.885 71.054 2383.147 -3806.470 0.038 0.108 -0.114 -0.01 -0.53 0.84 0.05
1 0.26 26 0.345 -8.873 4.267 -0.580 -0.519 0.885 71.054 2383.147 -3836.451 -0.038 0.032 -0.051 -0.01 -0.53 0.84 0.05
1 0.27 27 0.330 -8.792 4.315 -0.488 0.214 1.099 71.054 2383.147 -3836.451 -0.023 -0.050 -0.099 -0.01 -0.53 0.84 0.05
1 0.28 28 0.350 -8.950 4.276 -0.793 0.153 1.129 221.106 2218.105 -3911.402 -0.043 0.109 -0.060 -0.01 -0.53 0.84 0.05
1 0.29 29 0.369 -8.945 4.267 -0.793 0.244 1.221 116.174 2413.128 -3731.519 -0.062 0.104 -0.051 -0.01 -0.53 0.84 0.05
1 0.30 30 0.354 -8.888 4.300 -0.244 0.000 0.824 116.174 2413.128 -3731.519 -0.047 0.046 -0.084 -0.01 -0.53 0.84 0.05
1 0.31 31 0.239 -8.974 4.190 -0.854 0.000 0.977 206.116 2503.219 -3791.480 0.068 0.133 0.026 -0.01 -0.53 0.84 0.05
1 0.32 32 0.321 -9.007 4.315 -0.641 -0.122 1.617 56.063 2398.138 -3866.431 -0.014 0.166 -0.098 -0.01 -0.53 0.84 0.05
1 0.33 33 0.364 -8.912 4.262 -0.916 -0.183 0.885 -3.748 2383.147 -3761.500 -0.057 0.070 -0.045 -0.01 -0.53 0.84 0.05
1 0.34 34 0.374 -9.007 4.319 -1.068 0.183 1.007 -3.748 2383.147 -3761.500 -0.066 0.166 -0.102 -0.01 -0.53 0.84 0.05
1 0.35 35 0.263 -9.017 4.276 -1.190 0.214 0.824 86.044 2428.118 -3821.460 0.045 0.176 -0.059 -0.01 -0.53 0.84 0.05
1 0.36 36 0.311 -8.955 4.310 -0.763 0.061 0.946 86.044 2503.219 -3971.513 -0.004 0.114 -0.092 -0.01 -0.53 0.84 0.05
1 0.37 37 0.335 -8.959 4.224 -0.885 -0.183 1.038 86.044 2503.219 -3971.513 -0.027 0.119 -0.005 -0.01 -0.53 0.84 0.05
1 0.38 38 0.297 -8.868 4.329 -0.580 -0.275 0.977 86.044 2398.138 -3866.431 0.011 0.028 -0.111 -0.01 -0.53 0.84 0.05
1 0.39 39 0.287 -8.969 4.329 -0.793 0.061 1.251 56.063 2278.216 -3746.509 0.021 0.129 -0.110 -0.01 -0.53 0.84 0.05
1 0.40 40 0.417 -9.046 4.286 -1.129 -0.885 0.458 26.083 2398.138 -3926.542 -0.109 0.206 -0.067 -0.01 -0.53 0.84 0.05
1 0.41 41 0.297 -8.950 4.252 -0.732 0.153 0.946 26.083 2398.138 -3926.542 0.011 0.110 -0.034 -0.01 -0.53 0.84 0.05
1 0.42 42 0.359 -8.988 4.257 -1.282 -0.366 1.068 56.063 2323.187 -3866.431 -0.051 0.148 -0.038 -0.01 -0.53 0.84 0.05
1 0.43 43 0.259 -8.945 4.238 -0.946 -0.092 0.916 -3.748 2458.099 -3761.500 0.050 0.105 -0.019 -0.01 -0.53 0.84 0.05
1 0.44 44 0.239 -8.988 4.271 -1.282 -0.092 1.282 -3.748 2458.099 -3761.500 0.068 0.148 -0.053 -0.01 -0.53 0.84 0.05
1 0.45 45 0.469 -8.969 4.338 -0.854 -0.031 1.343 71.054 2488.079 -3761.500 -0.161 0.129 -0.120 -0.01 -0.53 0.84 0.05
1 0.46 46 0.302 -8.969 4.214 -1.160 -0.153 1.007 221.106 2458.099 -3836.451 0.007 0.129 0.005 -0.01 -0.53 0.84 0.05
1 0.47 47 0.239 -8.892 4.391 -1.068 -0.793 1.129 26.083 2353.167 -3821.460 0.069 0.052 -0.173 -0.01 -0.53 0.84 0.05
1 0.48 48 0.239 -8.983 4.257 -0.854 -0.519 0.702 26.083 2353.167 -3821.460 0.069 0.143 -0.038 -0.01 -0.53 0.84 0.05
1 0.49 49 0.225 -8.969 4.252 -0.916 -0.275 1.251 26.083 2323.187 -3716.529 0.083 0.129 -0.033 -0.01 -0.53 0.84 0.05
1 0.50 50 0.326 -8.878 4.262 -1.251 -0.885 0.641 161.145 2398.138 -3791.480 -0.018 0.038 -0.043 -0.01 -0.53 0.84 0.05
1 0.51 51 0.393 -9.003 4.319 -1.007 -0.702 1.038 161.145 2398.138 -3791.480 -0.085 0.163 -0.100 -0.01 -0.53 0.84 0.05
1 0.52 52 0.311 -8.864 4.276 -1.465 -0.183 1.587 26.083 2398.138 -3791.480 -0.004 0.024 -0.057 -0.01 -0.53 0.84 0.05
1 0.53 53 0.345 -8.878 4.372 -1.526 -0.793 1.038 221.106 2458.099 -3806.470 -0.037 0.038 -0.153 -0.01 -0.53 0.84 0.05
1 0.54 54 0.350 -8.926 4.291 -0.885 -0.732 1.282 86.044 2353.167 -3896.412 -0.042 0.086 -0.071 -0.01 -0.53 0.84 0.05
1 0.55 55 0.397 -8.988 4.305 -1.343 -0.153 1.190 86.044 2353.167 -3896.412 -0.090 0.149 -0.085 -0.01 -0.53 0.84 0.05
1 0.56 56 0.153 -8.979 4.262 -1.404 -0.458 1.129 71.054 2383.147 -3881.421 0.155 0.139 -0.043 -0.01 -0.53 0.84 0.05
1 0.57 57 0.273 -8.854 4.247 -1.190 -1.678 1.038 71.054 2413.128 -3761.500 0.035 0.014 -0.029 -0.01 -0.53 0.84 0.05
1 0.58 58 0.292 -8.974 4.353 -1.709 -1.068 1.160 71.054 2413.128 -3761.500 0.015 0.134 -0.134 -0.01 -0.53 0.84 0.05
1 0.59 59 0.397 -8.950 4.233 -1.587 -0.549 1.068 56.063 2473.089 -3866.431 -0.090 0.110 -0.014 -0.01 -0.53 0.84 0.05
1 0.60 60 0.263 -9.117 4.348 -0.793 -1.068 1.190 41.073 2413.128 -3731.519 0.045 0.277 -0.129 -0.01 -0.53 0.84 0.05
1 0.61 61 0.306 -9.003 4.118 -0.519 -1.068 0.854 206.116 2398.138 -3791.480 0.002 0.162 0.101 -0.01 -0.53 0.84 0.05
1 0.62 62 0.206 -8.974 4.147 -0.427 -0.397 1.465 206.116 2398.138 -3791.480 0.102 0.133 0.071 -0.01 -0.53 0.84 0.05
1 0.63 63 0.388 -8.964 4.276 -1.007 -1.038 1.038 -78.699 2263.076 -3881.421 -0.080 0.123 -0.059 -0.01 -0.53 0.84 0.05
1 0.64 64 0.297 -9.041 4.319 -0.732 -0.885 1.495 86.044 2278.216 -3746.509 0.012 0.200 -0.102 -0.01 -0.53 0.84 0.05
1 0.65 65 0.350 -8.983 4.171 -0.916 -1.282 1.312 86.044 2278.216 -3746.509 -0.041 0.143 0.047 -0.01 -0.53 0.84 0.05
1 0.66 66 0.393 -9.079 4.276 -0.580 -1.160 0.854 -18.738 2473.089 -3866.431 -0.084 0.238 -0.059 -0.01 -0.53 0.84 0.05
1 0.67 67 0.249 -8.964 4.271 -1.129 -0.916 1.495 41.073 2488.079 -3701.539 0.060 0.123 -0.055 -0.01 -0.53 0.84 0.05
1 0.68 68 0.287 -8.821 4.243 -0.885 -0.916 1.251 71.054 2488.079 -3701.539 0.022 -0.021 -0.026 -0.01 -0.53 0.84 0.05
1 0.69 69 0.297 -8.940 4.281 -1.007 -0.702 1.556 71.054 2488.079 -3701.539 0.012 0.099 -0.065 -0.01 -0.53 0.84 0.05
1 0.70 70 0.297 -9.012 4.267 -0.885 -1.038 1.678 -48.718 2428.118 -3896.412 0.012 0.171 -0.051 -0.01 -0.53 0.84 0.05
1 0.71 71 0.297 -9.055 4.267 -0.916 -0.610 0.885 -18.738 2473.089 -3821.460 0.012 0.214 -0.051 -0.01 -0.53 0.84 0.04
1 0.72 72 0.340 -8.974 4.204 -0.610 -0.916 1.221 -18.738 2473.089 -3821.460 -0.031 0.132 0.012 -0.01 -0.53 0.84 0.04
1 0.73 73 0.359 -8.926 4.156 -0.916 -0.031 1.190 116.174 2413.128 -3806.470 -0.050 0.084 0.059 -0.01 -0.53 0.84 0.04
1 0.74 74 0.278 -9.050 4.238 -0.824 -0.244 1.343 116.174 2413.128 -3806.470 0.032 0.209 -0.022 -0.01 -0.53 0.84 0.04
1 0.75 75 0.350 -8.902 4.262 -1.129 -0.458 1.282 -48.718 2473.089 -3821.460 -0.040 0.060 -0.047 -0.01 -0.53 0.84 0.04
1 0.76 76 0.374 -8.955 4.281 -1.129 0.000 1.526 -48.718 2473.089 -3821.460 -0.064 0.113 -0.066 -0.01 -0.53 0.84 0.04
1 0.77 77 0.383 -8.916 4.233 -0.641 -0.275 0.702 161.145 2398.138 -3716.529 -0.073 0.075 -0.018 -0.01 -0.53 0.84 0.04
1 0.78 78 0.297 -9.026 4.291 -1.526 -0.122 0.977 71.054 2263.076 -3836.451 0.013 0.184 -0.077 -0.01 -0.53 0.84 0.04
1 0.79 79 0.388 -8.998 4.214 -1.068 -0.244 0.977 71.054 2263.076 -3836.451 -0.078 0.155 -0.000 -0.01 -0.53 0.84 0.04
1 0.80 80 0.206 -8.868 4.238 -1.343 -0.458 0.580 41.073 2413.128 -3911.402 0.104 0.026 -0.025 -0.01 -0.53 0.84 0.04
1 0.81 81 0.273 -8.979 4.271 -1.251 0.000 0.946 41.073 2413.128 -3911.402 0.037 0.136 -0.058 -0.01 -0.53 0.84 0.04
1 0.82 82 0.292 -8.945 4.166 -1.190 -0.153 1.160 116.174 2293.206 -3626.438 0.017 0.102 0.047 -0.01 -0.53 0.84 0.04
1 0.83 83 0.335 -9.007 4.425 -0.946 0.000 1.038 116.174 2293.206 -3626.438 -0.026 0.164 -0.212 -0.01 -0.53 0.84 0.04
1 0.84 84 0.326 -8.844 4.358 -1.038 -0.458 1.190 71.054 2338.177 -3836.451 -0.017 0.002 -0.145 -0.01 -0.53 0.84 0.04
1 0.85 85 0.302 -8.907 4.209 -1.129 0.031 0.854 116.174 2413.128 -3881.421 0.008 0.064 0.004 -0.01 -0.53 0.84 0.04
1 0.86 86 0.177 -8.955 4.329 -0.793 -0.153 1.526 116.174 2413.128 -3881.421 0.132 0.112 -0.116 -0.01 -0.53 0.84 0.04
1 0.87 87 0.417 -8.979 4.300 -0.916 0.214 1.862 71.054 2338.177 -3836.451 -0.108 0.136 -0.087 -0.01 -0.53 0.84 0.04
1 0.88 88 0.354 -8.979 4.180 -0.275 -0.061 0.885 71.054 2338.177 -3836.451 -0.046 0.136 0.033 -0.01 -0.53 0.84 0.04
1 0.89 89 0.359 -8.916 4.291 -1.099 -0.153 1.373 116.174 2383.147 -3806.470 -0.051 0.073 -0.078 -0.01 -0.53 0.84 0.04
1 0.90 90 0.273 -8.983 4.305 -0.977 0.305 1.587 116.174 2383.147 -3806.470 0.036 0.140 -0.092 -0.01 -0.53 0.84 0.04
1 0.91 91 0.287 -8.916 4.209 -1.404 0.000 1.282 86.044 2593.161 -3791.480 0.022 0.073 0.004 -0.01 -0.53 0.84 0.04
1 0.92 92 0.330 -8.749 4.300 -1.160 0.000 1.282 56.063 2353.167 -3821.460 -0.022 -0.095 -0.088 -0.01 -0.53 0.84 0.04
1 0.93 93 0.378 -9.026 4.166 -0.641 0.366 0.946 56.063 2353.167 -3821.460 -0.070 0.183 0.045 -0.01 -0.53 0.84 0.04
1 0.94 94 0.378 -8.983 4.224 -1.251 -0.244 1.068 71.054 2383.147 -3761.500 -0.069 0.139 -0.013 -0.01 -0.53 0.84 0.04
1 0.95 95 0.369 -8.868 4.214 -1.282 0.366 1.282 71.054 2383.147 -3761.500 -0.060 0.024 -0.004 -0.01 -0.53 0.84 0.04
1 0.96 96 0.321 -9.055 4.281 -0.946 0.397 1.007 56.063 2398.138 -3746.509 -0.012 0.211 -0.071 -0.01 -0.53 0.84 0.04
1 0.97 97 0.177 -9.046 4.233 -0.977 -0.153 1.526 56.063 2398.138 -3746.509 0.131 0.201 -0.024 -0.01 -0.53 0.84 0.04
1 0.98 98 0.316 -9.036 4.238 -1.526 0.000 1.526 116.174 2458.099 -3806.470 -0.009 0.191 -0.030 -0.01 -0.53 0.84 0.04
1 0.99 99 0.340 -8.998 4.224 -1.160 0.488 1.129 -33.728 2293.206 -3836.451 -0.034 0.152 -0.016 -0.01 -0.53 0.84 0.04
1 1.00 100 0.455 -9.003 4.271 -1.312 -0.061 1.160 -33.728 2293.206 -3836.451 -0.149 0.157 -0.065 -0.01 -0.53 0.84 0.04
1 1.01 101 0.230 -9.017 4.233 -1.526 0.061 1.801 41.073 2338.177 -3656.418 0.077 0.171 -0.026 -0.01 -0.53 0.84 0.04
1 1.02 102 0.311 -8.916 4.310 -1.129 -0.153 1.221 41.073 2338.177 -3656.418 -0.006 0.070 -0.104 -0.01 -0.53 0.84 0.04
1 1.03 103 0.316 -8.940 4.152 -1.678 -0.427 1.068 86.044 2323.187 -3791.480 -0.011 0.094 0.055 -0.01 -0.53 0.84 0.04
1 1.04 104 0.273 -9.012 4.214 -1.648 -0.458 0.916 41.073 2413.128 -3806.470 0.032 0.166 -0.008 -0.01 -0.53 0.84 0.04
1 1.05 105 0.220 -9.026 4.358 -1.038 -0.610 1.251 116.174 2413.128 -3836.451 0.084 0.180 -0.152 -0.01 -0.53 0.84 0.04
1 1.06 106 0.335 -9.036 4.185 -0.916 -0.610 1.068 -3.748 2563.180 -3836.451 -0.031 0.189 0.020 -0.01 -0.53 0.84 0.04
1 1.07 107 0.263 -8.969 4.224 -0.916 -0.885 1.434 -3.748 2563.180 -3836.451 0.041 0.122 -0.019 -0.01 -0.53 0.84 0.04
1 1.08 108 0.330 -8.959 4.200 -0.885 -1.038 1.099 161.145 2473.089 -3671.408 -0.027 0.112 0.005 -0.01 -0.53 0.84 0.04
1 1.09 109 0.259 -8.849 4.228 -1.556 -1.556 0.946 161.145 2473.089 -3671.408 0.045 0.002 -0.024 -0.01 -0.53 0.84 0.04
1 1.10 110 0.254 -8.935 4.224 -1.282 -1.038 1.770 131.165 2503.219 -3716.529 0.049 0.088 -0.019 -0.01 -0.53 0.84 0.04
1 1.11 111 0.340 -9.046 4.152 -0.977 -0.916 1.465 146.155 2488.079 -3836.451 -0.037 0.198 0.052 -0.01 -0.53 0.84 0.04
1 1.12 112 0.359 -8.902 4.228 -1.251 -1.221 1.556 131.165 2473.089 -3896.412 -0.056 0.054 -0.025 -0.01 -0.53 0.84 0.04
1 1.13 113 0.335 -8.868 4.152 -0.916 -0.977 2.228 86.044 2428.118 -3746.509 -0.032 0.021 0.052 -0.01 -0.53 0.84 0.04
1 1.14 114 0.359 -8.983 4.252 -0.916 -1.129 1.495 86.044 2428.118 -3746.509 -0.056 0.136 -0.049 -0.01 -0.53 0.84 0.04
1 1.15 115 0.220 -9.012 4.228 -1.434 -0.824 1.495 41.073 2263.076 -3806.470 0.083 0.165 -0.025 -0.01 -0.53 0.84 0.04
1 1.16 116 0.383 -8.964 4.238 -0.946 -1.190 1.434 41.073 2263.076 -3806.470 -0.080 0.117 -0.034 -0.01 -0.53 0.84 0.04
1 1.17 117 0.211 -8.998 4.161 -0.702 -0.977 1.495 191.125 2458.099 -3806.470 0.092 0.150 0.041 -0.01 -0.53 0.84 0.04
1 1.18 118 0.297 -8.964 4.214 -0.977 -0.458 0.763 146.155 2338.177 -3806.470 0.005 0.116 -0.012 -0.01 -0.53 0.84 0.04
1 1.19 119 0.215 -8.878 4.180 -0.610 -0.549 1.404 86.044 2398.138 -3716.529 0.087 0.030 0.021 -0.01 -0.53 0.84 0.04
1 1.20 120 0.244 -8.998 4.156 -1.221 -0.702 0.916 -3.748 2338.177 -3836.451 0.057 0.149 0.045 -0.01 -0.53 0.84 0.04
1 1.21 121 0.259 -9.022 4.329 -1.221 -0.580 1.038 -3.748 2338.177 -3836.451 0.043 0.173 -0.128 -0.01 -0.53 0.84 0.04
1 1.22 122 0.182 -9.046 4.133 -0.610 -0.610 1.343 86.044 2428.118 -3791.480 0.119 0.196 0.067 -0.01 -0.53 0.84 0.04
1 1.23 123 0.335 -8.964 4.219 -0.854 -0.671 1.434 86.044 2428.118 -3791.480 -0.035 0.114 -0.020 -0.01 -0.53 0.84 0.04
1 1.24 124 0.259 -8.931 4.238 -1.160 -0.793 0.916 161.145 2503.219 -3971.513 0.042 0.081 -0.039 -0.01 -0.53 0.84 0.04
1 1.25 125 0.254 -9.089 4.209 -0.580 -0.702 0.946 86.044 2278.216 -3791.480 0.046 0.239 -0.010 -0.01 -0.53 0.84 0.04
1 1.26 126 0.239 -9.065 4.176 -1.221 -0.641 0.885 116.174 2533.200 -3731.519 0.060 0.215 0.023 -0.01 -0.53 0.84 0.04
1 1.27 127 0.374 -8.959 4.281 -0.488 -0.885 0.854 266.077 2383.147 -3761.500 -0.074 0.109 -0.084 -0.01 -0.53 0.84 0.04
1 1.28 128 0.383 -8.959 4.233 -0.214 -0.702 0.824 266.077 2383.147 -3761.500 -0.084 0.109 -0.036 -0.01 -0.53 0.84 0.04
1 1.29 129 0.225 -8.993 4.295 -0.488 0.000 0.275 131.165 2248.085 -3866.431 0.075 0.142 -0.098 -0.01 -0.53 0.84 0.04
1 1.30 130 0.201 -8.878 4.195 -0.763 -0.641 0.702 131.165 2248.085 -3866.431 0.098 0.027 0.002 -0.01 -0.53 0.84 0.04
1 1.31 131 0.259 -8.983 4.214 -0.946 -0.275 0.122 116.174 2458.099 -3836.451 0.040 0.132 -0.017 -0.01 -0.53 0.84 0.04
1 1.32 132 0.287 -9.050 4.233 -0.519 -0.061 0.885 146.155 2338.177 -3701.539 0.011 0.200 -0.036 -0.01 -0.53 0.84 0.04
1 1.33 133 0.311 -8.983 4.219 -0.916 0.214 1.068 56.063 2428.118 -3866.431 -0.012 0.132 -0.022 -0.01 -0.53 0.84 0.04
1 1.34 134 0.412 -9.036 4.200 -0.366 0.916 0.885 56.063 2428.118 -3716.529 -0.114 0.185 -0.003 -0.01 -0.53 0.84 0.04
1 1.35 135 0.330 -9.007 4.176 -0.397 0.580 1.282 56.063 2428.118 -3716.529 -0.033 0.156 0.020 -0.01 -0.53 0.84 0.04
1 1.36 136 0.278 -8.945 4.262 -0.153 1.129 0.854 71.054 2488.079 -3911.402 0.019 0.094 -0.066 -0.01 -0.53 0.84 0.04
1 1.37 137 0.153 -9.098 4.200 -0.763 1.953 0.946 71.054 2488.079 -3911.402 0.141 0.247 -0.003 -0.01 -0.53 0.84 0.05
1 1.38 138 0.239 -9.055 4.276 -0.122 2.167 0.854 191.125 2383.147 -3761.500 0.052 0.204 -0.080 -0.01 -0.53 0.84 0.05
1 1.39 139 0.134 -9.108 4.291 0.610 1.434 1.007 161.145 2473.089 -3866.431 0.156 0.257 -0.094 -0.01 -0.53 0.84 0.05
1 1.40 140 0.172 -9.127 4.324 1.312 2.289 0.946 56.063 2353.167 -3641.428 0.114 0.276 -0.126 -0.01 -0.53 0.84 0.05
1 1.41 141 0.158 -9.137 4.152 1.709 3.052 1.526 146.155 2413.128 -3761.500 0.126 0.287 0.049 -0.01 -0.53 0.84 0.05
1 1.42 142 0.211 -9.098 4.228 1.190 2.838 1.617 146.155 2413.128 -3761.500 0.070 0.250 -0.025 -0.01 -0.53 0.84 0.05
1 1.43 143 0.187 -9.026 4.310 1.282 3.845 2.411 236.096 2398.138 -3746.509 0.089 0.179 -0.104 -0.01 -0.53 0.84 0.05
1 1.44 144 0.120 -8.969 4.176 1.984 4.608 2.533 236.096 2398.138 -3746.509 0.144 0.124 0.035 -0.01 -0.53 0.84 0.05
1 1.45 145 0.043 -9.232 4.267 1.495 5.127 3.021 131.165 2503.219 -3896.412 0.214 0.388 -0.053 -0.01 -0.53 0.84 0.05
1 1.46 146 0.043 -9.046 4.362 1.892 5.829 3.510 146.155 2338.177 -3806.470 0.206 0.203 -0.145 -0.01 -0.53 0.84 0.05
1 1.47 147 0.158 -8.998 4.286 1.862 6.500 3.052 146.155 2338.177 -3806.470 0.082 0.156 -0.066 -0.01 -0.53 0.84 0.05
1 1.48 148 0.081 -9.113 4.396 1.709 7.629 2.869 146.155 2263.076 -3761.500 0.150 0.273 -0.172 -0.02 -0.53 0.84 0.05
1 1.49 149 -0.048 -9.122 4.410 1.648 8.484 2.350 146.155 2263.076 -3761.500 0.270 0.283 -0.184 -0.02 -0.53 0.84 0.05
1 1.50 150 0.005 -9.036 4.358 1.404 9.033 1.465 161.145 2428.118 -3821.460 0.207 0.199 -0.127 -0.02 -0.53 0.84 0.05
1 1.51 151 -0.067 -8.993 4.315 1.740 9.705 1.617 161.145 2428.118 -3821.460 0.269 0.157 -0.081 -0.02 -0.53 0.84 0.05
1 1.52 152 -0.196 -8.931 4.305 1.099 10.590 1.526 191.125 2458.099 -3836.451 0.378 0.097 -0.065 -0.02 -0.53 0.84 0.05
1 1.53 153 -0.024 -8.878 4.276 0.916 11.902 0.763 266.077 2458.099 -3836.451 0.194 0.045 -0.034 -0.02 -0.53 0.85 0.05
1 1.54 154 -0.196 -9.046 4.228 0.519 12.787 1.190 266.077 2458.099 -3836.451 0.357 0.214 0.016 -0.02 -0.53 0.85 0.05
1 1.55 155 -0.220 -8.979 4.200 1.312 12.421 0.305 146.155 2338.177 -3836.451 0.370 0.147 0.046 -0.02 -0.53 0.85 0.05
1 1.56 156 -0.101 -8.797 4.353 0.977 12.878 -0.427 146.155 2338.177 -3836.451 0.239 -0.034 -0.105 -0.02 -0.53 0.85 0.05
1 1.57 157 -0.101 -8.797 4.281 0.519 13.275 -0.732 221.106 2413.128 -3806.470 0.230 -0.033 -0.031 -0.02 -0.53 0.85 0.05
1 1.58 158 -0.263 -8.744 4.243 0.427 13.855 -0.916 221.106 2413.128 -3806.470 0.384 -0.085 0.009 -0.02 -0.53 0.85 0.05
1 1.59 159 -0.287 -8.825 4.200 0.549 13.458 -1.099 266.077 2413.128 -3836.451 0.389 -0.002 0.056 -0.03 -0.53 0.85 0.05
1 1.60 160 -0.374 -8.864 4.257 0.000 13.275 -1.953 71.054 2413.128 -3836.451 0.466 0.037 -0.001 -0.03 -0.53 0.85 0.05
1 1.61 161 -0.431 -8.730 4.257 0.641 12.543 -2.197 71.054 2413.128 -3836.451 0.514 -0.097 -0.000 -0.03 -0.53 0.85 0.05
1 1.62 162 -0.316 -8.811 4.180 0.397 12.512 -3.479 236.096 2398.138 -3746.509 0.392 -0.015 0.078 -0.03 -0.53 0.85 0.05
1 1.63 163 -0.383 -8.825 4.042 -0.793 12.299 -2.747 281.067 2473.089 -3821.460 0.452 -0.000 0.218 -0.03 -0.53 0.85 0.05
1 1.64 164 -0.431 -8.777 4.109 -1.038 11.444 -2.533 281.067 2203.115 -3821.460 0.494 -0.049 0.150 -0.03 -0.53 0.85 0.06
1 1.65 165 -0.450 -8.782 4.065 -1.801 10.773 -3.174 281.067 2203.115 -3821.460 0.506 -0.045 0.191 -0.03 -0.53 0.85 0.06
1 1.66 166 -0.283 -8.725 4.099 -2.930 10.712 -3.052 311.047 2323.187 -3866.431 0.328 -0.105 0.152 -0.03 -0.53 0.84 0.06
1 1.67 167 -0.278 -8.629 3.903 -3.387 10.559 -3.296 386.148 2353.167 -3821.460 0.318 -0.203 0.344 -0.03 -0.53 0.84 0.06
1 1.68 168 -0.254 -8.749 4.109 -3.845 9.979 -3.296 385.999 2353.317 -3821.910 0.290 -0.086 0.132 -0.03 -0.53 0.84 0.06
1 1.69 169 -0.196 -8.931 4.046 -3.998 9.583 -3.265 220.956 2458.249 -3836.900 0.229 0.093 0.189 -0.04 -0.53 0.84 0.06
1 1.70 170 -0.225 -8.955 3.951 -3.998 8.087 -2.686 266.077 2413.278 -3806.920 0.255 0.114 0.279 -0.04 -0.53 0.84 0.06
1 1.71 171 -0.148 -9.065 4.065 -3.296 7.996 -2.502 311.047 2473.239 -3821.910 0.175 0.222 0.158 -0.04 -0.53 0.84 0.06
1 1.72 172 -0.201 -9.007 4.128 -2.869 7.141 -1.770 311.047 2473.239 -3821.910 0.225 0.161 0.090 -0.04 -0.53 0.84 0.06
1 1.73 173 -0.215 -9.031 3.936 -3.387 6.073 -0.916 296.057 2488.229 -3731.969 0.237 0.183 0.277 -0.04 -0.53 0.84 0.06
1 1.74 174 -0.287 -9.003 4.013 -4.028 3.906 0.336 296.057 2413.278 -3882.021 0.301 0.149 0.188 -0.04 -0.53 0.84 0.06
1 1.75 175 -0.177 -8.811 3.955 -3.448 2.533 0.671 296.057 2413.278 -3882.021 0.188 -0.046 0.240 -0.04 -0.53 0.84 0.06
1 1.76 176 -0.067 -8.964 4.037 -3.693 1.526 1.984 385.999 2398.288 -3867.031 0.075 0.105 0.152 -0.04 -0.53 0.84 0.06
1 1.77 177 0.000 -8.868 4.094 -4.059 1.038 2.625 460.950 2473.239 -3746.959 0.004 0.006 0.089 -0.04 -0.53 0.84 0.06
1 1.78 178 0.062 -8.935 4.065 -3.845 -0.031 3.998 235.946 2353.317 -3867.031 -0.061 0.070 0.112 -0.04 -0.53 0.84 0.06
1 1.79 179 0.019 -9.007 4.037 -3.326 -1.862 5.310 235.946 2353.317 -3867.031 -0.022 0.139 0.135 -0.04 -0.53 0.84 0.06
1 1.80 180 0.139 -9.223 4.080 -3.174 -3.784 4.761 356.018 2353.317 -3791.930 -0.146 0.352 0.086 -0.04 -0.53 0.84 0.06
1 1.81 181 0.158 -9.266 3.898 -1.617 -5.646 5.402 326.038 2263.226 -3882.021 -0.171 0.390 0.257 -0.04 -0.54 0.84 0.06
1 1.82 182 0.067 -9.371 3.936 -1.068 -7.324 5.890 326.038 2263.226 -3882.021 -0.082 0.494 0.215 -0.04 -0.54 0.84 0.06
1 1.83 183 -0.192 -9.462 4.056 -0.671 -8.911 5.798 385.999 2278.366 -3791.930 0.174 0.584 0.092 -0.04 -0.54 0.84 0.06
1 1.84 184 -0.115 -9.735 4.156 -0.549 -9.613 5.615 385.999 2353.317 -3672.008 0.095 0.855 -0.011 -0.04 -0.54 0.84 0.06
1 1.85 185 -0.120 -9.898 4.185 0.824 -11.993 4.364 326.038 2413.278 -3806.920 0.100 1.017 -0.042 -0.04 -0.54 0.84 0.06
1 1.86 186 -0.196 -9.960 4.367 4.028 -15.839 1.587 326.038 2413.278 -3806.920 0.179 1.079 -0.224 -0.04 -0.54 0.84 0.06
1 1.87 187 -0.235 -9.893 4.310 6.348 -19.348 -1.343 281.067 2428.268 -3867.031 0.226 1.015 -0.161 -0.04 -0.54 0.84 0.06
1 1.88 188 -0.192 -9.702 4.286 8.575 -22.949 -4.120 311.047 2398.288 -3791.930 0.212 0.831 -0.120 -0.03 -0.54 0.84 0.06
1 1.89 189 0.120 -9.371 4.209 10.162 -25.238 -5.341 311.047 2398.288 -3791.930 -0.078 0.506 -0.032 -0.03 -0.53 0.84 0.06
1 1.90 190 0.364 -9.156 4.271 10.345 -26.032 -5.829 296.057 2338.327 -3836.900 -0.296 0.297 -0.081 -0.03 -0.53 0.84 0.05
1 1.91 191 0.800 -8.821 4.171 9.338 -25.330 -6.592 220.956 2563.330 -3761.949 -0.703 -0.031 0.033 -0.03 -0.53 0.84 0.05
1 1.92 192 1.106 -8.471 4.094 6.897 -23.590 -7.568 371.008 2413.278 -4016.933 -0.978 -0.375 0.122 -0.03 -0.53 0.84 0.05
1 1.93 193 1.192 -8.193 4.003 4.578 -21.179 -7.446 371.008 2413.278 -4016.933 -1.031 -0.647 0.223 -0.02 -0.53 0.84 0.05
1 1.94 194 1.417 -8.136 3.821 2.106 -18.738 -7.782 146.005 2293.356 -3731.969 -1.224 -0.701 0.412 -0.02 -0.53 0.84 0.05
1 1.95 195 1.566 -8.078 3.663 -0.885 -16.205 -8.514 220.956 2338.327 -3761.949 -1.339 -0.756 0.573 -0.02 -0.53 0.84 0.05
1 1.96 196 1.475 -8.256 3.524 -5.646 -11.169 -9.247 220.956 2338.327 -3761.949 -1.184 -0.580 0.705 -0.02 -0.53 0.84 0.05
1 1.97 197 1.422 -8.562 3.390 -7.660 -8.514 -9.857 160.995 2278.366 -3791.930 -1.102 -0.278 0.827 -0.02 -0.53 0.84 0.05
1 1.98 198 1.312 -8.873 3.285 -9.705 -5.768 -10.651 205.966 2398.288 -3791.930 -0.964 0.026 0.916 -0.01 -0.53 0.84 0.06
1 1.99 199 0.905 -9.481 3.141 -10.101 -3.845 -9.979 160.995 2323.336 -3791.930 -0.532 0.626 1.041 -0.01 -0.54 0.84 0.06
1 2.00 200 0.828 -9.553 3.108 -9.247 -2.686 -10.437 160.995 2323.336 -3791.930 -0.432 0.689 1.054 -0.01 -0.54 0.84 0.06
1 2.01 201 0.690 -9.855 3.247 -7.355 -2.350 -10.254 205.966 2323.336 -3926.992 -0.273 0.982 0.894 -0.01 -0.54 0.84 0.06
1 2.02 202 0.474 -10.042 3.208 -7.629 -2.197 -8.881 116.024 2263.226 -3806.920 -0.039 1.162 0.914 -0.01 -0.54 0.84 0.06
1 2.03 203 -0.072 -10.243 3.108 -4.700 -5.096 -9.949 116.024 2263.226 -3806.920 0.537 1.347 0.978 -0.01 -0.54 0.84 0.06
1 2.04 204 -0.062 -10.228 3.132 -0.122 -6.592 -11.383 56.063 2323.336 -3821.910 0.542 1.327 0.941 -0.01 -0.54 0.84 0.06
1 2.05 205 0.144 -9.884 3.309 2.686 -7.751 -9.399 116.024 2458.249 -3836.900 0.352 0.980 0.755 -0.01 -0.54 0.84 0.06
1 2.06 206 0.297 -9.682 3.251 1.160 -8.820 -8.392 116.024 2458.249 -3836.900 0.215 0.778 0.808 -0.01 -0.54 0.84 0.06
1 2.07 207 0.627 -9.649 3.247 1.740 -11.139 -10.284 116.024 2413.278 -3836.900 -0.100 0.743 0.808 -0.01 -0.54 0.84 0.06
1 2.08 208 0.713 -9.635 3.338 3.967 -11.658 -10.284 190.976 2413.278 -3806.920 -0.166 0.727 0.711 -0.01 -0.54 0.84 0.06
1 2.09 209 0.886 -9.252 3.328 3.967 -11.993 -9.796 25.933 2398.288 -3791.930 -0.315 0.344 0.718 -0.01 -0.54 0.84 0.06
1 2.10 210 0.905 -8.835 3.314 2.777 -11.932 -9.491 25.933 2398.288 -3791.930 -0.286 -0.070 0.732 -0 -0.54 0.84 0.06
1 2.11 211 0.872 -8.677 3.280 0.031 -11.139 -9.064 -3.897 2293.356 -3882.021 -0.229 -0.227 0.764 -0 -0.54 0.84 0.06
1 2.12 212 0.895 -8.495 3.122 -2.411 -11.444 -8.270 25.933 2353.317 -3897.011 -0.231 -0.409 0.917 -0 -0.54 0.84 0.06
1 2.13 213 0.790 -8.404 3.160 -3.632 -12.085 -7.904 25.933 2353.317 -3897.011 -0.105 -0.503 0.870 0 -0.54 0.84 0.06
1 2.14 214 0.881 -8.572 3.093 -5.310 -12.299 -6.928 86.044 2428.268 -3746.959 -0.176 -0.338 0.927 0 -0.54 0.84 0.06
1 2.15 215 0.886 -8.610 3.165 -6.744 -12.268 -5.585 56.063 2428.268 -3746.959 -0.161 -0.303 0.844 0 -0.54 0.84 0.06
1 2.16 216 0.910 -8.749 3.060 -8.026 -11.719 -4.547 -33.878 2293.356 -3731.969 -0.167 -0.169 0.935 0 -0.54 0.84 0.06
1 2.17 217 1.044 -8.758 2.955 -8.667 -11.139 -2.686 -34.478 2293.656 -3733.917 -0.285 -0.165 1.024 0 -0.54 0.84 0.06
1 2.18 218 1.092 -8.849 3.046 -8.667 -10.254 -0.305 -79.598 2383.747 -3838.849 -0.306 -0.088 0.898 0.01 -0.55 0.83 0.06
1 2.19 219 1.183 -8.988 3.046 -8.667 -9.216 0.214 -4.497 2188.724 -3808.869 -0.387 0.044 0.880 0.01 -0.55 0.83 0.06
1 2.20 220 1.130 -8.988 2.993 -8.087 -7.965 1.465 -4.497 2188.724 -3808.869 -0.326 0.037 0.915 0.01 -0.55 0.83 0.06
1 2.21 221 1.298 -9.194 2.988 -8.148 -7.294 2.258 190.376 2383.747 -3763.898 -0.487 0.236 0.902 0.01 -0.55 0.83 0.06
1 2.22 222 1.235 -9.366 3.036 -6.256 -5.737 2.930 -4.497 2458.698 -3763.898 -0.419 0.401 0.837 0.01 -0.55 0.83 0.06
1 2.23 223 1.212 -9.328 2.940 -4.303 -5.310 3.113 -49.468 2398.737 -3793.878 -0.392 0.357 0.917 0.01 -0.55 0.83 0.06
1 2.24 224 1.235 -9.323 3.117 -3.113 -5.219 3.204 -49.468 2398.737 -3793.878 -0.413 0.346 0.727 0.01 -0.55 0.83 0.06
1 2.25 225 1.188 -9.309 3.103 -2.045 -5.096 3.601 -79.598 2458.698 -3703.937 -0.361 0.324 0.722 0.01 -0.55 0.83 0.06
1 2.26 226 1.235 -9.433 3.165 -1.526 -4.883 3.418 70.304 2488.679 -3838.849 -0.408 0.445 0.651 0.01 -0.55 0.83 0.06
1 2.27 227 1.212 -9.405 3.103 -1.068 -4.242 3.387 70.304 2488.679 -3838.849 -0.382 0.413 0.706 0.01 -0.55 0.83 0.06
1 2.28 228 1.437 -9.405 3.328 0.305 -3.937 4.486 -169.540 2473.688 -3643.976 -0.606 0.411 0.475 0.01 -0.55 0.83 0.06
1 2.29 229 1.446 -9.376 3.357 -0.275 -4.547 4.913 -139.559 2293.656 -3703.937 -0.613 0.381 0.442 0.01 -0.55 0.83 0.06
1 2.30 230 1.628 -9.266 3.529 -0.610 -4.791 4.059 -79.598 2458.698 -3733.917 -0.794 0.269 0.265 0.01 -0.55 0.83 0.06
1 2.31 231 1.575 -9.175 3.414 -1.312 -3.815 3.601 -79.598 2458.698 -3733.917 -0.739 0.176 0.376 0.01 -0.55 0.83 0.06
1 2.32 232 1.647 -9.237 3.596 -2.441 -3.601 3.754 -184.530 2458.698 -3763.898 -0.802 0.236 0.185 0.01 -0.55 0.83 0.06
1 2.33 233 1.820 -9.213 3.663 -2.472 -1.801 3.052 -79.598 2293.656 -3733.917 -0.970 0.210 0.113 0.01 -0.55 0.83 0.06
1 2.34 234 1.777 -9.309 3.567 -3.387 0.153 2.289 -79.598 2293.656 -3733.917 -0.922 0.304 0.204 0.01 -0.55 0.83 0.06
1 2.35 235 1.853 -9.400 3.424 -3.693 1.770 2.045 -139.559 2488.679 -3733.917 -0.994 0.393 0.341 0.01 -0.55 0.83 0.06
1 2.36 236 1.633 -9.558 3.443 -4.059 4.395 0.702 -244.491 2428.718 -3718.927 -0.769 0.548 0.314 0.01 -0.56 0.83 0.06
1 2.37 237 1.595 -9.572 3.381 -4.059 6.348 -0.763 -109.579 2533.799 -3808.869 -0.727 0.560 0.369 0.01 -0.56 0.83 0.06
1 2.38 238 1.686 -9.697 3.103 -5.280 8.942 -0.854 -109.579 2533.799 -3808.869 -0.815 0.681 0.638 0.01 -0.56 0.83 0.06
1 2.39 239 1.480 -9.649 2.816 -6.165 11.414 -0.183 -34.478 2383.747 -3763.898 -0.606 0.629 0.915 0.01 -0.56 0.83 0.06
1 2.40 240 1.585 -9.735 2.619 -8.484 15.717 -0.519 40.324 2413.728 -3733.917 -0.712 0.704 1.083 0.01 -0.56 0.83 0.06
1 2.41 241 1.647 -9.912 2.322 -10.254 18.890 0.458 40.324 2413.728 -3733.917 -0.777 0.873 1.361 0.01 -0.56 0.83 0.06
1 2.42 242 1.882 -10.027 2.275 -10.223 23.834 0.763 -79.598 2533.799 -3658.966 -1.017 0.978 1.386 0.01 -0.56 0.83 0.07
1 2.43 243 1.829 -10.286 2.533 -9.705 31.067 2.441 55.314 2503.669 -3718.927 -0.972 1.227 1.106 0.01 -0.56 0.83 0.07
1 2.44 244 1.614 -10.813 4.252 -14.374 40.161 0.763 -34.478 2338.776 -3658.966 -0.770 1.744 -0.633 0.01 -0.56 0.82 0.07
1 2.45 245 0.522 -12.110 4.018 -19.440 33.722 -7.629 -34.478 2338.776 -3658.966 0.299 3.035 -0.411 0 -0.56 0.82 0.07
1 2.46 246 0.077 -13.030 3.845 -4.913 22.278 -17.456 -19.487 2503.669 -3673.957 0.732 3.945 -0.259 0 -0.56 0.82 0.07
1 2.47 247 -0.651 -11.440 4.276 14.771 6.683 -12.024 -4.497 2293.656 -3703.937 1.483 2.361 -0.682 -0 -0.56 0.82 0.08
1 2.48 248 -0.608 -10.540 4.061 4.242 4.456 -11.566 -4.497 2293.656 -3703.937 1.454 1.469 -0.448 -0 -0.56 0.82 0.08
1 2.49 249 -0.503 -10.233 3.970 -2.258 5.402 -7.904 -49.468 2353.767 -3718.927 1.362 1.166 -0.353 -0 -0.56 0.82 0.08
1 2.50 250 -0.077 -10.147 3.845 -5.249 -0.305 -4.395 -49.468 2353.767 -3718.927 0.943 1.079 -0.231 -0 -0.56 0.82 0.08
1 2.51 251 1.393 -10.473 3.860 -5.707 -0.275 -3.937 -139.559 2533.799 -3628.836 -0.519 1.402 -0.253 0 -0.56 0.82 0.08
1 2.52 252 1.992 -10.463 3.673 -1.251 1.526 0.793 -139.559 2533.799 -3628.836 -1.110 1.390 -0.075 0 -0.56 0.82 0.08
1 2.53 253 2.054 -9.606 3.587 0.580 7.233 6.256 -79.598 2413.728 -3763.898 -1.171 0.532 0.008 0 -0.56 0.82 0.08
1 2.54 254 1.523 -8.639 3.544 -3.448 14.008 10.132 -4.497 2458.698 -3628.836 -0.655 -0.436 0.054 -0 -0.56 0.82 0.08
1 2.55 255 0.953 -8.375 3.409 -5.096 16.571 10.620 -4.497 2458.698 -3628.836 -0.102 -0.702 0.186 -0 -0.56 0.82 0.08
1 2.56 256 0.790 -8.528 3.505 -5.066 16.632 9.949 190.376 2563.780 -3658.966 0.038 -0.552 0.087 -0 -0.56 0.82 0.08
1 2.57 257 0.517 -8.720 3.520 -2.014 17.365 9.583 190.376 2563.780 -3658.966 0.289 -0.363 0.070 -0.01 -0.56 0.82 0.08
1 2.58 258 0.029 -8.667 3.611 3.326 17.639 10.376 130.265 2428.718 -3538.895 0.753 -0.417 -0.019 -0.01 -0.56 0.82 0.08
1 2.59 259 -0.388 -8.552 3.989 5.341 16.174 9.735 130.265 2428.718 -3538.895 1.142 -0.531 -0.389 -0.01 -0.56 0.82 0.08
1 2.60 260 -0.297 -8.481 4.291 5.829 16.113 9.949 70.304 2533.799 -3658.966 1.021 -0.600 -0.678 -0.01 -0.56 0.82 0.08
1 2.61 261 -0.230 -8.500 4.559 7.141 16.022 11.414 -109.579 2488.679 -3583.865 0.925 -0.577 -0.930 -0.01 -0.56 0.82 0.08
1 2.62 262 0.019 -8.519 4.894 11.078 16.022 13.794 -109.579 2488.679 -3583.865 0.614 -0.545 -1.223 -0.02 -0.56 0.83 0.08
1 2.63 263 0.053 -8.634 5.153 13.641 16.144 13.550 145.255 2338.776 -3703.937 0.549 -0.421 -1.453 -0.02 -0.56 0.83 0.08
1 2.64 264 -0.081 -8.394 5.392 16.113 16.296 13.397 145.255 2338.776 -3703.937 0.651 -0.649 -1.659 -0.02 -0.56 0.83 0.08
1 2.65 265 0.014 -8.112 5.564 15.808 18.921 12.329 70.304 2488.679 -3628.836 0.524 -0.917 -1.793 -0.02 -0.55 0.83 0.08
1 2.66 266 -0.005 -7.939 5.516 15.076 19.836 11.139 70.304 2488.679 -3628.836 0.512 -1.075 -1.707 -0.02 -0.55 0.83 0.08
1 2.67 267 0.053 -7.997 5.516 14.526 20.935 10.956 160.396 2428.718 -3568.875 0.424 -1.004 -1.669 -0.02 -0.55 0.83 0.08
1 2.68 268 0.287 -7.796 5.483 15.564 23.193 9.399 205.366 2503.669 -3643.976 0.160 -1.191 -1.600 -0.03 -0.55 0.83 0.08
1 2.69 269 0.340 -7.710 5.339 12.054 25.024 7.965 205.366 2503.669 -3643.976 0.053 -1.249 -1.385 -0.03 -0.55 0.83 0.08
1 2.70 270 0.163 -7.676 5.124 8.148 24.719 8.545 145.255 2383.747 -3628.836 0.204 -1.270 -1.140 -0.03 -0.54 0.83 0.08
1 2.71 271 -0.125 -7.604 4.990 5.646 25.055 9.247 145.255 2383.747 -3628.836 0.464 -1.333 -0.983 -0.03 -0.54 0.84 0.08
1 2.72 272 -0.235 -8.208 4.693 1.099 24.994 9.979 190.376 2383.747 -3658.966 0.543 -0.723 -0.668 -0.03 -0.54 0.84 0.08
1 2.73 273 -0.565 -8.557 4.425 -1.892 23.407 11.231 190.376 2383.747 -3658.966 0.841 -0.370 -0.391 -0.04 -0.54 0.84 0.08
1 2.74 274 -0.599 -8.892 4.343 -1.068 22.186 11.932 385.099 2323.936 -3794.778 0.840 -0.034 -0.305 -0.04 -0.54 0.84 0.08
1 2.75 275 -0.737 -9.070 4.324 -0.275 21.118 12.604 280.167 2248.985 -3644.875 0.943 0.143 -0.284 -0.04 -0.54 0.84 0.08
1 2.76 276 -0.642 -9.285 4.185 0.488 18.494 15.015 280.167 2248.985 -3644.875 0.775 0.359 -0.142 -0.04 -0.54 0.84 0.08
1 2.77 277 -0.613 -9.343 4.051 0.885 16.205 18.005 190.076 2414.027 -3629.885 0.709 0.416 -0.007 -0.05 -0.54 0.84 0.08
1 2.78 278 -0.627 -9.218 3.821 2.960 15.717 20.294 190.076 2414.027 -3629.885 0.683 0.292 0.225 -0.05 -0.54 0.84 0.08
1 2.79 279 -0.345 -9.122 3.802 3.052 14.710 20.844 295.158 2293.956 -3704.836 0.360 0.198 0.247 -0.05 -0.54 0.84 0.08
1 2.80 280 -0.244 -8.926 3.826 2.106 14.771 22.247 385.099 2399.037 -3614.895 0.219 0.003 0.226 -0.05 -0.54 0.84 0.08
1 2.81 281 -0.148 -8.840 3.816 1.770 15.411 22.125 310.148 2278.965 -3794.778 0.083 -0.082 0.238 -0.05 -0.54 0.84 0.08
1 2.82 282 -0.283 -8.476 3.692 1.495 14.465 21.301 445.060 2384.047 -3554.784 0.178 -0.445 0.364 -0.06 -0.54 0.84 0.08
1 2.83 283 -0.244 -8.524 3.797 1.099 14.191 19.135 445.060 2384.047 -3554.784 0.101 -0.396 0.259 -0.06 -0.54 0.84 0.08
1 2.84 284 -0.268 -8.533 3.735 -0.671 15.564 16.480 385.099 2399.037 -3494.823 0.056 -0.384 0.324 -0.06 -0.54 0.84 0.08
1 2.85 285 -0.263 -8.639 3.692 -0.275 15.625 13.336 385.099 2399.037 -3494.823 0.021 -0.279 0.365 -0.06 -0.54 0.84 0.07
1 2.86 286 -0.172 -8.471 3.773 -0.183 16.785 11.200 445.060 2293.956 -3524.804 -0.097 -0.446 0.282 -0.06 -0.54 0.84 0.07
1 2.87 287 -0.249 -8.533 3.831 -1.160 17.304 7.904 460.200 2429.018 -3569.774 -0.044 -0.384 0.223 -0.07 -0.54 0.84 0.07
1 2.88 288 -0.407 -8.394 3.682 -2.625 17.944 5.890 490.181 2429.018 -3539.794 0.094 -0.523 0.370 -0.07 -0.54 0.84 0.07
1 2.89 289 -0.493 -8.591 3.692 -3.448 18.372 3.174 460.200 2353.917 -3614.895 0.161 -0.328 0.355 -0.07 -0.54 0.84 0.08
1 2.90 290 -0.493 -8.634 3.778 -3.326 19.287 1.068 460.200 2353.917 -3614.895 0.144 -0.287 0.264 -0.07 -0.54 0.84 0.08
1 2.91 291 -0.857 -8.658 3.788 -3.021 17.456 -0.427 520.161 2458.998 -3584.765 0.481 -0.266 0.244 -0.07 -0.54 0.84 0.08
1 2.92 292 -0.771 -8.773 3.754 -2.136 16.510 -1.129 520.161 2458.998 -3584.765 0.382 -0.153 0.273 -0.07 -0.54 0.84 0.08
1 2.93 293 -0.828 -8.672 3.893 -2.533 14.710 -1.099 385.099 2323.936 -3419.872 0.428 -0.255 0.129 -0.07 -0.54 0.84 0.08
1 2.94 294 -1.039 -8.686 3.726 -3.510 13.428 -0.763 475.190 2458.998 -3584.765 0.628 -0.243 0.292 -0.08 -0.54 0.84 0.08
1 2.95 295 -1.336 -8.797 3.644 -5.737 10.468 0.793 535.151 2204.014 -3539.794 0.914 -0.135 0.367 -0.08 -0.54 0.84 0.08
1 2.96 296 -1.609 -8.663 3.582 -6.989 7.751 1.831 490.181 2323.936 -3539.794 1.174 -0.272 0.420 -0.08 -0.54 0.84 0.08
1 2.97 297 -1.738 -8.696 3.615 -8.301 4.669 3.052 490.181 2323.936 -3539.794 1.288 -0.243 0.376 -0.08 -0.54 0.84 0.08
1 2.98 298 -1.987 -8.912 3.477 -8.057 -0.519 3.754 670.063 2384.047 -3524.804 1.506 -0.037 0.489 -0.08 -0.54 0.83 0.08
1 2.99 299 -2.117 -8.730 3.347 -9.125 -5.127 4.211 670.063 2384.047 -3524.804 1.621 -0.225 0.604 -0.08 -0.54 0.83 0.08
1 3.00 300 -2.136 -8.878 3.304 -9.949 -9.125 6.256 640.083 2248.985 -3569.774 1.626 -0.082 0.632 -0.08 -0.54 0.83 0.08
1 3.01 301 -2.102 -8.955 3.371 -10.437 -12.695 6.439 490.181 2323.936 -3494.823 1.578 -0.012 0.548 -0.08 -0.54 0.83 0.07
1 3.02 302 -1.963 -9.113 3.146 -9.583 -19.043 5.737 550.142 2414.027 -3554.784 1.427 0.139 0.757 -0.08 -0.54 0.83 0.07
1 3.03 303 -1.959 -9.084 3.098 -7.660 -22.156 5.096 535.151 2353.917 -3464.843 1.415 0.104 0.788 -0.08 -0.54 0.83 0.07
1 3.04 304 -1.901 -9.094 2.854 -7.385 -25.147 4.211 535.151 2353.917 -3464.843 1.352 0.107 1.018 -0.08 -0.54 0.83 0.07
1 3.05 305 -1.853 -8.854 2.883 -7.263 -28.961 3.235 535.151 2353.917 -3614.895 1.303 -0.138 0.975 -0.08 -0.54 0.83 0.07
1 3.06 306 -1.719 -9.003 2.758 -9.949 -33.814 0.610 535.151 2353.917 -3614.895 1.179 -0.002 1.072 -0.08 -0.55 0.83 0.06
1 3.07 307 -1.398 -9.271 2.859 -10.040 -36.255 -0.977 475.190 2384.047 -3554.784 0.871 0.258 0.954 -0.07 -0.55 0.83 0.06
1 3.08 308 -0.824 -9.644 2.959 -7.996 -35.706 -2.869 445.060 2293.956 -3479.833 0.314 0.624 0.837 -0.07 -0.55 0.83 0.06
1 3.09 309 -0.407 -9.932 3.127 -4.700 -34.454 -3.784 520.161 2293.956 -3479.833 -0.079 0.904 0.655 -0.07 -0.55 0.83 0.06
1 3.10 310 -0.120 -9.793 3.366 -1.984 -29.053 -5.402 370.109 2293.956 -3479.833 -0.340 0.760 0.407 -0.07 -0.55 0.83 0.06
1 3.11 311 -0.177 -9.898 3.357 -2.991 -25.360 -7.141 370.109 2293.956 -3479.833 -0.254 0.862 0.412 -0.06 -0.55 0.83 0.06
1 3.12 312 -0.441 -9.965 3.429 -4.517 -20.905 -8.270 430.070 2278.965 -3569.774 0.064 0.920 0.325 -0.06 -0.55 0.83 0.06
1 3.13 313 -0.733 -9.922 3.165 -4.028 -19.257 -9.277 430.070 2278.965 -3569.774 0.379 0.873 0.580 -0.06 -0.55 0.83 0.06
1 3.14 314 -1.073 -9.702 2.835 -6.042 -20.172 -9.644 280.167 2399.037 -3569.774 0.740 0.647 0.899 -0.06 -0.55 0.83 0.06
1 3.15 315 -1.350 -9.721 2.624 -6.104 -21.942 -10.040 370.109 2414.027 -3449.853 1.038 0.659 1.095 -0.06 -0.55 0.83 0.05
1 3.16 316 -1.556 -9.572 2.658 -6.622 -24.567 -10.284 355.119 2323.936 -3569.774 1.262 0.504 1.046 -0.05 -0.56 0.83 0.05
1 3.17 317 -1.451 -9.668 3.840 -8.728 -23.834 -8.423 145.105 2488.979 -3449.853 1.176 0.592 -0.154 -0.05 -0.56 0.83 0.05
1 3.18 318 -0.781 -10.750 6.278 -11.749 -22.369 -8.331 145.105 2488.979 -3449.853 0.524 1.668 -2.605 -0.05 -0.56 0.83 0.05
1 3.19 319 0.560 -13.623 5.435 -4.059 -9.064 5.249 85.145 2323.936 -3614.895 -0.791 4.535 -1.776 -0.05 -0.56 0.83 0.05
1 3.20 320 2.145 -13.116 4.870 8.820 5.371 25.391 85.145 2323.936 -3614.895 -2.368 4.024 -1.219 -0.05 -0.56 0.83 0.05
1 3.21 321 2.519 -10.999 5.272 9.186 15.686 34.912 233.848 2355.266 -3394.089 -2.819 1.921 -1.592 -0.05 -0.56 0.83 0.05
1 3.22 322 1.944 -9.721 4.731 -9.094 26.306 34.485 278.818 2325.135 -3544.141 -2.304 0.648 -1.045 -0.05 -0.56 0.83 0.05
1 3.23 323 0.781 -9.290 5.153 -18.097 26.795 29.236 278.818 2325.135 -3544.141 -1.194 0.213 -1.480 -0.06 -0.56 0.83 0.04
1 3.24 324 -0.742 -10.157 4.109 -19.043 27.802 24.384 218.857 2460.197 -3559.131 0.282 1.074 -0.456 -0.06 -0.56 0.83 0.04
1 3.25 325 -1.810 -9.635 3.558 -9.277 18.494 22.980 218.857 2460.197 -3559.131 1.301 0.543 0.066 -0.06 -0.56 0.83 0.04
1 3.26 326 -2.380 -8.375 3.788 -0.732 8.789 13.458 383.900 2475.188 -3469.040 1.822 -0.721 -0.183 -0.06 -0.56 0.83 0.04
1 3.27 327 -2.169 -7.451 4.046 1.770 -2.777 -2.045 383.900 2475.188 -3469.040 1.550 -1.639 -0.438 -0.07 -0.56 0.83 0.04
1 3.28 328 -1.652 -7.461 4.338 1.923 -8.514 -2.319 428.871 2475.188 -3424.069 1.041 -1.629 -0.727 -0.07 -0.56 0.83 0.04
1 3.29 329 -1.523 -7.614 4.372 2.594 -10.834 1.068 428.871 2430.217 -3424.069 0.916 -1.473 -0.751 -0.06 -0.56 0.83 0.04
1 3.30 330 -1.657 -7.753 4.434 3.021 -14.374 5.127 428.871 2430.217 -3424.069 1.047 -1.328 -0.799 -0.06 -0.56 0.83 0.04
1 3.31 331 -1.168 -7.863 4.808 6.378 -18.341 11.200 323.789 2385.246 -3379.099 0.551 -1.210 -1.156 -0.06 -0.56 0.83 0.04
1 3.32 332 -0.603 -7.580 4.980 10.223 -22.522 19.043 323.789 2385.246 -3379.099 -0.025 -1.483 -1.305 -0.06 -0.56 0.83 0.04
1 3.33 333 -0.239 -7.734 5.267 8.514 -22.430 23.010 233.848 2400.236 -3469.040 -0.402 -1.317 -1.563 -0.06 -0.55 0.83 0.03
1 3.34 334 -0.010 -8.016 5.234 6.165 -22.003 26.306 233.848 2400.236 -3469.040 -0.646 -1.022 -1.502 -0.06 -0.55 0.83 0.03
1 3.35 335 0.445 -8.409 5.253 4.547 -21.607 25.269 308.799 2355.266 -3499.021 -1.134 -0.607 -1.475 -0.06 -0.55 0.83 0.03
1 3.36 336 0.431 -8.639 5.200 3.784 -21.515 21.790 323.789 2385.246 -3529.151 -1.131 -0.368 -1.402 -0.06 -0.55 0.83 0.02
1 3.37 337 0.627 -8.739 5.267 1.648 -20.813 18.433 323.789 2385.246 -3529.151 -1.334 -0.260 -1.451 -0.06 -0.55 0.83 0.02
1 3.38 338 0.608 -8.969 4.971 0.305 -19.623 13.733 368.910 2385.246 -3529.151 -1.315 -0.024 -1.140 -0.06 -0.55 0.83 0.02
1 3.39 339 0.460 -9.060 4.688 -2.930 -17.426 6.073 368.910 2385.246 -3529.151 -1.161 0.071 -0.848 -0.06 -0.55 0.83 0.02
1 3.40 340 0.292 -8.854 4.712 -3.021 -17.242 0.214 218.857 2415.227 -3484.030 -0.983 -0.133 -0.866 -0.05 -0.55 0.83 0.02
1 3.41 341 0.077 -8.782 4.726 -4.089 -16.907 -5.951 218.857 2415.227 -3484.030 -0.752 -0.205 -0.876 -0.05 -0.55 0.83 0.02
1 3.42 342 -0.057 -9.007 4.540 -4.944 -20.508 -14.801 263.828 2415.227 -3484.030 -0.563 0.018 -0.686 -0.05 -0.55 0.83 0.02
1 3.43 343 0.134 -9.175 4.496 -3.784 -21.729 -20.660 218.857 2415.227 -3454.050 -0.714 0.183 -0.642 -0.05 -0.55 0.83 0.02
1 3.44 344 0.206 -9.022 4.267 -1.740 -23.102 -25.269 218.857 2415.227 -3454.050 -0.736 0.027 -0.412 -0.04 -0.55 0.83 0.02
1 3.45 345 0.412 -8.763 4.276 -1.038 -23.377 -28.870 263.828 2295.155 -3379.099 -0.886 -0.233 -0.418 -0.04 -0.55 0.83 0.02
1 3.46 346 0.460 -8.634 4.022 -1.953 -22.766 -31.098 143.906 2340.125 -3484.030 -0.873 -0.364 -0.160 -0.04 -0.55 0.83 0.02
1 3.47 347 0.522 -8.581 4.027 -2.686 -22.095 -31.311 218.857 2385.246 -3409.079 -0.871 -0.418 -0.163 -0.03 -0.55 0.83 0.02
1 3.48 348 0.752 -8.581 3.970 -3.723 -21.698 -29.633 218.857 2385.246 -3409.079 -1.038 -0.420 -0.105 -0.03 -0.55 0.83 0.02
1 3.49 349 0.900 -8.605 3.692 -4.791 -21.851 -29.419 38.825 2265.174 -3454.050 -1.062 -0.402 0.167 -0.03 -0.55 0.83 0.02
1 3.50 350 0.891 -8.538 3.759 -6.165 -21.698 -28.259 128.916 2325.135 -3319.138 -0.991 -0.472 0.094 -0.02 -0.55 0.83 0.02
1 3.51 351 0.828 -8.351 3.539 -6.928 -21.454 -25.421 128.916 2325.135 -3319.138 -0.870 -0.662 0.307 -0.02 -0.55 0.83 0.03
1 3.52 352 0.737 -8.279 3.496 -7.813 -21.790 -24.139 -80.947 2295.155 -3559.131 -0.724 -0.738 0.341 -0.02 -0.55 0.83 0.03
1 3.53 353 0.522 -8.227 3.318 -9.155 -22.034 -21.698 -5.996 2265.174 -3334.128 -0.458 -0.796 0.507 -0.01 -0.55 0.83 0.03
1 3.54 354 0.464 -8.117 3.347 -9.857 -23.529 -17.273 -5.996 2295.155 -3559.131 -0.355 -0.911 0.465 -0.01 -0.55 0.83 0.03
1 3.55 355 0.460 -8.131 3.213 -10.529 -23.316 -13.977 -5.996 2295.155 -3559.131 -0.311 -0.901 0.586 -0.01 -0.55 0.83 0.03
1 3.56 356 0.330 -8.318 3.127 -11.108 -21.484 -9.613 -35.977 2460.197 -3304.147 -0.114 -0.726 0.642 -0.01 -0.55 0.83 0.03
1 3.57 357 0.484 -8.528 3.160 -10.620 -21.057 -8.301 -80.947 2460.197 -3409.079 -0.240 -0.522 0.592 -0 -0.56 0.83 0.03
1 3.58 358 0.479 -8.710 3.180 -10.651 -19.287 -5.707 -80.947 2460.197 -3409.079 -0.211 -0.346 0.555 -0 -0.56 0.83 0.03
1 3.59 359 0.522 -8.744 3.079 -8.972 -19.074 -4.364 113.926 2415.227 -3529.151 -0.233 -0.319 0.638 -0 -0.56 0.83 0.03
1 3.60 360 0.776 -8.754 3.084 -8.850 -17.181 -3.754 -172.987 2356.465 -3323.785 -0.467 -0.315 0.617 0 -0.56 0.83 0.03
1 3.61 361 1.034 -8.782 2.969 -9.827 -13.641 -0.763 -53.065 2431.566 -3368.755 -0.707 -0.292 0.716 0 -0.56 0.83 0.03
1 3.62 362 0.972 -8.749 3.026 -10.895 -10.956 -1.099 -53.065 2431.566 -3368.755 -0.628 -0.332 0.642 0 -0.56 0.83 0.03
1 3.63 363 1.092 -8.811 2.945 -11.536 -8.667 -1.312 -98.036 2356.465 -3428.716 -0.733 -0.277 0.705 0.01 -0.56 0.83 0.03
1 3.64 364 1.221 -8.859 3.041 -10.620 -4.639 0.031 -202.968 2401.585 -3368.755 -0.838 -0.244 0.570 0.01 -0.56 0.83 0.02
1 3.65 365 1.274 -8.868 3.007 -10.468 -1.678 1.038 -202.968 2401.585 -3368.755 -0.881 -0.240 0.586 0.01 -0.56 0.83 0.02
1 3.66 366 1.288 -8.835 3.084 -10.345 2.014 1.312 -218.108 2491.527 -3383.746 -0.889 -0.280 0.493 0.01 -0.56 0.83 0.02
1 3.67 367 1.317 -8.916 3.002 -10.742 5.249 2.686 -218.108 2386.445 -3308.794 -0.914 -0.205 0.557 0.01 -0.56 0.83 0.02
1 3.68 368 1.159 -8.849 2.840 -13.001 8.911 4.578 -263.079 2296.504 -3233.843 -0.755 -0.279 0.703 0.01 -0.56 0.82 0.03
1 3.69 369 1.097 -8.787 2.763 -14.648 11.383 5.676 -263.079 2296.504 -3233.843 -0.696 -0.349 0.760 0.01 -0.57 0.82 0.03
1 3.70 370 1.264 -8.840 2.710 -16.724 14.710 6.134 -218.108 2386.445 -3278.814 -0.870 -0.305 0.790 0.01 -0.57 0.82 0.03
1 3.71 371 1.393 -9.199 2.725 -20.935 20.477 7.782 -187.978 2341.475 -3338.775 -1.018 0.032 0.720 0.01 -0.57 0.82 0.03
1 3.72 372 1.168 -9.692 2.682 -21.179 22.095 6.866 -187.978 2341.475 -3338.775 -0.806 0.512 0.730 0 -0.57 0.82 0.03
1 3.73 373 1.125 -10.181 2.897 -19.013 21.545 5.737 -218.108 2491.527 -3203.713 -0.777 0.988 0.482 0 -0.57 0.82 0.03
1 3.74 374 0.857 -10.750 2.801 -16.388 21.607 4.517 -202.968 2506.517 -3143.752 -0.524 1.547 0.551 0 -0.57 0.82 0.03
1 3.75 375 0.661 -10.741 2.691 -11.902 18.219 3.387 -143.007 2566.478 -3203.713 -0.343 1.530 0.641 -0 -0.57 0.82 0.03
1 3.76 376 0.742 -10.616 2.753 -10.132 11.963 1.282 -143.007 2566.478 -3203.713 -0.436 1.400 0.564 -0 -0.58 0.82 0.03
1 3.77 377 0.838 -10.669 2.648 -11.780 9.827 0.824 -172.987 2596.458 -3218.703 -0.540 1.448 0.656 -0 -0.58 0.82 0.03
1 3.78 378 0.742 -10.765 2.490 -12.543 8.087 0.824 -143.007 2461.546 -3203.713 -0.449 1.538 0.799 -0 -0.58 0.82 0.03
1 3.79 379 0.455 -11.047 1.959 -9.979 9.277 1.404 -143.007 2461.546 -3203.713 -0.170 1.809 1.299 -0 -0.58 0.82 0.03
1 3.80 380 0.570 -11.071 1.810 -7.172 13.672 0.610 -263.079 2491.527 -3278.814 -0.291 1.828 1.435 -0 -0.58 0.82 0.03
1 3.81 381 0.599 -11.191 2.940 -9.613 19.409 -0.854 -8.095 2461.546 -3233.843 -0.327 1.945 0.296 -0 -0.58 0.81 0.03
1 3.82 382 -0.230 -13.159 4.161 -15.289 21.027 -4.944 -23.085 2596.458 -3188.723 0.495 3.908 -0.939 -0.01 -0.58 0.81 0.03
1 3.83 383 -0.450 -14.538 3.132 -7.568 -1.099 -30.640 -23.085 2596.458 -3188.723 0.719 5.279 0.069 -0.01 -0.58 0.81 0.03
1 3.84 384 -0.220 -13.805 4.171 13.794 -6.104 -27.618 -113.026 2416.576 -3203.713 0.527 4.542 -0.986 -0.01 -0.58 0.81 0.03
1 3.85 385 -0.546 -11.703 4.051 6.409 -11.566 -21.027 -23.085 2551.488 -3188.723 0.898 2.447 -0.853 -0 -0.58 0.81 0.04
1 3.86 386 -0.570 -10.961 4.008 -11.505 -4.608 -20.935 -23.085 2551.488 -3188.723 0.998 1.710 -0.802 -0 -0.58 0.81 0.04
1 3.87 387 0.244 -11.167 3.860 -11.200 -4.334 -14.587 -98.036 2476.537 -3218.703 0.214 1.912 -0.670 0 -0.58 0.81 0.04
1 3.88 388 1.714 -10.966 3.831 -2.960 1.770 -10.254 -202.968 2401.585 -3188.723 -1.234 1.707 -0.655 0 -0.58 0.81 0.04
1 3.89 389 2.366 -10.305 3.635 1.404 10.986 -3.418 -202.968 2401.585 -3188.723 -1.874 1.047 -0.460 0 -0.58 0.81 0.04
1 3.90 390 1.911 -8.667 3.668 -0.244 23.010 11.292 -98.036 2596.458 -3143.752 -1.416 -0.589 -0.489 0 -0.58 0.81 0.04
1 3.91 391 1.216 -7.791 3.831 -1.434 28.290 14.465 -23.085 2506.517 -3143.752 -0.733 -1.464 -0.645 0 -0.58 0.81 0.04
1 3.92 392 1.159 -7.504 4.008 -0.153 31.769 13.641 -38.075 2611.449 -3233.843 -0.703 -1.751 -0.818 -0 -0.58 0.81 0.04
1 3.93 393 0.484 -7.374 4.477 5.890 36.041 7.874 -38.075 2611.449 -3233.843 -0.094 -1.881 -1.280 -0.01 -0.58 0.81 0.04
1 3.94 394 0.215 -7.327 5.200 9.125 39.002 3.082 -83.046 2611.449 -3233.843 0.148 -1.923 -1.982 -0.01 -0.58 0.81 0.05
1 3.95 395 -0.350 -7.298 5.459 10.895 42.389 -2.045 -83.046 2566.478 -3083.791 0.690 -1.940 -2.206 -0.01 -0.58 0.81 0.05
1 3.96 396 -0.661 -7.609 5.646 13.825 43.121 -8.362 -83.046 2566.478 -3083.791 0.980 -1.616 -2.355 -0.01 -0.58 0.82 0.05
1 3.97 397 -0.570 -7.413 5.564 18.890 43.091 -13.580 -38.075 2566.478 -3158.742 0.876 -1.797 -2.229 -0.02 -0.57 0.82 0.05
1 3.98 398 -0.498 -7.216 5.617 19.074 39.032 -17.883 -53.065 2401.585 -3113.771 0.797 -1.976 -2.232 -0.02 -0.57 0.82 0.05
1 3.99 399 -0.311 -7.054 5.459 15.656 36.835 -18.585 -8.095 2416.576 -3233.843 0.610 -2.120 -2.024 -0.02 -0.57 0.82 0.06
1 4.00 400 -0.316 -7.341 5.224 6.500 35.339 -16.083 -8.095 2416.576 -3233.843 0.619 -1.802 -1.709 -0.02 -0.57 0.82 0.06
1 4.01 401 -0.244 -7.710 5.081 5.188 34.668 -14.221 -113.026 2386.445 -3233.843 0.547 -1.423 -1.540 -0.02 -0.56 0.82 0.06
1 4.02 402 -0.101 -8.165 4.769 1.373 32.990 -8.484 -23.085 2506.517 -3248.833 0.399 -0.961 -1.210 -0.03 -0.56 0.82 0.07
1 4.03 403 -0.201 -8.270 4.813 1.343 31.891 -4.486 -23.085 2506.517 -3248.833 0.490 -0.850 -1.238 -0.03 -0.56 0.82 0.07
1 4.04 404 -0.235 -8.840 4.559 -3.052 30.426 1.434 -98.036 2401.585 -3368.755 0.509 -0.276 -0.971 -0.03 -0.56 0.82 0.07
1 4.05 405 -0.359 -9.544 4.257 -4.883 29.694 7.202 156.798 2401.585 -3248.833 0.613 0.430 -0.663 -0.03 -0.56 0.82 0.07
1 4.06 406 -0.350 -9.960 4.133 -3.113 29.389 14.832 51.866 2401.585 -3218.703 0.576 0.846 -0.539 -0.03 -0.56 0.82 0.07
1 4.07 407 -0.326 -9.783 3.960 0.183 28.076 18.127 51.866 2401.585 -3218.703 0.517 0.666 -0.370 -0.04 -0.56 0.82 0.07
1 4.08 408 -0.354 -9.352 3.601 0.824 27.985 19.836 -38.075 2416.576 -3278.814 0.459 0.235 -0.007 -0.04 -0.56 0.82 0.07
1 4.09 409 -0.469 -9.319 3.611 0.122 27.283 19.775 126.817 2431.566 -3113.771 0.529 0.202 -0.015 -0.04 -0.56 0.82 0.07
1 4.10 410 -0.493 -9.347 3.448 0.397 26.764 19.379 126.817 2431.566 -3113.771 0.507 0.231 0.148 -0.05 -0.56 0.82 0.07
1 4.11 411 -0.637 -9.429 3.472 3.235 25.604 17.426 141.808 2461.546 -3128.762 0.607 0.312 0.125 -0.05 -0.56 0.82 0.07
1 4.12 412 -0.527 -9.228 3.429 7.141 23.163 14.740 260.230 2418.225 -3163.989 0.456 0.113 0.172 -0.05 -0.56 0.82 0.07
1 4.13 413 -0.565 -8.969 3.347 8.484 21.240 13.367 320.191 2538.296 -3134.008 0.457 -0.142 0.261 -0.05 -0.56 0.82 0.07
1 4.14 414 -0.498 -9.012 3.347 8.209 20.325 11.139 320.191 2538.296 -3134.008 0.356 -0.094 0.271 -0.06 -0.56 0.82 0.07
1 4.15 415 -0.551 -8.873 3.563 7.660 19.592 8.453 365.162 2463.345 -3163.989 0.352 -0.224 0.076 -0.06 -0.56 0.83 0.07
1 4.16 416 -0.479 -8.969 3.577 8.179 18.463 7.019 365.162 2343.273 -3163.989 0.257 -0.123 0.073 -0.06 -0.56 0.83 0.07
1 4.17 417 -0.603 -8.835 3.553 8.850 18.005 5.646 365.162 2343.273 -3163.989 0.361 -0.252 0.108 -0.06 -0.56 0.83 0.07
1 4.18 418 -0.608 -8.610 3.596 8.606 17.090 4.608 320.191 2463.345 -3238.940 0.347 -0.472 0.078 -0.06 -0.56 0.83 0.07
1 4.19 419 -0.915 -8.485 3.496 7.568 16.754 5.066 305.201 2403.234 -3253.930 0.635 -0.591 0.190 -0.06 -0.55 0.83 0.07
1 4.20 420 -1.034 -8.481 3.457 7.416 13.886 3.784 230.250 2553.287 -3223.950 0.735 -0.591 0.239 -0.07 -0.55 0.83 0.07
1 4.21 421 -1.073 -8.514 3.510 8.453 11.993 3.876 230.250 2553.287 -3223.950 0.755 -0.552 0.196 -0.07 -0.55 0.83 0.07
1 4.22 422 -1.121 -8.648 3.477 9.491 9.491 4.608 200.270 2283.312 -3193.969 0.786 -0.413 0.241 -0.07 -0.55 0.83 0.07
1 4.23 423 -1.504 -8.323 3.194 9.003 5.127 5.341 365.162 2388.244 -3163.989 1.136 -0.727 0.549 -0.07 -0.55 0.83 0.07
1 4.24 424 -1.604 -8.289 3.208 7.660 0.610 5.035 365.162 2388.244 -3163.989 1.218 -0.755 0.546 -0.07 -0.55 0.83 0.07
1 4.25 425 -1.801 -8.342 3.103 5.981 -2.777 5.676 350.172 2358.264 -3298.901 1.398 -0.698 0.660 -0.07 -0.55 0.83 0.07
1 4.26 426 -1.939 -8.313 2.801 5.127 -7.782 6.836 380.152 2328.283 -3253.930 1.521 -0.723 0.968 -0.07 -0.55 0.83 0.07
1 4.27 427 -2.021 -8.323 2.619 3.632 -16.327 6.744 320.191 2388.244 -3283.911 1.588 -0.712 1.154 -0.07 -0.55 0.83 0.07
1 4.28 428 -1.968 -8.121 2.380 -0.397 -22.675 6.317 320.191 2388.244 -3283.911 1.523 -0.912 1.395 -0.07 -0.55 0.83 0.06
1 4.29 429 -1.733 -8.074 2.241 -4.272 -28.900 6.042 395.143 2343.273 -3134.008 1.287 -0.959 1.534 -0.07 -0.55 0.83 0.06
1 4.30 430 -1.580 -8.437 2.040 -10.620 -37.048 4.700 455.253 2283.312 -3253.930 1.149 -0.602 1.720 -0.07 -0.55 0.83 0.06
1 4.31 431 -1.652 -9.180 2.078 -11.292 -42.633 3.052 455.253 2283.312 -3253.930 1.233 0.132 1.664 -0.06 -0.55 0.83 0.06
1 4.32 432 -1.470 -9.826 2.184 -9.491 -47.852 1.373 290.211 2418.225 -3283.911 1.064 0.768 1.535 -0.06 -0.55 0.83 0.05
1 4.33 433 -1.144 -10.267 2.289 -4.272 -50.507 -0.092 290.211 2418.225 -3283.911 0.759 1.200 1.409 -0.06 -0.55 0.83 0.05
1 4.34 434 -0.747 -9.903 2.571 2.930 -52.979 2.167 155.149 2358.264 -3253.930 0.385 0.830 1.115 -0.06 -0.56 0.83 0.05
1 4.35 435 -0.421 -9.524 2.892 3.357 -51.148 2.380 155.149 2358.264 -3253.930 0.084 0.449 0.791 -0.05 -0.56 0.83 0.05
1 4.36 436 -0.120 -9.414 2.811 1.404 -48.981 1.648 290.211 2298.303 -3208.959 -0.193 0.339 0.873 -0.05 -0.56 0.83 0.04
1 4.37 437 0.177 -9.898 3.103 -1.221 -37.933 1.587 110.178 2388.244 -3344.021 -0.434 0.819 0.577 -0.04 -0.56 0.83 0.04
1 4.38 438 0.215 -9.912 3.156 -4.883 -27.466 3.021 110.178 2388.244 -3344.021 -0.450 0.830 0.517 -0.04 -0.56 0.83 0.04
1 4.39 439 0.091 -10.075 3.031 -7.568 -15.106 3.387 155.149 2403.234 -3328.881 -0.312 0.987 0.630 -0.04 -0.56 0.83 0.04
1 4.40 440 -0.235 -10.137 2.840 -9.247 -6.470 1.587 155.149 2403.234 -3328.881 0.020 1.042 0.804 -0.04 -0.56 0.83 0.04
1 4.41 441 -0.824 -10.329 3.472 -12.054 -1.984 1.678 140.159 2343.273 -3134.008 0.609 1.225 0.150 -0.04 -0.56 0.83 0.04
1 4.42 442 -0.915 -11.363 6.383 -12.634 -9.583 0.061 140.159 2343.273 -3134.008 0.699 2.252 -2.782 -0.04 -0.56 0.83 0.04
1 4.43 443 0.565 -14.778 6.024 -6.561 0.244 11.353 35.227 2298.303 -3208.959 -0.776 5.659 -2.440 -0.04 -0.56 0.83 0.04
1 4.44 444 1.518 -14.122 5.512 9.247 7.050 39.856 260.230 2388.244 -3163.989 -1.779 5.000 -1.938 -0.04 -0.56 0.83 0.03
1 4.45 445 1.868 -12.082 5.358 12.268 6.928 43.366 260.230 2388.244 -3163.989 -2.189 2.968 -1.769 -0.04 -0.56 0.83 0.03
1 4.46 446 1.245 -11.033 4.832 -5.096 20.660 40.131 185.129 2388.244 -3088.888 -1.634 1.925 -1.235 -0.04 -0.56 0.83 0.03
1 4.47 447 0.421 -10.425 4.631 -7.477 17.456 32.135 185.129 2388.244 -3088.888 -0.874 1.316 -1.044 -0.05 -0.56 0.83 0.03
1 4.48 448 -1.489 -10.401 4.228 -8.637 19.653 26.672 305.201 2253.332 -3073.897 0.985 1.290 -0.652 -0.05 -0.56 0.83 0.03
1 4.49 449 -2.974 -9.941 3.553 -7.294 13.031 25.726 305.201 2253.332 -3073.897 2.422 0.828 0.009 -0.05 -0.56 0.83 0.02
1 4.50 450 -3.884 -8.619 3.548 1.526 -0.122 18.768 125.168 2553.287 -3223.950 3.288 -0.495 0.002 -0.05 -0.56 0.82 0.02
1 4.51 451 -3.122 -7.465 3.759 7.843 -11.780 6.653 290.211 2388.244 -3313.891 2.473 -1.646 -0.210 -0.05 -0.56 0.82 0.02
1 4.52 452 -1.987 -7.068 4.142 10.010 -23.407 2.350 290.211 2388.244 -3313.891 1.318 -2.031 -0.564 -0.05 -0.56 0.83 0.02
1 4.53 453 -1.346 -6.709 4.410 11.139 -27.527 8.209 260.230 2463.345 -3238.940 0.685 -2.384 -0.815 -0.05 -0.56 0.83 0.02
1 4.54 454 -0.752 -6.848 4.530 12.207 -30.579 14.008 260.230 2463.345 -3238.940 0.094 -2.237 -0.915 -0.05 -0.56 0.83 0.02
1 4.55 455 -0.450 -6.747 4.760 13.397 -33.325 17.822 260.230 2388.244 -3134.008 -0.210 -2.329 -1.123 -0.05 -0.56 0.83 0.01
1 4.56 456 0.302 -6.948 5.215 13.947 -31.983 22.400 230.250 2433.215 -3148.999 -0.968 -2.118 -1.555 -0.05 -0.56 0.83 0.01
1 4.57 457 0.809 -7.379 5.243 11.688 -29.327 26.856 155.149 2553.287 -3119.018 -1.486 -1.677 -1.560 -0.05 -0.56 0.83 0.01
1 4.58 458 1.125 -7.743 5.363 9.735 -25.879 27.710 230.250 2328.283 -3223.950 -1.810 -1.298 -1.644 -0.05 -0.56 0.83 0
1 4.59 459 1.240 -8.232 5.354 9.003 -21.515 22.858 230.250 2328.283 -3223.950 -1.939 -0.783 -1.575 0.04 0.55 -0.83 0
1 4.60 460 1.274 -8.533 5.176 7.324 -18.555 18.738 65.208 2418.225 -3134.008 -1.975 -0.470 -1.371 0.04 0.55 -0.83 0
1 4.61 461 1.231 -8.696 5.143 4.730 -13.825 14.465 65.208 2418.225 -3134.008 -1.930 -0.298 -1.315 0.04 0.55 -0.83 0
1 4.62 462 1.030 -8.782 4.913 2.350 -9.644 9.155 230.250 2433.215 -3253.930 -1.725 -0.205 -1.068 0.04 0.55 -0.83 0
1 4.63 463 1.020 -8.983 4.942 -0.488 -4.517 -0.610 125.168 2358.264 -3253.930 -1.706 0.000 -1.086 0.04 0.55 -0.83 0.01
1 4.64 464 0.790 -8.844 4.789 -3.143 -3.174 -7.202 65.208 2298.303 -3088.888 -1.460 -0.136 -0.924 0.04 0.55 -0.83 0.01
1 4.65 465 0.584 -8.672 4.674 -4.791 -3.235 -14.099 35.227 2223.202 -3238.940 -1.232 -0.308 -0.805 0.04 0.55 -0.84 0.01
1 4.66 466 0.498 -8.734 4.511 -5.859 -3.204 -20.477 35.227 2223.202 -3238.940 -1.117 -0.248 -0.641 0.03 0.55 -0.84 0
1 4.67 467 0.474 -8.801 4.329 -4.059 -2.899 -27.405 65.208 2343.273 -3238.940 -1.012 -0.188 -0.463 0.03 0.55 -0.84 0
1 4.68 468 0.407 -8.993 4.200 -2.838 -2.625 -30.212 65.208 2343.273 -3238.940 -0.897 0.001 -0.335 0.03 0.55 -0.83 0
1 4.69 469 0.268 -9.007 4.252 -1.160 -3.357 -31.860 140.159 2193.221 -3313.891 -0.706 0.012 -0.387 -0.03 -0.55 0.83 0
1 4.70 470 0.618 -9.070 4.118 1.343 -3.571 -32.623 125.168 2358.264 -3253.930 -1.002 0.073 -0.251 -0.03 -0.55 0.84 0
1 4.71 471 0.737 -9.012 4.142 2.991 -5.005 -30.396 35.227 2298.303 -3283.911 -1.067 0.016 -0.270 -0.02 -0.55 0.84 0.01
1 4.72 472 0.838 -8.979 4.094 4.150 -5.035 -28.931 110.178 2388.244 -3163.989 -1.114 -0.017 -0.216 -0.02 -0.55 0.84 0.01
1 4.73 473 0.757 -8.806 3.970 3.265 -4.791 -27.374 110.178 2388.244 -3163.989 -0.980 -0.188 -0.084 -0.02 -0.55 0.84 0.01
1 4.74 474 0.594 -8.643 3.773 3.693 -6.317 -24.994 125.168 2478.335 -3073.897 -0.720 -0.347 0.124 -0.02 -0.55 0.84 0.01
1 4.75 475 0.512 -8.548 3.692 3.906 -7.355 -23.041 125.168 2478.335 -3073.897 -0.594 -0.441 0.211 -0.01 -0.55 0.84 0.02
1 4.76 476 0.417 -8.380 3.587 2.319 -8.514 -22.125 110.178 2298.303 -3134.008 -0.457 -0.607 0.321 -0.01 -0.55 0.84 0.02
1 4.77 477 0.364 -8.193 3.467 0.854 -9.827 -20.416 -129.666 2253.332 -3193.969 -0.366 -0.793 0.444 -0.01 -0.55 0.84 0.02
1 4.78 478 0.268 -8.184 3.275 -0.244 -10.773 -17.151 -84.695 2298.303 -3283.911 -0.233 -0.802 0.636 -0.01 -0.55 0.84 0.02
1 4.79 479 0.129 -8.050 3.390 -1.862 -10.956 -14.038 125.168 2403.234 -3253.930 -0.062 -0.935 0.522 -0.01 -0.55 0.84 0.02
1 4.80 480 0.120 -8.208 3.323 -3.479 -10.559 -11.139 125.168 2403.234 -3253.930 -0.025 -0.778 0.587 -0.01 -0.55 0.84 0.02
1 4.81 481 0.297 -8.323 3.194 -5.188 -9.888 -8.209 -24.584 2358.264 -3374.002 -0.157 -0.667 0.705 -0 -0.55 0.84 0.02
1 4.82 482 0.522 -8.461 3.127 -6.287 -9.247 -6.561 -24.584 2358.264 -3374.002 -0.363 -0.532 0.763 -0 -0.55 0.84 0.02
1 4.83 483 0.551 -8.442 3.074 -6.744 -8.118 -5.371 -129.666 2283.312 -3119.018 -0.374 -0.556 0.804 -0 -0.55 0.84 0.02
1 4.84 484 0.589 -8.581 3.046 -8.972 -7.446 -3.876 -99.685 2283.312 -3193.969 -0.396 -0.423 0.818 -0 -0.55 0.83 0.02
1 4.85 485 0.790 -8.768 3.065 -10.132 -5.493 -2.014 -84.695 2298.303 -3238.940 -0.584 -0.243 0.783 -0 -0.55 0.83 0.02
1 4.86 486 0.737 -8.825 2.907 -10.651 -2.930 -0.336 -174.636 2478.335 -3148.999 -0.521 -0.193 0.923 -0 -0.55 0.83 0.02
1 4.87 487 0.809 -8.701 2.701 -11.322 -1.221 0.671 -176.885 2479.984 -3153.795 -0.585 -0.325 1.110 0 -0.55 0.83 0.02
1 4.88 488 0.800 -8.682 2.777 -11.688 1.862 2.808 -176.885 2405.033 -3228.747 -0.566 -0.361 0.992 0 -0.55 0.83 0.02
1 4.89 489 0.766 -8.581 2.753 -12.756 3.510 3.021 -176.885 2405.033 -3228.747 -0.533 -0.471 0.994 0 -0.56 0.83 0.02
1 4.90 490 0.613 -8.648 2.615 -15.228 6.592 4.089 -266.826 2390.043 -3093.834 -0.383 -0.414 1.109 0 -0.56 0.83 0.02
1 4.91 491 0.603 -8.672 2.634 -15.503 7.721 4.974 -11.842 2150.049 -3288.857 -0.380 -0.401 1.064 0 -0.56 0.83 0.02
1 4.92 492 0.651 -8.739 2.701 -15.625 9.705 5.127 -41.973 2420.023 -3168.786 -0.436 -0.345 0.971 -0 -0.56 0.83 0.02
1 4.93 493 0.608 -8.830 2.801 -15.991 12.543 5.219 -176.885 2435.014 -3198.766 -0.401 -0.264 0.844 -0 -0.56 0.83 0.02
1 4.94 494 0.824 -9.017 2.897 -17.029 14.221 5.310 -176.885 2435.014 -3198.766 -0.627 -0.088 0.723 -0 -0.56 0.83 0.02
1 4.95 495 0.747 -9.572 2.978 -16.754 15.442 5.463 -56.963 2479.984 -3153.795 -0.559 0.457 0.615 -0 -0.56 0.83 0.02
1 4.96 496 0.680 -10.204 2.978 -11.505 15.930 4.364 -56.963 2479.984 -3153.795 -0.514 1.068 0.562 -0 -0.57 0.82 0.02
1 4.97 497 0.704 -10.501 2.959 -7.690 15.350 3.357 -26.833 2329.932 -3198.766 -0.550 1.358 0.564 -0.01 -0.57 0.82 0.02
1 4.98 498 0.532 -10.415 3.060 -5.310 13.763 2.869 107.930 2420.023 -3213.756 -0.389 1.268 0.455 -0.01 -0.57 0.82 0.02
1 4.99 499 0.565 -10.319 3.050 -4.822 10.620 1.984 107.930 2420.023 -3213.756 -0.430 1.169 0.455 -0.01 -0.57 0.82 0.02
1 5.00 500 0.565 -10.286 2.830 -8.850 7.507 0.641 -11.842 2390.043 -3213.756 -0.434 1.130 0.663 -0.01 -0.57 0.82 0.02
1 5.01 501 0.579 -10.554 2.605 -10.895 7.019 -0.366 -11.842 2390.043 -3213.756 -0.450 1.392 0.870 -0.01 -0.57 0.82 0.02
1 5.02 502 0.646 -10.875 2.289 -12.238 8.057 -1.221 -176.885 2509.965 -3228.747 -0.520 1.707 1.172 -0.01 -0.57 0.82 0.02
1 5.03 503 0.709 -11.224 1.738 -10.956 12.909 -1.099 -176.885 2509.965 -3228.747 -0.586 2.045 1.691 -0.01 -0.57 0.82 0.02
1 5.04 504 0.618 -11.301 1.523 -11.566 14.954 -1.801 -41.973 2569.926 -3168.786 -0.500 2.116 1.892 -0.01 -0.57 0.82 0.03
1 5.05 505 0.565 -11.397 1.255 -12.421 16.876 -2.716 -176.885 2435.014 -3078.844 -0.451 2.206 2.144 -0.01 -0.57 0.82 0.03
1 5.06 506 0.752 -11.708 1.944 -10.803 21.668 -3.906 -176.885 2435.014 -3078.844 -0.642 2.511 1.438 -0.01 -0.57 0.82 0.03
1 5.07 507 -0.263 -13.327 4.401 -11.353 24.811 -5.737 -56.963 2359.913 -3078.844 0.368 4.124 -1.032 -0.01 -0.57 0.82 0.03
1 5.08 508 -0.532 -14.715 3.328 -4.486 5.280 -29.755 -56.963 2359.913 -3078.844 0.638 5.507 0.025 -0.01 -0.57 0.82 0.03
1 5.09 509 -0.144 -13.896 3.927 17.578 -2.167 -27.222 -131.914 2599.906 -3198.766 0.282 4.685 -0.584 -0.01 -0.57 0.82 0.03
1 5.10 510 -0.555 -11.938 4.156 17.365 -6.805 -16.235 -131.914 2599.906 -3198.766 0.737 2.734 -0.797 -0.01 -0.57 0.82 0.03
1 5.11 511 -0.905 -10.707 4.473 -0.336 -1.190 -13.977 62.959 2494.975 -3138.805 1.140 1.518 -1.074 -0.01 -0.57 0.82 0.03
1 5.12 512 -0.603 -10.717 4.386 -3.204 -0.305 -8.453 62.959 2645.027 -3168.786 0.858 1.528 -0.990 -0.01 -0.57 0.82 0.04
1 5.13 513 0.024 -10.549 4.453 0.000 3.540 -5.615 62.959 2645.027 -3168.786 0.242 1.359 -1.060 -0.01 -0.57 0.82 0.04
1 5.14 514 0.872 -9.472 4.329 3.571 4.181 -1.404 47.969 2599.906 -3228.747 -0.600 0.283 -0.933 -0.01 -0.57 0.82 0.04
1 5.15 515 0.584 -8.299 4.602 4.272 8.820 10.254 47.969 2599.906 -3228.747 -0.313 -0.887 -1.197 -0.01 -0.57 0.82 0.04
1 5.16 516 0.417 -7.293 4.745 2.594 10.345 12.634 -86.943 2615.046 -3168.786 -0.157 -1.887 -1.324 -0.01 -0.57 0.82 0.04
1 5.17 517 0.326 -6.943 5.047 6.958 12.146 13.672 -86.943 2615.046 -3168.786 -0.086 -2.233 -1.615 -0.01 -0.57 0.82 0.04
1 5.18 518 0.464 -6.805 5.315 11.078 16.815 10.834 -56.963 2509.965 -3123.815 -0.274 -2.364 -1.860 -0.01 -0.57 0.82 0.04
1 5.19 519 0.311 -6.781 5.684 12.878 20.355 5.402 -41.973 2494.975 -3093.834 -0.142 -2.382 -2.211 -0.01 -0.57 0.82 0.04
1 5.20 520 0.235 -6.795 5.311 13.245 21.881 -1.282 -41.973 2494.975 -3093.834 -0.081 -2.356 -1.808 -0.02 -0.57 0.82 0.04
1 5.21 521 0.139 -6.953 5.579 12.634 21.698 -7.660 62.959 2615.046 -3138.805 0.008 -2.191 -2.056 -0.02 -0.57 0.82 0.04
1 5.22 522 0.053 -7.073 5.430 10.468 19.623 -15.045 -11.842 2420.023 -3138.805 0.097 -2.057 -1.871 -0.02 -0.56 0.82 0.04
1 5.23 523 -0.153 -7.418 5.196 7.263 18.097 -17.883 152.900 2435.014 -3198.766 0.312 -1.699 -1.603 -0.02 -0.56 0.83 0.04
1 5.24 524 -0.278 -7.681 4.865 4.395 16.174 -19.836 152.900 2435.014 -3198.766 0.450 -1.424 -1.245 -0.02 -0.56 0.83 0.04
1 5.25 525 -0.230 -8.351 4.564 3.723 12.939 -21.851 47.969 2509.965 -3153.795 0.437 -0.738 -0.905 -0.02 -0.56 0.83 0.05
1 5.26 526 0.134 -8.567 4.506 3.143 10.895 -19.013 47.969 2509.965 -3123.815 0.095 -0.516 -0.834 -0.02 -0.56 0.83 0.05
1 5.27 527 0.196 -8.754 4.458 1.923 9.766 -14.465 47.969 2509.965 -3123.815 0.052 -0.324 -0.774 -0.02 -0.56 0.83 0.05
1 5.28 528 0.235 -9.156 4.382 -0.305 9.247 -5.646 107.930 2420.023 -3093.834 0.026 0.082 -0.689 -0.02 -0.56 0.83 0.05
1 5.29 529 0.541 -9.716 4.171 -3.448 10.040 3.143 77.949 2479.984 -3153.795 -0.280 0.644 -0.474 -0.02 -0.56 0.83 0.05
1 5.30 530 0.551 -9.836 4.147 -2.167 10.956 12.573 32.979 2420.023 -3288.857 -0.300 0.762 -0.452 -0.02 -0.56 0.83 0.05
1 5.31 531 0.536 -9.678 3.984 -1.404 11.993 15.564 32.979 2420.023 -3288.857 -0.306 0.603 -0.291 -0.02 -0.56 0.83 0.05
1 5.32 532 0.014 -9.271 3.845 -1.953 13.580 21.210 182.881 2539.945 -3243.737 0.158 0.195 -0.153 -0.02 -0.56 0.83 0.05
1 5.33 533 -0.393 -9.247 3.678 -2.319 12.573 21.484 -56.963 2435.014 -3258.727 0.527 0.169 0.013 -0.03 -0.56 0.83 0.05
1 5.34 534 -0.790 -9.252 3.702 -1.617 11.871 23.438 -56.963 2435.014 -3258.727 0.882 0.172 -0.015 -0.03 -0.56 0.83 0.05
1 5.35 535 -0.843 -9.175 3.606 1.251 8.789 22.980 -26.833 2479.984 -3153.795 0.890 0.095 0.080 -0.03 -0.56 0.83 0.05
1 5.36 536 -0.886 -8.902 3.611 4.120 6.348 21.423 77.949 2435.014 -3153.795 0.891 -0.177 0.078 -0.03 -0.56 0.83 0.05
1 5.37 537 -0.934 -8.634 3.424 6.653 5.188 20.966 137.910 2539.945 -3213.756 0.898 -0.443 0.270 -0.03 -0.56 0.83 0.05
1 5.38 538 -0.819 -8.576 3.529 7.751 3.204 20.386 137.910 2539.945 -3213.756 0.745 -0.497 0.173 -0.03 -0.56 0.83 0.04
1 5.39 539 -0.637 -8.457 3.539 6.989 1.984 18.677 256.483 2571.725 -3098.332 0.529 -0.612 0.175 -0.04 -0.56 0.83 0.04
1 5.40 540 -0.512 -8.346 3.539 7.843 1.373 15.747 181.532 2496.773 -3218.253 0.345 -0.712 0.198 -0.04 -0.55 0.83 0.04
1 5.41 541 -0.532 -8.313 3.414 7.843 1.282 14.282 181.532 2496.773 -3218.253 0.340 -0.740 0.334 -0.04 -0.55 0.83 0.04
1 5.42 542 -0.469 -8.308 3.386 7.019 0.488 12.848 151.551 2406.832 -3203.263 0.256 -0.739 0.375 -0.04 -0.55 0.83 0.04
1 5.43 543 -0.498 -8.327 3.314 5.859 -0.671 11.169 226.502 2556.734 -3203.263 0.266 -0.716 0.456 -0.04 -0.55 0.83 0.04
1 5.44 544 -0.670 -8.476 3.371 5.981 -3.174 8.118 181.532 2421.822 -3218.253 0.422 -0.563 0.407 -0.04 -0.55 0.83 0.04
1 5.45 545 -0.771 -8.677 3.199 6.073 -5.402 7.202 181.532 2421.822 -3218.253 0.511 -0.359 0.587 -0.04 -0.55 0.83 0.04
1 5.46 546 -0.915 -8.643 3.180 5.981 -6.989 6.836 256.483 2466.793 -3218.253 0.644 -0.389 0.612 -0.04 -0.55 0.83 0.04
1 5.47 547 -1.130 -8.514 3.069 5.035 -10.895 5.707 211.512 2421.822 -3353.315 0.841 -0.513 0.735 -0.04 -0.55 0.83 0.03
1 5.48 548 -1.341 -8.509 3.036 2.808 -13.214 5.066 211.512 2421.822 -3353.315 1.045 -0.516 0.772 -0.04 -0.55 0.83 0.03
1 5.49 549 -1.427 -8.514 2.773 0.671 -16.663 4.517 136.561 2466.793 -3173.283 1.126 -0.511 1.035 -0.04 -0.55 0.83 0.03
1 5.50 550 -1.566 -8.524 2.576 -0.732 -20.905 3.815 226.502 2436.812 -3203.263 1.261 -0.503 1.228 -0.04 -0.55 0.83 0.03
1 5.51 551 -1.652 -8.572 2.605 -1.892 -25.360 2.441 211.512 2466.793 -3218.253 1.346 -0.458 1.193 -0.04 -0.55 0.83 0.03
1 5.52 552 -1.690 -8.658 2.437 -4.669 -32.684 1.068 211.512 2466.793 -3218.253 1.387 -0.375 1.353 -0.04 -0.55 0.83 0.03
1 5.53 553 -1.489 -8.816 2.385 -5.219 -36.194 1.221 226.502 2286.760 -3233.244 1.193 -0.222 1.394 -0.03 -0.55 0.83 0.03
1 5.54 554 -1.312 -9.381 2.251 -5.524 -40.161 0.763 106.581 2346.721 -3143.302 1.026 0.337 1.514 -0.03 -0.55 0.83 0.02
1 5.55 555 -1.221 -9.922 2.485 -2.594 -46.051 1.251 106.581 2346.721 -3143.302 0.966 0.865 1.250 -0.03 -0.56 0.83 0.02
1 5.56 556 -1.269 -10.166 2.500 1.953 -51.178 2.625 106.581 2346.721 -3353.315 1.033 1.104 1.225 -0.03 -0.56 0.83 0.02
1 5.57 557 -1.015 -10.166 2.734 5.646 -54.291 5.310 76.600 2331.731 -3308.345 0.798 1.102 0.986 -0.02 -0.56 0.83 0.01
1 5.58 558 -0.230 -9.644 2.950 6.439 -55.725 5.951 121.571 2511.764 -3233.244 0.031 0.581 0.772 -0.02 -0.56 0.83 0.01
1 5.59 559 0.306 -9.711 3.026 7.599 -50.842 5.859 121.571 2511.764 -3233.244 -0.482 0.649 0.700 -0.02 -0.56 0.83 0.01
1 5.60 560 0.532 -9.682 3.275 5.554 -44.037 6.409 -118.273 2541.744 -3248.234 -0.681 0.622 0.457 -0.01 -0.56 0.83 0.01
1 5.61 561 0.484 -9.841 3.304 4.089 -36.499 4.822 -88.292 2421.822 -3248.234 -0.610 0.782 0.434 -0.01 -0.56 0.83 0
1 5.62 562 0.187 -10.008 2.988 3.357 -26.032 2.991 -88.292 2421.822 -3248.234 -0.276 0.950 0.752 -0.01 -0.56 0.83 0
1 5.63 563 -0.067 -9.874 2.658 0.519 -18.799 2.869 -43.322 2541.744 -3173.283 -0.010 0.815 1.079 0 0.56 -0.83 0
1 5.64 564 -0.306 -9.740 2.121 -2.411 -14.648 1.953 -43.322 2391.842 -3353.315 0.236 0.677 1.606 0 0.56 -0.83 0
1 5.65 565 -0.460 -10.013 2.634 -3.265 -13.916 -0.061 -43.322 2391.842 -3353.315 0.394 0.943 1.078 0 0.56 -0.83 0
1 5.66 566 0.464 -12.613 7.647 6.744 -13.397 -0.977 -88.292 2421.822 -3218.253 -0.522 3.540 -3.944 0 0.56 -0.83 0
1 5.67 567 3.342 -16.377 5.856 18.829 31.220 22.827 -88.292 2466.793 -3248.234 -3.388 7.306 -2.148 0 0.56 -0.83 0
1 5.68 568 3.371 -15.252 4.784 9.277 38.544 42.908 46.470 2406.832 -3383.296 -3.448 6.191 -1.050 0 0.56 -0.83 0
1 5.69 569 1.628 -10.707 4.243 7.599 46.356 56.122 46.470 2406.832 -3383.296 -1.872 1.663 -0.476 0.01 0.55 -0.83 0.01
1 5.70 570 0.091 -9.467 3.836 -5.829 29.572 55.634 -118.273 2346.721 -3323.335 -0.434 0.428 -0.066 0.02 0.55 -0.83 0.01
1 5.71 571 -0.814 -9.769 4.654 -11.139 23.590 47.394 -58.312 2436.812 -3308.345 0.383 0.729 -0.896 0.02 0.55 -0.83 0.01
1 5.72 572 -1.710 -10.430 4.779 -4.517 26.337 39.765 -58.312 2436.812 -3308.345 1.203 1.387 -1.035 0.02 0.56 -0.83 0.01
1 5.73 573 -3.836 -9.208 3.860 3.906 22.614 34.607 61.460 2466.793 -3323.335 3.261 0.168 -0.120 0.03 0.56 -0.83 0.01
1 5.74 574 -3.840 -7.695 4.089 11.475 1.251 17.365 136.561 2496.773 -3173.283 3.198 -1.338 -0.344 0.03 0.56 -0.83 0.02
1 5.75 575 -2.389 -6.699 4.161 12.329 -9.644 6.653 151.551 2556.734 -3308.345 1.692 -2.322 -0.396 0.03 0.55 -0.83 0.02
1 5.76 576 -0.273 -6.589 4.841 7.813 -15.381 12.604 151.551 2556.734 -3308.345 -0.444 -2.414 -1.037 0.03 0.55 -0.83 0.02
1 5.77 577 -0.115 -6.761 4.975 7.172 -15.625 15.106 31.479 2496.773 -3323.335 -0.611 -2.236 -1.159 0.03 0.55 -0.83 0.02
1 5.78 578 -0.292 -6.905 5.042 5.524 -17.304 19.898 76.600 2511.764 -3233.244 -0.448 -2.087 -1.216 0.03 0.55 -0.83 0.02
1 5.79 579 -0.139 -7.168 5.287 8.759 -19.287 22.705 76.600 2511.764 -3233.244 -0.618 -1.817 -1.449 0.03 0.55 -0.83 0.03
1 5.80 580 0.235 -7.556 5.349 10.010 -20.874 28.320 151.551 2406.832 -3263.224 -1.008 -1.415 -1.482 0.03 0.55 -0.83 0.03
1 5.81 581 0.584 -7.571 5.689 8.637 -20.569 28.504 196.522 2361.861 -3383.296 -1.376 -1.386 -1.791 0.03 0.55 -0.84 0.03
1 5.82 582 0.982 -7.667 5.722 7.111 -20.264 25.513 226.502 2436.812 -3383.296 -1.790 -1.275 -1.794 0.03 0.55 -0.84 0.03
1 5.83 583 1.101 -7.959 5.684 5.371 -17.822 22.888 226.502 2436.812 -3383.296 -1.921 -0.970 -1.728 0.03 0.55 -0.84 0.04
1 5.84 584 1.135 -8.308 5.531 4.761 -13.947 16.480 106.581 2466.793 -3473.237 -1.964 -0.599 -1.528 0.03 0.54 -0.84 0.04
1 5.85 585 0.881 -8.351 5.464 2.441 -11.597 12.054 151.551 2436.812 -3383.296 -1.707 -0.547 -1.442 0.02 0.54 -0.84 0.04
1 5.86 586 0.637 -8.414 5.406 0.061 -10.590 6.561 151.551 2436.812 -3383.296 -1.456 -0.478 -1.368 0.02 0.54 -0.84 0.04
1 5.87 587 0.259 -8.706 5.315 -1.648 -10.529 1.007 76.600 2436.812 -3383.296 -1.068 -0.182 -1.267 0.02 0.54 -0.84 0.04
1 5.88 588 -0.129 -8.773 5.100 -2.777 -11.627 -8.331 31.479 2496.773 -3428.267 -0.664 -0.113 -1.044 0.02 0.54 -0.84 0.04
1 5.89 589 -0.206 -8.543 4.932 -2.930 -13.031 -14.526 76.600 2511.764 -3308.345 -0.565 -0.342 -0.871 0.02 0.54 -0.84 0.04
1 5.90 590 -0.306 -8.366 4.913 -3.326 -13.886 -20.050 76.600 2511.764 -3308.345 -0.433 -0.520 -0.846 0.02 0.54 -0.84 0.04
1 5.91 591 -0.139 -8.437 4.592 -2.594 -14.984 -25.513 211.512 2391.842 -3293.205 -0.518 -0.450 -0.516 0.01 0.54 -0.84 0.04
1 5.92 592 -0.153 -8.428 4.683 -1.312 -16.205 -27.954 61.460 2301.750 -3323.335 -0.454 -0.462 -0.604 0.01 0.54 -0.84 0.04
1 5.93 593 0.034 -8.538 4.511 -0.854 -17.609 -28.870 61.460 2301.750 -3323.335 -0.588 -0.353 -0.426 0.01 0.54 -0.84 0.04
1 5.94 594 0.163 -8.538 4.338 -0.702 -18.402 -29.785 31.479 2346.721 -3353.315 -0.661 -0.354 -0.249 0.01 0.54 -0.84 0.04
1 5.95 595 0.211 -8.332 4.147 -2.411 -18.707 -28.168 -88.292 2421.822 -3398.286 -0.651 -0.562 -0.055 0 0.54 -0.84 0.03
1 5.96 596 0.364 -8.222 4.118 -3.906 -18.890 -27.222 -28.332 2601.855 -3488.228 -0.748 -0.674 -0.025 0 0.54 -0.84 0.03
1 5.97 597 0.187 -8.045 3.979 -6.256 -19.135 -24.689 -28.332 2601.855 -3488.228 -0.516 -0.854 0.113 -0 0.54 -0.84 0.03
1 5.98 598 0.129 -8.026 3.941 -7.080 -19.348 -23.407 -43.322 2421.822 -3398.286 -0.407 -0.877 0.147 -0 0.54 -0.84 0.03
1 5.99 599 0.206 -7.959 3.783 -9.247 -19.226 -19.592 -58.312 2406.832 -3443.257 -0.392 -0.954 0.288 -0.01 0.54 -0.84 0.03
1 6.00 600 0.125 -7.848 3.635 -10.407 -19.409 -17.578 -58.312 2406.832 -3443.257 -0.271 -1.070 0.424 -0.01 0.54 -0.84 0.03
1 6.01 601 -0.029 -8.011 3.577 -11.231 -18.524 -14.771 106.581 2421.822 -3353.315 -0.081 -0.914 0.468 -0.01 0.54 -0.84 0.03
1 6.02 602 0.096 -8.121 3.553 -12.238 -18.219 -10.284 -209.863 2482.982 -3341.773 -0.174 -0.811 0.477 -0.01 0.54 -0.84 0.03
1 6.03 603 0.244 -8.313 3.390 -12.848 -18.707 -9.155 -149.902 2617.895 -3356.913 -0.294 -0.627 0.624 -0.02 0.54 -0.84 0.03
1 6.04 604 0.393 -8.327 3.295 -13.245 -17.731 -8.301 -149.902 2617.895 -3356.913 -0.416 -0.621 0.701 -0.02 0.54 -0.84 0.03
1 6.05 605 0.551 -8.476 3.074 -14.435 -18.005 -6.561 -194.873 2467.842 -3356.913 -0.547 -0.482 0.901 -0.02 0.54 -0.84 0.03
1 6.06 606 0.508 -8.576 3.012 -16.724 -16.266 -4.669 -119.922 2392.891 -3296.802 -0.457 -0.401 0.917 -0.02 0.55 -0.84 0.03
1 6.07 607 0.757 -8.682 3.074 -18.127 -15.686 -3.357 -119.922 2392.891 -3296.802 -0.686 -0.308 0.827 -0.02 0.55 -0.84 0.03
1 6.08 608 0.656 -8.572 2.878 -19.074 -14.832 -3.357 -179.883 2407.881 -3446.854 -0.566 -0.431 0.993 -0.02 0.55 -0.83 0.03
1 6.09 609 0.694 -8.351 2.682 -20.233 -13.489 -2.686 -179.883 2407.881 -3446.854 -0.586 -0.665 1.158 -0.03 0.55 -0.83 0.03
1 6.10 610 1.063 -8.418 2.605 -24.536 -8.362 -2.106 -314.945 2437.862 -3416.874 -0.940 -0.611 1.203 -0.03 0.55 -0.83 0.03
1 6.11 611 1.245 -8.476 2.514 -27.863 -3.082 -2.197 -314.945 2437.862 -3416.874 -1.105 -0.569 1.255 -0.03 0.55 -0.83 0.03
1 6.12 612 1.499 -8.830 2.313 -30.029 0.244 -2.197 -194.873 2647.875 -3296.802 -1.344 -0.233 1.413 -0.03 0.56 -0.83 0.03
1 6.13 613 1.676 -9.462 2.552 -31.189 7.385 -2.777 -284.814 2632.885 -3161.890 -1.494 0.360 1.075 -0.03 0.56 -0.83 0.03
1 6.14 614 1.623 -10.195 2.466 -29.785 11.383 -4.425 -284.814 2632.885 -3161.890 -1.429 1.073 1.111 -0.03 0.56 -0.83 0.03
1 6.15 615 1.532 -10.540 2.739 -25.055 13.702 -4.669 -254.834 2707.836 -3341.773 -1.333 1.401 0.794 -0.03 0.56 -0.82 0.03
1 6.16 616 1.571 -10.904 2.552 -20.233 15.015 -4.730 -254.834 2707.836 -3341.773 -1.370 1.752 0.948 -0.03 0.57 -0.82 0.02
1 6.17 617 1.221 -10.956 2.653 -16.235 19.257 -1.099 -179.883 2677.855 -3161.890 -1.023 1.795 0.821 -0.03 0.57 -0.82 0.02
1 6.18 618 1.164 -11.038 2.595 -14.648 20.020 2.777 -179.883 2677.855 -3161.890 -0.971 1.868 0.857 -0.03 0.57 -0.82 0.02
1 6.19 619 1.183 -11.181 2.581 -11.932 17.609 5.066 -344.925 2812.917 -3221.851 -1.002 2.004 0.852 -0.03 0.57 -0.82 0.02
1 6.20 620 1.513 -11.009 2.231 -5.768 16.113 8.911 -224.854 2722.976 -3296.802 -1.365 1.821 1.174 -0.02 0.57 -0.82 0.02
1 6.21 621 1.848 -10.951 2.102 -5.005 23.010 12.177 -224.854 2722.976 -3296.802 -1.722 1.761 1.297 -0.02 0.57 -0.82 0.02
1 6.22 622 1.537 -10.707 2.006 -8.575 29.602 15.533 -314.945 2677.855 -3266.822 -1.441 1.513 1.385 -0.02 0.57 -0.82 0.02
1 6.23 623 1.092 -10.971 4.022 -13.275 35.736 16.266 -314.945 2677.855 -3266.822 -1.033 1.772 -0.643 -0.02 0.57 -0.82 0.02
1 6.24 624 -1.341 -13.777 5.076 -23.590 21.637 -2.319 -29.831 2677.855 -3266.822 1.360 4.570 -1.717 -0.01 0.57 -0.82 0.02
1 6.25 625 -2.026 -15.333 4.516 -1.434 2.441 -22.888 -29.831 2677.855 -3266.822 2.027 6.115 -1.189 -0.01 0.57 -0.82 0.02
1 6.26 626 -2.509 -13.916 4.889 26.245 -16.449 -13.855 -119.922 2617.895 -3356.913 2.536 4.693 -1.574 -0.01 0.58 -0.82 0.02
1 6.27 627 -2.366 -11.397 4.717 21.423 -30.274 -7.141 -134.912 2632.885 -3161.890 2.424 2.186 -1.371 -0.01 0.57 -0.82 0.02
1 6.28 628 -1.614 -9.750 4.789 0.214 -16.327 -10.925 -134.912 2632.885 -3161.890 1.726 0.558 -1.392 -0.02 0.57 -0.82 0.02
1 6.29 629 -0.134 -9.812 4.295 -8.423 -10.925 -4.150 -194.873 2767.947 -3221.851 0.264 0.620 -0.899 -0.02 0.57 -0.82 0.02
1 6.30 630 1.748 -9.965 4.185 -7.263 0.458 5.005 -194.873 2767.947 -3221.851 -1.611 0.770 -0.798 -0.02 0.57 -0.82 0.02
1 6.31 631 3.046 -9.692 4.051 -1.923 11.139 11.139 14.990 2752.957 -3266.822 -2.919 0.494 -0.672 -0.02 0.57 -0.82 0.02
1 6.32 632 3.864 -8.586 4.137 5.096 26.398 15.533 -59.811 2707.836 -3311.792 -3.748 -0.612 -0.757 -0.02 0.57 -0.82 0.02
1 6.33 633 3.347 -7.916 4.228 6.287 33.905 17.212 -14.840 2692.846 -3221.851 -3.236 -1.277 -0.835 -0.02 0.57 -0.82 0.01
1 6.34 634 2.145 -7.398 4.564 7.721 34.882 14.160 -29.831 2782.937 -3386.894 -2.047 -1.788 -1.152 -0.02 0.57 -0.82 0.01
1 6.35 635 0.129 -6.881 4.966 11.444 36.072 1.740 -29.831 2782.937 -3386.894 -0.083 -2.291 -1.515 -0.01 0.57 -0.82 0.01
1 6.36 636 -0.589 -6.848 5.325 11.658 35.095 -7.172 -179.883 2707.836 -3266.822 0.618 -2.318 -1.857 -0.01 0.57 -0.82 0.01
1 6.37 637 -1.068 -6.857 5.210 12.085 32.868 -16.174 -179.883 2707.836 -3266.822 1.093 -2.302 -1.724 -0.01 0.57 -0.82 0.01
1 6.38 638 -1.312 -6.953 5.315 10.345 31.799 -25.269 -59.811 2602.904 -3266.822 1.346 -2.199 -1.812 -0.01 0.57 -0.82 0
1 6.39 639 -1.619 -7.245 5.062 4.791 30.060 -36.560 44.971 2602.904 -3341.773 1.664 -1.895 -1.527 -0 0.57 -0.82 0
1 6.40 640 -1.743 -7.523 4.870 2.808 26.856 -37.872 14.990 2677.855 -3341.773 1.809 -1.608 -1.312 0 -0.56 0.83 0
1 6.41 641 -1.528 -7.638 4.722 0.366 24.017 -35.584 14.990 2632.885 -3311.792 1.619 -1.485 -1.144 0 -0.56 0.83 0
1 6.42 642 -1.207 -7.906 4.573 -2.808 21.423 -31.921 14.990 2632.885 -3311.792 1.323 -1.211 -0.981 0 -0.56 0.83 0.01
1 6.43 643 -0.407 -8.303 4.516 -4.120 19.989 -22.095 74.951 2677.855 -3311.792 0.569 -0.808 -0.911 0 -0.56 0.83 0.01
1 6.44 644 0.110 -8.792 4.592 -5.554 19.928 -13.458 74.951 2677.855 -3311.792 0.066 -0.318 -0.985 0 -0.56 0.83 0.02
1 6.45 645 0.417 -9.501 4.343 -9.216 22.156 -3.204 14.990 2632.885 -3446.854 -0.235 0.390 -0.737 -0 -0.56 0.83 0.02
1 6.46 646 0.632 -10.080 3.946 -10.040 24.078 6.287 14.990 2677.855 -3341.773 -0.459 0.966 -0.349 -0 -0.56 0.83 0.02
1 6.47 647 0.546 -9.778 3.917 -7.721 27.557 12.848 104.932 2722.976 -3326.783 -0.394 0.659 -0.331 -0 -0.56 0.83 0.02
1 6.48 648 0.254 -9.544 3.821 -10.010 30.548 14.465 29.980 2572.924 -3356.913 -0.130 0.421 -0.244 -0.01 -0.56 0.83 0.02
1 6.49 649 -0.311 -9.371 3.735 -10.376 31.128 15.564 29.980 2572.924 -3356.913 0.402 0.244 -0.169 -0.01 -0.56 0.83 0.02
1 6.50 650 -1.039 -9.208 3.534 -7.446 29.205 14.801 -44.821 2767.947 -3326.783 1.046 0.071 0.007 -0.01 -0.56 0.82 0.02
1 6.51 651 -1.053 -9.208 3.429 -5.127 26.306 13.031 -44.821 2767.947 -3326.783 1.017 0.067 0.103 -0.02 -0.57 0.82 0.02
1 6.52 652 -1.077 -9.079 3.395 -1.221 23.560 10.590 119.922 2677.855 -3311.792 1.004 -0.064 0.130 -0.02 -0.57 0.82 0.02
1 6.53 653 -0.986 -8.844 3.256 0.458 21.515 9.247 225.003 2752.957 -3416.874 0.879 -0.299 0.268 -0.02 -0.57 0.82 0.02
1 6.54 654 -0.895 -8.572 3.357 2.777 18.402 8.240 179.583 2813.517 -3328.132 0.758 -0.571 0.168 -0.02 -0.57 0.82 0.02
1 6.55 655 -0.963 -8.538 3.251 3.540 17.456 7.385 104.632 2813.517 -3358.112 0.798 -0.603 0.278 -0.03 -0.57 0.82 0.02
1 6.56 656 -0.857 -8.557 3.366 2.960 17.334 5.768 104.632 2813.517 -3358.112 0.668 -0.581 0.168 -0.03 -0.56 0.82 0.02
1 6.57 657 -0.718 -8.600 3.414 3.723 15.747 4.303 119.622 2633.484 -3343.122 0.487 -0.533 0.130 -0.03 -0.56 0.82 0.02
1 6.58 658 -0.824 -8.567 3.366 3.937 14.801 4.059 119.622 2633.484 -3343.122 0.576 -0.564 0.184 -0.03 -0.56 0.82 0.02
1 6.59 659 -0.843 -8.562 3.395 2.655 14.008 3.693 209.563 2693.445 -3433.213 0.578 -0.566 0.161 -0.03 -0.56 0.83 0.02
1 6.60 660 -1.121 -8.461 3.151 1.617 12.207 3.357 149.603 2828.507 -3523.155 0.839 -0.665 0.409 -0.03 -0.56 0.83 0.02
1 6.61 661 -1.446 -8.576 3.180 -1.068 7.355 4.059 149.603 2483.432 -3388.093 1.148 -0.549 0.381 -0.03 -0.56 0.83 0.02
1 6.62 662 -1.417 -8.701 3.026 -0.031 2.838 4.028 254.534 2723.426 -3433.213 1.102 -0.425 0.532 -0.04 -0.56 0.83 0.02
1 6.63 663 -1.604 -8.926 2.998 0.610 -0.671 3.418 254.534 2723.426 -3433.213 1.273 -0.200 0.558 -0.04 -0.56 0.83 0.02
1 6.64 664 -1.714 -8.663 2.773 0.641 -5.676 5.463 254.534 2693.445 -3358.112 1.356 -0.464 0.780 -0.04 -0.56 0.83 0.02
1 6.65 665 -2.045 -8.562 2.792 -0.153 -8.240 5.096 254.534 2693.445 -3358.112 1.673 -0.565 0.758 -0.04 -0.56 0.83 0.02
1 6.66 666 -2.083 -8.864 2.624 -2.899 -15.503 5.127 359.616 2813.517 -3478.184 1.699 -0.264 0.921 -0.04 -0.56 0.82 0.02
1 6.67 667 -1.963 -8.988 2.447 -2.319 -19.562 4.761 269.524 2828.507 -3343.122 1.569 -0.143 1.091 -0.04 -0.56 0.82 0.02
1 6.68 668 -1.791 -8.595 2.318 0.244 -25.879 3.662 134.612 2693.445 -3433.213 1.390 -0.538 1.212 -0.04 -0.56 0.82 0.02
1 6.69 669 -1.628 -8.524 2.217 -2.014 -29.755 3.845 149.603 2753.556 -3343.122 1.226 -0.612 1.308 -0.04 -0.56 0.82 0.02
1 6.70 670 -1.441 -8.706 2.140 -4.852 -32.593 2.869 149.603 2753.556 -3343.122 1.041 -0.432 1.378 -0.03 -0.57 0.82 0.01
1 6.71 671 -1.451 -9.232 2.078 -6.378 -35.950 2.380 119.622 2708.436 -3343.122 1.056 0.090 1.430 -0.03 -0.57 0.82 0.01
1 6.72 672 -1.235 -9.788 2.150 -2.686 -42.023 1.221 119.622 2708.436 -3343.122 0.859 0.634 1.328 -0.03 -0.57 0.82 0.01
1 6.73 673 -1.149 -9.884 2.275 -0.336 -45.929 0.916 134.612 2723.426 -3433.213 0.789 0.725 1.194 -0.03 -0.57 0.82 0.01
1 6.74 674 -1.049 -9.668 2.428 1.923 -48.340 0.519 149.603 2633.484 -3343.122 0.707 0.507 1.035 -0.02 -0.57 0.82 0
1 6.75 675 -0.828 -9.654 2.571 2.502 -49.866 0.397 149.603 2633.484 -3343.122 0.508 0.491 0.890 -0.02 -0.57 0.82 0
1 6.76 676 -0.244 -10.190 2.830 3.296 -46.875 -0.153 -15.290 2888.468 -3433.213 -0.051 1.026 0.631 0.02 0.57 -0.82 0
1 6.77 677 0.177 -10.319 2.926 6.256 -44.098 -0.153 -15.290 2888.468 -3433.213 -0.446 1.155 0.535 0.01 0.57 -0.82 0
1 6.78 678 0.115 -10.410 3.314 8.850 -39.459 -0.946 -120.222 2648.475 -3613.096 -0.356 1.246 0.151 0.01 0.57 -0.82 0.01
1 6.79 679 0.043 -10.257 3.433 12.268 -30.426 -1.038 -120.222 2648.475 -3613.096 -0.239 1.104 0.062 0.01 0.57 -0.82 0.01
1 6.80 680 0.029 -10.209 3.175 10.223 -26.703 0.427 -15.290 2843.498 -3433.213 -0.205 1.061 0.336 0 0.57 -0.82 0.01
1 6.81 681 -0.110 -10.185 2.964 9.583 -21.759 0.977 -90.241 2723.426 -3553.135 -0.050 1.041 0.557 0 0.57 -0.82 0.01
1 6.82 682 -0.283 -10.018 2.571 7.935 -17.944 1.862 -90.241 2723.426 -3553.135 0.133 0.876 0.956 0 0.57 -0.82 0.01
1 6.83 683 -0.790 -9.879 2.045 0.854 -8.942 4.700 -105.231 2753.556 -3448.204 0.645 0.738 1.485 0 0.57 -0.82 0.01
1 6.84 684 -1.255 -10.248 1.978 -4.242 -10.834 6.165 -105.231 2753.556 -3448.204 1.106 1.104 1.546 -0 0.57 -0.82 0.01
1 6.85 685 -1.417 -10.956 4.884 2.808 -16.998 6.042 -105.231 2603.504 -3523.155 1.260 1.806 -1.378 -0 0.57 -0.82 0.01
1 6.86 686 1.082 -14.926 4.750 22.675 17.731 17.212 -105.231 2603.504 -3523.155 -1.243 5.785 -1.221 -0 0.57 -0.82 0.02
1 6.87 687 1.164 -14.284 3.649 16.205 10.254 29.327 -15.290 2693.445 -3553.135 -1.364 5.155 -0.090 0 0.56 -0.83 0.02
1 6.88 688 0.963 -12.043 4.726 31.769 8.301 33.020 -60.261 2858.488 -3388.093 -1.208 2.927 -1.140 0 0.56 -0.83 0.02
1 6.89 689 0.646 -10.104 4.477 19.318 19.226 37.262 -60.261 2858.488 -3388.093 -0.946 1.006 -0.847 0 0.56 -0.83 0.02
1 6.90 690 -0.120 -9.884 5.287 5.707 14.465 37.232 -15.290 2723.426 -3583.116 -0.239 0.797 -1.634 0.01 0.56 -0.83 0.02
1 6.91 691 -0.235 -10.372 5.057 9.186 20.660 26.398 -15.290 2723.426 -3583.116 -0.181 1.291 -1.396 0.01 0.56 -0.83 0.02
1 6.92 692 -0.958 -10.401 4.128 7.904 18.402 28.748 -30.280 2633.484 -3388.093 0.493 1.327 -0.456 0.01 0.56 -0.83 0.02
1 6.93 693 -2.069 -8.974 3.893 7.233 10.315 29.633 -30.280 2633.484 -3388.093 1.556 -0.093 -0.210 0.01 0.56 -0.83 0.03
1 6.94 694 -2.083 -7.671 4.559 6.500 -1.160 12.817 119.622 2633.484 -3523.155 1.468 -1.379 -0.851 0.02 0.56 -0.83 0.03
1 6.95 695 -1.432 -7.609 4.750 7.690 -7.172 9.155 44.521 2753.556 -3493.174 0.793 -1.432 -1.023 0.02 0.56 -0.83 0.03
1 6.96 696 -1.188 -7.623 4.784 8.545 -8.911 9.888 44.521 2753.556 -3493.174 0.536 -1.408 -1.035 0.02 0.56 -0.83 0.03
1 6.97 697 -1.437 -7.245 4.923 8.301 -12.360 10.681 104.632 2573.523 -3478.184 0.773 -1.775 -1.150 0.02 0.55 -0.83 0.03
1 6.98 698 -1.298 -6.757 4.951 10.315 -20.111 14.526 74.651 2603.504 -3598.106 0.624 -2.255 -1.159 0.02 0.55 -0.83 0.03
1 6.99 699 -0.728 -6.522 5.215 11.963 -22.675 15.595 59.511 2693.445 -3403.233 0.047 -2.482 -1.407 0.02 0.55 -0.83 0.04
1 7.00 700 -0.148 -6.781 5.301 10.071 -23.071 17.151 59.511 2693.445 -3403.233 -0.539 -2.215 -1.473 0.02 0.55 -0.83 0.04
1 7.01 701 0.397 -7.068 5.330 7.507 -22.156 17.853 59.511 2693.445 -3613.096 -1.105 -1.912 -1.470 0.02 0.55 -0.83 0.04
1 7.02 702 0.800 -7.365 5.306 7.233 -20.752 15.350 74.651 2708.436 -3673.207 -1.508 -1.603 -1.418 0.01 0.55 -0.83 0.04
1 7.03 703 1.092 -7.590 5.330 6.531 -19.135 14.038 74.651 2708.436 -3673.207 -1.796 -1.367 -1.415 0.01 0.55 -0.84 0.05
1 7.04 704 1.346 -7.963 5.406 4.242 -16.632 12.970 29.531 2618.494 -3508.165 -2.043 -0.983 -1.468 0.01 0.55 -0.84 0.05
1 7.05 705 1.370 -8.481 5.311 1.923 -12.787 10.956 134.912 2543.243 -3837.200 -2.059 -0.458 -1.353 0.01 0.55 -0.84 0.05
1 7.06 706 1.053 -8.581 5.363 -0.153 -10.895 10.651 -89.941 2723.276 -3657.167 -1.734 -0.352 -1.390 0.01 0.55 -0.84 0.05
1 7.07 707 0.594 -8.744 5.325 -1.373 -11.200 8.179 -89.941 2723.276 -3657.167 -1.267 -0.184 -1.339 0.01 0.54 -0.84 0.05
1 7.08 708 0.000 -8.974 5.038 -2.991 -13.214 1.709 -14.990 2618.344 -3582.216 -0.661 0.052 -1.037 0.01 0.54 -0.84 0.05
1 7.09 709 -0.249 -8.916 4.836 -2.960 -15.106 -4.059 -29.980 2633.334 -3522.255 -0.398 -0.005 -0.831 0.01 0.54 -0.84 0.05
1 7.10 710 -0.359 -8.849 4.712 -3.387 -15.808 -9.735 -29.980 2633.334 -3522.255 -0.267 -0.072 -0.704 0 0.54 -0.84 0.05
1 7.11 711 -0.570 -8.672 4.621 -4.395 -16.724 -14.526 -44.971 2573.374 -3762.249 -0.029 -0.250 -0.612 0 0.54 -0.84 0.05
1 7.12 712 -0.623 -8.634 4.257 -5.066 -18.036 -20.020 -29.980 2483.282 -3702.288 0.056 -0.291 -0.248 0 0.54 -0.84 0.05
1 7.13 713 -0.187 -8.610 4.209 -5.615 -19.196 -23.254 44.821 2678.305 -3672.158 -0.342 -0.318 -0.201 -0 0.54 -0.84 0.05
1 7.14 714 0.048 -8.533 4.080 -6.409 -20.111 -24.994 44.821 2678.305 -3672.158 -0.532 -0.398 -0.075 -0 0.54 -0.84 0.05
1 7.15 715 0.383 -8.552 3.922 -6.897 -20.538 -25.482 14.840 2558.233 -3642.177 -0.817 -0.384 0.078 -0.01 0.54 -0.84 0.05
1 7.16 716 0.474 -8.476 3.802 -9.613 -19.348 -25.940 -104.932 2603.354 -3492.275 -0.800 -0.472 0.182 -0.01 0.54 -0.84 0.05
1 7.17 717 0.589 -8.366 3.668 -11.444 -17.487 -23.834 -104.932 2603.354 -3492.275 -0.861 -0.589 0.305 -0.01 0.55 -0.84 0.05
1 7.18 718 0.579 -8.323 3.453 -13.306 -16.235 -23.071 -14.990 2693.295 -3582.216 -0.802 -0.640 0.505 -0.02 0.55 -0.84 0.04
1 7.19 719 0.603 -8.284 3.424 -13.916 -16.052 -21.179 -210.013 2633.334 -3642.177 -0.779 -0.688 0.515 -0.02 0.55 -0.84 0.04
1 7.20 720 0.560 -8.227 3.309 -13.947 -14.374 -18.738 -134.912 2513.263 -3597.207 -0.691 -0.755 0.609 -0.02 0.55 -0.84 0.04
1 7.21 721 0.594 -8.064 3.199 -14.374 -13.184 -16.083 -134.912 2513.263 -3597.207 -0.683 -0.927 0.699 -0.02 0.55 -0.83 0.04
1 7.22 722 0.632 -8.083 3.141 -15.808 -11.047 -13.367 -14.990 2648.325 -3657.167 -0.689 -0.917 0.737 -0.02 0.55 -0.83 0.04
1 7.23 723 0.464 -8.212 3.022 -15.198 -9.003 -10.529 -119.922 2648.325 -3732.269 -0.471 -0.805 0.816 -0.03 0.55 -0.83 0.04
1 7.24 724 0.354 -8.524 2.825 -14.923 -8.484 -8.911 -119.922 2648.325 -3732.269 -0.339 -0.503 0.990 -0.03 0.55 -0.83 0.04
1 7.25 725 0.273 -8.557 2.773 -14.893 -8.179 -8.331 -284.964 2828.357 -3522.255 -0.237 -0.480 1.018 -0.03 0.55 -0.83 0.04
1 7.26 726 0.316 -8.639 2.725 -14.221 -7.751 -7.355 -314.945 2633.334 -3522.255 -0.262 -0.409 1.040 -0.03 0.55 -0.83 0.04
1 7.27 727 0.378 -8.586 2.591 -15.930 -6.134 -5.676 -254.984 2708.286 -3597.207 -0.307 -0.472 1.149 -0.03 0.56 -0.83 0.04
1 7.28 728 0.474 -8.576 2.528 -18.433 -4.211 -4.974 -254.984 2708.286 -3597.207 -0.388 -0.493 1.184 -0.03 0.56 -0.83 0.04
1 7.29 729 0.579 -8.811 2.514 -18.463 -2.411 -3.784 -149.902 2648.325 -3507.265 -0.480 -0.270 1.168 -0.03 0.56 -0.83 0.04
1 7.30 730 0.613 -8.835 2.480 -19.257 -1.526 -3.540 -344.925 2693.295 -3612.197 -0.501 -0.259 1.170 -0.03 0.56 -0.83 0.04
1 7.31 731 0.804 -8.844 2.342 -19.409 2.472 -2.899 -344.925 2693.295 -3612.197 -0.672 -0.275 1.243 -0.03 0.56 -0.83 0.04
1 7.32 732 0.977 -8.744 2.413 -21.027 4.608 -2.441 -254.984 2783.387 -3492.275 -0.836 -0.389 1.137 -0.03 0.56 -0.82 0.04
1 7.33 733 1.030 -8.643 2.366 -22.125 8.423 -1.526 -149.902 2768.396 -3657.167 -0.882 -0.503 1.150 -0.03 0.57 -0.82 0.03
1 7.34 734 1.250 -8.955 2.399 -23.712 11.688 -1.831 -180.033 2933.289 -3492.275 -1.097 -0.206 1.079 -0.03 0.57 -0.82 0.03
1 7.35 735 1.379 -9.213 2.571 -24.384 18.402 -2.960 -180.033 2933.289 -3492.275 -1.221 0.038 0.868 -0.03 0.57 -0.82 0.03
1 7.36 736 1.609 -9.644 2.662 -23.224 22.858 -3.967 -225.003 2888.318 -3507.265 -1.446 0.454 0.737 -0.03 0.57 -0.82 0.03
1 7.37 737 1.561 -10.252 2.797 -20.783 26.825 -4.578 -195.023 2918.299 -3402.184 -1.392 1.049 0.565 -0.03 0.57 -0.82 0.03
1 7.38 738 1.255 -10.937 2.792 -14.893 29.938 -6.317 -195.023 2918.299 -3402.184 -1.087 1.712 0.511 -0.03 0.58 -0.82 0.03
1 7.39 739 0.929 -10.966 2.916 -11.047 30.182 -7.446 -254.984 2858.338 -3447.304 -0.766 1.734 0.368 -0.03 0.58 -0.82 0.02
1 7.40 740 0.508 -10.894 2.926 -8.728 27.802 -7.935 -269.974 2963.419 -3582.216 -0.348 1.657 0.345 -0.03 0.58 -0.82 0.02
1 7.41 741 0.378 -10.765 2.509 -8.637 21.973 -7.843 -195.023 2918.299 -3582.216 -0.219 1.524 0.751 -0.02 0.58 -0.82 0.02
1 7.42 742 0.642 -11.105 2.528 -9.064 13.916 -8.392 -195.023 2918.299 -3582.216 -0.480 1.860 0.720 -0.02 0.58 -0.82 0.02
1 7.43 743 0.867 -11.339 2.093 -9.613 12.085 -7.324 -314.945 3053.361 -3522.255 -0.699 2.091 1.145 -0.02 0.58 -0.82 0.02
1 7.44 744 1.020 -11.416 1.820 -10.193 11.597 -4.639 -149.902 2963.419 -3687.298 -0.847 2.163 1.405 -0.02 0.58 -0.82 0.02
1 7.45 745 1.374 -11.641 1.221 -7.874 13.702 -4.059 -149.902 2963.419 -3687.298 -1.198 2.380 1.978 -0.02 0.58 -0.81 0.01
1 7.46 746 1.571 -11.670 1.537 -4.425 18.860 -2.808 -180.033 2978.410 -3567.226 -1.395 2.405 1.653 -0.02 0.58 -0.81 0.01
1 7.47 747 1.590 -11.900 3.160 -3.937 23.071 -1.984 -210.013 2933.289 -3447.304 -1.419 2.634 0.026 -0.02 0.58 -0.81 0.01
1 7.48 748 0.235 -13.863 3.625 -8.575 22.949 -8.087 -180.033 2933.289 -3492.275 -0.070 4.595 -0.444 -0.02 0.58 -0.81 0.01
1 7.49 749 -0.407 -14.409 3.505 -6.378 11.414 -20.874 -180.033 2933.289 -3492.275 0.578 5.137 -0.336 -0.02 0.58 -0.81 0.01
1 7.50 750 -1.082 -13.509 3.850 20.599 -3.784 -14.404 -210.013 2978.410 -3447.304 1.281 4.237 -0.682 -0.02 0.58 -0.81 0.01
1 7.51 751 -1.173 -12.005 3.620 17.517 -7.385 -11.749 -134.912 2903.309 -3597.207 1.397 2.743 -0.426 -0.02 0.58 -0.81 0.01
1 7.52 752 -0.924 -10.094 3.678 15.076 -6.378 -13.367 -134.912 2903.309 -3597.207 1.193 0.851 -0.433 -0.02 0.58 -0.82 0.01
1 7.53 753 -0.081 -9.596 4.348 7.629 1.617 -9.644 -149.902 3068.351 -3582.216 0.364 0.361 -1.081 -0.02 0.58 -0.82 0
1 7.54 754 0.891 -9.841 4.281 0.458 11.139 -3.082 -269.974 2888.318 -3657.167 -0.598 0.611 -0.998 -0.02 0.58 -0.82 0
1 7.55 755 1.537 -9.936 3.931 5.554 16.205 2.777 -269.974 2888.318 -3657.167 -1.246 0.709 -0.643 -0.02 0.58 -0.82 0
1 7.56 756 1.221 -8.605 4.147 12.604 21.515 11.047 -210.013 3023.380 -3567.226 -0.939 -0.617 -0.845 -0.02 0.58 -0.82 0
1 7.57 757 1.053 -7.643 4.276 11.505 23.163 13.245 -269.974 2918.299 -3507.265 -0.786 -1.571 -0.949 -0.02 0.57 -0.82 0
1 7.58 758 0.919 -7.197 4.224 11.261 25.574 12.146 -314.945 2903.309 -3597.207 -0.678 -2.009 -0.874 -0.02 0.57 -0.82 0
1 7.59 759 0.766 -7.202 4.774 13.306 27.313 8.972 -314.945 2903.309 -3597.207 -0.554 -1.999 -1.407 -0.01 0.57 -0.82 0
1 7.60 760 0.316 -7.111 5.354 13.275 32.776 1.129 -119.922 2888.318 -3582.216 -0.152 -2.073 -1.937 -0.01 0.57 -0.82 0
1 7.61 761 -0.077 -7.149 5.588 12.421 35.339 -6.653 -104.932 2978.410 -3492.275 0.226 -2.020 -2.133 0.01 -0.57 0.82 0
1 7.62 762 -0.397 -7.259 5.488 14.710 36.194 -13.001 -104.932 2978.410 -3492.275 0.538 -1.896 -1.994 0.01 -0.57 0.82 0
1 7.63 763 -0.646 -7.073 5.492 15.900 34.180 -18.860 -104.932 2903.309 -3702.288 0.785 -2.067 -1.958 0 -0.57 0.82 0.01
1 7.64 764 -0.699 -7.216 5.344 10.529 31.647 -23.712 -104.932 2858.338 -3597.207 0.842 -1.907 -1.769 0 -0.56 0.83 0.01
1 7.65 765 -0.804 -7.379 5.176 7.111 29.877 -23.529 -104.932 2903.309 -3702.288 0.956 -1.731 -1.567 0 -0.56 0.83 0.01
1 7.66 766 -0.718 -7.690 4.975 3.418 27.741 -22.400 -104.932 2903.309 -3702.288 0.880 -1.408 -1.339 0 -0.56 0.83 0.01
1 7.67 767 -0.479 -8.289 4.736 0.427 25.391 -20.996 -210.013 2858.338 -3642.177 0.662 -0.795 -1.065 -0 -0.56 0.83 0.02
1 7.68 768 -0.259 -8.552 4.583 0.519 25.452 -19.074 -89.941 2993.400 -3612.197 0.453 -0.527 -0.900 -0 -0.56 0.83 0.02
1 7.69 769 -0.163 -8.576 4.564 -0.061 25.177 -13.580 -89.941 2993.400 -3612.197 0.365 -0.499 -0.872 -0 -0.56 0.83 0.02
1 7.70 770 -0.316 -8.950 4.544 -3.387 26.154 -5.676 -104.932 2858.338 -3702.288 0.517 -0.123 -0.845 -0 -0.56 0.83 0.02
1 7.71 771 -0.316 -9.601 4.396 -5.432 27.222 4.028 -14.990 2813.367 -3612.197 0.505 0.529 -0.695 -0.01 -0.56 0.83 0.03
1 7.72 772 -0.153 -9.807 4.243 -2.930 26.825 8.545 14.840 2828.357 -3672.158 0.320 0.733 -0.545 -0.01 -0.56 0.83 0.03
1 7.73 773 -0.038 -9.568 4.099 -1.434 27.893 10.773 14.840 2828.357 -3672.158 0.177 0.492 -0.403 -0.01 -0.56 0.83 0.03
1 7.74 774 -0.541 -9.290 3.975 -1.617 26.642 14.526 -59.961 2903.309 -3672.158 0.614 0.214 -0.278 -0.01 -0.56 0.83 0.03
1 7.75 775 -0.781 -8.969 3.884 -1.343 25.971 16.388 59.811 2963.419 -3687.298 0.814 -0.107 -0.188 -0.02 -0.56 0.83 0.03
1 7.76 776 -0.963 -8.830 3.687 -0.793 24.628 16.022 59.811 2963.419 -3687.298 0.953 -0.246 0.009 -0.02 -0.56 0.83 0.03
1 7.77 777 -1.025 -8.902 3.615 0.641 22.675 15.137 209.863 2888.318 -3657.167 0.973 -0.174 0.081 -0.02 -0.56 0.83 0.03
1 7.78 778 -1.097 -8.730 3.572 2.411 21.057 14.618 150.202 2977.810 -3745.760 1.005 -0.346 0.125 -0.02 -0.56 0.83 0.03
1 7.79 779 -0.867 -8.619 3.505 4.791 18.036 13.092 120.222 2827.758 -3700.789 0.737 -0.454 0.197 -0.03 -0.56 0.83 0.03
1 7.80 780 -0.972 -8.399 3.548 5.737 17.304 11.963 120.222 2827.758 -3700.789 0.808 -0.671 0.160 -0.03 -0.56 0.83 0.03
1 7.81 781 -0.637 -8.313 3.472 5.646 16.510 10.864 180.333 2767.797 -3730.770 0.441 -0.753 0.246 -0.03 -0.56 0.83 0.03
1 7.82 782 -0.690 -8.294 3.496 4.761 15.930 9.216 285.264 2842.748 -3730.770 0.440 -0.764 0.238 -0.03 -0.56 0.83 0.03
1 7.83 783 -0.646 -8.241 3.462 4.517 14.648 8.331 285.264 2842.748 -3730.770 0.372 -0.813 0.279 -0.03 -0.55 0.83 0.03
1 7.84 784 -0.709 -8.184 3.453 3.784 13.367 6.500 225.303 2932.689 -3700.789 0.414 -0.867 0.295 -0.04 -0.55 0.83 0.03
1 7.85 785 -0.699 -8.241 3.256 3.052 11.963 4.913 75.251 2782.787 -3595.708 0.386 -0.806 0.496 -0.04 -0.55 0.83 0.03
1 7.86 786 -0.814 -8.490 3.338 2.502 9.369 4.242 255.284 2962.820 -3730.770 0.485 -0.556 0.418 -0.04 -0.55 0.83 0.03
1 7.87 787 -0.996 -8.428 3.256 2.838 6.958 3.143 255.284 2962.820 -3730.770 0.652 -0.617 0.501 -0.04 -0.55 0.83 0.03
1 7.88 788 -1.015 -8.390 3.256 2.655 4.456 2.441 150.202 2902.709 -3745.760 0.658 -0.653 0.504 -0.04 -0.55 0.83 0.03
1 7.89 789 -0.948 -8.610 3.165 2.350 1.862 2.167 195.323 2977.810 -3670.809 0.572 -0.430 0.599 -0.04 -0.55 0.83 0.03
1 7.90 790 -1.025 -8.629 3.180 2.075 0.549 2.747 195.323 2977.810 -3670.809 0.641 -0.410 0.586 -0.04 -0.55 0.83 0.03
1 7.91 791 -0.939 -8.754 2.998 0.397 -1.160 2.350 270.274 2857.738 -3775.740 0.548 -0.286 0.768 -0.04 -0.55 0.83 0.03
1 7.92 792 -1.212 -8.835 3.065 0.244 -4.425 2.960 210.313 2992.800 -3730.770 0.815 -0.206 0.697 -0.04 -0.55 0.83 0.03
1 7.93 793 -1.164 -8.993 2.830 -1.617 -6.317 1.709 300.254 2977.810 -3745.760 0.761 -0.049 0.928 -0.04 -0.55 0.83 0.02
1 7.94 794 -1.465 -9.017 2.629 -0.824 -9.186 2.228 300.254 2977.810 -3745.760 1.059 -0.027 1.123 -0.04 -0.55 0.83 0.02
1 7.95 795 -1.599 -8.821 2.576 -2.228 -12.329 2.716 300.254 2902.709 -3745.760 1.189 -0.226 1.169 -0.04 -0.55 0.83 0.02
1 7.96 796 -1.891 -9.003 2.389 -5.463 -17.578 1.556 255.284 2842.748 -3760.750 1.473 -0.052 1.337 -0.04 -0.56 0.83 0.02
1 7.97 797 -2.002 -9.223 2.370 -5.920 -23.010 0.641 255.284 2842.748 -3760.750 1.582 0.163 1.341 -0.04 -0.56 0.83 0.02
1 7.98 798 -1.959 -9.553 2.423 -3.662 -26.703 -1.526 345.225 2827.758 -3745.760 1.541 0.487 1.274 -0.04 -0.56 0.83 0.02
1 7.99 799 -1.465 -9.702 2.380 -0.946 -31.952 -2.533 345.225 2827.758 -3745.760 1.057 0.630 1.305 -0.04 -0.56 0.83 0.02
1 8.00 800 -0.666 -10.003 2.672 2.747 -36.804 -4.150 150.202 2857.738 -3745.760 0.274 0.928 1.005 -0.03 -0.56 0.83 0.02
1 8.01 801 -0.589 -9.951 2.600 4.059 -37.842 -3.204 150.202 2857.738 -3745.760 0.221 0.873 1.073 -0.03 -0.56 0.83 0.01
1 8.02 802 -0.498 -9.764 2.825 3.967 -36.926 -2.441 195.323 3052.761 -3850.691 0.155 0.684 0.846 -0.03 -0.56 0.83 0.01
1 8.03 803 -0.503 -9.965 2.768 5.310 -35.889 -0.702 60.261 2962.820 -3730.770 0.184 0.884 0.904 -0.03 -0.56 0.83 0.01
1 8.04 804 -0.297 -9.965 3.065 6.012 -32.135 0.183 60.261 2962.820 -3730.770 0.019 0.885 0.612 -0.02 -0.56 0.83 0.01
1 8.05 805 -0.115 -9.797 3.151 4.913 -25.726 1.770 150.202 2932.689 -3700.789 -0.146 0.719 0.530 -0.02 -0.56 0.83 0.01
1 8.06 806 -0.326 -9.807 3.160 0.732 -19.440 2.991 150.202 2932.689 -3700.789 0.078 0.729 0.522 -0.02 -0.56 0.83 0.01
1 8.07 807 -0.828 -9.999 2.490 -2.960 -17.151 3.296 75.251 2902.709 -3820.711 0.587 0.918 1.188 -0.02 -0.56 0.83 0.01
1 8.08 808 -1.030 -10.267 2.380 -3.448 -16.296 3.754 75.251 2902.709 -3820.711 0.790 1.181 1.285 -0.02 -0.56 0.83 0
1 8.09 809 -1.173 -10.243 1.786 -2.472 -18.158 4.211 60.261 2917.699 -3760.750 0.933 1.151 1.864 -0.02 -0.56 0.83 0
1 8.10 810 -1.293 -10.061 1.647 -0.763 -19.135 4.639 15.290 2857.738 -3745.760 1.051 0.962 1.986 -0.02 -0.56 0.83 0
1 8.11 811 -1.551 -10.406 1.499 -0.916 -23.468 7.690 15.290 2857.738 -3745.760 1.302 1.293 2.099 0.01 0.56 -0.83 0
1 8.12 812 -1.638 -10.674 3.821 1.801 -30.518 9.522 30.280 3112.722 -3760.750 1.386 1.559 -0.230 0.01 0.56 -0.83 0
1 8.13 813 -0.287 -12.570 6.354 9.430 -23.132 13.855 30.280 3112.722 -3760.750 0.040 3.458 -2.757 0.01 0.56 -0.83 0.01
1 8.14 814 1.705 -14.576 4.822 15.900 1.770 28.748 30.280 2917.699 -3790.730 -1.966 5.472 -1.207 0.01 0.56 -0.83 0.01
1 8.15 815 3.017 -12.508 5.430 22.888 6.500 37.109 45.271 2977.810 -3745.760 -3.322 3.413 -1.792 0.01 0.56 -0.83 0.01
1 8.16 816 2.873 -10.501 4.908 15.137 23.712 41.962 -14.541 3067.751 -3790.730 -3.230 1.421 -1.240 0.01 0.56 -0.83 0.01
1 8.17 817 1.805 -9.247 5.315 2.014 17.059 44.586 15.290 2977.810 -3670.809 -2.230 0.179 -1.623 0.02 0.56 -0.83 0.01
1 8.18 818 0.608 -10.291 5.378 -6.897 24.841 32.227 15.290 2977.810 -3670.809 -1.168 1.231 -1.684 0.02 0.56 -0.83 0.02
1 8.19 819 -1.135 -10.942 4.238 -8.148 19.257 39.490 -149.603 2887.719 -3835.701 0.516 1.881 -0.557 0.03 0.56 -0.83 0.02
1 8.20 820 -2.524 -9.352 4.463 -0.610 9.064 37.598 -149.603 2887.719 -3835.701 1.840 0.291 -0.792 0.03 0.56 -0.83 0.02
1 8.21 821 -2.595 -8.088 4.927 2.899 1.434 22.095 -14.541 3067.751 -3760.750 1.847 -0.965 -1.251 0.03 0.56 -0.83 0.02
1 8.22 822 -2.169 -7.494 5.085 4.456 -7.446 12.970 60.261 2917.699 -3610.698 1.383 -1.549 -1.393 0.03 0.56 -0.83 0.02
1 8.23 823 -2.107 -7.140 5.028 8.209 -12.756 14.282 60.261 2917.699 -3730.770 1.298 -1.893 -1.314 0.03 0.56 -0.83 0.03
1 8.24 824 -2.524 -6.900 5.172 8.057 -19.684 16.998 120.222 2932.689 -3745.760 1.693 -2.120 -1.432 0.03 0.56 -0.83 0.03
1 8.25 825 -1.939 -6.761 5.133 10.498 -25.635 19.318 120.222 2932.689 -3745.760 1.084 -2.245 -1.366 0.03 0.55 -0.83 0.03
1 8.26 826 -0.790 -6.982 5.531 12.329 -29.602 21.240 195.323 3022.781 -3670.809 -0.088 -2.002 -1.716 0.03 0.55 -0.83 0.04
1 8.27 827 -0.010 -7.355 5.449 9.399 -28.107 21.607 195.323 3022.781 -3670.809 -0.879 -1.613 -1.599 0.03 0.55 -0.83 0.04
1 8.28 828 0.297 -7.552 5.435 8.270 -26.978 21.332 180.333 2917.699 -3685.799 -1.192 -1.402 -1.553 0.03 0.55 -0.83 0.04
1 8.29 829 0.737 -7.963 5.411 8.453 -25.971 19.257 60.261 2887.719 -3655.818 -1.635 -0.977 -1.500 0.03 0.55 -0.84 0.04
1 8.30 830 0.929 -8.155 5.191 6.042 -23.560 16.602 105.231 2962.820 -3865.832 -1.824 -0.774 -1.251 0.02 0.55 -0.84 0.05
1 8.31 831 1.202 -8.361 5.133 4.883 -21.179 13.489 120.222 2977.810 -3745.760 -2.092 -0.557 -1.170 0.02 0.55 -0.84 0.05
1 8.32 832 1.331 -8.701 5.119 2.167 -18.646 9.522 120.222 2977.810 -3745.760 -2.211 -0.209 -1.135 0.02 0.54 -0.84 0.05
1 8.33 833 1.053 -8.773 5.229 -2.075 -14.771 3.662 135.212 3067.751 -3910.802 -1.902 -0.129 -1.218 0.02 0.54 -0.84 0.05
1 8.34 834 0.761 -9.007 4.961 -4.334 -13.245 -0.854 135.212 3067.751 -3910.802 -1.590 0.107 -0.943 0.02 0.54 -0.84 0.05
1 8.35 835 0.570 -8.878 4.813 -5.646 -12.970 -5.951 15.290 2827.758 -3895.812 -1.374 -0.024 -0.794 0.02 0.54 -0.84 0.05
1 8.36 836 0.292 -8.600 4.540 -7.324 -13.977 -10.986 120.222 2902.709 -3820.711 -1.068 -0.304 -0.522 0.01 0.54 -0.84 0.05
1 8.37 837 0.230 -8.754 4.338 -9.369 -12.848 -16.602 30.280 2992.800 -3790.730 -0.971 -0.156 -0.325 0.01 0.54 -0.84 0.05
1 8.38 838 0.091 -8.591 4.257 -8.667 -12.329 -22.125 75.251 2857.738 -3775.740 -0.792 -0.326 -0.251 0.01 0.54 -0.84 0.05
1 8.39 839 0.077 -8.538 4.276 -8.148 -11.780 -25.971 75.251 2857.738 -3775.740 -0.734 -0.385 -0.277 0.01 0.54 -0.84 0.05
1 8.40 840 0.220 -8.490 4.094 -7.416 -11.139 -28.900 45.271 2902.709 -3775.740 -0.778 -0.445 -0.108 0 0.54 -0.84 0.05
1 8.41 841 0.508 -8.543 4.022 -7.172 -10.559 -28.778 45.271 2902.709 -3775.740 -1.012 -0.398 -0.042 0 0.54 -0.84 0.04
1 8.42 842 0.627 -8.567 3.984 -7.355 -9.918 -28.931 -14.541 2962.820 -3760.750 -1.077 -0.380 -0.011 -0 0.55 -0.84 0.04
1 8.43 843 0.886 -8.567 4.008 -7.721 -8.484 -26.611 45.271 2902.709 -3670.809 -1.283 -0.386 -0.043 -0 0.55 -0.84 0.04
1 8.44 844 0.852 -8.663 3.793 -8.392 -6.500 -23.834 -14.541 2842.748 -3730.770 -1.198 -0.297 0.164 -0 0.55 -0.84 0.04
1 8.45 845 0.781 -8.696 3.711 -9.094 -5.524 -22.095 -119.622 2917.699 -3685.799 -1.079 -0.269 0.235 -0.01 0.55 -0.84 0.04
1 8.46 846 0.661 -8.581 3.630 -9.583 -4.395 -19.989 -119.622 2917.699 -3685.799 -0.916 -0.391 0.305 -0.01 0.55 -0.84 0.04
1 8.47 847 0.512 -8.552 3.567 -10.101 -4.242 -17.639 -224.554 2887.719 -3730.770 -0.728 -0.426 0.354 -0.01 0.55 -0.84 0.04
1 8.48 848 0.350 -8.457 3.443 -9.949 -3.784 -14.435 -223.654 2886.969 -3728.671 -0.501 -0.536 0.449 -0.01 0.55 -0.84 0.03
1 8.49 849 0.244 -8.485 3.237 -9.308 -3.693 -12.939 -58.762 2901.959 -3743.661 -0.370 -0.514 0.641 -0.01 0.55 -0.83 0.03
1 8.50 850 0.034 -8.586 3.251 -10.345 -2.655 -10.712 -178.684 2931.940 -3773.642 -0.137 -0.420 0.612 -0.01 0.55 -0.83 0.03
1 8.51 851 0.163 -8.883 3.074 -10.132 -2.258 -9.247 -193.674 3067.002 -3653.720 -0.248 -0.130 0.772 -0.01 0.55 -0.83 0.03
1 8.52 852 0.105 -8.821 3.031 -8.850 -2.106 -8.209 -148.703 2961.920 -3653.720 -0.175 -0.200 0.798 -0.02 0.55 -0.83 0.03
1 8.53 853 0.364 -8.706 2.868 -9.460 -0.854 -6.836 -148.703 2961.920 -3653.720 -0.418 -0.322 0.945 -0.02 0.55 -0.83 0.03
1 8.54 854 0.407 -8.744 2.945 -12.360 1.099 -5.188 -193.674 3186.924 -3608.599 -0.447 -0.291 0.852 -0.02 0.55 -0.83 0.03
1 8.55 855 0.690 -8.768 2.744 -15.228 3.723 -3.357 -193.674 3186.924 -3608.599 -0.709 -0.285 1.009 -0.02 0.56 -0.83 0.03
1 8.56 856 0.699 -8.797 2.787 -16.174 6.226 -2.686 -88.742 2992.051 -3728.671 -0.710 -0.267 0.940 -0.02 0.56 -0.83 0.03
1 8.57 857 0.848 -8.912 2.710 -15.961 8.453 -2.350 -148.703 3037.021 -3608.599 -0.852 -0.163 0.989 -0.02 0.56 -0.83 0.03
1 8.58 858 0.752 -8.806 2.548 -16.144 11.292 -1.221 -148.703 3037.021 -3608.599 -0.751 -0.280 1.123 -0.02 0.56 -0.83 0.03
1 8.59 859 0.661 -8.744 2.595 -16.052 13.947 0.916 -88.742 3111.973 -3758.651 -0.659 -0.354 1.048 -0.02 0.56 -0.83 0.02
1 8.60 860 0.709 -8.787 2.576 -16.510 14.740 1.434 -88.742 3111.973 -3758.651 -0.709 -0.322 1.039 -0.02 0.56 -0.83 0.02
1 8.61 861 0.661 -8.806 2.500 -18.311 16.907 2.197 -178.684 3096.982 -3593.609 -0.665 -0.314 1.087 -0.02 0.56 -0.83 0.02
1 8.62 862 0.723 -8.792 2.442 -20.020 19.836 3.021 -178.684 3096.982 -3593.609 -0.740 -0.353 1.081 -0.01 0.57 -0.82 0.02
1 8.63 863 0.872 -9.050 2.519 -19.989 22.614 4.669 -88.742 3141.953 -3653.720 -0.898 -0.107 0.971 -0.01 0.57 -0.82 0.02
1 8.64 864 0.934 -9.223 2.840 -19.745 24.963 5.615 -133.713 3096.982 -3563.628 -0.971 0.053 0.617 -0.01 0.57 -0.82 0.02
1 8.65 865 0.886 -9.572 2.768 -18.524 27.039 5.737 -133.713 3096.982 -3563.628 -0.936 0.390 0.657 -0.01 0.57 -0.82 0.02
1 8.66 866 0.857 -10.142 3.041 -15.411 27.802 4.913 -178.684 3096.982 -3518.658 -0.921 0.949 0.354 -0.01 0.57 -0.82 0.02
1 8.67 867 0.958 -10.262 3.333 -7.080 27.222 4.700 -178.684 3096.982 -3518.658 -1.035 1.060 0.038 -0.01 0.57 -0.82 0.02
1 8.68 868 0.594 -10.329 3.314 -3.052 25.116 3.998 -28.631 3096.982 -3593.609 -0.691 1.123 0.045 -0 0.57 -0.82 0.02
1 8.69 869 0.541 -10.042 3.290 -2.625 23.132 4.059 -28.631 3096.982 -3593.609 -0.656 0.834 0.064 -0 0.57 -0.82 0.01
1 8.70 870 0.249 -9.979 2.888 -4.547 19.989 2.747 -13.641 3186.924 -3353.615 -0.387 0.767 0.453 -0 0.57 -0.82 0.01
1 8.71 871 0.057 -9.841 2.672 -6.683 19.959 1.556 -193.674 3186.924 -3608.599 -0.206 0.625 0.657 0 0.57 -0.82 0.01
1 8.72 872 0.072 -10.147 2.140 -8.972 18.585 -0.275 -193.674 3186.924 -3608.599 -0.231 0.925 1.172 0 0.58 -0.82 0.01
1 8.73 873 0.283 -10.430 1.561 -11.108 20.416 -2.167 -57.413 3094.734 -3515.060 -0.446 1.199 1.728 0 0.58 -0.82 0.01
1 8.74 874 0.675 -10.568 1.312 -13.245 23.895 -5.737 -57.413 3094.734 -3515.060 -0.841 1.328 1.947 0 0.58 -0.82 0.01
1 8.75 875 0.948 -11.095 1.173 -13.001 26.215 -7.813 -87.393 3184.675 -3545.041 -1.115 1.845 2.060 0.01 0.58 -0.82 0.01
1 8.76 876 1.049 -11.488 1.786 -12.604 26.062 -9.491 -87.393 3184.675 -3545.041 -1.217 2.232 1.429 0.01 0.58 -0.81 0.01
1 8.77 877 0.048 -13.207 3.678 -13.519 22.705 -14.710 107.480 3259.626 -3169.835 -0.211 3.938 -0.500 0.01 0.58 -0.81 0
1 8.78 878 -1.025 -14.308 2.758 -11.505 2.716 -27.924 17.539 3199.666 -3409.829 0.879 5.032 0.400 0.01 0.58 -0.81 0
1 8.79 879 -0.891 -13.973 3.194 5.066 -5.219 -31.159 17.539 3199.666 -3409.829 0.790 4.693 -0.047 -0.01 -0.58 0.81 0
1 8.80 880 -0.848 -11.411 3.716 14.435 -11.780 -22.675 -57.413 3274.617 -3379.848 0.793 2.135 -0.555 -0.01 -0.58 0.81 0
1 8.81 881 -0.761 -10.655 4.133 -1.007 -11.475 -21.729 -57.413 3274.617 -3379.848 0.745 1.384 -0.955 -0 -0.58 0.81 0
1 8.82 882 -0.737 -10.932 4.027 -11.536 -4.883 -16.296 77.500 3319.737 -3439.809 0.758 1.660 -0.856 -0 -0.58 0.81 0
1 8.83 883 0.014 -11.339 4.166 -7.294 -3.632 -10.590 77.500 3319.737 -3439.809 0.035 2.062 -1.010 -0 -0.58 0.81 0.01
1 8.84 884 1.001 -10.382 3.941 1.556 -0.488 -4.395 17.539 3244.636 -3334.877 -0.917 1.100 -0.798 0 -0.58 0.81 0.01
1 8.85 885 0.718 -9.117 3.994 2.533 4.822 2.197 -87.393 3109.724 -3499.920 -0.627 -0.163 -0.845 0 -0.58 0.81 0.01
1 8.86 886 0.493 -8.198 4.018 0.732 9.247 9.308 -87.393 3109.724 -3499.920 -0.405 -1.078 -0.859 -0 -0.58 0.81 0.01
1 8.87 887 0.570 -7.753 3.955 1.526 8.972 12.451 -27.282 3169.685 -3379.848 -0.498 -1.522 -0.790 -0 -0.58 0.81 0.01
1 8.88 888 0.421 -7.729 4.736 4.028 14.618 13.397 -42.272 3229.646 -3424.819 -0.372 -1.545 -1.567 -0 -0.58 0.81 0.01
1 8.89 889 0.048 -7.571 4.774 7.172 19.531 9.674 -57.413 3244.636 -3439.809 -0.019 -1.696 -1.586 -0 -0.58 0.81 0.01
1 8.90 890 -0.201 -7.508 4.841 10.437 23.560 3.326 -57.413 3244.636 -3439.809 0.208 -1.750 -1.628 -0 -0.58 0.81 0.01
1 8.91 891 -0.642 -7.389 5.325 15.564 24.292 -2.930 17.539 3199.666 -3484.930 0.630 -1.859 -2.082 -0.01 -0.58 0.82 0.01
1 8.92 892 -0.469 -7.231 5.363 20.783 24.689 -10.895 -132.364 3319.737 -3199.815 0.439 -1.987 -2.037 -0.01 -0.57 0.82 0.01
1 8.93 893 -0.359 -7.207 5.358 19.501 23.254 -15.656 -132.364 3319.737 -3199.815 0.331 -1.994 -1.984 -0.01 -0.57 0.82 0.01
1 8.94 894 -0.206 -7.346 5.153 16.815 20.783 -20.447 -57.413 3244.636 -3409.829 0.189 -1.838 -1.733 -0.01 -0.57 0.82 0.01
1 8.95 895 -0.153 -7.930 5.033 13.672 18.097 -24.170 -57.413 3124.714 -3379.848 0.156 -1.240 -1.575 -0.01 -0.57 0.82 0.02
1 8.96 896 -0.091 -8.414 4.798 8.026 15.991 -24.933 32.529 3184.675 -3424.819 0.119 -0.744 -1.307 -0.01 -0.57 0.82 0.02
1 8.97 897 0.014 -8.912 4.640 5.768 15.533 -22.553 32.529 3184.675 -3424.819 0.040 -0.236 -1.124 -0.01 -0.57 0.82 0.02
1 8.98 898 0.005 -9.079 4.353 5.280 15.350 -18.189 -42.272 3064.753 -3319.887 0.074 -0.061 -0.819 -0.01 -0.57 0.82 0.02
1 8.99 899 -0.115 -9.266 4.219 2.716 15.320 -9.399 -87.393 3184.675 -3574.871 0.224 0.136 -0.659 -0.01 -0.56 0.83 0.03
1 9.00 900 0.029 -9.295 4.065 -1.129 15.808 -1.892 -86.344 3183.326 -3572.323 0.082 0.168 -0.499 -0.01 -0.56 0.83 0.03
1 9.01 901 0.010 -9.572 3.998 -3.815 15.991 4.639 -86.344 3108.375 -3647.274 0.092 0.446 -0.430 -0.01 -0.56 0.83 0.03
1 9.02 902 0.057 -9.783 3.927 -4.028 16.480 9.918 18.438 3018.434 -3377.300 0.027 0.655 -0.362 -0.01 -0.56 0.83 0.03
1 9.03 903 -0.144 -9.405 3.673 -2.563 17.487 14.008 198.471 3123.365 -3377.300 0.205 0.275 -0.112 -0.02 -0.56 0.83 0.03
1 9.04 904 -0.302 -9.390 3.673 -2.197 17.883 15.900 198.471 3123.365 -3377.300 0.335 0.259 -0.116 -0.02 -0.56 0.83 0.03
1 9.05 905 -0.666 -9.060 3.462 -2.319 17.639 17.456 108.529 3108.375 -3422.271 0.666 -0.073 0.093 -0.02 -0.56 0.82 0.03
1 9.06 906 -1.020 -8.912 3.443 0.977 15.076 16.785 33.428 3063.404 -3392.290 0.946 -0.222 0.108 -0.02 -0.56 0.82 0.03
1 9.07 907 -0.910 -8.686 3.395 3.632 12.634 15.625 33.428 3063.404 -3392.290 0.798 -0.446 0.158 -0.02 -0.56 0.82 0.03
1 9.08 908 -0.958 -8.619 3.342 5.920 11.108 15.350 108.529 3063.404 -3347.319 0.813 -0.510 0.218 -0.03 -0.56 0.83 0.03
1 9.09 909 -0.589 -8.581 3.448 6.897 10.529 14.130 63.559 3033.424 -3467.391 0.413 -0.544 0.123 -0.03 -0.56 0.83 0.03
1 9.10 910 -0.603 -8.490 3.462 7.324 10.437 13.825 63.559 2988.303 -3497.372 0.399 -0.630 0.119 -0.03 -0.56 0.83 0.02
1 9.11 911 -0.464 -8.437 3.347 8.057 10.223 11.414 63.559 2988.303 -3497.372 0.234 -0.677 0.245 -0.03 -0.56 0.83 0.02
1 9.12 912 -0.306 -8.279 3.386 7.416 9.735 10.376 198.471 3093.385 -3557.333 0.052 -0.830 0.218 -0.03 -0.56 0.83 0.02
1 9.13 913 -0.330 -8.323 3.352 5.707 9.399 8.637 108.529 2913.352 -3347.319 0.056 -0.782 0.263 -0.03 -0.56 0.83 0.02
1 9.14 914 -0.455 -8.414 3.290 2.289 9.644 6.958 108.529 2913.352 -3347.319 0.147 -0.684 0.340 -0.03 -0.56 0.83 0.02
1 9.15 915 -0.522 -8.715 3.189 1.495 8.179 6.195 258.432 3228.297 -3422.271 0.200 -0.381 0.443 -0.04 -0.56 0.83 0.02
1 9.16 916 -0.642 -8.749 3.165 0.977 6.531 4.883 213.461 2988.303 -3422.271 0.305 -0.347 0.467 -0.04 -0.56 0.83 0.02
1 9.17 917 -0.967 -9.003 2.926 1.282 3.052 3.937 183.480 3033.424 -3467.391 0.619 -0.093 0.705 -0.04 -0.56 0.83 0.02
1 9.18 918 -0.900 -9.127 2.950 2.319 -1.556 2.472 183.480 3033.424 -3467.391 0.543 0.031 0.680 -0.04 -0.56 0.83 0.02
1 9.19 919 -0.982 -9.079 2.964 2.594 -4.089 2.716 288.412 3033.424 -3467.391 0.618 -0.017 0.665 -0.04 -0.56 0.83 0.02
1 9.20 920 -0.982 -9.031 2.844 1.770 -6.683 3.357 153.500 3018.434 -3512.362 0.612 -0.064 0.785 -0.04 -0.56 0.83 0.02
1 9.21 921 -1.030 -9.165 2.868 0.885 -10.284 4.547 153.500 3018.434 -3512.362 0.652 0.069 0.758 -0.04 -0.56 0.83 0.02
1 9.22 922 -1.097 -9.371 2.739 1.404 -12.878 4.730 213.461 2958.323 -3467.391 0.715 0.274 0.885 -0.04 -0.56 0.83 0.02
1 9.23 923 -1.010 -9.414 2.662 2.197 -14.618 4.730 183.480 2988.303 -3467.391 0.624 0.316 0.958 -0.04 -0.56 0.83 0.02
1 9.24 924 -1.173 -8.964 2.500 3.265 -16.968 5.066 138.510 3033.424 -3467.391 0.785 -0.135 1.119 -0.04 -0.56 0.83 0.02
1 9.25 925 -1.307 -8.883 2.413 2.197 -18.555 5.310 138.510 3033.424 -3467.391 0.917 -0.217 1.204 -0.03 -0.56 0.83 0.02
1 9.26 926 -1.298 -8.830 2.504 -1.862 -23.773 4.883 123.520 3018.434 -3407.280 0.906 -0.271 1.110 -0.03 -0.56 0.83 0.01
1 9.27 927 -1.226 -9.089 2.409 -2.533 -26.764 4.150 153.500 3123.365 -3377.300 0.834 -0.014 1.200 -0.03 -0.56 0.83 0.01
1 9.28 928 -1.034 -9.453 2.639 0.580 -30.914 3.357 153.500 3123.365 -3377.300 0.650 0.343 0.954 -0.03 -0.56 0.83 0.01
1 9.29 929 -0.891 -9.750 2.648 4.150 -33.630 2.686 123.520 3048.414 -3482.381 0.517 0.638 0.942 -0.03 -0.56 0.83 0.01
1 9.30 930 -0.623 -9.735 2.931 7.874 -35.339 2.411 78.549 3093.385 -3437.261 0.261 0.624 0.662 -0.03 -0.56 0.83 0.01
1 9.31 931 -0.618 -9.759 2.849 11.292 -37.384 1.709 78.549 3093.385 -3437.261 0.272 0.651 0.752 -0.02 -0.56 0.83 0
1 9.32 932 -0.426 -9.568 3.146 13.733 -36.987 0.732 108.529 2988.303 -3467.391 0.098 0.464 0.468 -0.02 -0.56 0.83 0
1 9.33 933 -0.187 -9.706 3.285 14.191 -35.767 -0.824 -26.383 3048.414 -3512.362 -0.122 0.609 0.346 -0.02 -0.56 0.83 0
1 9.34 934 0.115 -9.649 3.433 14.282 -31.403 -0.519 108.529 3063.404 -3467.391 -0.401 0.558 0.216 0.02 0.56 -0.83 0
1 9.35 935 0.311 -9.620 3.759 14.618 -27.191 -1.373 108.529 3063.404 -3467.391 -0.575 0.536 -0.092 0.01 0.56 -0.83 0
1 9.36 936 0.187 -9.343 3.352 13.184 -19.898 -2.197 48.418 3048.414 -3407.280 -0.407 0.274 0.356 0.01 0.56 -0.83 0
1 9.37 937 0.230 -9.357 3.132 9.735 -18.036 -2.319 78.549 2973.313 -3377.300 -0.432 0.294 0.591 0.01 0.56 -0.83 0
1 9.38 938 -0.235 -9.448 2.806 8.118 -18.951 -2.106 78.549 2973.313 -3377.300 0.049 0.388 0.925 0.01 0.56 -0.83 0.01
1 9.39 939 -0.675 -9.692 2.418 6.042 -22.675 -0.458 -131.314 3048.414 -3482.381 0.504 0.634 1.318 0.01 0.56 -0.83 0.01
1 9.40 940 -0.915 -9.955 2.346 7.568 -25.910 2.136 -146.305 2988.303 -3467.391 0.755 0.897 1.389 0 0.56 -0.83 0.01
1 9.41 941 -1.259 -10.137 2.064 11.780 -23.529 2.869 -26.383 2928.342 -3437.261 1.108 1.078 1.671 0 0.56 -0.83 0.01
1 9.42 942 -1.188 -10.133 3.237 12.146 -21.820 3.876 -26.383 2928.342 -3437.261 1.039 1.075 0.501 0 0.56 -0.83 0.01
1 9.43 943 0.522 -12.388 6.359 17.090 -1.465 6.256 -131.314 2898.362 -3437.261 -0.665 3.341 -2.595 0 0.55 -0.83 0.01
1 9.44 944 2.308 -14.385 4.650 22.492 27.069 18.402 -251.386 2853.391 -3332.329 -2.467 5.350 -0.858 0 0.55 -0.83 0.01
1 9.45 945 1.963 -13.384 4.233 18.097 23.407 28.656 -251.386 2853.391 -3332.329 -2.166 4.362 -0.413 0 0.55 -0.83 0.01
1 9.46 946 1.212 -11.052 4.501 24.841 32.959 35.431 -26.383 2973.313 -3512.362 -1.470 2.043 -0.653 0.01 0.55 -0.83 0.01
1 9.47 947 -0.010 -9.256 4.013 2.594 23.346 43.213 -266.976 2718.929 -3423.770 -0.320 0.262 -0.135 0.01 0.55 -0.84 0.02
1 9.48 948 -0.464 -9.711 4.726 1.648 18.250 33.905 -101.934 2823.860 -3513.711 0.065 0.723 -0.842 0.01 0.55 -0.84 0.02
1 9.49 949 -0.412 -10.224 4.544 6.439 17.273 25.757 -101.934 2823.860 -3513.711 -0.049 1.239 -0.659 0.02 0.55 -0.84 0.02
1 9.50 950 -0.986 -9.161 4.046 3.448 14.954 30.792 -26.982 2853.841 -3513.711 0.432 0.187 -0.146 0.02 0.55 -0.84 0.02
1 9.51 951 -1.877 -8.045 4.008 0.092 8.270 27.039 -56.963 2748.909 -3558.682 1.268 -0.924 -0.105 0.02 0.55 -0.84 0.02
1 9.52 952 -1.997 -7.633 4.482 0.183 0.732 16.785 -56.963 2748.909 -3558.682 1.341 -1.330 -0.574 0.02 0.55 -0.84 0.03
1 9.53 953 -1.585 -8.188 4.592 0.549 -3.937 12.116 17.838 2898.961 -3438.760 0.900 -0.769 -0.676 0.02 0.55 -0.84 0.03
1 9.54 954 -1.073 -7.992 4.875 2.014 -6.866 13.825 32.829 2613.847 -3468.740 0.369 -0.960 -0.950 0.02 0.55 -0.84 0.03
1 9.55 955 -1.322 -7.432 5.071 4.395 -7.782 11.932 62.809 2688.948 -3348.668 0.600 -1.513 -1.134 0.02 0.55 -0.84 0.03
1 9.56 956 -1.259 -7.269 5.416 6.287 -9.460 10.620 62.809 2688.948 -3348.668 0.521 -1.667 -1.461 0.02 0.55 -0.84 0.03
1 9.57 957 -0.646 -7.001 5.536 7.751 -12.207 10.834 197.571 2704.238 -3484.930 -0.105 -1.924 -1.558 0.02 0.54 -0.84 0.03
1 9.58 958 -0.196 -7.202 5.809 6.439 -13.855 14.252 -27.282 2704.238 -3514.910 -0.570 -1.697 -1.777 0.02 0.54 -0.84 0.04
1 9.59 959 -0.014 -7.408 5.627 5.585 -16.235 15.930 -27.282 2704.238 -3514.910 -0.758 -1.479 -1.568 0.02 0.54 -0.84 0.04
1 9.60 960 0.541 -7.791 5.809 3.540 -18.219 15.930 -27.282 2779.339 -3439.809 -1.317 -1.084 -1.726 0.02 0.54 -0.84 0.04
1 9.61 961 0.881 -8.265 5.540 2.411 -17.395 16.632 -42.272 2764.349 -3499.920 -1.657 -0.600 -1.437 0.02 0.54 -0.84 0.04
1 9.62 962 0.704 -8.696 5.469 -1.251 -16.846 18.127 -87.243 2689.248 -3469.790 -1.478 -0.162 -1.348 0.02 0.54 -0.84 0.04
1 9.63 963 0.412 -8.883 5.229 -2.686 -15.808 18.311 -87.243 2689.248 -3469.790 -1.187 0.030 -1.098 0.02 0.54 -0.84 0.04
1 9.64 964 0.101 -9.094 4.932 -3.754 -16.846 17.273 62.509 2569.326 -3544.891 -0.880 0.244 -0.794 0.02 0.54 -0.84 0.05
1 9.65 965 -0.441 -8.849 4.841 -4.578 -17.120 13.092 -27.282 2674.258 -3514.910 -0.347 0.003 -0.698 0.02 0.54 -0.84 0.05
1 9.66 966 -0.618 -8.907 4.654 -6.561 -18.646 7.690 -27.282 2674.258 -3514.910 -0.172 0.061 -0.511 0.02 0.54 -0.84 0.05
1 9.67 967 -0.752 -8.907 4.549 -7.050 -19.684 1.312 107.630 2689.248 -3574.871 -0.033 0.059 -0.410 0.01 0.54 -0.84 0.05
1 9.68 968 -0.603 -8.859 4.329 -6.592 -20.966 -5.646 -12.292 2614.297 -3349.868 -0.167 0.007 -0.194 0.01 0.54 -0.84 0.05
1 9.69 969 -0.484 -8.739 4.109 -5.920 -20.355 -11.963 17.539 2674.258 -3409.829 -0.262 -0.117 0.021 0.01 0.54 -0.84 0.05
1 9.70 970 -0.158 -8.658 4.204 -4.822 -19.928 -18.616 17.539 2674.258 -3409.829 -0.554 -0.203 -0.080 0.01 0.54 -0.84 0.05
1 9.71 971 -0.005 -8.433 4.300 -4.181 -18.921 -21.912 -12.292 2809.320 -3499.920 -0.667 -0.433 -0.179 0.01 0.54 -0.84 0.05
1 9.72 972 0.397 -8.356 4.358 -5.035 -17.456 -23.926 77.500 2629.287 -3484.930 -0.974 -0.518 -0.239 0 0.54 -0.84 0.05
1 9.73 973 0.469 -8.423 4.262 -5.920 -16.480 -25.177 77.500 2629.287 -3484.930 -0.993 -0.455 -0.145 -0 0.54 -0.84 0.05
1 9.74 974 0.666 -8.399 4.190 -7.050 -16.174 -25.482 -117.224 2569.326 -3424.819 -1.136 -0.484 -0.078 -0 0.54 -0.84 0.05
1 9.75 975 0.953 -8.500 4.133 -8.728 -14.252 -24.628 -117.224 2569.326 -3424.819 -1.370 -0.389 -0.027 -0.01 0.54 -0.84 0.05
1 9.76 976 0.532 -8.361 3.759 -13.580 -13.245 -22.125 -117.224 2644.277 -3424.819 -0.897 -0.535 0.336 -0.01 0.54 -0.84 0.05
1 9.77 977 0.421 -8.188 3.692 -14.801 -11.810 -20.660 -117.224 2644.277 -3424.819 -0.740 -0.716 0.388 -0.01 0.54 -0.84 0.05
1 9.78 978 0.278 -8.232 3.649 -15.839 -10.742 -19.379 -207.615 2674.708 -3515.810 -0.554 -0.683 0.412 -0.01 0.54 -0.84 0.04
1 9.79 979 0.134 -8.442 3.611 -16.663 -10.162 -18.463 -42.722 2839.600 -3500.819 -0.372 -0.483 0.430 -0.01 0.54 -0.84 0.04
1 9.80 980 0.096 -8.275 3.338 -15.961 -9.552 -16.235 -42.722 2839.600 -3500.819 -0.265 -0.673 0.657 -0.02 0.54 -0.84 0.04
1 9.81 981 0.043 -8.524 3.390 -15.198 -9.125 -15.137 -207.615 2674.708 -3410.878 -0.182 -0.434 0.582 -0.02 0.55 -0.84 0.04
1 9.82 982 0.153 -8.691 3.237 -15.503 -7.477 -13.794 -207.615 2674.708 -3410.878 -0.265 -0.277 0.712 -0.02 0.55 -0.84 0.04
1 9.83 983 0.369 -8.576 3.137 -15.442 -5.951 -12.177 -297.706 2719.678 -3545.940 -0.455 -0.403 0.788 -0.02 0.55 -0.84 0.04
1 9.84 984 0.627 -8.600 2.926 -16.632 -3.357 -10.864 -297.706 2719.678 -3545.940 -0.690 -0.390 0.974 -0.02 0.55 -0.84 0.04
1 9.85 985 0.670 -8.639 3.069 -18.097 -1.160 -10.651 -177.634 2749.659 -3440.858 -0.710 -0.364 0.804 -0.02 0.55 -0.83 0.04
1 9.86 986 0.761 -8.663 2.777 -19.013 1.434 -9.979 -342.677 2764.649 -3425.868 -0.779 -0.352 1.067 -0.02 0.55 -0.83 0.04
1 9.87 987 0.838 -8.648 2.653 -20.233 4.486 -9.583 -342.677 2764.649 -3425.868 -0.817 -0.393 1.129 -0.02 0.55 -0.83 0.04
1 9.88 988 0.733 -8.744 2.653 -20.660 7.324 -9.766 -252.735 2824.610 -3515.810 -0.695 -0.311 1.095 -0.03 0.56 -0.83 0.03
1 9.89 989 0.656 -8.710 2.610 -21.637 9.796 -9.003 -252.735 2824.610 -3515.810 -0.603 -0.359 1.103 -0.03 0.56 -0.83 0.03
1 9.90 990 0.670 -8.873 2.490 -21.271 12.085 -8.148 -222.605 2764.649 -3425.868 -0.605 -0.211 1.187 -0.03 0.56 -0.83 0.03
1 9.91 991 0.623 -8.725 2.399 -20.996 14.740 -8.026 -267.726 2884.571 -3350.917 -0.547 -0.373 1.242 -0.03 0.56 -0.83 0.03
1 9.92 992 0.670 -8.581 2.552 -21.301 16.754 -8.575 -282.716 2854.590 -3260.826 -0.586 -0.531 1.054 -0.03 0.56 -0.83 0.03
1 9.93 993 0.718 -8.528 2.461 -22.888 19.043 -7.477 -192.625 2839.600 -3320.937 -0.625 -0.597 1.110 -0.02 0.56 -0.83 0.03
1 9.94 994 0.838 -8.581 2.524 -26.856 22.919 -5.859 -192.625 2839.600 -3320.937 -0.734 -0.574 0.972 -0.02 0.57 -0.82 0.02
1 9.95 995 0.953 -8.763 2.691 -27.618 26.489 -5.524 -387.647 2929.691 -3410.878 -0.847 -0.407 0.763 -0.02 0.57 -0.82 0.02
1 9.96 996 1.006 -9.223 2.763 -26.825 26.917 -5.676 -387.647 2929.691 -3410.878 -0.898 0.037 0.649 -0.02 0.57 -0.82 0.02
1 9.97 997 0.963 -9.754 2.729 -24.262 26.398 -6.805 -342.677 2914.701 -3290.956 -0.853 0.553 0.642 -0.02 0.57 -0.82 0.02
1 9.98 998 0.455 -10.319 2.844 -18.524 26.550 -5.219 -297.706 2839.600 -3320.937 -0.343 1.105 0.490 -0.02 0.57 -0.82 0.02
1 9.99 999 0.412 -10.425 2.797 -13.184 22.217 -5.219 -222.605 2884.571 -3245.835 -0.301 1.198 0.505 -0.02 0.58 -0.82 0.02
1 10.00 1000 0.536 -10.185 2.782 -9.796 17.395 -4.211 -267.726 2839.600 -3350.917 -0.428 0.951 0.497 -0.02 0.58 -0.82 0.02
1 10.01 1001 0.809 -10.094 2.825 -8.789 16.327 -2.014 -267.726 2839.600 -3350.917 -0.699 0.853 0.435 -0.02 0.58 -0.82 0.01
1 10.02 1002 0.958 -10.013 2.543 -10.620 16.632 -0.397 -282.716 2929.691 -3260.826 -0.848 0.760 0.683 -0.02 0.58 -0.82 0.01
1 10.03 1003 1.015 -10.262 2.231 -9.857 17.700 -1.251 -282.716 2929.691 -3260.826 -0.905 1.002 0.974 -0.01 0.58 -0.81 0.01
1 10.04 1004 1.279 -10.334 1.968 -8.331 20.508 -3.662 -132.664 2779.639 -3260.826 -1.166 1.066 1.215 -0.01 0.58 -0.81 0.01
1 10.05 1005 1.532 -10.803 3.069 -7.385 25.971 -4.700 -252.735 2899.711 -3230.845 -1.415 1.528 0.093 -0.01 0.58 -0.81 0.01
1 10.06 1006 0.939 -11.967 4.444 -9.857 24.994 -10.651 -192.625 2989.652 -3350.917 -0.826 2.689 -1.290 -0.01 0.58 -0.81 0.01
1 10.07 1007 -0.034 -13.743 4.037 -12.360 11.902 -26.398 -252.735 2974.662 -3305.946 0.146 4.461 -0.895 -0.01 0.58 -0.81 0.01
