COL1	TIME	ACC_X	ACC_Y	ACC_Z	GYR_X	GYR_Y	GYR_Z	MAG_X	MAG_Y	MAG_Z	LACC_X	LACC_Y	LACC_Z	QUAT_X	QUAT_Y	QUAT_Z	QUAT_W
1 0.00 0 0.374 -8.165 5.718 2.838 3.235 2.258 174.936 1303.251 -4209.857 -0.093 0.200 -0.014 -0 -0.46 0.89 0.03
1 0.01 1 0.192 -8.121 5.660 1.984 3.174 2.289 174.936 1303.251 -4209.857 0.085 0.160 0.048 -0 -0.46 0.89 0.03
1 0.02 2 0.278 -8.117 5.722 0.092 1.770 1.770 99.985 1408.183 -4239.838 -0.011 0.158 -0.010 -0 -0.46 0.89 0.03
1 0.03 3 0.125 -8.083 5.828 -1.129 0.580 1.129 99.985 1408.183 -4239.838 0.139 0.125 -0.115 -0 -0.46 0.89 0.03
1 0.04 4 0.292 -8.131 5.823 -1.251 -0.732 1.526 39.874 1423.173 -3999.844 -0.030 0.172 -0.111 -0 -0.46 0.89 0.03
1 0.05 5 0.321 -8.136 5.947 -0.214 -0.580 2.014 129.965 1378.202 -4164.887 -0.058 0.177 -0.236 -0 -0.46 0.89 0.03
1 0.06 6 0.479 -8.131 5.952 1.740 0.214 2.563 129.965 1378.202 -4164.887 -0.217 0.173 -0.240 -0 -0.46 0.89 0.03
1 0.07 7 0.335 -8.112 5.976 2.594 1.373 2.228 174.936 1408.183 -4209.857 -0.076 0.155 -0.261 -0 -0.46 0.89 0.03
1 0.08 8 0.316 -8.203 6.043 1.923 2.106 1.953 174.936 1408.183 -4209.857 -0.059 0.249 -0.324 -0 -0.46 0.89 0.03
1 0.09 9 0.263 -8.112 6.053 1.221 3.723 2.289 129.965 1483.134 -4344.919 -0.014 0.163 -0.326 -0 -0.46 0.89 0.03
1 0.10 10 0.177 -8.102 5.852 1.923 3.967 2.258 129.965 1483.134 -4344.919 0.067 0.156 -0.121 -0 -0.46 0.89 0.04
1 0.11 11 0.206 -8.074 5.947 3.235 4.425 2.197 189.926 1513.264 -4074.795 0.032 0.130 -0.213 -0 -0.46 0.89 0.04
1 0.12 12 0.158 -8.002 5.847 4.669 3.418 1.709 249.887 1378.202 -4059.805 0.074 0.063 -0.106 -0 -0.46 0.89 0.04
1 0.13 13 0.244 -7.935 5.914 6.378 3.204 1.770 249.887 1378.202 -4059.805 -0.017 0.001 -0.166 -0.01 -0.45 0.89 0.04
1 0.14 14 0.215 -7.858 5.947 4.883 3.296 1.190 189.926 1468.144 -4179.877 0.008 -0.069 -0.190 -0.01 -0.45 0.89 0.04
1 0.15 15 0.249 -7.930 5.943 4.089 1.953 1.007 189.926 1468.144 -4179.877 -0.030 0.009 -0.176 -0.01 -0.45 0.89 0.04
1 0.16 16 0.211 -7.825 6.000 2.319 2.747 1.099 159.946 1468.144 -4359.910 0.003 -0.087 -0.221 -0.01 -0.45 0.89 0.04
1 0.17 17 0.211 -7.916 5.923 1.465 3.326 0.610 159.946 1468.144 -4359.910 -0.001 0.007 -0.140 -0.01 -0.45 0.89 0.04
1 0.18 18 0.350 -8.026 6.120 1.526 3.540 1.282 54.864 1408.183 -4239.838 -0.143 0.120 -0.333 -0.01 -0.45 0.89 0.04
1 0.19 19 0.273 -7.920 6.101 3.021 3.448 1.160 84.995 1468.144 -4224.848 -0.070 0.017 -0.309 -0.01 -0.45 0.89 0.04
1 0.20 20 0.206 -7.963 5.991 5.646 3.357 0.275 84.995 1468.144 -4224.848 -0.006 0.065 -0.193 -0.01 -0.45 0.89 0.04
1 0.21 21 0.153 -7.853 5.962 7.050 3.052 0.397 39.874 1423.173 -4149.896 0.044 -0.039 -0.156 -0.01 -0.45 0.89 0.04
1 0.22 22 0.278 -7.882 5.943 6.836 3.235 -0.702 39.874 1423.173 -4149.896 -0.083 -0.003 -0.127 -0.01 -0.45 0.89 0.04
1 0.23 23 0.201 -7.738 5.976 7.019 2.502 -0.458 99.985 1603.206 -4164.887 -0.008 -0.139 -0.149 -0.01 -0.45 0.89 0.04
1 0.24 24 0.120 -7.767 6.034 4.456 1.984 -0.366 114.975 1393.192 -4179.877 0.072 -0.097 -0.188 -0.01 -0.45 0.89 0.04
1 0.25 25 0.086 -7.868 5.991 3.052 2.899 -0.153 159.946 1393.192 -4254.828 0.104 0.009 -0.139 -0.01 -0.45 0.89 0.04
1 0.26 26 0.177 -7.762 5.919 2.197 3.601 -0.031 114.975 1273.271 -4149.896 0.011 -0.093 -0.062 -0.01 -0.45 0.89 0.04
1 0.27 27 0.187 -7.992 5.976 2.991 3.510 -0.275 114.975 1273.271 -4149.896 -0.002 0.140 -0.116 -0.01 -0.45 0.89 0.04
1 0.28 28 0.168 -7.997 5.933 3.632 1.923 -0.122 39.874 1393.192 -4224.848 0.014 0.148 -0.068 -0.01 -0.45 0.89 0.04
1 0.29 29 0.072 -7.935 5.971 4.761 0.885 0.305 39.874 1393.192 -4224.848 0.107 0.089 -0.101 -0.01 -0.45 0.89 0.04
1 0.30 30 0.244 -8.107 6.014 5.951 0.183 0.549 9.894 1348.222 -4254.828 -0.066 0.266 -0.139 -0.01 -0.45 0.89 0.04
1 0.31 31 0.196 -7.987 5.995 5.005 1.465 0.397 159.946 1468.144 -4254.828 -0.020 0.158 -0.104 -0.01 -0.45 0.89 0.04
1 0.32 32 -0.010 -8.050 6.105 4.334 3.723 1.129 174.936 1303.251 -4209.857 0.184 0.225 -0.207 -0.01 -0.45 0.89 0.04
1 0.33 33 0.081 -7.963 5.928 4.974 3.876 1.495 -34.927 1273.271 -4299.799 0.088 0.144 -0.024 -0.01 -0.45 0.89 0.04
1 0.34 34 0.019 -7.868 5.890 5.554 3.632 0.854 -34.927 1273.271 -4299.799 0.145 0.053 0.022 -0.01 -0.45 0.89 0.04
1 0.35 35 -0.129 -7.987 6.077 5.463 2.960 1.282 204.917 1303.251 -4239.838 0.289 0.178 -0.158 -0.01 -0.44 0.89 0.04
1 0.36 36 0.091 -7.848 5.952 5.890 1.465 1.373 204.917 1303.251 -4239.838 0.064 0.045 -0.026 -0.01 -0.44 0.89 0.04
1 0.37 37 0.072 -8.002 6.024 5.096 1.770 2.045 39.874 1348.222 -4299.799 0.080 0.204 -0.090 -0.01 -0.44 0.9 0.04
1 0.38 38 0.182 -7.911 6.163 4.608 2.594 2.747 39.874 1393.192 -4179.877 -0.039 0.122 -0.217 -0.01 -0.44 0.9 0.04
1 0.39 39 0.115 -8.016 6.053 4.120 3.448 2.411 39.874 1198.169 -4179.877 0.023 0.232 -0.100 -0.01 -0.44 0.9 0.04
1 0.40 40 0.043 -7.968 5.981 4.852 3.479 2.563 99.985 1303.251 -4269.818 0.089 0.189 -0.022 -0.01 -0.44 0.9 0.04
1 0.41 41 0.005 -7.954 6.019 5.798 2.533 1.648 99.985 1303.251 -4269.818 0.121 0.179 -0.054 -0.01 -0.44 0.9 0.04
1 0.42 42 -0.153 -8.002 6.014 6.226 0.397 1.740 84.995 1513.264 -4329.779 0.275 0.233 -0.042 -0.01 -0.44 0.9 0.04
1 0.43 43 0.067 -7.892 5.952 5.249 -0.885 1.709 84.995 1513.264 -4329.779 0.052 0.128 0.028 -0.01 -0.44 0.9 0.04
1 0.44 44 0.134 -7.868 6.043 4.059 -0.458 1.831 189.926 1318.241 -4254.828 -0.017 0.109 -0.057 -0.01 -0.44 0.9 0.04
1 0.45 45 0.129 -7.863 5.943 3.906 0.244 2.045 399.939 1318.241 -4224.848 -0.014 0.109 0.049 -0.01 -0.44 0.9 0.04
1 0.46 46 0.201 -7.863 6.091 4.669 1.617 1.831 9.894 1318.241 -4299.799 -0.090 0.117 -0.089 -0.01 -0.44 0.9 0.04
1 0.47 47 0.038 -7.801 6.043 4.852 1.892 1.892 264.877 1198.169 -4254.828 0.070 0.060 -0.034 -0.01 -0.44 0.9 0.04
1 0.48 48 0.000 -7.757 6.043 5.249 0.916 1.953 264.877 1198.169 -4254.828 0.104 0.022 -0.028 -0.01 -0.44 0.9 0.04
1 0.49 49 0.029 -7.748 6.010 4.242 0.610 1.770 174.936 1378.202 -4269.818 0.072 0.017 0.013 -0.01 -0.44 0.9 0.04
1 0.50 50 0.014 -7.839 6.081 2.655 -0.214 1.617 174.936 1378.202 -4269.818 0.085 0.113 -0.054 -0.01 -0.44 0.9 0.04
1 0.51 51 0.005 -8.050 6.038 1.556 0.488 2.014 129.965 1333.231 -4314.789 0.093 0.327 -0.006 -0.01 -0.44 0.9 0.04
1 0.52 52 0.153 -7.853 6.053 2.350 1.190 1.617 129.965 1213.160 -4209.857 -0.061 0.134 -0.016 -0.01 -0.44 0.9 0.04
1 0.53 53 -0.086 -7.920 6.091 3.052 1.129 1.831 324.988 1258.130 -4344.919 0.175 0.204 -0.051 -0.01 -0.44 0.9 0.04
1 0.54 54 0.120 -7.796 6.077 4.608 1.343 1.587 129.965 1258.130 -4239.838 -0.034 0.083 -0.031 -0.01 -0.44 0.9 0.04
1 0.55 55 0.120 -7.772 6.058 5.554 1.160 1.312 129.965 1258.130 -4239.838 -0.036 0.064 -0.005 -0.01 -0.44 0.9 0.04
1 0.56 56 0.158 -7.676 6.091 6.195 1.221 1.312 84.995 1273.271 -4254.828 -0.077 -0.026 -0.032 -0.01 -0.44 0.9 0.04
1 0.57 57 0.067 -7.633 5.928 5.768 0.519 0.916 84.995 1273.271 -4254.828 0.013 -0.062 0.140 -0.01 -0.44 0.9 0.04
1 0.58 58 0.024 -7.662 6.058 2.747 -0.671 0.000 114.975 1273.271 -4224.848 0.056 -0.027 0.018 -0.01 -0.44 0.9 0.04
1 0.59 59 -0.005 -7.729 6.254 0.183 -1.190 -0.305 294.858 1273.271 -4254.828 0.085 0.044 -0.173 -0.01 -0.44 0.9 0.04
1 0.60 60 -0.034 -7.834 6.163 -1.556 -1.190 1.068 174.936 1258.130 -4239.838 0.116 0.151 -0.080 -0.01 -0.44 0.9 0.04
1 0.61 61 0.072 -7.973 6.182 0.000 -0.488 0.854 174.936 1258.130 -4209.857 0.010 0.290 -0.099 -0.01 -0.44 0.9 0.04
1 0.62 62 0.038 -7.853 6.335 2.716 -0.275 0.641 174.936 1258.130 -4209.857 0.043 0.171 -0.252 -0.01 -0.44 0.9 0.04
1 0.63 63 -0.024 -7.839 6.283 5.371 0.183 0.397 204.917 1183.179 -4239.838 0.105 0.160 -0.194 -0.01 -0.43 0.9 0.04
1 0.64 64 0.000 -7.801 6.249 7.172 0.183 0.092 204.917 1183.179 -4239.838 0.081 0.128 -0.152 -0.01 -0.43 0.9 0.04
1 0.65 65 0.105 -7.657 6.172 5.859 0.488 0.488 414.930 1258.130 -4314.789 -0.025 -0.008 -0.066 -0.01 -0.43 0.9 0.04
1 0.66 66 0.091 -7.580 6.091 4.517 1.007 0.275 174.936 1138.208 -4239.838 -0.011 -0.078 0.024 -0.01 -0.43 0.9 0.04
1 0.67 67 -0.053 -7.623 6.053 2.838 -0.244 0.031 174.486 1139.708 -4238.789 0.132 -0.029 0.068 -0.01 -0.43 0.9 0.04
1 0.68 68 -0.038 -7.681 6.220 0.305 -1.678 -0.458 354.519 1214.659 -4313.740 0.120 0.034 -0.092 -0.01 -0.43 0.9 0.04
1 0.69 69 0.072 -7.643 6.110 -0.275 -1.953 -1.678 354.519 1214.659 -4313.740 0.012 -0.003 0.020 -0.01 -0.43 0.9 0.04
1 0.70 70 0.101 -7.839 6.307 -0.641 -2.411 -1.312 219.607 1169.688 -4298.750 -0.013 0.194 -0.176 -0.01 -0.43 0.9 0.04
1 0.71 71 0.139 -7.983 6.307 -0.763 -1.495 -0.397 219.607 1169.688 -4298.750 -0.047 0.338 -0.176 -0.01 -0.43 0.9 0.04
1 0.72 72 0.120 -7.920 6.240 2.136 0.031 -0.183 204.467 1214.659 -4343.720 -0.025 0.275 -0.109 -0.01 -0.43 0.9 0.04
1 0.73 73 0.043 -7.901 6.364 4.028 0.214 0.092 189.477 1199.668 -4328.730 0.052 0.258 -0.231 -0.01 -0.43 0.9 0.04
1 0.74 74 0.024 -7.767 6.254 4.791 0.977 0.000 189.477 1199.668 -4328.730 0.071 0.127 -0.117 -0.01 -0.43 0.9 0.04
1 0.75 75 0.029 -7.748 6.220 3.326 0.244 -0.580 39.574 1199.668 -4253.779 0.065 0.117 -0.072 -0.01 -0.43 0.9 0.04
1 0.76 76 0.072 -7.700 6.196 2.686 0.366 -0.183 39.574 1199.668 -4253.779 0.022 0.073 -0.043 -0.01 -0.43 0.9 0.04
1 0.77 77 0.129 -7.757 6.129 2.533 1.160 -0.305 219.607 974.665 -4328.730 -0.035 0.134 0.028 -0.01 -0.43 0.9 0.04
1 0.78 78 0.019 -7.576 6.268 2.838 1.343 -0.214 219.607 974.665 -4328.730 0.075 -0.045 -0.107 -0.01 -0.43 0.9 0.04
1 0.79 79 0.010 -7.734 6.273 2.533 1.312 -0.580 159.496 1274.620 -4223.798 0.084 0.116 -0.108 -0.01 -0.43 0.9 0.04
1 0.80 80 0.000 -7.623 6.235 2.014 0.977 -1.434 249.587 1259.629 -4313.740 0.093 0.010 -0.065 -0.02 -0.43 0.9 0.04
1 0.81 81 0.086 -7.576 6.172 1.862 0.244 -0.671 249.587 1259.629 -4313.740 0.007 -0.035 0.000 -0.02 -0.43 0.9 0.04
1 0.82 82 -0.172 -7.671 6.153 1.617 -0.641 -0.336 219.607 1199.668 -4328.730 0.267 0.065 0.025 -0.02 -0.43 0.9 0.04
1 0.83 83 0.000 -7.542 6.273 1.923 -0.977 -0.366 219.607 1199.668 -4328.730 0.095 -0.062 -0.092 -0.02 -0.43 0.9 0.04
1 0.84 84 0.081 -7.700 6.177 1.953 -1.404 -0.519 294.558 1244.639 -4358.710 0.015 0.099 0.008 -0.02 -0.43 0.9 0.04
1 0.85 85 0.125 -7.657 6.149 1.923 -1.160 -0.397 294.558 1244.639 -4358.710 -0.027 0.059 0.040 -0.02 -0.43 0.9 0.04
1 0.86 86 0.038 -7.619 6.278 1.007 -0.366 -0.580 159.496 1124.717 -4328.730 0.062 0.022 -0.087 -0.02 -0.43 0.9 0.04
1 0.87 87 0.158 -7.638 6.321 0.000 0.488 -0.122 174.486 1184.678 -4388.841 -0.058 0.043 -0.129 -0.02 -0.43 0.9 0.04
1 0.88 88 0.086 -7.829 6.364 -0.793 0.336 -0.305 174.486 1184.678 -4388.841 0.014 0.235 -0.170 -0.02 -0.43 0.9 0.04
1 0.89 89 0.062 -7.748 6.254 -0.977 -0.305 0.122 159.496 1169.688 -4223.798 0.038 0.154 -0.060 -0.02 -0.43 0.9 0.04
1 0.90 90 0.019 -7.743 6.302 0.397 0.336 0.519 204.467 1139.708 -4238.789 0.080 0.149 -0.108 -0.02 -0.43 0.9 0.04
1 0.91 91 0.000 -7.643 6.244 -0.244 0.366 0.275 324.539 1139.708 -4313.740 0.098 0.049 -0.050 -0.02 -0.43 0.9 0.04
1 0.92 92 -0.005 -7.671 6.254 -0.305 0.824 0.275 324.539 1139.708 -4313.740 0.102 0.079 -0.058 -0.02 -0.43 0.9 0.04
1 0.93 93 -0.120 -7.714 6.254 -0.946 1.648 0.641 114.525 1199.668 -4328.730 0.215 0.122 -0.058 -0.02 -0.43 0.9 0.04
1 0.94 94 -0.019 -7.757 6.225 -1.099 1.770 0.366 294.558 1169.688 -4253.779 0.112 0.165 -0.030 -0.02 -0.43 0.9 0.04
1 0.95 95 0.062 -7.753 6.283 -0.397 1.648 1.190 294.558 1169.688 -4253.779 0.029 0.159 -0.088 -0.02 -0.43 0.9 0.04
1 0.96 96 0.000 -7.796 6.249 -0.061 1.068 0.000 219.607 1094.737 -4253.779 0.086 0.202 -0.054 -0.02 -0.43 0.9 0.04
1 0.97 97 0.010 -7.690 6.326 0.305 1.007 0.153 219.607 1094.737 -4253.779 0.075 0.097 -0.131 -0.02 -0.43 0.9 0.04
1 0.98 98 0.158 -7.825 6.268 -0.366 -0.183 0.092 189.477 1199.668 -4223.798 -0.073 0.232 -0.073 -0.02 -0.43 0.9 0.04
1 0.99 99 0.105 -7.858 6.249 -0.946 -0.305 -0.458 189.477 1199.668 -4223.798 -0.021 0.265 -0.054 -0.02 -0.43 0.9 0.04
1 1.00 100 0.048 -7.944 6.340 -0.946 0.183 -0.092 219.607 1094.737 -4328.730 0.038 0.351 -0.146 -0.02 -0.43 0.9 0.05
1 1.01 101 0.067 -7.767 6.311 0.244 0.549 0.458 189.477 1244.639 -4298.750 0.019 0.173 -0.117 -0.02 -0.43 0.9 0.05
1 1.02 102 0.101 -7.729 6.225 0.854 1.709 0.244 189.477 1244.639 -4298.750 -0.016 0.136 -0.030 -0.02 -0.43 0.9 0.05
1 1.03 103 -0.005 -7.714 6.316 1.312 2.319 0.427 204.467 1139.708 -4313.740 0.089 0.122 -0.120 -0.02 -0.43 0.9 0.05
1 1.04 104 -0.019 -7.676 6.340 0.183 2.472 0.732 249.587 1214.659 -4343.720 0.098 0.087 -0.140 -0.02 -0.43 0.9 0.05
1 1.05 105 0.000 -7.781 6.287 -0.214 2.502 1.007 129.516 1064.606 -4238.789 0.075 0.193 -0.087 -0.02 -0.43 0.9 0.05
1 1.06 106 0.105 -7.777 6.283 0.244 2.319 0.336 129.516 1064.606 -4238.789 -0.033 0.188 -0.081 -0.02 -0.43 0.9 0.05
1 1.07 107 0.215 -7.738 6.182 0.153 2.167 0.122 354.519 1139.708 -4313.740 -0.146 0.151 0.020 -0.02 -0.43 0.9 0.05
1 1.08 108 0.010 -7.604 6.211 1.099 1.587 -0.183 294.558 1094.737 -4178.828 0.059 0.018 -0.007 -0.02 -0.43 0.9 0.05
1 1.09 109 -0.153 -7.590 6.230 2.167 0.244 -0.153 294.558 1094.737 -4178.828 0.220 0.006 -0.024 -0.02 -0.43 0.9 0.05
1 1.10 110 0.101 -7.614 6.259 1.465 -1.007 0.427 249.587 1109.727 -4313.740 -0.034 0.032 -0.050 -0.02 -0.43 0.9 0.05
1 1.11 111 0.077 -7.556 6.330 0.153 -2.136 0.610 99.535 1034.626 -4268.769 -0.010 -0.023 -0.119 -0.02 -0.43 0.9 0.05
1 1.12 112 0.201 -7.633 6.474 -0.488 0.061 0.000 294.558 1244.639 -4298.750 -0.131 0.055 -0.260 -0.02 -0.43 0.9 0.05
1 1.13 113 0.172 -7.710 6.421 0.214 1.434 0.153 294.558 1244.639 -4298.750 -0.102 0.133 -0.206 -0.02 -0.43 0.9 0.05
1 1.14 114 0.086 -7.657 6.503 1.862 2.808 0.214 159.496 1319.740 -4358.710 -0.016 0.082 -0.285 -0.02 -0.43 0.9 0.05
1 1.15 115 0.086 -7.671 6.560 2.563 3.784 -0.061 264.578 1169.688 -4328.730 -0.018 0.100 -0.339 -0.02 -0.43 0.9 0.05
1 1.16 116 0.110 -7.523 6.426 1.831 4.883 0.397 264.578 1169.688 -4328.730 -0.045 -0.045 -0.200 -0.02 -0.43 0.9 0.05
1 1.17 117 0.034 -7.561 6.354 0.702 5.310 0.671 279.568 1109.727 -4313.740 0.027 -0.003 -0.124 -0.02 -0.43 0.9 0.05
1 1.18 118 0.014 -7.638 6.436 -1.160 4.395 1.160 354.519 1064.606 -4058.756 0.042 0.076 -0.202 -0.02 -0.43 0.9 0.05
1 1.19 119 0.105 -7.710 6.359 -0.549 2.594 0.519 174.486 1214.659 -4238.789 -0.059 0.149 -0.125 -0.02 -0.43 0.9 0.05
1 1.20 120 -0.010 -7.595 6.359 1.373 1.190 0.397 174.486 1214.659 -4238.789 0.054 0.035 -0.124 -0.02 -0.43 0.9 0.05
1 1.21 121 0.000 -7.532 6.383 2.136 -0.061 -0.580 219.607 1094.737 -4178.828 0.044 -0.025 -0.145 -0.02 -0.43 0.9 0.05
1 1.22 122 0.062 -7.614 6.417 2.472 -0.732 -0.885 219.607 1124.717 -4328.730 -0.016 0.059 -0.174 -0.02 -0.43 0.9 0.05
1 1.23 123 0.101 -7.719 6.412 1.984 -0.519 -0.336 219.607 1124.717 -4328.730 -0.053 0.168 -0.165 -0.02 -0.43 0.9 0.05
1 1.24 124 0.129 -7.724 6.541 0.397 -0.061 -0.641 159.496 1124.717 -4253.779 -0.080 0.175 -0.292 -0.02 -0.43 0.9 0.05
1 1.25 125 0.057 -7.671 6.450 1.495 0.763 -0.122 189.477 1094.737 -4253.779 -0.008 0.124 -0.199 -0.02 -0.43 0.9 0.05
1 1.26 126 0.038 -7.719 6.489 3.632 1.770 -0.305 204.467 1214.659 -4343.720 0.011 0.178 -0.230 -0.02 -0.42 0.9 0.05
1 1.27 127 -0.096 -7.556 6.326 4.211 1.770 0.214 204.467 1214.659 -4343.720 0.144 0.019 -0.062 -0.02 -0.42 0.9 0.05
1 1.28 128 0.105 -7.523 6.335 5.005 0.610 0.153 294.558 1244.639 -4358.710 -0.059 -0.009 -0.065 -0.02 -0.42 0.9 0.05
1 1.29 129 0.096 -7.475 6.364 4.639 -0.305 -0.092 174.486 1214.659 -4208.808 -0.049 -0.051 -0.088 -0.02 -0.42 0.9 0.05
1 1.30 130 0.062 -7.518 6.378 3.021 -0.641 -0.366 174.486 1214.659 -4208.808 -0.015 -0.003 -0.096 -0.02 -0.42 0.9 0.05
1 1.31 131 -0.034 -7.633 6.383 0.610 0.183 0.000 264.578 1169.688 -4223.798 0.083 0.116 -0.096 -0.02 -0.42 0.9 0.05
1 1.32 132 -0.057 -7.623 6.402 -0.366 1.465 0.641 204.467 1184.678 -4238.789 0.108 0.109 -0.112 -0.02 -0.42 0.9 0.05
1 1.33 133 0.110 -7.805 6.350 1.251 2.533 1.099 249.587 1139.708 -4343.720 -0.064 0.292 -0.058 -0.02 -0.42 0.9 0.05
1 1.34 134 0.000 -7.772 6.378 1.801 2.502 1.251 249.587 1139.708 -4343.720 0.043 0.260 -0.084 -0.02 -0.42 0.9 0.05
1 1.35 135 0.072 -7.681 6.340 3.418 1.892 1.770 219.607 1199.668 -4223.798 -0.032 0.172 -0.043 -0.02 -0.42 0.9 0.05
1 1.36 136 0.125 -7.566 6.335 3.662 2.045 1.251 219.607 1049.616 -4148.847 -0.087 0.061 -0.034 -0.02 -0.42 0.9 0.05
1 1.37 137 0.005 -7.604 6.350 3.326 2.167 0.488 219.607 1049.616 -4148.847 0.030 0.103 -0.044 -0.02 -0.42 0.91 0.05
1 1.38 138 0.182 -7.595 6.278 0.977 1.862 0.977 324.539 914.704 -4313.740 -0.149 0.097 0.032 -0.02 -0.42 0.91 0.05
1 1.39 139 0.158 -7.580 6.412 -0.275 1.740 0.275 204.467 1139.708 -4313.740 -0.128 0.084 -0.100 -0.02 -0.42 0.91 0.05
1 1.40 140 0.014 -7.585 6.307 -0.458 0.427 -0.122 279.568 1334.730 -4388.841 0.014 0.090 0.007 -0.02 -0.42 0.91 0.05
1 1.41 141 0.072 -7.652 6.450 -0.153 0.244 -0.214 279.568 1334.730 -4388.841 -0.043 0.157 -0.137 -0.02 -0.42 0.91 0.05
1 1.42 142 0.158 -7.556 6.326 0.793 0.183 0.153 174.486 1379.701 -4388.841 -0.129 0.061 -0.012 -0.02 -0.42 0.91 0.05
1 1.43 143 0.125 -7.690 6.402 1.556 0.519 0.305 279.568 1109.727 -4343.720 -0.095 0.197 -0.087 -0.02 -0.42 0.91 0.05
1 1.44 144 0.086 -7.599 6.297 1.038 0.488 -0.183 279.568 1109.727 -4343.720 -0.056 0.107 0.020 -0.02 -0.42 0.91 0.05
1 1.45 145 0.115 -7.724 6.441 1.434 1.099 -0.519 114.525 1094.737 -4328.730 -0.084 0.233 -0.122 -0.02 -0.42 0.91 0.05
1 1.46 146 0.038 -7.537 6.345 1.221 1.221 -0.488 354.519 989.655 -4343.720 -0.008 0.047 -0.025 -0.02 -0.42 0.91 0.05
1 1.47 147 -0.005 -7.590 6.421 0.916 0.427 -0.336 354.519 989.655 -4343.720 0.036 0.102 -0.100 -0.02 -0.42 0.91 0.05
1 1.48 148 0.053 -7.571 6.374 -0.946 0.275 -0.366 204.467 1034.626 -4268.769 -0.021 0.084 -0.050 -0.02 -0.42 0.91 0.05
1 1.49 149 0.086 -7.638 6.426 -2.258 0.153 0.153 219.607 1124.717 -4358.710 -0.054 0.151 -0.103 -0.02 -0.42 0.91 0.05
1 1.50 150 0.120 -7.647 6.398 -2.045 0.671 0.366 264.578 1094.737 -4358.710 -0.086 0.159 -0.076 -0.02 -0.42 0.91 0.05
1 1.51 151 -0.057 -7.772 6.378 -1.007 1.068 0.122 264.578 1094.737 -4358.710 0.091 0.282 -0.058 -0.02 -0.42 0.91 0.05
1 1.52 152 0.034 -7.652 6.407 1.678 0.885 0.732 264.578 1094.737 -4223.798 -0.001 0.162 -0.087 -0.02 -0.42 0.91 0.05
1 1.53 153 -0.010 -7.623 6.359 2.045 0.641 0.397 114.525 1199.668 -4298.750 0.041 0.135 -0.038 -0.02 -0.42 0.91 0.05
1 1.54 154 0.043 -7.523 6.474 1.953 0.122 0.092 114.525 1199.668 -4298.750 -0.012 0.036 -0.150 -0.02 -0.42 0.91 0.05
1 1.55 155 0.029 -7.556 6.402 -0.671 0.580 0.366 369.509 1199.668 -4358.710 0.002 0.075 -0.073 -0.02 -0.42 0.91 0.05
1 1.56 156 0.072 -7.585 6.465 -2.228 1.038 0.793 324.539 1064.606 -4388.841 -0.042 0.103 -0.135 -0.02 -0.42 0.91 0.05
1 1.57 157 0.077 -7.657 6.398 -2.289 2.136 0.732 324.539 1139.708 -4268.769 -0.048 0.174 -0.070 -0.02 -0.42 0.91 0.05
1 1.58 158 -0.048 -7.667 6.345 -1.312 2.106 1.190 324.539 1139.708 -4268.769 0.074 0.182 -0.019 -0.02 -0.42 0.91 0.05
1 1.59 159 0.062 -7.686 6.388 -0.244 0.702 0.244 189.477 929.694 -4253.779 -0.039 0.200 -0.063 -0.02 -0.42 0.91 0.05
1 1.60 160 -0.105 -7.748 6.541 1.251 0.366 0.244 339.529 974.665 -4298.750 0.128 0.263 -0.215 -0.02 -0.42 0.91 0.05
1 1.61 161 0.014 -7.619 6.493 3.021 -0.092 0.366 339.529 974.665 -4298.750 0.008 0.136 -0.165 -0.02 -0.42 0.91 0.05
1 1.62 162 -0.081 -7.432 6.503 1.770 0.519 0.946 444.610 1109.727 -4313.740 0.104 -0.048 -0.171 -0.02 -0.42 0.91 0.05
1 1.63 163 0.053 -7.365 6.493 0.214 0.854 0.732 204.467 914.704 -4208.808 -0.033 -0.110 -0.155 -0.02 -0.42 0.91 0.05
1 1.64 164 0.115 -7.461 6.541 -0.916 0.916 1.038 219.607 1049.616 -4223.798 -0.096 -0.013 -0.202 -0.02 -0.42 0.91 0.05
1 1.65 165 -0.019 -7.580 6.450 -1.709 0.610 0.793 219.607 1049.616 -4223.798 0.038 0.107 -0.111 -0.02 -0.42 0.91 0.05
1 1.66 166 0.024 -7.571 6.493 -1.709 0.885 0.427 279.568 1064.606 -4268.769 -0.007 0.097 -0.155 -0.02 -0.42 0.91 0.05
1 1.67 167 0.024 -7.585 6.532 -0.977 0.549 1.129 219.607 1124.717 -4298.750 -0.008 0.111 -0.193 -0.02 -0.42 0.91 0.05
1 1.68 168 -0.062 -7.571 6.421 0.275 0.305 1.038 219.607 1124.717 -4298.750 0.077 0.096 -0.083 -0.02 -0.42 0.91 0.05
1 1.69 169 0.029 -7.523 6.398 1.617 0.092 0.580 129.516 1064.606 -4313.740 -0.014 0.049 -0.059 -0.02 -0.42 0.91 0.05
1 1.70 170 0.024 -7.480 6.493 2.319 0.763 -0.092 219.607 1094.737 -4253.779 -0.011 0.011 -0.148 -0.02 -0.42 0.91 0.05
1 1.71 171 0.096 -7.489 6.551 1.068 0.549 0.824 189.477 1004.646 -4328.730 -0.084 0.024 -0.202 -0.02 -0.42 0.91 0.05
1 1.72 172 -0.014 -7.513 6.469 0.183 -0.153 1.282 189.477 1004.646 -4328.730 0.025 0.050 -0.118 -0.02 -0.42 0.91 0.05
1 1.73 173 -0.091 -7.508 6.393 -1.068 -0.031 1.495 219.607 1049.616 -4358.710 0.101 0.045 -0.041 -0.02 -0.42 0.91 0.05
1 1.74 174 -0.019 -7.542 6.316 -1.648 -0.183 1.343 219.607 1094.737 -4253.779 0.029 0.078 0.035 -0.02 -0.42 0.91 0.05
1 1.75 175 0.072 -7.619 6.407 0.244 -1.007 1.068 219.607 1094.737 -4253.779 -0.063 0.155 -0.056 -0.02 -0.42 0.91 0.05
1 1.76 176 0.072 -7.585 6.460 1.221 -1.587 0.671 324.539 989.655 -4343.720 -0.062 0.122 -0.109 -0.02 -0.42 0.91 0.05
1 1.77 177 0.057 -7.542 6.484 1.160 -0.885 0.732 294.558 1049.616 -4328.730 -0.046 0.082 -0.128 -0.02 -0.42 0.91 0.05
1 1.78 178 0.038 -7.465 6.378 1.129 -0.519 0.885 204.467 1064.606 -4163.837 -0.026 0.008 -0.020 -0.02 -0.42 0.91 0.05
1 1.79 179 -0.005 -7.566 6.393 0.366 0.305 0.793 204.467 1064.606 -4163.837 0.017 0.110 -0.033 -0.02 -0.42 0.91 0.05
1 1.80 180 -0.077 -7.465 6.340 0.732 -0.275 1.099 264.578 929.694 -4298.750 0.088 0.010 0.021 -0.02 -0.42 0.91 0.05
1 1.81 181 0.000 -7.480 6.603 -0.305 0.336 1.221 264.578 1169.688 -4298.750 0.011 0.026 -0.241 -0.02 -0.42 0.91 0.05
1 1.82 182 0.005 -7.494 6.431 -0.641 -0.580 1.617 264.578 1169.688 -4298.750 0.006 0.041 -0.068 -0.02 -0.42 0.91 0.05
1 1.83 183 0.019 -7.681 6.398 -0.153 -1.404 1.007 264.578 1169.688 -4298.750 -0.009 0.228 -0.034 -0.02 -0.42 0.91 0.05
1 1.84 184 0.057 -7.599 6.359 -1.190 -2.045 0.397 324.539 989.655 -4418.821 -0.047 0.146 0.003 -0.02 -0.42 0.91 0.05
1 1.85 185 -0.038 -7.614 6.412 -0.854 -1.251 0.854 324.539 1034.626 -4268.769 0.049 0.160 -0.050 -0.02 -0.42 0.91 0.05
1 1.86 186 0.019 -7.537 6.378 0.458 -0.824 0.885 324.539 1034.626 -4268.769 -0.009 0.083 -0.017 -0.02 -0.42 0.91 0.05
1 1.87 187 -0.062 -7.542 6.364 0.549 -0.702 1.373 174.486 959.675 -4313.740 0.072 0.088 -0.002 -0.02 -0.42 0.91 0.05
1 1.88 188 -0.077 -7.532 6.330 0.519 -0.336 0.366 354.519 959.675 -4418.821 0.086 0.079 0.032 -0.02 -0.42 0.91 0.05
1 1.89 189 -0.019 -7.609 6.354 -0.031 -0.519 1.007 354.519 959.675 -4418.821 0.028 0.155 0.008 -0.02 -0.42 0.91 0.05
1 1.90 190 -0.038 -7.604 6.398 -1.404 -1.038 0.854 339.529 1004.646 -4298.750 0.047 0.150 -0.035 -0.02 -0.42 0.91 0.05
1 1.91 191 -0.043 -7.571 6.402 -1.831 -0.793 1.251 339.529 1004.646 -4298.750 0.052 0.117 -0.040 -0.02 -0.42 0.91 0.05
1 1.92 192 0.038 -7.542 6.340 -0.854 -1.740 1.190 324.539 1139.708 -4388.841 -0.030 0.087 0.021 -0.02 -0.42 0.91 0.05
1 1.93 193 0.072 -7.523 6.417 0.153 -1.282 0.946 324.539 1139.708 -4388.841 -0.064 0.068 -0.055 -0.02 -0.42 0.91 0.05
1 1.94 194 -0.120 -7.609 6.364 0.244 -1.068 1.129 294.558 1199.668 -4403.831 0.128 0.155 -0.002 -0.02 -0.42 0.91 0.05
1 1.95 195 -0.110 -7.547 6.283 0.549 -0.916 1.617 204.467 1064.606 -4343.720 0.118 0.093 0.079 -0.02 -0.42 0.91 0.05
1 1.96 196 0.072 -7.475 6.330 -0.061 -0.641 1.678 204.467 1064.606 -4343.720 -0.064 0.021 0.031 -0.02 -0.42 0.91 0.05
1 1.97 197 -0.024 -7.532 6.330 -2.533 -1.160 1.678 249.587 989.655 -4208.808 0.032 0.078 0.031 -0.02 -0.42 0.91 0.05
1 1.98 198 -0.048 -7.513 6.426 -2.502 -1.465 1.801 249.587 989.655 -4208.808 0.055 0.058 -0.066 -0.02 -0.42 0.91 0.05
1 1.99 199 -0.034 -7.480 6.421 -1.770 -1.923 1.709 219.607 1169.688 -4253.779 0.040 0.022 -0.063 -0.02 -0.42 0.91 0.05
1 2.00 200 -0.014 -7.633 6.388 -1.129 -2.472 1.556 219.607 1169.688 -4253.779 0.021 0.175 -0.031 -0.02 -0.42 0.91 0.05
1 2.01 201 0.062 -7.494 6.388 -1.434 -3.693 1.434 369.509 929.694 -4148.847 -0.054 0.035 -0.032 -0.02 -0.42 0.91 0.05
1 2.02 202 -0.043 -7.571 6.283 -1.434 -3.296 1.404 99.535 1109.727 -4238.789 0.053 0.111 0.072 -0.02 -0.42 0.91 0.05
1 2.03 203 0.072 -7.686 6.369 -3.326 -3.143 1.556 99.535 1109.727 -4238.789 -0.061 0.224 -0.016 -0.02 -0.42 0.91 0.05
1 2.04 204 0.125 -7.542 6.474 -4.791 -2.106 2.258 219.607 1124.717 -4178.828 -0.112 0.077 -0.124 -0.02 -0.42 0.91 0.05
1 2.05 205 -0.005 -7.542 6.354 -5.280 -1.160 1.892 219.607 1124.717 -4178.828 0.018 0.073 -0.009 -0.02 -0.42 0.91 0.05
1 2.06 206 0.120 -7.619 6.378 -4.700 -1.160 1.831 339.529 1169.688 -4358.710 -0.106 0.146 -0.039 -0.02 -0.42 0.91 0.05
1 2.07 207 0.014 -7.700 6.307 -3.235 -1.984 1.312 129.516 959.675 -4208.808 -0.001 0.220 0.025 -0.02 -0.42 0.91 0.05
1 2.08 208 0.024 -7.604 6.330 -1.923 -2.258 1.709 354.519 1304.600 -4133.707 -0.011 0.121 -0.003 -0.02 -0.42 0.91 0.05
1 2.09 209 0.024 -7.480 6.383 -1.648 -2.380 1.495 219.607 1049.616 -4253.779 -0.010 -0.004 -0.057 -0.02 -0.42 0.91 0.05
1 2.10 210 0.101 -7.647 6.350 -1.984 -2.136 1.526 219.607 1049.616 -4253.779 -0.085 0.162 -0.024 -0.02 -0.42 0.91 0.05
1 2.11 211 0.120 -7.667 6.417 -3.052 -2.289 1.801 294.558 1169.688 -4148.847 -0.103 0.180 -0.093 -0.02 -0.42 0.91 0.05
1 2.12 212 0.019 -7.705 6.426 -4.700 -1.831 1.801 294.558 1169.688 -4148.847 -0.001 0.215 -0.106 -0.02 -0.42 0.91 0.05
1 2.13 213 0.115 -7.662 6.402 -4.700 -1.740 1.556 219.607 1004.646 -4358.710 -0.096 0.168 -0.087 -0.02 -0.42 0.91 0.05
1 2.14 214 0.005 -7.724 6.321 -2.869 -1.404 1.312 219.607 1049.616 -4178.828 0.016 0.222 -0.015 -0.02 -0.42 0.91 0.05
1 2.15 215 0.182 -7.528 6.273 -2.747 -1.770 0.763 279.568 1304.600 -4343.720 -0.161 0.024 0.030 -0.02 -0.42 0.91 0.05
1 2.16 216 0.053 -7.643 6.302 -2.563 -2.411 0.671 354.519 989.655 -4268.769 -0.029 0.136 -0.001 -0.02 -0.42 0.9 0.05
1 2.17 217 0.072 -7.508 6.254 -2.472 -2.258 0.458 354.519 989.655 -4268.769 -0.046 0.000 0.044 -0.02 -0.42 0.9 0.05
1 2.18 218 0.077 -7.494 6.254 -4.089 -2.289 0.092 339.529 1169.688 -4223.798 -0.048 -0.016 0.042 -0.02 -0.42 0.9 0.05
1 2.19 219 0.129 -7.470 6.436 -4.639 -2.228 0.061 339.529 1169.688 -4223.798 -0.098 -0.043 -0.144 -0.02 -0.42 0.9 0.05
1 2.20 220 0.148 -7.599 6.345 -3.540 -2.228 0.061 159.496 1094.737 -4223.798 -0.114 0.082 -0.058 -0.02 -0.42 0.9 0.05
1 2.21 221 0.101 -7.542 6.354 -2.563 -2.014 0.610 219.607 1049.616 -4148.847 -0.061 0.020 -0.073 -0.02 -0.42 0.9 0.05
1 2.22 222 0.086 -7.542 6.345 -3.540 -2.380 -0.214 249.587 1109.727 -4313.740 -0.043 0.018 -0.066 -0.02 -0.42 0.9 0.05
1 2.23 223 0.034 -7.537 6.359 -3.387 -1.770 0.946 279.568 1034.626 -4343.720 0.012 0.010 -0.083 -0.02 -0.42 0.9 0.05
1 2.24 224 -0.010 -7.508 6.407 -4.181 -1.465 0.427 279.568 1034.626 -4343.720 0.057 -0.021 -0.134 -0.02 -0.42 0.9 0.05
1 2.25 225 0.206 -7.413 6.364 -4.181 -1.892 0.458 114.525 1049.616 -4298.750 -0.157 -0.120 -0.095 -0.02 -0.42 0.9 0.05
1 2.26 226 0.086 -7.571 6.398 -5.493 -1.801 -0.702 114.525 1049.616 -4298.750 -0.034 0.035 -0.132 -0.02 -0.42 0.9 0.05
1 2.27 227 0.067 -7.571 6.436 -5.310 -1.801 -1.221 219.607 1199.668 -4253.779 -0.012 0.031 -0.176 -0.02 -0.42 0.9 0.05
1 2.28 228 0.067 -7.647 6.335 -5.127 -1.160 -1.038 264.578 1004.646 -4253.779 -0.005 0.100 -0.084 -0.02 -0.43 0.9 0.05
1 2.29 229 0.072 -7.643 6.417 -4.364 -0.671 -0.916 384.500 1109.727 -4238.789 -0.008 0.092 -0.170 -0.02 -0.43 0.9 0.05
1 2.30 230 0.110 -7.777 6.283 -4.578 -1.495 -0.916 264.578 1274.620 -4148.847 -0.045 0.223 -0.040 -0.02 -0.43 0.9 0.05
1 2.31 231 0.043 -7.714 6.321 -4.303 -2.228 -0.519 264.578 1274.620 -4148.847 0.025 0.157 -0.083 -0.02 -0.43 0.9 0.05
1 2.32 232 0.000 -7.805 6.321 -3.723 -2.777 -1.068 324.539 1214.659 -4163.837 0.072 0.245 -0.086 -0.02 -0.43 0.9 0.05
1 2.33 233 0.120 -7.576 6.393 -3.540 -2.258 -0.946 324.539 1214.659 -4163.837 -0.044 0.012 -0.162 -0.02 -0.43 0.9 0.05
1 2.34 234 0.110 -7.700 6.307 -2.350 -2.075 -0.824 189.477 1094.737 -4328.730 -0.030 0.134 -0.078 -0.02 -0.43 0.9 0.05
1 2.35 235 0.062 -7.743 6.330 -3.357 -1.465 -1.343 174.486 1139.708 -4343.720 0.021 0.176 -0.104 -0.02 -0.43 0.9 0.05
1 2.36 236 -0.053 -7.537 6.326 -5.127 -1.556 -1.465 129.516 1184.678 -4268.769 0.143 -0.036 -0.107 -0.02 -0.43 0.9 0.05
1 2.37 237 0.034 -7.738 6.283 -5.829 -1.617 -1.373 204.467 1034.626 -4088.736 0.059 0.161 -0.069 -0.02 -0.43 0.9 0.05
1 2.38 238 0.034 -7.796 6.273 -5.676 -2.075 -1.099 204.467 1034.626 -4088.736 0.063 0.214 -0.065 -0.02 -0.43 0.9 0.05
1 2.39 239 -0.077 -7.734 6.287 -4.547 -2.563 -1.068 159.496 1199.668 -4298.750 0.176 0.147 -0.085 -0.02 -0.43 0.9 0.05
1 2.40 240 0.086 -7.781 6.187 -3.021 -2.625 -0.458 159.496 1199.668 -4298.750 0.016 0.191 0.011 -0.02 -0.43 0.9 0.05
1 2.41 241 0.072 -7.743 6.297 -2.594 -3.326 -0.702 204.467 1214.659 -4313.740 0.033 0.149 -0.103 -0.02 -0.43 0.9 0.05
1 2.42 242 0.062 -7.734 6.307 -2.808 -2.441 -0.519 204.467 989.655 -4313.740 0.046 0.138 -0.115 -0.02 -0.43 0.9 0.05
1 2.43 243 0.024 -7.710 6.249 -3.906 -2.747 -0.702 324.539 1304.600 -4238.789 0.091 0.109 -0.063 -0.02 -0.43 0.9 0.05
1 2.44 244 -0.105 -7.580 6.292 -4.608 -2.777 -0.244 249.587 1259.629 -4313.740 0.223 -0.023 -0.110 -0.02 -0.43 0.9 0.05
1 2.45 245 0.062 -7.652 6.196 -5.890 -2.502 -0.641 249.587 1259.629 -4313.740 0.058 0.045 -0.019 -0.02 -0.43 0.9 0.05
1 2.46 246 0.101 -7.753 6.254 -6.866 -1.984 -0.397 279.568 1184.678 -4418.821 0.022 0.141 -0.083 -0.02 -0.43 0.9 0.05
1 2.47 247 0.024 -7.657 6.182 -6.775 -1.587 -0.092 279.568 1184.678 -4418.821 0.101 0.039 -0.018 -0.02 -0.43 0.9 0.05
1 2.48 248 0.053 -7.671 6.201 -6.928 -1.678 0.336 324.539 1259.629 -4238.789 0.073 0.048 -0.044 -0.02 -0.43 0.9 0.05
1 2.49 249 -0.067 -7.963 6.297 -6.958 -2.014 0.427 159.496 1244.639 -4358.710 0.194 0.334 -0.148 -0.02 -0.43 0.9 0.05
1 2.50 250 0.014 -7.796 6.220 -5.554 -2.197 -0.183 159.496 1244.639 -4358.710 0.114 0.160 -0.079 -0.02 -0.43 0.9 0.05
1 2.51 251 0.048 -7.667 6.081 -3.937 -2.869 0.122 99.535 1139.708 -4238.789 0.082 0.022 0.049 -0.02 -0.43 0.9 0.05
1 2.52 252 -0.091 -7.772 6.220 -3.204 -3.174 0.427 99.535 1139.708 -4238.789 0.224 0.124 -0.094 -0.02 -0.43 0.9 0.05
1 2.53 253 0.077 -7.781 6.316 -3.906 -3.448 -0.275 294.558 1244.639 -4328.730 0.058 0.131 -0.193 -0.02 -0.43 0.9 0.05
1 2.54 254 -0.134 -7.767 6.125 -5.035 -3.052 0.793 294.558 1244.639 -4328.730 0.271 0.113 -0.006 -0.02 -0.43 0.9 0.05
1 2.55 255 0.038 -7.647 6.177 -6.256 -2.747 1.099 219.607 1124.717 -4253.779 0.099 -0.011 -0.064 -0.02 -0.43 0.9 0.05
1 2.56 256 0.077 -7.973 6.230 -7.568 -2.289 1.617 174.486 1304.600 -4268.769 0.061 0.309 -0.124 -0.02 -0.43 0.9 0.05
1 2.57 257 0.225 -7.757 6.005 -7.019 -1.953 2.075 174.486 1304.600 -4268.769 -0.087 0.088 0.094 -0.02 -0.43 0.9 0.05
1 2.58 258 0.019 -7.705 6.120 -5.768 -2.747 1.678 219.607 1274.620 -4253.779 0.119 0.023 -0.036 -0.02 -0.44 0.9 0.05
1 2.59 259 0.168 -7.753 6.144 -4.639 -3.326 1.373 219.607 1274.620 -4253.779 -0.029 0.067 -0.065 -0.02 -0.44 0.9 0.05
1 2.60 260 0.038 -7.767 6.129 -5.188 -3.479 0.671 204.467 1334.730 -4388.841 0.102 0.078 -0.055 -0.02 -0.44 0.9 0.05
1 2.61 261 0.010 -7.714 6.206 -5.737 -3.571 -0.153 204.467 1334.730 -4388.841 0.134 0.021 -0.138 -0.02 -0.44 0.9 0.05
1 2.62 262 0.048 -7.657 6.168 -6.439 -4.120 -0.092 189.477 1394.691 -4328.730 0.098 -0.041 -0.105 -0.02 -0.44 0.9 0.05
1 2.63 263 0.057 -7.801 6.000 -6.500 -4.761 -0.793 249.587 1109.727 -4208.808 0.093 0.097 0.056 -0.02 -0.44 0.9 0.05
1 2.64 264 -0.029 -7.796 6.067 -6.439 -5.463 -0.702 249.587 1109.727 -4208.808 0.184 0.087 -0.018 -0.02 -0.44 0.9 0.05
1 2.65 265 0.101 -7.825 6.110 -4.486 -6.073 -0.305 204.467 1184.678 -4238.789 0.065 0.105 -0.075 -0.02 -0.44 0.9 0.05
1 2.66 266 0.067 -7.939 6.120 -4.150 -6.073 0.244 204.467 1184.678 -4238.789 0.104 0.217 -0.089 -0.01 -0.44 0.9 0.05
1 2.67 267 0.048 -7.796 6.153 -3.418 -6.500 1.221 324.539 1214.659 -4238.789 0.129 0.070 -0.126 -0.01 -0.44 0.9 0.05
1 2.68 268 0.000 -7.662 6.196 -3.448 -6.195 1.068 324.539 1214.659 -4238.789 0.181 -0.066 -0.172 -0.01 -0.44 0.9 0.05
1 2.69 269 -0.019 -7.686 6.153 -3.021 -5.463 0.824 249.587 1304.600 -4388.841 0.204 -0.044 -0.131 -0.01 -0.44 0.9 0.05
1 2.70 270 -0.005 -7.700 6.201 -5.188 -3.723 0.244 249.587 1304.600 -4313.740 0.193 -0.031 -0.182 -0.01 -0.44 0.9 0.05
1 2.71 271 -0.057 -7.801 6.096 -8.026 -2.441 0.183 249.587 1304.600 -4313.740 0.249 0.066 -0.080 -0.01 -0.44 0.9 0.05
1 2.72 272 -0.072 -7.916 5.991 -8.026 -3.479 0.885 219.607 1319.740 -4358.710 0.264 0.169 0.009 -0.01 -0.44 0.9 0.05
1 2.73 273 -0.148 -7.997 6.153 -7.843 -4.089 1.190 219.607 1319.740 -4358.710 0.342 0.244 -0.163 -0.01 -0.44 0.9 0.05
1 2.74 274 -0.067 -7.930 6.081 -4.334 -4.669 2.136 174.486 1259.629 -4268.769 0.261 0.171 -0.098 -0.01 -0.44 0.9 0.05
1 2.75 275 0.096 -7.753 6.081 -2.319 -4.669 1.617 174.486 1259.629 -4268.769 0.098 -0.009 -0.102 -0.01 -0.44 0.9 0.05
1 2.76 276 0.081 -7.777 6.134 -2.838 -4.852 1.648 189.477 1319.740 -4178.828 0.114 0.013 -0.157 -0.01 -0.44 0.9 0.05
1 2.77 277 0.139 -7.734 6.043 -4.761 -3.601 1.587 249.587 1334.730 -4268.769 0.058 -0.032 -0.068 -0.01 -0.44 0.9 0.05
1 2.78 278 -0.029 -7.633 6.177 -8.362 -3.937 0.488 249.587 1334.730 -4268.769 0.228 -0.136 -0.208 -0.01 -0.44 0.9 0.05
1 2.79 279 -0.010 -7.858 5.962 -9.613 -4.425 0.458 219.607 1199.668 -4298.750 0.211 0.083 -0.000 -0.01 -0.44 0.9 0.05
1 2.80 280 -0.048 -7.949 6.072 -7.263 -6.561 0.519 129.516 1409.682 -4238.789 0.255 0.159 -0.129 -0.01 -0.44 0.89 0.05
1 2.81 281 0.034 -7.916 6.019 -5.676 -7.446 0.610 129.516 1379.701 -4268.769 0.178 0.120 -0.085 -0.01 -0.44 0.89 0.05
1 2.82 282 0.034 -7.959 6.048 -3.479 -7.599 0.305 129.516 1379.701 -4268.769 0.184 0.159 -0.119 -0.01 -0.44 0.89 0.05
1 2.83 283 0.024 -7.810 6.120 -3.235 -7.690 -0.214 219.607 1274.620 -4223.798 0.199 0.008 -0.194 -0.01 -0.44 0.89 0.05
1 2.84 284 -0.053 -7.997 6.058 -3.693 -7.202 -0.610 279.568 1334.730 -4343.720 0.283 0.193 -0.134 -0.01 -0.44 0.89 0.05
1 2.85 285 -0.005 -7.863 6.000 -4.456 -6.958 -0.183 279.568 1334.730 -4343.720 0.241 0.056 -0.080 -0.01 -0.44 0.89 0.05
1 2.86 286 0.034 -8.002 5.957 -4.517 -6.836 0.366 99.535 1379.701 -4208.808 0.208 0.192 -0.042 -0.01 -0.45 0.89 0.05
1 2.87 287 0.005 -7.959 5.976 -4.486 -7.080 0.549 54.564 1304.600 -4163.837 0.245 0.142 -0.070 -0.01 -0.45 0.89 0.05
1 2.88 288 -0.034 -7.887 5.995 -4.334 -7.416 0.641 219.607 1244.639 -4043.766 0.289 0.067 -0.094 -0.01 -0.45 0.89 0.05
1 2.89 289 -0.081 -7.920 5.832 -4.639 -8.972 0.702 219.607 1244.639 -4043.766 0.341 0.097 0.063 -0.01 -0.45 0.89 0.05
1 2.90 290 0.101 -7.954 5.952 -5.463 -9.644 0.793 189.477 1424.672 -4178.828 0.165 0.126 -0.062 -0.01 -0.45 0.89 0.05
1 2.91 291 0.077 -7.868 5.923 -6.042 -10.010 0.305 129.516 1184.678 -4238.789 0.195 0.036 -0.039 -0.01 -0.45 0.89 0.05
1 2.92 292 0.091 -7.997 5.943 -6.042 -10.681 1.465 129.516 1184.678 -4238.789 0.189 0.160 -0.065 -0.01 -0.45 0.89 0.05
1 2.93 293 0.177 -8.054 5.895 -5.219 -9.460 1.404 129.516 1304.600 -4133.707 0.110 0.213 -0.024 -0.01 -0.45 0.89 0.05
1 2.94 294 0.129 -7.973 5.900 -5.005 -8.331 2.563 189.477 1319.740 -4298.750 0.165 0.127 -0.035 -0.01 -0.45 0.89 0.05
1 2.95 295 0.192 -7.944 5.957 -3.418 -7.629 2.441 174.486 1304.600 -4088.736 0.112 0.091 -0.102 -0.01 -0.45 0.89 0.04
1 2.96 296 0.206 -7.973 5.904 -3.815 -7.263 2.014 174.486 1304.600 -4088.736 0.101 0.117 -0.053 -0 -0.45 0.89 0.04
1 2.97 297 0.215 -7.983 5.837 -5.646 -6.226 2.472 99.535 1454.652 -4238.789 0.094 0.124 0.009 -0 -0.45 0.89 0.04
1 2.98 298 0.158 -8.107 5.847 -7.355 -6.226 1.892 84.545 1319.740 -4253.779 0.154 0.243 -0.007 -0 -0.45 0.89 0.04
1 2.99 299 0.129 -8.026 5.804 -7.629 -7.080 1.709 84.545 1319.740 -4253.779 0.185 0.155 0.027 -0 -0.45 0.89 0.04
1 3.00 300 0.125 -8.174 5.809 -6.744 -8.545 1.709 84.545 1349.721 -4223.798 0.193 0.297 0.013 -0 -0.45 0.89 0.04
1 3.01 301 0.067 -8.088 5.794 -5.524 -9.094 1.434 9.594 1349.721 -4328.730 0.256 0.204 0.018 -0 -0.45 0.89 0.04
1 3.02 302 0.239 -7.959 5.770 -4.761 -8.881 0.946 159.496 1319.740 -4328.730 0.095 0.065 0.028 -0 -0.45 0.89 0.04
1 3.03 303 0.239 -8.054 5.708 -4.150 -8.789 0.519 159.496 1319.740 -4328.730 0.101 0.157 0.085 -0 -0.45 0.89 0.04
1 3.04 304 0.259 -7.959 5.703 -5.035 -8.881 0.946 129.516 1409.682 -4208.808 0.089 0.058 0.085 -0 -0.45 0.89 0.04
1 3.05 305 0.153 -7.911 5.828 -5.859 -9.613 1.190 159.496 1424.672 -4148.847 0.201 0.006 -0.046 -0 -0.45 0.89 0.04
1 3.06 306 0.359 -8.006 5.794 -6.531 -9.979 0.793 159.496 1424.672 -4148.847 0.001 0.097 -0.019 -0 -0.45 0.89 0.04
1 3.07 307 0.297 -8.107 5.742 -7.111 -10.803 0.580 129.516 1409.682 -4343.720 0.071 0.192 0.025 0 -0.45 0.89 0.04
1 3.08 308 0.306 -8.102 5.674 -7.202 -11.505 0.275 99.535 1454.652 -4163.837 0.070 0.181 0.083 0 -0.45 0.89 0.04
1 3.09 309 0.268 -8.011 5.694 -5.707 -11.932 -0.854 24.584 1454.652 -4388.841 0.128 0.078 0.046 0 -0.46 0.89 0.04
1 3.10 310 0.268 -7.911 5.631 -6.042 -12.695 -1.068 24.584 1454.652 -4388.841 0.140 -0.027 0.101 0 -0.46 0.89 0.04
1 3.11 311 0.249 -7.906 5.569 -5.707 -13.153 -0.885 -5.247 1484.633 -4268.769 0.172 -0.037 0.156 0 -0.46 0.89 0.04
1 3.12 312 0.421 -8.126 5.761 -7.019 -13.092 -1.556 9.594 1394.691 -4298.750 0.011 0.178 -0.044 0 -0.46 0.89 0.04
1 3.13 313 0.225 -8.107 5.718 -8.575 -11.993 -1.221 9.594 1394.691 -4298.750 0.220 0.153 -0.010 0.01 -0.46 0.89 0.04
1 3.14 314 0.417 -8.126 5.737 -9.338 -11.414 -0.885 38.225 1549.690 -4294.702 0.039 0.165 -0.041 0.01 -0.46 0.89 0.04
1 3.15 315 0.268 -8.102 5.780 -9.674 -12.085 0.000 38.225 1324.687 -4144.650 0.198 0.133 -0.095 0.01 -0.46 0.89 0.04
1 3.16 316 0.378 -8.136 5.718 -8.514 -11.444 -0.061 98.186 1414.628 -4129.660 0.108 0.151 -0.056 0.01 -0.46 0.89 0.04
1 3.17 317 0.455 -8.131 5.540 -7.843 -11.414 -0.122 98.186 1414.628 -4129.660 0.041 0.140 0.110 0.01 -0.46 0.89 0.04
1 3.18 318 0.359 -8.026 5.627 -6.348 -11.841 -0.031 83.196 1399.638 -4249.731 0.148 0.028 0.015 0.01 -0.46 0.89 0.04
1 3.19 319 0.374 -8.064 5.540 -6.317 -12.024 0.153 -66.557 1519.710 -4174.630 0.143 0.061 0.092 0.01 -0.46 0.89 0.04
1 3.20 320 0.326 -8.136 5.603 -8.667 -11.902 -0.427 -66.557 1519.710 -4174.630 0.201 0.127 0.021 0.01 -0.46 0.89 0.04
1 3.21 321 0.393 -8.212 5.569 -10.559 -11.200 0.183 38.225 1429.769 -4144.650 0.143 0.196 0.043 0.01 -0.46 0.89 0.04
1 3.22 322 0.397 -8.256 5.560 -9.735 -10.773 -0.092 -81.697 1489.729 -4129.660 0.147 0.231 0.039 0.01 -0.46 0.89 0.04
1 3.23 323 0.584 -8.160 5.516 -9.979 -10.742 0.580 -81.697 1489.729 -4129.660 -0.031 0.127 0.070 0.01 -0.46 0.89 0.04
1 3.24 324 0.498 -8.193 5.550 -8.606 -10.529 0.946 -156.648 1534.700 -4159.640 0.073 0.144 0.010 0.01 -0.46 0.88 0.04
1 3.25 325 0.469 -8.160 5.531 -8.057 -9.705 0.580 -66.557 1519.710 -4219.601 0.109 0.103 0.018 0.01 -0.47 0.88 0.04
1 3.26 326 0.397 -8.251 5.651 -8.026 -10.437 0.824 -141.658 1624.642 -4144.650 0.188 0.187 -0.112 0.02 -0.47 0.88 0.04
1 3.27 327 0.522 -8.279 5.440 -7.385 -10.803 1.404 -141.658 1624.642 -4144.650 0.071 0.210 0.089 0.02 -0.47 0.88 0.03
1 3.28 328 0.546 -8.126 5.607 -6.928 -10.956 1.678 -126.667 1489.729 -4309.692 0.054 0.050 -0.089 0.02 -0.47 0.88 0.03
1 3.29 329 0.546 -8.150 5.588 -8.514 -10.468 1.251 -51.566 1534.700 -4234.741 0.061 0.069 -0.078 0.02 -0.47 0.88 0.03
1 3.30 330 0.584 -8.054 5.627 -9.338 -9.430 1.343 -51.566 1534.700 -4234.741 0.030 -0.034 -0.127 0.02 -0.47 0.88 0.03
1 3.31 331 0.474 -8.260 5.540 -9.766 -7.996 1.160 -81.697 1384.648 -4084.689 0.152 0.158 -0.063 0.02 -0.47 0.88 0.03
1 3.32 332 0.541 -8.179 5.536 -8.881 -7.446 1.312 -156.648 1459.749 -4264.722 0.090 0.069 -0.070 0.02 -0.47 0.88 0.03
1 3.33 333 0.680 -8.323 5.540 -8.118 -8.179 1.068 -156.648 1564.681 -4309.692 -0.044 0.206 -0.085 0.02 -0.47 0.88 0.03
1 3.34 334 0.699 -8.294 5.378 -7.385 -8.453 1.007 -156.648 1564.681 -4309.692 -0.057 0.172 0.069 0.02 -0.47 0.88 0.03
1 3.35 335 0.575 -8.284 5.540 -6.287 -8.820 0.763 -291.560 1594.661 -4114.669 0.074 0.156 -0.104 0.02 -0.47 0.88 0.03
1 3.36 336 0.618 -8.270 5.459 -5.615 -9.277 1.221 -51.566 1489.729 -4054.708 0.037 0.138 -0.029 0.02 -0.47 0.88 0.03
1 3.37 337 0.776 -8.404 5.392 -6.317 -9.125 1.282 -51.566 1489.729 -4054.708 -0.114 0.269 0.032 0.02 -0.47 0.88 0.03
1 3.38 338 0.752 -8.227 5.531 -7.538 -8.575 1.495 -216.609 1519.710 -4219.601 -0.083 0.087 -0.115 0.02 -0.47 0.88 0.03
1 3.39 339 0.881 -8.337 5.603 -8.942 -6.866 2.258 -216.609 1354.667 -4039.718 -0.199 0.185 -0.206 0.02 -0.47 0.88 0.03
1 3.40 340 0.785 -8.390 5.651 -8.911 -5.798 2.899 -141.658 1594.661 -4114.669 -0.099 0.231 -0.264 0.02 -0.47 0.88 0.03
1 3.41 341 1.020 -8.514 5.603 -8.575 -3.998 3.754 -141.658 1594.661 -4114.669 -0.331 0.349 -0.227 0.02 -0.47 0.88 0.03
1 3.42 342 0.891 -8.543 5.646 -7.355 -3.265 4.303 -216.609 1519.710 -4114.669 -0.201 0.371 -0.280 0.02 -0.48 0.88 0.03
1 3.43 343 0.872 -8.528 5.550 -6.744 -2.991 5.310 -216.609 1699.743 -4114.669 -0.182 0.351 -0.193 0.02 -0.48 0.88 0.03
1 3.44 344 0.838 -8.619 5.670 -6.622 -3.052 6.073 -216.609 1699.743 -4114.669 -0.151 0.437 -0.320 0.02 -0.48 0.88 0.03
1 3.45 345 0.915 -8.557 5.679 -6.744 -3.906 5.737 -246.589 1549.690 -4174.630 -0.230 0.370 -0.337 0.02 -0.48 0.88 0.03
1 3.46 346 0.867 -8.739 5.837 -6.714 -5.188 6.348 -306.550 1564.681 -4129.660 -0.187 0.541 -0.511 0.02 -0.48 0.88 0.03
1 3.47 347 0.852 -8.610 5.856 -6.287 -5.371 5.981 -201.619 1684.752 -4084.689 -0.175 0.407 -0.537 0.02 -0.48 0.88 0.03
1 3.48 348 0.781 -8.528 5.742 -4.059 -5.951 6.317 -201.619 1684.752 -4084.689 -0.104 0.322 -0.427 0.03 -0.48 0.88 0.03
1 3.49 349 0.704 -8.342 5.722 -0.885 -10.193 5.554 -156.648 1534.700 -4204.611 -0.029 0.134 -0.411 0.03 -0.48 0.88 0.03
1 3.50 350 0.584 -8.059 5.761 2.319 -17.761 3.876 -156.648 1609.651 -4234.741 0.094 -0.147 -0.447 0.03 -0.48 0.88 0.03
1 3.51 351 0.421 -8.016 5.900 0.366 -21.942 1.099 -156.648 1609.651 -4234.741 0.265 -0.187 -0.582 0.03 -0.48 0.88 0.02
1 3.52 352 0.599 -8.064 5.919 -5.219 -25.024 0.061 -246.589 1519.710 -4174.630 0.102 -0.136 -0.598 0.03 -0.48 0.88 0.02
1 3.53 353 0.460 -8.203 6.014 -15.259 -26.337 -1.343 -126.667 1534.700 -4129.660 0.281 -0.002 -0.707 0.03 -0.48 0.88 0.02
1 3.54 354 0.498 -8.327 5.986 -18.799 -26.550 -1.678 -291.560 1669.762 -4144.650 0.264 0.112 -0.697 0.03 -0.48 0.88 0.02
1 3.55 355 0.479 -8.653 5.986 -18.189 -26.520 -2.075 -291.560 1669.762 -4144.650 0.306 0.426 -0.719 0.03 -0.48 0.88 0.02
1 3.56 356 0.522 -8.610 5.818 -13.947 -25.971 -1.984 -291.560 1549.690 -4144.650 0.285 0.371 -0.573 0.04 -0.48 0.88 0.02
1 3.57 357 0.599 -8.725 5.727 -7.690 -25.024 -0.946 -216.609 1624.642 -4114.669 0.228 0.478 -0.498 0.04 -0.48 0.88 0.02
1 3.58 358 0.656 -8.418 5.684 0.061 -23.926 -0.092 -216.609 1624.642 -4114.669 0.190 0.168 -0.463 0.04 -0.48 0.88 0.02
1 3.59 359 0.800 -8.193 5.363 3.479 -23.865 1.221 -351.671 1759.704 -4159.640 0.065 -0.056 -0.144 0.04 -0.48 0.88 0.02
1 3.60 360 1.216 -7.882 5.311 2.686 -24.078 4.150 -321.690 1624.642 -4039.718 -0.317 -0.359 -0.085 0.04 -0.48 0.88 0.02
1 3.61 361 1.379 -7.992 5.315 0.793 -24.170 4.395 -321.690 1624.642 -4039.718 -0.480 -0.249 -0.089 0.04 -0.48 0.88 0.02
1 3.62 362 1.499 -7.858 5.239 -5.402 -24.262 5.432 -396.941 1626.590 -4113.021 -0.565 -0.382 -0.016 0.05 -0.48 0.88 0.01
1 3.63 363 1.590 -8.069 5.210 -8.087 -23.987 6.256 -321.990 1596.610 -4068.050 -0.639 -0.175 0.004 0.05 -0.48 0.88 0.01
1 3.64 364 1.686 -7.997 5.119 -9.583 -23.560 6.531 -366.961 1626.590 -4143.001 -0.718 -0.252 0.083 0.05 -0.48 0.87 0.01
1 3.65 365 1.700 -7.973 5.138 -5.707 -21.271 5.859 -366.961 1626.590 -4143.001 -0.715 -0.282 0.050 0.05 -0.48 0.87 0.01
1 3.66 366 1.767 -8.064 5.047 -3.815 -19.592 5.432 -351.971 1611.600 -4202.962 -0.766 -0.196 0.131 0.05 -0.48 0.87 0.01
1 3.67 367 1.762 -8.107 5.076 -3.571 -17.609 4.852 -351.971 1611.600 -4202.962 -0.745 -0.156 0.095 0.05 -0.48 0.87 0.01
1 3.68 368 1.868 -8.169 4.836 -4.822 -17.365 4.791 -396.941 1671.561 -4113.021 -0.823 -0.098 0.320 0.06 -0.48 0.87 0.01
1 3.69 369 1.935 -8.270 4.683 -7.599 -17.090 4.181 -396.941 1671.561 -4113.021 -0.876 -0.003 0.463 0.06 -0.48 0.87 0.01
1 3.70 370 1.920 -8.476 4.650 -9.918 -17.578 3.357 -441.912 1746.512 -4217.952 -0.846 0.196 0.481 0.06 -0.48 0.87 0.01
1 3.71 371 1.935 -8.466 4.602 -9.399 -16.876 2.350 -516.863 1626.590 -3992.949 -0.844 0.177 0.512 0.06 -0.49 0.87 0.01
1 3.72 372 1.877 -8.437 4.473 -7.111 -14.465 0.610 -516.863 1626.590 -3992.949 -0.769 0.140 0.623 0.06 -0.49 0.87 0.01
1 3.73 373 1.863 -8.461 4.420 -4.700 -13.367 -1.251 -531.854 1641.581 -4157.991 -0.738 0.158 0.662 0.06 -0.49 0.87 0.01
1 3.74 374 1.982 -8.447 4.401 -2.960 -12.054 -2.289 -531.854 1641.581 -4157.991 -0.839 0.139 0.669 0.06 -0.49 0.87 0.01
1 3.75 375 2.064 -8.476 4.257 -5.798 -11.993 -0.824 -396.941 1551.489 -4068.050 -0.883 0.160 0.793 0.07 -0.49 0.87 0.01
1 3.76 376 2.088 -8.524 4.214 -7.843 -13.336 -1.282 -396.941 1551.489 -4068.050 -0.889 0.202 0.822 0.07 -0.49 0.87 0.01
1 3.77 377 2.030 -8.595 4.362 -9.338 -12.878 -2.502 -636.935 1806.623 -4083.040 -0.812 0.266 0.656 0.07 -0.49 0.87 0.01
1 3.78 378 2.145 -8.926 4.391 -8.728 -12.482 -0.916 -546.844 1746.512 -3962.968 -0.906 0.589 0.609 0.07 -0.49 0.87 0.01
1 3.79 379 2.346 -8.777 4.578 -6.042 -10.071 -1.801 -546.844 1746.512 -3962.968 -1.090 0.433 0.405 0.07 -0.49 0.87 0.01
1 3.80 380 2.442 -8.859 4.602 -1.801 -1.648 -4.334 -531.854 1536.499 -3947.978 -1.167 0.510 0.369 0.07 -0.49 0.87 0.01
1 3.81 381 2.308 -8.792 4.717 -0.793 3.937 -4.639 -531.854 1536.499 -3947.978 -1.016 0.441 0.247 0.07 -0.49 0.87 0.01
1 3.82 382 2.308 -8.730 4.458 -1.770 8.484 -5.402 -636.935 1686.551 -4083.040 -1.003 0.379 0.502 0.07 -0.49 0.87 0.01
1 3.83 383 2.279 -8.739 4.329 -4.578 11.963 -5.402 -711.886 1806.623 -4157.991 -0.959 0.386 0.623 0.07 -0.49 0.87 0.01
1 3.84 384 2.255 -8.552 4.401 -5.219 13.306 -6.134 -591.964 1671.561 -4143.001 -0.929 0.196 0.544 0.07 -0.49 0.87 0.01
1 3.85 385 2.303 -8.447 4.358 -6.470 13.947 -7.172 -561.984 1731.522 -4053.060 -0.970 0.087 0.580 0.07 -0.49 0.87 0.01
1 3.86 386 2.140 -8.787 4.463 -7.599 15.076 -7.538 -561.984 1731.522 -4053.060 -0.801 0.423 0.466 0.07 -0.49 0.87 0.01
1 3.87 387 2.097 -8.777 4.343 -9.674 18.250 -6.897 -561.984 1761.502 -3977.958 -0.753 0.409 0.575 0.07 -0.49 0.87 0.01
1 3.88 388 1.963 -8.816 4.477 -8.209 19.806 -5.798 -561.984 1761.502 -3977.958 -0.616 0.440 0.429 0.07 -0.49 0.87 0.02
1 3.89 389 1.868 -8.792 4.267 -6.561 20.844 -5.310 -411.932 1761.502 -3947.978 -0.521 0.410 0.629 0.07 -0.5 0.87 0.02
1 3.90 390 1.796 -8.672 4.367 -1.984 23.102 -3.021 -651.925 1671.561 -4068.050 -0.459 0.282 0.517 0.07 -0.5 0.87 0.02
1 3.91 391 1.738 -8.677 4.420 -0.793 23.529 -2.167 -486.883 1686.551 -4053.060 -0.411 0.284 0.463 0.07 -0.5 0.87 0.02
1 3.92 392 1.575 -8.519 4.492 -1.373 24.048 -0.824 -516.863 1521.509 -3888.017 -0.260 0.125 0.392 0.06 -0.5 0.87 0.02
1 3.93 393 1.556 -8.562 4.377 -2.136 24.475 0.000 -516.863 1521.509 -3888.017 -0.255 0.167 0.508 0.06 -0.5 0.87 0.02
1 3.94 394 1.647 -8.538 4.305 -1.343 24.689 1.373 -531.854 1731.522 -4083.040 -0.361 0.140 0.580 0.06 -0.5 0.87 0.03
1 3.95 395 1.566 -8.509 4.271 2.472 24.201 1.801 -531.854 1731.522 -4083.040 -0.297 0.110 0.615 0.06 -0.5 0.87 0.03
1 3.96 396 1.465 -8.351 4.386 4.150 22.644 2.411 -486.883 1731.522 -4053.060 -0.214 -0.048 0.504 0.06 -0.5 0.87 0.03
1 3.97 397 1.293 -8.246 4.554 4.456 20.416 2.533 -351.971 1731.522 -4128.011 -0.076 -0.149 0.353 0.06 -0.5 0.87 0.03
1 3.98 398 1.288 -8.165 4.607 2.289 20.844 2.228 -441.912 1671.561 -4038.069 -0.087 -0.228 0.309 0.05 -0.5 0.87 0.03
1 3.99 399 1.149 -8.198 4.506 -1.099 21.454 2.106 -441.912 1821.613 -4068.050 0.035 -0.193 0.415 0.05 -0.5 0.87 0.03
1 4.00 400 1.087 -8.428 4.645 -2.014 24.902 3.021 -441.912 1821.613 -4068.050 0.078 0.035 0.278 0.05 -0.5 0.87 0.03
1 4.01 401 0.867 -8.260 4.784 -3.784 27.985 3.540 -396.941 1701.542 -4038.069 0.275 -0.136 0.140 0.05 -0.5 0.87 0.03
1 4.02 402 0.603 -8.447 4.587 -3.754 27.283 5.463 -396.941 1701.542 -4038.069 0.511 0.048 0.337 0.05 -0.5 0.87 0.03
1 4.03 403 0.374 -8.452 4.343 -3.662 20.172 6.989 -381.951 1806.623 -4083.040 0.711 0.049 0.581 0.04 -0.5 0.87 0.03
1 4.04 404 0.532 -8.375 4.315 1.678 11.108 6.470 -366.961 1746.512 -4113.021 0.501 -0.037 0.606 0.04 -0.5 0.87 0.03
1 4.05 405 0.709 -8.414 4.276 4.120 11.017 6.989 -306.850 1686.551 -4053.060 0.304 0.001 0.648 0.04 -0.5 0.87 0.03
1 4.06 406 0.991 -8.184 4.353 8.026 17.151 9.613 -306.850 1731.522 -3977.958 0.001 -0.226 0.581 0.04 -0.5 0.87 0.03
1 4.07 407 1.082 -8.093 4.544 2.777 24.872 10.559 -306.850 1731.522 -3977.958 -0.117 -0.314 0.399 0.04 -0.5 0.87 0.03
1 4.08 408 0.876 -7.877 4.889 -10.010 31.281 12.726 -351.971 1761.502 -3947.978 0.057 -0.531 0.057 0.04 -0.5 0.87 0.03
1 4.09 409 0.589 -7.920 5.402 -34.943 27.069 15.167 -351.971 1761.502 -3947.978 0.304 -0.499 -0.467 0.03 -0.5 0.87 0.03
1 4.10 410 -0.034 -8.696 5.952 -49.988 13.031 12.634 -216.909 1746.512 -4113.021 0.885 0.254 -1.049 0.03 -0.5 0.87 0.04
1 4.11 411 -0.125 -9.759 5.818 -53.406 -0.854 6.561 -141.958 1746.512 -4113.021 0.942 1.284 -0.965 0.03 -0.5 0.86 0.04
1 4.12 412 0.034 -10.889 5.038 -24.628 -10.407 -0.977 -156.948 1806.623 -4128.011 0.772 2.344 -0.308 0.03 -0.51 0.86 0.03
1 4.13 413 0.283 -10.755 4.429 10.864 -12.024 0.305 -126.967 1731.522 -3977.958 0.533 2.199 0.279 0.03 -0.51 0.86 0.03
1 4.14 414 0.627 -9.946 4.286 40.344 -8.820 1.923 -126.967 1731.522 -3977.958 0.197 1.404 0.448 0.03 -0.51 0.86 0.03
1 4.15 415 0.814 -9.017 4.616 51.087 -0.122 4.486 -201.918 1881.574 -3873.027 0.012 0.508 0.175 0.03 -0.5 0.86 0.03
1 4.16 416 0.747 -7.796 4.937 25.757 13.245 2.075 -201.918 1881.574 -3873.027 0.072 -0.679 -0.085 0.03 -0.5 0.86 0.03
1 4.17 417 0.790 -7.834 5.023 -8.606 19.867 -0.763 -126.967 1881.574 -3873.027 0.018 -0.616 -0.126 0.03 -0.5 0.87 0.03
1 4.18 418 0.694 -8.217 5.105 -43.152 20.905 0.885 -126.967 1836.604 -4007.939 0.100 -0.231 -0.202 0.03 -0.5 0.87 0.04
1 4.19 419 0.838 -8.773 4.789 -60.578 17.304 3.601 -141.958 1776.493 -3992.949 -0.077 0.260 0.006 0.02 -0.5 0.86 0.04
1 4.20 420 0.742 -8.849 4.674 -47.516 10.925 2.167 -186.928 1821.613 -3992.949 0.004 0.294 0.048 0.02 -0.51 0.86 0.04
1 4.21 421 0.709 -8.677 4.683 -23.346 1.831 -0.031 -186.928 1821.613 -3992.949 0.031 0.092 -0.016 0.02 -0.51 0.86 0.04
1 4.22 422 0.737 -8.509 4.722 0.946 -6.042 -1.770 -66.856 1851.594 -3917.998 0.003 -0.088 -0.075 0.02 -0.51 0.86 0.04
1 4.23 423 0.651 -8.279 4.951 15.808 -14.099 -4.028 -66.856 1851.594 -3917.998 0.100 -0.312 -0.298 0.02 -0.51 0.86 0.04
1 4.24 424 0.646 -8.141 5.349 11.231 -23.590 -9.613 7.645 1942.734 -3961.919 0.123 -0.437 -0.672 0.02 -0.51 0.86 0.04
1 4.25 425 0.579 -8.471 5.603 -4.242 -27.466 -14.618 -217.208 1852.643 -3916.948 0.218 -0.093 -0.905 0.02 -0.51 0.86 0.04
1 4.26 426 0.345 -9.151 5.727 -19.928 -27.771 -16.876 -217.208 1852.643 -3916.948 0.489 0.592 -1.027 0.03 -0.51 0.86 0.04
1 4.27 427 0.345 -10.104 5.914 -18.372 -21.881 -15.106 -247.189 1852.643 -3961.919 0.570 1.525 -1.266 0.03 -0.51 0.86 0.04
1 4.28 428 0.517 -10.080 5.928 3.601 -14.832 -10.315 -247.189 1852.643 -3961.919 0.431 1.494 -1.300 0.03 -0.51 0.86 0.04
1 4.29 429 0.158 -9.644 5.794 31.311 -7.629 -5.798 -217.208 1897.614 -3916.948 0.812 1.068 -1.153 0.03 -0.51 0.86 0.04
1 4.30 430 0.153 -8.624 5.574 53.131 -2.136 -2.167 -217.208 1897.614 -3916.948 0.828 0.076 -0.883 0.03 -0.51 0.86 0.04
1 4.31 431 -0.110 -7.173 5.492 57.129 -0.397 0.610 -292.160 1897.614 -3916.948 1.089 -1.331 -0.723 0.04 -0.51 0.86 0.04
1 4.32 432 -0.105 -6.618 5.550 40.314 -2.411 1.373 -352.271 1987.705 -4006.890 1.077 -1.840 -0.696 0.03 -0.5 0.86 0.04
1 4.33 433 0.091 -6.474 5.564 14.954 -4.242 2.045 -352.271 1987.705 -4006.890 0.878 -1.947 -0.647 0.03 -0.5 0.87 0.04
1 4.34 434 0.450 -6.800 5.636 -21.393 -4.028 4.669 -322.140 1702.741 -3991.899 0.521 -1.608 -0.697 0.04 -0.5 0.87 0.04
1 4.35 435 0.814 -7.566 5.775 -34.699 0.092 5.981 -322.140 1702.741 -3991.899 0.152 -0.859 -0.863 0.04 -0.5 0.87 0.04
1 4.36 436 0.895 -8.246 5.876 -35.980 5.341 7.538 -367.261 1777.692 -4036.870 0.060 -0.201 -0.999 0.03 -0.5 0.86 0.04
1 4.37 437 0.776 -8.998 5.794 -26.001 8.942 9.491 -367.261 1777.692 -4036.870 0.165 0.529 -0.953 0.03 -0.5 0.86 0.04
1 4.38 438 0.570 -9.309 5.564 -10.559 9.430 10.376 -187.228 1897.614 -3991.899 0.350 0.825 -0.746 0.03 -0.5 0.86 0.04
1 4.39 439 0.057 -9.247 5.301 12.726 3.693 12.390 -232.199 1732.721 -3946.929 0.842 0.757 -0.488 0.03 -0.5 0.86 0.04
1 4.40 440 -0.129 -8.883 5.220 20.722 -2.991 11.505 -232.199 1732.721 -3946.929 1.005 0.399 -0.392 0.03 -0.5 0.86 0.04
1 4.41 441 -0.019 -8.260 5.095 20.355 -13.611 8.087 -232.199 1762.702 -4126.961 0.861 -0.194 -0.211 0.03 -0.5 0.86 0.03
1 4.42 442 0.101 -7.916 5.038 13.855 -18.280 4.822 -232.199 1762.702 -4126.961 0.737 -0.525 -0.128 0.03 -0.5 0.87 0.03
1 4.43 443 0.431 -7.805 5.215 5.280 -20.203 2.167 -352.271 1807.672 -3946.929 0.411 -0.625 -0.289 0.03 -0.5 0.87 0.03
1 4.44 444 0.517 -7.959 5.315 -3.723 -18.189 0.488 -352.271 1807.672 -3946.929 0.335 -0.467 -0.384 0.03 -0.5 0.87 0.03
1 4.45 445 0.575 -8.279 5.598 -12.787 -13.733 0.122 -367.261 1702.741 -3886.968 0.288 -0.149 -0.672 0.03 -0.5 0.87 0.03
1 4.46 446 0.685 -9.089 5.904 -17.670 -3.510 3.601 -232.199 1732.721 -3946.929 0.185 0.653 -0.993 0.03 -0.5 0.87 0.03
1 4.47 447 0.642 -9.750 5.923 -13.733 5.066 7.599 -232.199 1732.721 -3946.929 0.226 1.303 -1.030 0.03 -0.5 0.87 0.03
1 4.48 448 0.627 -10.051 5.593 2.350 16.083 15.228 -202.218 1807.672 -4006.890 0.209 1.587 -0.724 0.03 -0.5 0.86 0.03
1 4.49 449 0.436 -9.601 5.263 17.944 18.738 20.294 -202.218 1807.672 -4006.890 0.367 1.141 -0.383 0.03 -0.5 0.86 0.03
1 4.50 450 0.407 -9.031 5.258 28.748 17.090 21.668 -217.208 1747.711 -3961.919 0.355 0.585 -0.347 0.03 -0.5 0.87 0.03
1 4.51 451 0.230 -8.514 5.109 26.062 13.641 20.996 -217.208 1747.711 -3961.919 0.490 0.087 -0.160 0.03 -0.5 0.87 0.03
1 4.52 452 0.397 -8.184 5.129 12.573 9.735 18.127 -307.150 1762.702 -4006.890 0.283 -0.228 -0.146 0.03 -0.5 0.87 0.03
1 4.53 453 0.680 -8.490 5.100 -9.705 5.981 13.611 -352.271 1807.672 -3946.929 -0.030 0.085 -0.103 0.02 -0.49 0.87 0.02
1 4.54 454 0.876 -8.739 5.172 -14.526 4.852 11.932 -352.271 1807.672 -3946.929 -0.250 0.328 -0.181 0.02 -0.49 0.87 0.02
1 4.55 455 1.001 -9.070 5.042 -8.575 3.082 9.644 -217.208 1777.692 -3991.899 -0.392 0.648 -0.068 0.02 -0.5 0.87 0.02
1 4.56 456 0.943 -9.137 5.200 10.986 1.862 7.813 -232.199 1957.725 -4052.010 -0.357 0.706 -0.238 0.02 -0.5 0.87 0.02
1 4.57 457 0.752 -8.878 5.172 22.858 -0.824 6.439 -157.248 1762.702 -3901.958 -0.172 0.458 -0.190 0.02 -0.5 0.87 0.02
1 4.58 458 0.709 -8.667 5.162 29.938 -3.052 5.707 -157.248 1762.702 -3901.958 -0.134 0.266 -0.149 0.02 -0.49 0.87 0.02
1 4.59 459 0.570 -8.270 5.181 30.853 -3.937 5.219 -247.189 1852.643 -4036.870 0.002 -0.107 -0.128 0.02 -0.49 0.87 0.02
1 4.60 460 0.273 -8.179 5.023 24.628 -1.434 4.334 -232.199 1687.601 -4081.991 0.297 -0.174 0.070 0.02 -0.49 0.87 0.02
1 4.61 461 0.091 -8.188 5.105 18.402 1.129 4.120 -232.199 1687.601 -4081.991 0.474 -0.143 0.024 0.02 -0.49 0.87 0.02
1 4.62 462 -0.105 -8.260 4.994 15.076 4.852 3.967 -202.218 1687.601 -4126.961 0.663 -0.055 0.161 0.02 -0.49 0.87 0.02
1 4.63 463 -0.158 -8.332 4.760 14.038 6.348 4.242 -217.208 1747.711 -3991.899 0.690 0.040 0.435 0.02 -0.48 0.87 0.02
1 4.64 464 -0.235 -8.246 4.669 15.289 5.188 4.669 -322.140 1672.610 -4067.000 0.753 -0.037 0.543 0.02 -0.48 0.87 0.02
1 4.65 465 -0.115 -8.299 4.669 16.419 3.387 4.456 -322.140 1672.610 -4067.000 0.618 0.026 0.561 0.02 -0.48 0.88 0.02
1 4.66 466 -0.086 -8.169 4.688 16.357 1.862 3.387 -187.228 1672.610 -4141.952 0.577 -0.092 0.561 0.02 -0.48 0.88 0.02
1 4.67 467 0.120 -8.169 4.741 14.740 1.434 2.441 -142.257 1672.610 -4111.971 0.362 -0.081 0.527 0.02 -0.48 0.88 0.02
1 4.68 468 0.019 -8.251 4.865 11.627 2.533 1.434 -142.257 1672.610 -4111.971 0.455 0.011 0.419 0.02 -0.48 0.88 0.02
1 4.69 469 -0.043 -8.346 4.789 8.759 3.693 -0.031 -217.208 1597.659 -3961.919 0.510 0.115 0.509 0.02 -0.48 0.88 0.02
1 4.70 470 -0.096 -8.452 4.616 7.233 1.740 -1.373 -7.195 1612.649 -4126.961 0.557 0.227 0.692 0.02 -0.48 0.88 0.02
1 4.71 471 -0.010 -8.686 4.578 7.568 -0.122 -3.296 -157.248 1567.679 -4081.991 0.466 0.469 0.743 0.02 -0.48 0.88 0.02
1 4.72 472 0.014 -8.629 4.635 8.728 -2.258 -3.510 -157.248 1567.679 -4081.991 0.443 0.416 0.691 0.02 -0.48 0.88 0.02
1 4.73 473 -0.029 -8.648 4.674 11.627 -4.791 -3.540 -142.257 1627.640 -4067.000 0.491 0.440 0.660 0.02 -0.48 0.88 0.02
1 4.74 474 0.057 -8.653 4.631 13.489 -6.836 -4.608 -37.176 1747.711 -4067.000 0.411 0.451 0.713 0.02 -0.48 0.88 0.02
1 4.75 475 0.057 -8.610 4.568 14.557 -9.003 -4.181 -37.176 1747.711 -4067.000 0.420 0.417 0.787 0.02 -0.48 0.88 0.02
1 4.76 476 0.024 -8.581 4.616 12.604 -9.369 -4.639 -217.208 1552.688 -4067.000 0.464 0.397 0.752 0.02 -0.48 0.88 0.02
1 4.77 477 -0.005 -8.624 4.573 10.132 -10.437 -5.188 -322.140 1477.737 -3961.919 0.503 0.448 0.807 0.02 -0.47 0.88 0.02
1 4.78 478 -0.053 -8.715 4.559 7.599 -10.773 -4.974 -276.720 1685.502 -3948.728 0.574 0.549 0.834 0.02 -0.47 0.88 0.02
1 4.79 479 -0.086 -8.830 4.473 8.087 -11.414 -4.486 -276.720 1685.502 -3948.728 0.620 0.667 0.924 0.02 -0.47 0.88 0.02
1 4.80 480 -0.196 -8.744 4.319 9.491 -12.116 -3.479 -306.700 1640.531 -4233.692 0.741 0.584 1.081 0.02 -0.47 0.88 0.02
1 4.81 481 -0.230 -8.720 4.386 11.810 -13.733 -2.289 -216.759 1355.567 -4038.669 0.784 0.565 1.020 0.02 -0.47 0.88 0.02
1 4.82 482 -0.235 -8.686 4.315 13.489 -16.296 -1.343 -216.759 1355.567 -4038.669 0.798 0.538 1.100 0.02 -0.47 0.88 0.02
1 4.83 483 -0.330 -8.629 4.262 11.627 -20.386 0.549 -306.700 1535.600 -4128.760 0.904 0.487 1.161 0.02 -0.47 0.88 0.02
1 4.84 484 -0.369 -8.576 4.180 9.033 -22.247 0.824 -216.759 1430.518 -3993.698 0.953 0.439 1.250 0.03 -0.47 0.88 0.02
1 4.85 485 -0.311 -8.418 4.219 5.554 -23.956 2.716 -411.782 1415.528 -4083.640 0.916 0.286 1.216 0.03 -0.47 0.88 0.01
1 4.86 486 -0.426 -8.624 4.085 4.364 -25.238 3.418 -411.782 1415.528 -4083.640 1.041 0.491 1.348 0.03 -0.47 0.88 0.01
1 4.87 487 -0.436 -8.524 3.965 3.479 -26.825 3.418 -276.720 1340.577 -4008.688 1.061 0.388 1.463 0.03 -0.47 0.88 0.01
1 4.88 488 -0.397 -8.586 3.903 1.587 -30.518 3.693 -291.710 1520.609 -4143.750 1.035 0.447 1.519 0.03 -0.47 0.88 0.01
1 4.89 489 -0.388 -8.672 3.965 -0.671 -34.027 2.808 -291.710 1520.609 -4143.750 1.041 0.528 1.446 0.03 -0.47 0.88 0.01
1 4.90 490 -0.350 -8.701 4.305 -1.923 -34.241 2.563 -246.739 1355.567 -4038.669 1.020 0.549 1.094 0.04 -0.47 0.88 0.01
1 4.91 491 -0.072 -8.653 5.823 -5.310 -30.121 3.174 -351.821 1460.648 -3948.728 0.760 0.494 -0.437 0.04 -0.47 0.88 0
1 4.92 492 1.350 -9.113 8.428 -17.731 -2.686 7.446 -441.762 1475.639 -4173.731 -0.637 0.938 -3.070 0.04 -0.47 0.88 0
1 4.93 493 2.002 -9.682 8.509 -22.369 13.275 11.566 -441.762 1475.639 -4173.731 -1.304 1.491 -3.175 0.04 -0.48 0.88 0
1 4.94 494 2.744 -11.282 6.761 -39.581 63.629 32.593 -531.704 1460.648 -3948.728 -2.103 3.065 -1.460 0.04 -0.48 0.88 0
1 4.95 495 2.466 -10.655 4.927 -35.309 77.912 48.401 -366.811 1475.639 -3963.718 -1.927 2.402 0.330 0.03 -0.48 0.88 0
1 4.96 496 1.810 -9.189 3.256 -0.671 57.800 50.751 -366.811 1475.639 -3963.718 -1.394 0.911 1.972 0.02 -0.48 0.88 0
1 4.97 497 0.924 -7.346 3.122 28.076 2.716 31.921 -441.762 1520.609 -3963.718 -0.603 -0.933 2.113 -0.02 0.48 -0.88 0
1 4.98 498 0.752 -6.709 3.936 14.038 -23.804 21.088 -306.700 1640.531 -3978.708 -0.480 -1.553 1.328 -0.02 0.48 -0.88 0
1 4.99 499 1.015 -6.441 4.568 -8.698 -35.401 13.489 -306.700 1640.531 -3978.708 -0.758 -1.806 0.720 -0.02 0.48 -0.88 0
1 5.00 500 1.499 -7.269 5.052 -30.640 -28.839 5.188 -141.808 1430.518 -4113.620 -1.215 -0.997 0.204 -0.02 0.48 -0.88 0.01
1 5.01 501 1.259 -8.088 5.287 -34.729 -16.449 3.479 -246.739 1475.639 -3963.718 -0.955 -0.203 -0.070 -0.02 0.48 -0.88 0.01
1 5.02 502 0.876 -8.572 5.368 -31.830 -7.294 4.242 -291.710 1520.609 -4113.620 -0.557 0.255 -0.193 -0.02 0.49 -0.87 0.01
1 5.03 503 0.330 -8.873 5.220 -24.139 -4.608 5.463 -291.710 1520.609 -4113.620 -0.006 0.534 -0.082 -0.02 0.49 -0.87 0.01
1 5.04 504 -0.225 -8.945 5.081 -7.202 -16.357 5.768 -366.811 1430.518 -3993.698 0.549 0.589 0.030 -0.03 0.49 -0.87 0.01
1 5.05 505 -0.335 -8.988 5.445 2.808 -27.069 5.188 -366.811 1400.538 -3963.718 0.660 0.624 -0.348 -0.03 0.49 -0.87 0.01
1 5.06 506 -0.230 -9.070 5.866 9.094 -30.518 6.775 -366.811 1400.538 -3963.718 0.563 0.705 -0.770 -0.03 0.49 -0.87 0.01
1 5.07 507 -0.177 -8.940 6.460 8.423 -13.763 14.954 -276.720 1565.580 -4158.741 0.529 0.591 -1.341 -0.03 0.49 -0.87 0.02
1 5.08 508 -0.417 -8.639 6.584 3.235 7.416 19.806 -351.821 1685.502 -4083.640 0.755 0.294 -1.456 -0.03 0.49 -0.87 0.02
1 5.09 509 -0.833 -8.093 6.474 -4.761 24.353 20.355 -291.710 1625.541 -3993.698 1.137 -0.251 -1.343 -0.03 0.49 -0.87 0.02
1 5.10 510 -1.125 -7.959 6.273 -15.411 29.633 18.066 -291.710 1625.541 -3993.698 1.376 -0.387 -1.141 -0.03 0.49 -0.87 0.02
1 5.11 511 -1.235 -7.973 6.421 -25.818 22.461 15.350 -351.821 1460.648 -3978.708 1.432 -0.382 -1.303 -0.02 0.49 -0.87 0.02
1 5.12 512 -0.781 -8.591 6.670 -32.288 4.395 16.388 -321.840 1670.512 -3963.718 0.932 0.219 -1.578 -0.02 0.49 -0.87 0.02
1 5.13 513 -0.402 -9.137 6.608 -28.046 -5.981 17.914 -321.840 1670.512 -3963.718 0.520 0.745 -1.548 -0.02 0.49 -0.87 0.02
1 5.14 514 -0.158 -9.491 6.752 -17.578 -11.871 17.731 -186.778 1550.590 -4113.620 0.257 1.077 -1.729 -0.02 0.49 -0.87 0.02
1 5.15 515 0.359 -9.333 6.910 4.822 -18.829 12.390 -246.739 1700.642 -3963.718 -0.282 0.898 -1.921 -0.02 0.5 -0.87 0.03
1 5.16 516 0.508 -8.859 6.771 18.585 -20.111 5.707 -216.759 1745.613 -3963.718 -0.429 0.431 -1.771 -0.02 0.49 -0.87 0.03
1 5.17 517 0.575 -8.232 6.565 25.604 -19.409 -0.061 -216.759 1745.613 -3963.718 -0.485 -0.180 -1.537 -0.02 0.49 -0.87 0.03
1 5.18 518 0.469 -7.753 6.388 25.574 -19.501 -5.707 -246.739 1700.642 -3963.718 -0.360 -0.635 -1.321 -0.02 0.49 -0.87 0.03
1 5.19 519 0.259 -7.226 5.914 19.257 -22.247 -9.430 -396.792 1550.590 -3813.666 -0.122 -1.137 -0.806 -0.02 0.49 -0.87 0.03
1 5.20 520 0.359 -6.953 5.674 14.587 -26.398 -10.712 -396.792 1550.590 -3813.666 -0.191 -1.387 -0.531 -0.03 0.49 -0.87 0.03
1 5.21 521 0.354 -6.694 5.382 8.637 -31.891 -10.071 -321.840 1595.561 -3993.698 -0.151 -1.627 -0.211 -0.03 0.49 -0.87 0.03
1 5.22 522 0.397 -6.441 5.402 0.702 -38.483 -9.186 -396.792 1550.590 -3888.767 -0.113 -1.865 -0.208 -0.03 0.48 -0.87 0.03
1 5.23 523 0.661 -6.498 5.607 -6.836 -38.361 -7.385 -486.733 1535.600 -3948.728 -0.334 -1.807 -0.416 -0.04 0.48 -0.87 0.03
1 5.24 524 1.092 -6.536 5.698 -16.052 -34.668 -5.310 -486.733 1535.600 -3948.728 -0.725 -1.775 -0.519 -0.04 0.48 -0.87 0.03
1 5.25 525 1.250 -6.814 5.761 -26.306 -25.452 -2.808 -486.733 1610.551 -3948.728 -0.851 -1.511 -0.606 -0.04 0.49 -0.87 0.03
1 5.26 526 1.470 -7.130 5.751 -33.905 -15.228 0.702 -441.762 1700.642 -3813.666 -1.044 -1.211 -0.625 -0.04 0.49 -0.87 0.03
1 5.27 527 1.441 -7.829 5.301 -37.476 -6.866 3.571 -441.762 1700.642 -3813.666 -0.998 -0.534 -0.212 -0.05 0.49 -0.87 0.03
1 5.28 528 1.355 -8.275 5.157 -31.983 -6.226 3.296 -456.752 1535.600 -3828.656 -0.901 -0.114 -0.111 -0.05 0.49 -0.87 0.03
1 5.29 529 1.302 -8.519 5.109 -15.564 -11.292 0.580 -471.743 1550.590 -3888.767 -0.829 0.089 -0.133 -0.05 0.49 -0.87 0.03
1 5.30 530 1.202 -8.500 5.157 -4.608 -15.289 -2.472 -531.704 1640.531 -3903.757 -0.712 0.062 -0.196 -0.05 0.49 -0.87 0.03
1 5.31 531 1.259 -8.600 5.243 2.106 -16.724 -4.486 -531.704 1640.531 -3903.757 -0.748 0.162 -0.286 -0.05 0.49 -0.87 0.03
1 5.32 532 1.374 -8.356 5.200 3.998 -16.785 -5.981 -561.834 1490.629 -3873.626 -0.837 -0.078 -0.239 -0.05 0.49 -0.87 0.04
1 5.33 533 1.523 -8.528 5.200 3.235 -15.106 -6.561 -651.775 1670.512 -3858.636 -0.959 0.099 -0.233 -0.05 0.49 -0.87 0.04
1 5.34 534 1.666 -8.447 4.999 -0.885 -11.444 -5.951 -651.775 1670.512 -3858.636 -1.076 0.022 -0.028 -0.05 0.49 -0.87 0.04
1 5.35 535 1.767 -8.442 5.066 -4.303 -9.094 -6.012 -516.713 1550.590 -3888.767 -1.152 0.019 -0.095 -0.06 0.49 -0.87 0.04
1 5.36 536 1.992 -8.624 5.081 -7.141 -7.660 -5.981 -516.713 1670.512 -3783.685 -1.330 0.198 -0.121 -0.06 0.49 -0.87 0.03
1 5.37 537 1.915 -8.495 5.076 -7.599 -7.507 -6.195 -696.746 1550.590 -3888.767 -1.230 0.065 -0.126 -0.06 0.49 -0.87 0.03
1 5.38 538 2.035 -8.519 5.023 -4.272 -6.592 -7.996 -696.746 1550.590 -3888.767 -1.326 0.086 -0.082 -0.06 0.49 -0.87 0.03
1 5.39 539 2.078 -8.399 5.234 -1.129 -3.113 -10.284 -606.805 1640.531 -3903.757 -1.344 -0.034 -0.296 -0.06 0.49 -0.87 0.03
1 5.40 540 2.174 -8.308 5.315 -2.533 0.671 -14.221 -441.762 1625.541 -3888.767 -1.412 -0.122 -0.377 -0.06 0.49 -0.87 0.03
1 5.41 541 2.069 -8.428 5.047 -10.773 5.981 -19.104 -441.762 1625.541 -3888.767 -1.278 -0.001 -0.111 -0.06 0.49 -0.87 0.03
1 5.42 542 1.796 -8.682 5.052 -13.489 6.226 -20.844 -606.805 1640.531 -3828.656 -0.975 0.250 -0.125 -0.06 0.49 -0.87 0.03
1 5.43 543 1.801 -8.686 5.057 -12.939 5.890 -22.736 -606.805 1640.531 -3828.656 -0.948 0.249 -0.145 -0.07 0.5 -0.87 0.03
1 5.44 544 1.772 -8.710 5.081 -4.700 4.669 -23.193 -591.814 1745.613 -3858.636 -0.852 0.265 -0.195 -0.07 0.5 -0.87 0.02
1 5.45 545 1.690 -8.792 5.176 1.617 5.005 -24.109 -591.814 1745.613 -3858.636 -0.737 0.349 -0.293 -0.07 0.5 -0.87 0.02
1 5.46 546 1.810 -8.615 5.109 5.585 6.989 -22.705 -651.775 1625.541 -3858.636 -0.823 0.179 -0.221 -0.07 0.5 -0.87 0.02
1 5.47 547 1.700 -8.476 5.109 6.805 9.216 -20.752 -591.814 1625.541 -3858.636 -0.684 0.049 -0.211 -0.07 0.5 -0.87 0.02
1 5.48 548 1.499 -8.299 5.100 5.341 14.435 -17.548 -591.814 1625.541 -3858.636 -0.460 -0.118 -0.189 -0.07 0.49 -0.87 0.01
1 5.49 549 1.499 -8.222 4.956 4.883 17.822 -14.923 -636.785 1910.355 -3828.956 -0.441 -0.186 -0.034 -0.07 0.49 -0.87 0.01
1 5.50 550 1.465 -8.203 4.956 4.852 21.362 -12.787 -636.785 1910.355 -3828.956 -0.396 -0.197 -0.023 -0.07 0.49 -0.87 0.01
1 5.51 551 1.489 -8.074 4.851 4.456 25.940 -9.766 -531.704 1685.352 -3873.926 -0.413 -0.312 0.106 -0.07 0.49 -0.87 0.01
1 5.52 552 1.528 -7.939 4.832 4.486 28.076 -7.904 -531.704 1685.352 -3873.926 -0.455 -0.440 0.136 -0.07 0.49 -0.87 0.01
1 5.53 553 1.666 -8.030 4.635 4.181 30.579 -5.981 -636.785 1730.323 -3904.057 -0.602 -0.343 0.345 -0.06 0.49 -0.87 0
1 5.54 554 1.891 -8.045 4.568 3.296 32.959 -5.676 -591.665 1520.310 -3964.018 -0.838 -0.323 0.423 -0.06 0.49 -0.87 0
1 5.55 555 1.911 -8.251 4.410 2.625 35.034 -4.944 -591.665 1520.310 -3964.018 -0.868 -0.113 0.590 -0.06 0.49 -0.87 0
1 5.56 556 1.939 -8.265 4.214 4.028 38.880 -5.157 -516.713 1670.212 -3964.018 -0.911 -0.096 0.793 0.06 -0.49 0.87 0
1 5.57 557 1.959 -8.050 4.094 4.639 39.673 -5.280 -516.713 1670.212 -3964.018 -0.945 -0.309 0.921 0.06 -0.49 0.87 0
1 5.58 558 1.757 -7.887 4.085 3.143 38.635 -6.378 -396.792 1520.310 -3888.917 -0.760 -0.468 0.939 0.06 -0.49 0.87 0.01
1 5.59 559 1.475 -7.825 4.252 -1.343 34.943 -7.172 -486.733 1640.231 -3873.926 -0.504 -0.526 0.784 0.05 -0.49 0.87 0.01
1 5.60 560 1.116 -7.916 4.520 -6.165 32.776 -8.545 -486.733 1610.251 -3904.057 -0.156 -0.436 0.516 0.05 -0.49 0.87 0.01
1 5.61 561 0.824 -8.064 4.597 -12.085 31.128 -10.407 -396.792 1595.261 -3919.047 0.125 -0.292 0.434 0.05 -0.49 0.87 0.01
1 5.62 562 0.627 -8.308 4.693 -15.381 29.327 -10.407 -396.792 1595.261 -3919.047 0.312 -0.057 0.326 0.05 -0.49 0.87 0.02
1 5.63 563 0.024 -8.500 4.784 -12.451 25.086 -8.728 -486.733 1685.352 -3828.956 0.905 0.124 0.219 0.04 -0.49 0.87 0.02
1 5.64 564 -0.019 -8.600 4.971 -6.531 22.278 -5.768 -486.733 1685.352 -3828.956 0.937 0.215 0.018 0.04 -0.49 0.87 0.02
1 5.65 565 -0.053 -8.605 5.095 -1.068 18.433 -2.991 -321.690 1595.261 -3919.047 0.956 0.214 -0.114 0.04 -0.49 0.87 0.02
1 5.66 566 -0.249 -8.557 4.860 4.211 10.376 1.862 -321.690 1775.293 -3888.917 1.118 0.166 0.127 0.04 -0.49 0.87 0.02
1 5.67 567 -0.048 -8.505 4.674 6.775 7.751 3.906 -411.782 1730.323 -3904.057 0.898 0.116 0.321 0.04 -0.49 0.87 0.02
1 5.68 568 0.163 -8.481 4.468 8.911 9.644 5.981 -291.710 1775.293 -3783.985 0.670 0.096 0.536 0.04 -0.49 0.87 0.02
1 5.69 569 0.441 -8.519 4.544 9.216 17.639 7.935 -291.710 1775.293 -3783.985 0.371 0.139 0.471 0.04 -0.49 0.87 0.02
1 5.70 570 0.594 -8.390 4.319 3.662 29.816 9.766 -381.651 1760.303 -3873.926 0.189 0.013 0.707 0.03 -0.49 0.87 0.02
1 5.71 571 0.781 -8.361 4.611 -13.123 48.615 12.695 -381.651 1760.303 -3873.926 -0.037 -0.017 0.418 0.03 -0.49 0.87 0.02
1 5.72 572 0.761 -8.337 4.597 -24.078 56.091 14.923 -366.661 1670.212 -3858.936 -0.069 -0.051 0.423 0.03 -0.49 0.87 0.02
1 5.73 573 0.642 -8.754 4.621 -36.133 53.986 18.402 -321.690 1670.212 -3858.936 -0.071 0.321 0.340 0.02 -0.5 0.87 0.02
1 5.74 574 0.646 -8.916 4.889 -39.398 43.030 18.127 -246.739 1745.313 -3888.917 -0.137 0.453 0.026 0.02 -0.5 0.87 0.03
1 5.75 575 0.666 -9.319 5.267 -39.307 26.795 15.167 -156.648 1565.280 -3949.027 -0.206 0.824 -0.402 0.01 -0.5 0.86 0.03
1 5.76 576 0.546 -9.601 5.574 -35.126 10.284 8.301 -156.348 1563.481 -3950.526 -0.118 1.077 -0.757 0.01 -0.5 0.86 0.03
1 5.77 577 0.584 -9.893 5.483 -26.276 -2.716 -3.448 8.544 1743.514 -3920.546 -0.168 1.345 -0.709 0.01 -0.51 0.86 0.03
1 5.78 578 0.613 -9.510 4.817 1.831 -16.602 -16.785 8.544 1743.514 -3920.546 -0.184 0.946 -0.072 0.01 -0.51 0.86 0.03
1 5.79 579 0.594 -9.347 4.501 23.102 -22.644 -15.900 -111.228 1773.495 -3815.464 -0.132 0.782 0.239 0.01 -0.51 0.86 0.03
1 5.80 580 1.010 -8.715 4.726 24.597 -26.764 -12.634 -246.290 1773.495 -3860.435 -0.473 0.186 0.069 0.02 -0.51 0.86 0.03
1 5.81 581 0.905 -8.485 4.856 14.496 -26.825 -14.587 -201.319 1833.456 -3905.556 -0.326 -0.029 -0.038 0.02 -0.5 0.86 0.03
1 5.82 582 0.785 -8.380 5.143 -24.567 -19.165 -18.768 -126.218 1728.524 -3875.575 -0.163 -0.135 -0.332 0.02 -0.5 0.86 0.03
1 5.83 583 0.407 -8.552 5.291 -43.213 -6.897 -20.355 -126.218 1728.524 -3875.575 0.255 0.019 -0.518 0.02 -0.51 0.86 0.03
1 5.84 584 -0.177 -8.744 5.406 -53.009 5.768 -20.874 -216.309 1668.563 -3890.565 0.868 0.182 -0.689 0.02 -0.51 0.86 0.03
1 5.85 585 -0.637 -9.252 5.507 -52.796 11.047 -17.731 -216.309 1668.563 -3890.565 1.345 0.656 -0.854 0.02 -0.51 0.86 0.03
1 5.86 586 -0.900 -9.496 5.421 -44.312 6.866 -15.289 -276.270 1683.553 -3830.455 1.615 0.866 -0.833 0.02 -0.52 0.86 0.03
1 5.87 587 -0.881 -9.611 5.473 -28.687 -0.549 -14.282 -321.241 1818.465 -3860.435 1.607 0.951 -0.944 0.02 -0.52 0.85 0.03
1 5.88 588 -0.575 -9.041 5.655 -1.587 -7.660 -13.672 -216.309 1848.596 -3815.464 1.342 0.352 -1.189 0.02 -0.52 0.85 0.04
1 5.89 589 -0.273 -8.825 5.828 11.627 -9.186 -13.031 -306.250 1758.504 -3770.494 1.059 0.141 -1.355 0.03 -0.52 0.85 0.04
1 5.90 590 0.330 -8.581 6.115 15.778 -8.789 -10.925 -306.250 1758.504 -3770.494 0.471 -0.089 -1.617 0.03 -0.52 0.85 0.04
1 5.91 591 0.699 -8.624 6.283 13.702 -5.035 -8.240 -215.560 1965.370 -3608.749 0.118 -0.028 -1.754 0.03 -0.52 0.85 0.04
1 5.92 592 1.116 -8.428 6.441 7.080 2.045 -1.740 -215.560 1965.370 -3608.749 -0.287 -0.209 -1.885 0.03 -0.52 0.86 0.04
1 5.93 593 1.164 -8.366 6.283 8.942 5.829 0.519 -305.651 1830.308 -3773.792 -0.330 -0.259 -1.704 0.03 -0.52 0.86 0.04
1 5.94 594 0.929 -7.992 5.871 16.510 5.463 -0.519 -320.641 1890.269 -3818.762 -0.096 -0.620 -1.268 0.03 -0.51 0.86 0.04
1 5.95 595 0.646 -7.317 5.392 30.029 -3.418 -6.928 -365.612 1845.298 -3638.729 0.189 -1.255 -0.717 0.03 -0.51 0.86 0.04
1 5.96 596 0.192 -6.809 5.200 31.647 -14.130 -11.658 -350.622 1875.278 -3578.769 0.659 -1.734 -0.476 0.03 -0.51 0.86 0.04
1 5.97 597 0.029 -6.489 5.047 25.421 -23.285 -16.724 -350.622 1875.278 -3578.769 0.852 -2.030 -0.283 0.03 -0.51 0.86 0.04
1 5.98 598 -0.019 -6.417 5.076 8.545 -30.640 -19.531 -215.560 1845.298 -3818.762 0.942 -2.083 -0.286 0.03 -0.5 0.86 0.04
1 5.99 599 -0.110 -6.738 5.445 -14.313 -32.959 -19.775 -215.560 1845.298 -3818.762 1.083 -1.756 -0.654 0.04 -0.5 0.86 0.04
1 6.00 600 -0.153 -7.853 5.780 -45.197 -30.914 -18.829 -320.641 1815.317 -3818.762 1.177 -0.652 -1.020 0.04 -0.51 0.86 0.04
1 6.01 601 -0.273 -8.916 6.086 -49.256 -25.940 -17.853 -320.641 1770.347 -3608.749 1.336 0.389 -1.375 0.04 -0.51 0.86 0.04
1 6.02 602 -0.158 -9.793 6.196 -36.347 -18.982 -13.306 -320.641 1770.347 -3608.749 1.256 1.238 -1.544 0.04 -0.51 0.86 0.04
1 6.03 603 -0.148 -10.300 6.077 4.883 -5.371 0.305 -365.612 1815.317 -3638.729 1.301 1.709 -1.505 0.05 -0.51 0.86 0.04
1 6.04 604 -0.067 -10.094 5.876 34.638 4.700 11.902 -365.612 1815.317 -3638.729 1.219 1.512 -1.286 0.05 -0.51 0.86 0.04
1 6.05 605 0.105 -9.184 5.703 51.788 14.038 21.576 -515.664 1890.269 -3638.729 1.024 0.629 -1.059 0.04 -0.51 0.86 0.04
1 6.06 606 0.302 -8.514 5.440 51.788 20.386 26.093 -515.664 1890.269 -3638.729 0.787 -0.006 -0.722 0.04 -0.51 0.86 0.04
1 6.07 607 0.464 -8.203 5.373 16.083 26.367 23.743 -455.553 1605.304 -3773.792 0.569 -0.285 -0.584 0.04 -0.5 0.86 0.04
1 6.08 608 0.685 -8.222 5.191 -16.815 27.435 19.501 -380.602 1830.308 -3653.720 0.294 -0.249 -0.362 0.04 -0.5 0.86 0.03
1 6.09 609 1.049 -8.811 5.090 -41.382 26.795 15.533 -380.602 1830.308 -3653.720 -0.120 0.333 -0.264 0.03 -0.5 0.86 0.03
1 6.10 610 1.571 -9.419 4.808 -47.943 25.940 12.604 -395.592 1695.246 -3818.762 -0.718 0.878 -0.080 0.03 -0.51 0.86 0.03
1 6.11 611 1.571 -9.515 4.865 -32.959 23.102 12.146 -395.592 1695.246 -3818.762 -0.748 0.939 -0.194 0.03 -0.51 0.86 0.03
1 6.12 612 1.585 -9.438 5.085 -12.634 20.813 12.787 -290.661 1695.246 -3788.782 -0.794 0.842 -0.447 0.03 -0.51 0.86 0.03
1 6.13 613 1.504 -9.089 5.330 7.172 18.341 12.878 -290.661 1695.246 -3788.782 -0.744 0.486 -0.697 0.02 -0.51 0.86 0.03
1 6.14 614 1.346 -8.730 5.397 18.829 15.350 12.421 -275.670 1875.278 -3773.792 -0.612 0.134 -0.746 0.02 -0.51 0.86 0.03
1 6.15 615 0.939 -8.437 5.368 24.811 11.444 10.101 -365.612 1845.298 -3638.729 -0.226 -0.141 -0.685 0.02 -0.51 0.86 0.03
1 6.16 616 0.771 -8.461 5.162 25.024 8.484 6.897 -365.612 1845.298 -3638.729 -0.076 -0.098 -0.440 0.02 -0.51 0.86 0.03
1 6.17 617 0.388 -8.495 4.813 23.712 0.610 2.472 -245.540 1695.246 -3638.729 0.283 -0.025 -0.017 0.02 -0.5 0.86 0.03
1 6.18 618 0.067 -8.595 4.702 21.668 -5.829 -0.336 -245.540 1695.246 -3638.729 0.601 0.094 0.126 0.02 -0.5 0.86 0.03
1 6.19 619 -0.029 -8.619 4.578 21.149 -12.146 -1.801 -305.651 1800.327 -3698.690 0.701 0.134 0.278 0.02 -0.5 0.86 0.03
1 6.20 620 -0.024 -8.567 4.693 21.484 -17.273 -3.784 -305.651 1800.327 -3698.690 0.704 0.096 0.189 0.02 -0.5 0.86 0.03
1 6.21 621 -0.014 -8.572 4.808 22.858 -20.935 -3.326 -290.661 1770.347 -3743.661 0.709 0.118 0.101 0.02 -0.5 0.87 0.03
1 6.22 622 -0.019 -8.658 4.932 24.231 -21.027 -2.045 -290.661 1695.246 -3788.782 0.729 0.222 0.004 0.02 -0.5 0.87 0.03
1 6.23 623 -0.115 -8.610 4.923 23.560 -18.280 0.122 -290.661 1695.246 -3788.782 0.840 0.192 0.043 0.03 -0.5 0.87 0.03
1 6.24 624 -0.445 -8.749 4.951 23.102 -12.512 3.387 -410.583 1680.255 -3803.772 1.183 0.367 0.072 0.03 -0.49 0.87 0.03
1 6.25 625 -0.484 -8.768 4.841 22.919 -11.505 4.395 -410.583 1680.255 -3803.772 1.218 0.402 0.210 0.03 -0.49 0.87 0.03
1 6.26 626 -0.824 -8.639 4.745 19.959 -8.820 6.409 -380.602 1635.285 -3728.671 1.550 0.288 0.332 0.03 -0.49 0.87 0.03
1 6.27 627 -0.666 -8.710 4.880 16.846 -7.965 7.874 -380.602 1635.285 -3728.671 1.379 0.372 0.220 0.03 -0.49 0.87 0.02
1 6.28 628 -0.680 -8.758 5.004 15.747 -6.317 9.918 -365.612 1695.246 -3713.681 1.379 0.431 0.115 0.03 -0.49 0.87 0.02
1 6.29 629 -0.512 -8.940 4.583 19.775 -5.310 10.925 -485.534 1560.333 -3773.792 1.195 0.623 0.555 0.03 -0.49 0.87 0.02
1 6.30 630 -0.589 -8.672 4.463 25.940 -7.324 11.353 -485.084 1556.436 -3777.089 1.254 0.366 0.695 0.03 -0.49 0.87 0.02
1 6.31 631 -0.522 -8.634 4.056 31.464 -12.116 12.207 -305.051 1676.358 -3837.200 1.170 0.342 1.128 0.03 -0.48 0.87 0.02
1 6.32 632 -0.388 -8.241 3.893 33.142 -21.332 11.566 -244.940 1586.417 -3672.158 1.011 -0.010 1.358 0.03 -0.48 0.88 0.02
1 6.33 633 -0.455 -8.165 3.816 30.823 -27.924 10.193 -290.061 1661.368 -3822.210 1.075 -0.066 1.467 0.03 -0.48 0.88 0.01
1 6.34 634 -0.311 -8.150 3.635 27.863 -31.677 9.064 -290.061 1661.368 -3822.210 0.936 -0.061 1.678 0.03 -0.48 0.88 0.01
1 6.35 635 -0.565 -7.930 3.510 25.726 -35.675 9.094 -380.002 1601.407 -3837.200 1.200 -0.265 1.826 0.03 -0.48 0.88 0.01
1 6.36 636 -0.378 -7.939 3.515 22.797 -40.405 8.423 -350.022 1721.329 -3912.151 1.032 -0.235 1.850 0.03 -0.47 0.88 0.01
1 6.37 637 -0.474 -7.978 3.467 19.867 -44.068 7.324 -350.022 1721.329 -3912.151 1.151 -0.178 1.924 0.04 -0.47 0.88 0.01
1 6.38 638 -0.417 -7.987 3.620 14.069 -45.807 6.256 -350.022 1481.335 -3957.122 1.121 -0.151 1.793 0.04 -0.47 0.88 0
1 6.39 639 -0.421 -8.279 3.840 3.479 -46.143 5.157 -394.993 1466.345 -3747.109 1.184 0.158 1.591 -0.04 0.47 -0.88 0
1 6.40 640 -0.297 -8.217 3.678 -0.244 -47.333 4.517 -515.064 1616.397 -3792.080 1.085 0.091 1.743 -0.05 0.47 -0.88 0
1 6.41 641 -0.215 -8.308 3.395 0.671 -50.751 4.028 -515.064 1616.397 -3792.080 1.031 0.175 2.012 -0.05 0.47 -0.88 0.01
1 6.42 642 -0.263 -8.351 3.266 2.655 -54.840 3.143 -545.045 1586.417 -3867.181 1.109 0.212 2.126 -0.05 0.47 -0.88 0.01
1 6.43 643 -0.273 -8.308 3.160 5.280 -57.617 3.662 -530.055 1526.456 -3777.089 1.153 0.163 2.218 -0.06 0.47 -0.88 0.01
1 6.44 644 -0.125 -8.126 4.846 1.526 -57.099 2.930 -530.055 1526.456 -3777.089 1.041 -0.022 0.521 -0.06 0.47 -0.88 0.01
1 6.45 645 0.522 -7.839 8.586 -20.508 -45.868 3.235 -694.947 1466.345 -3897.161 0.431 -0.314 -3.232 -0.06 0.47 -0.88 0.02
1 6.46 646 2.227 -8.825 10.607 -47.730 -6.256 7.782 -545.045 1346.423 -3672.158 -1.244 0.663 -5.273 -0.07 0.47 -0.88 0.02
1 6.47 647 3.941 -12.541 8.533 -93.262 72.571 30.548 -634.986 1406.384 -3777.089 -2.999 4.288 -3.334 -0.06 0.48 -0.87 0.02
1 6.48 648 3.654 -13.346 5.081 -95.368 100.647 61.646 -634.986 1406.384 -3777.089 -2.824 5.010 0.005 -0.06 0.49 -0.87 0.02
1 6.49 649 2.988 -11.746 2.246 -21.790 79.804 84.168 -725.078 1391.394 -3747.109 -2.323 3.341 2.749 -0.05 0.49 -0.87 0.02
1 6.50 650 2.184 -9.132 2.140 54.382 26.337 71.503 -485.084 1556.436 -3807.070 -1.676 0.720 2.861 -0.04 0.49 -0.87 0.02
1 6.51 651 1.638 -7.015 3.606 63.812 -35.187 35.401 -485.084 1556.436 -3807.070 -1.216 -1.357 1.470 -0.04 0.49 -0.87 0.02
1 6.52 652 1.925 -6.603 4.693 19.379 -49.072 25.238 -515.064 1616.397 -3672.158 -1.527 -1.721 0.464 -0.04 0.49 -0.87 0.03
1 6.53 653 2.375 -7.125 5.809 -28.046 -42.725 18.860 -590.016 1586.417 -3672.158 -1.974 -1.175 -0.614 -0.04 0.48 -0.87 0.03
1 6.54 654 2.366 -8.754 6.637 -58.289 -9.094 13.763 -454.954 1601.407 -3777.089 -1.928 0.407 -1.520 -0.05 0.49 -0.87 0.04
1 6.55 655 1.465 -9.553 6.163 -45.136 11.871 13.031 -454.954 1601.407 -3777.089 -1.042 1.162 -1.119 -0.05 0.49 -0.87 0.04
1 6.56 656 0.599 -9.745 5.536 -15.533 16.113 15.564 -545.045 1616.397 -3672.158 -0.202 1.323 -0.539 -0.04 0.49 -0.87 0.04
1 6.57 657 0.024 -9.414 5.153 15.381 6.134 18.677 -515.064 1616.397 -3822.210 0.341 0.987 -0.164 -0.04 0.49 -0.87 0.04
1 6.58 658 0.029 -9.050 5.445 35.492 -7.690 21.301 -515.064 1616.397 -3822.210 0.309 0.638 -0.428 -0.04 0.49 -0.87 0.04
1 6.59 659 0.397 -8.442 6.230 36.926 -14.282 25.055 -469.944 1586.417 -3672.158 -0.081 0.058 -1.165 -0.04 0.49 -0.87 0.04
1 6.60 660 0.522 -8.141 6.350 27.252 -5.280 25.299 -560.035 1481.335 -3807.070 -0.225 -0.212 -1.233 -0.04 0.49 -0.87 0.04
1 6.61 661 -0.163 -7.892 6.048 13.550 13.428 18.982 -560.035 1631.387 -3582.216 0.405 -0.415 -0.853 -0.04 0.48 -0.87 0.05
1 6.62 662 -0.417 -7.892 5.823 8.057 17.700 12.390 -560.035 1631.387 -3582.216 0.623 -0.401 -0.605 -0.04 0.48 -0.87 0.05
1 6.63 663 -0.541 -7.796 5.928 5.890 13.062 7.233 -515.064 1616.397 -3747.109 0.717 -0.487 -0.694 -0.04 0.48 -0.87 0.05
1 6.64 664 -0.555 -8.050 5.909 4.547 3.052 4.334 -590.016 1541.446 -3897.161 0.710 -0.226 -0.662 -0.04 0.48 -0.87 0.05
1 6.65 665 -0.235 -8.088 6.038 5.646 -9.399 3.510 -590.016 1541.446 -3897.161 0.380 -0.180 -0.779 -0.04 0.48 -0.88 0.05
1 6.66 666 0.268 -8.145 6.493 11.505 -24.658 0.671 -560.035 1631.387 -3732.119 -0.119 -0.114 -1.221 -0.04 0.48 -0.88 0.05
1 6.67 667 0.589 -8.217 6.824 15.442 -28.381 -2.167 -515.064 1541.446 -3747.109 -0.425 -0.030 -1.533 -0.04 0.48 -0.88 0.05
1 6.68 668 1.073 -7.848 7.307 13.458 -20.233 -7.813 -515.064 1616.397 -3717.128 -0.851 -0.366 -1.967 -0.04 0.48 -0.88 0.05
1 6.69 669 1.168 -7.825 7.307 10.803 -15.320 -8.881 -515.064 1616.397 -3717.128 -0.915 -0.371 -1.941 -0.04 0.47 -0.88 0.05
1 6.70 670 0.963 -7.882 6.929 1.831 -3.845 -12.329 -454.954 1526.456 -3807.070 -0.682 -0.300 -1.543 -0.05 0.47 -0.88 0.05
1 6.71 671 0.584 -7.815 6.565 -1.312 -2.289 -14.832 -590.016 1466.345 -3747.109 -0.279 -0.359 -1.167 -0.05 0.47 -0.88 0.05
1 6.72 672 0.536 -8.078 6.149 0.366 -5.859 -16.754 -590.016 1466.345 -3747.109 -0.206 -0.090 -0.744 -0.05 0.47 -0.88 0.05
1 6.73 673 0.278 -7.997 5.813 8.484 -17.212 -19.531 -560.035 1526.456 -3657.167 0.082 -0.165 -0.402 -0.05 0.47 -0.88 0.05
1 6.74 674 0.450 -7.714 5.928 10.559 -25.421 -19.074 -605.006 1556.436 -3807.070 -0.053 -0.438 -0.504 -0.05 0.47 -0.88 0.05
1 6.75 675 0.651 -7.566 5.890 8.728 -30.853 -16.693 -605.006 1556.436 -3807.070 -0.211 -0.574 -0.450 -0.05 0.47 -0.88 0.05
1 6.76 676 1.250 -7.231 6.263 -0.885 -30.029 -10.498 -785.039 1556.436 -3882.171 -0.716 -0.887 -0.800 -0.06 0.47 -0.88 0.05
1 6.77 677 1.475 -7.140 6.330 -7.874 -23.590 -5.402 -515.064 1421.374 -3717.128 -0.900 -0.974 -0.865 -0.06 0.47 -0.88 0.05
1 6.78 678 1.647 -7.159 6.292 -12.451 -14.587 -2.106 -694.947 1346.423 -3867.181 -1.042 -0.956 -0.832 -0.06 0.47 -0.88 0.05
1 6.79 679 1.796 -7.259 6.163 -13.763 -4.364 0.916 -694.947 1346.423 -3867.181 -1.172 -0.860 -0.711 -0.06 0.47 -0.88 0.05
1 6.80 680 1.609 -7.394 5.904 -10.986 4.242 1.068 -725.078 1586.417 -3537.096 -0.975 -0.732 -0.462 -0.06 0.47 -0.88 0.05
1 6.81 681 1.441 -7.441 5.612 -7.111 4.242 -1.770 -770.048 1541.446 -3747.109 -0.803 -0.688 -0.177 -0.06 0.47 -0.88 0.05
1 6.82 682 1.274 -7.595 5.483 -2.533 -0.488 -4.822 -770.048 1541.446 -3747.109 -0.630 -0.537 -0.052 -0.06 0.47 -0.88 0.05
1 6.83 683 1.283 -7.662 5.291 2.594 -9.369 -10.529 -605.006 1451.354 -3732.119 -0.610 -0.467 0.141 -0.07 0.47 -0.88 0.05
1 6.84 684 1.231 -7.676 5.358 5.402 -14.404 -12.573 -590.016 1391.394 -3672.158 -0.529 -0.447 0.079 -0.07 0.47 -0.88 0.05
1 6.85 685 1.149 -7.494 5.387 7.141 -15.564 -13.825 -770.048 1391.394 -3822.210 -0.414 -0.621 0.058 -0.07 0.47 -0.88 0.05
1 6.86 686 1.173 -7.465 5.440 6.409 -13.977 -14.404 -770.048 1391.394 -3822.210 -0.404 -0.640 0.015 -0.07 0.47 -0.88 0.05
1 6.87 687 1.207 -7.437 5.464 1.617 -10.620 -13.336 -710.087 1406.384 -3657.167 -0.405 -0.660 -0.001 -0.07 0.46 -0.88 0.05
1 6.88 688 1.307 -7.614 5.378 -9.338 -8.148 -11.810 -770.048 1466.345 -3822.210 -0.477 -0.479 0.087 -0.07 0.46 -0.88 0.05
1 6.89 689 1.216 -7.954 5.564 -16.388 -7.446 -10.620 -770.048 1466.345 -3822.210 -0.360 -0.141 -0.108 -0.07 0.46 -0.88 0.05
1 6.90 690 1.279 -8.179 5.382 -20.172 -6.134 -9.979 -605.006 1406.384 -3702.138 -0.399 0.075 0.057 -0.08 0.47 -0.88 0.05
1 6.91 691 1.432 -8.117 5.402 -17.487 -4.272 -9.277 -785.039 1526.456 -3627.187 -0.510 -0.015 -0.010 -0.08 0.47 -0.88 0.04
1 6.92 692 1.470 -8.160 5.397 -11.444 -3.754 -9.979 -770.048 1421.374 -3867.181 -0.529 0.017 -0.025 -0.08 0.47 -0.88 0.04
1 6.93 693 1.393 -8.270 5.416 -6.256 -3.326 -11.047 -770.048 1421.374 -3867.181 -0.433 0.122 -0.056 -0.08 0.47 -0.88 0.04
1 6.94 694 1.398 -8.208 5.473 0.549 -4.883 -11.627 -785.039 1601.407 -3702.138 -0.417 0.058 -0.119 -0.08 0.47 -0.88 0.04
1 6.95 695 1.547 -7.868 5.306 6.866 -4.822 -14.374 -770.048 1541.446 -3822.210 -0.543 -0.277 0.051 -0.08 0.47 -0.88 0.04
1 6.96 696 1.657 -7.872 5.196 6.165 -2.808 -16.632 -770.048 1541.446 -3822.210 -0.628 -0.264 0.170 -0.08 0.47 -0.88 0.04
1 6.97 697 1.642 -7.700 5.042 3.723 -0.153 -17.761 -845.000 1511.465 -3672.158 -0.586 -0.427 0.332 -0.08 0.47 -0.88 0.04
1 6.98 698 1.566 -7.753 4.798 0.732 0.305 -19.196 -800.029 1466.345 -3747.109 -0.454 -0.360 0.585 -0.08 0.47 -0.88 0.04
1 6.99 699 1.571 -7.757 4.722 0.885 0.244 -19.806 -725.078 1466.345 -3747.109 -0.430 -0.351 0.662 -0.09 0.47 -0.88 0.04
1 7.00 700 1.575 -7.916 4.712 -0.610 0.122 -19.287 -725.078 1466.345 -3747.109 -0.406 -0.190 0.671 -0.09 0.47 -0.88 0.03
1 7.01 701 1.628 -7.997 4.769 -2.655 0.397 -16.266 -845.000 1541.446 -3717.128 -0.431 -0.106 0.611 -0.09 0.47 -0.88 0.03
1 7.02 702 1.652 -8.064 4.765 -4.974 2.014 -13.580 -845.000 1511.465 -3612.197 -0.432 -0.040 0.610 -0.09 0.47 -0.88 0.03
1 7.03 703 1.757 -8.275 4.769 -5.829 7.416 -8.850 -845.000 1511.465 -3612.197 -0.520 0.168 0.597 -0.09 0.47 -0.88 0.03
1 7.04 704 1.609 -8.131 4.836 -6.256 11.566 -6.683 -859.990 1331.433 -3702.138 -0.360 0.021 0.521 -0.09 0.47 -0.88 0.03
1 7.05 705 1.638 -8.366 4.789 -5.219 15.198 -4.578 -859.990 1481.335 -3807.070 -0.385 0.246 0.554 -0.09 0.47 -0.88 0.03
1 7.06 706 1.571 -8.375 4.640 -3.601 16.113 -3.693 -770.048 1346.423 -3747.109 -0.322 0.252 0.697 -0.09 0.47 -0.88 0.03
1 7.07 707 1.561 -8.370 4.860 -2.380 16.632 -2.747 -770.048 1346.423 -3747.109 -0.318 0.243 0.473 -0.09 0.47 -0.88 0.03
1 7.08 708 1.657 -8.356 4.851 -2.197 18.250 -1.648 -800.029 1661.368 -3642.177 -0.422 0.226 0.480 -0.09 0.47 -0.88 0.03
1 7.09 709 1.882 -8.437 4.875 -1.282 20.416 -0.458 -859.990 1556.436 -3777.089 -0.656 0.305 0.455 -0.08 0.47 -0.88 0.03
1 7.10 710 1.781 -8.447 4.822 -0.793 25.147 1.007 -859.990 1556.436 -3777.089 -0.567 0.313 0.507 -0.08 0.47 -0.88 0.02
1 7.11 711 1.915 -8.323 4.736 0.305 28.412 1.526 -634.986 1526.456 -3777.089 -0.717 0.186 0.593 -0.08 0.47 -0.88 0.02
1 7.12 712 1.719 -8.054 4.525 3.082 33.112 1.801 -859.990 1556.436 -3837.200 -0.561 -0.084 0.810 -0.08 0.47 -0.88 0.02
1 7.13 713 1.571 -7.987 4.779 3.418 35.095 2.106 -725.078 1511.465 -3717.128 -0.438 -0.150 0.564 -0.08 0.47 -0.88 0.02
1 7.14 714 1.451 -7.791 4.654 1.160 37.323 1.801 -725.078 1511.465 -3717.128 -0.345 -0.344 0.696 -0.07 0.47 -0.88 0.02
1 7.15 715 1.393 -7.710 4.645 -1.923 36.560 1.007 -800.029 1511.465 -3717.128 -0.315 -0.426 0.711 -0.07 0.47 -0.88 0.02
1 7.16 716 1.307 -7.844 4.736 -7.050 34.699 -0.183 -710.087 1556.436 -3702.138 -0.256 -0.295 0.620 -0.07 0.47 -0.88 0.02
1 7.17 717 1.293 -8.141 4.793 -14.282 30.792 -1.434 -710.087 1556.436 -3702.138 -0.266 -0.006 0.556 -0.07 0.47 -0.88 0.02
1 7.18 718 1.298 -8.318 4.789 -16.876 28.504 -2.289 -634.986 1676.358 -3807.070 -0.292 0.159 0.546 -0.07 0.47 -0.88 0.01
1 7.19 719 1.159 -8.447 4.942 -14.130 27.985 -2.502 -634.986 1676.358 -3807.070 -0.171 0.274 0.375 -0.06 0.47 -0.88 0.01
1 7.20 720 0.934 -8.557 5.148 -6.531 26.459 -1.923 -770.048 1421.374 -3747.109 0.020 0.363 0.142 -0.06 0.48 -0.88 0.01
1 7.21 721 0.579 -8.643 5.090 -2.930 19.745 -1.373 -770.048 1421.374 -3747.109 0.356 0.444 0.195 -0.06 0.48 -0.88 0.01
1 7.22 722 0.579 -8.562 4.889 0.977 10.773 -0.366 -649.977 1511.465 -3747.109 0.342 0.360 0.395 -0.06 0.48 -0.88 0.01
1 7.23 723 0.761 -8.634 4.971 6.836 6.531 0.000 -634.986 1601.407 -3807.070 0.152 0.432 0.316 -0.06 0.48 -0.88 0.01
1 7.24 724 1.025 -8.251 4.947 11.200 16.937 1.099 -634.986 1601.407 -3807.070 -0.119 0.054 0.348 -0.06 0.48 -0.88 0.01
1 7.25 725 1.097 -8.006 4.942 4.425 32.135 1.892 -515.064 1616.397 -3642.177 -0.202 -0.182 0.367 -0.06 0.48 -0.88 0.01
1 7.26 726 0.991 -8.078 5.014 -9.644 44.586 4.211 -515.064 1616.397 -3642.177 -0.120 -0.106 0.306 -0.05 0.48 -0.88 0.01
1 7.27 727 0.527 -8.423 4.731 -31.677 53.894 8.698 -515.064 1586.417 -3822.210 0.261 0.215 0.564 -0.05 0.48 -0.88 0
1 7.28 728 0.661 -8.806 4.477 -36.621 52.521 11.108 -515.064 1586.417 -3822.210 0.072 0.568 0.780 -0.04 0.48 -0.88 0
1 7.29 729 0.704 -8.945 4.128 -32.623 48.004 12.299 -515.064 1541.446 -3567.076 -0.028 0.674 1.085 -0.04 0.48 -0.88 0
1 7.30 730 0.943 -9.232 4.070 -21.607 43.274 12.177 -469.944 1541.446 -3672.158 -0.319 0.933 1.103 -0.04 0.48 -0.87 0
1 7.31 731 1.317 -9.271 4.003 -7.965 39.612 11.108 -469.944 1541.446 -3672.158 -0.738 0.951 1.143 0.03 -0.49 0.87 0
1 7.32 732 1.628 -8.806 4.065 2.838 39.185 10.345 -485.084 1601.407 -3627.187 -1.089 0.476 1.069 0.03 -0.49 0.87 0
1 7.33 733 1.633 -8.409 4.334 1.556 39.032 9.491 -485.084 1601.407 -3627.187 -1.130 0.076 0.799 0.03 -0.49 0.87 0
1 7.34 734 1.341 -7.877 4.923 -7.996 32.501 7.599 -380.002 1556.436 -3627.187 -0.871 -0.458 0.211 0.03 -0.49 0.87 0
1 7.35 735 0.661 -7.829 5.914 -27.649 9.033 2.350 -184.979 1511.465 -3747.109 -0.237 -0.524 -0.806 0.02 -0.49 0.87 0
1 7.36 736 0.685 -8.433 6.479 -41.321 -11.841 -6.836 -244.940 1691.348 -3747.109 -0.261 0.059 -1.405 0.02 -0.49 0.87 0
1 7.37 737 0.795 -9.323 6.699 -49.957 -28.870 -20.111 -290.061 1616.397 -3642.177 -0.344 0.922 -1.675 0.02 -0.49 0.87 0
1 7.38 738 1.034 -10.592 6.101 -42.450 -33.356 -29.602 -290.061 1616.397 -3642.177 -0.529 2.155 -1.141 0.03 -0.5 0.87 0
1 7.39 739 0.857 -10.975 5.550 -5.585 -21.301 -26.367 -244.940 1616.397 -3672.158 -0.288 2.513 -0.640 0.03 -0.5 0.87 0.01
1 7.40 740 0.445 -10.348 5.502 11.658 -6.073 -22.400 -244.940 1616.397 -3672.158 0.179 1.880 -0.609 0.03 -0.5 0.87 0.01
1 7.41 741 -0.369 -9.568 5.521 8.972 7.690 -22.430 -380.002 1796.430 -3657.167 1.032 1.108 -0.618 0.03 -0.5 0.87 0.01
1 7.42 742 -1.470 -9.089 5.526 -27.771 15.411 -25.452 -214.960 1691.348 -3492.125 2.176 0.639 -0.612 0.03 -0.5 0.87 0.01
1 7.43 743 -1.384 -9.381 5.162 -52.399 11.292 -23.499 -350.022 1721.329 -3807.070 2.096 0.908 -0.289 0.03 -0.5 0.87 0.01
1 7.44 744 -1.034 -9.898 5.172 -59.174 5.402 -18.219 -350.022 1631.387 -3627.187 1.761 1.387 -0.368 0.03 -0.5 0.86 0.02
1 7.45 745 -0.484 -10.473 5.521 -46.662 2.350 -11.475 -350.022 1631.387 -3627.187 1.229 1.922 -0.791 0.03 -0.51 0.86 0.02
1 7.46 746 0.211 -10.195 6.091 -7.843 8.118 -3.418 -320.042 1691.348 -3537.096 0.547 1.617 -1.413 0.03 -0.51 0.86 0.02
1 7.47 747 0.474 -9.821 6.455 18.616 20.172 0.519 -320.042 1691.348 -3537.096 0.286 1.234 -1.794 0.03 -0.51 0.86 0.02
1 7.48 748 0.651 -9.151 6.450 35.492 31.799 4.120 -275.071 1721.329 -3777.089 0.099 0.573 -1.770 0.03 -0.51 0.86 0.02
1 7.49 749 0.388 -8.351 6.206 39.032 42.908 6.439 -439.963 1811.420 -3567.076 0.303 -0.173 -1.421 0.03 -0.51 0.86 0.02
1 7.50 750 0.330 -7.949 6.029 30.212 41.504 4.517 -394.993 1886.371 -3492.125 0.320 -0.543 -1.181 0.03 -0.5 0.86 0.02
1 7.51 751 0.417 -8.050 5.837 15.015 33.722 1.984 -350.022 1826.410 -3522.105 0.197 -0.417 -0.941 0.02 -0.5 0.87 0.02
1 7.52 752 0.402 -7.887 5.665 4.364 22.217 -1.587 -350.022 1826.410 -3522.105 0.186 -0.567 -0.742 0.02 -0.5 0.87 0.02
1 7.53 753 0.560 -8.069 5.655 5.280 7.568 -4.395 -320.042 1661.368 -3642.177 0.017 -0.377 -0.719 0.02 -0.5 0.87 0.02
1 7.54 754 0.704 -7.619 5.770 26.184 -15.808 -8.698 -320.042 1661.368 -3642.177 -0.122 -0.817 -0.817 0.02 -0.5 0.87 0.02
1 7.55 755 0.680 -6.943 5.775 44.678 -28.442 -12.390 -439.963 1691.348 -3672.158 -0.077 -1.471 -0.788 0.02 -0.5 0.87 0.02
1 7.56 756 0.125 -5.698 5.871 59.815 -34.638 -18.555 -394.993 1616.397 -3492.125 0.562 -2.631 -0.754 0.03 -0.49 0.87 0.02
1 7.57 757 -0.192 -5.387 5.900 57.770 -34.821 -20.447 -184.979 1661.368 -3612.197 0.932 -2.893 -0.710 0.03 -0.48 0.87 0.02
1 7.58 758 -0.915 -5.071 5.593 27.802 -34.515 -20.752 -275.071 1676.358 -3627.187 1.711 -3.169 -0.348 0.03 -0.48 0.88 0.02
1 7.59 759 -1.073 -5.004 5.655 -1.465 -36.316 -20.599 -275.071 1676.358 -3627.187 1.923 -3.216 -0.387 0.04 -0.48 0.88 0.02
1 7.60 760 -1.068 -5.794 5.947 -22.492 -36.560 -22.522 -275.071 1601.407 -3627.187 1.977 -2.427 -0.692 0.04 -0.48 0.88 0.02
1 7.61 761 -1.077 -7.111 6.230 -42.542 -29.175 -12.573 -275.071 1601.407 -3627.187 2.043 -1.129 -1.014 0.04 -0.48 0.87 0.02
1 7.62 762 -0.919 -8.160 6.742 -34.760 -21.820 -6.653 -320.042 1511.465 -3717.128 1.920 -0.108 -1.576 0.04 -0.48 0.87 0.02
1 7.63 763 -0.594 -9.204 6.867 -14.984 -9.369 2.655 -305.051 1526.456 -3732.119 1.609 0.913 -1.741 0.05 -0.49 0.87 0.02
1 7.64 764 -0.263 -9.807 6.833 18.127 12.146 20.538 -380.002 1601.407 -3552.086 1.268 1.504 -1.726 0.05 -0.49 0.87 0.02
1 7.65 765 -0.014 -9.620 6.426 30.731 24.963 28.595 -439.963 1586.417 -3612.197 0.978 1.332 -1.287 0.04 -0.49 0.87 0.02
1 7.66 766 0.019 -8.964 6.182 28.504 31.159 29.785 -439.963 1586.417 -3612.197 0.886 0.697 -0.998 0.04 -0.48 0.87 0.02
1 7.67 767 0.215 -8.663 5.789 13.062 29.022 24.506 -409.983 1676.358 -3627.187 0.630 0.412 -0.568 0.04 -0.48 0.88 0.02
1 7.68 768 0.800 -8.634 5.220 -14.404 13.855 11.322 -409.983 1676.358 -3627.187 -0.009 0.389 0.018 0.04 -0.48 0.88 0.02
1 7.69 769 1.192 -8.476 5.047 -21.515 3.296 6.012 -485.084 1631.387 -3657.167 -0.435 0.221 0.181 0.03 -0.48 0.88 0.02
1 7.70 770 1.542 -8.543 5.325 -17.487 -3.113 3.357 -275.071 1676.358 -3552.086 -0.797 0.271 -0.122 0.03 -0.48 0.87 0.02
1 7.71 771 1.801 -8.308 5.684 -4.669 0.305 4.578 -439.963 1661.368 -3642.177 -1.048 0.013 -0.520 0.03 -0.49 0.87 0.02
1 7.72 772 1.561 -8.256 5.986 1.068 7.843 7.904 -439.963 1691.348 -3537.096 -0.809 -0.040 -0.822 0.03 -0.49 0.87 0.02
1 7.73 773 1.164 -8.385 6.019 0.763 14.771 9.766 -439.963 1691.348 -3537.096 -0.422 0.093 -0.848 0.03 -0.48 0.87 0.02
1 7.74 774 0.455 -8.581 5.756 -2.136 17.334 10.925 -365.012 1661.368 -3612.197 0.266 0.292 -0.578 0.03 -0.48 0.87 0.02
1 7.75 775 -0.144 -9.046 5.215 -0.610 14.313 11.475 -365.012 1661.368 -3612.197 0.836 0.756 -0.034 0.03 -0.48 0.87 0.02
1 7.76 776 -0.694 -9.223 4.889 12.909 -1.068 10.925 -214.960 1466.345 -3717.128 1.358 0.933 0.295 0.03 -0.48 0.87 0.02
1 7.77 777 -0.819 -9.285 4.817 25.391 -13.947 10.437 -290.061 1586.417 -3717.128 1.459 1.000 0.377 0.03 -0.48 0.87 0.02
1 7.78 778 -0.728 -8.864 4.956 34.393 -23.895 10.803 -290.061 1586.417 -3717.128 1.353 0.592 0.262 0.03 -0.48 0.88 0.01
1 7.79 779 -0.115 -8.385 5.239 37.537 -27.405 11.902 -229.950 1676.358 -3627.187 0.733 0.162 0.057 0.03 -0.48 0.88 0.01
1 7.80 780 -0.010 -8.026 5.334 32.654 -24.841 11.871 -229.950 1676.358 -3627.187 0.628 -0.169 0.004 0.03 -0.48 0.88 0.01
1 7.81 781 0.105 -7.892 5.210 26.428 -18.921 11.902 -244.940 1541.446 -3642.177 0.514 -0.278 0.167 0.03 -0.47 0.88 0.01
1 7.82 782 0.120 -7.791 5.215 19.440 -15.259 11.047 -244.940 1541.446 -3642.177 0.497 -0.359 0.192 0.03 -0.47 0.88 0.01
1 7.83 783 -0.125 -7.944 4.937 13.306 -13.275 9.277 -409.983 1481.335 -3777.089 0.738 -0.191 0.492 0.03 -0.47 0.88 0
1 7.84 784 -0.278 -7.987 4.836 14.313 -16.388 8.057 -290.061 1511.465 -3672.158 0.887 -0.137 0.609 0.03 -0.47 0.88 0
1 7.85 785 -0.603 -8.011 4.564 18.372 -22.919 7.446 -290.061 1511.465 -3672.158 1.210 -0.104 0.897 0.03 -0.47 0.88 0
1 7.86 786 -0.986 -8.251 4.305 24.567 -34.973 5.951 -320.042 1511.465 -3567.076 1.602 0.162 1.193 -0.04 0.47 -0.88 0
1 7.87 787 -1.125 -7.978 4.123 26.306 -42.267 4.700 -320.042 1511.465 -3567.076 1.755 -0.095 1.397 -0.04 0.47 -0.88 0
1 7.88 788 -1.226 -7.882 3.884 26.245 -48.248 3.448 -409.983 1406.384 -3657.167 1.875 -0.174 1.660 -0.04 0.46 -0.88 0.01
1 7.89 789 -1.130 -7.853 4.133 23.560 -50.507 2.594 -409.983 1406.384 -3657.167 1.805 -0.186 1.431 -0.04 0.46 -0.89 0.01
1 7.90 790 -1.006 -7.868 4.037 17.853 -49.103 3.693 -454.954 1406.384 -3627.187 1.707 -0.159 1.543 -0.05 0.46 -0.89 0.01
1 7.91 791 -0.608 -8.107 4.042 5.920 -43.793 6.195 -515.064 1466.345 -3672.158 1.334 0.089 1.546 -0.05 0.46 -0.89 0.01
1 7.92 792 -0.541 -8.222 4.070 -0.946 -39.765 9.155 -515.064 1466.345 -3672.158 1.289 0.205 1.516 -0.05 0.46 -0.89 0.02
1 7.93 793 -0.134 -8.481 3.912 -4.700 -37.598 11.414 -694.947 1316.442 -3717.128 0.909 0.447 1.646 -0.06 0.46 -0.88 0.02
1 7.94 794 -0.034 -8.366 4.056 -3.662 -37.964 12.024 -694.947 1316.442 -3717.128 0.820 0.320 1.484 -0.06 0.46 -0.88 0.02
1 7.95 795 0.249 -8.533 4.051 -0.885 -38.361 10.803 -605.006 1451.354 -3657.167 0.550 0.478 1.472 -0.06 0.46 -0.88 0.03
1 7.96 796 0.340 -8.394 4.080 3.876 -36.530 8.575 -605.006 1451.354 -3657.167 0.475 0.332 1.431 -0.06 0.46 -0.88 0.03
1 7.97 797 0.493 -8.466 3.893 7.233 -33.051 6.653 -545.045 1541.446 -3642.177 0.339 0.402 1.612 -0.06 0.46 -0.88 0.03
1 7.98 798 0.125 -8.595 3.793 1.892 -33.508 3.448 -485.084 1406.384 -3732.119 0.726 0.530 1.709 -0.07 0.46 -0.88 0.03
1 7.99 799 0.010 -8.390 5.454 -10.590 -37.354 1.617 -485.084 1406.384 -3732.119 0.862 0.320 0.038 -0.07 0.46 -0.88 0.03
1 8.00 800 1.700 -8.548 9.706 -40.650 -23.926 -0.244 -694.947 1346.423 -3717.128 -0.777 0.444 -4.273 -0.07 0.47 -0.88 0.03
1 8.01 801 2.533 -9.228 10.109 -47.394 -7.721 1.373 -694.947 1346.423 -3717.128 -1.597 1.088 -4.731 -0.07 0.47 -0.88 0.04
1 8.02 802 4.405 -12.077 8.203 -69.916 56.824 13.458 -859.990 1481.335 -3657.167 -3.495 3.890 -2.894 -0.07 0.47 -0.88 0.03
1 8.03 803 4.042 -12.225 5.258 -59.815 86.670 39.581 -859.990 1481.335 -3657.167 -3.209 3.979 -0.028 -0.07 0.48 -0.88 0.03
1 8.04 804 3.218 -10.305 3.113 -6.928 72.846 58.869 -679.957 1451.354 -3777.089 -2.511 2.016 2.068 -0.06 0.48 -0.87 0.03
1 8.05 805 1.676 -7.379 2.586 44.800 3.265 41.107 -800.029 1616.397 -3642.177 -1.093 -0.910 2.610 -0.05 0.48 -0.87 0.04
1 8.06 806 1.331 -6.431 3.194 34.363 -41.809 23.285 -800.029 1616.397 -3642.177 -0.804 -1.837 2.040 -0.05 0.48 -0.87 0.04
1 8.07 807 1.461 -6.125 4.530 3.876 -67.536 9.064 -530.055 1451.354 -3702.138 -0.941 -2.114 0.752 -0.05 0.48 -0.88 0.04
1 8.08 808 1.801 -7.039 6.240 -44.830 -62.592 -1.465 -605.006 1601.407 -3777.089 -1.190 -1.208 -0.981 -0.06 0.48 -0.88 0.05
1 8.09 809 1.504 -8.059 6.704 -61.066 -37.537 -1.373 -605.006 1631.387 -3627.187 -0.836 -0.221 -1.505 -0.07 0.48 -0.87 0.05
1 8.10 810 0.761 -9.050 6.651 -57.190 -13.794 2.838 -605.006 1631.387 -3627.187 -0.061 0.729 -1.523 -0.07 0.48 -0.87 0.05
1 8.11 811 -0.101 -9.524 6.278 -37.995 -0.671 6.409 -605.006 1676.358 -3702.138 0.805 1.162 -1.217 -0.07 0.49 -0.87 0.05
1 8.12 812 -0.733 -9.778 6.129 -0.122 0.610 11.292 -725.078 1586.417 -3567.076 1.428 1.391 -1.109 -0.07 0.49 -0.87 0.05
1 8.13 813 -0.857 -9.611 6.297 17.365 -2.197 18.341 -725.078 1586.417 -3567.076 1.539 1.218 -1.283 -0.07 0.49 -0.87 0.05
1 8.14 814 -0.795 -9.299 6.412 25.024 0.061 27.649 -785.039 1631.387 -3552.086 1.458 0.916 -1.380 -0.07 0.49 -0.87 0.05
1 8.15 815 -0.795 -8.145 6.393 22.675 12.024 33.661 -679.957 1601.407 -3657.167 1.381 -0.204 -1.296 -0.07 0.49 -0.87 0.06
1 8.16 816 -0.862 -7.652 6.431 12.970 18.250 27.100 -560.035 1676.358 -3657.167 1.391 -0.681 -1.301 -0.06 0.48 -0.87 0.06
1 8.17 817 -0.948 -7.164 6.268 1.343 18.860 17.822 -560.035 1676.358 -3657.167 1.421 -1.158 -1.114 -0.06 0.48 -0.87 0.06
1 8.18 818 -0.675 -7.269 6.211 -10.407 12.024 10.651 -694.947 1736.469 -3612.197 1.105 -1.049 -1.046 -0.06 0.48 -0.87 0.06
1 8.19 819 -0.441 -7.604 6.062 -20.508 0.092 8.026 -694.947 1541.446 -3537.096 0.843 -0.718 -0.903 -0.06 0.48 -0.87 0.06
1 8.20 820 0.287 -8.366 5.952 -23.773 -18.860 7.568 -694.947 1541.446 -3537.096 0.101 0.031 -0.813 -0.06 0.48 -0.87 0.06
1 8.21 821 1.073 -8.610 6.134 -15.167 -28.504 6.287 -530.055 1526.456 -3702.138 -0.684 0.259 -1.020 -0.06 0.49 -0.87 0.06
1 8.22 822 1.963 -8.600 6.417 4.486 -31.952 0.916 -679.957 1676.358 -3657.167 -1.539 0.236 -1.327 -0.06 0.49 -0.87 0.06
1 8.23 823 2.078 -8.495 6.484 9.735 -31.494 -1.556 -770.048 1541.446 -3567.076 -1.628 0.137 -1.386 -0.06 0.49 -0.87 0.07
1 8.24 824 2.246 -7.734 6.565 19.196 -22.308 -7.355 -770.048 1541.446 -3567.076 -1.762 -0.608 -1.444 -0.07 0.48 -0.87 0.07
1 8.25 825 2.069 -7.322 6.326 17.578 -16.022 -10.956 -634.986 1721.329 -3657.167 -1.544 -0.997 -1.171 -0.07 0.48 -0.87 0.07
1 8.26 826 1.777 -7.274 6.134 10.559 -11.627 -13.275 -694.947 1586.417 -3717.128 -1.213 -1.024 -0.951 -0.07 0.48 -0.87 0.07
1 8.27 827 1.336 -7.293 5.938 -4.547 -10.071 -13.672 -694.947 1586.417 -3717.128 -0.735 -0.990 -0.736 -0.07 0.48 -0.87 0.07
1 8.28 828 0.963 -7.394 5.823 -12.604 -12.878 -11.810 -785.039 1601.407 -3702.138 -0.328 -0.884 -0.615 -0.07 0.48 -0.87 0.06
1 8.29 829 0.603 -7.710 5.780 -17.212 -17.090 -9.644 -694.947 1616.397 -3567.076 0.061 -0.570 -0.579 -0.07 0.48 -0.87 0.06
1 8.30 830 0.599 -8.117 5.837 -17.365 -23.254 -5.951 -649.977 1661.368 -3492.125 0.120 -0.180 -0.671 -0.08 0.48 -0.87 0.06
1 8.31 831 0.656 -8.121 5.995 -13.245 -23.499 -3.082 -649.977 1661.368 -3492.125 0.087 -0.184 -0.847 -0.08 0.48 -0.87 0.06
1 8.32 832 0.924 -8.208 6.168 -6.836 -18.158 0.977 -694.947 1691.348 -3642.177 -0.161 -0.103 -1.030 -0.08 0.48 -0.87 0.07
1 8.33 833 1.207 -7.839 6.297 -0.671 -10.437 4.486 -785.039 1601.407 -3552.086 -0.431 -0.472 -1.161 -0.08 0.48 -0.87 0.07
1 8.34 834 1.657 -7.681 6.115 4.395 -2.655 7.111 -785.039 1601.407 -3552.086 -0.878 -0.625 -0.972 -0.08 0.48 -0.87 0.07
1 8.35 835 1.666 -7.638 5.876 7.477 3.967 7.233 -725.078 1661.368 -3642.177 -0.890 -0.659 -0.718 -0.08 0.48 -0.87 0.07
1 8.36 836 1.695 -7.394 5.588 6.775 2.289 5.432 -694.947 1736.469 -3537.096 -0.924 -0.893 -0.413 -0.08 0.48 -0.87 0.07
1 8.37 837 1.662 -7.336 5.253 3.540 -7.660 0.671 -815.019 1676.358 -3582.216 -0.887 -0.933 -0.050 -0.08 0.48 -0.87 0.07
1 8.38 838 1.676 -7.561 5.378 2.289 -14.252 -3.601 -815.019 1676.358 -3582.216 -0.886 -0.702 -0.168 -0.08 0.48 -0.87 0.07
1 8.39 839 1.743 -7.734 5.229 1.892 -18.799 -6.500 -785.039 1526.456 -3552.086 -0.927 -0.524 -0.015 -0.08 0.48 -0.87 0.07
1 8.40 840 1.729 -7.757 5.526 3.510 -20.569 -9.491 -770.048 1421.374 -3567.076 -0.880 -0.495 -0.309 -0.09 0.48 -0.87 0.07
1 8.41 841 1.657 -7.834 5.627 5.096 -17.273 -11.108 -770.048 1421.374 -3567.076 -0.772 -0.410 -0.403 -0.09 0.48 -0.87 0.07
1 8.42 842 1.614 -7.901 5.631 2.686 -9.430 -12.787 -755.058 1601.407 -3657.167 -0.694 -0.334 -0.398 -0.09 0.47 -0.87 0.07
1 8.43 843 1.575 -7.906 5.646 -0.214 -5.615 -12.756 -725.078 1811.420 -3642.177 -0.625 -0.320 -0.405 -0.09 0.47 -0.87 0.07
1 8.44 844 1.250 -7.997 5.334 -6.073 -4.028 -12.360 -889.970 1626.890 -3586.414 -0.248 -0.222 -0.091 -0.09 0.47 -0.87 0.06
1 8.45 845 1.355 -7.786 5.311 -7.538 -6.165 -12.421 -889.970 1626.890 -3586.414 -0.331 -0.434 -0.074 -0.09 0.47 -0.87 0.06
1 8.46 846 1.346 -7.916 5.378 -9.552 -9.308 -12.512 -815.019 1551.939 -3586.414 -0.298 -0.307 -0.149 -0.1 0.47 -0.87 0.06
1 8.47 847 1.566 -8.054 5.459 -12.238 -12.726 -12.360 -934.941 1671.861 -3631.384 -0.491 -0.172 -0.242 -0.1 0.47 -0.87 0.06
1 8.48 848 1.796 -8.409 5.526 -11.963 -13.580 -12.146 -934.941 1671.861 -3631.384 -0.691 0.177 -0.324 -0.1 0.47 -0.87 0.06
1 8.49 849 2.006 -8.394 5.378 -1.495 -13.153 -11.444 -800.029 1581.919 -3496.322 -0.871 0.158 -0.190 -0.1 0.47 -0.87 0.06
1 8.50 850 1.935 -8.284 5.473 9.979 -10.773 -14.832 -845.000 1611.900 -3646.375 -0.770 0.048 -0.292 -0.1 0.47 -0.87 0.06
1 8.51 851 1.954 -8.193 5.277 16.815 -8.881 -17.242 -845.000 1611.900 -3646.375 -0.756 -0.033 -0.088 -0.1 0.47 -0.87 0.06
1 8.52 852 1.757 -8.069 4.999 16.296 -6.775 -17.304 -964.921 1716.832 -3586.414 -0.491 -0.121 0.232 -0.11 0.47 -0.87 0.06
1 8.53 853 1.786 -8.102 5.057 8.209 -6.531 -15.656 -1009.892 1521.958 -3481.332 -0.488 -0.071 0.192 -0.11 0.47 -0.87 0.06
1 8.54 854 1.671 -8.198 5.028 0.336 -5.707 -13.855 -949.931 1731.972 -3616.394 -0.345 0.033 0.227 -0.11 0.47 -0.87 0.06
1 8.55 855 1.738 -8.346 5.176 -3.510 -4.059 -11.658 -949.931 1731.972 -3616.394 -0.387 0.184 0.075 -0.11 0.47 -0.87 0.06
1 8.56 856 1.724 -8.519 5.186 -0.885 1.648 -9.125 -919.951 1656.871 -3676.355 -0.353 0.356 0.060 -0.11 0.47 -0.87 0.06
1 8.57 857 1.542 -8.452 5.153 3.998 6.134 -7.050 -964.921 1596.910 -3481.332 -0.156 0.289 0.091 -0.11 0.47 -0.87 0.05
1 8.58 858 1.307 -8.375 4.927 8.667 9.613 -5.310 -964.921 1596.910 -3481.332 0.086 0.217 0.320 -0.11 0.47 -0.87 0.05
1 8.59 859 1.365 -8.284 4.971 9.888 10.712 -2.136 -1114.974 1626.890 -3526.303 0.026 0.141 0.301 -0.11 0.47 -0.88 0.05
1 8.60 860 1.422 -8.284 4.851 5.920 9.522 -0.458 -934.941 1596.910 -3661.365 -0.038 0.148 0.433 -0.11 0.47 -0.88 0.05
1 8.61 861 1.714 -8.246 4.971 2.655 9.277 1.495 -1009.892 1626.890 -3526.303 -0.337 0.113 0.320 -0.11 0.47 -0.88 0.05
1 8.62 862 1.815 -8.385 5.004 1.984 11.078 0.885 -1009.892 1626.890 -3526.303 -0.444 0.253 0.290 -0.11 0.47 -0.88 0.05
1 8.63 863 1.824 -8.466 5.124 2.197 11.871 0.000 -1084.993 1521.958 -3556.283 -0.461 0.335 0.174 -0.11 0.47 -0.88 0.05
1 8.64 864 1.848 -8.481 4.927 6.256 15.045 0.031 -845.000 1416.877 -3466.342 -0.491 0.352 0.375 -0.11 0.47 -0.88 0.05
1 8.65 865 1.781 -8.332 4.899 10.223 16.449 0.122 -845.000 1416.877 -3466.342 -0.432 0.207 0.412 -0.11 0.47 -0.88 0.05
1 8.66 866 1.475 -8.174 4.621 13.886 18.127 -0.305 -800.029 1536.949 -3751.306 -0.145 0.065 0.719 -0.1 0.47 -0.88 0.05
1 8.67 867 1.585 -7.992 4.597 14.130 19.257 -0.763 -874.980 1581.919 -3571.273 -0.267 -0.107 0.761 -0.1 0.46 -0.88 0.05
1 8.68 868 1.489 -7.714 4.616 8.728 20.660 -1.099 -919.951 1506.968 -3646.375 -0.183 -0.375 0.759 -0.1 0.46 -0.88 0.05
1 8.69 869 1.551 -7.834 4.525 2.960 22.736 -1.251 -919.951 1506.968 -3646.375 -0.258 -0.250 0.861 -0.1 0.46 -0.88 0.05
1 8.70 870 1.461 -7.791 4.463 -2.502 24.353 -1.770 -1009.892 1446.857 -3481.332 -0.181 -0.293 0.927 -0.1 0.46 -0.88 0.05
1 8.71 871 1.484 -8.026 4.492 -9.247 25.604 -1.740 -949.931 1536.949 -3541.293 -0.220 -0.063 0.895 -0.1 0.46 -0.88 0.04
1 8.72 872 1.307 -8.141 4.530 -11.902 25.147 -1.770 -949.931 1536.949 -3541.293 -0.060 0.044 0.848 -0.1 0.47 -0.88 0.04
1 8.73 873 1.255 -8.414 4.511 -11.566 22.736 -1.953 -889.970 1446.857 -3586.414 -0.023 0.306 0.855 -0.09 0.47 -0.88 0.04
1 8.74 874 1.235 -8.562 4.621 -6.439 19.196 -0.732 -769.898 1416.877 -3751.306 -0.033 0.433 0.719 -0.09 0.47 -0.88 0.04
1 8.75 875 1.178 -8.505 4.607 -1.801 17.395 0.824 -769.898 1536.949 -3751.306 0.011 0.369 0.726 -0.09 0.47 -0.88 0.04
1 8.76 876 1.154 -8.485 4.846 0.732 16.510 1.587 -769.898 1536.949 -3751.306 0.020 0.346 0.484 -0.09 0.47 -0.88 0.04
1 8.77 877 1.125 -8.452 5.057 0.916 17.578 1.099 -679.957 1551.939 -3706.335 0.034 0.311 0.275 -0.09 0.47 -0.88 0.04
1 8.78 878 1.020 -8.394 4.894 -1.801 17.853 3.052 -679.957 1401.887 -3661.365 0.123 0.253 0.440 -0.09 0.47 -0.88 0.04
1 8.79 879 0.895 -8.318 5.038 -3.906 20.569 5.402 -679.957 1401.887 -3661.365 0.229 0.173 0.295 -0.09 0.47 -0.88 0.04
1 8.80 880 1.001 -8.150 5.009 -3.479 22.492 6.470 -605.006 1551.939 -3556.283 0.101 0.001 0.321 -0.08 0.47 -0.88 0.04
1 8.81 881 0.742 -8.078 4.904 -4.700 25.848 7.385 -785.039 1446.857 -3661.365 0.305 -0.081 0.423 -0.08 0.47 -0.88 0.04
1 8.82 882 0.718 -8.141 4.990 -8.362 27.649 7.782 -709.938 1596.910 -3631.384 0.297 -0.025 0.333 -0.08 0.47 -0.88 0.04
1 8.83 883 0.656 -8.193 4.846 -14.710 29.846 8.148 -709.938 1596.910 -3631.384 0.325 0.018 0.469 -0.08 0.47 -0.88 0.03
1 8.84 884 0.718 -8.380 4.789 -20.416 33.325 8.148 -815.019 1596.910 -3736.316 0.227 0.190 0.509 -0.07 0.47 -0.88 0.03
1 8.85 885 1.025 -8.667 4.769 -23.499 38.117 9.705 -769.898 1536.949 -3751.306 -0.120 0.457 0.505 -0.07 0.48 -0.88 0.03
1 8.86 886 1.044 -8.945 4.583 -20.935 43.488 11.292 -769.898 1536.949 -3751.306 -0.183 0.713 0.664 -0.07 0.48 -0.88 0.03
1 8.87 887 1.250 -9.132 4.468 -17.639 40.405 11.231 -560.035 1626.890 -3811.267 -0.435 0.878 0.753 -0.06 0.48 -0.87 0.03
1 8.88 888 1.551 -9.022 4.118 -3.204 31.281 11.231 -544.895 1686.851 -3676.355 -0.820 0.735 1.063 -0.06 0.48 -0.87 0.03
1 8.89 889 1.489 -8.768 3.931 0.916 29.144 11.566 -605.006 1596.910 -3661.365 -0.790 0.475 1.244 -0.06 0.48 -0.87 0.03
1 8.90 890 2.002 -8.428 4.003 4.272 30.426 8.209 -605.006 1596.910 -3661.365 -1.329 0.133 1.172 -0.06 0.48 -0.87 0.03
1 8.91 891 1.829 -8.155 4.262 -5.249 35.248 5.035 -634.986 1626.890 -3586.414 -1.181 -0.142 0.914 -0.05 0.48 -0.87 0.03
1 8.92 892 1.403 -7.944 5.081 -22.858 34.546 1.923 -544.895 1581.919 -3646.375 -0.778 -0.362 0.082 -0.05 0.48 -0.87 0.03
1 8.93 893 0.733 -8.500 5.842 -53.589 17.761 -4.547 -544.895 1581.919 -3646.375 -0.126 0.172 -0.711 -0.05 0.49 -0.87 0.03
1 8.94 894 0.316 -9.242 5.818 -64.240 -0.610 -9.888 -529.905 1626.890 -3706.335 0.282 0.880 -0.743 -0.05 0.49 -0.87 0.02
1 8.95 895 0.115 -10.142 5.397 -56.946 -17.822 -14.740 -529.905 1626.890 -3706.335 0.492 1.736 -0.397 -0.05 0.49 -0.87 0.02
1 8.96 896 0.555 -10.765 4.784 -9.796 -33.356 -15.961 -394.393 1803.625 -3499.470 0.123 2.289 0.089 -0.05 0.5 -0.86 0.02
1 8.97 897 0.742 -10.075 4.856 20.172 -35.187 -13.886 -394.393 1803.625 -3499.470 -0.017 1.601 0.012 -0.06 0.5 -0.86 0.02
1 8.98 898 0.800 -9.457 5.291 27.466 -25.971 -15.442 -484.484 1818.615 -3634.532 -0.030 1.003 -0.396 -0.06 0.5 -0.87 0.02
1 8.99 899 0.536 -8.782 5.765 10.223 -9.705 -19.196 -649.377 1803.625 -3574.571 0.271 0.349 -0.840 -0.06 0.5 -0.87 0.02
1 9.00 900 -0.115 -8.567 5.617 -36.896 15.411 -22.308 -649.377 1803.625 -3574.571 0.952 0.140 -0.685 -0.06 0.49 -0.87 0.02
1 9.01 901 -0.340 -9.161 5.253 -61.188 21.607 -19.135 -514.465 1758.654 -3619.542 1.193 0.718 -0.351 -0.06 0.5 -0.87 0.02
1 9.02 902 -0.517 -9.821 5.052 -66.712 20.935 -13.733 -514.465 1758.654 -3619.542 1.373 1.341 -0.216 -0.06 0.5 -0.86 0.02
1 9.03 903 -0.316 -10.104 5.287 -40.924 14.221 -6.256 -484.484 1788.635 -3664.513 1.168 1.536 -0.606 -0.06 0.51 -0.86 0.01
1 9.04 904 -0.129 -9.764 5.512 -14.710 13.550 -2.380 -484.484 1788.635 -3664.513 0.979 1.173 -0.874 -0.06 0.51 -0.86 0.01
1 9.05 905 0.220 -9.050 5.761 6.592 15.839 -0.153 -409.383 1938.687 -3634.532 0.623 0.454 -1.132 -0.06 0.51 -0.86 0.01
1 9.06 906 0.211 -8.356 5.718 18.768 19.348 1.129 -454.354 1938.687 -3379.548 0.619 -0.232 -1.070 -0.06 0.51 -0.86 0.01
1 9.07 907 0.579 -7.772 5.871 21.027 21.149 2.258 -454.354 1938.687 -3379.548 0.229 -0.798 -1.187 -0.05 0.51 -0.86 0.01
1 9.08 908 0.905 -7.259 5.660 9.094 18.829 -2.350 -544.445 1758.654 -3499.470 -0.115 -1.291 -0.937 -0.05 0.51 -0.86 0.01
1 9.09 909 0.929 -7.537 5.799 -5.463 13.062 -5.005 -544.445 1758.654 -3499.470 -0.152 -0.999 -1.047 -0.05 0.5 -0.86 0.01
1 9.10 910 1.274 -7.968 5.794 -17.700 3.021 -7.477 -409.383 1863.736 -3634.532 -0.495 -0.566 -1.040 -0.05 0.5 -0.86 0.01
1 9.11 911 1.221 -8.074 5.818 -15.930 1.312 -8.148 -409.383 1863.736 -3634.532 -0.430 -0.466 -1.076 -0.05 0.51 -0.86 0.01
1 9.12 912 1.125 -7.920 5.718 6.317 -6.836 -10.620 -484.484 1818.615 -3559.581 -0.316 -0.619 -0.977 -0.05 0.51 -0.86 0.01
1 9.13 913 0.939 -7.470 5.780 26.276 -12.238 -13.763 -394.393 1803.625 -3499.470 -0.105 -1.054 -1.017 -0.05 0.5 -0.86 0.01
1 9.14 914 0.627 -6.891 5.713 40.802 -17.120 -16.571 -394.393 1803.625 -3499.470 0.237 -1.604 -0.903 -0.05 0.5 -0.86 0
1 9.15 915 0.129 -5.981 5.550 41.107 -25.330 -23.041 -604.406 1968.667 -3634.532 0.772 -2.474 -0.677 -0.06 0.5 -0.87 0
1 9.16 916 0.091 -5.842 5.449 26.795 -29.541 -24.780 -604.406 1968.667 -3634.532 0.858 -2.577 -0.523 -0.06 0.5 -0.87 0
1 9.17 917 -0.120 -6.081 5.349 5.920 -31.860 -23.865 -454.354 1863.736 -3559.581 1.123 -2.309 -0.386 -0.06 0.49 -0.87 0
1 9.18 918 -0.110 -7.097 5.842 -23.163 -28.961 -21.149 -439.364 1683.703 -3649.522 1.223 -1.284 -0.886 -0.07 0.49 -0.87 0
1 9.19 919 -0.120 -8.050 6.163 -31.159 -20.905 -18.951 -529.455 1788.635 -3559.581 1.277 -0.344 -1.239 -0.07 0.49 -0.87 0
1 9.20 920 -0.067 -9.184 6.388 -29.144 -10.803 -15.625 -484.484 1788.635 -3454.500 1.253 0.775 -1.497 -0.07 0.5 -0.87 0
1 9.21 921 0.120 -10.343 6.666 -19.684 1.526 -10.651 -484.484 1788.635 -3454.500 1.087 1.919 -1.806 -0.07 0.5 -0.86 0
1 9.22 922 0.249 -10.932 6.752 -5.463 14.465 -3.479 -634.387 1863.736 -3664.513 0.966 2.498 -1.912 0.07 -0.5 0.86 0
1 9.23 923 0.560 -10.966 6.139 22.553 29.755 9.277 -634.387 1863.736 -3664.513 0.645 2.532 -1.296 0.07 -0.5 0.86 0
1 9.24 924 0.723 -10.530 5.593 36.560 30.945 13.794 -619.396 1878.726 -3469.490 0.452 2.109 -0.721 0.07 -0.5 0.87 0
1 9.25 925 0.929 -9.122 4.846 44.037 17.670 10.284 -709.488 1863.736 -3454.500 0.171 0.755 0.135 0.06 -0.49 0.87 0
1 9.26 926 1.212 -8.289 4.559 37.415 4.334 2.960 -604.406 1788.635 -3589.562 -0.135 -0.049 0.477 0.06 -0.49 0.87 0
1 9.27 927 1.566 -7.810 4.741 22.186 -7.385 -3.967 -589.416 1758.654 -3649.522 -0.490 -0.502 0.337 0.06 -0.49 0.87 0
1 9.28 928 1.757 -8.016 5.062 1.801 -9.613 -6.012 -589.416 1758.654 -3649.522 -0.665 -0.282 0.036 0.06 -0.49 0.87 0
1 9.29 929 1.801 -8.466 5.325 -15.869 -3.174 -2.411 -559.436 1818.615 -3589.562 -0.688 0.168 -0.232 0.06 -0.49 0.87 0
1 9.30 930 1.403 -9.213 5.593 -20.660 13.336 3.632 -559.436 1818.615 -3589.562 -0.283 0.903 -0.522 0.06 -0.49 0.87 0
1 9.31 931 0.838 -9.826 5.421 -9.522 20.111 6.409 -634.387 1623.742 -3634.532 0.276 1.500 -0.373 0.06 -0.49 0.87 0
1 9.32 932 -0.120 -10.262 4.975 16.144 18.768 11.810 -604.406 1788.635 -3709.483 1.185 1.927 0.069 0.06 -0.49 0.87 0
1 9.33 933 -0.340 -10.142 4.793 24.750 14.282 12.665 -559.436 1713.684 -3589.562 1.377 1.822 0.280 0.06 -0.49 0.87 0
1 9.34 934 -0.843 -9.481 4.386 46.021 -5.524 15.533 -409.383 1818.615 -3559.581 1.858 1.189 0.737 0.06 -0.48 0.87 0
1 9.35 935 -0.675 -8.955 4.377 52.124 -17.090 17.120 -409.383 1818.615 -3559.581 1.671 0.695 0.803 -0.06 0.48 -0.87 0
1 9.36 936 -0.484 -8.404 4.473 50.873 -22.522 18.768 -514.465 1653.723 -3724.474 1.460 0.179 0.765 -0.06 0.48 -0.88 0
1 9.37 937 -0.287 -7.987 4.635 40.894 -22.247 20.599 -514.465 1653.723 -3724.474 1.248 -0.204 0.658 -0.06 0.48 -0.88 0.01
1 9.38 938 -0.019 -7.762 4.688 31.891 -19.684 21.088 -454.354 1743.664 -3634.532 0.964 -0.400 0.653 -0.06 0.47 -0.88 0.01
1 9.39 939 0.120 -7.609 4.774 23.560 -16.419 20.722 -514.465 1653.723 -3649.522 0.809 -0.530 0.605 -0.06 0.47 -0.88 0.01
1 9.40 940 0.067 -7.767 4.698 16.480 -14.404 19.287 -529.455 1743.664 -3589.562 0.827 -0.343 0.731 -0.06 0.47 -0.88 0.01
1 9.41 941 -0.383 -7.925 4.516 17.700 -16.724 19.226 -619.396 1413.729 -3799.575 1.261 -0.175 0.930 -0.06 0.47 -0.88 0.02
1 9.42 942 -0.723 -7.978 4.267 21.423 -21.729 18.219 -618.947 1409.832 -3802.873 1.585 -0.112 1.197 -0.06 0.47 -0.88 0.02
1 9.43 943 -1.077 -8.059 4.032 25.269 -30.518 18.097 -543.996 1499.773 -3802.873 1.926 -0.018 1.453 -0.06 0.47 -0.88 0.02
1 9.44 944 -1.528 -7.983 3.893 28.534 -46.662 16.602 -543.996 1499.773 -3802.873 2.369 -0.080 1.614 -0.06 0.46 -0.88 0.02
1 9.45 945 -1.595 -7.930 3.917 27.741 -56.702 16.754 -514.015 1529.753 -3652.820 2.437 -0.117 1.613 -0.06 0.46 -0.88 0.03
1 9.46 946 -1.547 -7.992 3.965 24.292 -62.134 17.639 -603.957 1514.763 -3742.912 2.397 -0.039 1.586 -0.07 0.46 -0.88 0.03
1 9.47 947 -1.168 -8.011 3.860 16.632 -60.211 20.783 -603.957 1514.763 -3667.811 2.045 0.002 1.719 -0.07 0.46 -0.88 0.04
1 9.48 948 -0.814 -8.040 3.764 11.780 -56.244 24.780 -694.048 1499.773 -3727.921 1.699 0.035 1.820 -0.07 0.46 -0.88 0.04
1 9.49 949 -0.627 -8.035 3.582 6.104 -51.636 27.588 -694.048 1499.773 -3727.921 1.523 0.032 2.003 -0.08 0.46 -0.88 0.05
1 9.50 950 -0.359 -7.978 3.625 -1.007 -47.363 29.511 -754.009 1439.812 -3712.931 1.264 -0.024 1.959 -0.08 0.46 -0.88 0.05
1 9.51 951 -0.034 -8.193 3.596 -7.935 -42.694 30.243 -754.009 1439.812 -3712.931 0.942 0.185 1.979 -0.08 0.46 -0.88 0.05
1 9.52 952 0.383 -8.145 3.548 -11.169 -32.105 26.856 -709.038 1439.812 -3742.912 0.517 0.119 2.001 -0.08 0.46 -0.88 0.06
1 9.53 953 0.474 -8.232 3.553 -11.871 -27.069 23.438 -873.931 1454.802 -3682.951 0.417 0.185 1.969 -0.08 0.46 -0.88 0.06
1 9.54 954 0.493 -8.356 2.935 -15.472 -26.795 17.029 -843.950 1649.825 -3727.921 0.384 0.269 2.530 -0.09 0.46 -0.88 0.07
1 9.55 955 0.225 -8.332 2.864 -17.944 -29.511 15.778 -754.009 1514.763 -3712.931 0.654 0.220 2.565 -0.09 0.46 -0.88 0.07
1 9.56 956 0.311 -8.428 6.211 -38.574 -41.992 10.559 -754.009 1514.763 -3712.931 0.579 0.289 -0.825 -0.09 0.47 -0.88 0.07
1 9.57 957 1.609 -8.471 11.086 -66.162 -34.821 8.789 -768.999 1454.802 -3757.902 -0.701 0.292 -5.763 -0.09 0.47 -0.88 0.07
1 9.58 958 4.348 -10.837 12.967 -85.541 8.820 13.672 -768.999 1454.802 -3757.902 -3.430 2.600 -7.738 -0.09 0.47 -0.87 0.07
1 9.59 959 5.469 -15.721 8.715 -105.408 95.703 30.029 -798.979 1604.705 -3877.824 -4.588 7.411 -3.595 -0.09 0.48 -0.87 0.07
1 9.60 960 4.626 -14.725 4.319 -49.957 117.554 80.170 -888.921 1544.744 -3592.859 -3.841 6.332 0.679 -0.09 0.49 -0.87 0.07
1 9.61 961 3.467 -10.592 1.791 56.458 75.745 105.744 -888.921 1544.744 -3592.859 -2.856 2.140 3.131 -0.08 0.49 -0.86 0.07
1 9.62 962 2.284 -5.617 2.064 120.392 -37.720 58.502 -558.986 1783.088 -3594.658 -1.990 -2.747 3.034 -0.06 0.49 -0.87 0.08
1 9.63 963 2.241 -4.544 4.214 84.717 -89.234 29.480 -558.986 1783.088 -3594.658 -1.968 -3.731 1.029 -0.06 0.48 -0.87 0.08
1 9.64 964 2.777 -4.420 6.498 17.456 -98.114 14.496 -588.966 1528.104 -3624.639 -2.459 -3.800 -1.171 -0.07 0.47 -0.87 0.09
1 9.65 965 2.945 -5.569 7.997 -49.530 -66.590 3.387 -588.966 1528.104 -3624.639 -2.565 -2.651 -2.674 -0.07 0.47 -0.87 0.09
1 9.66 966 2.117 -7.743 8.299 -94.483 -18.250 -1.892 -679.058 1663.167 -3714.730 -1.674 -0.511 -3.035 -0.08 0.47 -0.87 0.09
1 9.67 967 -0.144 -10.233 6.915 -91.950 22.369 -5.402 -633.937 1543.095 -3714.730 0.597 1.900 -1.777 -0.08 0.48 -0.87 0.09
1 9.68 968 -1.068 -11.421 6.489 -48.767 18.219 -5.066 -633.937 1543.095 -3714.730 1.513 3.013 -1.473 -0.08 0.49 -0.86 0.09
1 9.69 969 -1.413 -11.349 6.800 21.790 -1.434 3.113 -783.989 1738.118 -3564.678 1.847 2.888 -1.874 -0.08 0.49 -0.86 0.09
1 9.70 970 -1.422 -10.497 7.111 48.798 -5.768 9.247 -783.989 1738.118 -3564.678 1.853 2.059 -2.146 -0.08 0.49 -0.86 0.09
1 9.71 971 -1.384 -9.572 6.967 56.732 -4.364 14.771 -648.927 1723.127 -3624.639 1.806 1.174 -1.935 -0.08 0.49 -0.87 0.09
1 9.72 972 -1.283 -8.734 6.690 51.727 -0.427 17.487 -648.927 1723.127 -3624.639 1.689 0.379 -1.584 -0.08 0.48 -0.87 0.09
1 9.73 973 -1.302 -8.011 6.350 45.715 2.319 16.022 -843.950 1873.180 -3504.717 1.686 -0.305 -1.179 -0.07 0.48 -0.87 0.09
1 9.74 974 -1.039 -6.977 5.919 44.159 -3.784 6.653 -798.979 1678.157 -3624.639 1.397 -1.302 -0.686 -0.07 0.48 -0.87 0.1
1 9.75 975 -0.464 -6.584 5.603 43.396 -17.029 3.479 -798.979 1678.157 -3624.639 0.803 -1.654 -0.306 -0.07 0.47 -0.87 0.1
1 9.76 976 0.532 -6.398 5.612 35.767 -37.598 4.944 -679.058 1618.046 -3594.658 -0.176 -1.766 -0.203 -0.07 0.47 -0.88 0.1
1 9.77 977 1.087 -6.364 5.847 32.379 -42.206 5.951 -679.058 1618.046 -3594.658 -0.705 -1.771 -0.396 -0.08 0.46 -0.88 0.1
1 9.78 978 2.346 -6.263 6.125 24.872 -38.269 10.315 -798.979 1573.075 -3654.619 -1.938 -1.848 -0.640 -0.08 0.46 -0.88 0.1
1 9.79 979 2.935 -5.785 6.398 21.210 -25.269 9.308 -798.979 1573.075 -3654.619 -2.496 -2.299 -0.875 -0.08 0.46 -0.88 0.11
1 9.80 980 3.022 -5.531 6.244 16.480 -11.932 5.432 -858.940 1513.114 -3564.678 -2.555 -2.527 -0.686 -0.08 0.46 -0.88 0.11
1 9.81 981 2.720 -5.339 5.962 2.625 1.495 -6.073 -888.921 1468.144 -3639.629 -2.230 -2.696 -0.373 -0.08 0.46 -0.88 0.11
1 9.82 982 2.078 -5.631 5.607 -9.247 1.373 -14.038 -888.921 1468.144 -3639.629 -1.583 -2.399 -0.011 -0.08 0.46 -0.88 0.11
1 9.83 983 1.748 -6.211 5.483 -22.095 -2.289 -19.043 -813.970 1708.137 -3489.727 -1.239 -1.823 0.106 -0.08 0.46 -0.88 0.11
1 9.84 984 1.144 -7.259 5.492 -35.736 -10.040 -21.210 -694.048 1573.075 -3909.753 -0.580 -0.811 0.038 -0.09 0.46 -0.88 0.1
1 9.85 985 0.996 -8.059 5.789 -37.750 -14.740 -20.355 -724.028 1573.075 -3684.750 -0.390 -0.038 -0.302 -0.09 0.46 -0.88 0.1
1 9.86 986 0.833 -8.423 6.043 -34.332 -17.761 -16.632 -724.028 1573.075 -3684.750 -0.186 0.299 -0.601 -0.09 0.46 -0.88 0.1
1 9.87 987 0.910 -8.457 6.479 -27.008 -15.686 -12.848 -798.979 1648.176 -3759.701 -0.227 0.309 -1.076 -0.09 0.46 -0.88 0.1
1 9.88 988 1.030 -8.313 6.661 -11.383 -2.563 -5.463 -754.009 1618.046 -3744.710 -0.318 0.150 -1.285 -0.09 0.47 -0.87 0.1
1 9.89 989 1.092 -7.930 6.623 -1.251 9.644 -1.740 -754.009 1618.046 -3744.710 -0.366 -0.239 -1.258 -0.09 0.47 -0.87 0.1
1 9.90 990 1.264 -7.705 6.326 6.256 21.179 2.716 -754.009 1513.114 -3639.629 -0.537 -0.461 -0.957 -0.09 0.47 -0.87 0.1
1 9.91 991 1.408 -7.188 5.636 8.789 26.276 4.913 -919.051 1753.108 -3684.750 -0.717 -0.957 -0.230 -0.09 0.46 -0.88 0.1
1 9.92 992 1.393 -6.972 5.339 3.174 19.714 2.136 -858.940 1708.137 -3639.629 -0.723 -1.162 0.085 -0.09 0.46 -0.88 0.1
1 9.93 993 1.657 -7.020 5.157 -8.240 9.155 -3.540 -858.940 1708.137 -3639.629 -0.996 -1.110 0.274 -0.09 0.46 -0.88 0.09
1 9.94 994 1.844 -7.125 5.215 -19.867 -1.495 -11.078 -873.931 1723.127 -3654.619 -1.173 -1.011 0.207 -0.09 0.46 -0.88 0.09
1 9.95 995 1.820 -7.571 5.636 -28.229 -7.751 -17.456 -979.012 1603.056 -3549.688 -1.122 -0.580 -0.240 -0.09 0.47 -0.88 0.09
1 9.96 996 1.925 -8.241 5.832 -30.670 -6.317 -26.001 -979.012 1603.056 -3549.688 -1.187 0.072 -0.470 -0.09 0.47 -0.87 0.09
1 9.97 997 1.719 -8.706 5.876 -23.895 -2.411 -28.687 -873.931 1648.176 -3624.639 -0.935 0.517 -0.549 -0.09 0.47 -0.87 0.09
1 9.98 998 1.379 -8.907 5.550 -10.864 2.563 -27.252 -873.931 1648.176 -3684.750 -0.507 0.694 -0.274 -0.1 0.47 -0.87 0.09
1 9.99 999 1.379 -8.615 5.449 -5.554 1.862 -27.222 -873.931 1573.075 -3579.668 -0.470 0.400 -0.183 -0.1 0.47 -0.87 0.08
1 10.00 1000 1.044 -8.418 5.502 3.754 3.754 -27.252 -873.931 1573.075 -3579.668 -0.099 0.209 -0.233 -0.1 0.47 -0.87 0.08
1 10.01 1001 1.049 -8.179 5.473 2.167 5.768 -24.719 -858.940 1813.069 -3744.710 -0.072 -0.022 -0.198 -0.1 0.47 -0.87 0.08
1 10.02 1002 1.106 -8.145 5.382 -3.418 6.958 -22.644 -768.999 1753.108 -3654.619 -0.103 -0.050 -0.103 -0.1 0.47 -0.87 0.08
1 10.03 1003 1.216 -8.160 5.387 -13.184 8.087 -20.874 -768.999 1753.108 -3654.619 -0.190 -0.035 -0.111 -0.1 0.47 -0.87 0.08
1 10.04 1004 1.341 -8.284 5.368 -16.663 8.514 -20.264 -919.051 1678.157 -3654.619 -0.293 0.085 -0.103 -0.1 0.47 -0.87 0.07
1 10.05 1005 1.398 -8.533 5.497 -16.846 10.071 -19.501 -919.051 1573.075 -3624.639 -0.330 0.326 -0.249 -0.1 0.47 -0.87 0.07
1 10.06 1006 1.518 -8.509 5.253 -8.545 13.916 -18.005 -843.950 1798.079 -3504.717 -0.412 0.286 -0.039 -0.1 0.47 -0.87 0.07
1 10.07 1007 1.523 -8.442 5.440 -1.465 16.876 -16.480 -843.950 1798.079 -3504.717 -0.402 0.217 -0.232 -0.1 0.47 -0.87 0.07
