COL1	TIME	ACC_X	ACC_Y	ACC_Z	GYR_X	GYR_Y	GYR_Z	MAG_X	MAG_Y	MAG_Z	LACC_X	LACC_Y	LACC_Z	QUAT_X	QUAT_Y	QUAT_Z	QUAT_W
1 0.00 0 -0.560 -9.922 0.982 1.404 -3.693 1.038 -194.873 44.971 -2954.875 0.055 0.191 0.066 -0.01 0.67 -0.74 0.06
1 0.01 1 -0.508 -9.793 1.140 1.984 -3.296 0.916 -374.906 -119.922 -3029.976 0.002 0.062 -0.089 -0.02 0.67 -0.74 0.06
1 0.02 2 -0.388 -9.912 1.006 1.465 -2.838 0.916 -224.854 -44.971 -2984.855 -0.117 0.182 0.048 -0.02 0.67 -0.74 0.06
1 0.03 3 -0.541 -9.745 1.063 1.129 -3.021 0.549 -224.854 -44.971 -2984.855 0.036 0.015 -0.005 -0.02 0.67 -0.74 0.06
1 0.04 4 -0.464 -9.778 1.020 0.061 -3.265 0.946 -224.854 -44.971 -3059.957 -0.038 0.049 0.042 -0.02 0.67 -0.74 0.06
1 0.05 5 -0.450 -9.793 1.058 -0.916 -3.601 1.068 -224.854 -44.971 -3059.957 -0.052 0.063 0.005 -0.02 0.67 -0.74 0.06
1 0.06 6 -0.321 -9.903 1.039 -1.038 -3.387 0.488 -254.984 -29.980 -3044.966 -0.182 0.174 0.024 -0.02 0.67 -0.74 0.06
1 0.07 7 -0.340 -9.845 0.953 -1.678 -2.777 1.129 -254.984 -29.980 -3044.966 -0.161 0.116 0.109 -0.02 0.67 -0.74 0.06
1 0.08 8 -0.393 -9.965 0.963 1.160 -1.709 1.038 -194.873 -14.990 -3029.976 -0.107 0.235 0.099 -0.02 0.67 -0.74 0.06
1 0.09 9 -0.460 -9.860 1.073 2.991 -1.465 0.946 -224.854 -164.893 -2879.924 -0.039 0.130 -0.010 -0.02 0.67 -0.74 0.06
1 0.10 10 -0.407 -9.874 0.924 5.402 -1.801 0.854 -224.854 -164.893 -2879.924 -0.091 0.145 0.143 -0.02 0.67 -0.74 0.06
1 0.11 11 -0.474 -9.817 0.982 3.235 -2.380 0.031 -254.984 -74.951 -3014.986 -0.023 0.089 0.100 -0.02 0.67 -0.74 0.06
1 0.12 12 -0.474 -9.884 1.049 1.160 -1.617 -0.580 -254.984 -74.951 -3014.986 -0.021 0.157 0.038 -0.02 0.67 -0.74 0.06
1 0.13 13 -0.594 -9.927 1.097 -1.343 -1.709 0.092 -164.893 -44.971 -2879.924 0.102 0.200 -0.008 -0.02 0.67 -0.74 0.06
1 0.14 14 -0.522 -9.960 1.044 -2.930 -1.160 0.336 -164.893 -44.971 -2879.924 0.031 0.233 0.043 -0.02 0.67 -0.74 0.06
1 0.15 15 -0.589 -10.013 1.053 -2.350 -0.793 0.580 -329.935 -74.951 -2969.865 0.099 0.285 0.030 -0.02 0.67 -0.74 0.06
1 0.16 16 -0.527 -9.922 1.063 1.190 -1.678 1.099 -209.863 -149.902 -3014.986 0.037 0.194 0.019 -0.02 0.67 -0.74 0.06
1 0.17 17 -0.623 -9.817 0.996 3.998 -1.740 0.793 -209.863 -149.902 -3014.986 0.132 0.089 0.088 -0.02 0.67 -0.74 0.06
1 0.18 18 -0.575 -9.773 1.073 4.700 -2.655 0.702 -284.964 -29.980 -2969.865 0.084 0.047 0.017 -0.02 0.67 -0.74 0.06
1 0.19 19 -0.546 -9.773 0.982 4.883 -2.838 0.427 -269.974 -44.971 -3029.976 0.055 0.048 0.124 -0.02 0.67 -0.74 0.06
1 0.20 20 -0.441 -9.668 1.001 2.930 -3.296 0.488 -224.854 -119.922 -2984.855 -0.050 -0.056 0.112 -0.02 0.67 -0.74 0.06
1 0.21 21 -0.517 -9.778 1.073 0.488 -4.028 0.793 -224.854 -119.922 -2984.855 0.027 0.054 0.044 -0.02 0.67 -0.74 0.06
1 0.22 22 -0.493 -9.692 1.121 -1.373 -3.174 0.214 -329.935 0.000 -2939.885 0.004 -0.032 -0.003 -0.02 0.67 -0.74 0.06
1 0.23 23 -0.383 -9.845 1.097 -3.632 -2.228 0.519 -329.935 -104.932 -2894.914 -0.105 0.121 0.019 -0.02 0.67 -0.74 0.06
1 0.24 24 -0.292 -9.778 1.010 -1.953 -1.343 0.092 -329.935 -104.932 -2894.914 -0.195 0.054 0.101 -0.02 0.67 -0.74 0.06
1 0.25 25 -0.354 -9.845 0.963 -0.793 -0.610 0.458 -344.925 -164.893 -3059.957 -0.131 0.120 0.147 -0.02 0.67 -0.74 0.06
1 0.26 26 -0.268 -9.893 0.996 2.258 -0.610 0.305 -419.876 -44.971 -2909.904 -0.213 0.168 0.114 -0.02 0.67 -0.74 0.06
1 0.27 27 -0.512 -9.754 0.986 2.899 -1.129 -0.397 -464.997 -29.980 -3014.986 0.033 0.030 0.128 -0.02 0.67 -0.74 0.06
1 0.28 28 -0.464 -9.735 0.977 2.625 -1.495 -0.122 -464.997 -29.980 -3014.986 -0.013 0.011 0.142 -0.02 0.67 -0.74 0.06
1 0.29 29 -0.397 -9.783 1.087 0.336 -1.312 -0.305 -254.984 74.951 -2939.885 -0.078 0.059 0.036 -0.02 0.67 -0.74 0.06
1 0.30 30 -0.488 -9.812 1.044 -2.502 -1.434 0.305 -389.896 -224.854 -3044.966 0.014 0.088 0.080 -0.02 0.67 -0.74 0.06
1 0.31 31 -0.493 -9.860 1.125 -2.808 -0.763 -0.122 -389.896 -224.854 -3044.966 0.019 0.136 -0.003 -0.02 0.67 -0.74 0.06
1 0.32 32 -0.455 -9.764 1.106 -3.571 -0.702 0.641 -179.883 -74.951 -3074.947 -0.018 0.039 0.013 -0.02 0.67 -0.74 0.06
1 0.33 33 -0.369 -9.893 1.144 -1.648 -1.251 0.214 -284.964 -29.980 -3044.966 -0.103 0.168 -0.031 -0.02 0.67 -0.74 0.06
1 0.34 34 -0.469 -9.864 1.235 -0.031 -1.617 1.038 -284.964 -104.932 -3014.986 -0.002 0.139 -0.122 -0.02 0.67 -0.74 0.06
1 0.35 35 -0.441 -9.759 1.226 0.610 -1.434 0.610 -284.964 -104.932 -3014.986 -0.031 0.034 -0.111 -0.02 0.67 -0.74 0.06
1 0.36 36 -0.460 -9.817 1.231 1.068 -0.977 0.702 -299.955 -89.941 -2954.875 -0.010 0.092 -0.113 -0.02 0.67 -0.74 0.06
1 0.37 37 -0.431 -9.821 1.073 1.129 -0.488 1.160 -254.984 0.000 -3044.966 -0.039 0.097 0.049 -0.02 0.67 -0.74 0.06
1 0.38 38 -0.584 -9.750 1.082 0.397 -0.641 0.427 -254.984 0.000 -3044.966 0.115 0.025 0.041 -0.02 0.67 -0.74 0.06
1 0.39 39 -0.680 -9.869 1.049 -0.244 -0.916 0.153 -344.925 -14.990 -3104.927 0.211 0.145 0.076 -0.02 0.67 -0.74 0.06
1 0.40 40 -0.474 -9.836 1.015 -0.488 -1.740 0.122 -254.984 29.980 -3014.986 0.003 0.112 0.109 -0.02 0.67 -0.74 0.06
1 0.41 41 -0.431 -9.711 0.982 -2.502 -1.587 -0.122 -344.925 -239.994 -2984.855 -0.039 -0.013 0.141 -0.02 0.67 -0.74 0.06
1 0.42 42 -0.397 -9.831 1.173 -2.869 -1.770 -0.183 -344.925 -239.994 -2984.855 -0.071 0.106 -0.053 -0.02 0.67 -0.74 0.06
1 0.43 43 -0.393 -10.008 1.283 -2.960 -0.671 0.519 -284.964 -74.951 -2969.865 -0.074 0.283 -0.165 -0.02 0.67 -0.74 0.06
1 0.44 44 -0.527 -9.951 1.245 -2.655 -0.854 0.488 -254.984 -74.951 -2894.914 0.061 0.226 -0.130 -0.02 0.67 -0.74 0.06
1 0.45 45 -0.426 -9.826 1.197 -0.244 -0.702 0.092 -254.984 -74.951 -2894.914 -0.039 0.101 -0.083 -0.02 0.67 -0.74 0.05
1 0.46 46 -0.402 -9.864 1.154 1.312 -0.824 0.153 -419.876 -44.971 -3029.976 -0.063 0.139 -0.040 -0.02 0.67 -0.74 0.06
1 0.47 47 -0.364 -9.850 1.235 1.862 -1.404 0.427 -419.876 -164.893 -3029.976 -0.100 0.125 -0.118 -0.02 0.67 -0.74 0.06
1 0.48 48 -0.407 -9.745 1.082 0.488 -0.977 0.641 -284.964 -74.951 -3074.947 -0.055 0.021 0.043 -0.02 0.67 -0.74 0.06
1 0.49 49 -0.393 -9.745 1.164 -0.885 -0.763 0.153 -284.964 -74.951 -3074.947 -0.069 0.021 -0.037 -0.02 0.66 -0.74 0.06
1 0.50 50 -0.345 -9.759 1.097 -2.319 -0.580 1.160 -329.935 -104.932 -3014.986 -0.116 0.035 0.030 -0.02 0.66 -0.74 0.06
1 0.51 51 -0.527 -9.745 1.188 -2.625 -0.793 0.702 -284.964 -29.980 -3044.966 0.066 0.020 -0.063 -0.02 0.67 -0.74 0.06
1 0.52 52 -0.579 -9.903 1.164 -2.472 0.610 1.678 -284.964 -29.980 -3044.966 0.118 0.178 -0.042 -0.02 0.67 -0.74 0.06
1 0.53 53 -0.627 -9.769 1.144 -1.495 -0.549 1.068 -389.896 -149.902 -3149.898 0.164 0.044 -0.025 -0.02 0.67 -0.74 0.06
1 0.54 54 -0.651 -9.903 1.111 0.092 -1.617 1.007 -209.863 -149.902 -3119.917 0.187 0.178 0.008 -0.02 0.67 -0.74 0.06
1 0.55 55 -0.541 -9.845 1.207 0.153 -3.021 0.732 -344.925 -119.922 -3029.976 0.075 0.121 -0.086 -0.02 0.67 -0.74 0.06
1 0.56 56 -0.536 -9.678 1.130 -0.488 -2.716 0.580 -344.925 -119.922 -3029.976 0.071 -0.047 -0.009 -0.02 0.67 -0.74 0.06
1 0.57 57 -0.546 -9.864 1.192 -1.190 -3.143 0.427 -344.925 -44.971 -2879.924 0.080 0.140 -0.070 -0.02 0.67 -0.74 0.06
1 0.58 58 -0.397 -9.860 1.212 -2.594 -3.021 0.946 -299.955 -119.922 -3059.957 -0.068 0.135 -0.090 -0.02 0.67 -0.74 0.06
1 0.59 59 -0.508 -10.013 1.245 -3.601 -1.984 0.519 -299.955 -119.922 -3059.957 0.043 0.288 -0.126 -0.02 0.67 -0.74 0.06
1 0.60 60 -0.431 -10.008 1.231 -1.953 -2.014 0.427 -299.955 14.990 -3059.957 -0.033 0.283 -0.115 -0.02 0.67 -0.74 0.06
1 0.61 61 -0.479 -9.845 1.149 0.000 -1.160 0.671 -299.955 -89.941 -3059.957 0.016 0.120 -0.036 -0.02 0.67 -0.74 0.06
1 0.62 62 -0.383 -9.869 1.197 1.617 -2.197 0.549 -299.955 -89.941 -3059.957 -0.079 0.144 -0.083 -0.02 0.67 -0.74 0.06
1 0.63 63 -0.508 -9.711 1.231 2.441 -1.434 1.190 -389.896 -149.902 -3014.986 0.047 -0.013 -0.109 -0.02 0.67 -0.74 0.06
1 0.64 64 -0.359 -9.807 1.164 0.793 -1.862 1.312 -209.863 -104.932 -3014.986 -0.102 0.083 -0.037 -0.02 0.66 -0.74 0.06
1 0.65 65 -0.302 -9.817 1.149 -2.319 -1.495 1.434 -209.863 -104.932 -3149.898 -0.159 0.093 -0.022 -0.02 0.66 -0.74 0.06
1 0.66 66 -0.417 -9.850 1.178 -4.303 -0.946 1.343 -209.863 -104.932 -3149.898 -0.043 0.126 -0.053 -0.02 0.67 -0.74 0.06
1 0.67 67 -0.350 -9.965 1.293 -4.303 -0.427 0.946 -359.916 -74.951 -3014.986 -0.110 0.240 -0.173 -0.02 0.67 -0.74 0.06
1 0.68 68 -0.431 -9.999 1.279 -1.373 -0.793 0.275 -359.916 -104.932 -3044.966 -0.028 0.273 -0.163 -0.02 0.67 -0.74 0.06
1 0.69 69 -0.321 -9.903 1.207 0.793 -0.946 0.702 -359.916 -104.932 -3044.966 -0.137 0.177 -0.091 -0.02 0.67 -0.74 0.06
1 0.70 70 -0.326 -9.797 1.164 2.686 -0.824 1.465 -269.974 -14.990 -2984.855 -0.131 0.073 -0.042 -0.02 0.67 -0.74 0.06
1 0.71 71 -0.350 -9.754 1.269 3.418 0.427 1.495 -419.876 -14.990 -2954.875 -0.107 0.030 -0.141 -0.02 0.66 -0.74 0.06
1 0.72 72 -0.488 -9.740 1.216 1.801 0.763 2.045 -434.867 -149.902 -3014.986 0.031 0.017 -0.082 -0.02 0.66 -0.74 0.06
1 0.73 73 -0.417 -9.759 1.226 -0.214 1.343 1.068 -434.867 -149.902 -3014.986 -0.042 0.036 -0.088 -0.02 0.66 -0.74 0.06
1 0.74 74 -0.584 -9.721 1.144 -2.136 0.336 1.129 -284.964 -149.902 -3119.917 0.125 -0.002 -0.007 -0.02 0.66 -0.74 0.06
1 0.75 75 -0.445 -9.735 1.216 -3.387 -0.275 1.282 -209.863 -104.932 -2939.885 -0.015 0.012 -0.080 -0.02 0.66 -0.74 0.06
1 0.76 76 -0.579 -9.994 1.068 -2.899 -0.183 0.427 -209.863 -104.932 -2939.885 0.118 0.270 0.065 -0.02 0.66 -0.74 0.06
1 0.77 77 -0.335 -9.960 1.135 -1.709 0.336 1.312 -389.896 -74.951 -3044.966 -0.126 0.236 -0.008 -0.02 0.66 -0.74 0.06
1 0.78 78 -0.306 -9.860 1.140 0.183 0.519 1.740 -344.925 -89.941 -3029.976 -0.155 0.136 -0.013 -0.02 0.67 -0.74 0.06
1 0.79 79 -0.345 -9.860 1.068 1.617 0.793 1.617 -224.854 -89.941 -3029.976 -0.117 0.136 0.061 -0.02 0.66 -0.74 0.06
1 0.80 80 -0.488 -9.888 1.121 2.594 1.190 1.343 -224.854 -89.941 -3029.976 0.026 0.165 0.011 -0.02 0.66 -0.74 0.05
1 0.81 81 -0.589 -9.855 1.063 1.953 0.885 1.434 -269.974 -14.990 -2954.875 0.125 0.132 0.073 -0.02 0.66 -0.74 0.05
1 0.82 82 -0.402 -9.807 1.068 0.244 0.702 2.258 -329.935 0.000 -3074.947 -0.062 0.085 0.073 -0.02 0.66 -0.75 0.05
1 0.83 83 -0.436 -9.884 1.231 -1.495 0.763 2.136 -329.935 0.000 -3074.947 -0.031 0.162 -0.089 -0.02 0.66 -0.75 0.05
1 0.84 84 -0.297 -9.951 1.106 -3.235 1.312 1.648 -329.935 -29.980 -3074.947 -0.173 0.228 0.032 -0.02 0.66 -0.75 0.05
1 0.85 85 -0.393 -9.922 1.077 -3.143 1.740 1.770 -434.867 -104.932 -3014.986 -0.078 0.199 0.057 -0.02 0.66 -0.74 0.05
1 0.86 86 -0.421 -9.922 1.164 -0.916 1.587 1.556 -299.955 -119.922 -2984.855 -0.050 0.199 -0.031 -0.02 0.66 -0.74 0.05
1 0.87 87 -0.493 -9.869 1.068 1.068 0.824 1.282 -299.955 -119.922 -2984.855 0.022 0.146 0.065 -0.02 0.66 -0.74 0.05
1 0.88 88 -0.402 -9.639 1.135 1.648 -0.122 1.343 -299.955 -89.941 -3059.957 -0.070 -0.083 0.000 -0.02 0.66 -0.74 0.05
1 0.89 89 -0.450 -9.836 1.082 1.129 0.854 1.343 -329.935 0.000 -2939.885 -0.023 0.114 0.057 -0.02 0.66 -0.75 0.05
1 0.90 90 -0.412 -9.932 1.178 0.397 0.885 1.495 -329.935 0.000 -2939.885 -0.061 0.210 -0.037 -0.02 0.66 -0.75 0.05
1 0.91 91 -0.508 -9.908 1.226 -1.068 2.167 1.617 -374.906 -14.990 -2954.875 0.033 0.186 -0.083 -0.02 0.66 -0.75 0.05
1 0.92 92 -0.517 -9.836 1.140 -2.686 1.984 1.373 -359.916 -299.955 -3014.986 0.039 0.114 0.000 -0.02 0.66 -0.75 0.05
1 0.93 93 -0.541 -9.932 1.197 -1.740 0.916 1.160 -299.955 14.990 -3104.927 0.062 0.210 -0.060 -0.02 0.66 -0.75 0.05
1 0.94 94 -0.570 -9.750 0.958 0.488 0.366 1.068 -299.955 14.990 -3104.927 0.089 0.028 0.179 -0.02 0.66 -0.75 0.05
1 0.95 95 -0.436 -9.797 1.025 3.265 0.275 1.556 -269.974 -14.990 -3029.976 -0.046 0.076 0.114 -0.02 0.66 -0.75 0.05
1 0.96 96 -0.551 -9.831 1.087 2.777 1.373 1.312 -464.997 -104.932 -3119.917 0.068 0.110 0.057 -0.02 0.66 -0.75 0.05
1 0.97 97 -0.512 -9.726 1.231 0.854 2.075 1.312 -464.997 -104.932 -3119.917 0.029 0.005 -0.081 -0.02 0.66 -0.75 0.05
1 0.98 98 -0.345 -9.999 1.164 -1.648 1.617 1.465 -344.925 -89.941 -3104.927 -0.140 0.279 -0.011 -0.02 0.66 -0.75 0.05
1 0.99 99 -0.388 -9.898 1.121 -3.174 1.038 1.526 -329.935 -104.932 -3074.947 -0.098 0.178 0.028 -0.01 0.66 -0.75 0.05
1 1.00 100 -0.402 -9.994 1.111 -1.495 1.068 1.526 -284.964 -29.980 -3014.986 -0.084 0.273 0.034 -0.01 0.66 -0.75 0.05
1 1.01 101 -0.441 -9.874 1.039 0.854 1.434 0.732 -284.964 -29.980 -3014.986 -0.046 0.153 0.105 -0.01 0.66 -0.75 0.05
1 1.02 102 -0.383 -9.879 1.015 3.052 2.441 1.221 -209.863 -149.902 -3074.947 -0.103 0.158 0.131 -0.01 0.66 -0.75 0.05
1 1.03 103 -0.417 -9.841 1.053 3.204 1.648 1.312 -359.916 -29.980 -3119.917 -0.070 0.121 0.098 -0.01 0.66 -0.75 0.05
1 1.04 104 -0.407 -9.903 1.082 1.129 -0.122 1.465 -359.916 -29.980 -3119.917 -0.080 0.183 0.074 -0.01 0.66 -0.75 0.05
1 1.05 105 -0.575 -9.936 1.216 -1.648 -0.061 2.167 -359.916 -224.854 -2894.914 0.087 0.217 -0.058 -0.01 0.66 -0.75 0.05
1 1.06 106 -0.498 -9.989 1.216 -1.923 0.092 2.472 -359.916 -224.854 -2894.914 0.009 0.270 -0.059 -0.01 0.66 -0.75 0.05
1 1.07 107 -0.532 -9.922 1.221 -0.244 2.136 2.502 -344.925 -164.893 -3029.976 0.038 0.203 -0.065 -0.01 0.66 -0.75 0.05
1 1.08 108 -0.589 -9.855 1.164 1.923 1.678 2.472 -344.925 -164.893 -3029.976 0.093 0.136 -0.006 -0.01 0.66 -0.75 0.05
1 1.09 109 -0.642 -9.788 1.111 3.662 0.824 2.594 -329.935 0.000 -3074.947 0.143 0.070 0.051 -0.01 0.66 -0.75 0.05
1 1.10 110 -0.733 -9.955 1.144 4.242 0.214 2.350 -269.974 -164.893 -3029.976 0.230 0.238 0.024 -0.01 0.66 -0.75 0.05
1 1.11 111 -0.661 -9.869 1.097 2.411 -2.319 2.869 -269.974 -164.893 -3029.976 0.154 0.153 0.079 -0.01 0.66 -0.75 0.05
1 1.12 112 -0.757 -9.841 1.183 1.923 -3.204 2.686 -284.964 -29.980 -3074.947 0.246 0.125 -0.003 -0.01 0.66 -0.75 0.05
1 1.13 113 -0.469 -9.750 1.144 1.038 -3.448 3.265 -284.964 -29.980 -3074.947 -0.044 0.035 0.039 -0.01 0.66 -0.75 0.05
1 1.14 114 -0.493 -9.750 1.077 2.655 -1.953 3.326 -224.854 -119.922 -3029.976 -0.027 0.036 0.113 -0.01 0.66 -0.75 0.05
1 1.15 115 -0.479 -9.740 0.967 2.777 -0.946 3.876 -224.854 -119.922 -3029.976 -0.045 0.027 0.228 -0.01 0.66 -0.75 0.05
1 1.16 116 -0.517 -9.745 1.034 2.289 -0.275 4.913 -299.955 -119.922 -3104.927 -0.011 0.033 0.165 -0.01 0.66 -0.75 0.05
1 1.17 117 -0.532 -9.769 1.039 0.916 0.549 4.456 -344.925 -164.893 -2984.855 -0.002 0.057 0.163 -0.01 0.66 -0.75 0.05
1 1.18 118 -0.776 -9.706 0.991 -0.977 0.580 3.113 -344.925 -164.893 -2984.855 0.237 -0.005 0.211 -0.01 0.66 -0.75 0.05
1 1.19 119 -0.723 -9.697 1.125 -1.343 -1.129 1.984 -284.964 -149.902 -2939.885 0.180 -0.014 0.076 -0.01 0.66 -0.75 0.06
1 1.20 120 -0.718 -9.750 1.178 -2.319 -2.960 2.014 -284.964 -149.902 -2939.885 0.172 0.039 0.023 -0.01 0.66 -0.75 0.06
1 1.21 121 -0.771 -9.797 1.125 -1.404 -5.890 1.099 -299.955 -44.971 -2984.855 0.221 0.086 0.072 -0.01 0.66 -0.75 0.06
1 1.22 122 -0.723 -9.888 1.082 0.275 -6.317 1.282 -299.955 -44.971 -2984.855 0.172 0.177 0.114 -0.01 0.66 -0.75 0.06
1 1.23 123 -0.613 -9.908 1.121 1.343 -4.669 2.441 -224.854 -44.971 -3209.859 0.061 0.197 0.077 -0.01 0.66 -0.75 0.06
1 1.24 124 -0.570 -9.975 1.216 1.740 -2.625 3.387 -284.964 -74.951 -3044.966 0.015 0.264 -0.016 -0.01 0.66 -0.75 0.06
1 1.25 125 -0.752 -9.826 1.130 1.953 -0.427 3.540 -284.964 -74.951 -3044.966 0.194 0.116 0.074 -0.01 0.66 -0.75 0.06
1 1.26 126 -0.838 -9.759 1.106 1.282 -0.122 2.563 -329.935 -104.932 -3074.947 0.275 0.050 0.102 -0.01 0.66 -0.75 0.06
1 1.27 127 -0.824 -9.783 1.125 0.702 -1.740 2.289 -329.935 -104.932 -3074.947 0.256 0.075 0.084 -0.01 0.66 -0.75 0.06
1 1.28 128 -0.809 -9.764 1.226 -0.275 -3.510 1.190 -179.883 -104.932 -2969.865 0.234 0.056 -0.014 -0.01 0.66 -0.75 0.06
1 1.29 129 -0.704 -9.888 1.202 -0.336 -3.723 1.495 -179.883 -104.932 -2969.865 0.127 0.181 0.011 -0.01 0.66 -0.75 0.06
1 1.30 130 -0.656 -9.855 1.173 -0.732 -2.441 1.923 -389.896 -104.932 -3119.917 0.077 0.147 0.039 -0.01 0.66 -0.75 0.06
1 1.31 131 -0.632 -9.740 1.149 -0.214 -1.404 2.716 -359.916 -29.980 -3119.917 0.051 0.033 0.063 -0.01 0.66 -0.75 0.06
1 1.32 132 -0.642 -9.831 1.125 0.519 -1.068 2.899 -359.916 -29.980 -3119.917 0.057 0.124 0.087 -0.01 0.66 -0.75 0.06
1 1.33 133 -0.723 -9.773 1.073 1.373 -0.732 3.540 -284.964 -104.932 -3044.966 0.135 0.067 0.142 -0.01 0.66 -0.75 0.06
1 1.34 134 -0.718 -9.745 1.173 0.275 -0.824 4.089 -284.964 -104.932 -3044.966 0.125 0.039 0.043 -0.01 0.66 -0.75 0.06
1 1.35 135 -0.766 -9.817 1.197 -0.916 -0.824 2.930 -209.863 -149.902 -3119.917 0.168 0.111 0.021 -0.01 0.66 -0.75 0.06
1 1.36 136 -0.848 -9.912 1.116 -1.007 -0.153 2.869 -284.964 -149.902 -2939.885 0.241 0.207 0.101 -0.01 0.66 -0.75 0.06
1 1.37 137 -0.833 -9.975 1.068 -0.641 0.122 2.899 -299.955 -119.922 -3104.927 0.221 0.270 0.148 -0.01 0.66 -0.75 0.06
1 1.38 138 -0.963 -9.874 0.943 0.671 1.465 2.716 -224.854 -89.941 -3029.976 0.345 0.169 0.272 -0.01 0.66 -0.75 0.06
1 1.39 139 -0.848 -9.821 1.082 1.740 0.763 2.563 -224.854 -89.941 -3029.976 0.225 0.117 0.134 -0.01 0.66 -0.75 0.06
1 1.40 140 -0.828 -9.759 1.149 1.556 -0.336 1.648 -359.916 -104.932 -3044.966 0.202 0.055 0.069 -0.01 0.66 -0.75 0.06
1 1.41 141 -0.804 -9.860 1.312 0.336 -1.038 0.977 -359.916 -104.932 -3044.966 0.175 0.156 -0.091 -0.01 0.66 -0.75 0.06
1 1.42 142 -0.699 -9.783 1.192 -1.068 -0.824 0.458 -344.925 14.990 -3164.888 0.068 0.080 0.030 -0.01 0.66 -0.75 0.06
1 1.43 143 -0.699 -9.831 1.159 0.641 -2.350 -0.549 -269.974 -119.922 -3059.957 0.067 0.128 0.064 -0.01 0.66 -0.75 0.06
1 1.44 144 -0.776 -9.797 0.919 2.747 -4.059 -2.075 -374.906 -89.941 -3209.859 0.146 0.095 0.306 -0.01 0.66 -0.75 0.06
1 1.45 145 -0.713 -9.783 0.977 4.669 -5.066 -2.930 -164.893 -44.971 -3134.908 0.088 0.081 0.253 -0.01 0.66 -0.75 0.06
1 1.46 146 -0.637 -9.912 1.030 3.906 -6.317 -4.150 -164.893 -44.971 -3134.908 0.018 0.210 0.207 -0.01 0.66 -0.75 0.06
1 1.47 147 -0.857 -9.893 1.159 3.448 -6.287 -5.280 -359.916 -149.902 -3014.986 0.247 0.192 0.084 -0.01 0.66 -0.75 0.06
1 1.48 148 -0.603 -9.989 1.350 -0.275 -7.446 -5.219 -359.916 -149.902 -3014.986 0.002 0.287 -0.102 -0.01 0.66 -0.75 0.06
1 1.49 149 -0.541 -10.056 1.413 -1.678 -7.629 -5.615 -329.935 -104.932 -3194.869 -0.050 0.354 -0.162 -0.01 0.66 -0.75 0.06
1 1.50 150 -0.479 -9.917 1.528 -1.953 -6.439 -3.204 -344.925 -284.964 -3059.957 -0.101 0.215 -0.277 -0.01 0.66 -0.75 0.06
1 1.51 151 -0.369 -9.821 1.398 -0.580 -4.211 -1.831 -329.935 0.000 -3119.917 -0.196 0.118 -0.146 -0.01 0.66 -0.75 0.06
1 1.52 152 -0.134 -9.874 1.413 -1.709 -3.754 -0.854 -374.906 -14.990 -3104.927 -0.425 0.171 -0.159 -0.01 0.66 -0.75 0.06
1 1.53 153 0.125 -9.754 1.571 -3.937 -3.052 -0.702 -374.906 -14.990 -3104.927 -0.678 0.051 -0.317 -0.01 0.66 -0.75 0.06
1 1.54 154 0.321 -9.941 1.868 -4.791 0.000 -1.007 -344.925 -44.971 -3134.908 -0.868 0.237 -0.617 -0.01 0.66 -0.75 0.06
1 1.55 155 0.354 -10.090 1.805 -1.801 6.378 -0.854 -344.925 -44.971 -3134.908 -0.893 0.384 -0.557 -0.01 0.66 -0.75 0.06
1 1.56 156 0.029 -9.860 1.504 3.754 6.958 -2.258 -329.935 -224.854 -3044.966 -0.560 0.154 -0.255 -0.01 0.66 -0.75 0.06
1 1.57 157 -0.172 -9.750 1.288 9.796 4.181 -3.326 -464.997 -29.980 -3194.869 -0.349 0.044 -0.032 -0.01 0.66 -0.75 0.06
1 1.58 158 -0.263 -9.572 1.475 15.686 -1.221 -3.632 -209.863 -179.883 -3194.869 -0.241 -0.129 -0.182 -0.01 0.66 -0.75 0.06
1 1.59 159 -0.283 -9.433 1.413 12.512 -0.153 -3.296 -389.896 74.951 -3149.898 -0.213 -0.265 -0.095 -0.02 0.66 -0.75 0.06
1 1.60 160 -0.249 -9.501 1.676 5.249 3.418 -2.869 -389.896 74.951 -3149.898 -0.239 -0.196 -0.339 -0.02 0.66 -0.75 0.06
1 1.61 161 -0.211 -9.711 1.829 -3.540 6.897 -1.740 -194.873 -119.922 -3059.957 -0.272 0.016 -0.485 -0.02 0.66 -0.75 0.06
1 1.62 162 -0.536 -10.032 1.724 -12.268 9.247 0.153 -194.873 -119.922 -3059.957 0.057 0.336 -0.385 -0.01 0.66 -0.75 0.05
1 1.63 163 -0.661 -10.051 1.551 -10.559 7.355 1.038 -344.925 -119.922 -3164.888 0.182 0.353 -0.225 -0.01 0.66 -0.75 0.05
1 1.64 164 -0.781 -10.157 1.245 -2.747 4.730 1.770 -389.896 -104.932 -3149.898 0.299 0.457 0.067 -0.01 0.66 -0.75 0.05
1 1.65 165 -0.651 -9.850 1.068 11.383 2.930 1.740 -299.955 -89.941 -3029.976 0.162 0.151 0.245 -0.01 0.66 -0.75 0.05
1 1.66 166 -0.709 -9.635 1.140 17.456 2.411 1.678 -374.906 -164.893 -3059.957 0.217 -0.062 0.192 -0.01 0.66 -0.75 0.05
1 1.67 167 -0.565 -9.309 1.087 16.541 2.350 0.824 -374.906 -164.893 -3059.957 0.070 -0.384 0.270 -0.01 0.66 -0.75 0.05
1 1.68 168 -0.584 -9.247 1.374 10.315 2.625 0.305 -299.955 -44.971 -3029.976 0.088 -0.443 0.005 -0.01 0.66 -0.75 0.05
1 1.69 169 -0.742 -9.347 1.374 0.854 2.106 -0.092 -299.955 -44.971 -3029.976 0.246 -0.340 0.019 -0.01 0.65 -0.75 0.05
1 1.70 170 -0.862 -9.649 1.283 -11.902 0.732 -0.977 -299.955 -284.964 -3104.927 0.365 -0.039 0.108 -0.01 0.65 -0.75 0.05
1 1.71 171 -0.809 -9.960 1.149 -14.587 -1.160 -0.946 -284.964 -254.984 -3014.986 0.311 0.270 0.227 -0.01 0.66 -0.75 0.05
1 1.72 172 -0.891 -10.046 1.077 -9.186 -2.167 -0.305 -344.925 -14.990 -3059.957 0.392 0.351 0.259 -0.01 0.66 -0.75 0.05
1 1.73 173 -0.919 -10.128 0.996 -5.615 -3.082 -0.763 -329.935 -179.883 -3119.917 0.420 0.431 0.328 -0.01 0.66 -0.75 0.05
1 1.74 174 -0.843 -10.166 0.919 6.104 -5.188 0.854 -329.935 -179.883 -3119.917 0.342 0.469 0.405 -0.01 0.66 -0.75 0.05
1 1.75 175 -0.857 -9.903 1.159 9.979 -6.439 1.282 -299.955 -164.893 -3104.927 0.354 0.207 0.175 -0.01 0.66 -0.75 0.05
1 1.76 176 -0.713 -9.630 1.168 8.087 -5.890 1.831 -299.955 -164.893 -3104.927 0.209 -0.064 0.180 -0.01 0.66 -0.75 0.05
1 1.77 177 -0.527 -9.592 1.365 1.343 -4.211 1.984 -224.854 -164.893 -3059.957 0.020 -0.101 -0.006 -0.01 0.66 -0.75 0.05
1 1.78 178 -0.512 -9.587 1.365 -3.601 -2.716 1.709 -269.974 -164.893 -3104.927 0.004 -0.104 -0.000 -0.01 0.66 -0.75 0.05
1 1.79 179 -0.374 -9.721 1.302 -6.775 -2.686 1.160 -269.974 -164.893 -3104.927 -0.136 0.029 0.061 -0.01 0.66 -0.75 0.05
1 1.80 180 -0.354 -9.898 1.293 -7.690 -3.296 0.610 -374.906 -119.922 -3209.859 -0.153 0.204 0.053 -0.01 0.66 -0.75 0.05
1 1.81 181 -0.311 -9.845 1.355 -5.249 -3.143 0.122 -374.906 -119.922 -3209.859 -0.194 0.150 -0.019 -0.01 0.66 -0.75 0.05
1 1.82 182 -0.297 -9.946 1.135 -2.014 -2.960 0.092 -104.932 -224.854 -3074.947 -0.206 0.250 0.195 -0.01 0.66 -0.75 0.05
1 1.83 183 -0.259 -9.951 1.183 0.671 -2.502 -0.275 -104.932 -224.854 -3074.947 -0.241 0.254 0.145 -0.01 0.66 -0.75 0.05
1 1.84 184 -0.201 -9.764 1.365 3.784 -1.129 0.031 -299.955 -164.893 -3104.927 -0.294 0.067 -0.034 -0.01 0.66 -0.75 0.05
1 1.85 185 -0.263 -9.721 1.350 2.441 -0.275 0.122 -254.984 -254.984 -3194.869 -0.228 0.025 -0.013 -0.01 0.66 -0.75 0.05
1 1.86 186 -0.244 -9.678 1.259 0.458 0.793 0.610 -254.984 -254.984 -3194.869 -0.244 -0.018 0.083 -0.01 0.66 -0.75 0.05
1 1.87 187 -0.503 -9.611 1.360 -3.113 1.404 0.427 -284.964 -104.932 -3194.869 0.018 -0.085 -0.017 -0.01 0.66 -0.75 0.05
1 1.88 188 -0.517 -9.644 1.408 -4.089 1.190 1.099 -284.964 -104.932 -3194.869 0.032 -0.052 -0.069 -0.01 0.66 -0.75 0.05
1 1.89 189 -0.527 -9.778 1.417 -4.334 1.099 1.404 -389.896 -149.902 -3074.947 0.040 0.082 -0.083 -0.01 0.66 -0.75 0.05
1 1.90 190 -0.536 -9.845 1.398 -4.547 1.495 2.502 -389.896 -149.902 -3074.947 0.048 0.148 -0.069 -0.01 0.66 -0.75 0.05
1 1.91 191 -0.594 -9.903 1.274 -3.387 1.770 3.021 -224.854 -239.994 -3059.957 0.102 0.205 0.051 -0.01 0.66 -0.75 0.05
1 1.92 192 -0.541 -9.845 1.298 -0.580 2.899 3.601 -344.925 -89.941 -3059.957 0.044 0.147 0.023 -0.01 0.66 -0.75 0.05
1 1.93 193 -0.498 -9.726 1.240 0.458 3.815 3.387 -344.925 -89.941 -3059.957 -0.004 0.028 0.080 -0.01 0.66 -0.75 0.05
1 1.94 194 -0.560 -9.692 1.073 1.007 4.150 3.540 -329.935 -104.932 -3074.947 0.053 -0.005 0.248 -0.01 0.66 -0.75 0.05
1 1.95 195 -0.713 -9.721 1.044 -0.854 3.784 2.869 -284.964 -74.951 -3074.947 0.197 0.024 0.279 -0.01 0.66 -0.75 0.05
1 1.96 196 -0.857 -9.548 1.101 -2.441 3.693 2.960 -389.896 -149.902 -3194.869 0.335 -0.148 0.219 -0.01 0.66 -0.75 0.05
1 1.97 197 -0.838 -9.558 0.963 -4.791 2.350 1.709 -389.896 -149.902 -3194.869 0.310 -0.139 0.352 -0.01 0.66 -0.75 0.05
1 1.98 198 -1.077 -9.501 0.862 -6.165 0.946 1.007 -389.896 -254.984 -3119.917 0.545 -0.197 0.444 -0.01 0.66 -0.75 0.05
1 1.99 199 -1.006 -9.644 0.814 -6.592 -2.289 -0.153 -194.873 -239.994 -3209.859 0.470 -0.055 0.481 -0.01 0.66 -0.75 0.05
1 2.00 200 -0.919 -9.682 0.857 -7.050 -3.571 -1.160 -194.873 -239.994 -3209.859 0.383 -0.018 0.427 -0.01 0.66 -0.75 0.05
1 2.01 201 -0.929 -9.692 0.728 -5.646 -4.395 -2.228 -269.974 -164.893 -3164.888 0.392 -0.010 0.544 -0.01 0.66 -0.75 0.05
1 2.02 202 -0.680 -9.548 0.757 -3.693 -5.585 -3.052 -359.916 -224.854 -3299.950 0.148 -0.157 0.495 -0.01 0.66 -0.75 0.05
1 2.03 203 -0.713 -9.448 0.919 -3.296 -6.653 -3.540 -374.906 -119.922 -3029.976 0.187 -0.259 0.325 -0.01 0.66 -0.75 0.05
1 2.04 204 -0.584 -9.635 0.747 -4.822 -7.355 -3.357 -374.906 -119.922 -3029.976 0.065 -0.073 0.491 -0.01 0.66 -0.75 0.05
1 2.05 205 -0.575 -9.448 1.015 -7.416 -5.432 -3.845 -254.984 -74.951 -3119.917 0.062 -0.261 0.214 -0.01 0.66 -0.75 0.05
1 2.06 206 -0.211 -9.524 0.900 -11.597 -3.967 -3.113 -254.984 -254.984 -3074.947 -0.294 -0.186 0.317 -0.01 0.66 -0.75 0.05
1 2.07 207 0.000 -9.544 0.905 -12.939 -3.448 -1.709 -254.984 -254.984 -3074.947 -0.497 -0.170 0.296 -0.01 0.66 -0.75 0.05
1 2.08 208 0.110 -9.797 1.058 -13.519 -2.930 -2.930 -329.935 -104.932 -3074.947 -0.600 0.081 0.123 -0.01 0.66 -0.75 0.05
1 2.09 209 0.211 -10.046 1.125 -13.763 -1.587 -3.845 -359.916 -224.854 -3014.986 -0.680 0.325 0.017 -0.02 0.66 -0.75 0.05
1 2.10 210 0.029 -10.343 1.302 -12.054 -2.411 -5.096 -269.974 -164.893 -3029.976 -0.485 0.619 -0.179 -0.02 0.67 -0.74 0.05
1 2.11 211 -0.043 -10.497 1.144 -8.575 -4.181 -5.005 -269.974 -164.893 -3029.976 -0.399 0.769 -0.036 -0.02 0.67 -0.74 0.05
1 2.12 212 -0.187 -10.540 1.207 -3.448 -5.188 -5.615 -389.896 29.980 -3119.917 -0.242 0.811 -0.108 -0.02 0.67 -0.74 0.05
1 2.13 213 -0.259 -10.659 1.216 1.526 -6.928 -4.242 -209.863 -224.854 -2939.885 -0.158 0.930 -0.119 -0.02 0.67 -0.74 0.05
1 2.14 214 -0.254 -10.439 1.149 7.202 -8.392 -1.862 -209.863 -224.854 -2939.885 -0.153 0.710 -0.047 -0.02 0.67 -0.74 0.05
1 2.15 215 -0.091 -10.133 1.269 9.583 -6.744 -0.610 -254.984 0.000 -3074.947 -0.308 0.404 -0.156 -0.02 0.67 -0.74 0.05
1 2.16 216 -0.292 -9.879 1.326 11.932 -3.906 0.427 -389.896 -149.902 -3119.917 -0.097 0.154 -0.180 -0.02 0.66 -0.75 0.05
1 2.17 217 -0.350 -9.817 1.006 12.360 -4.334 0.244 -359.916 -74.951 -2969.865 -0.037 0.094 0.162 -0.02 0.66 -0.75 0.05
1 2.18 218 -0.287 -9.697 1.015 8.423 -7.172 1.068 -359.916 -74.951 -2969.865 -0.098 -0.024 0.169 -0.02 0.66 -0.75 0.05
1 2.19 219 -0.268 -9.625 0.939 3.448 -8.972 0.854 -374.906 -89.941 -2984.855 -0.115 -0.094 0.258 -0.02 0.66 -0.75 0.05
1 2.20 220 -0.086 -9.630 1.235 -1.282 -7.874 0.397 -389.896 0.000 -2969.865 -0.294 -0.089 -0.035 -0.02 0.66 -0.75 0.05
1 2.21 221 -0.249 -9.888 0.991 -3.082 -5.066 0.275 -389.896 0.000 -2969.865 -0.128 0.169 0.207 -0.02 0.66 -0.75 0.05
1 2.22 222 -0.148 -9.984 0.924 -1.373 -4.730 0.305 -389.896 29.980 -2969.865 -0.225 0.264 0.270 -0.02 0.66 -0.75 0.05
1 2.23 223 -0.201 -9.984 1.001 2.380 -5.859 0.641 -449.857 -89.941 -3029.976 -0.170 0.264 0.189 -0.02 0.66 -0.75 0.05
1 2.24 224 0.048 -9.864 0.766 10.986 -9.125 0.366 -224.854 -209.863 -3029.976 -0.413 0.145 0.434 -0.02 0.66 -0.75 0.05
1 2.25 225 0.239 -9.869 0.656 16.052 -10.101 0.671 -224.854 -209.863 -3029.976 -0.600 0.152 0.561 -0.02 0.66 -0.75 0.05
1 2.26 226 0.417 -9.745 0.517 17.822 -7.965 1.343 -434.867 -74.951 -3194.869 -0.771 0.030 0.722 -0.02 0.66 -0.75 0.06
1 2.27 227 0.651 -9.663 0.402 15.259 -3.937 2.045 -449.857 -209.863 -3104.927 -1.000 -0.049 0.860 -0.03 0.66 -0.75 0.06
1 2.28 228 0.737 -9.644 0.417 11.810 1.373 2.289 -449.857 -209.863 -3104.927 -1.081 -0.066 0.863 -0.03 0.66 -0.75 0.06
1 2.29 229 0.713 -9.831 0.417 8.026 3.937 2.228 -299.955 -119.922 -3134.908 -1.051 0.122 0.876 -0.03 0.66 -0.75 0.06
1 2.30 230 0.455 -10.133 0.354 3.906 4.334 0.946 -419.876 -239.994 -3209.859 -0.787 0.425 0.945 -0.03 0.66 -0.75 0.05
1 2.31 231 0.225 -10.468 0.532 0.244 3.204 -1.251 -329.935 -299.955 -3149.898 -0.545 0.759 0.767 -0.03 0.66 -0.75 0.05
1 2.32 232 -0.096 -10.755 0.661 -0.519 2.655 -3.326 -329.935 -299.955 -3149.898 -0.216 1.046 0.632 -0.03 0.66 -0.75 0.05
1 2.33 233 -0.254 -10.846 0.670 0.244 1.648 -4.944 -449.857 -119.922 -3104.927 -0.050 1.136 0.617 -0.03 0.66 -0.75 0.05
1 2.34 234 -0.402 -10.961 0.570 3.693 -1.373 -6.165 -209.863 -29.980 -3074.947 0.107 1.251 0.720 -0.03 0.66 -0.75 0.05
1 2.35 235 -0.268 -10.717 0.541 9.522 -4.425 -5.585 -209.863 -29.980 -3074.947 -0.016 1.007 0.758 -0.03 0.66 -0.75 0.05
1 2.36 236 -0.072 -10.339 0.599 18.250 -5.859 -3.845 -434.867 -149.902 -3149.898 -0.203 0.631 0.715 -0.03 0.66 -0.75 0.05
1 2.37 237 0.029 -10.090 0.771 20.325 -4.974 -3.174 -494.978 -119.922 -3134.908 -0.294 0.384 0.563 -0.03 0.66 -0.75 0.05
1 2.38 238 0.129 -9.888 0.685 17.761 -3.143 -3.113 -494.978 -119.922 -3134.908 -0.385 0.186 0.674 -0.03 0.66 -0.75 0.05
1 2.39 239 0.172 -9.788 0.584 9.613 -0.458 -2.594 -449.857 -209.863 -3239.989 -0.411 0.091 0.816 -0.03 0.65 -0.75 0.05
1 2.40 240 0.014 -9.773 0.551 5.768 -1.373 -2.289 -449.857 -89.941 -3164.888 -0.246 0.078 0.858 -0.03 0.65 -0.75 0.05
1 2.41 241 -0.086 -9.778 0.575 3.693 -4.547 -2.777 -464.997 -104.932 -3194.869 -0.139 0.083 0.836 -0.03 0.65 -0.75 0.05
1 2.42 242 0.034 -9.721 0.747 2.655 -6.714 -1.984 -464.997 -104.932 -3194.869 -0.251 0.025 0.664 -0.03 0.65 -0.75 0.05
1 2.43 243 -0.225 -9.788 0.824 6.378 -7.538 -1.709 -449.857 -359.916 -3164.888 0.014 0.092 0.588 -0.03 0.65 -0.75 0.05
1 2.44 244 -0.057 -9.783 0.895 12.268 -6.042 -1.312 -419.876 44.971 -3134.908 -0.147 0.088 0.521 -0.03 0.65 -0.75 0.05
1 2.45 245 0.081 -9.668 0.565 16.968 -3.479 -1.312 -419.876 44.971 -3134.908 -0.281 -0.025 0.864 -0.03 0.65 -0.76 0.05
1 2.46 246 0.211 -9.462 0.637 16.480 0.122 -0.031 -389.896 -179.883 -3119.917 -0.401 -0.225 0.834 -0.03 0.65 -0.76 0.05
1 2.47 247 0.038 -9.529 0.618 12.787 2.014 -0.275 -359.916 0.000 -3149.898 -0.225 -0.155 0.872 -0.03 0.65 -0.76 0.05
1 2.48 248 0.239 -9.405 0.579 6.531 2.777 0.397 -434.867 -254.984 -3194.869 -0.423 -0.278 0.922 -0.03 0.65 -0.76 0.05
1 2.49 249 0.139 -9.563 0.651 1.373 2.045 -0.854 -434.867 -254.984 -3194.869 -0.320 -0.119 0.853 -0.03 0.65 -0.76 0.05
1 2.50 250 0.182 -9.893 0.584 -2.686 1.129 -0.580 -524.958 -44.971 -3134.908 -0.358 0.210 0.915 -0.03 0.65 -0.76 0.05
1 2.51 251 0.187 -10.219 0.565 -2.716 1.282 -2.014 -449.857 -164.893 -3239.989 -0.359 0.534 0.926 -0.03 0.65 -0.76 0.05
1 2.52 252 0.263 -10.396 0.455 -0.214 1.221 -1.770 -449.857 -164.893 -3239.989 -0.429 0.710 1.026 -0.03 0.65 -0.76 0.05
1 2.53 253 0.306 -10.219 0.469 8.637 0.916 -1.007 -509.968 -179.883 -3194.869 -0.459 0.531 1.003 -0.03 0.65 -0.76 0.05
1 2.54 254 0.508 -10.080 0.517 13.275 1.160 0.031 -509.968 -254.984 -3194.869 -0.655 0.394 0.963 -0.03 0.65 -0.76 0.05
1 2.55 255 0.388 -9.922 0.532 14.465 2.594 0.580 -374.906 -284.964 -3209.859 -0.530 0.237 0.962 -0.03 0.65 -0.76 0.05
1 2.56 256 0.306 -9.951 0.646 14.526 4.272 1.526 -374.906 -284.964 -3209.859 -0.446 0.269 0.863 -0.03 0.65 -0.76 0.05
1 2.57 257 0.187 -9.668 0.517 12.695 5.768 2.350 -434.867 -374.906 -3194.869 -0.326 -0.012 1.007 -0.03 0.65 -0.76 0.05
1 2.58 258 0.053 -9.745 0.594 10.620 7.507 2.563 -509.968 -254.984 -3119.917 -0.192 0.067 0.943 -0.03 0.65 -0.76 0.05
1 2.59 259 -0.081 -9.630 0.230 9.979 7.507 2.563 -509.968 -254.984 -3119.917 -0.060 -0.046 1.318 -0.03 0.65 -0.76 0.05
1 2.60 260 -0.034 -9.759 0.177 13.306 7.324 1.617 -539.948 -254.984 -3194.869 -0.115 0.086 1.386 -0.03 0.65 -0.76 0.05
1 2.61 261 -0.129 -9.702 0.144 14.252 7.172 1.129 -539.948 -329.935 -3299.950 -0.021 0.030 1.430 -0.03 0.65 -0.76 0.05
1 2.62 262 0.014 -9.864 0.158 12.848 6.409 -1.556 -389.896 -299.955 -3299.950 -0.165 0.195 1.427 -0.03 0.65 -0.76 0.05
1 2.63 263 0.172 -9.836 0.153 11.566 6.683 -4.395 -389.896 -299.955 -3299.950 -0.319 0.167 1.440 -0.03 0.65 -0.76 0.05
1 2.64 264 0.244 -9.917 0.125 11.475 6.836 -7.050 -389.896 -299.955 -3299.950 -0.382 0.250 1.476 -0.03 0.65 -0.76 0.05
1 2.65 265 0.666 -9.917 0.096 15.381 6.775 -7.996 -389.896 -329.935 -3224.999 -0.790 0.251 1.513 -0.03 0.65 -0.76 0.05
1 2.66 266 0.800 -10.042 -0.014 18.005 7.263 -7.568 -389.896 -329.935 -3224.999 -0.909 0.377 1.634 -0.03 0.65 -0.76 0.04
1 2.67 267 0.948 -9.970 0.024 19.074 8.789 -7.660 -464.997 -254.984 -3299.950 -1.041 0.308 1.610 -0.03 0.64 -0.76 0.04
1 2.68 268 1.053 -10.123 -0.019 19.409 14.404 -7.172 -494.978 -209.863 -3359.911 -1.112 0.466 1.688 -0.03 0.64 -0.76 0.04
1 2.69 269 1.030 -10.080 -0.278 18.585 18.127 -7.416 -524.958 -239.994 -3209.859 -1.073 0.426 1.963 -0.03 0.64 -0.76 0.04
1 2.70 270 0.752 -10.118 -0.402 17.670 20.844 -7.782 -524.958 -239.994 -3209.859 -0.780 0.467 2.101 -0.03 0.64 -0.76 0.04
1 2.71 271 0.421 -10.224 -0.067 16.693 19.074 -9.003 -209.863 -374.906 -3404.882 -0.436 0.574 1.777 -0.03 0.64 -0.77 0.04
1 2.72 272 -0.618 -10.391 0.924 16.693 9.186 -14.526 -419.876 -314.945 -3359.911 0.618 0.743 0.797 -0.03 0.64 -0.77 0.04
1 2.73 273 -1.264 -10.712 1.844 12.817 4.730 -21.301 -419.876 -314.945 -3359.911 1.282 1.067 -0.107 -0.03 0.64 -0.77 0.03
1 2.74 274 -1.906 -11.014 1.877 0.275 -1.831 -29.053 -389.896 -254.984 -3299.950 1.946 1.372 -0.124 -0.03 0.64 -0.77 0.03
1 2.75 275 -1.666 -11.047 1.494 -5.890 -18.890 -34.485 -389.896 -494.978 -3329.931 1.800 1.406 0.257 -0.03 0.64 -0.77 0.03
1 2.76 276 -1.020 -10.674 1.508 9.522 -26.795 -32.227 -434.867 -419.876 -3254.979 1.210 1.033 0.239 -0.04 0.64 -0.77 0.03
1 2.77 277 -0.479 -10.118 2.184 30.670 -23.560 -29.205 -434.867 -419.876 -3254.979 0.724 0.483 -0.414 -0.04 0.64 -0.77 0.03
1 2.78 278 -0.249 -9.477 2.969 41.962 -12.268 -29.419 -434.867 -374.906 -3329.931 0.537 -0.148 -1.147 -0.04 0.64 -0.77 0.03
1 2.79 279 -0.139 -8.854 2.749 33.112 -5.005 -28.961 -419.876 -359.916 -3239.989 0.470 -0.756 -0.857 -0.04 0.63 -0.77 0.03
1 2.80 280 -0.043 -8.701 2.385 13.794 -16.327 -24.262 -419.876 -359.916 -3239.989 0.416 -0.895 -0.430 -0.05 0.63 -0.77 0.03
1 2.81 281 0.455 -8.648 2.241 -9.766 -31.403 -14.984 -614.899 -374.906 -3254.979 -0.043 -0.939 -0.252 -0.05 0.63 -0.78 0.03
1 2.82 282 0.757 -8.888 2.370 -26.032 -36.621 -3.876 -614.899 -374.906 -3254.979 -0.312 -0.699 -0.383 -0.05 0.63 -0.78 0.03
1 2.83 283 1.331 -9.400 2.543 -32.074 -18.219 6.042 -629.890 -584.919 -3284.960 -0.854 -0.199 -0.628 -0.05 0.63 -0.77 0.03
1 2.84 284 1.662 -10.228 2.595 -33.997 2.686 6.439 -629.890 -584.919 -3284.960 -1.183 0.621 -0.723 -0.06 0.63 -0.77 0.03
1 2.85 285 1.896 -11.445 2.615 -41.046 21.454 8.911 -629.890 -509.968 -3359.911 -1.421 1.828 -0.787 -0.06 0.64 -0.77 0.03
1 2.86 286 1.542 -12.637 2.658 -52.094 28.656 13.611 -659.870 -374.906 -3299.950 -1.087 3.008 -0.892 -0.05 0.64 -0.77 0.03
1 2.87 287 0.541 -13.025 2.629 -55.725 18.555 26.337 -659.870 -374.906 -3299.950 -0.116 3.381 -0.941 -0.05 0.64 -0.77 0.03
1 2.88 288 -0.244 -12.479 2.423 -35.217 10.040 32.745 -629.890 -464.997 -3314.940 0.629 2.819 -0.817 -0.05 0.64 -0.76 0.03
1 2.89 289 -0.948 -11.402 2.399 -3.052 7.721 37.079 -629.890 -464.997 -3314.940 1.285 1.730 -0.852 -0.05 0.65 -0.76 0.03
1 2.90 290 -1.513 -9.649 2.265 42.542 14.801 39.551 -614.899 -374.906 -3194.869 1.737 -0.022 -0.699 -0.04 0.65 -0.76 0.03
1 2.91 291 -1.887 -8.663 2.394 55.603 19.226 38.880 -614.899 -374.906 -3194.869 2.037 -0.998 -0.752 -0.04 0.64 -0.76 0.04
1 2.92 292 -2.179 -7.767 2.385 51.483 17.578 35.919 -614.899 -254.984 -3074.947 2.255 -1.878 -0.652 -0.04 0.64 -0.77 0.04
1 2.93 293 -2.299 -7.130 2.552 31.525 7.996 30.975 -464.997 -224.854 -3374.901 2.320 -2.502 -0.749 -0.03 0.64 -0.77 0.04
1 2.94 294 -1.992 -7.135 2.595 -12.939 -14.313 22.461 -464.997 -224.854 -3374.901 1.969 -2.491 -0.754 -0.03 0.64 -0.77 0.04
1 2.95 295 -1.446 -7.489 2.658 -39.215 -27.069 16.357 -524.958 -359.916 -3284.960 1.392 -2.137 -0.823 -0.03 0.64 -0.77 0.04
1 2.96 296 -0.589 -7.925 2.538 -53.436 -32.898 9.369 -524.958 -359.916 -3284.960 0.516 -1.710 -0.751 -0.03 0.64 -0.77 0.05
1 2.97 297 0.407 -8.955 2.442 -49.317 -27.344 1.740 -584.919 -419.876 -3119.917 -0.486 -0.708 -0.808 -0.04 0.64 -0.76 0.05
1 2.98 298 0.809 -9.764 2.413 -34.577 -16.144 -0.732 -584.919 -419.876 -3119.917 -0.881 0.091 -0.839 -0.04 0.65 -0.76 0.05
1 2.99 299 0.776 -10.468 2.370 -16.632 -5.127 -1.740 -659.870 -419.876 -3194.869 -0.835 0.789 -0.833 -0.04 0.65 -0.76 0.05
1 3.00 300 0.512 -10.841 2.524 -2.045 2.380 0.000 -434.867 -419.876 -3074.947 -0.561 1.161 -0.998 -0.04 0.65 -0.76 0.05
1 3.01 301 0.374 -11.014 2.897 4.639 5.585 2.075 -434.867 -419.876 -3074.947 -0.423 1.334 -1.370 -0.04 0.65 -0.76 0.05
1 3.02 302 -0.321 -10.860 3.362 4.303 9.979 6.989 -584.919 -254.984 -3119.917 0.267 1.182 -1.825 -0.04 0.65 -0.76 0.05
1 3.03 303 -0.474 -10.501 3.055 1.770 13.550 10.468 -584.919 -254.984 -3119.917 0.410 0.824 -1.510 -0.04 0.65 -0.76 0.05
1 3.04 304 -0.939 -9.898 2.504 0.092 14.191 15.625 -449.857 -239.994 -3104.927 0.835 0.223 -0.947 -0.04 0.65 -0.76 0.05
1 3.05 305 -1.149 -9.654 2.155 0.793 13.062 17.212 -449.857 -239.994 -3104.927 1.013 -0.019 -0.589 -0.03 0.65 -0.76 0.05
1 3.06 306 -1.264 -9.060 1.480 5.676 5.981 23.071 -494.978 -314.945 -3029.976 1.088 -0.611 0.095 -0.03 0.65 -0.76 0.05
1 3.07 307 -1.264 -8.576 1.255 10.895 1.770 26.154 -494.978 -389.896 -3164.888 1.044 -1.092 0.332 -0.03 0.65 -0.76 0.05
1 3.08 308 -1.331 -8.169 1.092 13.519 -1.465 26.306 -494.978 -389.896 -3164.888 1.069 -1.495 0.513 -0.03 0.65 -0.76 0.06
1 3.09 309 -1.049 -7.791 1.360 9.674 -3.021 20.599 -539.948 -329.935 -3224.999 0.750 -1.869 0.266 -0.03 0.65 -0.76 0.06
1 3.10 310 -1.116 -7.853 1.326 0.641 -0.031 16.022 -539.948 -329.935 -3224.999 0.787 -1.802 0.317 -0.03 0.64 -0.76 0.06
1 3.11 311 -0.986 -8.318 1.513 -10.620 4.150 11.292 -494.978 -509.968 -3239.989 0.633 -1.336 0.136 -0.03 0.64 -0.76 0.06
1 3.12 312 -1.216 -9.175 1.575 -23.560 9.125 9.033 -449.857 -389.896 -3209.859 0.829 -0.484 0.037 -0.03 0.65 -0.76 0.06
1 3.13 313 -1.441 -9.568 1.365 -25.574 9.644 9.705 -344.925 -389.896 -3239.989 1.033 -0.096 0.213 -0.02 0.65 -0.76 0.06
1 3.14 314 -1.398 -9.821 1.183 -17.731 6.470 10.559 -329.935 -419.876 -3149.898 0.967 0.153 0.358 -0.02 0.65 -0.76 0.06
1 3.15 315 -1.384 -9.558 0.752 -1.892 1.007 11.414 -329.935 -419.876 -3149.898 0.929 -0.113 0.767 -0.02 0.65 -0.76 0.06
1 3.16 316 -1.082 -9.074 0.211 20.966 -5.890 10.437 -419.876 -359.916 -2984.855 0.605 -0.596 1.308 -0.02 0.65 -0.76 0.06
1 3.17 317 -0.996 -8.677 0.369 25.574 -9.125 6.683 -419.876 -359.916 -2984.855 0.500 -0.989 1.171 -0.02 0.65 -0.76 0.06
1 3.18 318 -0.852 -8.543 0.378 16.815 -8.484 5.371 -329.935 -299.955 -3149.898 0.344 -1.117 1.192 -0.02 0.65 -0.76 0.06
1 3.19 319 -0.579 -8.691 0.747 -12.024 -1.312 3.998 -299.955 -359.916 -3029.976 0.061 -0.962 0.860 -0.02 0.65 -0.76 0.06
1 3.20 320 -0.402 -8.878 0.785 -28.870 4.395 2.136 -389.896 -329.935 -3074.947 -0.120 -0.779 0.797 -0.02 0.65 -0.76 0.06
1 3.21 321 -0.412 -9.175 0.536 -35.431 8.392 0.824 -269.974 -464.997 -3134.908 -0.114 -0.490 0.998 -0.02 0.65 -0.76 0.06
1 3.22 322 -0.330 -9.381 0.388 -32.440 8.820 -0.519 -269.974 -464.997 -3134.908 -0.196 -0.293 1.089 -0.02 0.65 -0.76 0.06
1 3.23 323 -0.493 -9.271 0.306 -23.499 10.071 -1.892 -374.906 -359.916 -3209.859 -0.032 -0.411 1.119 -0.02 0.65 -0.75 0.06
1 3.24 324 -0.680 -9.338 0.158 -10.895 10.071 -3.693 -374.906 -359.916 -3209.859 0.157 -0.350 1.229 -0.02 0.65 -0.75 0.06
1 3.25 325 -0.685 -9.285 0.283 -6.134 9.399 -4.944 -434.867 -374.906 -3014.986 0.166 -0.406 1.077 -0.02 0.66 -0.75 0.06
1 3.26 326 -0.881 -9.261 0.388 -6.989 7.751 -8.026 -329.935 -329.935 -3014.986 0.366 -0.433 0.954 -0.02 0.66 -0.75 0.06
1 3.27 327 -1.111 -9.529 0.685 -19.043 3.998 -8.331 -374.906 -239.994 -3134.908 0.614 -0.171 0.616 -0.02 0.66 -0.75 0.06
1 3.28 328 -1.168 -9.668 0.881 -24.048 2.502 -8.362 -389.896 -224.854 -3044.966 0.681 -0.037 0.385 -0.02 0.66 -0.75 0.06
1 3.29 329 -1.370 -9.979 0.919 -25.055 1.526 -7.813 -389.896 -224.854 -3044.966 0.889 0.268 0.308 -0.02 0.66 -0.75 0.06
1 3.30 330 -1.389 -10.209 0.943 -20.325 0.793 -7.660 -389.896 -299.955 -2969.865 0.914 0.493 0.247 -0.02 0.66 -0.75 0.06
1 3.31 331 -1.370 -10.295 0.776 -9.277 1.831 -3.662 -389.896 -299.955 -2969.865 0.899 0.576 0.385 -0.02 0.66 -0.75 0.06
1 3.32 332 -1.336 -10.152 0.551 -2.716 4.028 1.068 -509.968 -179.883 -3044.966 0.867 0.430 0.592 -0.02 0.66 -0.75 0.06
1 3.33 333 -1.101 -10.051 0.436 0.488 7.416 3.662 -359.916 -224.854 -3044.966 0.626 0.329 0.698 -0.02 0.66 -0.74 0.06
1 3.34 334 -1.264 -10.123 0.211 -8.392 11.414 4.211 -434.867 -374.906 -3119.917 0.766 0.400 0.911 -0.02 0.67 -0.74 0.06
1 3.35 335 -1.255 -10.377 -0.010 -18.280 10.620 2.747 -359.916 -449.857 -2894.914 0.744 0.652 1.108 -0.02 0.67 -0.74 0.06
1 3.36 336 -1.360 -10.817 -0.177 -25.391 6.042 0.000 -359.916 -449.857 -2894.914 0.840 1.089 1.237 -0.02 0.67 -0.74 0.06
1 3.37 337 -1.652 -11.220 -0.244 -26.093 -1.892 -3.326 -419.876 -164.893 -3029.976 1.131 1.486 1.261 -0.01 0.67 -0.74 0.06
1 3.38 338 -1.820 -11.588 -0.364 -18.433 -15.350 -9.583 -419.876 -164.893 -3029.976 1.307 1.851 1.344 -0.02 0.67 -0.74 0.06
1 3.39 339 -2.016 -11.828 -0.072 -11.292 -20.508 -13.275 -509.968 -224.854 -2864.934 1.520 2.087 1.025 -0.02 0.67 -0.74 0.06
1 3.40 340 -2.217 -12.091 0.862 -3.632 -20.233 -16.174 -374.906 -239.994 -2954.875 1.744 2.347 0.074 -0.02 0.67 -0.74 0.06
1 3.41 341 -1.906 -13.384 2.322 10.864 -12.573 -18.005 -449.857 -239.994 -2849.943 1.491 3.638 -1.386 -0.02 0.67 -0.74 0.06
1 3.42 342 -0.742 -14.696 2.725 14.160 -9.155 -9.613 -539.948 -329.935 -2939.885 0.356 4.951 -1.767 -0.02 0.67 -0.74 0.06
1 3.43 343 0.532 -15.716 2.289 -2.472 -7.690 13.733 -539.948 -329.935 -2939.885 -0.909 5.972 -1.313 -0.03 0.67 -0.74 0.06
1 3.44 344 0.599 -15.141 1.015 -10.468 -2.716 36.224 -494.978 -164.893 -2849.943 -1.004 5.398 -0.047 -0.03 0.67 -0.74 0.06
1 3.45 345 0.057 -13.398 -0.038 10.864 9.979 39.581 -494.978 -164.893 -2849.943 -0.520 3.656 0.998 -0.02 0.67 -0.74 0.06
1 3.46 346 -0.575 -10.875 -0.125 46.814 15.656 26.306 -584.919 -224.854 -2789.982 0.055 1.139 1.112 -0.02 0.67 -0.74 0.06
1 3.47 347 -0.781 -10.224 0.929 39.765 7.477 16.602 -509.968 -254.984 -2969.865 0.216 0.497 0.123 -0.02 0.67 -0.74 0.06
1 3.48 348 -0.757 -10.339 2.557 -8.637 7.050 10.834 -509.968 -254.984 -2789.982 0.145 0.625 -1.415 -0.02 0.66 -0.74 0.06
1 3.49 349 -0.555 -10.458 3.069 -27.741 10.925 11.719 -494.978 -314.945 -2879.924 -0.074 0.743 -1.945 -0.01 0.67 -0.74 0.06
1 3.50 350 -0.038 -10.401 3.165 -52.796 24.628 16.052 -494.978 -314.945 -2879.924 -0.615 0.679 -2.112 -0.01 0.67 -0.74 0.06
1 3.51 351 -0.105 -9.750 2.342 -31.860 24.933 13.214 -419.876 -209.863 -2984.855 -0.575 0.022 -1.364 -0.01 0.67 -0.74 0.06
1 3.52 352 -0.661 -9.141 1.532 4.059 14.343 8.087 -419.876 -209.863 -2984.855 -0.034 -0.587 -0.578 -0.01 0.67 -0.74 0.06
1 3.53 353 -0.785 -8.787 2.504 44.342 4.456 6.561 -599.909 -209.863 -2804.973 0.081 -0.939 -1.527 -0.01 0.67 -0.74 0.06
1 3.54 354 -0.694 -8.653 3.290 57.587 12.054 12.024 -374.906 -164.893 -2774.992 -0.020 -1.065 -2.248 -0.01 0.67 -0.74 0.06
1 3.55 355 -0.484 -8.313 3.275 61.127 15.289 16.357 -374.906 -164.893 -2774.992 -0.247 -1.393 -2.139 -0.01 0.66 -0.74 0.06
1 3.56 356 0.694 -8.112 3.673 51.148 1.526 19.440 -344.925 -314.945 -2909.904 -1.474 -1.564 -2.328 -0 0.66 -0.75 0.06
1 3.57 357 1.858 -8.423 4.070 39.887 -0.702 24.017 -344.925 -314.945 -2909.904 -2.658 -1.238 -2.635 -0 0.65 -0.75 0.07
1 3.58 358 2.078 -8.883 4.425 21.240 11.719 26.459 -269.974 -464.997 -2984.855 -2.896 -0.766 -2.915 -0 0.65 -0.76 0.07
1 3.59 359 1.240 -9.275 4.200 -4.822 33.753 20.691 -269.974 -464.997 -2984.855 -2.077 -0.364 -2.646 -0 0.65 -0.76 0.07
1 3.60 360 -1.077 -9.472 3.137 -29.785 48.645 -0.580 -419.876 -314.945 -3059.957 0.224 -0.166 -1.582 0 0.65 -0.76 0.06
1 3.61 361 -2.375 -9.467 2.351 -19.379 37.262 -13.184 -134.912 -449.857 -2864.934 1.513 -0.175 -0.826 0 0.65 -0.76 0.06
1 3.62 362 -2.816 -9.529 2.275 3.662 20.691 -19.806 -134.912 -449.857 -2864.934 1.957 -0.118 -0.777 0.01 0.65 -0.76 0.06
1 3.63 363 -2.581 -9.156 2.648 33.966 1.617 -20.020 -224.854 -389.896 -2774.992 1.747 -0.487 -1.114 0.01 0.65 -0.76 0.06
1 3.64 364 -2.193 -9.017 3.050 40.192 -6.561 -16.998 -224.854 -389.896 -2774.992 1.375 -0.617 -1.453 0.01 0.65 -0.76 0.06
1 3.65 365 -1.336 -8.821 3.227 31.220 -11.322 -14.679 -344.925 -464.997 -2909.904 0.533 -0.803 -1.559 0.01 0.64 -0.76 0.06
1 3.66 366 -0.862 -9.031 2.998 11.780 -15.228 -12.848 -344.925 -464.997 -2909.904 0.078 -0.584 -1.275 0.01 0.64 -0.76 0.06
1 3.67 367 -0.115 -9.218 2.725 -6.134 -17.487 -11.932 -269.974 -359.916 -2954.875 -0.647 -0.395 -0.978 0 0.64 -0.77 0.06
1 3.68 368 0.642 -9.304 2.083 -8.637 -12.665 -8.575 -359.916 -524.958 -3014.986 -1.378 -0.311 -0.337 0 0.64 -0.77 0.06
1 3.69 369 1.063 -9.012 1.705 6.439 -3.876 -6.866 -359.916 -524.958 -3014.986 -1.774 -0.606 0.035 0 0.64 -0.77 0.06
1 3.70 370 0.924 -8.682 1.413 24.689 1.556 -5.646 -209.863 -449.857 -3014.986 -1.612 -0.937 0.334 -0 0.64 -0.77 0.06
1 3.71 371 0.656 -8.136 1.302 39.703 5.341 -5.859 -299.955 -164.893 -3059.957 -1.308 -1.470 0.527 -0 0.64 -0.77 0.05
1 3.72 372 0.182 -8.184 1.551 33.753 6.104 -6.195 -344.925 -464.997 -2909.904 -0.826 -1.411 0.336 -0 0.64 -0.77 0.05
1 3.73 373 -0.259 -8.351 1.686 19.623 5.463 -6.042 -344.925 -464.997 -2909.904 -0.378 -1.235 0.247 -0 0.63 -0.77 0.05
1 3.74 374 -0.546 -8.581 1.915 2.563 2.899 -7.385 -464.997 -494.978 -3119.917 -0.081 -1.001 0.041 -0 0.63 -0.77 0.05
1 3.75 375 -0.800 -9.309 2.064 -15.381 -1.923 -9.369 -389.896 -449.857 -3014.986 0.184 -0.274 -0.109 -0 0.63 -0.77 0.05
1 3.76 376 -0.838 -9.864 1.848 -13.672 -4.791 -10.742 -389.896 -449.857 -3014.986 0.236 0.277 0.090 -0 0.63 -0.77 0.05
1 3.77 377 -0.546 -9.965 1.556 1.923 -5.951 -10.834 -344.925 -584.919 -3104.927 -0.040 0.373 0.362 -0 0.63 -0.77 0.05
1 3.78 378 0.014 -9.769 1.255 33.905 -4.852 -5.615 -434.867 -569.929 -2864.934 -0.567 0.179 0.685 -0 0.63 -0.77 0.05
1 3.79 379 0.306 -9.309 1.317 46.906 -2.991 -3.937 -299.955 -464.997 -3029.976 -0.846 -0.271 0.675 -0.01 0.63 -0.77 0.05
1 3.80 380 0.685 -9.012 1.302 46.204 0.732 -3.906 -299.955 -464.997 -3029.976 -1.211 -0.555 0.756 -0.01 0.63 -0.78 0.05
1 3.81 381 0.675 -8.303 1.159 34.088 3.387 -4.425 -359.916 -719.981 -3044.966 -1.187 -1.251 0.959 -0.01 0.63 -0.78 0.05
1 3.82 382 0.862 -8.198 0.963 7.874 4.456 -5.707 -464.997 -719.981 -3119.917 -1.367 -1.347 1.200 -0.01 0.62 -0.78 0.05
1 3.83 383 0.857 -8.270 0.862 -8.850 6.042 -6.561 -464.997 -719.981 -3119.917 -1.355 -1.271 1.320 -0.01 0.62 -0.78 0.05
1 3.84 384 0.694 -8.490 0.560 -21.454 6.165 -8.179 -389.896 -449.857 -3014.986 -1.184 -1.053 1.614 -0.01 0.62 -0.78 0.05
1 3.85 385 0.584 -9.180 0.421 -23.346 6.744 -7.538 -419.876 -434.867 -3209.859 -1.054 -0.378 1.692 -0.01 0.63 -0.78 0.05
1 3.86 386 0.503 -9.788 0.670 -18.250 8.148 -5.554 -344.925 -539.948 -3134.908 -0.956 0.220 1.399 -0.01 0.63 -0.78 0.05
1 3.87 387 0.316 -10.324 1.168 -13.855 11.810 -4.242 -344.925 -539.948 -3134.908 -0.756 0.748 0.866 -0.01 0.63 -0.78 0.04
1 3.88 388 0.306 -10.722 1.446 -10.223 14.862 -2.258 -374.906 -704.991 -3059.957 -0.738 1.139 0.561 -0.01 0.63 -0.77 0.04
1 3.89 389 0.369 -11.019 1.652 -2.716 15.717 0.244 -389.896 -494.978 -3074.947 -0.798 1.433 0.340 -0.01 0.63 -0.77 0.04
1 3.90 390 0.699 -10.770 1.781 12.482 13.275 4.028 -389.896 -494.978 -3074.947 -1.133 1.184 0.210 -0.01 0.63 -0.77 0.04
1 3.91 391 0.934 -10.157 1.513 21.362 13.458 4.517 -389.896 -524.958 -2939.885 -1.376 0.574 0.493 -0 0.63 -0.78 0.04
1 3.92 392 1.034 -9.161 0.680 35.950 15.564 3.326 -299.955 -539.948 -3104.927 -1.485 -0.407 1.392 -0 0.63 -0.78 0.04
1 3.93 393 0.905 -8.868 0.570 44.708 20.111 0.519 -299.955 -584.919 -2984.855 -1.353 -0.689 1.549 -0 0.63 -0.78 0.04
1 3.94 394 0.450 -8.217 -0.311 45.838 26.062 -3.265 -299.955 -584.919 -2984.855 -0.899 -1.327 2.491 -0 0.62 -0.78 0.04
1 3.95 395 -0.105 -8.136 -0.651 35.065 29.389 -7.935 -419.876 -539.948 -3104.927 -0.345 -1.393 2.895 0 0.62 -0.78 0.04
1 3.96 396 -0.872 -8.346 -0.541 11.871 29.022 -11.078 -359.916 -644.880 -3044.966 0.424 -1.172 2.828 0 0.62 -0.78 0.04
1 3.97 397 -2.097 -9.213 0.378 -32.349 13.062 -14.069 -359.916 -644.880 -3044.966 1.659 -0.305 1.913 0 0.62 -0.78 0.03
1 3.98 398 -2.624 -10.233 2.021 -45.044 -9.705 -14.771 -374.906 -659.870 -3134.908 2.197 0.704 0.226 0 0.62 -0.78 0.03
1 3.99 399 -3.261 -11.517 4.200 -39.368 -23.804 -20.844 -374.906 -539.948 -3104.927 2.843 1.970 -2.025 0 0.62 -0.78 0.03
1 4.00 400 -3.984 -13.092 5.789 -42.175 -27.924 -38.300 -449.857 -704.991 -3029.976 3.645 3.518 -3.724 -0 0.63 -0.78 0.03
1 4.01 401 -3.275 -12.580 4.540 -48.279 -35.675 -45.136 -449.857 -704.991 -3029.976 3.007 2.990 -2.538 -0.01 0.63 -0.78 0.03
1 4.02 402 -2.160 -11.751 3.481 -18.311 -42.389 -35.126 -299.955 -629.890 -3059.957 1.968 2.147 -1.541 -0.01 0.63 -0.77 0.03
1 4.03 403 -1.140 -10.056 3.338 32.684 -36.682 -16.510 -464.997 -569.929 -2969.865 1.006 0.450 -1.403 -0.02 0.63 -0.77 0.03
1 4.04 404 -0.096 -8.710 3.400 62.714 -19.928 -4.913 -464.997 -569.929 -2969.865 -0.011 -0.882 -1.396 -0.02 0.63 -0.78 0.03
1 4.05 405 0.335 -8.825 3.271 22.461 -21.179 -1.862 -569.929 -539.948 -3029.976 -0.429 -0.745 -1.161 -0.02 0.63 -0.78 0.03
1 4.06 406 1.077 -9.103 2.983 -48.096 -23.590 3.204 -449.857 -629.890 -2954.875 -1.159 -0.453 -0.810 -0.02 0.62 -0.78 0.03
1 4.07 407 2.299 -10.856 1.671 -135.590 -28.504 17.761 -539.948 -674.860 -3044.966 -2.365 1.263 0.331 -0.03 0.63 -0.78 0.04
1 4.08 408 3.256 -11.986 1.777 -153.779 -28.809 29.846 -539.948 -674.860 -3044.966 -3.337 2.352 0.018 -0.03 0.64 -0.77 0.04
1 4.09 409 3.721 -12.632 2.639 -134.949 -20.294 37.323 -494.978 -539.948 -2984.855 -3.841 2.960 -1.067 -0.03 0.65 -0.76 0.04
1 4.10 410 3.227 -12.584 3.845 -85.480 -4.150 37.476 -674.860 -539.948 -2954.875 -3.399 2.885 -2.457 -0.03 0.65 -0.75 0.05
1 4.11 411 2.222 -11.924 4.238 -20.844 14.618 31.403 -674.860 -539.948 -2954.875 -2.447 2.211 -2.953 -0.03 0.66 -0.75 0.05
1 4.12 412 0.172 -10.094 3.304 67.841 38.452 18.158 -629.890 -314.945 -2729.872 -0.444 0.382 -2.025 -0.02 0.66 -0.75 0.05
1 4.13 413 -1.279 -8.758 2.366 100.525 43.060 8.209 -569.929 -434.867 -2774.992 0.970 -0.942 -1.005 -0.02 0.66 -0.75 0.05
1 4.14 414 -3.280 -7.350 1.556 86.762 24.841 -7.080 -509.968 -569.929 -2759.852 2.935 -2.301 0.109 -0.02 0.64 -0.76 0.05
1 4.15 415 -3.678 -7.245 1.518 41.840 -2.594 -18.616 -509.968 -569.929 -2759.852 3.344 -2.386 0.261 -0.01 0.64 -0.77 0.04
1 4.16 416 -3.840 -6.996 2.136 -13.550 -33.905 -28.931 -569.929 -434.867 -2879.924 3.542 -2.628 -0.314 -0.02 0.64 -0.77 0.04
1 4.17 417 -2.873 -7.868 2.758 -59.784 -56.976 -34.699 -434.867 -494.978 -2864.934 2.633 -1.765 -0.972 -0.02 0.64 -0.77 0.04
1 4.18 418 -1.312 -9.132 3.357 -86.029 -60.608 -28.473 -434.867 -494.978 -2864.934 1.139 -0.520 -1.668 -0.03 0.64 -0.76 0.05
1 4.19 419 0.445 -10.942 2.945 -81.208 -31.403 -10.132 -584.919 -449.857 -2939.885 -0.577 1.270 -1.371 -0.03 0.65 -0.76 0.05
1 4.20 420 0.709 -11.660 2.193 -56.000 -10.681 1.709 -494.978 -464.997 -2804.973 -0.813 1.970 -0.736 -0.03 0.65 -0.76 0.05
1 4.21 421 0.795 -11.694 1.824 -23.285 -2.686 12.512 -494.978 -464.997 -2804.973 -0.893 1.990 -0.460 -0.04 0.66 -0.75 0.05
1 4.22 422 0.948 -10.554 2.203 19.806 -1.343 24.048 -734.971 -449.857 -2609.950 -1.086 0.844 -0.883 -0.04 0.66 -0.75 0.05
1 4.23 423 0.790 -9.620 2.552 38.696 2.380 25.024 -614.899 -449.857 -2759.852 -0.963 -0.084 -1.193 -0.03 0.66 -0.75 0.05
1 4.24 424 0.608 -8.476 2.658 42.389 9.247 22.339 -734.971 -224.854 -2789.982 -0.809 -1.218 -1.230 -0.03 0.65 -0.75 0.05
1 4.25 425 0.091 -7.925 2.595 31.616 16.083 18.677 -734.971 -224.854 -2789.982 -0.318 -1.757 -1.095 -0.03 0.65 -0.76 0.05
1 4.26 426 -0.512 -7.652 1.911 -0.610 17.609 15.320 -584.919 -494.978 -2864.934 0.256 -2.023 -0.370 -0.03 0.65 -0.76 0.06
1 4.27 427 -1.642 -7.523 1.015 -19.989 13.489 13.519 -524.958 -584.919 -2699.891 1.359 -2.150 0.533 -0.03 0.65 -0.76 0.06
1 4.28 428 -1.978 -7.576 0.623 -30.335 3.967 10.101 -524.958 -584.919 -2699.891 1.672 -2.100 0.903 -0.03 0.65 -0.76 0.06
1 4.29 429 -2.241 -8.251 0.584 -27.130 -9.918 5.371 -434.867 -449.857 -2759.852 1.909 -1.437 0.856 -0.03 0.65 -0.76 0.06
1 4.30 430 -2.222 -8.763 1.006 -16.998 -14.343 4.486 -464.997 -524.958 -2819.963 1.885 -0.930 0.400 -0.03 0.65 -0.75 0.06
1 4.31 431 -2.169 -9.151 1.350 -6.561 -13.580 6.714 -539.948 -374.906 -2819.963 1.822 -0.545 0.034 -0.03 0.65 -0.75 0.06
1 4.32 432 -2.030 -9.534 1.097 0.366 -11.902 11.231 -539.948 -374.906 -2819.963 1.662 -0.161 0.282 -0.03 0.65 -0.75 0.06
1 4.33 433 -1.959 -9.706 1.020 1.434 -11.383 14.923 -449.857 -389.896 -2879.924 1.563 0.012 0.362 -0.03 0.65 -0.75 0.06
1 4.34 434 -1.537 -9.309 0.541 -3.387 -10.223 13.825 -539.948 -254.984 -2789.982 1.111 -0.384 0.841 -0.03 0.65 -0.75 0.06
1 4.35 435 -1.566 -9.060 0.239 -4.120 -12.116 9.338 -539.948 -254.984 -2789.982 1.111 -0.632 1.136 -0.03 0.66 -0.75 0.07
1 4.36 436 -1.106 -8.782 -0.196 -1.099 -21.210 3.357 -449.857 -389.896 -2774.992 0.619 -0.912 1.550 -0.03 0.66 -0.75 0.07
1 4.37 437 -0.996 -8.466 -0.139 -0.793 -25.513 0.916 -509.968 -449.857 -2759.852 0.505 -1.229 1.484 -0.03 0.66 -0.75 0.07
1 4.38 438 -0.757 -8.528 -0.105 -5.524 -27.466 0.122 -539.948 -374.906 -2969.865 0.271 -1.166 1.452 -0.03 0.66 -0.75 0.07
1 4.39 439 -0.709 -8.797 -0.172 -12.970 -26.062 -0.336 -539.948 -374.906 -2969.865 0.230 -0.900 1.511 -0.03 0.66 -0.75 0.07
1 4.40 440 -0.675 -9.122 0.450 -20.691 -25.513 -1.678 -509.968 -299.955 -2789.982 0.202 -0.578 0.865 -0.03 0.66 -0.75 0.07
1 4.41 441 -0.646 -9.807 0.685 -31.067 -23.895 -4.303 -614.899 -374.906 -2684.901 0.181 0.102 0.593 -0.03 0.66 -0.75 0.08
1 4.42 442 -0.555 -10.161 0.656 -33.478 -25.665 -7.477 -614.899 -374.906 -2684.901 0.099 0.450 0.577 -0.04 0.66 -0.75 0.08
1 4.43 443 -0.374 -10.161 0.383 -28.565 -28.290 -10.437 -509.968 -449.857 -2714.881 -0.068 0.443 0.799 -0.04 0.66 -0.74 0.08
1 4.44 444 -0.354 -9.932 0.321 -7.568 -33.539 -13.550 -704.991 -464.997 -2729.872 -0.041 0.202 0.783 -0.04 0.66 -0.74 0.08
1 4.45 445 -0.469 -9.702 0.192 7.568 -32.868 -12.939 -764.952 -299.955 -2639.930 0.102 -0.030 0.904 -0.05 0.66 -0.74 0.08
1 4.46 446 -0.809 -9.098 0.096 20.264 -28.656 -10.284 -764.952 -299.955 -2639.930 0.466 -0.633 1.012 -0.05 0.66 -0.74 0.08
1 4.47 447 -1.044 -8.581 0.211 31.189 -22.369 -7.233 -764.952 -449.857 -2639.930 0.717 -1.147 0.927 -0.05 0.66 -0.74 0.08
1 4.48 448 -1.001 -8.188 0.081 36.621 -13.733 -0.824 -764.952 -224.854 -2639.930 0.686 -1.534 1.105 -0.05 0.66 -0.74 0.08
1 4.49 449 -0.761 -8.299 0.177 25.024 -9.552 2.289 -764.952 -224.854 -2639.930 0.453 -1.417 1.066 -0.05 0.66 -0.75 0.08
1 4.50 450 -0.364 -8.883 0.306 0.153 -6.317 3.296 -824.913 -284.964 -2549.989 0.056 -0.827 0.981 -0.05 0.66 -0.75 0.09
1 4.51 451 0.048 -10.420 0.330 -43.976 -1.068 3.357 -734.971 -494.978 -2684.901 -0.362 0.707 0.932 -0.05 0.66 -0.75 0.09
1 4.52 452 0.053 -11.722 0.038 -65.155 -1.099 3.052 -629.890 -464.997 -2624.940 -0.368 1.999 1.143 -0.05 0.66 -0.74 0.09
1 4.53 453 -0.302 -12.632 -0.469 -71.930 -4.547 2.838 -629.890 -464.997 -2624.940 -0.017 2.897 1.550 -0.06 0.66 -0.74 0.09
1 4.54 454 -0.603 -13.054 -1.063 -55.512 -8.606 1.465 -569.929 -359.916 -2549.989 0.283 3.308 2.042 -0.06 0.67 -0.74 0.09
1 4.55 455 -1.245 -13.006 -1.101 -17.792 -12.543 -2.655 -690.000 -374.906 -2609.950 0.927 3.253 2.011 -0.06 0.67 -0.73 0.09
1 4.56 456 -1.513 -12.843 1.326 44.464 -16.571 -12.848 -690.000 -374.906 -2609.950 1.204 3.089 -0.425 -0.06 0.67 -0.73 0.09
1 4.57 457 -0.704 -14.035 2.064 75.684 -17.090 -14.954 -659.870 -329.935 -2504.868 0.414 4.286 -1.108 -0.06 0.67 -0.74 0.09
1 4.58 458 1.772 -16.377 3.979 31.433 -15.076 10.742 -734.971 -224.854 -2459.897 -2.018 6.651 -2.804 -0.06 0.66 -0.74 0.09
1 4.59 459 1.681 -16.391 3.721 -38.696 3.326 46.784 -854.893 -314.945 -2669.911 -1.954 6.668 -2.529 -0.06 0.66 -0.74 0.09
1 4.60 460 -0.321 -14.806 0.795 -33.203 22.614 56.549 -854.893 -314.945 -2669.911 -0.029 5.078 0.335 -0.06 0.66 -0.74 0.09
1 4.61 461 -0.838 -12.967 -0.704 19.379 24.445 50.476 -794.932 -419.876 -2684.901 0.402 3.239 1.802 -0.06 0.66 -0.74 0.09
1 4.62 462 -1.039 -11.339 -0.661 59.662 11.780 35.156 -749.961 -314.945 -2729.872 0.530 1.620 1.806 -0.05 0.66 -0.74 0.1
1 4.63 463 -1.614 -10.568 1.484 42.267 1.984 17.273 -749.961 -314.945 -2729.872 1.057 0.863 -0.246 -0.05 0.66 -0.74 0.1
1 4.64 464 -1.461 -10.449 2.380 -2.655 15.808 15.442 -690.000 -419.876 -2504.868 0.872 0.755 -1.069 -0.05 0.66 -0.75 0.1
1 4.65 465 -1.437 -10.544 2.188 -45.380 32.013 17.578 -690.000 -419.876 -2504.868 0.824 0.854 -0.863 -0.05 0.66 -0.75 0.1
1 4.66 466 -1.168 -10.056 1.298 -59.174 36.713 13.580 -764.952 -374.906 -2639.930 0.492 0.351 -0.118 -0.04 0.66 -0.74 0.1
1 4.67 467 -1.212 -10.104 1.484 -37.506 34.577 10.101 -764.952 -374.906 -2639.930 0.508 0.391 -0.387 -0.04 0.67 -0.74 0.1
1 4.68 468 -1.293 -10.458 2.222 -12.421 30.762 13.428 -749.961 -434.867 -2594.959 0.566 0.742 -1.171 -0.04 0.67 -0.74 0.1
1 4.69 469 -1.561 -10.554 2.926 8.667 22.064 18.768 -494.978 -359.916 -2549.989 0.805 0.839 -1.879 -0.03 0.67 -0.74 0.1
1 4.70 470 -1.810 -10.679 3.256 29.236 -0.793 25.879 -494.978 -359.916 -2549.989 1.021 0.968 -2.192 -0.03 0.67 -0.74 0.1
1 4.71 471 -0.838 -9.735 3.596 43.884 -12.787 29.480 -494.978 -464.997 -2804.973 0.013 0.033 -2.492 -0.03 0.67 -0.74 0.1
1 4.72 472 0.412 -8.940 3.539 66.773 -16.449 34.668 -494.978 -464.997 -2804.973 -1.277 -0.752 -2.373 -0.03 0.66 -0.74 0.1
1 4.73 473 1.676 -7.628 3.429 97.992 2.228 39.703 -509.968 -374.906 -2714.881 -2.625 -2.021 -2.006 -0.03 0.65 -0.75 0.1
1 4.74 474 1.355 -7.140 3.515 97.229 27.710 36.682 -509.968 -374.906 -2714.881 -2.355 -2.481 -1.937 -0.02 0.65 -0.75 0.11
1 4.75 475 0.460 -7.101 3.793 66.529 50.018 25.482 -509.968 -374.906 -2609.950 -1.518 -2.490 -2.084 -0.02 0.64 -0.76 0.11
1 4.76 476 -0.905 -7.465 3.582 9.918 55.573 8.209 -569.929 -314.945 -2849.943 -0.198 -2.108 -1.802 -0.01 0.64 -0.76 0.11
1 4.77 477 -1.901 -8.088 3.338 -46.082 47.241 -9.888 -569.929 -314.945 -2849.943 0.779 -1.487 -1.574 -0.01 0.64 -0.76 0.1
1 4.78 478 -2.892 -9.012 2.595 -67.505 22.919 -27.344 -494.978 -509.968 -2849.943 1.777 -0.578 -0.912 -0.01 0.64 -0.76 0.1
1 4.79 479 -2.744 -9.678 2.112 -37.872 5.829 -32.715 -494.978 -509.968 -2849.943 1.648 0.070 -0.523 -0.01 0.65 -0.76 0.1
1 4.80 480 -1.504 -10.248 1.992 17.578 -19.135 -31.067 -284.964 -524.958 -2864.934 0.480 0.620 -0.473 -0.01 0.65 -0.75 0.09
1 4.81 481 -0.953 -10.195 2.045 37.140 -31.952 -26.703 -284.964 -524.958 -2864.934 -0.025 0.570 -0.484 -0.01 0.65 -0.76 0.09
1 4.82 482 0.441 -9.898 2.404 43.274 -37.659 -19.379 -494.978 -539.948 -2624.940 -1.370 0.279 -0.776 -0.02 0.65 -0.76 0.09
1 4.83 483 1.475 -9.247 2.413 45.563 -33.722 -9.949 -509.968 -449.857 -2714.881 -2.360 -0.364 -0.711 -0.02 0.64 -0.76 0.09
1 4.84 484 2.026 -8.576 2.299 47.241 -17.426 -3.510 -509.968 -449.857 -2714.881 -2.873 -1.023 -0.518 -0.02 0.64 -0.76 0.09
1 4.85 485 2.299 -7.757 1.710 44.495 14.465 2.075 -614.899 -419.876 -2864.934 -3.118 -1.830 0.149 -0.02 0.64 -0.77 0.09
1 4.86 486 1.815 -7.446 1.470 40.070 25.635 1.556 -614.899 -419.876 -2864.934 -2.639 -2.127 0.456 -0.02 0.63 -0.77 0.09
1 4.87 487 1.346 -7.542 1.379 34.790 25.116 -3.021 -569.929 -539.948 -2804.973 -2.178 -2.019 0.605 -0.02 0.63 -0.77 0.09
1 4.88 488 0.723 -8.452 2.136 24.536 14.618 -13.519 -524.958 -539.948 -2909.904 -1.554 -1.089 -0.058 -0.02 0.63 -0.77 0.09
1 4.89 489 0.608 -9.026 2.524 14.465 8.179 -20.264 -539.948 -569.929 -2789.982 -1.420 -0.509 -0.414 -0.02 0.63 -0.77 0.09
1 4.90 490 0.498 -9.443 2.610 5.188 3.571 -24.414 -569.929 -434.867 -2849.943 -1.269 -0.091 -0.479 -0.02 0.63 -0.78 0.09
1 4.91 491 0.354 -9.534 2.193 6.653 1.373 -25.971 -569.929 -434.867 -2849.943 -1.079 -0.001 -0.051 -0.02 0.62 -0.78 0.09
1 4.92 492 0.196 -9.362 1.657 27.771 5.554 -20.386 -569.929 -539.948 -2909.904 -0.875 -0.173 0.502 -0.02 0.62 -0.78 0.08
1 4.93 493 0.302 -8.792 1.101 40.375 7.996 -16.449 -569.929 -539.948 -2909.904 -0.943 -0.738 1.091 -0.02 0.62 -0.78 0.08
1 4.94 494 0.397 -8.184 1.154 44.495 13.702 -11.719 -509.968 -524.958 -2759.852 -1.010 -1.337 1.089 -0.02 0.62 -0.78 0.08
1 4.95 495 0.618 -7.226 0.900 30.304 29.389 -5.371 -449.857 -539.948 -2849.943 -1.206 -2.267 1.461 -0.02 0.62 -0.78 0.08
1 4.96 496 0.354 -7.006 0.699 13.550 36.804 -6.012 -614.899 -494.978 -2819.963 -0.946 -2.478 1.699 -0.02 0.61 -0.79 0.08
1 4.97 497 0.306 -7.101 0.220 -3.052 38.147 -9.491 -539.948 -749.961 -2969.865 -0.901 -2.379 2.189 -0.02 0.61 -0.79 0.07
1 4.98 498 0.283 -7.384 0.010 -16.968 32.440 -13.825 -539.948 -749.961 -2969.865 -0.875 -2.100 2.388 -0.02 0.61 -0.79 0.07
1 4.99 499 0.330 -7.805 0.005 -27.771 25.879 -18.311 -539.948 -569.929 -2969.865 -0.911 -1.687 2.362 -0.02 0.62 -0.78 0.07
1 5.00 500 0.536 -8.437 0.388 -35.736 18.005 -20.355 -539.948 -569.929 -2969.865 -1.097 -1.067 1.935 -0.02 0.62 -0.78 0.07
1 5.01 501 0.555 -8.797 0.651 -33.112 15.350 -18.707 -449.857 -779.942 -3059.957 -1.093 -0.722 1.619 -0.02 0.62 -0.78 0.06
1 5.02 502 0.498 -8.907 0.757 -25.208 13.275 -15.015 -449.857 -539.948 -2879.924 -1.012 -0.624 1.464 -0.02 0.62 -0.78 0.06
1 5.03 503 0.302 -8.844 0.546 -7.294 12.268 -7.904 -464.997 -599.909 -2894.914 -0.768 -0.708 1.592 -0.02 0.62 -0.78 0.06
1 5.04 504 0.029 -8.921 0.431 3.632 15.045 -4.334 -464.997 -524.958 -2789.982 -0.482 -0.636 1.691 -0.02 0.63 -0.78 0.06
1 5.05 505 -0.417 -8.912 0.158 8.942 18.463 -0.397 -464.997 -524.958 -2789.982 -0.033 -0.646 1.961 -0.02 0.63 -0.78 0.06
1 5.06 506 -0.627 -9.204 -0.254 9.308 19.501 2.716 -614.899 -524.958 -2864.934 0.173 -0.353 2.374 -0.02 0.63 -0.78 0.06
1 5.07 507 -0.828 -9.572 -0.603 5.005 14.313 4.639 -614.899 -524.958 -2864.934 0.364 0.015 2.721 -0.01 0.63 -0.78 0.06
1 5.08 508 -1.001 -10.056 -0.551 -0.732 15.228 7.477 -539.948 -599.909 -2939.885 0.525 0.497 2.659 -0.01 0.63 -0.78 0.06
1 5.09 509 -1.336 -10.468 -0.311 -9.186 19.409 13.489 -614.899 -524.958 -2864.934 0.843 0.906 2.401 -0.01 0.63 -0.78 0.06
1 5.10 510 -1.666 -10.688 1.317 -26.764 19.440 25.452 -494.978 -779.942 -2804.973 1.108 1.114 0.699 -0.01 0.63 -0.77 0.06
1 5.11 511 -2.457 -11.220 3.831 -23.773 -3.662 30.518 -359.916 -599.909 -2939.885 1.852 1.638 -1.863 -0.01 0.63 -0.77 0.06
1 5.12 512 -3.749 -12.244 7.935 6.348 -21.484 20.783 -359.916 -599.909 -2939.885 3.105 2.661 -5.992 -0.01 0.63 -0.77 0.06
1 5.13 513 -5.272 -13.475 9.400 4.120 -10.193 -15.167 -509.968 -524.958 -2789.982 4.615 3.896 -7.437 -0.01 0.63 -0.77 0.06
1 5.14 514 -4.195 -13.853 7.010 -87.799 -51.270 -68.909 -509.968 -524.958 -2789.982 3.582 4.268 -5.066 -0.01 0.63 -0.77 0.06
1 5.15 515 -2.198 -13.030 3.232 -47.180 -74.921 -58.167 -209.863 -569.929 -2939.885 1.692 3.416 -1.399 -0.01 0.64 -0.77 0.06
1 5.16 516 -1.274 -10.736 2.524 41.046 -58.136 -34.882 -509.968 -374.906 -2789.982 0.881 1.101 -0.778 -0.02 0.64 -0.77 0.06
1 5.17 517 -0.014 -8.696 2.160 73.059 -26.978 -13.641 -614.899 -449.857 -2819.963 -0.256 -0.915 -0.264 -0.03 0.63 -0.77 0.06
1 5.18 518 0.192 -8.327 2.413 20.966 -32.410 -1.923 -674.860 -434.867 -2879.924 -0.436 -1.265 -0.423 -0.03 0.63 -0.77 0.06
1 5.19 519 1.326 -8.725 2.342 -45.960 -53.345 8.209 -674.860 -434.867 -2879.924 -1.558 -0.866 -0.339 -0.04 0.63 -0.77 0.06
1 5.20 520 2.787 -10.099 2.169 -112.305 -50.812 17.395 -659.870 -599.909 -2789.982 -3.010 0.491 -0.255 -0.04 0.63 -0.77 0.07
1 5.21 521 2.581 -12.019 2.270 -163.483 -24.139 29.236 -659.870 -599.909 -2789.982 -2.800 2.376 -0.537 -0.04 0.64 -0.76 0.07
1 5.22 522 1.207 -15.165 4.789 -181.336 -12.817 29.755 -494.978 -539.948 -2729.872 -1.466 5.482 -3.307 -0.04 0.65 -0.76 0.07
1 5.23 523 0.838 -15.802 5.976 -150.971 -12.573 17.334 -794.932 -329.935 -2714.881 -1.140 6.082 -4.765 -0.04 0.66 -0.75 0.07
1 5.24 524 -0.115 -14.361 3.931 -36.255 -5.829 6.622 -509.968 -374.906 -2684.901 -0.225 4.601 -3.111 -0.04 0.68 -0.73 0.07
1 5.25 525 -0.632 -13.111 3.002 67.597 -3.510 12.146 -434.867 -254.984 -2429.917 0.282 3.351 -2.196 -0.04 0.68 -0.73 0.07
1 5.26 526 -1.925 -9.256 1.686 153.138 3.174 12.817 -434.867 -254.984 -2429.917 1.557 -0.491 -0.741 -0.04 0.67 -0.74 0.08
1 5.27 527 -2.648 -7.145 0.996 192.963 3.876 2.808 -629.890 -44.971 -2519.858 2.259 -2.574 0.200 -0.04 0.66 -0.75 0.08
1 5.28 528 -3.137 -5.852 0.857 176.941 -12.726 -12.909 -629.890 -44.971 -2519.858 2.750 -3.828 0.627 -0.04 0.65 -0.75 0.08
1 5.29 529 -2.548 -5.081 2.174 65.399 -58.716 -19.440 -494.978 -314.945 -2519.858 2.190 -4.559 -0.445 -0.04 0.64 -0.76 0.08
1 5.30 530 -1.528 -5.512 3.304 -37.781 -79.926 -12.634 -659.870 -254.984 -2759.852 1.215 -4.104 -1.441 -0.05 0.63 -0.77 0.08
1 5.31 531 0.057 -6.829 4.219 -132.142 -83.222 -5.920 -659.870 -254.984 -2759.852 -0.326 -2.791 -2.368 -0.05 0.63 -0.77 0.08
1 5.32 532 2.428 -10.200 4.109 -206.116 -51.026 1.007 -704.991 -464.997 -2849.943 -2.635 0.508 -2.670 -0.06 0.65 -0.75 0.09
1 5.33 533 3.146 -12.714 3.017 -186.860 -14.069 12.207 -704.991 -464.997 -2849.943 -3.342 2.983 -1.870 -0.07 0.66 -0.74 0.09
1 5.34 534 2.667 -13.724 2.265 -112.030 18.341 24.201 -659.870 -374.906 -2639.930 -2.884 3.967 -1.374 -0.07 0.67 -0.73 0.09
1 5.35 535 1.393 -12.867 1.690 -8.972 36.987 28.168 -659.870 -374.906 -2639.930 -1.651 3.100 -0.929 -0.06 0.68 -0.73 0.09
1 5.36 536 -0.421 -9.706 1.465 121.277 31.281 19.043 -779.942 -209.863 -2594.959 0.119 -0.057 -0.679 -0.06 0.68 -0.73 0.09
1 5.37 537 -1.259 -7.820 1.207 154.511 15.411 11.932 -779.942 -14.990 -2549.989 0.922 -1.929 -0.265 -0.06 0.67 -0.73 0.09
1 5.38 538 -1.839 -6.359 1.111 138.825 -3.448 6.226 -779.942 -14.990 -2549.989 1.479 -3.364 0.055 -0.06 0.66 -0.74 0.09
1 5.39 539 -2.279 -5.445 1.513 50.965 -21.240 -4.089 -524.958 -239.994 -2669.911 1.912 -4.227 0.024 -0.05 0.65 -0.75 0.09
1 5.40 540 -2.351 -5.445 1.633 -25.848 -22.492 -9.796 -524.958 -239.994 -2669.911 1.998 -4.220 -0.046 -0.06 0.64 -0.76 0.09
1 5.41 541 -2.318 -6.263 1.729 -91.034 -18.921 -12.726 -584.919 -299.955 -2684.901 1.987 -3.412 -0.204 -0.06 0.65 -0.75 0.09
1 5.42 542 -2.078 -7.480 1.499 -121.552 -12.665 -11.383 -584.919 -299.955 -2684.901 1.771 -2.218 -0.122 -0.06 0.65 -0.75 0.09
1 5.43 543 -1.963 -8.825 1.092 -113.404 -7.599 -6.714 -599.909 -464.997 -2729.872 1.674 -0.897 0.104 -0.06 0.66 -0.74 0.09
1 5.44 544 -1.719 -10.803 0.493 -44.891 -8.575 -1.190 -824.913 -359.916 -2594.959 1.435 1.063 0.548 -0.06 0.67 -0.74 0.09
1 5.45 545 -1.542 -11.411 0.498 8.514 -11.871 2.319 -824.913 -359.916 -2594.959 1.251 1.662 0.456 -0.06 0.67 -0.73 0.09
1 5.46 546 -1.384 -10.717 0.383 53.650 -16.388 6.928 -779.942 -164.893 -2444.907 1.089 0.973 0.624 -0.06 0.67 -0.74 0.09
1 5.47 547 -1.403 -10.190 0.474 54.840 -19.592 6.836 -779.942 -164.893 -2444.907 1.102 0.456 0.617 -0.07 0.66 -0.74 0.1
1 5.48 548 -1.058 -8.682 0.177 40.344 -24.994 5.280 -599.909 -164.893 -2519.858 0.744 -1.044 0.988 -0.07 0.66 -0.74 0.1
1 5.49 549 -0.900 -8.212 -0.134 18.555 -31.494 2.686 -599.909 -164.893 -2519.858 0.582 -1.507 1.351 -0.07 0.66 -0.74 0.1
1 5.50 550 -0.450 -7.987 -0.177 -3.967 -35.797 -0.214 -824.913 -164.893 -2594.959 0.136 -1.729 1.416 -0.07 0.66 -0.74 0.1
1 5.51 551 -0.259 -8.629 0.192 -31.067 -34.973 -2.838 -794.932 -74.951 -2504.868 -0.046 -1.089 1.037 -0.07 0.66 -0.74 0.1
1 5.52 552 -0.287 -9.184 0.407 -44.312 -30.243 -1.953 -794.932 -74.951 -2504.868 -0.005 -0.538 0.784 -0.07 0.66 -0.74 0.1
1 5.53 553 -0.484 -9.730 0.618 -49.011 -25.757 -0.854 -794.932 -224.854 -2534.999 0.201 -0.000 0.511 -0.08 0.66 -0.74 0.11
1 5.54 554 -0.785 -9.941 0.436 -39.917 -23.956 -3.815 -764.952 -254.984 -2564.979 0.516 0.194 0.549 -0.08 0.67 -0.73 0.11
1 5.55 555 -0.824 -9.864 0.493 -25.391 -26.276 -6.104 -824.913 -209.863 -2624.940 0.562 0.112 0.436 -0.08 0.67 -0.73 0.11
1 5.56 556 -0.814 -9.630 0.421 -9.125 -28.259 -6.195 -824.913 -209.863 -2624.940 0.563 -0.126 0.475 -0.08 0.67 -0.73 0.11
1 5.57 557 -0.517 -9.026 0.326 8.331 -28.229 -5.615 -854.893 -314.945 -2549.989 0.276 -0.730 0.563 -0.08 0.67 -0.73 0.11
1 5.58 558 -0.388 -8.552 0.201 30.579 -21.515 0.458 -839.903 -29.980 -2429.917 0.156 -1.203 0.705 -0.09 0.67 -0.73 0.11
1 5.59 559 -0.206 -7.719 -0.029 37.109 -14.984 4.120 -839.903 -29.980 -2429.917 -0.021 -2.032 0.976 -0.09 0.67 -0.73 0.11
1 5.60 560 0.014 -7.303 -0.187 30.579 -8.148 4.059 -854.893 -209.863 -2414.927 -0.243 -2.443 1.190 -0.09 0.66 -0.73 0.12
1 5.61 561 -0.148 -7.643 -0.393 -2.838 -2.502 -2.472 -899.864 -44.971 -2549.989 -0.083 -2.095 1.473 -0.09 0.66 -0.74 0.12
1 5.62 562 -0.091 -8.533 -0.239 -32.837 -4.211 -10.620 -869.883 -179.883 -2639.930 -0.132 -1.206 1.306 -0.09 0.66 -0.74 0.12
1 5.63 563 -0.211 -9.826 -0.196 -59.815 -9.888 -19.287 -869.883 -179.883 -2639.930 0.009 0.080 1.205 -0.09 0.66 -0.73 0.12
1 5.64 564 0.158 -11.493 -0.402 -77.118 -15.717 -25.757 -824.913 -89.941 -2669.911 -0.326 1.736 1.306 -0.09 0.67 -0.73 0.11
1 5.65 565 0.177 -13.106 -0.541 -79.468 -16.510 -26.947 -869.883 -29.980 -2534.999 -0.302 3.339 1.328 -0.1 0.67 -0.73 0.11
1 5.66 566 0.235 -14.265 -0.963 -54.199 -7.324 -19.470 -869.883 -29.980 -2534.999 -0.317 4.489 1.636 -0.1 0.68 -0.72 0.11
1 5.67 567 -0.273 -13.987 -1.245 -25.116 1.343 -11.261 -944.984 -74.951 -2429.917 0.225 4.205 1.830 -0.1 0.68 -0.72 0.11
1 5.68 568 -1.274 -13.020 0.105 18.494 2.899 -6.683 -899.864 -89.941 -2549.989 1.260 3.235 0.428 -0.1 0.68 -0.72 0.11
1 5.69 569 -1.393 -12.977 0.852 48.889 2.472 -7.751 -989.955 -149.902 -2459.897 1.392 3.194 -0.279 -0.1 0.68 -0.72 0.11
1 5.70 570 -0.412 -14.356 2.346 73.822 -2.655 -4.883 -989.955 -149.902 -2459.897 0.422 4.578 -1.686 -0.1 0.68 -0.72 0.11
1 5.71 571 1.269 -15.989 2.820 30.121 -13.702 15.808 -1079.896 14.990 -2444.907 -1.254 6.219 -2.057 -0.1 0.67 -0.73 0.11
1 5.72 572 1.422 -15.951 1.968 -31.708 -6.317 48.340 -914.854 74.951 -2459.897 -1.442 6.182 -1.186 -0.1 0.67 -0.73 0.11
1 5.73 573 0.187 -14.059 -0.206 11.719 18.860 56.214 -914.854 74.951 -2459.897 -0.282 4.287 0.940 -0.1 0.67 -0.72 0.12
1 5.74 574 -0.326 -12.235 -0.311 57.556 22.247 48.920 -1004.945 14.990 -2519.858 0.145 2.464 1.043 -0.1 0.67 -0.72 0.12
1 5.75 575 -0.809 -11.062 1.164 54.627 20.630 39.917 -989.955 74.951 -2504.868 0.550 1.298 -0.359 -0.09 0.67 -0.73 0.12
1 5.76 576 -1.465 -10.717 2.945 -0.885 36.469 31.403 -914.854 0.000 -2504.868 1.086 0.969 -2.007 -0.09 0.67 -0.73 0.12
1 5.77 577 -1.690 -10.597 2.452 -39.093 45.899 27.741 -914.854 0.000 -2504.868 1.261 0.850 -1.531 -0.08 0.67 -0.73 0.12
1 5.78 578 -2.059 -10.386 1.408 -58.258 36.316 23.254 -899.864 -89.941 -2519.858 1.584 0.635 -0.558 -0.08 0.67 -0.73 0.12
1 5.79 579 -1.915 -10.003 1.154 -51.880 15.015 16.113 -779.942 -44.971 -2519.858 1.395 0.247 -0.387 -0.08 0.67 -0.72 0.12
1 5.80 580 -1.322 -10.027 2.830 -10.101 -0.549 13.397 -779.942 -44.971 -2519.858 0.768 0.268 -2.129 -0.07 0.68 -0.72 0.12
1 5.81 581 -1.015 -10.137 3.840 25.086 3.021 18.829 -734.971 -29.980 -2534.999 0.435 0.378 -3.157 -0.07 0.68 -0.72 0.12
1 5.82 582 -0.963 -9.893 4.042 60.852 6.287 26.093 -764.952 0.000 -2504.868 0.353 0.139 -3.315 -0.07 0.68 -0.72 0.12
1 5.83 583 -0.321 -8.892 3.486 99.243 -5.127 39.520 -659.870 104.932 -2429.917 -0.375 -0.836 -2.533 -0.07 0.67 -0.73 0.13
1 5.84 584 0.838 -7.724 3.108 109.314 -13.519 44.830 -659.870 104.932 -2429.917 -1.591 -1.982 -1.981 -0.06 0.66 -0.74 0.13
1 5.85 585 1.609 -7.173 3.218 102.539 -5.341 49.103 -690.000 104.932 -2564.979 -2.423 -2.506 -1.918 -0.06 0.66 -0.74 0.13
1 5.86 586 1.901 -7.068 3.726 75.257 19.470 46.051 -690.000 -74.951 -2639.930 -2.787 -2.584 -2.280 -0.06 0.65 -0.74 0.14
1 5.87 587 1.077 -7.810 4.156 22.186 50.141 31.433 -690.000 -74.951 -2639.930 -2.032 -1.821 -2.620 -0.05 0.65 -0.75 0.14
1 5.88 588 -1.834 -9.673 3.414 -71.045 65.613 -0.397 -674.860 -119.922 -2774.992 0.836 0.048 -1.866 -0.05 0.65 -0.75 0.14
1 5.89 589 -3.405 -10.276 2.126 -89.569 48.126 -15.625 -524.958 -119.922 -2774.992 2.389 0.641 -0.652 -0.05 0.65 -0.75 0.13
1 5.90 590 -3.453 -10.123 0.704 -28.534 4.120 -29.694 -569.929 -164.893 -2729.872 2.467 0.453 0.542 -0.04 0.66 -0.74 0.13
1 5.91 591 -3.060 -9.965 0.828 26.428 -19.898 -32.868 -569.929 -164.893 -2729.872 2.112 0.288 0.395 -0.05 0.66 -0.74 0.12
1 5.92 592 -0.761 -9.146 1.805 61.951 -34.271 -33.203 -494.978 -44.971 -2699.891 -0.145 -0.527 -0.524 -0.05 0.66 -0.74 0.12
1 5.93 593 0.781 -8.773 2.366 73.487 -37.628 -31.433 -690.000 -74.951 -2639.930 -1.632 -0.891 -0.978 -0.05 0.65 -0.75 0.12
1 5.94 594 2.107 -8.509 2.576 68.054 -33.081 -26.154 -690.000 -74.951 -2639.930 -2.896 -1.142 -1.068 -0.05 0.65 -0.75 0.12
1 5.95 595 3.194 -7.753 1.901 39.795 -2.655 -15.137 -599.909 -14.990 -2624.940 -3.920 -1.886 -0.284 -0.06 0.64 -0.75 0.12
1 5.96 596 3.299 -7.532 1.173 17.792 23.834 -11.566 -629.890 -164.893 -2699.891 -3.971 -2.097 0.521 -0.06 0.64 -0.76 0.12
1 5.97 597 2.830 -7.576 0.421 2.289 40.680 -10.162 -629.890 -164.893 -2699.891 -3.487 -2.049 1.306 -0.06 0.64 -0.76 0.12
1 5.98 598 1.647 -8.217 0.469 -0.122 40.100 -10.834 -584.919 -104.932 -2894.914 -2.293 -1.408 1.258 -0.05 0.64 -0.76 0.12
1 5.99 599 1.097 -9.266 1.077 7.385 32.471 -13.062 -764.952 -149.902 -2789.982 -1.735 -0.360 0.649 -0.05 0.64 -0.76 0.11
1 6.00 600 0.340 -10.037 1.829 15.717 23.438 -17.639 -614.899 -29.980 -2684.901 -0.951 0.411 -0.095 -0.05 0.64 -0.76 0.11
1 6.01 601 0.101 -10.415 2.006 22.369 16.510 -20.813 -614.899 -29.980 -2684.901 -0.680 0.792 -0.248 -0.05 0.64 -0.76 0.11
1 6.02 602 -0.225 -10.113 2.078 29.022 13.062 -19.745 -599.909 -209.863 -2879.924 -0.321 0.495 -0.284 -0.05 0.64 -0.76 0.11
1 6.03 603 -0.306 -9.395 1.528 34.027 16.235 -15.167 -614.899 -224.854 -2939.885 -0.208 -0.217 0.309 -0.05 0.64 -0.76 0.1
1 6.04 604 -0.297 -8.691 1.202 43.244 25.910 -7.477 -614.899 -224.854 -2939.885 -0.194 -0.913 0.682 -0.05 0.63 -0.77 0.1
1 6.05 605 -0.067 -7.628 0.570 56.183 42.328 1.495 -569.929 -164.893 -2699.891 -0.421 -1.950 1.445 -0.05 0.63 -0.77 0.1
1 6.06 606 0.153 -7.394 0.498 53.864 48.828 2.167 -584.919 -254.984 -2864.934 -0.657 -2.166 1.598 -0.04 0.63 -0.77 0.1
1 6.07 607 0.187 -7.298 0.790 37.171 49.988 1.923 -584.919 -149.902 -3014.986 -0.708 -2.245 1.377 -0.04 0.62 -0.78 0.09
1 6.08 608 0.283 -7.341 0.833 11.993 46.967 1.038 -584.919 -149.902 -3014.986 -0.822 -2.191 1.377 -0.04 0.62 -0.78 0.09
1 6.09 609 0.048 -7.614 0.814 -11.902 39.917 -1.801 -449.857 -284.964 -2954.875 -0.602 -1.916 1.402 -0.04 0.62 -0.78 0.09
1 6.10 610 -0.086 -8.289 0.646 -32.501 28.290 -6.256 -434.867 -254.984 -3044.966 -0.476 -1.247 1.543 -0.03 0.62 -0.78 0.09
1 6.11 611 0.019 -8.744 0.704 -35.523 23.132 -8.637 -434.867 -254.984 -3044.966 -0.583 -0.802 1.440 -0.03 0.62 -0.78 0.09
1 6.12 612 0.029 -9.534 1.044 -30.548 19.348 -9.460 -464.997 -254.984 -2939.885 -0.577 -0.036 0.994 -0.03 0.63 -0.77 0.08
1 6.13 613 -0.038 -9.582 1.144 -22.736 18.433 -5.554 -419.876 -239.994 -2909.904 -0.499 0.001 0.843 -0.03 0.63 -0.77 0.08
1 6.14 614 0.206 -9.572 1.030 -11.505 19.013 -1.129 -524.958 -314.945 -3029.976 -0.738 -0.017 0.921 -0.03 0.63 -0.77 0.08
1 6.15 615 0.206 -9.089 0.733 3.937 21.149 3.113 -524.958 -314.945 -3029.976 -0.737 -0.504 1.200 -0.03 0.63 -0.77 0.08
1 6.16 616 -0.029 -8.725 0.369 22.736 24.139 5.829 -389.896 -329.935 -2864.934 -0.507 -0.867 1.568 -0.03 0.63 -0.77 0.08
1 6.17 617 -0.757 -8.203 -0.067 42.359 25.910 6.561 -434.867 -224.854 -3014.986 0.207 -1.381 2.038 -0.03 0.63 -0.77 0.07
1 6.18 618 -1.149 -8.188 -0.177 42.969 24.414 4.578 -434.867 -224.854 -3014.986 0.583 -1.382 2.206 -0.02 0.63 -0.77 0.07
1 6.19 619 -1.403 -8.251 -0.005 30.365 20.599 2.014 -449.857 -239.994 -2954.875 0.823 -1.306 2.097 -0.02 0.63 -0.78 0.07
1 6.20 620 -1.255 -8.979 0.014 -1.862 14.587 -0.885 -269.974 -239.994 -2879.924 0.660 -0.561 2.150 -0.02 0.62 -0.78 0.07
1 6.21 621 -0.943 -9.726 0.283 -24.750 14.465 1.709 -464.997 -254.984 -3044.966 0.343 0.182 1.863 -0.02 0.62 -0.78 0.07
1 6.22 622 -0.407 -10.487 0.302 -41.535 18.158 7.477 -464.997 -254.984 -3044.966 -0.205 0.932 1.787 -0.02 0.63 -0.78 0.07
1 6.23 623 -0.053 -11.172 0.594 -49.133 19.745 15.869 -374.906 -359.916 -2954.875 -0.578 1.601 1.416 -0.02 0.63 -0.77 0.07
1 6.24 624 -1.025 -11.813 2.471 -31.555 -2.075 25.330 -254.984 -149.902 -3149.898 0.363 2.230 -0.533 -0.01 0.63 -0.77 0.07
1 6.25 625 -1.944 -12.862 5.167 5.096 -14.893 15.411 -254.984 -149.902 -3149.898 1.247 3.270 -3.283 -0.01 0.64 -0.77 0.07
1 6.26 626 -3.778 -14.098 6.680 12.085 1.312 -16.266 -269.974 -119.922 -3059.957 3.057 4.507 -4.801 -0.01 0.64 -0.77 0.07
1 6.27 627 -3.678 -15.438 5.220 -81.177 -22.797 -54.382 -254.984 -104.932 -2939.885 3.030 5.836 -3.370 -0.01 0.64 -0.77 0.07
1 6.28 628 -3.285 -15.443 3.941 -64.575 -55.420 -46.509 -434.867 -224.854 -3014.986 2.727 5.814 -2.209 -0.02 0.64 -0.76 0.07
1 6.29 629 -2.548 -13.758 4.228 10.010 -56.000 -23.865 -434.867 -224.854 -3014.986 2.066 4.112 -2.561 -0.02 0.64 -0.76 0.07
1 6.30 630 -1.595 -11.550 4.501 70.252 -34.515 -10.437 -464.997 -179.883 -2819.963 1.156 1.911 -2.788 -0.03 0.64 -0.76 0.07
1 6.31 631 -1.312 -10.128 4.496 80.567 -16.846 -11.414 -599.909 -164.893 -2984.855 0.898 0.509 -2.667 -0.03 0.64 -0.77 0.07
1 6.32 632 -1.547 -8.169 3.017 42.633 -32.013 5.493 -599.909 -164.893 -2984.855 1.153 -1.428 -1.074 -0.03 0.63 -0.77 0.07
1 6.33 633 -0.153 -7.475 1.710 1.770 -42.084 15.259 -434.867 -254.984 -2939.885 -0.243 -2.103 0.324 -0.03 0.63 -0.77 0.07
1 6.34 634 0.800 -7.939 0.867 -76.538 -27.832 29.144 -494.978 -119.922 -3059.957 -1.227 -1.643 1.142 -0.04 0.63 -0.77 0.08
1 6.35 635 0.484 -8.797 1.896 -107.605 -26.215 28.076 -509.968 -254.984 -2969.865 -0.946 -0.809 -0.012 -0.04 0.63 -0.77 0.08
1 6.36 636 0.330 -9.975 3.970 -115.235 -31.036 12.177 -509.968 -254.984 -2969.865 -0.817 0.340 -2.245 -0.04 0.64 -0.76 0.08
1 6.37 637 0.249 -11.660 6.034 -111.023 -30.487 -11.292 -449.857 -119.922 -3134.908 -0.730 1.999 -4.461 -0.04 0.65 -0.76 0.08
1 6.38 638 0.091 -12.920 6.407 -99.182 -25.940 -28.595 -419.876 14.990 -2984.855 -0.540 3.233 -4.993 -0.04 0.65 -0.75 0.08
1 6.39 639 -0.072 -13.006 3.400 -41.962 -25.635 -33.692 -419.876 14.990 -2984.855 -0.325 3.297 -2.123 -0.05 0.66 -0.75 0.08
1 6.40 640 -0.168 -11.617 1.370 34.851 -25.726 -29.511 -629.890 -119.922 -2774.992 -0.172 1.896 -0.173 -0.05 0.66 -0.74 0.08
1 6.41 641 -0.421 -10.200 0.560 110.138 -30.304 -27.222 -629.890 -119.922 -2774.992 0.133 0.480 0.660 -0.05 0.66 -0.75 0.08
1 6.42 642 -0.555 -8.323 1.604 142.365 -47.608 -18.951 -599.909 89.941 -2774.992 0.358 -1.349 -0.037 -0.06 0.65 -0.76 0.08
1 6.43 643 -0.077 -7.667 2.734 96.497 -56.183 -8.209 -599.909 89.941 -2774.992 -0.084 -1.972 -0.968 -0.06 0.64 -0.76 0.09
1 6.44 644 0.685 -7.599 3.673 15.839 -56.671 2.838 -629.890 -89.941 -2909.904 -0.821 -2.017 -1.789 -0.06 0.63 -0.77 0.09
1 6.45 645 1.255 -8.203 3.812 -65.949 -49.500 11.932 -749.961 -89.941 -2879.924 -1.381 -1.415 -1.933 -0.07 0.63 -0.77 0.09
1 6.46 646 1.590 -9.802 3.218 -127.015 -24.414 22.247 -749.961 -89.941 -2879.924 -1.713 0.165 -1.441 -0.07 0.64 -0.76 0.09
1 6.47 647 1.322 -10.698 2.643 -107.972 -5.127 27.435 -764.952 -254.984 -2864.934 -1.454 1.032 -1.031 -0.07 0.64 -0.76 0.09
1 6.48 648 0.828 -10.841 1.992 -54.871 9.979 31.311 -764.952 -254.984 -2864.934 -0.990 1.150 -0.543 -0.07 0.65 -0.75 0.1
1 6.49 649 -0.101 -9.802 1.638 37.415 16.968 30.029 -704.991 89.941 -2849.943 -0.154 0.098 -0.299 -0.07 0.65 -0.75 0.1
1 6.50 650 -0.895 -8.615 1.528 78.766 15.808 26.001 -704.991 89.941 -2849.943 0.598 -1.078 -0.112 -0.07 0.65 -0.75 0.1
1 6.51 651 -1.456 -7.628 1.307 93.323 10.345 17.120 -734.971 29.980 -2894.914 1.119 -2.044 0.234 -0.06 0.65 -0.75 0.1
1 6.52 652 -1.824 -6.857 1.077 77.393 2.777 5.981 -839.903 29.980 -2864.934 1.465 -2.791 0.600 -0.06 0.64 -0.76 0.1
1 6.53 653 -2.030 -6.613 1.144 35.309 -10.162 -2.930 -839.903 29.980 -2864.934 1.667 -3.017 0.636 -0.06 0.64 -0.76 0.1
1 6.54 654 -1.662 -7.168 1.595 -41.016 -26.276 -9.308 -674.860 14.990 -2879.924 1.310 -2.455 0.221 -0.06 0.64 -0.76 0.1
1 6.55 655 -1.437 -8.050 1.839 -69.855 -28.778 -9.583 -674.860 14.990 -2879.924 1.106 -1.583 -0.064 -0.06 0.64 -0.76 0.1
1 6.56 656 -1.082 -9.706 1.437 -56.366 -21.149 -2.747 -599.909 -14.990 -2849.943 0.789 0.040 0.146 -0.07 0.64 -0.76 0.1
1 6.57 657 -1.212 -10.166 1.006 -19.928 -16.571 2.930 -599.909 -14.990 -2849.943 0.918 0.488 0.508 -0.07 0.65 -0.75 0.1
1 6.58 658 -1.355 -10.243 0.752 17.365 -13.794 7.111 -764.952 29.980 -2939.885 1.054 0.562 0.744 -0.07 0.65 -0.75 0.11
1 6.59 659 -1.518 -9.817 0.575 38.391 -14.832 9.399 -690.000 74.951 -2864.934 1.202 0.142 0.953 -0.07 0.65 -0.75 0.11
1 6.60 660 -1.614 -8.945 0.536 38.513 -21.149 8.942 -690.000 74.951 -2864.934 1.280 -0.721 1.044 -0.07 0.64 -0.75 0.11
1 6.61 661 -1.350 -8.141 0.479 18.341 -32.837 5.096 -599.909 -44.971 -2984.855 1.002 -1.517 1.151 -0.07 0.64 -0.76 0.11
1 6.62 662 -0.895 -8.155 0.474 2.258 -36.377 3.357 -599.909 -44.971 -2984.855 0.548 -1.496 1.191 -0.07 0.64 -0.76 0.11
1 6.63 663 -0.488 -8.356 0.555 -10.895 -35.767 2.441 -734.971 74.951 -3014.986 0.146 -1.293 1.122 -0.07 0.64 -0.76 0.11
1 6.64 664 -0.522 -8.988 0.589 -27.100 -28.565 -0.336 -839.903 29.980 -3014.986 0.193 -0.668 1.054 -0.08 0.64 -0.76 0.12
1 6.65 665 -0.484 -9.438 0.431 -32.349 -23.010 -3.510 -1019.936 -29.980 -2969.865 0.163 -0.225 1.165 -0.08 0.64 -0.75 0.12
1 6.66 666 -0.766 -9.754 0.512 -32.959 -20.813 -6.104 -734.971 74.951 -2969.865 0.457 0.081 1.030 -0.08 0.64 -0.75 0.12
1 6.67 667 -0.747 -9.654 0.565 -28.961 -21.607 -9.125 -734.971 74.951 -2969.865 0.451 -0.028 0.924 -0.08 0.65 -0.75 0.12
1 6.68 668 -0.963 -9.477 0.924 -20.447 -26.001 -13.702 -854.893 44.971 -2909.904 0.684 -0.213 0.519 -0.08 0.65 -0.75 0.12
1 6.69 669 -0.972 -9.089 0.881 -12.054 -29.083 -14.160 -854.893 44.971 -2909.904 0.714 -0.606 0.527 -0.09 0.65 -0.75 0.12
1 6.70 670 -1.030 -8.916 1.178 -2.563 -31.921 -14.374 -989.955 0.000 -2864.934 0.794 -0.782 0.207 -0.09 0.65 -0.75 0.12
1 6.71 671 -1.192 -8.308 0.900 15.015 -29.297 -13.062 -854.893 89.941 -2909.904 1.007 -1.391 0.489 -0.09 0.65 -0.75 0.12
1 6.72 672 -1.551 -7.911 0.752 25.482 -27.161 -10.864 -1064.906 0.000 -2864.934 1.392 -1.785 0.666 -0.1 0.65 -0.75 0.12
1 6.73 673 -1.389 -7.939 0.407 29.266 -27.374 -8.789 -974.965 119.922 -2954.875 1.252 -1.750 1.053 -0.1 0.65 -0.75 0.12
1 6.74 674 -0.963 -8.117 0.038 22.736 -30.212 -6.775 -974.965 119.922 -2954.875 0.845 -1.567 1.466 -0.1 0.64 -0.75 0.12
1 6.75 675 0.129 -9.228 0.053 -12.207 -34.607 -5.096 -974.965 89.941 -2879.924 -0.229 -0.451 1.480 -0.1 0.64 -0.75 0.13
1 6.76 676 0.795 -10.382 0.436 -42.175 -35.309 -5.524 -974.965 89.941 -2879.924 -0.877 0.702 1.092 -0.1 0.64 -0.75 0.13
1 6.77 677 1.183 -11.665 0.843 -63.873 -30.487 -4.059 -1004.945 44.971 -2909.904 -1.244 1.976 0.625 -0.11 0.64 -0.75 0.13
1 6.78 678 0.982 -12.944 0.728 -61.005 -14.282 3.479 -1064.906 104.932 -3044.966 -1.018 3.227 0.548 -0.11 0.65 -0.74 0.13
1 6.79 679 0.306 -13.068 -0.072 -34.790 -3.143 7.660 -1109.877 44.971 -2954.875 -0.347 3.341 1.267 -0.11 0.65 -0.74 0.13
1 6.80 680 -0.474 -12.632 -1.030 -0.641 0.641 9.430 -1034.926 14.990 -2774.992 0.423 2.901 2.187 -0.11 0.65 -0.74 0.13
1 6.81 681 -1.087 -11.804 -1.470 27.954 -4.028 6.317 -1034.926 14.990 -2774.992 1.024 2.074 2.640 -0.11 0.65 -0.74 0.13
1 6.82 682 -1.336 -11.004 -1.159 38.544 -15.015 -0.183 -944.984 149.902 -2864.934 1.268 1.280 2.377 -0.11 0.65 -0.74 0.13
1 6.83 683 -0.666 -11.038 1.499 34.607 -31.616 -13.947 -944.984 149.902 -2864.934 0.606 1.321 -0.222 -0.11 0.65 -0.74 0.13
1 6.84 684 0.800 -13.082 3.591 34.393 -27.802 -19.714 -1079.896 89.941 -2954.875 -0.843 3.372 -2.270 -0.11 0.65 -0.74 0.13
1 6.85 685 3.065 -16.353 5.090 -7.538 -15.228 -2.075 -1034.926 44.971 -2909.904 -3.073 6.650 -3.715 -0.12 0.65 -0.74 0.13
1 6.86 686 1.422 -16.372 2.423 -76.325 26.733 66.315 -1094.887 29.980 -3044.966 -1.467 6.659 -1.121 -0.12 0.65 -0.74 0.14
1 6.87 687 -1.408 -14.778 -0.177 -15.350 52.979 63.172 -1034.926 14.990 -2954.875 1.256 5.053 1.381 -0.11 0.65 -0.74 0.14
1 6.88 688 -2.993 -12.881 -1.235 61.066 35.584 39.398 -1034.926 14.990 -2954.875 2.748 3.160 2.448 -0.1 0.65 -0.74 0.14
1 6.89 689 -2.366 -12.000 0.024 71.045 -21.607 19.714 -1004.945 284.964 -2849.943 2.067 2.293 1.291 -0.1 0.65 -0.74 0.14
1 6.90 690 0.646 -11.952 4.104 -6.165 -49.103 16.907 -1004.945 284.964 -2849.943 -0.964 2.259 -2.696 -0.1 0.65 -0.74 0.14
1 6.91 691 1.633 -11.488 5.119 -35.095 -5.707 20.172 -1139.857 149.902 -2864.934 -1.963 1.797 -3.696 -0.1 0.65 -0.74 0.15
1 6.92 692 0.733 -10.592 4.056 -26.733 36.408 20.264 -1109.877 44.971 -3029.976 -1.086 0.896 -2.677 -0.1 0.65 -0.74 0.15
1 6.93 693 -1.393 -9.228 2.016 10.803 26.733 12.451 -989.955 179.883 -2939.885 0.975 -0.473 -0.690 -0.1 0.65 -0.74 0.15
1 6.94 694 -1.432 -8.653 2.792 27.588 1.434 14.496 -944.984 104.932 -3014.986 0.987 -1.043 -1.437 -0.1 0.65 -0.74 0.14
1 6.95 695 -0.709 -8.265 3.601 43.427 -15.350 21.027 -944.984 104.932 -3014.986 0.234 -1.421 -2.189 -0.1 0.65 -0.74 0.15
1 6.96 696 0.464 -7.911 3.826 63.080 -27.374 28.778 -824.913 239.994 -3029.976 -0.971 -1.760 -2.324 -0.09 0.64 -0.74 0.15
1 6.97 697 2.212 -7.322 3.567 81.818 -32.532 36.316 -824.913 239.994 -3029.976 -2.756 -2.329 -1.952 -0.09 0.64 -0.75 0.15
1 6.98 698 3.898 -6.632 3.840 101.532 -9.613 39.093 -929.994 119.922 -2984.855 -4.487 -2.993 -2.094 -0.09 0.63 -0.75 0.16
1 6.99 699 4.156 -6.771 4.348 87.830 27.466 31.983 -974.965 44.971 -2984.855 -4.798 -2.822 -2.453 -0.09 0.63 -0.76 0.16
1 7.00 700 2.255 -8.524 4.889 -7.050 84.320 12.329 -944.984 29.980 -3074.947 -2.969 -1.017 -2.768 -0.08 0.62 -0.76 0.16
1 7.01 701 -0.239 -10.013 4.204 -81.391 91.614 -2.777 -914.854 -104.932 -3254.979 -0.489 0.467 -2.110 -0.08 0.62 -0.76 0.15
1 7.02 702 -2.543 -10.875 2.701 -103.852 72.937 -16.449 -914.854 -104.932 -3254.979 1.804 1.302 -0.739 -0.07 0.63 -0.76 0.15
1 7.03 703 -3.491 -10.951 1.465 -62.287 37.079 -26.886 -614.899 0.000 -3299.950 2.764 1.348 0.347 -0.07 0.63 -0.76 0.14
1 7.04 704 -3.002 -10.142 1.240 12.451 3.357 -33.753 -614.899 0.000 -3299.950 2.311 0.524 0.505 -0.07 0.64 -0.75 0.14
1 7.05 705 -0.972 -8.667 2.145 93.781 -24.384 -35.004 -704.991 44.971 -3134.908 0.324 -0.946 -0.357 -0.07 0.64 -0.76 0.14
1 7.06 706 0.886 -7.939 2.696 100.922 -25.757 -32.684 -779.942 209.863 -2984.855 -1.486 -1.653 -0.782 -0.07 0.63 -0.76 0.14
1 7.07 707 2.145 -7.585 3.156 78.827 -17.761 -27.680 -779.942 209.863 -2984.855 -2.689 -1.979 -1.088 -0.08 0.62 -0.77 0.14
1 7.08 708 2.921 -7.652 3.137 12.665 9.857 -16.998 -869.883 29.980 -3329.931 -3.377 -1.871 -0.867 -0.08 0.61 -0.77 0.14
1 7.09 709 2.677 -8.026 2.107 -31.189 33.478 -8.362 -869.883 29.980 -3329.931 -3.117 -1.497 0.164 -0.08 0.61 -0.77 0.13
1 7.10 710 1.848 -8.442 1.240 -51.636 48.401 -4.395 -929.994 -14.990 -3359.911 -2.290 -1.094 0.973 -0.08 0.62 -0.77 0.13
1 7.11 711 0.934 -9.184 0.575 -39.520 49.317 -6.012 -929.994 -14.990 -3359.911 -1.385 -0.369 1.562 -0.07 0.62 -0.77 0.13
1 7.12 712 0.110 -9.836 0.824 15.289 28.809 -11.414 -944.984 -149.902 -3374.901 -0.554 0.269 1.257 -0.07 0.62 -0.77 0.12
1 7.13 713 -0.010 -9.692 1.513 44.953 15.137 -15.350 -749.961 89.941 -3239.989 -0.422 0.124 0.564 -0.07 0.62 -0.77 0.12
1 7.14 714 0.182 -9.141 1.949 54.169 8.698 -17.273 -749.961 89.941 -3239.989 -0.593 -0.417 0.176 -0.07 0.62 -0.77 0.12
1 7.15 715 0.354 -8.208 2.193 39.124 15.533 -13.702 -764.952 29.980 -3299.950 -0.714 -1.319 0.078 -0.07 0.62 -0.78 0.12
1 7.16 716 0.450 -7.801 1.652 27.008 29.419 -7.233 -764.952 29.980 -3299.950 -0.798 -1.714 0.672 -0.07 0.61 -0.78 0.12
1 7.17 717 0.378 -7.504 1.422 20.935 42.328 -2.380 -764.952 0.000 -3479.983 -0.729 -2.001 0.937 -0.07 0.61 -0.78 0.11
1 7.18 718 0.297 -7.465 1.168 18.677 48.493 -1.434 -764.952 0.000 -3479.983 -0.660 -2.032 1.220 -0.06 0.61 -0.78 0.11
1 7.19 719 0.249 -7.552 1.111 14.893 50.507 -3.876 -794.932 -29.980 -3449.853 -0.628 -1.939 1.302 -0.06 0.61 -0.78 0.11
1 7.20 720 0.220 -7.896 1.034 2.716 45.807 -11.414 -629.890 -14.990 -3419.872 -0.610 -1.590 1.396 -0.06 0.61 -0.78 0.11
1 7.21 721 0.426 -8.193 0.943 -6.622 40.009 -13.611 -629.890 -14.990 -3419.872 -0.817 -1.291 1.492 -0.05 0.61 -0.78 0.1
1 7.22 722 0.464 -8.313 0.690 -18.829 33.875 -12.878 -764.952 -74.951 -3404.882 -0.843 -1.179 1.718 -0.05 0.61 -0.78 0.1
1 7.23 723 0.201 -8.404 0.613 -22.003 32.959 -12.024 -764.952 -74.951 -3404.882 -0.573 -1.096 1.764 -0.05 0.61 -0.78 0.1
1 7.24 724 -0.268 -8.457 0.651 -20.630 32.349 -10.712 -629.890 -44.971 -3464.993 -0.097 -1.052 1.693 -0.05 0.61 -0.78 0.09
1 7.25 725 -0.584 -8.466 0.857 -15.869 29.846 -10.620 -629.890 -44.971 -3464.993 0.224 -1.050 1.458 -0.05 0.62 -0.78 0.09
1 7.26 726 -0.709 -8.677 0.948 -12.909 24.109 -10.315 -629.890 -14.990 -3389.892 0.355 -0.845 1.345 -0.05 0.62 -0.78 0.09
1 7.27 727 -0.503 -8.653 1.101 -15.961 12.085 -8.667 -690.000 74.951 -3374.901 0.157 -0.873 1.172 -0.05 0.62 -0.78 0.09
1 7.28 728 -0.129 -8.682 1.077 -19.867 7.202 -7.172 -690.000 74.951 -3374.901 -0.207 -0.850 1.175 -0.05 0.62 -0.78 0.09
1 7.29 729 0.163 -8.629 0.934 -19.135 11.719 -3.937 -794.932 -104.932 -3224.999 -0.490 -0.909 1.291 -0.05 0.62 -0.78 0.08
1 7.30 730 0.014 -8.538 0.426 -8.270 27.283 1.801 -584.919 0.000 -3449.853 -0.341 -1.012 1.750 -0.04 0.62 -0.78 0.08
1 7.31 731 -0.584 -8.533 0.225 1.007 36.286 5.127 -524.958 14.990 -3539.944 0.244 -1.018 1.942 -0.04 0.62 -0.78 0.08
1 7.32 732 -1.221 -8.955 -0.038 6.714 40.924 8.240 -524.958 14.990 -3539.944 0.861 -0.595 2.208 -0.04 0.62 -0.78 0.08
1 7.33 733 -1.733 -8.912 -0.177 7.111 38.513 10.773 -524.958 44.971 -3314.940 1.344 -0.637 2.348 -0.04 0.62 -0.78 0.08
1 7.34 734 -1.719 -9.275 -0.335 -1.617 32.745 13.123 -584.919 74.951 -3374.901 1.292 -0.273 2.498 -0.03 0.62 -0.78 0.08
1 7.35 735 -1.446 -9.529 -0.019 -10.712 28.900 17.304 -584.919 74.951 -3374.901 0.980 -0.022 2.165 -0.03 0.62 -0.78 0.08
1 7.36 736 -1.504 -9.941 1.245 -20.416 19.592 24.811 -599.909 44.971 -3389.892 0.996 0.386 0.870 -0.03 0.63 -0.78 0.08
1 7.37 737 -2.399 -10.947 4.185 -17.609 -8.728 26.611 -389.896 -74.951 -3329.931 1.794 1.380 -2.147 -0.02 0.63 -0.77 0.08
1 7.38 738 -3.912 -12.350 7.192 -6.592 -3.265 2.167 -524.958 -14.990 -3359.911 3.279 2.781 -5.172 -0.02 0.63 -0.77 0.08
1 7.39 739 -5.081 -14.380 7.312 -59.296 4.822 -42.603 -524.958 -14.990 -3359.911 4.460 4.807 -5.312 -0.02 0.63 -0.77 0.08
1 7.40 740 -3.912 -15.984 5.287 -146.637 -32.593 -77.515 -464.997 0.000 -3329.931 3.372 6.381 -3.409 -0.03 0.64 -0.77 0.08
1 7.41 741 -2.375 -16.008 3.290 -138.489 -73.059 -59.570 -584.919 149.902 -3329.931 1.961 6.358 -1.632 -0.03 0.64 -0.76 0.07
1 7.42 742 0.153 -13.379 3.103 -1.923 -53.314 -16.419 -584.919 149.902 -3329.931 -0.473 3.698 -1.616 -0.04 0.65 -0.76 0.07
1 7.43 743 0.594 -11.861 3.060 55.298 -14.221 -9.338 -494.978 164.893 -3239.989 -0.866 2.174 -1.606 -0.05 0.65 -0.75 0.08
1 7.44 744 0.488 -10.286 2.543 46.906 -19.989 4.852 -674.860 239.994 -3164.888 -0.730 0.623 -0.928 -0.05 0.64 -0.76 0.08
1 7.45 745 1.528 -9.366 2.145 4.639 -45.380 14.923 -599.909 239.994 -3164.888 -1.771 -0.286 -0.469 -0.05 0.64 -0.76 0.08
1 7.46 746 2.557 -9.122 1.628 -48.584 -42.877 24.017 -599.909 239.994 -3164.888 -2.801 -0.531 0.043 -0.05 0.64 -0.76 0.08
1 7.47 747 1.982 -9.376 1.451 -92.957 -18.585 35.431 -704.991 119.922 -3284.960 -2.236 -0.292 0.134 -0.05 0.65 -0.76 0.08
1 7.48 748 0.996 -9.994 2.150 -110.566 -4.669 37.781 -704.991 239.994 -3104.927 -1.282 0.304 -0.710 -0.05 0.65 -0.75 0.09
1 7.49 749 -0.077 -11.253 4.271 -90.241 -9.491 16.571 -704.991 239.994 -3104.927 -0.248 1.543 -2.989 -0.05 0.66 -0.75 0.09
1 7.50 750 -0.148 -11.627 5.014 -53.986 -17.151 -1.587 -629.890 284.964 -3134.908 -0.205 1.900 -3.873 -0.05 0.66 -0.74 0.09
1 7.51 751 -0.522 -11.119 4.803 -8.118 -20.935 -14.069 -674.860 314.945 -2984.855 0.168 1.382 -3.757 -0.06 0.67 -0.74 0.09
1 7.52 752 -2.227 -9.232 3.251 64.301 -14.404 -29.022 -629.890 359.916 -2954.875 1.929 -0.505 -2.188 -0.06 0.66 -0.74 0.09
1 7.53 753 -2.955 -8.576 1.719 102.387 -13.214 -44.891 -629.890 359.916 -2954.875 2.697 -1.147 -0.523 -0.06 0.66 -0.74 0.09
1 7.54 754 -3.146 -8.141 1.121 104.279 -30.457 -55.359 -779.942 389.896 -2984.855 2.944 -1.562 0.242 -0.06 0.65 -0.75 0.09
1 7.55 755 -2.394 -8.624 1.628 53.375 -64.453 -54.321 -734.971 449.857 -3044.966 2.274 -1.059 -0.122 -0.07 0.65 -0.75 0.09
1 7.56 756 0.283 -9.682 3.740 -72.663 -92.774 -18.463 -734.971 449.857 -3044.966 -0.329 0.007 -2.182 -0.07 0.64 -0.76 0.09
1 7.57 757 1.796 -10.746 4.171 -122.010 -72.235 8.026 -929.994 164.893 -3029.976 -1.790 1.060 -2.679 -0.08 0.65 -0.75 0.09
1 7.58 758 2.452 -12.407 3.788 -120.270 -30.090 24.078 -839.903 329.935 -3074.947 -2.429 2.698 -2.455 -0.08 0.65 -0.75 0.1
1 7.59 759 1.470 -13.963 3.098 -60.120 21.729 32.562 -929.994 434.867 -2984.855 -1.513 4.216 -2.089 -0.09 0.66 -0.74 0.1
1 7.60 760 0.603 -13.643 2.581 -9.491 26.428 35.370 -929.994 434.867 -2984.855 -0.699 3.888 -1.642 -0.08 0.67 -0.73 0.1
1 7.61 761 0.244 -12.474 2.136 38.788 14.557 38.452 -854.893 509.968 -2849.943 -0.396 2.721 -1.191 -0.08 0.67 -0.73 0.1
1 7.62 762 -0.129 -10.669 1.882 81.574 3.937 40.619 -854.893 584.919 -2804.973 -0.082 0.924 -0.862 -0.08 0.66 -0.74 0.1
1 7.63 763 -0.402 -8.878 1.437 111.451 1.892 39.185 -854.893 584.919 -2804.973 0.131 -0.850 -0.281 -0.07 0.66 -0.74 0.1
1 7.64 764 -1.202 -5.938 0.781 121.308 3.662 27.283 -899.864 464.847 -2879.924 0.875 -3.766 0.552 -0.07 0.65 -0.75 0.11
1 7.65 765 -1.322 -4.880 0.383 93.018 -2.502 16.663 -854.893 389.896 -2909.904 0.951 -4.795 1.133 -0.07 0.65 -0.75 0.11
1 7.66 766 -1.058 -4.516 0.766 8.972 -16.724 3.052 -704.991 284.964 -3104.927 0.650 -5.118 0.984 -0.07 0.64 -0.76 0.11
1 7.67 767 -0.857 -5.392 1.379 -49.256 -20.874 -3.418 -704.991 284.964 -3104.927 0.453 -4.243 0.364 -0.07 0.64 -0.76 0.11
1 7.68 768 -0.718 -6.867 1.753 -87.708 -18.463 -6.683 -690.000 374.906 -3149.898 0.327 -2.784 -0.097 -0.07 0.64 -0.76 0.11
1 7.69 769 -0.618 -8.437 1.858 -95.276 -10.376 -5.096 -764.952 299.955 -3044.966 0.241 -1.236 -0.336 -0.07 0.65 -0.75 0.11
1 7.70 770 -0.828 -10.085 1.575 -72.571 -0.153 0.458 -764.952 299.955 -3044.966 0.461 0.391 -0.188 -0.07 0.65 -0.75 0.11
1 7.71 771 -1.666 -11.105 0.488 -11.108 14.557 12.238 -674.860 239.994 -2984.855 1.292 1.398 0.809 -0.07 0.65 -0.74 0.11
1 7.72 772 -2.466 -10.530 -0.263 23.834 13.947 16.541 -839.903 299.955 -3044.966 2.073 0.820 1.529 -0.07 0.66 -0.74 0.11
1 7.73 773 -3.108 -9.692 -0.800 46.387 2.380 15.167 -839.903 299.955 -3044.966 2.689 -0.014 2.088 -0.07 0.66 -0.74 0.11
1 7.74 774 -2.926 -8.351 -0.565 56.488 -25.665 11.353 -824.913 434.867 -2909.904 2.438 -1.334 1.977 -0.07 0.65 -0.75 0.12
1 7.75 775 -1.724 -7.590 -0.014 43.671 -38.605 7.874 -824.913 464.847 -2954.875 1.208 -2.084 1.495 -0.07 0.65 -0.75 0.12
1 7.76 776 -0.508 -7.518 0.278 17.487 -41.107 4.242 -824.913 284.964 -2984.855 -0.008 -2.146 1.264 -0.07 0.65 -0.75 0.12
1 7.77 777 0.211 -7.734 0.642 -12.116 -33.692 1.221 -824.913 284.964 -2984.855 -0.721 -1.928 0.919 -0.07 0.64 -0.75 0.12
1 7.78 778 0.431 -8.279 0.718 -41.168 -14.648 -3.601 -854.893 389.896 -3059.957 -0.933 -1.386 0.819 -0.07 0.65 -0.75 0.12
1 7.79 779 -0.010 -8.591 0.565 -45.014 -4.852 -7.050 -1019.936 299.955 -3014.986 -0.483 -1.084 0.918 -0.07 0.65 -0.75 0.13
1 7.80 780 -0.546 -8.777 0.445 -39.398 -1.678 -11.414 -1019.936 299.955 -3014.986 0.065 -0.907 0.973 -0.08 0.65 -0.75 0.13
1 7.81 781 -0.924 -8.605 0.383 -22.217 -10.712 -19.440 -794.932 329.935 -3119.917 0.486 -1.097 0.927 -0.08 0.65 -0.74 0.12
1 7.82 782 -1.135 -8.648 0.326 -11.292 -19.043 -24.414 -824.913 434.867 -2984.855 0.730 -1.059 0.958 -0.08 0.65 -0.74 0.12
1 7.83 783 -1.264 -8.533 0.378 -2.075 -26.978 -29.511 -989.955 254.984 -2819.963 0.900 -1.177 0.891 -0.08 0.65 -0.74 0.12
1 7.84 784 -1.140 -8.581 0.196 1.953 -32.593 -34.241 -989.955 254.984 -2819.963 0.828 -1.131 1.074 -0.09 0.65 -0.74 0.12
1 7.85 785 -1.245 -8.682 0.235 4.669 -33.508 -34.882 -944.984 449.857 -2789.982 0.993 -1.031 1.043 -0.09 0.65 -0.74 0.12
1 7.86 786 -0.776 -8.964 0.211 -2.167 -29.724 -29.327 -929.994 314.945 -2804.973 0.584 -0.749 1.075 -0.09 0.65 -0.74 0.12
1 7.87 787 -0.374 -9.323 0.187 -9.949 -22.919 -19.104 -929.994 314.945 -2804.973 0.232 -0.391 1.097 -0.1 0.65 -0.74 0.12
1 7.88 788 0.077 -10.181 0.010 -17.578 -9.308 -8.484 -1139.857 374.906 -2864.934 -0.163 0.459 1.229 -0.1 0.65 -0.74 0.12
1 7.89 789 0.330 -10.932 -0.182 -21.576 -1.526 -4.242 -1034.926 359.916 -2804.973 -0.403 1.207 1.385 -0.1 0.65 -0.74 0.12
1 7.90 790 0.105 -12.043 -0.464 -30.396 4.364 -1.343 -1034.926 359.916 -2849.943 -0.170 2.313 1.629 -0.1 0.66 -0.74 0.12
1 7.91 791 -0.292 -12.910 -0.642 -46.967 5.554 -1.068 -1034.926 359.916 -2849.943 0.229 3.174 1.756 -0.1 0.66 -0.74 0.12
1 7.92 792 -0.809 -13.571 -0.445 -63.446 -2.625 -7.629 -1139.857 494.978 -2819.963 0.749 3.826 1.484 -0.1 0.66 -0.73 0.12
1 7.93 793 -1.446 -14.294 -0.096 -49.469 -11.353 -10.620 -1184.978 464.847 -2729.872 1.397 4.540 1.042 -0.1 0.66 -0.73 0.12
1 7.94 794 -1.293 -14.495 0.728 -12.878 -16.876 -7.996 -1184.978 464.847 -2729.872 1.261 4.733 0.138 -0.11 0.67 -0.73 0.12
1 7.95 795 -0.479 -15.084 1.216 36.377 -13.428 -4.944 -1094.887 449.857 -2789.982 0.464 5.319 -0.384 -0.11 0.67 -0.73 0.12
1 7.96 796 2.150 -16.454 2.567 72.724 -15.900 18.158 -1019.936 719.981 -2759.852 -2.153 6.702 -1.592 -0.11 0.66 -0.73 0.12
1 7.97 797 3.261 -16.549 2.782 16.998 -18.433 56.061 -1139.857 569.929 -2864.934 -3.300 6.808 -1.715 -0.11 0.66 -0.73 0.12
1 7.98 798 3.117 -15.333 3.103 -24.567 8.637 81.116 -1139.857 569.929 -2864.934 -3.249 5.593 -2.029 -0.11 0.66 -0.73 0.13
1 7.99 799 2.203 -12.896 1.858 -10.773 47.424 79.285 -1259.929 509.968 -2849.943 -2.459 3.154 -0.820 -0.1 0.66 -0.73 0.13
1 8.00 800 -1.053 -9.836 -0.737 37.811 43.060 40.009 -1094.887 524.958 -2639.930 0.679 0.098 1.772 -0.09 0.66 -0.73 0.13
1 8.01 801 -1.872 -9.505 0.215 31.769 18.372 16.815 -1094.887 524.958 -2639.930 1.421 -0.225 0.860 -0.09 0.66 -0.73 0.13
1 8.02 802 -1.872 -9.611 2.083 -1.984 20.416 9.552 -1019.936 374.906 -2759.852 1.380 -0.113 -0.967 -0.09 0.66 -0.73 0.13
1 8.03 803 -1.772 -10.018 2.691 -47.272 38.239 18.524 -899.864 509.968 -2804.973 1.218 0.294 -1.602 -0.08 0.66 -0.73 0.13
1 8.04 804 -1.810 -9.979 2.926 -53.711 37.689 22.583 -854.893 359.916 -2729.872 1.213 0.251 -1.901 -0.08 0.66 -0.73 0.13
1 8.05 805 -1.494 -9.888 3.611 -41.016 36.408 24.017 -854.893 359.916 -2729.872 0.850 0.157 -2.652 -0.08 0.67 -0.73 0.13
1 8.06 806 -0.958 -9.797 4.219 -10.376 33.234 24.323 -869.883 254.984 -2714.881 0.268 0.065 -3.296 -0.07 0.67 -0.73 0.13
1 8.07 807 -0.402 -9.472 3.812 33.447 17.365 25.787 -914.854 449.857 -2639.930 -0.329 -0.256 -2.879 -0.07 0.67 -0.73 0.13
1 8.08 808 1.441 -8.342 2.773 99.121 -24.048 28.290 -914.854 449.857 -2639.930 -2.211 -1.374 -1.750 -0.07 0.67 -0.73 0.13
1 8.09 809 2.629 -7.403 2.380 128.693 -33.753 32.318 -764.952 569.929 -2684.901 -3.428 -2.293 -1.204 -0.07 0.66 -0.74 0.14
1 8.10 810 2.662 -6.546 3.041 114.411 9.491 39.337 -779.942 509.968 -2699.891 -3.540 -3.088 -1.473 -0.06 0.64 -0.75 0.14
1 8.11 811 1.283 -6.948 3.884 53.406 60.669 31.830 -824.913 284.964 -2804.973 -2.222 -2.655 -2.168 -0.06 0.64 -0.75 0.15
1 8.12 812 -1.015 -8.026 3.769 -34.119 97.504 15.167 -824.913 284.964 -2804.973 0.017 -1.564 -2.015 -0.05 0.64 -0.75 0.14
1 8.13 813 -3.218 -9.587 3.103 -101.349 96.344 -3.387 -599.909 434.867 -2849.943 2.179 -0.014 -1.435 -0.05 0.64 -0.75 0.14
1 8.14 814 -4.257 -10.707 1.805 -110.260 61.920 -17.853 -690.000 224.854 -2819.963 3.196 1.082 -0.296 -0.04 0.65 -0.75 0.13
1 8.15 815 -3.357 -11.081 1.341 -32.532 -8.209 -32.501 -690.000 224.854 -2819.963 2.317 1.430 0.011 -0.04 0.66 -0.74 0.13
1 8.16 816 -1.901 -10.530 2.136 30.487 -34.638 -35.767 -674.860 284.964 -2774.992 0.907 0.865 -0.856 -0.05 0.66 -0.74 0.13
1 8.17 817 -0.235 -9.932 2.562 72.235 -37.048 -33.630 -674.860 284.964 -2774.992 -0.699 0.264 -1.253 -0.05 0.66 -0.74 0.13
1 8.18 818 1.451 -8.777 2.825 84.320 -19.501 -23.682 -734.971 299.955 -2789.982 -2.267 -0.865 -1.275 -0.05 0.65 -0.75 0.13
1 8.19 819 2.097 -8.289 2.643 65.613 -0.641 -15.503 -734.971 299.955 -2789.982 -2.862 -1.335 -0.961 -0.06 0.64 -0.75 0.13
1 8.20 820 2.461 -7.585 2.394 35.278 19.867 -9.949 -779.942 434.867 -3029.976 -3.186 -2.025 -0.617 -0.06 0.64 -0.76 0.13
1 8.21 821 2.447 -7.341 1.772 8.362 36.957 -7.324 -794.932 149.902 -2894.914 -3.164 -2.263 0.045 -0.06 0.64 -0.76 0.12
1 8.22 822 1.891 -7.705 1.159 -7.416 47.394 -8.850 -794.932 149.902 -2894.914 -2.607 -1.898 0.660 -0.05 0.64 -0.76 0.12
1 8.23 823 1.049 -8.246 1.202 -1.282 45.471 -12.970 -764.952 179.883 -2864.934 -1.764 -1.360 0.602 -0.05 0.64 -0.76 0.12
1 8.24 824 0.431 -8.931 1.207 9.338 38.056 -17.883 -764.952 179.883 -2864.934 -1.141 -0.677 0.588 -0.05 0.64 -0.76 0.12
1 8.25 825 -0.072 -9.711 1.681 21.912 22.461 -25.269 -539.948 224.854 -2969.865 -0.592 0.105 0.140 -0.05 0.64 -0.76 0.11
1 8.26 826 -0.196 -9.692 2.136 23.193 14.404 -26.489 -539.948 224.854 -2969.865 -0.429 0.089 -0.284 -0.05 0.64 -0.76 0.11
1 8.27 827 -0.230 -9.280 2.389 18.219 11.078 -25.147 -674.860 284.964 -2984.855 -0.356 -0.319 -0.505 -0.05 0.63 -0.76 0.1
1 8.28 828 -0.211 -9.026 2.169 13.458 15.381 -20.935 -734.971 374.906 -2939.885 -0.339 -0.569 -0.256 -0.05 0.63 -0.77 0.1
1 8.29 829 -0.273 -8.552 1.686 15.045 22.430 -15.167 -734.971 374.906 -2939.885 -0.251 -1.040 0.250 -0.05 0.63 -0.77 0.1
1 8.30 830 -0.105 -8.260 0.776 22.858 30.243 -9.918 -824.913 89.941 -3104.927 -0.403 -1.329 1.183 -0.05 0.63 -0.77 0.1
1 8.31 831 0.215 -8.294 0.560 24.384 33.142 -8.392 -824.913 89.941 -3104.927 -0.715 -1.289 1.429 -0.05 0.63 -0.77 0.1
1 8.32 832 0.211 -8.160 0.852 10.040 36.438 -7.355 -734.971 224.854 -2969.865 -0.706 -1.410 1.199 -0.04 0.63 -0.77 0.09
1 8.33 833 0.072 -8.256 0.862 -3.387 38.849 -6.439 -734.971 224.854 -2969.865 -0.568 -1.313 1.197 -0.04 0.63 -0.77 0.09
1 8.34 834 -0.139 -8.356 0.862 -13.611 38.574 -5.096 -584.919 74.951 -2969.865 -0.359 -1.215 1.186 -0.04 0.63 -0.77 0.09
1 8.35 835 -0.388 -8.696 0.948 -20.203 35.523 -4.211 -569.929 -14.990 -3029.976 -0.114 -0.880 1.075 -0.04 0.63 -0.77 0.09
1 8.36 836 -0.182 -8.777 0.881 -22.583 30.731 -1.129 -569.929 -14.990 -3029.976 -0.323 -0.805 1.110 -0.04 0.63 -0.77 0.08
1 8.37 837 -0.053 -8.902 0.900 -21.515 29.999 0.275 -584.919 149.902 -2969.865 -0.458 -0.687 1.057 -0.03 0.63 -0.77 0.08
1 8.38 838 0.101 -8.758 0.728 -17.151 30.884 2.686 -584.919 149.902 -2969.865 -0.617 -0.839 1.188 -0.03 0.63 -0.77 0.08
1 8.39 839 0.105 -8.279 0.579 -11.688 32.227 4.486 -824.913 89.941 -3029.976 -0.631 -1.323 1.305 -0.03 0.63 -0.77 0.08
1 8.40 840 0.326 -7.949 0.077 -2.258 27.130 5.280 -599.909 164.893 -2909.904 -0.880 -1.658 1.776 -0.03 0.64 -0.77 0.08
1 8.41 841 0.287 -7.748 -0.273 2.258 20.569 5.554 -614.899 149.902 -2894.914 -0.856 -1.859 2.123 -0.03 0.64 -0.77 0.08
1 8.42 842 0.120 -7.829 -0.311 3.845 13.092 6.622 -524.958 119.922 -2984.855 -0.701 -1.776 2.166 -0.03 0.64 -0.77 0.08
1 8.43 843 -0.101 -8.054 -0.096 0.305 10.254 9.613 -524.958 119.922 -2984.855 -0.494 -1.549 1.956 -0.02 0.64 -0.77 0.08
1 8.44 844 -0.584 -8.998 0.565 -16.998 19.531 13.367 -629.890 89.941 -2909.904 -0.028 -0.605 1.292 -0.02 0.64 -0.77 0.08
1 8.45 845 -1.039 -9.764 0.766 -33.112 27.680 15.076 -629.890 89.941 -2909.904 0.404 0.159 1.071 -0.02 0.64 -0.77 0.08
1 8.46 846 -1.293 -10.497 0.364 -41.962 31.067 17.456 -524.958 89.941 -2909.904 0.630 0.883 1.420 -0.02 0.64 -0.76 0.08
1 8.47 847 -1.125 -11.109 -0.105 -32.868 24.811 23.224 -599.909 119.922 -2849.943 0.388 1.477 1.752 -0.02 0.64 -0.76 0.08
1 8.48 848 -0.704 -10.841 -0.072 -16.022 16.876 27.557 -599.909 44.971 -2879.924 -0.074 1.204 1.674 -0.01 0.65 -0.76 0.08
1 8.49 849 -0.771 -10.425 1.125 4.639 7.385 32.074 -629.890 239.994 -2804.973 -0.052 0.789 0.460 -0.01 0.65 -0.76 0.08
1 8.50 850 -1.197 -10.118 2.370 29.389 -6.348 29.358 -629.890 239.994 -2804.973 0.329 0.488 -0.776 -0.01 0.65 -0.76 0.08
1 8.51 851 -2.557 -10.286 4.836 56.183 -6.195 14.191 -434.867 254.984 -2819.963 1.651 0.669 -3.184 -0.01 0.64 -0.76 0.08
1 8.52 852 -4.525 -12.005 5.349 -19.562 6.470 -47.089 -434.867 254.984 -2819.963 3.611 2.403 -3.613 -0.01 0.64 -0.76 0.08
1 8.53 853 -3.649 -14.380 2.964 -122.071 -34.851 -83.466 -434.867 224.854 -2759.852 2.785 4.775 -1.222 -0.01 0.64 -0.76 0.08
1 8.54 854 -2.011 -15.141 1.595 -111.054 -69.153 -53.223 -449.857 89.941 -2909.904 1.396 5.461 -0.196 -0.02 0.65 -0.75 0.08
1 8.55 855 -0.627 -14.179 2.682 -36.560 -44.251 -26.032 -449.857 -14.990 -2849.943 0.093 4.476 -1.414 -0.03 0.66 -0.75 0.08
1 8.56 856 0.168 -13.183 3.812 6.500 -17.670 -20.111 -584.919 179.883 -2714.881 -0.659 3.474 -2.573 -0.03 0.66 -0.75 0.08
1 8.57 857 0.488 -12.656 3.836 -1.343 -8.759 -16.693 -584.919 179.883 -2714.881 -0.946 2.947 -2.585 -0.04 0.66 -0.75 0.08
1 8.58 858 0.426 -11.651 2.959 -19.318 -24.231 -4.578 -674.860 314.945 -2669.911 -0.860 1.939 -1.717 -0.04 0.66 -0.75 0.08
1 8.59 859 1.642 -10.066 1.360 -15.839 -47.363 12.207 -674.860 314.945 -2669.911 -2.067 0.351 -0.144 -0.04 0.66 -0.75 0.08
1 8.60 860 2.375 -9.275 0.876 -12.909 -26.123 20.783 -869.883 179.883 -2639.930 -2.799 -0.442 0.320 -0.04 0.66 -0.74 0.08
1 8.61 861 1.647 -9.003 1.346 -15.503 -0.031 20.996 -704.991 209.863 -2699.891 -2.074 -0.717 -0.166 -0.04 0.66 -0.74 0.08
1 8.62 862 0.350 -9.060 3.314 -15.869 -4.883 4.395 -749.961 209.863 -2729.872 -0.792 -0.663 -2.174 -0.04 0.66 -0.74 0.08
1 8.63 863 0.125 -9.026 4.487 -15.137 -17.944 -9.186 -734.971 254.984 -2534.999 -0.560 -0.698 -3.355 -0.05 0.66 -0.74 0.08
1 8.64 864 -0.182 -8.777 5.090 -9.552 -20.508 -17.914 -734.971 254.984 -2534.999 -0.227 -0.948 -3.953 -0.05 0.66 -0.74 0.08
1 8.65 865 -0.953 -8.715 4.880 -3.113 -10.620 -27.618 -569.929 359.916 -2549.989 0.581 -1.009 -3.722 -0.05 0.66 -0.74 0.08
1 8.66 866 -2.682 -8.964 2.959 1.678 4.639 -44.403 -569.929 359.916 -2549.989 2.355 -0.758 -1.773 -0.05 0.66 -0.74 0.08
1 8.67 867 -3.395 -9.534 1.437 -2.838 -8.698 -50.690 -704.991 119.922 -2669.911 3.120 -0.187 -0.224 -0.05 0.66 -0.75 0.08
1 8.68 868 -3.280 -9.955 0.651 -16.205 -39.215 -46.295 -690.000 104.932 -2564.979 3.061 0.235 0.572 -0.06 0.66 -0.75 0.08
1 8.69 869 -1.216 -10.410 1.935 -42.511 -80.353 -22.705 -899.864 239.994 -2549.989 1.097 0.680 -0.776 -0.06 0.66 -0.74 0.08
1 8.70 870 0.565 -10.410 3.175 -44.403 -79.315 -1.862 -929.994 164.893 -2594.959 -0.655 0.673 -2.076 -0.07 0.66 -0.74 0.09
1 8.71 871 1.714 -10.339 3.826 -30.914 -52.490 14.191 -929.994 164.893 -2594.959 -1.796 0.595 -2.782 -0.07 0.66 -0.74 0.09
1 8.72 872 1.906 -10.276 3.577 -14.252 -16.449 22.125 -929.994 239.994 -2699.891 -2.004 0.529 -2.570 -0.08 0.67 -0.74 0.09
1 8.73 873 1.298 -10.406 3.132 -4.974 15.045 25.421 -929.994 239.994 -2699.891 -1.428 0.657 -2.140 -0.08 0.67 -0.74 0.09
1 8.74 874 -0.086 -10.334 2.370 -3.479 30.121 25.940 -1019.936 224.854 -2714.881 -0.085 0.585 -1.385 -0.07 0.67 -0.74 0.09
1 8.75 875 -0.666 -10.204 1.949 -2.197 22.858 24.323 -989.955 329.935 -2609.950 0.455 0.456 -0.963 -0.07 0.67 -0.74 0.1
1 8.76 876 -0.915 -9.951 1.499 5.951 3.998 19.348 -734.971 299.955 -2609.950 0.626 0.206 -0.499 -0.07 0.67 -0.74 0.1
1 8.77 877 -0.900 -9.343 1.288 17.181 -2.289 15.350 -914.854 224.854 -2609.950 0.580 -0.399 -0.270 -0.07 0.67 -0.74 0.1
1 8.78 878 -1.015 -8.782 1.111 27.466 -0.397 9.552 -914.854 224.854 -2609.950 0.671 -0.955 -0.059 -0.07 0.66 -0.74 0.1
1 8.79 879 -1.049 -8.519 1.130 30.304 1.434 1.465 -944.984 299.955 -2564.979 0.690 -1.213 -0.032 -0.07 0.66 -0.74 0.1
1 8.80 880 -0.986 -8.643 1.068 14.343 -3.571 -3.204 -944.984 299.955 -2564.979 0.629 -1.083 0.075 -0.07 0.66 -0.74 0.1
1 8.81 881 -0.508 -9.050 1.633 -4.730 -8.026 -2.502 -854.893 314.945 -2519.858 0.156 -0.673 -0.461 -0.07 0.66 -0.74 0.1
1 8.82 882 -0.254 -9.606 1.839 -19.898 -8.514 -0.519 -854.893 284.964 -2624.940 -0.095 -0.117 -0.663 -0.07 0.66 -0.74 0.1
1 8.83 883 -0.019 -9.864 1.911 -23.773 -3.571 0.153 -854.893 284.964 -2624.940 -0.326 0.139 -0.753 -0.07 0.66 -0.74 0.1
1 8.84 884 -0.115 -10.133 1.561 -7.355 9.735 3.540 -839.903 224.854 -2639.930 -0.224 0.402 -0.452 -0.07 0.66 -0.74 0.1
1 8.85 885 -0.627 -9.874 1.034 10.254 14.954 5.768 -839.903 224.854 -2639.930 0.283 0.143 0.074 -0.07 0.66 -0.74 0.1
1 8.86 886 -1.307 -9.544 0.532 24.902 14.679 4.913 -839.903 74.951 -2534.999 0.952 -0.184 0.599 -0.07 0.66 -0.74 0.1
1 8.87 887 -1.714 -9.127 0.134 30.975 7.172 3.265 -839.903 74.951 -2534.999 1.346 -0.596 1.033 -0.07 0.66 -0.74 0.1
1 8.88 888 -1.920 -8.710 -0.019 27.466 -8.179 2.167 -914.854 254.984 -2504.868 1.538 -1.007 1.227 -0.06 0.66 -0.74 0.1
1 8.89 889 -1.848 -8.533 0.091 19.684 -16.998 3.052 -779.942 209.863 -2669.911 1.454 -1.179 1.154 -0.06 0.66 -0.74 0.1
1 8.90 890 -1.714 -8.562 0.105 10.864 -23.407 4.120 -779.942 209.863 -2669.911 1.307 -1.147 1.166 -0.06 0.66 -0.74 0.1
1 8.91 891 -1.044 -8.725 0.747 0.458 -25.971 2.655 -854.893 89.941 -2594.959 0.638 -0.980 0.557 -0.07 0.65 -0.74 0.11
1 8.92 892 -0.541 -9.041 1.049 -5.676 -21.088 -0.183 -854.893 89.941 -2594.959 0.138 -0.664 0.256 -0.07 0.65 -0.74 0.11
1 8.93 893 -0.225 -9.189 1.197 -9.247 -12.756 -1.892 -869.883 149.902 -2684.901 -0.174 -0.516 0.099 -0.07 0.65 -0.74 0.11
1 8.94 894 -0.287 -9.098 1.087 -7.446 -5.981 -1.373 -869.883 149.902 -2684.901 -0.106 -0.609 0.197 -0.07 0.66 -0.74 0.11
1 8.95 895 -0.354 -8.677 0.838 1.343 -3.510 -2.350 -869.883 74.951 -2684.901 -0.034 -1.032 0.439 -0.07 0.66 -0.74 0.11
1 8.96 896 -0.579 -8.078 0.613 18.189 -5.280 -7.507 -1019.936 179.883 -2714.881 0.198 -1.630 0.671 -0.07 0.66 -0.74 0.11
1 8.97 897 -0.776 -7.786 0.421 24.933 -9.308 -12.512 -1019.936 179.883 -2714.881 0.405 -1.919 0.887 -0.07 0.65 -0.74 0.11
1 8.98 898 -0.852 -7.599 0.230 21.484 -16.815 -17.029 -929.994 -14.990 -2594.959 0.528 -2.097 1.155 -0.07 0.65 -0.75 0.11
1 8.99 899 -0.924 -7.810 0.163 12.970 -23.468 -18.402 -929.994 -14.990 -2594.959 0.630 -1.883 1.253 -0.08 0.65 -0.75 0.11
1 9.00 900 -0.886 -7.963 0.048 -0.031 -28.626 -18.677 -974.965 14.990 -2774.992 0.626 -1.728 1.385 -0.08 0.65 -0.75 0.11
1 9.01 901 -0.713 -8.505 -0.029 -14.130 -30.365 -18.250 -974.965 14.990 -2774.992 0.489 -1.188 1.459 -0.08 0.65 -0.75 0.11
1 9.02 902 -0.637 -9.381 0.038 -27.649 -27.832 -17.426 -989.955 74.951 -2819.963 0.446 -0.316 1.368 -0.09 0.65 -0.75 0.11
1 9.03 903 -0.172 -10.698 0.101 -42.694 -19.409 -14.832 -1064.906 0.000 -2819.963 0.010 0.993 1.252 -0.09 0.65 -0.75 0.11
1 9.04 904 0.115 -11.387 0.038 -45.960 -15.503 -9.430 -1064.906 0.000 -2819.963 -0.251 1.673 1.246 -0.09 0.65 -0.74 0.11
1 9.05 905 0.450 -11.833 -0.014 -37.903 -11.231 -2.747 -1079.896 119.922 -2699.891 -0.566 2.109 1.228 -0.09 0.66 -0.74 0.11
1 9.06 906 0.220 -11.670 -0.263 -5.615 -3.174 0.946 -1184.978 119.922 -2774.992 -0.324 1.934 1.383 -0.09 0.66 -0.74 0.11
1 9.07 907 0.024 -11.210 -0.699 18.066 -0.702 -1.038 -1109.877 14.990 -2594.959 -0.126 1.475 1.821 -0.1 0.66 -0.74 0.11
1 9.08 908 -0.096 -10.817 -1.073 30.426 -1.801 -4.639 -1109.877 14.990 -2594.959 -0.002 1.086 2.229 -0.1 0.66 -0.74 0.12
1 9.09 909 -0.383 -10.276 -0.824 28.748 -8.179 -8.240 -1094.887 29.980 -2534.999 0.295 0.551 2.027 -0.1 0.66 -0.74 0.12
1 9.10 910 -0.182 -10.300 1.882 15.289 -11.627 -17.151 -1229.949 44.971 -2624.940 0.110 0.578 -0.654 -0.1 0.65 -0.74 0.12
1 9.11 911 0.536 -11.411 4.592 16.357 -1.801 -22.064 -1229.949 44.971 -2624.940 -0.584 1.691 -3.345 -0.1 0.65 -0.74 0.12
1 9.12 912 2.327 -14.179 6.263 1.434 15.839 -12.543 -1079.896 89.941 -2624.940 -2.342 4.462 -4.990 -0.1 0.65 -0.74 0.12
1 9.13 913 2.782 -17.014 4.008 -68.604 62.226 47.852 -1154.998 119.922 -2729.872 -2.802 7.292 -2.774 -0.1 0.65 -0.74 0.11
1 9.14 914 0.891 -16.147 0.848 -50.812 86.426 66.132 -1154.998 -44.971 -2729.872 -1.005 6.413 0.283 -0.09 0.66 -0.74 0.11
1 9.15 915 -0.488 -13.748 -0.460 15.350 85.236 49.957 -1154.998 -44.971 -2729.872 0.265 4.010 1.537 -0.08 0.66 -0.74 0.11
1 9.16 916 -0.694 -11.593 0.215 54.169 56.488 19.684 -1109.877 89.941 -2729.872 0.396 1.862 0.902 -0.08 0.66 -0.74 0.11
1 9.17 917 -0.532 -10.434 0.857 44.769 27.283 -0.275 -1094.887 104.932 -2639.930 0.205 0.713 0.340 -0.07 0.66 -0.74 0.11
1 9.18 918 -0.354 -9.908 1.930 -10.101 11.536 -6.714 -1094.887 104.932 -2639.930 0.027 0.193 -0.679 -0.07 0.66 -0.74 0.11
1 9.19 919 -0.512 -9.730 2.145 -41.443 19.531 -8.850 -944.984 0.000 -2939.885 0.192 0.016 -0.893 -0.07 0.66 -0.74 0.11
1 9.20 920 -1.456 -10.171 1.911 -63.690 37.415 -15.564 -869.883 0.000 -2939.885 1.157 0.441 -0.780 -0.07 0.66 -0.74 0.1
1 9.21 921 -2.231 -10.300 1.738 -57.862 45.319 -17.242 -974.965 14.990 -2804.973 1.944 0.560 -0.696 -0.07 0.66 -0.74 0.1
1 9.22 922 -2.830 -10.377 1.753 -35.187 46.082 -12.177 -974.965 14.990 -2804.973 2.548 0.629 -0.787 -0.07 0.67 -0.73 0.1
1 9.23 923 -3.007 -10.204 1.805 1.373 36.072 -1.251 -989.955 179.883 -2609.950 2.735 0.452 -0.880 -0.07 0.67 -0.73 0.1
1 9.24 924 -2.653 -9.807 2.255 68.054 14.313 14.954 -1019.936 224.854 -2789.982 2.374 0.057 -1.312 -0.07 0.67 -0.73 0.09
1 9.25 925 -1.154 -8.466 2.983 105.500 3.052 20.416 -1019.936 224.854 -2789.982 0.836 -1.273 -1.945 -0.06 0.67 -0.74 0.1
1 9.26 926 0.651 -7.619 3.352 122.406 -2.533 23.834 -974.965 89.941 -2624.940 -1.011 -2.102 -2.156 -0.06 0.66 -0.74 0.1
1 9.27 927 2.385 -7.322 3.544 109.192 0.763 28.595 -974.965 14.990 -2729.872 -2.781 -2.372 -2.161 -0.06 0.65 -0.75 0.1
1 9.28 928 3.730 -7.987 4.377 34.943 39.795 40.344 -1019.936 74.951 -2759.852 -4.219 -1.657 -2.707 -0.06 0.64 -0.76 0.1
1 9.29 929 3.347 -8.691 4.228 -30.426 76.325 42.542 -1019.936 74.951 -2759.852 -3.879 -0.943 -2.512 -0.05 0.64 -0.76 0.1
1 9.30 930 2.236 -9.299 3.558 -77.790 97.626 31.220 -839.903 -104.932 -2969.865 -2.818 -0.340 -1.892 -0.05 0.64 -0.76 0.1
1 9.31 931 0.919 -9.735 2.643 -83.802 97.412 11.810 -899.864 44.971 -3029.976 -1.540 0.079 -1.090 -0.04 0.65 -0.75 0.1
1 9.32 932 -0.283 -9.879 1.772 -21.118 73.883 -9.552 -899.864 44.971 -3029.976 -0.356 0.206 -0.330 -0.04 0.65 -0.75 0.09
1 9.33 933 -0.378 -9.261 1.743 34.515 56.763 -16.510 -674.860 164.893 -2879.924 -0.260 -0.419 -0.354 -0.03 0.65 -0.75 0.09
1 9.34 934 0.125 -8.849 2.160 70.252 44.068 -22.369 -704.991 14.990 -2954.875 -0.750 -0.827 -0.742 -0.03 0.65 -0.75 0.08
1 9.35 935 1.034 -8.667 3.223 63.355 35.553 -27.069 -659.870 29.980 -2759.852 -1.601 -0.980 -1.597 -0.03 0.65 -0.76 0.08
1 9.36 936 1.963 -8.840 3.649 21.851 38.117 -25.696 -659.870 29.980 -2759.852 -2.488 -0.795 -1.933 -0.03 0.64 -0.76 0.07
1 9.37 937 2.739 -9.137 3.290 -22.125 44.678 -20.691 -734.971 -74.951 -2864.934 -3.220 -0.495 -1.547 -0.03 0.64 -0.76 0.07
1 9.38 938 3.137 -9.419 2.605 -43.244 55.329 -13.245 -599.909 -89.941 -3029.976 -3.578 -0.220 -0.894 -0.03 0.64 -0.76 0.07
1 9.39 939 2.983 -9.323 1.714 -29.877 70.740 -8.301 -599.909 -89.941 -3029.976 -3.395 -0.327 -0.060 -0.03 0.64 -0.76 0.06
1 9.40 940 2.059 -9.338 1.001 22.217 89.447 -9.125 -614.899 -179.883 -2939.885 -2.450 -0.319 0.621 -0.02 0.65 -0.76 0.06
1 9.41 941 1.623 -9.232 0.891 46.906 91.187 -12.299 -674.860 -14.990 -2849.943 -2.001 -0.423 0.745 -0.02 0.65 -0.76 0.05
1 9.42 942 1.393 -9.127 1.657 42.694 85.694 -18.982 -524.958 -14.990 -3059.957 -1.744 -0.508 0.097 -0.01 0.64 -0.77 0.04
1 9.43 943 1.465 -9.343 2.260 18.494 84.839 -22.430 -524.958 -14.990 -3059.957 -1.795 -0.284 -0.456 -0.01 0.64 -0.77 0.04
1 9.44 944 1.221 -9.606 2.567 -8.698 88.928 -25.299 -524.958 -89.941 -3059.957 -1.527 -0.019 -0.747 -0.01 0.64 -0.77 0.03
1 9.45 945 0.977 -10.008 2.423 -24.201 94.910 -27.557 -524.958 -119.922 -3029.976 -1.256 0.379 -0.621 -0 0.64 -0.77 0.02
1 9.46 946 0.790 -10.291 1.959 -20.111 98.175 -25.574 -524.958 -119.922 -3029.976 -1.044 0.655 -0.190 0 0.64 -0.77 0.02
1 9.47 947 0.804 -10.406 1.207 11.566 100.037 -20.111 -269.974 -44.971 -3029.976 -1.039 0.765 0.538 0.01 0.64 -0.77 0.01
1 9.48 948 0.781 -10.147 1.164 31.738 103.821 -13.794 -449.857 -89.941 -3059.957 -1.002 0.507 0.584 0.01 0.64 -0.77 0.01
1 9.49 949 0.728 -9.448 1.087 39.490 110.504 -10.437 -449.857 -89.941 -3059.957 -0.945 -0.187 0.693 0.01 0.64 -0.77 0
1 9.50 950 0.627 -9.007 1.355 31.891 120.636 -7.690 -299.955 14.990 -3029.976 -0.862 -0.608 0.523 -0.02 -0.64 0.77 0.01
1 9.51 951 0.656 -8.844 1.513 18.219 122.589 -7.477 -164.893 -44.971 -3029.976 -0.907 -0.763 0.401 -0.03 -0.63 0.77 0.02
1 9.52 952 0.857 -9.012 1.370 3.784 121.582 -7.263 -209.863 -74.951 -3074.947 -1.126 -0.592 0.561 -0.04 -0.63 0.77 0.02
1 9.53 953 1.010 -9.328 1.135 -4.669 118.866 -6.531 -209.863 -74.951 -3074.947 -1.296 -0.277 0.790 -0.04 -0.63 0.77 0.03
1 9.54 954 1.484 -9.386 1.130 3.296 113.709 -5.829 -59.961 -224.854 -3014.986 -1.784 -0.222 0.780 -0.05 -0.63 0.77 0.04
1 9.55 955 1.777 -9.299 1.245 16.266 112.946 -7.324 89.941 -89.941 -2954.875 -2.089 -0.309 0.656 -0.06 -0.63 0.77 0.04
1 9.56 956 1.954 -9.189 1.307 26.917 113.129 -9.613 89.941 -89.941 -2954.875 -2.274 -0.417 0.603 -0.06 -0.63 0.77 0.05
1 9.57 957 1.891 -9.309 1.642 26.245 119.751 -15.137 0.000 -149.902 -2969.865 -2.212 -0.285 0.330 -0.07 -0.63 0.77 0.06
1 9.58 958 1.374 -9.572 1.484 15.686 128.022 -16.510 134.912 -149.902 -2969.865 -1.691 -0.016 0.515 -0.08 -0.63 0.77 0.07
1 9.59 959 0.589 -9.850 1.106 5.463 134.552 -16.602 224.854 -119.922 -3059.957 -0.906 0.264 0.904 -0.08 -0.63 0.77 0.08
1 9.60 960 -0.249 -9.682 1.006 4.364 136.445 -15.137 224.854 -119.922 -3059.957 -0.076 0.095 1.000 -0.09 -0.62 0.77 0.08
1 9.61 961 -0.958 -9.572 0.757 13.580 135.041 -13.763 179.883 -104.932 -3014.986 0.616 -0.015 1.245 -0.09 -0.62 0.77 0.09
1 9.62 962 -1.360 -9.467 0.694 32.654 127.869 -14.679 269.974 -209.863 -2954.875 0.995 -0.117 1.318 -0.1 -0.62 0.77 0.1
1 9.63 963 -1.164 -9.505 0.819 31.403 121.125 -18.097 269.974 -209.863 -2954.875 0.774 -0.072 1.222 -0.11 -0.62 0.77 0.1
1 9.64 964 -0.670 -9.864 1.240 7.935 114.899 -20.935 494.978 -314.945 -2984.855 0.249 0.299 0.849 -0.12 -0.62 0.77 0.12
1 9.65 965 -0.273 -10.037 1.250 -5.859 115.265 -20.660 659.870 -419.876 -3014.986 -0.155 0.470 0.832 -0.13 -0.61 0.77 0.12
1 9.66 966 -0.139 -10.358 1.044 -8.270 116.425 -18.799 584.919 -299.955 -3014.986 -0.294 0.786 1.014 -0.13 -0.61 0.77 0.13
1 9.67 967 0.163 -10.540 1.087 -1.465 118.500 -16.022 584.919 -299.955 -3014.986 -0.603 0.963 0.946 -0.14 -0.61 0.77 0.13
1 9.68 968 0.215 -10.583 1.159 13.367 121.308 -11.505 509.968 -299.955 -2864.934 -0.665 1.004 0.860 -0.14 -0.61 0.76 0.14
1 9.69 969 0.374 -10.248 1.144 19.135 122.803 -9.369 674.860 -209.863 -2954.875 -0.837 0.669 0.875 -0.15 -0.61 0.76 0.15
1 9.70 970 0.273 -9.773 1.135 21.027 123.139 -9.583 674.860 -209.863 -2954.875 -0.752 0.198 0.896 -0.15 -0.61 0.76 0.15
1 9.71 971 0.129 -9.448 0.819 19.714 120.697 -9.308 614.899 -179.883 -2939.885 -0.626 -0.123 1.227 -0.16 -0.61 0.76 0.16
1 9.72 972 0.536 -9.467 0.838 13.153 115.754 -8.179 764.952 -299.955 -2864.934 -1.070 -0.098 1.229 -0.17 -0.6 0.76 0.17
1 9.73 973 0.713 -9.438 1.264 9.613 115.418 -6.714 869.883 -224.854 -2789.982 -1.264 -0.125 0.803 -0.18 -0.6 0.76 0.17
1 9.74 974 0.675 -9.539 1.647 6.287 120.270 -6.348 869.883 -224.854 -2789.982 -1.244 -0.024 0.417 -0.18 -0.6 0.76 0.18
1 9.75 975 0.187 -9.702 1.872 5.951 130.341 -6.012 1004.945 -239.994 -2849.943 -0.775 0.139 0.188 -0.19 -0.6 0.76 0.19
1 9.76 976 -1.188 -9.620 1.690 12.512 139.832 -5.524 1064.906 -299.955 -2864.934 0.574 0.058 0.367 -0.19 -0.6 0.75 0.19
1 9.77 977 -2.308 -9.850 1.930 18.127 135.376 -6.714 1064.906 -299.955 -2864.934 1.661 0.291 0.130 -0.2 -0.6 0.75 0.2
1 9.78 978 -3.026 -9.941 2.275 16.022 123.322 -11.780 1094.887 -179.883 -2714.881 2.340 0.387 -0.206 -0.21 -0.59 0.75 0.2
1 9.79 979 -3.175 -10.195 2.773 6.531 101.899 -20.233 1244.939 -329.935 -2564.979 2.423 0.649 -0.687 -0.22 -0.59 0.75 0.21
1 9.80 980 -3.089 -10.588 3.041 4.364 90.302 -22.827 1304.900 -359.916 -2624.940 2.337 1.041 -0.957 -0.22 -0.59 0.75 0.22
1 9.81 981 -2.720 -10.736 3.376 6.378 85.083 -21.454 1304.900 -359.916 -2624.940 1.974 1.189 -1.295 -0.23 -0.58 0.75 0.23
1 9.82 982 -2.562 -11.009 3.749 12.085 85.938 -18.463 1319.890 -179.883 -2534.999 1.820 1.462 -1.666 -0.23 -0.58 0.74 0.23
1 9.83 983 -2.777 -11.028 4.027 21.576 84.534 -17.151 1394.991 -299.955 -2609.950 2.035 1.483 -1.933 -0.23 -0.58 0.74 0.23
1 9.84 984 -2.706 -10.899 4.104 24.933 75.592 -22.400 1394.991 -299.955 -2609.950 1.962 1.359 -1.988 -0.24 -0.58 0.74 0.24
1 9.85 985 -2.054 -10.779 4.219 27.283 63.751 -28.046 1349.871 -329.935 -2534.999 1.317 1.245 -2.076 -0.24 -0.58 0.74 0.24
1 9.86 986 -0.651 -10.817 4.477 30.823 55.237 -26.306 1439.962 -359.916 -2519.858 -0.044 1.296 -2.266 -0.24 -0.57 0.74 0.25
1 9.87 987 0.091 -10.453 4.616 37.537 65.094 -18.738 1394.991 -254.984 -2429.917 -0.769 0.940 -2.362 -0.24 -0.57 0.74 0.26
1 9.88 988 0.235 -10.032 4.889 45.227 84.687 -9.430 1394.991 -254.984 -2429.917 -0.912 0.531 -2.583 -0.25 -0.57 0.74 0.26
1 9.89 989 -0.072 -9.639 4.401 46.265 106.079 -5.493 1424.972 -329.935 -2459.897 -0.625 0.155 -2.036 -0.25 -0.56 0.74 0.26
1 9.90 990 -0.795 -9.252 3.658 37.872 120.881 -6.470 1544.894 -374.906 -2564.979 0.069 -0.216 -1.233 -0.25 -0.56 0.74 0.27
1 9.91 991 -1.432 -9.390 2.686 18.921 122.315 -11.139 1544.894 -374.906 -2564.979 0.673 -0.062 -0.213 -0.26 -0.55 0.74 0.28
1 9.92 992 -0.939 -9.716 2.500 13.092 110.810 -9.766 1484.933 -314.945 -2414.927 0.145 0.273 -0.003 -0.26 -0.55 0.74 0.28
