COL1	TIME	ACC_X	ACC_Y	ACC_Z	GYR_X	GYR_Y	GYR_Z	MAG_X	MAG_Y	MAG_Z	LACC_X	LACC_Y	LACC_Z	QUAT_X	QUAT_Y	QUAT_Z	QUAT_W
1 0.00 0 0.144 -9.797 1.508 -1.160 -1.251 1.526 -209.863 -74.951 -2759.852 -0.068 0.093 -0.145 -0.02 0.66 -0.75 0.01
1 0.01 1 0.144 -9.821 1.422 -1.068 -1.099 0.732 -209.863 -74.951 -2759.852 -0.067 0.117 -0.059 -0.02 0.66 -0.75 0.01
1 0.02 2 0.105 -9.845 1.451 -0.977 -0.946 0.824 -134.912 -179.883 -2969.865 -0.028 0.141 -0.087 -0.02 0.66 -0.75 0.01
1 0.03 3 0.053 -9.788 1.417 -0.946 -0.549 1.526 -164.893 -239.994 -2984.855 0.024 0.084 -0.053 -0.02 0.66 -0.75 0.01
1 0.04 4 0.105 -9.797 1.355 -0.610 -0.610 1.373 -164.893 -239.994 -2984.855 -0.028 0.093 0.009 -0.02 0.66 -0.75 0.01
1 0.05 5 0.196 -9.735 1.398 -0.732 -0.366 0.854 -104.932 -149.902 -2969.865 -0.120 0.031 -0.034 -0.02 0.66 -0.75 0.01
1 0.06 6 0.072 -9.764 1.331 -0.824 -0.641 0.610 -104.932 -179.883 -2939.885 0.005 0.060 0.033 -0.02 0.66 -0.75 0.01
1 0.07 7 0.067 -9.831 1.408 -0.519 -0.854 0.977 -14.990 -164.893 -2879.924 0.010 0.127 -0.043 -0.02 0.66 -0.75 0.01
1 0.08 8 0.215 -9.817 1.393 -0.214 -0.885 1.251 -14.990 -164.893 -2879.924 -0.139 0.112 -0.029 -0.02 0.66 -0.75 0.01
1 0.09 9 0.029 -9.716 1.360 0.061 -0.854 1.251 -29.980 -224.854 -2864.934 0.049 0.012 0.005 -0.02 0.66 -0.75 0.01
1 0.10 10 0.163 -9.884 1.470 -0.031 -0.732 1.404 -194.873 -119.922 -3029.976 -0.085 0.180 -0.105 -0.02 0.66 -0.75 0.01
1 0.11 11 0.110 -9.773 1.398 -0.946 -0.793 0.916 -194.873 -119.922 -3029.976 -0.032 0.069 -0.032 -0.02 0.66 -0.75 0.01
1 0.12 12 0.105 -9.927 1.370 -0.763 -0.641 1.526 -134.912 -149.902 -2894.914 -0.027 0.223 -0.003 -0.02 0.66 -0.75 0.01
1 0.13 13 -0.024 -9.836 1.346 -1.129 -0.824 1.282 -119.922 -284.964 -2954.875 0.102 0.132 0.021 -0.02 0.66 -0.75 0.01
1 0.14 14 0.110 -9.812 1.393 -1.282 -0.519 1.038 -269.974 -209.863 -3029.976 -0.033 0.108 -0.026 -0.02 0.66 -0.75 0.01
1 0.15 15 0.057 -9.812 1.441 -0.427 -0.427 0.793 -269.974 -209.863 -3029.976 0.020 0.108 -0.074 -0.02 0.66 -0.75 0.01
1 0.16 16 0.034 -9.773 1.422 -0.641 -0.153 1.251 -224.854 -164.893 -2909.904 0.044 0.070 -0.055 -0.02 0.66 -0.75 0.01
1 0.17 17 0.153 -9.874 1.441 -1.160 -0.275 0.763 -209.863 -74.951 -2939.885 -0.076 0.170 -0.074 -0.02 0.66 -0.75 0.01
1 0.18 18 0.225 -9.903 1.370 -1.770 -0.641 1.343 -209.863 -74.951 -2939.885 -0.147 0.199 -0.002 -0.02 0.66 -0.75 0.01
1 0.19 19 0.158 -9.745 1.518 -1.129 -0.580 0.732 -134.912 -254.984 -3014.986 -0.080 0.041 -0.150 -0.02 0.66 -0.75 0.01
1 0.20 20 0.096 -9.879 1.461 -0.427 -0.366 0.519 -119.922 -239.994 -2984.855 -0.017 0.175 -0.092 -0.02 0.66 -0.75 0.01
1 0.21 21 -0.005 -9.769 1.422 0.061 -0.641 0.885 -254.984 -149.902 -2969.865 0.084 0.065 -0.053 -0.02 0.66 -0.75 0.01
1 0.22 22 0.062 -9.697 1.437 0.458 -1.373 1.160 -254.984 -149.902 -2969.865 0.017 -0.007 -0.068 -0.02 0.66 -0.75 0.02
1 0.23 23 0.134 -9.730 1.341 -0.275 -1.129 1.495 -104.932 -149.902 -2894.914 -0.056 0.027 0.029 -0.02 0.66 -0.75 0.02
1 0.24 24 0.096 -9.769 1.470 -0.732 -0.854 0.885 14.990 -284.964 -2909.904 -0.017 0.065 -0.100 -0.02 0.66 -0.75 0.01
1 0.25 25 0.048 -9.841 1.307 -1.434 -0.031 1.129 14.990 -284.964 -2909.904 0.030 0.137 0.063 -0.02 0.66 -0.75 0.01
1 0.26 26 0.091 -9.855 1.341 -3.174 -0.061 0.824 -164.893 -239.994 -2909.904 -0.013 0.151 0.029 -0.02 0.66 -0.75 0.01
1 0.27 27 0.038 -9.941 1.571 -2.167 -0.214 1.343 -104.932 -224.854 -2864.934 0.040 0.237 -0.203 -0.02 0.66 -0.75 0.01
1 0.28 28 0.048 -9.836 1.437 -0.092 -0.641 1.831 -59.961 -329.935 -2939.885 0.030 0.132 -0.068 -0.02 0.66 -0.75 0.01
1 0.29 29 0.211 -9.821 1.346 1.587 -0.824 1.251 -59.961 -329.935 -2939.885 -0.133 0.118 0.024 -0.02 0.66 -0.75 0.01
1 0.30 30 0.110 -9.764 1.432 1.984 -1.343 1.587 -209.863 -329.935 -2894.914 -0.032 0.061 -0.058 -0.02 0.66 -0.75 0.01
1 0.31 31 0.029 -9.778 1.465 2.228 -0.946 1.526 -194.873 -209.863 -2984.855 0.049 0.076 -0.087 -0.02 0.66 -0.76 0.01
1 0.32 32 0.287 -9.620 1.379 -0.977 -0.641 1.770 -194.873 -209.863 -2984.855 -0.211 -0.082 0.003 -0.02 0.66 -0.76 0.01
1 0.33 33 0.072 -9.726 1.427 -2.380 -0.336 1.953 -119.922 -89.941 -2984.855 0.005 0.024 -0.045 -0.02 0.66 -0.76 0.01
1 0.34 34 0.048 -9.860 1.346 -3.174 -1.282 1.129 -104.932 -179.883 -2939.885 0.029 0.158 0.035 -0.02 0.66 -0.76 0.01
1 0.35 35 0.096 -9.826 1.341 -1.892 -1.007 1.404 -269.974 -89.941 -2984.855 -0.020 0.123 0.033 -0.02 0.66 -0.75 0.02
1 0.36 36 0.077 -9.821 1.446 -1.465 -0.946 0.977 -269.974 -89.941 -2984.855 -0.001 0.118 -0.072 -0.02 0.66 -0.75 0.02
1 0.37 37 0.134 -9.836 1.350 -0.275 -0.610 0.977 -29.980 -179.883 -2939.885 -0.058 0.133 0.023 -0.02 0.66 -0.75 0.02
1 0.38 38 0.034 -9.807 1.451 0.916 -0.519 1.251 -179.883 -224.854 -2969.865 0.042 0.104 -0.076 -0.02 0.66 -0.75 0.02
1 0.39 39 0.144 -9.721 1.417 0.244 -0.824 1.099 -179.883 -224.854 -2969.865 -0.069 0.018 -0.039 -0.02 0.66 -0.76 0.02
1 0.40 40 0.120 -9.817 1.508 -1.312 -0.916 1.221 -89.941 -164.893 -2984.855 -0.045 0.114 -0.129 -0.02 0.66 -0.76 0.02
1 0.41 41 0.086 -9.730 1.355 -2.533 -0.793 0.671 -104.932 -299.955 -3074.947 -0.011 0.028 0.025 -0.02 0.66 -0.76 0.02
1 0.42 42 -0.005 -9.773 1.259 -2.808 -0.549 1.099 -104.932 -299.955 -3074.947 0.081 0.071 0.120 -0.02 0.66 -0.76 0.01
1 0.43 43 0.158 -9.754 1.259 -2.563 -0.763 0.397 -44.971 -89.941 -3059.957 -0.083 0.051 0.114 -0.02 0.66 -0.75 0.01
1 0.44 44 0.163 -9.807 1.341 -1.709 -0.702 0.885 -179.883 -104.932 -2969.865 -0.087 0.104 0.031 -0.02 0.66 -0.75 0.01
1 0.45 45 -0.043 -9.855 1.360 -1.953 -0.763 0.824 -224.854 -209.863 -2774.992 0.120 0.152 0.012 -0.02 0.66 -0.75 0.01
1 0.46 46 0.153 -10.008 1.489 -1.709 -0.092 1.373 -224.854 -209.863 -2774.992 -0.077 0.305 -0.117 -0.02 0.66 -0.75 0.01
1 0.47 47 0.024 -9.769 1.346 -1.373 -1.007 1.526 -194.873 14.990 -2849.943 0.052 0.066 0.026 -0.02 0.66 -0.75 0.01
1 0.48 48 0.072 -9.874 1.389 -0.275 -0.610 1.862 -104.932 -224.854 -2969.865 0.004 0.171 -0.017 -0.02 0.66 -0.75 0.01
1 0.49 49 0.062 -9.817 1.322 -0.031 -1.221 1.068 -104.932 -224.854 -2969.865 0.014 0.113 0.050 -0.02 0.66 -0.75 0.01
1 0.50 50 0.014 -9.826 1.235 -0.610 -1.251 1.312 -179.883 -224.854 -2894.914 0.061 0.123 0.136 -0.02 0.66 -0.75 0.02
1 0.51 51 0.144 -9.860 1.451 -0.824 -1.770 1.770 -59.961 -149.902 -2939.885 -0.068 0.156 -0.079 -0.02 0.66 -0.75 0.01
1 0.52 52 0.019 -9.951 1.494 -1.160 -1.617 1.526 -59.961 -299.955 -3014.986 0.057 0.247 -0.122 -0.02 0.66 -0.75 0.01
1 0.53 53 0.053 -9.821 1.422 -1.465 -1.892 1.251 -59.961 -299.955 -3014.986 0.023 0.118 -0.050 -0.02 0.66 -0.75 0.01
1 0.54 54 0.029 -9.773 1.350 -0.977 -1.587 1.495 -224.854 -164.893 -2954.875 0.046 0.070 0.022 -0.02 0.66 -0.75 0.01
1 0.55 55 0.077 -9.802 1.355 -0.641 -1.465 1.465 -164.893 -239.994 -2984.855 -0.002 0.099 0.017 -0.02 0.66 -0.75 0.02
1 0.56 56 0.010 -9.783 1.484 -0.671 -1.434 1.343 -164.893 -239.994 -2984.855 0.066 0.080 -0.113 -0.02 0.66 -0.75 0.02
1 0.57 57 0.010 -9.764 1.393 -0.366 -1.190 1.190 -29.980 -329.935 -3014.986 0.065 0.061 -0.021 -0.02 0.66 -0.75 0.01
1 0.58 58 0.053 -9.735 1.489 -1.129 -0.916 1.160 -29.980 -179.883 -3014.986 0.022 0.032 -0.116 -0.02 0.66 -0.75 0.01
1 0.59 59 0.081 -9.807 1.461 -0.732 -0.732 0.885 -224.854 -209.863 -2984.855 -0.007 0.104 -0.087 -0.02 0.66 -0.75 0.01
1 0.60 60 -0.043 -9.788 1.302 -0.610 -0.885 1.007 -224.854 -209.863 -2984.855 0.117 0.085 0.071 -0.02 0.66 -0.75 0.01
1 0.61 61 0.034 -9.740 1.360 -0.702 -0.977 0.793 -44.971 -164.893 -2954.875 0.040 0.037 0.013 -0.02 0.66 -0.75 0.01
1 0.62 62 0.182 -9.740 1.350 -1.526 -1.373 1.007 -29.980 -179.883 -2969.865 -0.108 0.037 0.023 -0.02 0.66 -0.75 0.01
1 0.63 63 0.101 -9.932 1.441 -1.373 -1.434 0.885 -29.980 -179.883 -2969.865 -0.027 0.229 -0.068 -0.02 0.66 -0.75 0.01
1 0.64 64 0.163 -9.793 1.408 -1.587 -0.580 0.854 -89.941 -314.945 -2984.855 -0.088 0.090 -0.034 -0.02 0.66 -0.75 0.01
1 0.65 65 0.077 -9.726 1.461 -1.495 -1.038 1.740 -29.980 -149.902 -3044.966 -0.001 0.023 -0.087 -0.02 0.66 -0.75 0.01
1 0.66 66 0.034 -9.754 1.427 -0.763 -0.519 1.312 -134.912 -74.951 -2969.865 0.042 0.051 -0.053 -0.02 0.66 -0.75 0.01
1 0.67 67 0.158 -9.879 1.422 -0.336 -0.244 2.228 -134.912 -74.951 -2969.865 -0.082 0.176 -0.048 -0.02 0.66 -0.75 0.01
1 0.68 68 0.225 -9.735 1.461 -0.488 -0.885 1.556 -179.883 -179.883 -2939.885 -0.150 0.032 -0.085 -0.02 0.66 -0.75 0.01
1 0.69 69 0.053 -9.793 1.427 -0.916 -0.671 0.916 -89.941 -164.893 -2909.904 0.023 0.090 -0.052 -0.02 0.66 -0.75 0.01
1 0.70 70 -0.024 -9.783 1.360 0.183 -1.007 1.099 -89.941 -164.893 -2909.904 0.099 0.080 0.015 -0.02 0.66 -0.75 0.01
1 0.71 71 0.086 -9.836 1.302 -0.061 -0.549 0.946 -44.971 -284.964 -3029.976 -0.011 0.133 0.072 -0.02 0.66 -0.75 0.01
1 0.72 72 -0.057 -9.716 1.346 -0.977 -0.427 1.465 -119.922 -239.994 -3059.957 0.131 0.013 0.029 -0.02 0.66 -0.75 0.01
1 0.73 73 -0.014 -9.845 1.480 -1.556 -0.031 1.251 -179.883 -224.854 -3044.966 0.088 0.143 -0.105 -0.02 0.66 -0.75 0.01
1 0.74 74 -0.014 -9.788 1.398 -1.312 0.214 0.732 -179.883 -224.854 -3044.966 0.088 0.085 -0.023 -0.02 0.66 -0.75 0.01
1 0.75 75 -0.024 -9.788 1.374 -0.977 -0.580 0.641 -179.883 -224.854 -3014.986 0.097 0.085 0.001 -0.02 0.66 -0.75 0.01
1 0.76 76 -0.014 -9.836 1.456 -0.519 -0.549 0.977 -194.873 -239.994 -2954.875 0.087 0.133 -0.081 -0.02 0.66 -0.75 0.01
1 0.77 77 0.019 -9.783 1.413 0.336 -0.244 0.610 -194.873 -239.994 -2954.875 0.053 0.080 -0.037 -0.02 0.66 -0.75 0.01
1 0.78 78 0.034 -9.812 1.456 0.305 -0.305 1.160 -179.883 -299.955 -2969.865 0.039 0.109 -0.079 -0.02 0.66 -0.76 0.01
1 0.79 79 0.148 -9.750 1.523 -0.946 0.183 1.465 -59.961 -179.883 -3074.947 -0.076 0.047 -0.146 -0.02 0.66 -0.76 0.01
1 0.80 80 0.034 -9.793 1.537 -1.312 -0.427 0.946 -179.883 -224.854 -2864.934 0.039 0.090 -0.160 -0.02 0.66 -0.76 0.01
1 0.81 81 0.249 -9.793 1.302 -1.434 -0.610 0.885 -179.883 -224.854 -2864.934 -0.177 0.090 0.076 -0.02 0.66 -0.76 0.01
1 0.82 82 0.067 -9.841 1.384 -1.801 -0.305 0.488 -164.893 -209.863 -2984.855 0.006 0.138 -0.006 -0.02 0.66 -0.76 0.01
1 0.83 83 -0.014 -9.975 1.355 -1.190 -0.397 1.038 -59.961 -179.883 -2969.865 0.087 0.272 0.023 -0.02 0.66 -0.76 0.01
1 0.84 84 0.081 -9.831 1.403 -0.427 -0.885 0.824 -59.961 -179.883 -2969.865 -0.009 0.129 -0.024 -0.02 0.66 -0.76 0.01
1 0.85 85 0.000 -9.845 1.446 -0.427 -0.458 1.404 -14.990 -239.994 -2849.943 0.072 0.143 -0.068 -0.02 0.66 -0.76 0.01
1 0.86 86 0.091 -9.932 1.326 -0.824 0.549 1.251 -14.990 -239.994 -2849.943 -0.019 0.229 0.052 -0.02 0.66 -0.76 0.01
1 0.87 87 0.048 -9.860 1.441 -1.984 0.946 0.763 -134.912 -104.932 -2969.865 0.023 0.157 -0.063 -0.02 0.66 -0.76 0.01
1 0.88 88 0.125 -9.941 1.370 -1.648 0.366 0.763 -134.912 -104.932 -2969.865 -0.054 0.239 0.008 -0.02 0.66 -0.76 0.01
1 0.89 89 0.048 -9.912 1.370 -1.678 0.183 1.160 -179.883 -329.935 -3044.966 0.023 0.210 0.008 -0.02 0.66 -0.76 0.01
1 0.90 90 0.024 -9.802 1.422 0.122 -0.122 1.160 -104.932 -179.883 -2969.865 0.046 0.100 -0.045 -0.02 0.66 -0.76 0.01
1 0.91 91 0.144 -9.812 1.489 2.167 -0.793 0.671 -104.932 -179.883 -2969.865 -0.075 0.110 -0.110 -0.02 0.66 -0.76 0.01
1 0.92 92 0.129 -9.850 1.374 2.411 0.122 1.160 -104.932 -224.854 -3014.986 -0.060 0.149 0.010 -0.02 0.66 -0.76 0.01
1 0.93 93 0.148 -9.611 1.360 0.824 -0.275 1.373 -104.932 -224.854 -3014.986 -0.080 -0.090 0.030 -0.02 0.65 -0.76 0.01
1 0.94 94 0.038 -9.668 1.326 -2.319 -0.702 1.526 -29.980 -254.984 -3044.966 0.030 -0.032 0.068 -0.02 0.65 -0.76 0.01
1 0.95 95 -0.057 -9.711 1.504 -3.204 -0.702 1.038 -29.980 -254.984 -3044.966 0.125 0.011 -0.110 -0.02 0.65 -0.76 0.01
1 0.96 96 0.029 -9.888 1.437 -2.380 -0.458 0.702 -89.941 -89.941 -2984.855 0.038 0.188 -0.045 -0.02 0.65 -0.76 0.01
1 0.97 97 -0.086 -9.850 1.302 -2.075 -0.458 1.312 -224.854 -164.893 -3029.976 0.152 0.149 0.088 -0.02 0.65 -0.76 0.01
1 0.98 98 0.029 -9.855 1.413 -0.885 -0.366 0.977 -224.854 -164.893 -3029.976 0.036 0.154 -0.022 -0.02 0.65 -0.76 0.01
1 0.99 99 0.019 -9.841 1.427 0.427 -0.732 0.793 -194.873 -314.945 -2954.875 0.046 0.140 -0.037 -0.02 0.65 -0.76 0.01
1 1.00 100 0.048 -9.821 1.360 0.092 -0.488 0.732 -194.873 -314.945 -2954.875 0.017 0.121 0.031 -0.02 0.65 -0.76 0.01
1 1.01 101 0.091 -9.759 1.398 -0.885 -0.763 0.671 -119.922 -239.994 -3059.957 -0.027 0.059 -0.006 -0.02 0.65 -0.76 0.01
1 1.02 102 0.038 -9.850 1.427 -1.099 -0.946 0.580 -119.922 -239.994 -3059.957 0.026 0.150 -0.035 -0.02 0.65 -0.76 0.01
1 1.03 103 0.105 -9.740 1.470 -1.007 -0.824 0.977 -179.883 -104.932 -2969.865 -0.042 0.039 -0.078 -0.02 0.65 -0.76 0.01
1 1.04 104 0.010 -9.922 1.456 -1.465 -1.068 0.061 -89.941 -89.941 -2984.855 0.054 0.222 -0.063 -0.02 0.65 -0.76 0.01
1 1.05 105 0.048 -9.769 1.389 -0.854 -0.580 0.824 -89.941 -89.941 -2984.855 0.015 0.068 0.004 -0.02 0.65 -0.76 0.01
1 1.06 106 0.053 -9.788 1.374 -1.312 -0.854 1.007 -59.961 -254.984 -2894.914 0.010 0.088 0.018 -0.02 0.65 -0.76 0.01
1 1.07 107 0.139 -9.812 1.614 -2.014 -0.214 1.373 -59.961 -254.984 -2894.914 -0.077 0.111 -0.221 -0.02 0.65 -0.76 0.01
1 1.08 108 -0.014 -9.802 1.408 -2.106 -0.214 1.343 -164.893 -14.990 -2984.855 0.076 0.102 -0.014 -0.02 0.65 -0.76 0.01
1 1.09 109 0.000 -9.764 1.461 -2.563 0.000 1.038 -164.893 -14.990 -2984.855 0.061 0.064 -0.068 -0.02 0.65 -0.76 0.01
1 1.10 110 0.010 -9.879 1.437 -1.953 -1.251 1.099 -89.941 -209.863 -3029.976 0.051 0.179 -0.044 -0.02 0.65 -0.76 0.01
1 1.11 111 -0.034 -9.927 1.456 -1.434 -0.793 1.251 -119.922 -164.893 -3029.976 0.094 0.226 -0.063 -0.02 0.65 -0.76 0.01
1 1.12 112 0.005 -9.836 1.355 -0.610 -0.885 0.702 -119.922 -164.893 -3029.976 0.055 0.135 0.038 -0.02 0.65 -0.76 0.01
1 1.13 113 0.057 -9.730 1.437 -0.977 -1.709 1.465 -224.854 -164.893 -2984.855 0.002 0.030 -0.044 -0.02 0.65 -0.76 0.01
1 1.14 114 0.196 -9.960 1.422 -1.526 -1.495 0.946 -224.854 -164.893 -2984.855 -0.137 0.260 -0.029 -0.02 0.65 -0.76 0.01
1 1.15 115 0.139 -9.635 1.456 -0.702 -1.495 0.793 -194.873 -164.893 -2954.875 -0.079 -0.066 -0.062 -0.02 0.65 -0.76 0.01
1 1.16 116 0.024 -9.797 1.398 -0.946 -1.526 1.465 -14.990 -164.893 -2954.875 0.037 0.097 -0.005 -0.02 0.65 -0.76 0.01
1 1.17 117 0.048 -9.764 1.437 -0.641 -1.770 1.495 -164.893 -119.922 -2954.875 0.013 0.064 -0.043 -0.02 0.65 -0.76 0.01
1 1.18 118 0.010 -9.750 1.571 -0.641 -1.251 1.678 -134.912 -179.883 -3014.986 0.052 0.049 -0.177 -0.02 0.65 -0.76 0.01
1 1.19 119 -0.139 -9.702 1.437 -0.641 -1.678 1.160 -134.912 -179.883 -3014.986 0.200 0.002 -0.042 -0.02 0.65 -0.76 0.01
1 1.20 120 -0.072 -9.678 1.451 -1.129 -1.617 1.434 -134.912 -149.902 -3074.947 0.131 -0.022 -0.057 -0.02 0.65 -0.76 0.01
1 1.21 121 -0.110 -9.793 1.513 -1.740 -1.709 0.702 -134.912 -149.902 -3074.947 0.169 0.093 -0.119 -0.02 0.65 -0.76 0.01
1 1.22 122 0.086 -9.807 1.494 -1.740 -1.892 0.610 -89.941 -209.863 -3104.927 -0.028 0.107 -0.099 -0.02 0.65 -0.76 0.01
1 1.23 123 0.014 -9.721 1.532 -1.434 -1.831 0.671 -119.922 -239.994 -3029.976 0.043 0.021 -0.137 -0.02 0.65 -0.76 0.01
1 1.24 124 0.057 -9.821 1.379 -1.862 -1.373 0.854 -104.932 -104.932 -2969.865 -0.000 0.121 0.016 -0.02 0.65 -0.76 0.01
1 1.25 125 0.081 -9.759 1.403 -1.312 -1.678 0.916 -179.883 -224.854 -2969.865 -0.024 0.059 -0.008 -0.02 0.65 -0.76 0.01
1 1.26 126 0.081 -9.860 1.346 -1.160 -1.373 0.824 -179.883 -224.854 -2969.865 -0.023 0.160 0.049 -0.02 0.65 -0.76 0.01
1 1.27 127 0.110 -9.845 1.437 -0.702 -1.404 0.702 -224.854 -209.863 -2879.924 -0.052 0.145 -0.042 -0.02 0.65 -0.76 0.01
1 1.28 128 0.105 -9.692 1.341 -0.061 -1.709 0.824 -224.854 -209.863 -2879.924 -0.047 -0.008 0.053 -0.02 0.65 -0.76 0.01
1 1.29 129 0.134 -9.740 1.322 -0.458 -1.740 0.397 -164.893 -164.893 -2984.855 -0.075 0.040 0.074 -0.02 0.65 -0.76 0.01
1 1.30 130 0.110 -9.773 1.494 -1.404 -1.984 1.221 -134.912 -149.902 -2969.865 -0.051 0.074 -0.099 -0.02 0.65 -0.76 0.01
1 1.31 131 0.014 -9.869 1.489 -1.953 -1.648 0.488 -119.922 -209.863 -3104.927 0.045 0.169 -0.094 -0.02 0.65 -0.76 0.01
1 1.32 132 0.115 -9.802 1.432 -1.495 -1.740 0.305 -119.922 -164.893 -3059.957 -0.056 0.102 -0.036 -0.02 0.65 -0.76 0.01
1 1.33 133 0.034 -9.788 1.398 -0.702 -1.953 1.099 -119.922 -164.893 -3059.957 0.026 0.088 -0.002 -0.02 0.65 -0.76 0.01
1 1.34 134 0.067 -9.807 1.312 0.031 -1.343 1.160 -164.893 -164.893 -2909.904 -0.008 0.107 0.084 -0.02 0.65 -0.76 0.01
1 1.35 135 0.048 -9.807 1.427 0.732 -1.099 0.946 -164.893 -164.893 -2909.904 0.011 0.107 -0.032 -0.02 0.65 -0.76 0.01
1 1.36 136 0.077 -9.740 1.561 0.092 -1.495 1.038 -119.922 -209.863 -2879.924 -0.018 0.040 -0.163 -0.02 0.65 -0.76 0.01
1 1.37 137 0.096 -9.735 1.417 -0.275 -1.526 0.793 -89.941 -209.863 -2879.924 -0.037 0.036 -0.018 -0.02 0.65 -0.76 0.01
1 1.38 138 0.158 -9.821 1.484 -0.977 -0.885 1.129 -29.980 -224.854 -3044.966 -0.099 0.122 -0.084 -0.02 0.65 -0.76 0.01
1 1.39 139 0.110 -9.793 1.504 -1.099 -1.343 1.007 -59.961 -224.854 -3044.966 -0.051 0.093 -0.103 -0.02 0.65 -0.76 0.01
1 1.40 140 0.072 -9.793 1.437 -0.885 -1.312 0.397 -59.961 -224.854 -3044.966 -0.012 0.093 -0.036 -0.02 0.65 -0.76 0.01
1 1.41 141 0.057 -9.802 1.475 -0.214 -1.160 1.007 -209.863 -224.854 -2894.914 0.002 0.103 -0.074 -0.02 0.65 -0.76 0.01
1 1.42 142 0.038 -9.826 1.494 -0.458 -1.892 1.526 -209.863 -224.854 -2894.914 0.021 0.127 -0.093 -0.02 0.65 -0.76 0.01
1 1.43 143 -0.062 -9.706 1.427 -0.275 -1.099 0.885 -119.922 -239.994 -3059.957 0.122 0.008 -0.024 -0.02 0.65 -0.76 0.01
1 1.44 144 0.010 -9.778 1.355 -0.427 -1.434 1.007 0.000 -254.984 -3044.966 0.049 0.079 0.048 -0.02 0.65 -0.76 0.01
1 1.45 145 0.101 -9.773 1.307 -1.587 -0.305 1.068 -164.893 -239.994 -3029.976 -0.042 0.074 0.095 -0.02 0.65 -0.76 0.01
1 1.46 146 0.096 -9.888 1.413 -2.441 -0.244 0.610 -59.961 -224.854 -3014.986 -0.037 0.189 -0.011 -0.02 0.65 -0.76 0.01
1 1.47 147 0.101 -9.869 1.355 -1.465 -0.244 0.397 -59.961 -224.854 -3014.986 -0.042 0.170 0.045 -0.02 0.65 -0.76 0.01
1 1.48 148 0.144 -9.879 1.461 -0.244 -0.702 0.885 -119.922 -239.994 -2954.875 -0.085 0.180 -0.060 -0.02 0.65 -0.76 0.01
1 1.49 149 -0.029 -9.778 1.456 0.641 -1.190 0.977 -119.922 -239.994 -2954.875 0.089 0.079 -0.054 -0.02 0.65 -0.76 0.01
1 1.50 150 0.043 -9.615 1.422 1.221 -1.007 0.885 -44.971 -389.896 -2909.904 0.017 -0.083 -0.017 -0.02 0.65 -0.76 0.01
1 1.51 151 0.120 -9.735 1.288 0.916 -0.702 0.977 -209.863 -329.935 -3044.966 -0.060 0.037 0.121 -0.02 0.65 -0.76 0.01
1 1.52 152 0.172 -9.778 1.451 -1.740 -0.854 0.946 -224.854 -164.893 -3029.976 -0.112 0.081 -0.039 -0.02 0.65 -0.76 0.01
1 1.53 153 0.010 -9.769 1.370 -2.411 -0.610 0.488 -134.912 -179.883 -2819.963 0.052 0.071 0.042 -0.02 0.65 -0.76 0.01
1 1.54 154 0.091 -9.951 1.456 -3.235 -0.366 1.617 -134.912 -179.883 -2819.963 -0.029 0.253 -0.048 -0.02 0.65 -0.76 0.01
1 1.55 155 0.081 -9.759 1.561 -3.265 -0.732 0.641 -59.961 -254.984 -2894.914 -0.021 0.061 -0.156 -0.02 0.65 -0.76 0.01
1 1.56 156 -0.024 -9.850 1.408 -1.373 -0.549 0.763 -59.961 -254.984 -2894.914 0.085 0.151 -0.004 -0.02 0.65 -0.76 0.01
1 1.57 157 -0.014 -9.831 1.456 0.488 -1.221 0.641 -164.893 -209.863 -3029.976 0.075 0.132 -0.052 -0.02 0.65 -0.76 0.01
1 1.58 158 0.115 -9.845 1.422 0.946 -1.312 0.519 -59.961 -149.902 -2894.914 -0.054 0.147 -0.018 -0.02 0.65 -0.76 0.01
1 1.59 159 0.139 -9.793 1.489 0.061 -0.793 1.038 -59.961 -149.902 -2894.914 -0.078 0.094 -0.082 -0.02 0.65 -0.76 0.01
1 1.60 160 0.129 -9.721 1.465 -1.923 -1.312 0.519 -209.863 -149.902 -2969.865 -0.068 0.023 -0.056 -0.02 0.65 -0.76 0.01
1 1.61 161 -0.120 -9.721 1.470 -3.204 -0.916 1.038 -209.863 -149.902 -2969.865 0.181 0.023 -0.061 -0.02 0.65 -0.76 0.01
1 1.62 162 0.053 -9.855 1.604 -3.418 -0.488 0.763 -134.912 -149.902 -2969.865 0.008 0.156 -0.198 -0.02 0.65 -0.76 0.01
1 1.63 163 -0.005 -10.003 1.451 -2.655 -0.488 0.549 -134.912 -149.902 -2969.865 0.066 0.304 -0.048 -0.02 0.65 -0.76 0.01
1 1.64 164 -0.048 -9.898 1.508 -1.434 -1.038 0.549 -104.932 -74.951 -3044.966 0.109 0.199 -0.107 -0.02 0.65 -0.76 0.01
1 1.65 165 0.134 -9.836 1.417 -0.488 -0.671 1.099 -104.932 -329.935 -2864.934 -0.073 0.137 -0.016 -0.02 0.65 -0.76 0.01
1 1.66 166 0.072 -9.793 1.504 -1.312 -1.251 0.854 -104.932 -329.935 -2864.934 -0.012 0.094 -0.102 -0.02 0.65 -0.76 0.01
1 1.67 167 0.120 -9.778 1.427 -2.655 -1.007 0.549 -104.932 -224.854 -2864.934 -0.060 0.079 -0.025 -0.02 0.65 -0.76 0.01
1 1.68 168 0.043 -9.697 1.422 -2.930 -0.793 0.183 -104.932 -224.854 -2864.934 0.018 -0.002 -0.022 -0.02 0.65 -0.76 0.01
1 1.69 169 0.096 -9.702 1.456 -2.991 -0.183 0.458 -254.984 -104.932 -3044.966 -0.034 0.002 -0.058 -0.02 0.65 -0.76 0.01
1 1.70 170 0.110 -9.807 1.422 -2.502 -0.488 0.641 -254.984 -104.932 -3044.966 -0.047 0.107 -0.026 -0.02 0.65 -0.76 0.01
1 1.71 171 0.206 -9.826 1.422 -1.801 -0.580 0.305 -89.941 -209.863 -2984.855 -0.142 0.126 -0.027 -0.02 0.65 -0.76 0.01
1 1.72 172 0.192 -9.764 1.494 -2.167 -1.312 0.427 -89.941 -209.863 -2849.943 -0.127 0.064 -0.099 -0.02 0.65 -0.76 0.01
1 1.73 173 0.115 -9.874 1.408 -1.740 -1.282 0.580 -89.941 -209.863 -2849.943 -0.050 0.174 -0.013 -0.02 0.65 -0.76 0.01
1 1.74 174 0.115 -9.778 1.427 -1.923 -1.129 0.336 -89.941 -209.863 -2984.855 -0.049 0.078 -0.032 -0.02 0.65 -0.76 0.01
1 1.75 175 0.177 -9.864 1.331 -1.923 -1.129 0.763 -89.941 -209.863 -2984.855 -0.111 0.164 0.064 -0.02 0.65 -0.76 0.01
1 1.76 176 0.057 -9.932 1.370 -2.075 -0.793 1.373 -164.893 -164.893 -2984.855 0.009 0.231 0.025 -0.02 0.65 -0.76 0.01
1 1.77 177 0.163 -9.860 1.370 -1.740 -0.977 0.732 -164.893 -164.893 -2984.855 -0.096 0.160 0.025 -0.02 0.65 -0.76 0.01
1 1.78 178 0.211 -9.778 1.427 -1.160 -0.641 0.671 -164.893 -239.994 -2984.855 -0.143 0.078 -0.033 -0.02 0.65 -0.76 0.01
1 1.79 179 -0.005 -9.764 1.413 -0.824 -0.732 0.793 -59.961 -104.932 -2939.885 0.073 0.064 -0.018 -0.02 0.65 -0.76 0.01
1 1.80 180 0.129 -9.788 1.432 -1.434 -0.519 0.488 -59.961 -104.932 -2939.885 -0.061 0.088 -0.036 -0.02 0.65 -0.76 0.01
1 1.81 181 0.081 -9.687 1.432 -1.434 0.397 0.000 -44.971 -44.971 -3059.957 -0.013 -0.013 -0.036 -0.02 0.65 -0.76 0.01
1 1.82 182 0.048 -9.797 1.403 -1.587 -0.122 0.641 -224.854 -209.863 -3029.976 0.021 0.098 -0.007 -0.02 0.65 -0.76 0.01
1 1.83 183 0.182 -9.740 1.379 -2.197 -0.244 1.129 -284.964 -254.984 -3014.986 -0.112 0.040 0.015 -0.02 0.65 -0.76 0.01
1 1.84 184 0.125 -9.845 1.417 -1.923 -0.061 0.000 -284.964 -254.984 -3014.986 -0.054 0.145 -0.023 -0.02 0.65 -0.76 0.01
1 1.85 185 0.067 -9.793 1.523 -1.892 -0.031 0.488 -224.854 -209.863 -2954.875 0.004 0.093 -0.129 -0.02 0.65 -0.76 0.01
1 1.86 186 0.105 -9.855 1.432 -1.099 0.153 0.519 -179.883 -224.854 -3014.986 -0.034 0.155 -0.037 -0.02 0.65 -0.76 0.01
1 1.87 187 0.163 -9.841 1.499 -0.244 0.275 0.946 -179.883 -224.854 -3014.986 -0.092 0.140 -0.105 -0.02 0.65 -0.76 0.01
1 1.88 188 0.005 -9.769 1.422 -0.244 0.336 1.007 -104.932 -179.883 -3014.986 0.066 0.069 -0.028 -0.02 0.65 -0.76 0.01
1 1.89 189 0.220 -9.745 1.427 0.305 2.228 1.251 -164.893 -314.945 -2984.855 -0.151 0.045 -0.030 -0.02 0.65 -0.76 0.01
1 1.90 190 0.115 -9.783 1.614 -0.702 3.174 2.319 -119.922 -119.922 -2849.943 -0.047 0.084 -0.215 -0.02 0.65 -0.76 0.01
1 1.91 191 0.163 -9.884 1.384 -1.709 3.601 2.747 -119.922 -119.922 -2849.943 -0.097 0.184 0.016 -0.02 0.65 -0.76 0.01
1 1.92 192 0.043 -9.903 1.398 -1.343 3.082 3.052 -224.854 -209.863 -3029.976 0.020 0.203 0.001 -0.02 0.65 -0.76 0.01
1 1.93 193 0.086 -9.793 1.413 -1.129 2.594 2.808 14.990 -164.893 -3059.957 -0.027 0.093 -0.013 -0.02 0.65 -0.76 0.01
1 1.94 194 0.014 -9.936 1.288 0.519 2.167 2.441 14.990 -164.893 -3059.957 0.042 0.237 0.112 -0.02 0.65 -0.76 0.01
1 1.95 195 -0.019 -9.817 1.350 1.892 2.747 2.533 -89.941 -89.941 -2984.855 0.073 0.118 0.052 -0.02 0.65 -0.76 0.01
1 1.96 196 -0.034 -9.615 1.331 1.953 3.235 2.594 -134.912 -149.902 -3074.947 0.080 -0.082 0.080 -0.01 0.65 -0.76 0.01
1 1.97 197 0.019 -9.817 1.341 1.282 3.479 2.502 -89.941 -119.922 -2954.875 0.024 0.119 0.074 -0.01 0.65 -0.76 0.01
1 1.98 198 -0.201 -9.869 1.461 -0.732 2.289 2.655 -89.941 -119.922 -2954.875 0.241 0.172 -0.044 -0.01 0.65 -0.76 0.01
1 1.99 199 -0.158 -9.807 1.494 -1.465 1.495 2.777 -134.912 -224.854 -3044.966 0.193 0.110 -0.077 -0.01 0.65 -0.76 0.01
1 2.00 200 -0.302 -9.936 1.508 -0.671 0.244 2.533 -104.932 -254.984 -3149.898 0.333 0.239 -0.092 -0.01 0.65 -0.76 0.01
1 2.01 201 -0.201 -9.884 1.580 0.793 -0.031 1.770 -104.932 -254.984 -3149.898 0.229 0.187 -0.163 -0.01 0.65 -0.76 0.01
1 2.02 202 -0.249 -9.836 1.398 1.709 0.244 1.923 -269.974 -89.941 -3134.908 0.273 0.139 0.021 -0.01 0.65 -0.76 0.01
1 2.03 203 -0.292 -9.860 1.446 2.197 -0.458 2.228 14.990 -164.893 -2909.904 0.313 0.164 -0.023 -0.01 0.65 -0.76 0.01
1 2.04 204 -0.225 -9.874 1.389 3.357 0.122 2.380 14.990 -119.922 -3059.957 0.238 0.179 0.045 -0.01 0.65 -0.76 0.01
1 2.05 205 -0.196 -9.802 1.374 2.075 0.610 1.953 14.990 -119.922 -3059.957 0.205 0.108 0.065 -0.01 0.65 -0.76 0.01
1 2.06 206 -0.158 -9.802 1.513 1.404 0.854 2.350 -14.990 -119.922 -3059.957 0.163 0.109 -0.070 -0.01 0.65 -0.76 0.01
1 2.07 207 -0.283 -9.802 1.441 0.854 1.190 2.014 -89.941 -119.922 -2954.875 0.284 0.110 0.005 -0.01 0.65 -0.76 0.01
1 2.08 208 -0.129 -9.697 1.422 1.740 1.282 1.862 -89.941 -119.922 -2954.875 0.127 0.005 0.028 -0.01 0.65 -0.76 0.01
1 2.09 209 -0.254 -9.649 1.341 1.221 1.038 1.801 14.990 -209.863 -3029.976 0.248 -0.043 0.112 -0.01 0.65 -0.76 0.01
1 2.10 210 -0.278 -9.817 1.571 1.312 1.282 2.228 -104.932 -179.883 -3014.986 0.269 0.125 -0.115 -0.01 0.65 -0.76 0.01
1 2.11 211 -0.177 -9.802 1.456 0.031 1.160 2.289 -134.912 -254.984 -3014.986 0.160 0.112 0.006 -0.01 0.65 -0.76 0.01
1 2.12 212 -0.067 -9.932 1.470 -0.519 1.282 2.380 -134.912 -254.984 -3014.986 0.046 0.241 -0.007 -0.01 0.65 -0.76 0.01
1 2.13 213 -0.144 -9.903 1.446 -0.397 0.916 2.533 -14.990 -119.922 -2954.875 0.120 0.213 0.017 -0.01 0.65 -0.76 0.01
1 2.14 214 -0.091 -9.773 1.484 -0.153 0.305 2.594 -44.971 -164.893 -2984.855 0.064 0.083 -0.021 -0.01 0.65 -0.76 0.01
1 2.15 215 -0.239 -9.754 1.484 0.671 0.458 2.045 -44.971 -164.893 -2984.855 0.210 0.065 -0.019 -0.01 0.65 -0.76 0.01
1 2.16 216 -0.254 -9.682 1.499 1.495 0.000 1.862 -284.964 -179.883 -2894.914 0.221 -0.007 -0.030 -0.01 0.65 -0.76 0.01
1 2.17 217 -0.316 -9.702 1.494 0.458 0.305 1.190 -29.980 -224.854 -3014.986 0.280 0.013 -0.022 -0.01 0.65 -0.76 0.01
1 2.18 218 -0.316 -9.769 1.494 -0.153 0.824 1.465 -29.980 -104.932 -3014.986 0.274 0.081 -0.016 -0.01 0.65 -0.76 0.01
1 2.19 219 -0.297 -9.769 1.532 -0.214 0.488 1.770 -29.980 -104.932 -3014.986 0.252 0.081 -0.053 -0.01 0.65 -0.76 0.01
1 2.20 220 -0.211 -9.754 1.508 -0.427 1.221 1.770 -134.912 -224.854 -3074.947 0.162 0.067 -0.028 -0.01 0.65 -0.76 0.01
1 2.21 221 -0.388 -9.754 1.585 -0.580 2.045 2.777 -44.971 -239.994 -3059.957 0.336 0.067 -0.103 -0.01 0.65 -0.76 0.01
1 2.22 222 -0.321 -9.745 1.518 0.122 2.380 2.686 -44.971 -239.994 -3059.957 0.264 0.058 -0.035 -0.01 0.65 -0.76 0.01
1 2.23 223 -0.350 -9.702 1.413 -0.671 1.465 2.899 -104.932 -179.883 -2894.914 0.288 0.015 0.073 -0.01 0.65 -0.76 0.01
1 2.24 224 -0.340 -9.807 1.652 0.092 2.380 2.136 -59.961 -254.984 -3044.966 0.273 0.121 -0.166 -0.01 0.65 -0.76 0.01
1 2.25 225 -0.340 -9.788 1.489 -1.007 2.289 1.770 -59.961 -254.984 -3044.966 0.268 0.102 -0.002 -0.01 0.65 -0.76 0.01
1 2.26 226 -0.388 -9.769 1.580 -0.610 2.167 1.862 -134.912 -179.883 -3119.917 0.308 0.083 -0.091 -0.01 0.65 -0.76 0.01
1 2.27 227 -0.374 -9.888 1.379 -0.671 1.465 2.319 -89.941 -239.994 -2984.855 0.289 0.203 0.111 -0.01 0.65 -0.76 0.01
1 2.28 228 -0.460 -9.951 1.437 -0.488 1.465 2.350 29.980 -179.883 -2969.865 0.370 0.265 0.053 -0.01 0.65 -0.76 0.01
1 2.29 229 -0.364 -9.821 1.384 -0.610 1.495 1.801 29.980 -179.883 -2969.865 0.270 0.136 0.106 -0.01 0.65 -0.76 0.01
1 2.30 230 -0.369 -9.898 1.403 -1.404 1.495 1.923 -44.971 -284.964 -2984.855 0.270 0.212 0.086 -0 0.65 -0.76 0.01
1 2.31 231 -0.436 -9.946 1.518 -0.610 1.373 1.190 -59.961 -224.854 -3119.917 0.333 0.260 -0.029 -0 0.65 -0.76 0.01
1 2.32 232 -0.469 -9.769 1.489 -0.397 0.427 1.099 -59.961 -224.854 -3119.917 0.363 0.083 -0.001 -0 0.65 -0.76 0.01
1 2.33 233 -0.699 -9.793 1.413 0.519 0.610 1.068 -44.971 -209.863 -2909.904 0.586 0.107 0.077 -0 0.65 -0.76 0.01
1 2.34 234 -0.579 -9.649 1.480 0.427 0.305 1.312 -44.971 -209.863 -3059.957 0.462 -0.036 0.011 -0 0.65 -0.76 0.01
1 2.35 235 -0.541 -9.505 1.355 0.397 0.153 0.763 0.000 -149.902 -2939.885 0.420 -0.180 0.138 -0 0.65 -0.76 0.01
1 2.36 236 -0.474 -9.529 1.432 -0.854 -0.031 1.160 0.000 -149.902 -2939.885 0.350 -0.155 0.062 -0 0.65 -0.76 0.01
1 2.37 237 -0.469 -9.687 1.370 -2.747 0.671 0.641 -89.941 -239.994 -2954.875 0.343 0.002 0.123 -0 0.65 -0.76 0.01
1 2.38 238 -0.474 -9.654 1.432 -3.693 1.282 0.732 59.961 -254.984 -3044.966 0.346 -0.032 0.057 -0 0.65 -0.76 0.01
1 2.39 239 -0.493 -9.726 1.269 -3.510 1.343 0.031 59.961 -254.984 -3044.966 0.362 0.039 0.214 -0 0.65 -0.76 0.01
1 2.40 240 -0.623 -9.759 1.417 -3.235 1.678 -0.275 -14.990 -284.964 -2954.875 0.488 0.071 0.056 -0 0.65 -0.76 0.01
1 2.41 241 -0.517 -9.721 1.293 -2.899 1.343 -0.305 -104.932 -299.955 -3044.966 0.381 0.032 0.176 -0 0.65 -0.76 0.01
1 2.42 242 -0.431 -10.013 1.240 -2.045 0.366 -0.885 -29.980 -224.854 -3044.966 0.294 0.324 0.225 -0 0.65 -0.76 0.01
1 2.43 243 -0.512 -9.812 1.235 -2.350 -0.397 -0.916 -29.980 -224.854 -3044.966 0.376 0.122 0.227 -0 0.65 -0.76 0.01
1 2.44 244 -0.306 -9.726 1.240 -2.228 -0.275 -1.740 -119.922 -239.994 -3059.957 0.170 0.036 0.219 -0 0.65 -0.76 0.01
1 2.45 245 -0.397 -9.726 1.312 -2.228 -0.793 -1.434 -134.912 -179.883 -3119.917 0.262 0.035 0.143 -0 0.65 -0.76 0.01
1 2.46 246 -0.220 -9.611 1.355 -2.747 -0.488 -1.495 -134.912 -179.883 -3119.917 0.086 -0.080 0.097 -0 0.65 -0.76 0.01
1 2.47 247 -0.369 -9.826 1.403 -3.326 -0.549 -2.045 59.961 -149.902 -3074.947 0.236 0.135 0.046 -0 0.65 -0.76 0.01
1 2.48 248 -0.488 -9.668 1.168 -3.632 -1.129 -1.862 14.990 -89.941 -3104.927 0.362 -0.025 0.272 -0 0.65 -0.76 0.01
1 2.49 249 -0.374 -9.879 1.298 -4.181 -0.977 -2.136 -59.961 -254.984 -3119.917 0.249 0.185 0.137 -0 0.65 -0.76 0.01
1 2.50 250 -0.503 -9.908 1.360 -4.150 -1.892 -3.052 -59.961 -254.984 -3119.917 0.382 0.213 0.069 -0 0.65 -0.76 0.01
1 2.51 251 -0.431 -9.922 1.288 -2.930 -1.709 -3.876 -104.932 -329.935 -3044.966 0.314 0.227 0.136 -0 0.65 -0.76 0.01
1 2.52 252 -0.412 -9.788 1.307 -1.068 -2.472 -3.998 -104.932 -254.984 -3044.966 0.300 0.092 0.114 -0 0.65 -0.76 0.01
1 2.53 253 -0.374 -9.697 1.269 -0.336 -3.326 -5.096 -104.932 -254.984 -3044.966 0.268 0.001 0.151 -0 0.65 -0.76 0.01
1 2.54 254 -0.374 -9.721 1.298 -0.977 -4.456 -5.615 -59.961 -254.984 -3014.986 0.275 0.025 0.122 -0 0.65 -0.76 0.01
1 2.55 255 -0.283 -9.735 1.403 -3.632 -5.157 -6.500 -89.941 -284.964 -2909.904 0.201 0.038 0.013 -0 0.65 -0.76 0.01
1 2.56 256 -0.287 -9.764 1.389 -3.540 -5.951 -7.568 -104.932 -179.883 -2939.885 0.216 0.066 0.023 -0 0.65 -0.76 0.01
1 2.57 257 -0.239 -9.864 1.365 -3.174 -6.866 -8.637 -104.932 -179.883 -2939.885 0.180 0.166 0.043 -0.01 0.65 -0.76 0.01
1 2.58 258 -0.134 -9.860 1.293 -1.404 -8.362 -9.827 14.990 -359.916 -2804.973 0.090 0.161 0.112 -0.01 0.65 -0.76 0.01
1 2.59 259 -0.182 -9.864 1.293 0.610 -9.552 -11.231 0.000 -224.854 -3014.986 0.155 0.166 0.112 -0.01 0.65 -0.76 0.01
1 2.60 260 -0.086 -9.826 1.279 0.702 -10.010 -11.383 0.000 -224.854 -3014.986 0.077 0.128 0.127 -0.01 0.65 -0.76 0.01
1 2.61 261 -0.077 -9.745 1.508 0.122 -9.827 -11.597 -134.912 -299.955 -2969.865 0.086 0.046 -0.101 -0.01 0.65 -0.76 0.01
1 2.62 262 0.043 -9.979 1.585 -3.479 -9.735 -11.719 0.000 -224.854 -3014.986 0.006 0.281 -0.176 -0.01 0.65 -0.76 0.01
1 2.63 263 0.110 -9.874 1.652 -4.944 -10.376 -12.207 -119.922 -314.945 -2984.855 -0.040 0.176 -0.246 -0.01 0.65 -0.76 0.01
1 2.64 264 0.148 -9.975 1.666 -4.486 -11.475 -12.451 -119.922 -314.945 -2984.855 -0.056 0.276 -0.264 -0.01 0.65 -0.76 0.01
1 2.65 265 0.230 -10.061 1.537 -1.251 -11.108 -12.085 -224.854 -209.863 -3059.957 -0.116 0.362 -0.138 -0.02 0.65 -0.76 0.01
1 2.66 266 0.359 -10.022 1.595 2.106 -11.688 -11.414 -119.922 -314.945 -2879.924 -0.223 0.324 -0.193 -0.02 0.65 -0.76 0.01
1 2.67 267 0.479 -9.936 1.504 6.378 -11.414 -10.315 -119.922 -314.945 -2879.924 -0.320 0.239 -0.096 -0.02 0.65 -0.76 0.01
1 2.68 268 0.551 -9.860 1.283 7.690 -13.702 -10.895 -224.854 -164.893 -2984.855 -0.371 0.165 0.135 -0.02 0.65 -0.76 0.01
1 2.69 269 0.757 -9.587 1.523 9.583 -15.442 -9.766 -224.854 -164.893 -2984.855 -0.554 -0.106 -0.092 -0.02 0.65 -0.76 0.01
1 2.70 270 0.790 -9.568 1.475 8.545 -17.242 -7.477 -284.964 -254.984 -3044.966 -0.544 -0.120 -0.015 -0.02 0.65 -0.76 0.01
1 2.71 271 0.919 -9.472 1.456 7.721 -17.487 -5.798 -284.964 -254.984 -3044.966 -0.653 -0.213 0.017 -0.03 0.65 -0.76 0.01
1 2.72 272 1.106 -9.390 1.508 6.866 -16.449 -3.357 -269.974 -239.994 -2954.875 -0.822 -0.292 -0.024 -0.03 0.65 -0.76 0.01
1 2.73 273 1.144 -9.481 1.441 6.561 -15.137 -1.984 -179.883 -254.984 -3119.917 -0.845 -0.199 0.055 -0.03 0.65 -0.76 0.01
1 2.74 274 1.274 -9.362 1.532 7.019 -12.116 0.336 -179.883 -254.984 -3119.917 -0.962 -0.317 -0.026 -0.03 0.65 -0.76 0.01
1 2.75 275 1.408 -9.232 1.413 6.165 -9.430 0.793 -224.854 -164.893 -3134.908 -1.085 -0.444 0.106 -0.03 0.65 -0.76 0.01
1 2.76 276 1.528 -9.438 1.446 4.089 -6.409 -0.183 -224.854 -164.893 -3134.908 -1.195 -0.236 0.083 -0.03 0.65 -0.76 0.01
1 2.77 277 1.427 -9.462 1.360 -4.669 -2.899 -0.854 -374.906 -119.922 -2909.904 -1.071 -0.210 0.178 -0.03 0.65 -0.76 0.01
1 2.78 278 1.475 -9.730 1.365 -10.834 -1.312 -1.312 -374.906 -119.922 -2909.904 -1.107 0.057 0.164 -0.03 0.65 -0.76 0.01
1 2.79 279 1.398 -9.975 1.389 -15.015 -1.190 -3.082 -269.974 -389.896 -3059.957 -1.017 0.299 0.123 -0.03 0.65 -0.76 0.01
1 2.80 280 1.408 -10.200 1.341 -14.710 -2.075 -4.120 -329.935 -329.935 -3074.947 -1.013 0.522 0.149 -0.03 0.65 -0.76 0.01
1 2.81 281 1.355 -10.520 1.360 -9.583 -3.174 -6.317 -329.935 -329.935 -3074.947 -0.944 0.840 0.109 -0.04 0.65 -0.76 0.01
1 2.82 282 1.427 -10.568 1.235 0.031 -3.082 -9.003 -299.955 -239.994 -3164.888 -0.997 0.887 0.221 -0.04 0.65 -0.76 0.01
1 2.83 283 1.470 -10.501 1.288 4.944 -2.808 -10.284 -299.955 -239.994 -3164.888 -1.018 0.820 0.165 -0.04 0.65 -0.76 0.01
1 2.84 284 1.384 -10.315 1.144 8.575 -1.099 -11.688 -359.916 -104.932 -3044.966 -0.887 0.638 0.326 -0.04 0.65 -0.76 0.01
1 2.85 285 1.317 -10.276 1.269 8.179 0.427 -12.451 -359.916 -104.932 -3044.966 -0.794 0.603 0.213 -0.04 0.65 -0.76 0.01
1 2.86 286 1.255 -9.979 1.197 5.737 -0.427 -13.336 -299.955 -209.863 -2954.875 -0.706 0.309 0.296 -0.04 0.65 -0.76 0.01
1 2.87 287 1.269 -9.960 1.312 4.181 -2.258 -14.343 -419.876 -314.945 -2984.855 -0.694 0.293 0.188 -0.04 0.65 -0.76 0
1 2.88 288 1.202 -9.855 1.403 2.655 -3.937 -16.357 -419.876 -314.945 -2984.855 -0.598 0.190 0.103 -0.04 0.65 -0.76 0
1 2.89 289 1.341 -9.908 1.456 3.265 -5.707 -16.144 -389.896 -179.883 -2894.914 -0.706 0.245 0.054 -0.05 0.65 -0.76 0
1 2.90 290 1.322 -9.960 1.403 6.836 -6.897 -14.862 -389.896 -179.883 -2894.914 -0.656 0.301 0.111 -0.05 0.65 -0.76 0
1 2.91 291 1.336 -9.888 1.346 11.810 -6.409 -12.878 -374.906 -239.994 -2984.855 -0.640 0.233 0.178 -0.05 0.65 -0.76 0
1 2.92 292 1.034 -9.721 1.207 17.975 -4.974 -10.162 -329.935 -299.955 -3014.986 -0.288 0.075 0.354 -0.05 0.65 -0.76 0
1 2.93 293 0.963 -9.438 1.312 17.609 -4.181 -8.820 -374.906 -314.945 -3104.927 -0.196 -0.202 0.273 -0.05 0.65 -0.76 0
1 2.94 294 0.843 -9.419 1.207 13.977 -3.265 -7.599 -434.867 -224.854 -3074.947 -0.060 -0.216 0.403 -0.05 0.64 -0.76 0
1 2.95 295 0.752 -9.256 1.077 8.789 -1.862 -7.599 -434.867 -224.854 -3074.947 0.045 -0.375 0.550 -0.05 0.64 -0.76 0
1 2.96 296 0.536 -9.328 1.178 -0.977 -1.099 -7.477 -419.876 -284.964 -2984.855 0.273 -0.300 0.459 -0.05 0.64 -0.76 0
1 2.97 297 0.464 -9.453 1.082 -4.700 -2.777 -7.202 -419.876 -284.964 -2984.855 0.356 -0.175 0.553 -0.05 0.64 -0.76 0
1 2.98 298 0.426 -9.577 1.015 -5.615 -5.768 -7.233 -464.997 -254.984 -3014.986 0.405 -0.051 0.613 0.06 -0.64 0.76 0
1 2.99 299 0.680 -9.759 1.207 -1.526 -7.874 -7.599 -419.876 -314.945 -3104.927 0.173 0.130 0.401 -0.06 0.64 -0.76 0
1 3.00 300 0.718 -9.682 1.188 1.587 -7.019 -6.287 -389.896 -179.883 -3074.947 0.147 0.054 0.417 -0.06 0.64 -0.76 0
1 3.01 301 0.752 -9.793 1.255 4.608 -5.066 -4.883 -464.997 -224.854 -3074.947 0.124 0.165 0.352 -0.06 0.64 -0.76 0
1 3.02 302 0.953 -9.692 1.173 6.042 -4.150 -3.510 -464.997 -224.854 -3074.947 -0.069 0.066 0.439 -0.06 0.64 -0.76 0
1 3.03 303 1.006 -9.635 1.298 6.012 -2.930 -2.472 -464.997 -419.876 -3149.898 -0.114 0.011 0.322 -0.06 0.64 -0.76 0
1 3.04 304 1.015 -9.620 1.212 4.669 -3.998 -1.648 -464.997 -419.876 -3149.898 -0.118 -0.002 0.417 -0.06 0.64 -0.76 0
1 3.05 305 1.077 -9.659 1.197 3.662 -3.937 -2.106 -389.896 -419.876 -3119.917 -0.175 0.038 0.437 -0.06 0.64 -0.76 0
1 3.06 306 1.221 -9.611 1.240 2.228 -3.265 -2.045 -539.948 -299.955 -3074.947 -0.306 -0.008 0.400 -0.06 0.64 -0.76 0
1 3.07 307 1.135 -9.678 1.168 1.129 -2.686 -2.380 -464.997 -419.876 -3119.917 -0.213 0.060 0.472 -0.06 0.64 -0.76 0
1 3.08 308 1.250 -9.663 1.164 1.770 -3.021 -2.747 -434.867 -419.876 -3119.917 -0.320 0.047 0.477 -0.06 0.64 -0.76 0
1 3.09 309 1.125 -9.692 1.188 3.174 -3.143 -2.808 -434.867 -419.876 -3119.917 -0.187 0.076 0.454 -0.06 0.64 -0.76 0
1 3.10 310 1.216 -9.759 1.192 4.364 -2.808 -1.862 -374.906 -284.964 -3104.927 -0.270 0.145 0.452 -0.06 0.64 -0.76 0
1 3.11 311 1.192 -9.678 1.164 6.134 -2.563 -0.946 -374.906 -284.964 -3104.927 -0.240 0.065 0.486 -0.06 0.64 -0.76 0
1 3.12 312 1.168 -9.596 1.087 6.287 -1.587 -0.336 -464.997 -374.906 -3119.917 -0.210 -0.015 0.569 -0.07 0.64 -0.76 0
1 3.13 313 1.082 -9.673 0.982 4.883 -0.092 -1.434 -629.890 -389.896 -3104.927 -0.120 0.063 0.681 -0.07 0.64 -0.76 0
1 3.14 314 0.967 -9.692 0.958 1.556 0.153 -1.373 -599.909 -389.896 -3029.976 0.003 0.084 0.711 -0.07 0.64 -0.76 0
1 3.15 315 1.111 -9.625 0.876 -0.336 0.153 -1.709 -494.978 -359.916 -3164.888 -0.137 0.017 0.791 -0.07 0.64 -0.76 0
1 3.16 316 1.030 -9.606 0.953 -1.587 -0.366 -1.984 -494.978 -359.916 -3164.888 -0.050 -0.002 0.709 -0.07 0.64 -0.76 0
1 3.17 317 1.212 -9.864 1.130 -1.007 -0.275 -2.350 -464.997 -494.978 -3149.898 -0.228 0.256 0.526 -0.07 0.64 -0.76 0
1 3.18 318 1.207 -9.769 0.934 2.014 0.336 -1.282 -464.997 -494.978 -3149.898 -0.218 0.160 0.719 -0.07 0.64 -0.76 0
1 3.19 319 1.240 -9.850 0.876 5.035 1.038 -0.458 -584.919 -329.935 -3149.898 -0.247 0.241 0.774 -0.07 0.64 -0.76 0
1 3.20 320 1.140 -9.721 0.919 7.965 1.953 0.793 -599.909 -314.945 -3209.859 -0.142 0.113 0.733 -0.07 0.64 -0.76 0
1 3.21 321 1.106 -9.529 0.809 8.575 3.052 2.258 -419.876 -239.994 -3134.908 -0.108 -0.076 0.859 -0.07 0.64 -0.76 0
1 3.22 322 0.891 -9.615 0.867 5.341 3.418 2.441 -464.997 -494.978 -3044.966 0.105 0.011 0.810 -0.07 0.64 -0.77 0
1 3.23 323 0.881 -9.515 0.723 2.563 2.563 2.197 -464.997 -494.978 -3044.966 0.111 -0.089 0.957 -0.07 0.64 -0.77 0
1 3.24 324 0.953 -9.520 0.761 0.366 1.495 2.167 -464.997 -374.906 -3194.869 0.036 -0.085 0.917 -0.07 0.64 -0.77 0
1 3.25 325 0.924 -9.654 0.675 0.824 0.793 2.289 -464.997 -374.906 -3194.869 0.062 0.048 0.998 -0.07 0.64 -0.77 0
1 3.26 326 1.073 -9.501 0.781 3.082 1.068 2.472 -449.857 -314.945 -3104.927 -0.089 -0.106 0.889 -0.07 0.64 -0.76 0
1 3.27 327 1.092 -9.615 0.704 3.479 0.732 3.082 -509.968 -224.854 -3149.898 -0.110 0.008 0.963 -0.07 0.64 -0.76 0
1 3.28 328 1.168 -9.659 0.819 3.510 2.899 3.906 -539.948 -329.935 -3149.898 -0.193 0.051 0.849 -0.07 0.64 -0.76 0
1 3.29 329 1.025 -9.706 0.713 2.716 4.791 4.303 -464.997 -419.876 -3149.898 -0.053 0.098 0.955 -0.07 0.64 -0.76 0
1 3.30 330 1.183 -9.802 0.824 2.289 6.439 3.723 -464.997 -419.876 -3149.898 -0.217 0.194 0.844 -0.07 0.64 -0.76 0
1 3.31 331 1.130 -9.802 0.867 2.716 5.859 3.113 -344.925 -314.945 -3134.908 -0.169 0.193 0.801 -0.07 0.64 -0.76 0
1 3.32 332 1.140 -10.046 0.867 3.204 4.761 2.502 -344.925 -314.945 -3134.908 -0.182 0.437 0.800 -0.07 0.64 -0.76 0
1 3.33 333 1.255 -9.994 0.977 6.073 3.662 1.770 -374.906 -284.964 -3104.927 -0.300 0.384 0.692 -0.07 0.64 -0.76 0
1 3.34 334 1.279 -9.845 0.963 8.453 3.723 2.319 -599.909 -389.896 -3059.957 -0.324 0.237 0.711 -0.07 0.64 -0.77 0
1 3.35 335 1.331 -9.817 0.934 9.491 3.967 2.228 -599.909 -389.896 -3059.957 -0.378 0.209 0.748 -0.07 0.64 -0.77 0
1 3.36 336 1.461 -9.663 0.862 9.949 6.500 1.923 -539.948 -569.929 -3254.979 -0.508 0.060 0.843 -0.07 0.64 -0.77 0
1 3.37 337 1.398 -9.702 1.001 8.087 7.843 1.831 -539.948 -569.929 -3254.979 -0.446 0.100 0.714 -0.07 0.64 -0.77 0
1 3.38 338 1.523 -9.505 1.010 5.859 8.972 0.824 -389.896 -374.906 -3194.869 -0.570 -0.095 0.713 -0.07 0.64 -0.77 0
1 3.39 339 1.346 -9.615 0.910 5.310 10.162 0.244 -389.896 -374.906 -3194.869 -0.392 0.016 0.819 -0.07 0.64 -0.77 0
1 3.40 340 1.331 -9.410 0.919 6.714 11.475 -0.977 -374.906 -389.896 -3164.888 -0.375 -0.188 0.815 -0.07 0.64 -0.77 0
1 3.41 341 1.393 -9.429 0.891 9.155 13.428 -2.014 -329.935 -494.978 -3119.917 -0.434 -0.168 0.850 -0.07 0.64 -0.77 0
1 3.42 342 1.240 -9.189 0.795 8.911 15.167 -2.991 -329.935 -494.978 -3119.917 -0.278 -0.405 0.956 -0.06 0.64 -0.77 0
1 3.43 343 1.408 -9.194 0.790 4.639 18.189 -3.845 -464.997 -419.876 -3119.917 -0.437 -0.396 0.981 0.06 -0.64 0.77 0
1 3.44 344 1.513 -9.208 0.809 -1.740 19.959 -4.608 -464.997 -419.876 -3119.917 -0.537 -0.380 0.964 0.06 -0.64 0.77 0
1 3.45 345 1.676 -9.357 0.891 -6.622 21.851 -6.561 -569.929 -239.994 -3164.888 -0.692 -0.232 0.876 0.06 -0.64 0.77 0
1 3.46 346 1.652 -9.687 1.528 -10.864 21.759 -8.087 -569.929 -239.994 -3164.888 -0.658 0.097 0.226 0.06 -0.64 0.77 0
1 3.47 347 1.619 -10.324 1.944 -12.604 21.607 -14.069 -539.948 -419.876 -3149.898 -0.611 0.733 -0.205 0.06 -0.64 0.77 0.01
1 3.48 348 1.101 -11.363 2.332 -18.463 19.470 -31.677 -449.857 -434.867 -3164.888 -0.069 1.772 -0.607 0.06 -0.64 0.77 0.01
1 3.49 349 0.685 -11.967 1.992 -18.066 12.634 -41.229 -449.857 -434.867 -3164.888 0.385 2.376 -0.287 0.06 -0.64 0.77 0.01
1 3.50 350 0.340 -12.484 1.619 4.028 2.441 -46.295 -434.867 -374.906 -3119.917 0.853 2.902 0.054 0.07 -0.64 0.76 0.02
1 3.51 351 0.120 -12.441 1.480 10.925 -2.197 -41.840 -434.867 -374.906 -3119.917 1.141 2.869 0.204 0.07 -0.64 0.77 0.02
1 3.52 352 0.163 -11.909 1.642 12.634 -5.066 -34.485 -494.978 -284.964 -3029.976 1.159 2.349 0.059 0.07 -0.64 0.77 0.02
1 3.53 353 0.618 -11.426 1.614 15.778 -10.864 -26.733 -494.978 -284.964 -3029.976 0.755 1.876 0.107 0.07 -0.64 0.77 0.02
1 3.54 354 1.221 -11.157 1.714 19.074 -14.679 -19.684 -434.867 -419.876 -3119.917 0.192 1.618 0.030 0.07 -0.64 0.77 0.02
1 3.55 355 1.877 -10.559 2.136 18.982 -13.245 -9.064 -464.997 -494.978 -3254.979 -0.432 1.029 -0.364 0.08 -0.64 0.77 0.02
1 3.56 356 2.131 -10.401 2.322 16.174 -8.179 -1.862 -464.997 -494.978 -3254.979 -0.665 0.880 -0.524 0.08 -0.63 0.77 0.02
1 3.57 357 2.097 -10.410 2.217 16.602 -0.854 3.754 -614.899 -449.857 -3074.947 -0.622 0.895 -0.394 0.08 -0.63 0.77 0.02
1 3.58 358 2.140 -10.420 2.150 18.799 2.594 9.125 -584.919 -419.876 -3224.999 -0.676 0.913 -0.275 0.08 -0.63 0.77 0.02
1 3.59 359 2.299 -10.324 2.246 21.271 1.404 12.482 -614.899 -449.857 -3254.979 -0.848 0.821 -0.340 0.08 -0.63 0.77 0.02
1 3.60 360 2.538 -10.176 2.337 21.942 1.709 16.022 -614.899 -449.857 -3254.979 -1.106 0.677 -0.397 0.08 -0.63 0.77 0.02
1 3.61 361 2.447 -10.042 2.361 21.118 2.350 19.196 -614.899 -419.876 -3149.898 -1.033 0.547 -0.386 0.08 -0.63 0.77 0.02
1 3.62 362 2.686 -9.668 2.624 20.325 2.899 24.292 -704.991 -464.997 -3284.960 -1.294 0.178 -0.615 0.08 -0.63 0.78 0.02
1 3.63 363 2.385 -9.400 2.682 20.264 4.211 26.825 -704.991 -464.997 -3284.960 -1.018 -0.087 -0.639 0.08 -0.62 0.78 0.01
1 3.64 364 2.045 -8.974 2.983 20.325 6.683 29.877 -629.890 -584.919 -3314.940 -0.707 -0.509 -0.905 0.08 -0.62 0.78 0.01
1 3.65 365 1.288 -8.533 3.309 18.219 10.498 31.921 -434.867 -524.958 -3254.979 -0.028 -0.943 -1.154 0.07 -0.62 0.78 0.01
1 3.66 366 0.690 -8.318 3.371 15.564 12.848 32.349 -539.948 -374.906 -3044.966 0.524 -1.156 -1.177 0.07 -0.62 0.78 0.01
1 3.67 367 0.306 -8.179 3.390 10.773 14.435 30.426 -539.948 -374.906 -3044.966 0.856 -1.293 -1.161 0.07 -0.62 0.78 0.01
1 3.68 368 -0.120 -8.141 3.376 6.592 13.702 27.710 -494.978 -629.890 -3164.888 1.230 -1.331 -1.118 0.07 -0.62 0.78 0.01
1 3.69 369 -0.326 -8.083 3.386 1.556 11.231 24.262 -449.857 -704.991 -3239.989 1.393 -1.390 -1.116 0.07 -0.62 0.78 0
1 3.70 370 -0.541 -8.088 3.347 -3.143 6.592 20.111 -449.857 -704.991 -3239.989 1.572 -1.389 -1.074 0.06 -0.62 0.78 0
1 3.71 371 -0.589 -8.169 3.309 -3.510 5.188 18.768 -329.935 -569.929 -3254.979 1.583 -1.310 -1.031 0.06 -0.62 0.78 0
1 3.72 372 -0.397 -8.366 3.160 -2.960 6.287 19.592 -569.929 -659.870 -3314.940 1.318 -1.119 -0.873 -0.06 0.62 -0.79 0
1 3.73 373 -0.254 -8.437 3.199 -5.432 6.439 22.339 -344.925 -539.948 -3104.927 1.134 -1.049 -0.905 -0.06 0.62 -0.79 0
1 3.74 374 -0.244 -8.615 3.122 -7.813 6.470 26.123 -344.925 -539.948 -3104.927 1.082 -0.876 -0.826 -0.06 0.62 -0.79 0
1 3.75 375 -0.239 -8.844 3.046 -11.566 7.202 30.243 -284.964 -644.880 -3224.999 1.028 -0.651 -0.752 -0.05 0.62 -0.79 0
1 3.76 376 -0.172 -9.046 3.036 -15.503 7.904 32.776 -329.935 -569.929 -3194.869 0.908 -0.456 -0.750 -0.05 0.62 -0.79 0.01
1 3.77 377 -0.249 -9.256 2.864 -18.616 6.683 32.868 -329.935 -569.929 -3194.869 0.928 -0.253 -0.592 -0.05 0.62 -0.78 0.01
1 3.78 378 -0.201 -9.529 2.701 -19.684 4.456 32.623 -194.873 -584.919 -3164.888 0.824 0.012 -0.449 -0.05 0.62 -0.78 0.01
1 3.79 379 0.005 -9.745 2.844 -19.257 0.854 33.661 -284.964 -569.929 -3194.869 0.563 0.219 -0.615 -0.05 0.62 -0.78 0.01
1 3.80 380 0.469 -9.841 2.974 -15.137 -0.275 36.347 -299.955 -509.968 -3284.960 -0.009 0.299 -0.787 -0.04 0.62 -0.78 0.02
1 3.81 381 0.680 -9.941 2.978 -11.017 2.350 37.933 -299.955 -509.968 -3284.960 -0.274 0.394 -0.806 -0.04 0.62 -0.78 0.02
1 3.82 382 0.709 -9.864 2.959 -5.920 6.134 38.117 -134.912 -569.929 -3224.999 -0.356 0.313 -0.794 -0.04 0.62 -0.78 0.02
1 3.83 383 0.824 -9.716 2.682 -0.671 9.583 36.774 -284.964 -569.929 -3254.979 -0.525 0.163 -0.516 -0.04 0.62 -0.78 0.02
1 3.84 384 0.833 -9.256 2.639 5.371 13.611 34.271 -284.964 -569.929 -3254.979 -0.586 -0.297 -0.466 -0.03 0.62 -0.78 0.02
1 3.85 385 0.675 -9.003 2.437 3.723 14.130 31.769 -209.863 -599.909 -3074.947 -0.477 -0.549 -0.253 -0.03 0.62 -0.78 0.02
1 3.86 386 0.503 -8.897 2.452 0.061 15.137 30.670 -254.984 -749.961 -3119.917 -0.351 -0.652 -0.255 -0.03 0.62 -0.78 0.02
1 3.87 387 0.134 -8.878 2.433 -13.275 17.548 28.961 -14.990 -659.870 -3104.927 -0.073 -0.672 -0.234 -0.02 0.62 -0.78 0.03
1 3.88 388 -0.081 -9.204 2.447 -24.902 19.898 26.642 -14.990 -659.870 -3104.927 0.097 -0.351 -0.268 -0.02 0.62 -0.78 0.03
1 3.89 389 -0.541 -9.615 2.452 -30.762 20.996 24.414 -44.971 -629.890 -2984.855 0.513 0.053 -0.308 -0.02 0.62 -0.78 0.03
1 3.90 390 -0.862 -10.027 2.270 -27.710 18.494 22.583 -209.863 -524.958 -3074.947 0.790 0.456 -0.167 -0.02 0.63 -0.78 0.03
1 3.91 391 -0.986 -10.214 2.064 -16.907 15.106 21.271 -209.863 -524.958 -3074.947 0.873 0.635 0.004 -0.02 0.63 -0.78 0.03
1 3.92 392 -0.833 -10.090 1.915 5.249 10.437 20.386 -59.961 -569.929 -3044.966 0.679 0.507 0.134 -0.01 0.63 -0.78 0.03
1 3.93 393 -0.646 -9.668 1.925 15.778 9.674 21.240 -59.961 -569.929 -3149.898 0.455 0.087 0.127 -0.01 0.63 -0.78 0.03
1 3.94 394 -0.632 -9.127 1.848 14.282 8.148 21.515 14.990 -464.997 -3164.888 0.365 -0.442 0.248 -0.01 0.63 -0.78 0.03
1 3.95 395 -0.733 -9.017 1.781 5.402 8.789 21.149 14.990 -464.997 -3164.888 0.430 -0.547 0.333 -0.01 0.63 -0.78 0.03
1 3.96 396 -0.627 -8.993 1.757 -6.714 8.942 19.775 -44.971 -539.948 -3059.957 0.289 -0.570 0.360 -0 0.63 -0.78 0.03
1 3.97 397 -0.747 -9.117 1.595 -14.069 9.552 18.616 29.980 -599.909 -3119.917 0.375 -0.447 0.509 -0 0.63 -0.78 0.03
1 3.98 398 -0.723 -9.309 1.489 -15.228 10.345 17.242 29.980 -599.909 -3119.917 0.320 -0.259 0.591 0 0.63 -0.78 0.03
1 3.99 399 -1.034 -9.553 1.370 -4.639 8.057 13.886 104.932 -644.880 -2969.865 0.602 -0.019 0.688 0 0.63 -0.78 0.03
1 4.00 400 -0.963 -9.357 1.212 3.815 6.287 11.047 89.941 -629.890 -3134.908 0.505 -0.217 0.833 0 0.63 -0.78 0.03
1 4.01 401 -0.924 -9.026 1.101 7.355 4.181 7.751 89.941 -629.890 -3134.908 0.444 -0.546 0.942 0 0.63 -0.78 0.03
1 4.02 402 -0.819 -8.777 1.231 3.052 4.913 4.761 119.922 -629.890 -3029.976 0.310 -0.791 0.824 0.01 0.63 -0.78 0.03
1 4.03 403 -0.996 -8.787 1.149 -4.425 6.348 2.869 194.873 -509.968 -3104.927 0.478 -0.782 0.903 0.01 0.63 -0.78 0.03
1 4.04 404 -0.958 -8.801 1.039 -10.529 7.141 0.885 14.990 -629.890 -3059.957 0.431 -0.770 1.000 0.01 0.63 -0.78 0.03
1 4.05 405 -1.044 -8.974 0.982 -13.123 6.409 -1.801 14.990 -629.890 -3059.957 0.512 -0.601 1.036 0.01 0.63 -0.78 0.03
1 4.06 406 -1.111 -9.065 0.809 -10.193 1.221 -4.822 29.980 -599.909 -3074.947 0.578 -0.515 1.185 0.01 0.63 -0.78 0.03
1 4.07 407 -1.006 -9.065 0.862 -6.714 -2.136 -6.287 194.873 -629.890 -3104.927 0.475 -0.520 1.110 0.01 0.63 -0.77 0.03
1 4.08 408 -1.097 -9.050 0.881 -3.906 -4.974 -7.874 194.873 -629.890 -3104.927 0.572 -0.538 1.074 0.01 0.63 -0.77 0.03
1 4.09 409 -1.101 -9.117 0.824 -5.463 -8.514 -9.735 164.893 -584.919 -3059.957 0.598 -0.477 1.110 0.01 0.63 -0.77 0.03
1 4.10 410 -1.302 -8.988 0.924 -11.322 -11.566 -9.796 119.922 -539.948 -3059.957 0.813 -0.610 0.995 0.01 0.63 -0.77 0.03
1 4.11 411 -1.480 -9.132 0.958 -17.609 -14.893 -10.254 14.990 -584.919 -3134.908 1.003 -0.471 0.939 0.01 0.63 -0.77 0.03
1 4.12 412 -1.513 -9.477 1.068 -22.766 -18.829 -11.414 14.990 -584.919 -3134.908 1.052 -0.133 0.797 0.01 0.64 -0.77 0.03
1 4.13 413 -1.350 -9.601 1.049 -23.895 -20.355 -11.597 14.990 -734.971 -2954.875 0.905 -0.017 0.779 0.01 0.64 -0.77 0.03
1 4.14 414 -1.513 -9.979 0.982 -17.853 -19.806 -11.505 -14.990 -509.968 -2909.904 1.085 0.354 0.808 0 0.64 -0.77 0.03
1 4.15 415 -1.686 -9.764 0.872 -12.726 -18.738 -10.193 -14.990 -509.968 -2909.904 1.274 0.132 0.886 0 0.64 -0.77 0.03
1 4.16 416 -1.848 -9.802 0.824 -10.254 -20.233 -8.637 14.990 -539.948 -2954.875 1.462 0.161 0.891 0 0.64 -0.77 0.03
1 4.17 417 -1.997 -9.807 0.685 -11.963 -23.010 -8.179 59.961 -494.978 -3044.966 1.618 0.162 1.010 -0 0.64 -0.77 0.03
1 4.18 418 -1.891 -9.716 0.795 -13.672 -25.787 -6.989 14.990 -584.919 -3029.976 1.520 0.067 0.877 -0 0.64 -0.76 0.03
1 4.19 419 -1.590 -9.716 0.814 -13.977 -27.252 -7.568 14.990 -584.919 -3029.976 1.225 0.062 0.834 -0 0.64 -0.76 0.03
1 4.20 420 -1.528 -9.773 0.713 -13.245 -26.795 -4.822 14.990 -434.867 -3059.957 1.171 0.116 0.911 -0 0.65 -0.76 0.03
1 4.21 421 -1.269 -9.793 0.848 -12.390 -23.010 -3.418 -14.990 -509.968 -2729.872 0.918 0.131 0.753 -0.01 0.65 -0.76 0.03
1 4.22 422 -1.341 -9.745 0.469 -12.451 -23.010 -2.991 -14.990 -509.968 -2729.872 0.995 0.079 1.108 -0.01 0.65 -0.76 0.04
1 4.23 423 -1.360 -9.730 1.068 -15.076 -23.041 -3.662 -194.873 -359.916 -2954.875 1.018 0.061 0.488 -0.01 0.65 -0.76 0.04
1 4.24 424 -1.207 -10.439 3.093 -24.780 -16.663 -6.622 -29.980 -524.958 -2969.865 0.877 0.761 -1.591 -0.01 0.65 -0.76 0.04
1 4.25 425 -0.795 -11.828 3.711 -31.098 -5.280 -1.343 -104.932 -569.929 -2969.865 0.475 2.144 -2.242 -0.01 0.65 -0.76 0.04
1 4.26 426 -0.311 -14.179 3.213 -50.629 -0.671 13.641 -104.932 -569.929 -2969.865 -0.010 4.488 -1.794 -0.01 0.65 -0.76 0.04
1 4.27 427 0.268 -16.659 1.738 -62.592 0.336 25.971 -194.873 -539.948 -2849.943 -0.613 6.957 -0.401 -0.01 0.66 -0.75 0.04
1 4.28 428 0.340 -17.057 1.427 -12.939 -4.272 34.943 -254.984 -419.876 -2939.885 -0.726 7.345 -0.173 -0.01 0.66 -0.75 0.04
1 4.29 429 0.479 -14.983 2.677 12.451 -8.789 28.595 -254.984 -419.876 -2939.885 -0.915 5.270 -1.455 -0.01 0.66 -0.75 0.04
1 4.30 430 -0.043 -13.121 3.314 27.283 -5.005 19.806 -104.932 -449.857 -2789.982 -0.436 3.411 -2.079 -0.01 0.66 -0.75 0.04
1 4.31 431 -1.370 -10.913 2.021 37.415 7.874 9.338 -59.961 -254.984 -2819.963 0.839 1.218 -0.696 -0 0.66 -0.75 0.05
1 4.32 432 -2.083 -10.204 1.336 32.623 3.448 -0.397 -179.883 -329.935 -2714.881 1.541 0.517 0.044 -0 0.66 -0.75 0.05
1 4.33 433 -2.150 -9.735 1.322 22.369 -13.733 -8.911 -179.883 -329.935 -2714.881 1.603 0.055 0.104 -0 0.65 -0.76 0.05
1 4.34 434 -2.083 -9.362 1.686 15.472 -30.731 -12.390 -59.961 -494.978 -2759.852 1.544 -0.314 -0.228 -0 0.65 -0.76 0.05
1 4.35 435 -1.652 -8.663 2.255 15.686 -40.497 -11.017 -134.912 -599.909 -2789.982 1.126 -1.010 -0.770 -0.01 0.65 -0.76 0.05
1 4.36 436 -1.130 -7.992 2.380 26.642 -41.687 -21.027 -134.912 -599.909 -2789.982 0.624 -1.676 -0.859 -0.01 0.65 -0.76 0.05
1 4.37 437 -0.876 -7.628 2.538 36.865 -39.795 -23.224 -209.863 -494.978 -3014.986 0.407 -2.035 -0.973 -0.01 0.65 -0.76 0.05
1 4.38 438 -0.737 -6.953 2.945 45.227 -35.126 -21.759 -269.974 -509.968 -3029.976 0.358 -2.693 -1.257 -0.02 0.64 -0.76 0.05
1 4.39 439 -0.536 -6.575 3.022 41.840 -32.471 -19.440 -224.854 -629.890 -3059.957 0.198 -3.060 -1.264 -0.02 0.64 -0.77 0.05
1 4.40 440 -0.292 -6.359 3.213 33.936 -32.318 -16.022 -224.854 -629.890 -3059.957 -0.009 -3.266 -1.393 -0.02 0.64 -0.77 0.05
1 4.41 441 0.215 -6.201 3.338 23.163 -29.266 -11.231 -344.925 -584.919 -2909.904 -0.484 -3.415 -1.468 -0.03 0.64 -0.77 0.05
1 4.42 442 0.690 -6.096 3.443 10.132 -22.736 -8.453 -359.916 -569.929 -2939.885 -0.933 -3.515 -1.541 -0.03 0.63 -0.77 0.05
1 4.43 443 1.441 -6.354 3.256 -13.367 -7.172 -6.012 -359.916 -569.929 -2939.885 -1.665 -3.254 -1.343 -0.03 0.63 -0.77 0.05
1 4.44 444 1.829 -6.757 3.232 -32.379 0.366 -3.265 -509.968 -674.860 -3014.986 -2.040 -2.855 -1.330 -0.03 0.63 -0.77 0.05
1 4.45 445 2.064 -7.705 2.940 -55.054 5.676 -2.472 -509.968 -674.860 -3014.986 -2.266 -1.914 -1.077 -0.03 0.64 -0.77 0.05
1 4.46 446 2.284 -9.864 2.423 -85.541 4.272 0.641 -329.935 -719.981 -3014.986 -2.473 0.213 -0.731 -0.03 0.64 -0.76 0.05
1 4.47 447 2.509 -11.861 1.906 -93.262 2.106 4.089 -329.935 -719.981 -3014.986 -2.681 2.189 -0.337 -0.03 0.65 -0.76 0.05
1 4.48 448 2.136 -14.045 1.959 -77.271 0.244 3.021 -419.876 -584.919 -2984.855 -2.313 4.352 -0.523 -0.03 0.65 -0.76 0.05
1 4.49 449 1.360 -14.514 2.442 -37.842 -0.061 -3.845 -359.916 -569.929 -2939.885 -1.538 4.807 -1.108 -0.03 0.66 -0.75 0.05
1 4.50 450 0.000 -12.484 3.069 42.420 -4.700 -18.158 -359.916 -569.929 -2939.885 -0.168 2.772 -1.770 -0.03 0.66 -0.75 0.05
1 4.51 451 -0.474 -10.899 2.442 83.557 -9.491 -26.825 -464.997 -494.978 -2894.914 0.332 1.192 -1.098 -0.03 0.66 -0.75 0.05
1 4.52 452 -0.704 -9.773 1.858 101.471 -17.731 -24.048 -464.997 -494.978 -2894.914 0.603 0.083 -0.402 -0.04 0.65 -0.76 0.05
1 4.53 453 -0.278 -8.093 1.710 75.592 -28.168 -8.545 -464.997 -569.929 -2864.934 0.244 -1.550 0.041 -0.04 0.64 -0.77 0.05
1 4.54 454 0.378 -7.580 2.246 31.952 -26.550 -1.984 -464.997 -569.929 -2864.934 -0.393 -2.044 -0.397 -0.04 0.64 -0.77 0.05
1 4.55 455 1.001 -7.561 2.964 -16.724 -19.959 0.214 -419.876 -704.991 -2954.875 -1.005 -2.057 -1.085 -0.04 0.63 -0.77 0.05
1 4.56 456 1.188 -7.949 3.132 -53.833 -10.132 -4.639 -389.896 -569.929 -3149.898 -1.185 -1.677 -1.291 -0.04 0.64 -0.77 0.05
1 4.57 457 0.833 -9.199 2.409 -65.796 2.777 -16.022 -389.896 -569.929 -3149.898 -0.817 -0.443 -0.655 -0.04 0.64 -0.77 0.05
1 4.58 458 0.575 -9.898 1.767 -42.664 1.678 -21.271 -434.867 -599.909 -2969.865 -0.529 0.241 -0.101 -0.05 0.64 -0.76 0.05
1 4.59 459 0.431 -10.339 1.532 -8.392 -3.906 -23.010 -434.867 -599.909 -2969.865 -0.348 0.670 0.066 -0.05 0.65 -0.76 0.05
1 4.60 460 0.757 -9.941 1.748 27.618 -14.862 -23.377 -569.929 -539.948 -3029.976 -0.594 0.273 -0.153 -0.05 0.65 -0.76 0.05
1 4.61 461 0.881 -9.534 1.911 31.799 -16.785 -24.475 -569.929 -539.948 -3029.976 -0.675 -0.125 -0.270 -0.05 0.64 -0.76 0.05
1 4.62 462 1.025 -9.017 2.021 23.865 -15.686 -24.109 -584.919 -749.961 -2894.914 -0.773 -0.633 -0.332 -0.06 0.64 -0.76 0.05
1 4.63 463 1.130 -8.864 1.868 9.399 -11.841 -22.858 -524.958 -659.870 -3029.976 -0.832 -0.779 -0.145 -0.06 0.64 -0.77 0.05
1 4.64 464 1.255 -8.792 1.671 -3.662 -8.423 -21.454 -524.958 -659.870 -3029.976 -0.912 -0.847 0.064 -0.06 0.64 -0.77 0.04
1 4.65 465 1.312 -8.945 1.379 -10.193 -6.134 -19.135 -704.991 -509.968 -2909.904 -0.929 -0.694 0.350 -0.06 0.64 -0.77 0.04
1 4.66 466 1.537 -9.089 1.441 -6.775 -5.463 -18.677 -704.991 -509.968 -2909.904 -1.115 -0.551 0.275 -0.06 0.64 -0.77 0.04
1 4.67 467 1.595 -9.285 1.355 -0.885 -3.204 -17.365 -524.958 -659.870 -2954.875 -1.135 -0.355 0.349 -0.07 0.64 -0.77 0.04
1 4.68 468 1.465 -9.266 1.398 6.134 3.784 -13.031 -704.991 -704.991 -2984.855 -0.936 -0.370 0.307 -0.07 0.64 -0.77 0.04
1 4.69 469 1.384 -9.319 1.312 6.165 7.172 -10.773 -674.860 -539.948 -2804.973 -0.829 -0.314 0.403 -0.07 0.64 -0.77 0.04
1 4.70 470 1.384 -9.295 1.302 3.357 8.667 -10.315 -599.909 -629.890 -2804.973 -0.808 -0.335 0.421 -0.07 0.64 -0.77 0.04
1 4.71 471 1.317 -9.481 1.331 -0.488 7.263 -10.712 -599.909 -629.890 -2804.973 -0.720 -0.147 0.396 -0.07 0.64 -0.77 0.04
1 4.72 472 1.518 -9.587 1.312 -2.777 4.303 -11.444 -824.913 -659.870 -2909.904 -0.900 -0.041 0.412 -0.07 0.64 -0.77 0.04
1 4.73 473 1.609 -9.663 1.207 -0.916 4.425 -8.942 -824.913 -659.870 -2909.904 -0.967 0.037 0.512 -0.07 0.64 -0.77 0.03
1 4.74 474 1.537 -9.544 1.116 2.838 6.958 -4.669 -659.870 -719.981 -2894.914 -0.875 -0.082 0.599 -0.07 0.64 -0.77 0.03
1 4.75 475 1.207 -9.390 1.235 7.538 11.200 2.716 -599.909 -659.870 -2879.924 -0.523 -0.233 0.488 -0.07 0.64 -0.77 0.03
1 4.76 476 1.077 -9.223 1.154 7.446 12.116 5.005 -690.000 -674.860 -2894.914 -0.396 -0.398 0.580 -0.07 0.64 -0.77 0.03
1 4.77 477 0.800 -9.060 1.125 4.517 12.390 6.317 -629.890 -659.870 -2954.875 -0.125 -0.560 0.618 -0.07 0.64 -0.77 0.03
1 4.78 478 0.800 -9.074 1.197 -0.244 12.665 7.477 -629.890 -659.870 -2954.875 -0.135 -0.546 0.550 -0.07 0.64 -0.77 0.03
1 4.79 479 0.536 -9.204 1.259 -4.150 12.573 8.148 -824.913 -539.948 -2954.875 0.117 -0.418 0.485 -0.07 0.64 -0.77 0.03
1 4.80 480 0.709 -9.161 1.240 -5.676 10.193 9.399 -824.913 -539.948 -2954.875 -0.070 -0.463 0.498 -0.07 0.64 -0.77 0.03
1 4.81 481 0.742 -9.232 1.322 -4.456 10.284 10.254 -794.932 -674.860 -2969.865 -0.118 -0.393 0.408 -0.07 0.64 -0.77 0.03
1 4.82 482 0.781 -9.376 1.422 -1.892 12.848 11.139 -584.919 -644.880 -2894.914 -0.187 -0.254 0.296 -0.07 0.64 -0.77 0.03
1 4.83 483 0.924 -9.438 1.523 -2.747 15.198 10.803 -584.919 -749.961 -2939.885 -0.347 -0.193 0.194 -0.07 0.64 -0.77 0.03
1 4.84 484 1.130 -9.687 1.499 -5.371 17.700 9.918 -539.948 -674.860 -2939.885 -0.568 0.055 0.215 -0.07 0.64 -0.77 0.03
1 4.85 485 1.116 -9.663 1.513 -7.294 19.104 9.155 -539.948 -674.860 -2939.885 -0.567 0.029 0.194 -0.06 0.64 -0.77 0.03
1 4.86 486 1.216 -9.730 1.465 -7.568 19.898 7.660 -599.909 -704.991 -2804.973 -0.680 0.094 0.232 -0.06 0.64 -0.77 0.03
1 4.87 487 1.398 -9.874 1.336 -3.540 18.646 5.554 -599.909 -704.991 -2804.973 -0.872 0.235 0.352 -0.06 0.64 -0.76 0.03
1 4.88 488 1.743 -9.951 1.355 -0.336 18.433 4.456 -704.991 -629.890 -2954.875 -1.223 0.310 0.327 -0.06 0.64 -0.76 0.03
1 4.89 489 1.786 -9.951 1.288 1.678 18.280 2.197 -584.919 -719.981 -2819.963 -1.270 0.310 0.392 -0.06 0.64 -0.76 0.03
1 4.90 490 1.992 -10.090 1.192 0.977 18.402 -0.977 -524.958 -659.870 -2984.855 -1.468 0.450 0.492 -0.06 0.64 -0.76 0.03
1 4.91 491 2.423 -10.113 0.881 -2.014 19.562 -1.953 -569.929 -629.890 -2984.855 -1.890 0.474 0.803 -0.06 0.64 -0.76 0.03
1 4.92 492 2.366 -10.286 0.718 -3.601 21.607 -1.160 -569.929 -629.890 -2984.855 -1.820 0.646 0.960 -0.06 0.64 -0.76 0.03
1 4.93 493 2.437 -10.300 0.694 -5.310 24.109 -0.885 -494.978 -659.870 -2954.875 -1.882 0.659 0.974 -0.06 0.64 -0.76 0.02
1 4.94 494 2.236 -10.271 0.594 -6.561 26.886 0.885 -494.978 -659.870 -2954.875 -1.671 0.629 1.063 -0.06 0.64 -0.76 0.02
1 4.95 495 1.824 -10.358 1.662 -11.566 24.536 0.427 -464.997 -674.860 -2789.982 -1.253 0.713 -0.020 -0.06 0.64 -0.76 0.02
1 4.96 496 1.595 -10.870 1.973 -12.665 26.581 -4.211 -509.968 -644.880 -2714.881 -1.017 1.223 -0.349 -0.06 0.64 -0.76 0.02
1 4.97 497 -0.010 -12.216 2.974 -44.922 24.628 -32.105 -494.978 -809.922 -2909.904 0.609 2.563 -1.393 -0.05 0.65 -0.76 0.02
1 4.98 498 -0.642 -13.537 2.179 -61.493 10.101 -52.124 -464.997 -644.880 -2819.963 1.293 3.876 -0.672 -0.05 0.65 -0.76 0.01
1 4.99 499 -1.168 -14.567 1.235 -38.452 -8.087 -62.103 -464.997 -644.880 -2819.963 1.902 4.899 0.189 -0.06 0.65 -0.76 0.01
1 5.00 500 -1.192 -14.754 1.523 -7.965 -22.980 -54.138 -509.968 -674.860 -2894.914 2.021 5.087 -0.143 -0.06 0.65 -0.76 0.01
1 5.01 501 -0.852 -13.872 2.050 16.937 -29.633 -35.553 -509.968 -674.860 -2894.914 1.762 4.212 -0.674 -0.07 0.65 -0.76 0
1 5.02 502 0.407 -11.770 2.006 37.964 -23.529 -13.001 -524.958 -629.890 -2849.943 0.556 2.120 -0.601 -0.07 0.65 -0.76 0
1 5.03 503 0.963 -10.655 1.877 34.851 -19.684 -5.310 -389.896 -599.909 -2969.865 0.031 1.014 -0.421 -0.07 0.65 -0.76 0.01
1 5.04 504 1.322 -9.592 1.959 20.996 -13.611 11.139 -690.000 -644.880 -2894.914 -0.309 -0.032 -0.407 -0.07 0.64 -0.76 0.01
1 5.05 505 1.164 -9.228 2.552 11.322 -6.531 24.658 -704.991 -464.997 -2849.943 -0.166 -0.393 -0.972 -0.07 0.64 -0.76 0.01
1 5.06 506 0.963 -8.677 2.868 1.923 1.648 35.980 -704.991 -464.997 -2849.943 -0.001 -0.944 -1.268 -0.07 0.64 -0.76 0.01
1 5.07 507 0.785 -8.624 3.376 -3.204 7.538 40.039 -690.000 -644.880 -2714.881 0.122 -0.999 -1.762 -0.07 0.64 -0.76 0.01
1 5.08 508 0.876 -8.844 3.275 -1.038 6.958 37.659 -690.000 -644.880 -2714.881 -0.029 -0.783 -1.650 -0.07 0.64 -0.76 0.02
1 5.09 509 1.125 -8.686 2.969 19.867 0.519 29.358 -629.890 -659.870 -2804.973 -0.332 -0.942 -1.326 -0.07 0.64 -0.76 0.02
1 5.10 510 1.542 -8.361 3.017 36.530 0.824 23.590 -690.000 -524.958 -2759.852 -0.792 -1.265 -1.338 -0.07 0.64 -0.77 0.02
1 5.11 511 1.791 -8.002 3.223 47.333 3.784 21.118 -690.000 -524.958 -2759.852 -1.072 -1.616 -1.483 -0.07 0.64 -0.77 0.02
1 5.12 512 1.638 -7.317 3.577 46.204 11.841 18.524 -704.991 -734.971 -2909.904 -0.974 -2.275 -1.681 -0.06 0.63 -0.77 0.02
1 5.13 513 1.202 -6.848 3.673 32.318 17.242 14.893 -704.991 -734.971 -2909.904 -0.567 -2.733 -1.710 -0.06 0.63 -0.77 0.03
1 5.14 514 0.646 -6.704 3.563 11.017 18.311 9.766 -674.860 -779.942 -2954.875 -0.036 -2.869 -1.557 -0.06 0.63 -0.78 0.03
1 5.15 515 0.187 -6.809 3.357 -13.825 15.442 3.510 -674.860 -779.942 -2954.875 0.407 -2.762 -1.340 -0.06 0.63 -0.78 0.03
1 5.16 516 -0.302 -7.997 3.108 -51.422 9.216 -7.965 -464.997 -839.903 -3014.986 0.890 -1.581 -1.118 -0.06 0.63 -0.78 0.03
1 5.17 517 -0.302 -9.477 2.840 -75.714 8.637 -15.839 -569.929 -809.922 -2954.875 0.897 -0.114 -0.913 -0.06 0.63 -0.77 0.02
1 5.18 518 -0.196 -10.951 2.672 -84.870 12.573 -20.416 -569.929 -809.922 -2954.875 0.807 1.343 -0.842 -0.06 0.63 -0.77 0.02
1 5.19 519 -0.120 -12.910 2.571 -48.798 8.392 -7.874 -449.857 -704.991 -2879.924 0.774 3.265 -0.962 -0.06 0.64 -0.76 0.02
1 5.20 520 -0.316 -12.699 2.701 -3.998 -1.740 9.003 -449.857 -704.991 -2879.924 0.975 3.046 -1.145 -0.06 0.65 -0.76 0.02
1 5.21 521 -0.158 -11.904 2.955 37.537 -10.925 24.323 -659.870 -674.860 -2714.881 0.800 2.252 -1.387 -0.06 0.65 -0.76 0.02
1 5.22 522 -0.096 -10.286 2.639 64.942 -12.024 34.088 -659.870 -674.860 -2714.881 0.702 0.642 -1.003 -0.06 0.64 -0.76 0.02
1 5.23 523 -0.407 -8.921 2.433 69.672 -8.484 38.544 -434.867 -749.961 -2684.901 0.962 -0.707 -0.693 -0.06 0.64 -0.77 0.03
1 5.24 524 -0.804 -7.686 2.346 40.863 -2.777 40.497 -524.958 -659.870 -2879.924 1.299 -1.926 -0.501 -0.06 0.63 -0.77 0.03
1 5.25 525 -0.824 -7.350 2.624 6.805 -0.977 37.995 -524.958 -659.870 -2879.924 1.261 -2.250 -0.707 -0.06 0.63 -0.77 0.03
1 5.26 526 -0.536 -7.738 2.753 -40.314 0.610 37.262 -614.899 -749.961 -2819.963 0.865 -1.867 -0.839 -0.05 0.63 -0.77 0.04
1 5.27 527 -0.316 -8.476 2.691 -54.901 2.563 38.300 -614.899 -749.961 -2819.963 0.590 -1.144 -0.842 -0.05 0.63 -0.77 0.04
1 5.28 528 -0.134 -9.204 2.528 -49.713 5.554 38.666 -524.958 -629.890 -2849.943 0.350 -0.432 -0.754 -0.05 0.64 -0.77 0.04
1 5.29 529 -0.053 -9.572 2.265 -30.243 6.744 38.239 -524.958 -629.890 -2849.943 0.208 -0.075 -0.549 -0.05 0.64 -0.77 0.04
1 5.30 530 0.019 -9.884 1.978 -5.981 7.629 37.720 -524.958 -629.890 -2909.904 0.077 0.230 -0.291 -0.04 0.64 -0.76 0.05
1 5.31 531 -0.206 -9.601 2.117 16.998 5.798 34.638 -419.876 -704.991 -2774.992 0.245 -0.052 -0.427 -0.04 0.64 -0.76 0.05
1 5.32 532 -0.129 -9.055 2.083 17.792 5.310 29.938 -419.876 -704.991 -2774.992 0.115 -0.593 -0.367 -0.04 0.64 -0.76 0.05
1 5.33 533 -0.239 -8.878 2.136 10.529 5.371 25.086 -419.876 -809.922 -2879.924 0.177 -0.765 -0.388 -0.04 0.64 -0.77 0.05
1 5.34 534 -0.172 -8.557 1.959 -4.913 8.606 20.294 -284.964 -749.961 -2819.963 0.037 -1.079 -0.179 -0.04 0.64 -0.77 0.05
1 5.35 535 -0.254 -8.792 1.772 -10.803 9.552 17.700 -299.955 -704.991 -2774.992 0.088 -0.845 0.001 -0.03 0.64 -0.77 0.05
1 5.36 536 -0.321 -8.964 1.628 -13.214 9.888 17.090 -299.955 -704.991 -2774.992 0.127 -0.675 0.131 -0.03 0.64 -0.77 0.05
1 5.37 537 -0.297 -8.955 1.255 -10.284 7.813 16.449 -299.955 -809.922 -2879.924 0.076 -0.687 0.487 -0.03 0.64 -0.77 0.05
1 5.38 538 -0.326 -9.242 1.279 -6.500 4.761 13.916 -134.912 -644.880 -2894.914 0.080 -0.402 0.448 -0.03 0.64 -0.76 0.05
1 5.39 539 -0.393 -9.170 1.274 -6.195 5.127 11.719 -134.912 -644.880 -2894.914 0.125 -0.475 0.441 -0.03 0.64 -0.76 0.06
1 5.40 540 -0.244 -9.103 1.255 -8.026 6.348 9.644 -224.854 -704.991 -2774.992 -0.043 -0.543 0.449 -0.03 0.64 -0.76 0.06
1 5.41 541 -0.302 -9.218 1.140 -12.085 9.735 5.524 -254.984 -599.909 -2939.885 -0.012 -0.433 0.535 -0.03 0.64 -0.76 0.06
1 5.42 542 -0.330 -9.295 1.140 -14.008 11.078 4.395 -209.863 -749.961 -2864.934 0.008 -0.360 0.514 -0.02 0.64 -0.76 0.05
1 5.43 543 -0.445 -9.347 0.929 -13.001 11.322 2.869 -209.863 -749.961 -2864.934 0.115 -0.310 0.702 -0.02 0.65 -0.76 0.05
1 5.44 544 -0.469 -9.328 0.843 -11.353 11.658 2.808 -329.935 -794.932 -2789.982 0.132 -0.333 0.766 -0.02 0.65 -0.76 0.05
1 5.45 545 -0.412 -9.079 0.852 -8.270 9.705 -0.183 -179.883 -674.860 -2789.982 0.069 -0.585 0.737 -0.02 0.65 -0.76 0.05
1 5.46 546 -0.350 -8.821 0.857 -5.219 6.256 -4.700 -179.883 -674.860 -2789.982 0.006 -0.846 0.718 -0.02 0.65 -0.76 0.05
1 5.47 547 -0.484 -8.859 0.828 -7.111 3.204 -7.874 -194.873 -704.991 -2804.973 0.145 -0.810 0.735 -0.02 0.65 -0.76 0.05
1 5.48 548 -0.785 -8.715 0.819 -13.214 -1.068 -11.139 -299.955 -659.870 -2849.943 0.472 -0.958 0.719 -0.02 0.65 -0.76 0.05
1 5.49 549 -0.919 -9.012 0.872 -17.731 -3.906 -12.756 -209.863 -749.961 -2789.982 0.624 -0.665 0.644 -0.02 0.65 -0.76 0.05
1 5.50 550 -0.929 -9.055 0.690 -20.783 -6.928 -13.123 -209.863 -749.961 -2789.982 0.651 -0.627 0.797 -0.02 0.65 -0.76 0.05
1 5.51 551 -1.159 -9.228 0.891 -21.790 -10.071 -13.733 -254.984 -839.903 -2759.852 0.898 -0.461 0.561 -0.02 0.65 -0.76 0.05
1 5.52 552 -1.403 -9.515 0.828 -21.637 -11.993 -14.221 -104.932 -524.958 -2684.901 1.160 -0.179 0.589 -0.02 0.65 -0.76 0.05
1 5.53 553 -1.499 -9.893 0.848 -18.341 -11.108 -14.282 -104.932 -524.958 -2684.901 1.273 0.194 0.537 -0.03 0.65 -0.75 0.05
1 5.54 554 -1.772 -9.984 0.919 -17.578 -9.705 -13.825 -254.984 -749.961 -2684.901 1.561 0.281 0.435 -0.03 0.66 -0.75 0.05
1 5.55 555 -1.963 -10.104 1.006 -16.968 -9.460 -12.848 -344.925 -539.948 -2729.872 1.766 0.396 0.321 -0.03 0.66 -0.75 0.05
1 5.56 556 -2.097 -10.090 0.642 -15.320 -13.458 -14.008 -254.984 -839.903 -2639.930 1.922 0.374 0.633 -0.03 0.66 -0.75 0.05
1 5.57 557 -2.026 -10.176 0.589 -13.214 -18.219 -14.313 -254.984 -839.903 -2639.930 1.861 0.457 0.660 -0.03 0.66 -0.75 0.05
1 5.58 558 -1.700 -10.109 0.469 -10.193 -21.484 -15.686 -329.935 -674.860 -2714.881 1.547 0.387 0.758 -0.03 0.66 -0.75 0.05
1 5.59 559 -1.532 -10.142 0.374 -7.416 -23.316 -15.289 -434.867 -569.929 -2564.979 1.396 0.418 0.836 -0.03 0.66 -0.75 0.05
1 5.60 560 -1.087 -10.224 0.168 -9.369 -24.475 -15.595 -434.867 -569.929 -2564.979 0.968 0.497 1.026 -0.04 0.66 -0.75 0.05
1 5.61 561 -0.895 -10.252 0.177 -13.702 -24.414 -15.961 -209.863 -599.909 -2684.901 0.797 0.524 0.999 -0.04 0.66 -0.75 0.05
1 5.62 562 -0.737 -10.362 -0.024 -17.883 -24.384 -14.893 -374.906 -434.867 -2699.891 0.661 0.631 1.175 -0.04 0.66 -0.75 0.05
1 5.63 563 -0.651 -10.793 -0.378 -22.095 -27.191 -13.733 -464.997 -494.978 -2534.999 0.620 1.053 1.459 -0.04 0.67 -0.74 0.05
1 5.64 564 -0.752 -10.827 -0.278 -20.386 -31.677 -12.695 -464.997 -494.978 -2534.999 0.744 1.083 1.323 -0.05 0.67 -0.74 0.05
1 5.65 565 -0.675 -11.009 0.862 -18.341 -33.844 -12.451 -464.997 -719.981 -2639.930 0.693 1.262 0.155 -0.05 0.67 -0.74 0.05
1 5.66 566 -0.359 -11.794 1.542 -10.284 -31.098 -9.216 -389.896 -599.909 -2684.901 0.401 2.045 -0.549 -0.05 0.67 -0.74 0.05
1 5.67 567 0.110 -13.384 2.351 -3.448 -28.351 8.179 -389.896 -599.909 -2684.901 -0.054 3.634 -1.367 -0.05 0.67 -0.74 0.05
1 5.68 568 0.656 -15.841 2.777 -37.811 -21.362 45.502 -614.899 -524.958 -2564.979 -0.616 6.089 -1.803 -0.05 0.67 -0.74 0.06
1 5.69 569 0.599 -15.510 2.030 -29.907 -7.904 58.197 -659.870 -599.909 -2609.950 -0.614 5.754 -1.103 -0.05 0.67 -0.74 0.06
1 5.70 570 0.680 -13.398 1.705 1.831 -9.674 44.647 -509.968 -599.909 -2684.901 -0.856 3.638 -0.843 -0.05 0.67 -0.73 0.07
1 5.71 571 1.020 -12.278 2.035 4.120 -13.245 29.938 -509.968 -599.909 -2684.901 -1.254 2.519 -1.166 -0.05 0.67 -0.73 0.07
1 5.72 572 0.939 -11.258 2.083 -0.916 -5.920 20.783 -494.978 -509.968 -2594.959 -1.211 1.501 -1.208 -0.05 0.67 -0.73 0.07
1 5.73 573 0.747 -10.770 1.997 -8.026 7.141 16.296 -419.876 -464.997 -2519.858 -1.047 1.013 -1.124 -0.05 0.67 -0.73 0.07
1 5.74 574 0.192 -10.248 1.748 -9.308 14.771 10.651 -419.876 -464.997 -2519.858 -0.514 0.491 -0.887 -0.05 0.67 -0.73 0.07
1 5.75 575 -0.484 -9.601 1.714 -0.458 4.700 1.373 -494.978 -359.916 -2444.907 0.152 -0.156 -0.859 -0.04 0.67 -0.73 0.07
1 5.76 576 -0.685 -9.328 2.054 8.240 -10.223 -5.463 -374.906 -584.919 -2594.959 0.350 -0.428 -1.196 -0.04 0.67 -0.73 0.07
1 5.77 577 -0.757 -8.974 2.208 20.630 -23.316 -9.949 -374.906 -584.919 -2594.959 0.428 -0.781 -1.331 -0.04 0.67 -0.73 0.07
1 5.78 578 -0.690 -8.270 2.777 42.877 -36.377 -15.503 -344.925 -509.968 -2444.907 0.398 -1.477 -1.802 -0.05 0.67 -0.74 0.07
1 5.79 579 -0.857 -7.757 2.902 54.108 -41.565 -16.632 -449.857 -509.968 -2474.888 0.597 -1.983 -1.853 -0.05 0.67 -0.74 0.08
1 5.80 580 -0.848 -7.279 3.227 58.777 -41.229 -16.602 -434.867 -419.876 -2609.950 0.620 -2.453 -2.092 -0.05 0.66 -0.74 0.08
1 5.81 581 -0.905 -7.058 3.424 55.237 -37.720 -13.153 -434.867 -419.876 -2609.950 0.710 -2.663 -2.198 -0.06 0.66 -0.75 0.08
1 5.82 582 -1.020 -6.805 3.357 37.354 -32.990 -3.510 -659.870 -599.909 -2609.950 0.851 -2.906 -2.050 -0.06 0.66 -0.75 0.08
1 5.83 583 -1.001 -6.766 3.381 20.813 -27.649 1.740 -584.919 -524.958 -2819.963 0.847 -2.936 -2.010 -0.06 0.65 -0.75 0.08
1 5.84 584 -0.747 -6.977 3.247 -7.111 -10.925 3.876 -524.958 -629.890 -2624.940 0.600 -2.718 -1.824 -0.06 0.65 -0.75 0.08
1 5.85 585 -0.694 -7.259 3.280 -17.609 -4.089 3.906 -524.958 -629.890 -2624.940 0.544 -2.438 -1.874 -0.06 0.65 -0.75 0.08
1 5.86 586 -0.613 -8.476 2.658 -51.117 14.252 -1.404 -629.890 -629.890 -2879.924 0.460 -1.229 -1.301 -0.06 0.65 -0.75 0.08
1 5.87 587 -0.397 -9.716 2.088 -66.498 19.257 -8.789 -704.991 -734.971 -2624.940 0.246 0.001 -0.807 -0.06 0.66 -0.75 0.08
1 5.88 588 -0.148 -11.411 1.628 -64.911 15.472 -15.686 -704.991 -734.971 -2624.940 0.008 1.685 -0.439 -0.06 0.66 -0.74 0.08
1 5.89 589 0.187 -12.967 1.671 -45.258 4.425 -20.050 -704.991 -539.948 -2804.973 -0.303 3.230 -0.570 -0.06 0.66 -0.74 0.08
1 5.90 590 0.996 -13.446 2.562 -1.801 -16.022 -19.226 -690.000 -719.981 -2714.881 -1.081 3.702 -1.518 -0.06 0.67 -0.74 0.08
1 5.91 591 1.614 -12.244 2.835 33.630 -22.003 -17.273 -690.000 -719.981 -2714.881 -1.666 2.499 -1.804 -0.07 0.67 -0.74 0.08
1 5.92 592 2.318 -10.214 2.184 74.188 -18.738 -18.677 -674.860 -509.968 -2699.891 -2.307 0.482 -1.028 -0.07 0.66 -0.74 0.08
1 5.93 593 2.485 -9.242 1.848 83.924 -16.235 -18.250 -674.860 -464.997 -2594.959 -2.433 -0.474 -0.572 -0.07 0.66 -0.75 0.08
1 5.94 594 2.466 -8.548 1.777 69.855 -13.153 -15.137 -629.890 -464.997 -2729.872 -2.365 -1.151 -0.372 -0.07 0.65 -0.75 0.08
1 5.95 595 2.184 -8.222 2.011 35.675 -9.369 -12.238 -629.890 -464.997 -2729.872 -2.039 -1.461 -0.510 -0.08 0.65 -0.76 0.08
1 5.96 596 1.537 -8.361 2.653 -20.722 -6.134 -12.299 -749.961 -704.991 -2669.911 -1.372 -1.316 -1.112 -0.08 0.64 -0.76 0.08
1 5.97 597 1.058 -9.026 2.615 -43.732 -3.601 -18.158 -659.870 -599.909 -2759.852 -0.873 -0.653 -1.091 -0.08 0.65 -0.76 0.08
1 5.98 598 0.795 -9.821 2.160 -42.389 -2.716 -25.604 -659.870 -599.909 -2759.852 -0.574 0.136 -0.683 -0.08 0.65 -0.75 0.08
1 5.99 599 0.436 -10.477 1.801 -17.700 -4.791 -29.938 -629.890 -884.874 -2729.872 -0.172 0.785 -0.380 -0.08 0.65 -0.75 0.07
1 6.00 600 0.517 -10.406 1.638 36.499 -11.078 -29.816 -734.971 -674.860 -2789.982 -0.156 0.714 -0.232 -0.09 0.65 -0.75 0.07
1 6.01 601 0.488 -9.706 1.772 61.951 -14.435 -28.320 -764.952 -524.958 -2639.930 -0.079 0.026 -0.299 -0.09 0.65 -0.76 0.07
1 6.02 602 0.766 -9.003 2.016 70.252 -13.611 -27.435 -764.952 -524.958 -2639.930 -0.310 -0.660 -0.444 -0.09 0.64 -0.76 0.07
1 6.03 603 0.900 -8.332 2.045 61.432 -9.430 -27.496 -944.984 -569.929 -2609.950 -0.397 -1.310 -0.367 -0.09 0.64 -0.76 0.07
1 6.04 604 1.006 -7.781 1.868 27.710 -1.556 -27.008 -794.932 -644.880 -2609.950 -0.457 -1.843 -0.103 -0.09 0.63 -0.77 0.07
1 6.05 605 1.144 -7.987 1.671 3.754 1.617 -26.184 -794.932 -644.880 -2609.950 -0.554 -1.625 0.144 -0.09 0.63 -0.77 0.07
1 6.06 606 1.470 -8.461 1.700 -12.909 3.632 -25.330 -989.955 -719.981 -2789.982 -0.839 -1.145 0.131 -0.1 0.63 -0.77 0.07
1 6.07 607 1.714 -9.194 1.657 -16.815 4.303 -23.712 -854.893 -734.971 -2804.973 -1.006 -0.414 0.138 -0.1 0.63 -0.77 0.06
1 6.08 608 1.887 -9.797 1.379 -6.287 5.981 -21.820 -749.961 -734.971 -2804.973 -1.136 0.189 0.396 -0.1 0.63 -0.77 0.06
1 6.09 609 1.997 -9.893 1.465 7.904 8.484 -19.714 -749.961 -734.971 -2804.973 -1.207 0.287 0.305 -0.1 0.63 -0.77 0.06
1 6.10 610 1.997 -9.812 1.585 19.501 10.925 -14.526 -899.864 -704.991 -2669.911 -1.172 0.212 0.202 -0.1 0.63 -0.77 0.06
1 6.11 611 2.150 -9.563 1.532 25.757 13.428 -9.796 -974.965 -629.890 -2849.943 -1.299 -0.029 0.288 -0.1 0.63 -0.77 0.06
1 6.12 612 1.968 -9.003 1.465 24.963 14.099 -3.815 -974.965 -629.890 -2849.943 -1.097 -0.580 0.395 -0.1 0.63 -0.77 0.06
1 6.13 613 1.877 -8.595 1.393 19.592 14.404 0.488 -914.854 -599.909 -2714.881 -0.993 -0.978 0.506 -0.1 0.63 -0.77 0.05
1 6.14 614 1.652 -8.327 1.413 8.148 16.510 6.958 -869.883 -794.932 -2819.963 -0.767 -1.235 0.542 -0.1 0.62 -0.77 0.05
1 6.15 615 1.384 -8.356 1.384 0.397 17.578 10.132 -974.965 -779.942 -2729.872 -0.514 -1.205 0.584 -0.1 0.62 -0.77 0.05
1 6.16 616 1.178 -8.528 1.465 -5.768 17.944 12.360 -974.965 -779.942 -2729.872 -0.329 -1.034 0.504 -0.1 0.62 -0.77 0.05
1 6.17 617 0.848 -8.768 1.346 -9.918 17.548 11.963 -869.883 -839.903 -2714.881 -0.021 -0.798 0.617 -0.1 0.62 -0.77 0.05
1 6.18 618 0.761 -9.146 1.370 -10.315 15.930 11.566 -914.854 -794.932 -2894.914 0.044 -0.424 0.580 -0.1 0.63 -0.77 0.05
1 6.19 619 0.584 -9.400 1.499 -5.432 14.191 11.993 -914.854 -794.932 -2894.914 0.202 -0.175 0.436 -0.1 0.63 -0.77 0.05
1 6.20 620 0.546 -9.563 1.623 -2.716 13.062 11.414 -944.984 -794.932 -2714.881 0.219 -0.015 0.303 -0.09 0.63 -0.77 0.05
1 6.21 621 0.723 -9.745 1.556 -0.305 12.726 11.017 -944.984 -794.932 -2714.881 0.021 0.164 0.366 -0.09 0.63 -0.77 0.05
1 6.22 622 0.718 -9.721 1.494 1.831 11.353 11.871 -839.903 -839.903 -2714.881 -0.013 0.137 0.430 -0.09 0.63 -0.77 0.06
1 6.23 623 0.862 -9.773 1.528 3.571 10.101 13.641 -839.903 -839.903 -2714.881 -0.177 0.189 0.399 -0.09 0.63 -0.77 0.06
1 6.24 624 0.867 -9.553 1.331 4.669 9.522 15.106 -794.932 -674.860 -2759.852 -0.203 -0.032 0.600 -0.09 0.63 -0.77 0.06
1 6.25 625 0.972 -9.481 1.341 5.585 9.033 16.419 -779.942 -659.870 -2849.943 -0.331 -0.104 0.596 -0.09 0.63 -0.77 0.06
1 6.26 626 1.073 -9.410 1.202 5.096 13.062 15.472 -779.942 -659.870 -2849.943 -0.454 -0.176 0.741 -0.09 0.63 -0.77 0.06
1 6.27 627 1.082 -9.084 1.111 3.510 17.151 15.900 -764.952 -749.961 -2864.934 -0.485 -0.502 0.839 -0.09 0.63 -0.77 0.06
1 6.28 628 1.183 -8.777 0.915 -3.265 23.499 16.144 -794.932 -644.880 -2819.963 -0.633 -0.810 1.038 -0.08 0.63 -0.77 0.06
1 6.29 629 1.341 -8.873 0.862 -6.928 25.665 16.266 -734.971 -644.880 -2864.934 -0.816 -0.718 1.080 -0.08 0.63 -0.77 0.06
1 6.30 630 1.523 -8.988 0.603 -17.609 33.417 14.252 -734.971 -644.880 -2864.934 -1.020 -0.609 1.317 -0.08 0.63 -0.77 0.06
1 6.31 631 1.542 -9.094 1.168 -25.604 36.621 10.803 -704.991 -629.890 -2849.943 -1.061 -0.511 0.719 -0.08 0.63 -0.77 0.06
1 6.32 632 1.432 -9.472 2.562 -39.124 29.541 5.676 -629.890 -734.971 -2804.973 -0.965 -0.142 -0.719 -0.08 0.63 -0.77 0.05
1 6.33 633 1.647 -10.430 3.429 -45.380 27.588 -7.294 -629.890 -734.971 -2804.973 -1.184 0.806 -1.639 -0.07 0.63 -0.77 0.05
1 6.34 634 0.781 -13.667 3.524 -70.893 29.297 -47.699 -584.919 -749.961 -2759.852 -0.300 4.032 -1.798 -0.07 0.64 -0.77 0.05
1 6.35 635 0.388 -15.932 2.016 -56.854 30.548 -73.761 -584.919 -749.961 -2759.852 0.146 6.283 -0.383 -0.07 0.64 -0.76 0.05
1 6.36 636 -0.460 -16.861 1.700 -7.324 -2.960 -65.918 -704.991 -659.870 -2849.943 1.201 7.205 -0.198 -0.08 0.65 -0.76 0.03
1 6.37 637 -0.484 -15.060 2.653 20.172 -22.278 -31.891 -704.991 -659.870 -2849.943 1.315 5.412 -1.151 -0.08 0.65 -0.76 0.03
1 6.38 638 -0.029 -12.867 3.328 40.711 -26.062 -2.808 -599.909 -854.893 -2729.872 0.902 3.228 -1.789 -0.09 0.64 -0.76 0.03
1 6.39 639 0.560 -11.220 3.371 46.173 -20.386 6.592 -674.860 -659.870 -2669.911 0.320 1.591 -1.770 -0.09 0.64 -0.76 0.03
1 6.40 640 0.929 -10.104 3.132 39.581 -13.519 5.646 -674.860 -659.870 -2669.911 -0.053 0.486 -1.465 -0.09 0.64 -0.76 0.04
1 6.41 641 1.370 -9.252 3.170 21.057 -6.989 13.672 -629.890 -704.991 -2729.872 -0.498 -0.356 -1.445 -0.09 0.64 -0.77 0.04
1 6.42 642 1.216 -8.974 3.290 8.942 1.740 25.086 -629.890 -704.991 -2729.872 -0.357 -0.626 -1.519 -0.09 0.63 -0.77 0.04
1 6.43 643 1.379 -8.572 3.194 -1.434 12.665 37.293 -869.883 -719.981 -2894.914 -0.591 -1.026 -1.376 -0.09 0.63 -0.77 0.04
1 6.44 644 1.274 -8.299 2.950 3.693 16.144 39.673 -869.883 -719.981 -2894.914 -0.540 -1.301 -1.118 -0.08 0.63 -0.77 0.04
1 6.45 645 1.393 -7.887 2.902 16.174 17.181 35.736 -674.860 -734.971 -2849.943 -0.716 -1.712 -1.047 -0.08 0.63 -0.77 0.04
1 6.46 646 1.302 -7.647 2.950 27.710 16.052 29.938 -659.870 -674.860 -2819.963 -0.680 -1.949 -1.064 -0.08 0.63 -0.77 0.05
1 6.47 647 1.178 -7.355 3.213 32.990 13.825 23.529 -659.870 -674.860 -2819.963 -0.600 -2.235 -1.280 -0.08 0.63 -0.77 0.05
1 6.48 648 0.757 -6.939 3.271 23.102 9.766 15.045 -764.952 -674.860 -2684.901 -0.215 -2.643 -1.287 -0.07 0.63 -0.77 0.05
1 6.49 649 0.163 -6.910 3.256 3.082 9.033 10.437 -764.952 -674.860 -2684.901 0.354 -2.665 -1.232 -0.07 0.63 -0.78 0.05
1 6.50 650 -0.551 -7.188 3.204 -26.428 10.193 9.308 -569.929 -704.991 -2774.992 1.049 -2.385 -1.165 -0.07 0.63 -0.78 0.05
1 6.51 651 -1.360 -8.481 2.974 -71.411 10.925 9.338 -704.991 -779.942 -2849.943 1.826 -1.114 -1.032 -0.07 0.63 -0.77 0.05
1 6.52 652 -1.633 -9.783 2.883 -86.457 12.756 7.904 -539.948 -719.981 -2684.901 2.077 0.167 -1.047 -0.07 0.63 -0.77 0.05
1 6.53 653 -1.920 -11.229 2.696 -82.794 12.116 6.226 -584.919 -644.880 -2759.852 2.336 1.590 -0.977 -0.07 0.64 -0.77 0.05
1 6.54 654 -1.935 -12.307 2.528 -61.524 5.798 8.057 -584.919 -644.880 -2759.852 2.339 2.647 -0.924 -0.07 0.64 -0.76 0.05
1 6.55 655 -1.705 -12.192 2.844 -2.350 -14.343 22.125 -539.948 -674.860 -2639.930 2.095 2.519 -1.317 -0.07 0.65 -0.76 0.05
1 6.56 656 -1.446 -11.028 2.691 37.201 -21.454 30.365 -539.948 -674.860 -2639.930 1.811 1.352 -1.182 -0.07 0.65 -0.76 0.05
1 6.57 657 -1.202 -9.673 2.485 61.737 -23.163 37.476 -599.909 -509.968 -2849.943 1.531 0.002 -0.934 -0.07 0.65 -0.76 0.05
1 6.58 658 -1.144 -7.983 2.437 56.458 -17.304 41.321 -659.870 -569.929 -2684.901 1.363 -1.659 -0.698 -0.07 0.64 -0.76 0.06
1 6.59 659 -1.092 -7.384 2.605 30.792 -15.106 39.642 -464.997 -719.981 -2639.930 1.250 -2.244 -0.786 -0.06 0.63 -0.77 0.06
1 6.60 660 -0.891 -7.231 2.902 -5.798 -14.435 33.936 -614.899 -749.961 -2789.982 0.998 -2.392 -1.049 -0.06 0.63 -0.77 0.07
1 6.61 661 -0.479 -7.743 3.002 -39.429 -13.733 29.053 -614.899 -749.961 -2789.982 0.543 -1.884 -1.170 -0.06 0.63 -0.77 0.07
1 6.62 662 -0.196 -8.562 2.854 -58.106 -12.604 25.452 -464.997 -599.909 -2864.934 0.224 -1.077 -1.087 -0.06 0.64 -0.76 0.07
1 6.63 663 0.053 -9.663 2.409 -44.861 -10.712 21.973 -464.997 -599.909 -2864.934 -0.058 0.010 -0.722 -0.06 0.64 -0.76 0.07
1 6.64 664 0.101 -10.066 2.121 -18.616 -9.674 21.820 -524.958 -629.890 -2624.940 -0.135 0.401 -0.500 -0.06 0.64 -0.76 0.08
1 6.65 665 -0.081 -9.773 2.059 15.167 -9.674 23.010 -539.948 -644.880 -2609.950 -0.008 0.105 -0.463 -0.06 0.64 -0.76 0.08
1 6.66 666 -0.067 -9.405 2.054 21.240 -9.674 22.705 -509.968 -644.880 -2684.901 -0.052 -0.258 -0.427 -0.06 0.64 -0.76 0.08
1 6.67 667 -0.115 -8.610 2.131 18.066 -10.101 18.799 -389.896 -449.857 -2819.963 -0.031 -1.046 -0.464 -0.06 0.64 -0.76 0.08
1 6.68 668 -0.172 -8.366 2.112 5.859 -8.575 13.977 -389.896 -449.857 -2819.963 0.004 -1.285 -0.415 -0.06 0.64 -0.76 0.08
1 6.69 669 -0.278 -8.265 2.011 -7.568 -4.852 12.085 -464.997 -644.880 -2714.881 0.093 -1.384 -0.309 -0.06 0.64 -0.76 0.08
1 6.70 670 -0.560 -8.758 1.915 -22.003 -0.641 10.284 -464.997 -644.880 -2714.881 0.360 -0.893 -0.228 -0.06 0.64 -0.76 0.08
1 6.71 671 -0.709 -9.117 1.700 -23.529 -1.038 10.345 -494.978 -584.919 -2729.872 0.494 -0.538 -0.038 -0.06 0.64 -0.76 0.09
1 6.72 672 -0.963 -9.635 1.408 -17.090 -4.364 10.498 -464.997 -644.880 -2609.950 0.715 -0.030 0.195 -0.06 0.64 -0.76 0.09
1 6.73 673 -0.915 -9.735 1.398 -13.733 -5.371 10.651 -449.857 -629.890 -2699.891 0.649 0.067 0.183 -0.06 0.65 -0.76 0.09
1 6.74 674 -0.814 -9.769 1.317 -4.303 -8.728 8.911 -569.929 -464.997 -2669.911 0.533 0.099 0.251 -0.06 0.65 -0.76 0.09
1 6.75 675 -0.910 -9.568 1.197 -0.977 -9.583 6.775 -569.929 -464.997 -2669.911 0.615 -0.102 0.367 -0.06 0.65 -0.76 0.09
1 6.76 676 -0.704 -9.563 1.087 -1.373 -10.101 6.042 -434.867 -494.978 -2759.852 0.399 -0.107 0.476 -0.06 0.65 -0.76 0.09
1 6.77 677 -0.656 -9.386 0.963 -4.150 -10.193 4.547 -434.867 -494.978 -2759.852 0.343 -0.285 0.596 -0.06 0.65 -0.76 0.09
1 6.78 678 -0.493 -9.319 1.077 -9.338 -9.491 3.967 -419.876 -539.948 -2699.891 0.175 -0.353 0.472 -0.06 0.65 -0.76 0.09
1 6.79 679 -0.541 -9.256 0.939 -12.024 -9.247 2.777 -419.876 -539.948 -2699.891 0.218 -0.417 0.597 -0.06 0.65 -0.76 0.09
1 6.80 680 -0.436 -9.285 0.943 -13.519 -7.324 0.397 -389.896 -674.860 -2684.901 0.110 -0.395 0.552 -0.06 0.65 -0.75 0.09
1 6.81 681 -0.608 -9.280 0.958 -14.038 -6.805 -2.289 -614.899 -494.978 -2639.930 0.284 -0.403 0.516 -0.06 0.65 -0.75 0.09
1 6.82 682 -0.479 -9.237 0.790 -13.489 -6.683 -5.219 -614.899 -494.978 -2639.930 0.161 -0.450 0.661 -0.06 0.65 -0.75 0.09
1 6.83 683 -0.383 -9.261 0.800 -13.184 -5.737 -7.538 -539.948 -524.958 -2639.930 0.075 -0.429 0.630 -0.06 0.65 -0.75 0.09
1 6.84 684 -0.508 -9.328 0.656 -12.909 -5.554 -9.918 -539.948 -524.958 -2639.930 0.213 -0.366 0.751 -0.06 0.65 -0.75 0.09
1 6.85 685 -0.426 -9.180 0.670 -12.970 -6.775 -12.421 -494.978 -629.890 -2594.959 0.149 -0.518 0.715 -0.06 0.65 -0.75 0.09
1 6.86 686 -0.493 -9.189 0.713 -13.306 -8.759 -14.252 -434.867 -419.876 -2459.897 0.235 -0.512 0.650 -0.06 0.65 -0.75 0.09
1 6.87 687 -0.474 -9.223 0.809 -15.350 -10.986 -15.625 -389.896 -644.880 -2639.930 0.261 -0.486 0.507 -0.06 0.65 -0.75 0.09
1 6.88 688 -0.627 -9.333 0.905 -16.815 -10.681 -15.900 -419.876 -509.968 -2699.891 0.439 -0.380 0.386 -0.06 0.66 -0.75 0.09
1 6.89 689 -0.464 -9.414 0.785 -17.517 -9.735 -15.930 -419.876 -509.968 -2699.891 0.301 -0.302 0.480 -0.07 0.66 -0.75 0.09
1 6.90 690 -0.627 -9.644 0.728 -18.372 -8.240 -15.106 -539.948 -494.978 -2639.930 0.488 -0.076 0.510 -0.07 0.66 -0.75 0.09
1 6.91 691 -0.752 -9.783 0.771 -18.768 -8.301 -13.397 -539.948 -494.978 -2639.930 0.634 0.059 0.437 -0.07 0.66 -0.74 0.09
1 6.92 692 -0.996 -10.104 0.680 -18.585 -7.843 -12.085 -569.929 -434.867 -2549.989 0.896 0.376 0.499 -0.07 0.66 -0.74 0.09
1 6.93 693 -1.058 -10.171 0.522 -16.571 -9.155 -11.841 -569.929 -539.948 -2624.940 0.974 0.439 0.627 -0.07 0.66 -0.74 0.09
1 6.94 694 -1.259 -10.358 0.493 -14.587 -10.101 -11.597 -569.929 -539.948 -2624.940 1.189 0.622 0.628 -0.07 0.66 -0.74 0.09
1 6.95 695 -1.456 -10.607 0.350 -12.360 -12.512 -12.604 -749.961 -434.867 -2729.872 1.409 0.866 0.723 -0.07 0.66 -0.74 0.08
1 6.96 696 -1.461 -10.856 0.215 -7.477 -14.038 -12.085 -749.961 -434.867 -2729.872 1.424 1.112 0.837 -0.07 0.66 -0.74 0.09
1 6.97 697 -1.379 -10.851 0.062 -4.791 -14.740 -11.658 -614.899 -299.955 -2459.897 1.364 1.107 0.981 -0.08 0.66 -0.74 0.09
1 6.98 698 -1.298 -10.990 0.019 -2.594 -15.259 -9.735 -614.899 -299.955 -2459.897 1.303 1.245 1.020 -0.08 0.66 -0.74 0.09
1 6.99 699 -1.288 -11.023 -0.125 -1.129 -16.388 -6.866 -629.890 -584.919 -2549.989 1.311 1.278 1.162 -0.08 0.66 -0.74 0.09
1 7.00 700 -1.326 -10.832 -0.225 -3.418 -18.982 -5.585 -509.968 -569.929 -2534.999 1.363 1.087 1.262 -0.08 0.66 -0.74 0.09
1 7.01 701 -1.298 -10.908 -0.235 -4.364 -22.095 -5.585 -509.968 -569.929 -2534.999 1.347 1.163 1.268 -0.08 0.66 -0.74 0.09
1 7.02 702 -0.963 -11.090 0.809 -5.371 -23.346 -6.805 -674.860 -509.968 -2549.989 1.040 1.344 0.213 -0.08 0.66 -0.74 0.09
1 7.03 703 -0.536 -11.900 1.082 -1.251 -19.043 -4.822 -674.860 -509.968 -2549.989 0.629 2.153 -0.065 -0.09 0.66 -0.74 0.09
1 7.04 704 -0.163 -13.360 1.571 -4.395 -15.656 7.843 -734.971 -329.935 -2564.979 0.263 3.614 -0.554 -0.09 0.66 -0.74 0.09
1 7.05 705 0.326 -14.639 1.944 -23.987 -10.376 23.895 -734.971 -329.935 -2564.979 -0.240 4.891 -0.939 -0.09 0.66 -0.74 0.09
1 7.06 706 0.690 -14.907 1.666 -25.360 -3.357 39.276 -749.961 -434.867 -2549.989 -0.644 5.155 -0.699 -0.09 0.67 -0.74 0.09
1 7.07 707 0.872 -13.691 1.374 0.610 -1.556 44.312 -674.860 -314.945 -2519.858 -0.886 3.935 -0.438 -0.08 0.67 -0.73 0.09
1 7.08 708 0.867 -12.728 1.413 13.733 0.763 37.811 -674.860 -314.945 -2519.858 -0.947 2.973 -0.480 -0.08 0.67 -0.73 0.1
1 7.09 709 0.441 -11.320 1.494 3.571 8.698 27.039 -794.932 -419.876 -2639.930 -0.627 1.570 -0.522 -0.08 0.67 -0.73 0.1
1 7.10 710 0.134 -11.081 1.283 -4.272 11.292 22.034 -794.932 -419.876 -2639.930 -0.357 1.332 -0.311 -0.08 0.67 -0.73 0.1
1 7.11 711 -0.608 -10.334 1.255 -14.771 15.717 6.775 -629.890 -464.997 -2549.989 0.361 0.583 -0.302 -0.08 0.67 -0.73 0.1
1 7.12 712 -0.809 -9.989 1.125 -4.364 11.078 -2.716 -629.890 -464.997 -2549.989 0.554 0.237 -0.189 -0.07 0.67 -0.73 0.1
1 7.13 713 -0.699 -9.429 1.154 10.315 -0.946 -7.904 -674.860 -434.867 -2474.888 0.446 -0.323 -0.217 -0.07 0.67 -0.73 0.1
1 7.14 714 -0.450 -8.567 1.901 30.731 -16.480 -17.639 -509.968 -419.876 -2534.999 0.210 -1.183 -0.940 -0.07 0.67 -0.73 0.1
1 7.15 715 -0.192 -8.126 2.299 39.826 -20.081 -19.775 -509.968 -419.876 -2534.999 -0.024 -1.619 -1.289 -0.08 0.67 -0.74 0.1
1 7.16 716 -0.048 -7.465 2.753 40.741 -19.226 -22.430 -674.860 -314.945 -2519.858 -0.097 -2.268 -1.620 -0.08 0.66 -0.74 0.1
1 7.17 717 -0.057 -7.360 2.907 38.300 -19.074 -22.858 -674.860 -314.945 -2519.858 -0.049 -2.366 -1.713 -0.08 0.66 -0.74 0.1
1 7.18 718 -0.129 -7.413 3.127 24.719 -21.240 -20.660 -629.890 -434.867 -2624.940 0.062 -2.308 -1.883 -0.08 0.66 -0.74 0.1
1 7.19 719 -0.048 -7.389 3.007 16.663 -23.804 -16.327 -629.890 -434.867 -2624.940 0.015 -2.327 -1.728 -0.08 0.65 -0.75 0.1
1 7.20 720 0.067 -7.360 3.036 13.092 -26.520 -9.857 -704.991 -359.916 -2669.911 -0.072 -2.353 -1.732 -0.09 0.65 -0.75 0.1
1 7.21 721 0.254 -7.408 2.969 12.573 -25.574 -5.493 -690.000 -524.958 -2609.950 -0.239 -2.302 -1.644 -0.09 0.65 -0.75 0.1
1 7.22 722 0.742 -7.480 2.911 17.304 -17.761 -0.183 -690.000 -524.958 -2609.950 -0.714 -2.227 -1.565 -0.09 0.65 -0.75 0.1
1 7.23 723 0.790 -7.705 2.830 14.771 -7.355 2.167 -869.883 -569.929 -2684.901 -0.755 -1.998 -1.457 -0.09 0.65 -0.75 0.1
1 7.24 724 0.690 -8.423 2.667 -9.186 11.261 3.052 -674.860 -464.997 -2519.858 -0.657 -1.275 -1.259 -0.09 0.65 -0.75 0.1
1 7.25 725 0.374 -9.022 2.457 -34.790 20.050 0.427 -659.870 -494.978 -2684.901 -0.344 -0.679 -1.065 -0.09 0.65 -0.75 0.1
1 7.26 726 0.249 -10.037 2.169 -54.077 25.574 -5.249 -659.870 -494.978 -2684.901 -0.218 0.329 -0.826 -0.09 0.65 -0.75 0.1
1 7.27 727 -0.024 -11.560 2.045 -59.204 23.621 -11.536 -690.000 -524.958 -2759.852 0.063 1.842 -0.777 -0.09 0.65 -0.74 0.1
1 7.28 728 -0.091 -12.623 2.188 -43.457 15.503 -16.785 -674.860 -314.945 -2774.992 0.146 2.895 -1.004 -0.09 0.66 -0.74 0.1
1 7.29 729 0.321 -12.484 2.581 12.634 0.092 -20.844 -674.860 -314.945 -2774.992 -0.239 2.750 -1.449 -0.09 0.66 -0.74 0.09
1 7.30 730 0.872 -11.426 2.389 54.688 -5.402 -23.346 -749.961 -509.968 -2624.940 -0.758 1.692 -1.253 -0.09 0.66 -0.74 0.09
1 7.31 731 1.681 -9.793 1.868 90.668 -9.094 -21.729 -749.961 -389.896 -2549.989 -1.493 0.084 -0.546 -0.09 0.65 -0.75 0.09
1 7.32 732 2.208 -8.725 1.887 88.105 -11.047 -16.144 -764.952 -329.935 -2564.979 -1.976 -0.963 -0.424 -0.09 0.65 -0.75 0.09
1 7.33 733 2.346 -8.069 2.150 60.028 -9.613 -11.749 -764.952 -329.935 -2564.979 -2.074 -1.598 -0.561 -0.1 0.64 -0.76 0.09
1 7.34 734 2.260 -7.892 2.389 19.836 -4.272 -9.308 -854.893 -464.997 -2669.911 -1.961 -1.761 -0.722 -0.1 0.64 -0.76 0.09
1 7.35 735 1.757 -7.863 2.605 -17.853 2.533 -9.857 -779.942 -539.948 -2729.872 -1.442 -1.786 -0.922 -0.1 0.64 -0.76 0.09
1 7.36 736 0.776 -8.983 2.188 -47.394 9.766 -19.135 -779.942 -539.948 -2729.872 -0.444 -0.671 -0.541 -0.1 0.64 -0.76 0.09
1 7.37 737 0.273 -9.606 1.662 -40.070 8.209 -26.489 -854.893 -509.968 -2699.891 0.087 -0.058 -0.075 -0.1 0.64 -0.76 0.09
1 7.38 738 0.110 -10.204 1.159 -13.611 0.732 -30.487 -779.942 -629.890 -2669.911 0.288 0.533 0.370 -0.1 0.64 -0.76 0.09
1 7.39 739 0.287 -9.836 1.111 35.858 -9.583 -31.525 -749.961 -509.968 -2804.973 0.201 0.166 0.405 -0.1 0.64 -0.76 0.08
1 7.40 740 0.742 -9.266 1.355 56.305 -10.864 -28.717 -749.961 -509.968 -2804.973 -0.206 -0.392 0.220 -0.1 0.64 -0.76 0.08
1 7.41 741 0.982 -8.533 1.408 59.082 -6.653 -26.856 -854.893 -464.997 -2669.911 -0.399 -1.108 0.252 -0.11 0.64 -0.76 0.08
1 7.42 742 1.212 -7.877 1.355 44.495 0.336 -22.980 -899.864 -464.997 -2774.992 -0.586 -1.746 0.388 -0.11 0.63 -0.76 0.08
1 7.43 743 1.202 -7.729 1.207 18.280 6.226 -20.844 -899.864 -464.997 -2774.992 -0.543 -1.882 0.595 -0.11 0.63 -0.77 0.08
1 7.44 744 1.092 -8.193 1.063 -22.369 8.453 -19.379 -824.913 -584.919 -2729.872 -0.404 -1.412 0.757 -0.11 0.63 -0.77 0.08
1 7.45 745 1.197 -8.974 0.852 -37.140 7.996 -17.365 -989.955 -524.958 -2759.852 -0.482 -0.633 0.947 -0.11 0.63 -0.77 0.08
1 7.46 746 1.135 -9.984 0.910 -31.006 5.524 -14.069 -914.854 -449.857 -2609.950 -0.367 0.362 0.782 -0.11 0.63 -0.76 0.07
1 7.47 747 1.374 -10.315 0.718 -11.444 6.470 -9.766 -914.854 -449.857 -2609.950 -0.584 0.687 0.931 -0.11 0.64 -0.76 0.07
1 7.48 748 1.312 -10.209 0.953 11.047 7.874 -5.096 -839.903 -569.929 -2714.881 -0.506 0.581 0.683 -0.11 0.64 -0.76 0.07
1 7.49 749 1.149 -9.682 1.082 29.144 9.979 -0.214 -1079.896 -464.997 -2774.992 -0.335 0.058 0.574 -0.11 0.63 -0.76 0.07
1 7.50 750 1.097 -9.141 1.082 37.537 12.543 2.472 -1079.896 -464.997 -2774.992 -0.282 -0.475 0.619 -0.11 0.63 -0.76 0.07
1 7.51 751 0.929 -8.366 1.049 27.618 16.113 5.920 -974.965 -434.867 -2729.872 -0.119 -1.242 0.706 -0.11 0.63 -0.76 0.07
1 7.52 752 0.824 -8.294 0.939 11.139 17.670 7.751 -899.864 -464.997 -2954.875 -0.023 -1.306 0.863 -0.11 0.63 -0.77 0.07
1 7.53 753 0.843 -8.299 0.761 -12.543 19.440 11.169 -854.893 -509.968 -2774.992 -0.074 -1.298 1.068 -0.11 0.63 -0.77 0.07
1 7.54 754 0.694 -8.572 0.680 -22.675 20.447 12.939 -854.893 -509.968 -2774.992 0.053 -1.031 1.131 -0.11 0.63 -0.77 0.07
1 7.55 755 0.872 -8.725 0.646 -26.367 20.355 14.252 -899.864 -539.948 -2849.943 -0.148 -0.885 1.133 -0.1 0.63 -0.77 0.07
1 7.56 756 0.977 -9.170 0.833 -28.046 19.745 15.350 -854.893 -434.867 -2804.973 -0.279 -0.448 0.910 -0.1 0.63 -0.76 0.07
1 7.57 757 1.020 -9.572 1.097 -29.389 19.440 14.465 -854.893 -434.867 -2804.973 -0.346 -0.056 0.602 -0.1 0.63 -0.76 0.07
1 7.58 758 1.298 -10.061 1.125 -29.602 20.111 13.123 -764.952 -524.958 -2759.852 -0.646 0.424 0.530 -0.1 0.64 -0.76 0.07
1 7.59 759 1.269 -10.324 0.986 -24.719 20.630 12.604 -854.893 -539.948 -2699.891 -0.637 0.678 0.624 -0.1 0.64 -0.76 0.07
1 7.60 760 1.537 -10.568 0.733 -11.780 20.660 10.559 -824.913 -434.867 -2669.911 -0.938 0.909 0.809 -0.1 0.64 -0.76 0.07
1 7.61 761 1.508 -10.631 0.728 -7.385 19.257 9.949 -824.913 -434.867 -2669.911 -0.922 0.968 0.796 -0.1 0.64 -0.76 0.07
1 7.62 762 1.657 -10.267 0.551 1.556 16.296 7.538 -824.913 -539.948 -2879.924 -1.079 0.602 0.966 -0.09 0.64 -0.76 0.06
1 7.63 763 1.887 -10.238 0.292 3.662 15.167 5.768 -704.991 -509.968 -2804.973 -1.315 0.573 1.223 -0.09 0.64 -0.76 0.06
1 7.64 764 1.997 -10.099 0.125 0.916 15.869 4.089 -704.991 -509.968 -2804.973 -1.426 0.434 1.390 -0.09 0.64 -0.76 0.06
1 7.65 765 2.126 -10.248 0.177 -7.202 18.463 3.784 -764.952 -494.978 -2684.901 -1.554 0.581 1.328 -0.09 0.64 -0.76 0.06
1 7.66 766 2.030 -10.655 2.164 -30.182 14.771 3.967 -690.000 -569.929 -2714.881 -1.455 0.985 -0.681 -0.09 0.64 -0.76 0.06
1 7.67 767 1.791 -11.751 2.935 -38.666 19.836 -3.357 -690.000 -569.929 -2714.881 -1.213 2.075 -1.491 -0.09 0.65 -0.76 0.06
1 7.68 768 0.215 -14.461 3.007 -67.383 18.707 -41.260 -659.870 -494.978 -2684.901 0.386 4.770 -1.686 -0.09 0.65 -0.75 0.06
1 7.69 769 -0.517 -16.104 1.408 -52.429 3.784 -66.132 -764.952 -449.857 -2819.963 1.190 6.404 -0.184 -0.09 0.66 -0.75 0.05
1 7.70 770 -0.608 -16.549 0.900 -7.660 -20.447 -66.315 -629.890 -359.916 -2729.872 1.384 6.850 0.264 -0.1 0.66 -0.75 0.05
1 7.71 771 -0.283 -15.036 1.231 25.574 -37.018 -42.053 -629.890 -359.916 -2729.872 1.156 5.345 -0.066 -0.1 0.66 -0.75 0.05
1 7.72 772 0.321 -12.953 1.595 42.603 -35.004 -11.627 -659.870 -299.955 -2564.979 0.612 3.273 -0.387 -0.1 0.65 -0.75 0.05
1 7.73 773 0.503 -10.262 2.251 28.473 -20.264 18.219 -839.903 -374.906 -2759.852 0.445 0.591 -0.983 -0.11 0.65 -0.75 0.05
1 7.74 774 0.393 -9.524 2.466 9.888 -18.066 18.768 -839.903 -374.906 -2759.852 0.538 -0.142 -1.151 -0.11 0.65 -0.75 0.05
1 7.75 775 0.895 -8.797 2.610 0.488 -16.449 12.878 -794.932 -329.935 -2894.914 -0.013 -0.869 -1.256 -0.11 0.65 -0.75 0.06
1 7.76 776 1.427 -8.538 2.830 2.258 -10.498 18.066 -764.952 -329.935 -2714.881 -0.560 -1.128 -1.466 -0.11 0.65 -0.75 0.06
1 7.77 777 1.571 -8.198 3.160 6.378 2.930 28.168 -824.913 -464.997 -2669.911 -0.727 -1.467 -1.780 -0.11 0.65 -0.75 0.06
1 7.78 778 1.872 -7.963 3.668 14.038 17.426 35.919 -824.913 -464.997 -2669.911 -1.068 -1.701 -2.258 -0.11 0.65 -0.75 0.06
1 7.79 779 1.939 -7.566 3.869 20.569 27.222 37.354 -779.942 -284.964 -2879.924 -1.185 -2.096 -2.414 -0.1 0.64 -0.76 0.06
1 7.80 780 1.628 -7.207 3.850 20.569 37.048 27.466 -869.883 -494.978 -2684.901 -0.933 -2.454 -2.359 -0.1 0.64 -0.76 0.06
1 7.81 781 1.279 -6.991 3.591 15.076 42.359 19.928 -869.883 -494.978 -2684.901 -0.634 -2.667 -2.064 -0.1 0.64 -0.76 0.06
1 7.82 782 0.824 -7.044 3.362 7.416 46.814 13.031 -749.961 -389.896 -2804.973 -0.220 -2.613 -1.804 -0.09 0.64 -0.76 0.06
1 7.83 783 0.168 -7.264 2.792 -14.710 40.039 0.336 -824.913 -434.867 -2729.872 0.384 -2.392 -1.212 -0.09 0.64 -0.76 0.06
1 7.84 784 -0.192 -7.892 2.720 -42.328 27.130 -7.599 -690.000 -524.958 -2939.885 0.738 -1.769 -1.166 -0.08 0.64 -0.76 0.06
1 7.85 785 -0.067 -9.103 3.017 -72.632 12.909 -13.458 -690.000 -524.958 -2939.885 0.623 -0.568 -1.534 -0.08 0.65 -0.76 0.05
1 7.86 786 0.196 -10.746 3.146 -93.628 9.399 -15.625 -614.899 -419.876 -2759.852 0.375 1.060 -1.767 -0.08 0.65 -0.75 0.05
1 7.87 787 0.201 -12.321 3.017 -90.271 18.036 -12.634 -614.899 -524.958 -2714.881 0.390 2.619 -1.769 -0.08 0.66 -0.75 0.05
1 7.88 788 -0.407 -13.408 2.610 -33.508 23.560 0.458 -614.899 -524.958 -2714.881 1.012 3.692 -1.484 -0.08 0.66 -0.75 0.05
1 7.89 789 -0.781 -12.589 2.619 18.127 14.313 9.430 -674.860 -284.964 -2669.911 1.387 2.866 -1.558 -0.08 0.66 -0.74 0.05
1 7.90 790 -1.293 -10.401 2.385 71.930 -1.862 18.616 -629.890 -359.916 -2774.992 1.865 0.685 -1.236 -0.08 0.66 -0.75 0.05
1 7.91 791 -1.408 -9.017 2.054 80.384 -6.226 24.902 -690.000 -224.854 -2789.982 1.945 -0.686 -0.787 -0.08 0.65 -0.75 0.05
1 7.92 792 -1.690 -7.872 1.973 68.390 -4.425 33.997 -690.000 -224.854 -2789.982 2.176 -1.816 -0.581 -0.08 0.65 -0.75 0.05
1 7.93 793 -1.700 -7.130 2.006 39.978 1.648 40.741 -584.919 -254.984 -2789.982 2.133 -2.547 -0.520 -0.08 0.65 -0.76 0.06
1 7.94 794 -1.518 -7.025 2.366 -19.196 11.841 40.650 -569.929 -359.916 -2909.904 1.890 -2.647 -0.833 -0.07 0.65 -0.76 0.06
1 7.95 795 -1.312 -7.633 2.337 -50.751 13.092 36.743 -569.929 -359.916 -2909.904 1.622 -2.043 -0.815 -0.07 0.65 -0.76 0.06
1 7.96 796 -0.776 -8.576 2.322 -66.223 10.040 32.990 -659.870 -329.935 -2714.881 1.028 -1.111 -0.864 -0.07 0.65 -0.76 0.06
1 7.97 797 -0.110 -10.109 1.772 -47.791 5.920 29.511 -509.968 -419.876 -2789.982 0.258 0.394 -0.489 -0.07 0.66 -0.75 0.06
1 7.98 798 0.038 -10.353 1.614 -33.447 5.493 29.358 -359.916 -374.906 -2759.852 0.063 0.631 -0.385 -0.06 0.66 -0.75 0.06
1 7.99 799 0.244 -10.568 1.518 7.629 7.172 32.990 -359.916 -374.906 -2759.852 -0.189 0.844 -0.304 -0.06 0.66 -0.75 0.07
1 8.00 800 0.072 -10.166 1.542 22.858 4.211 34.058 -464.997 -419.876 -2759.852 -0.066 0.444 -0.307 -0.06 0.66 -0.75 0.07
1 8.01 801 -0.201 -9.386 1.609 24.994 -0.244 30.853 -374.906 -209.863 -2729.872 0.159 -0.331 -0.336 -0.06 0.66 -0.75 0.07
1 8.02 802 -0.575 -8.792 1.446 17.120 -4.334 21.851 -374.906 -209.863 -2729.872 0.491 -0.919 -0.133 -0.06 0.66 -0.75 0.07
1 8.03 803 -0.713 -8.390 1.528 11.078 -3.998 18.799 -329.935 -374.906 -2639.930 0.597 -1.317 -0.181 -0.05 0.65 -0.75 0.07
1 8.04 804 -1.044 -8.232 1.417 6.073 -2.319 17.059 -494.978 -284.964 -2669.911 0.875 -1.469 -0.036 -0.05 0.65 -0.75 0.07
1 8.05 805 -1.034 -8.165 1.326 4.395 -3.174 16.022 -449.857 -284.964 -2804.973 0.843 -1.534 0.065 -0.05 0.65 -0.75 0.08
1 8.06 806 -1.255 -8.461 1.188 -1.526 -4.639 13.092 -449.857 -284.964 -2804.973 1.043 -1.236 0.208 -0.05 0.65 -0.75 0.08
1 8.07 807 -0.996 -8.653 0.977 -4.334 -6.287 10.834 -389.896 -329.935 -2789.982 0.768 -1.045 0.417 -0.05 0.65 -0.75 0.08
1 8.08 808 -1.058 -9.017 0.895 -7.904 -6.989 9.796 -389.896 -329.935 -2789.982 0.817 -0.681 0.492 -0.05 0.65 -0.75 0.08
1 8.09 809 -0.891 -9.223 0.953 -8.637 -7.690 8.362 -389.896 -329.935 -2789.982 0.632 -0.477 0.421 -0.05 0.65 -0.75 0.08
1 8.10 810 -0.690 -9.539 0.876 -5.585 -7.965 6.287 -434.867 -254.984 -2789.982 0.417 -0.162 0.485 -0.05 0.65 -0.75 0.08
1 8.11 811 -0.733 -9.582 0.905 -1.404 -7.935 3.998 -434.867 -254.984 -2789.982 0.450 -0.120 0.446 -0.05 0.65 -0.75 0.08
1 8.12 812 -0.594 -9.252 0.690 4.822 -10.559 -0.732 -284.964 -449.857 -2714.881 0.301 -0.451 0.657 -0.05 0.65 -0.75 0.08
1 8.13 813 -0.656 -8.840 0.508 7.263 -12.756 -3.693 -284.964 -449.857 -2714.881 0.367 -0.862 0.845 -0.05 0.65 -0.75 0.08
1 8.14 814 -0.388 -8.543 0.536 5.554 -15.076 -7.202 -344.925 -284.964 -2849.943 0.107 -1.158 0.824 -0.05 0.65 -0.75 0.08
1 8.15 815 -0.182 -8.390 0.498 0.793 -17.090 -10.712 -449.857 -389.896 -2729.872 -0.082 -1.311 0.871 -0.05 0.65 -0.75 0.08
1 8.16 816 -0.086 -8.203 0.536 -12.177 -18.829 -14.893 -449.857 -389.896 -2729.872 -0.156 -1.498 0.833 -0.05 0.65 -0.75 0.08
1 8.17 817 0.043 -8.485 0.584 -21.240 -19.684 -17.792 -359.916 -254.984 -2684.901 -0.259 -1.218 0.773 -0.06 0.65 -0.75 0.08
1 8.18 818 0.153 -8.782 0.656 -27.252 -20.447 -20.142 -359.916 -254.984 -2684.901 -0.338 -0.925 0.675 -0.06 0.65 -0.75 0.08
1 8.19 819 -0.187 -9.343 0.804 -27.985 -20.935 -20.111 -359.916 -299.955 -2894.914 0.073 -0.377 0.447 -0.06 0.66 -0.75 0.08
1 8.20 820 -0.364 -9.730 0.637 -24.506 -22.064 -19.775 -359.916 -299.955 -2894.914 0.285 0.006 0.573 -0.06 0.66 -0.75 0.08
1 8.21 821 -0.675 -9.994 0.685 -19.501 -23.682 -17.731 -389.896 -179.883 -2684.901 0.629 0.264 0.488 -0.07 0.66 -0.74 0.08
1 8.22 822 -1.015 -10.406 0.594 -15.137 -22.705 -16.357 -539.948 -374.906 -2714.881 0.996 0.673 0.550 -0.07 0.66 -0.74 0.08
1 8.23 823 -1.140 -10.602 0.575 -12.116 -21.027 -14.374 -539.948 -374.906 -2714.881 1.142 0.866 0.545 -0.07 0.66 -0.74 0.08
1 8.24 824 -1.633 -10.880 0.503 -11.047 -18.066 -11.261 -464.997 -254.984 -2714.881 1.652 1.142 0.596 -0.07 0.66 -0.74 0.08
1 8.25 825 -1.700 -10.975 0.450 -9.674 -18.189 -10.437 -464.997 -254.984 -2714.881 1.741 1.236 0.634 -0.07 0.66 -0.74 0.08
1 8.26 826 -1.901 -10.884 0.148 -8.911 -19.196 -9.552 -569.929 -164.893 -2624.940 1.963 1.143 0.922 -0.08 0.66 -0.74 0.08
1 8.27 827 -1.743 -10.669 -0.144 -4.639 -22.492 -6.317 -419.876 -119.922 -2729.872 1.841 0.926 1.193 -0.08 0.66 -0.74 0.08
1 8.28 828 -1.508 -10.779 -0.268 -1.038 -23.956 -5.188 -599.909 -359.916 -2669.911 1.620 1.036 1.313 -0.08 0.66 -0.74 0.08
1 8.29 829 -1.403 -10.894 -0.034 -0.061 -24.689 -3.723 -599.909 -89.941 -2774.992 1.526 1.151 1.079 -0.08 0.66 -0.74 0.08
1 8.30 830 -1.130 -11.291 1.044 -2.655 -22.308 -3.693 -599.909 -89.941 -2774.992 1.264 1.548 0.002 -0.08 0.66 -0.74 0.08
1 8.31 831 -0.608 -12.623 0.991 0.793 -15.198 -2.441 -584.919 -104.932 -2714.881 0.752 2.879 0.052 -0.08 0.66 -0.74 0.08
1 8.32 832 0.062 -15.793 1.925 -19.867 -19.135 25.879 -584.919 -104.932 -2714.881 0.084 6.050 -0.877 -0.08 0.66 -0.74 0.08
1 8.33 833 0.292 -16.185 2.222 -49.072 -15.442 42.511 -569.929 -239.994 -2729.872 -0.171 6.441 -1.190 -0.08 0.66 -0.74 0.08
1 8.34 834 0.618 -14.232 1.484 -0.641 -9.918 35.309 -524.958 -119.922 -2804.973 -0.611 4.475 -0.564 -0.08 0.67 -0.73 0.09
1 8.35 835 0.579 -13.293 1.566 29.602 -11.841 27.954 -749.961 -164.893 -2699.891 -0.619 3.538 -0.631 -0.08 0.67 -0.73 0.09
1 8.36 836 0.670 -12.182 1.633 25.910 -13.062 27.405 -539.948 -149.902 -2759.852 -0.748 2.432 -0.651 -0.08 0.67 -0.74 0.09
1 8.37 837 0.464 -11.100 1.724 4.547 -9.857 25.818 -539.948 -149.902 -2759.852 -0.580 1.353 -0.708 -0.08 0.66 -0.74 0.1
1 8.38 838 0.077 -10.626 1.571 -15.656 -0.946 23.682 -614.899 -74.951 -2639.930 -0.228 0.880 -0.554 -0.08 0.66 -0.74 0.1
1 8.39 839 -0.441 -10.444 1.647 -29.114 5.432 18.097 -614.899 -74.951 -2639.930 0.258 0.696 -0.656 -0.08 0.67 -0.74 0.1
1 8.40 840 -0.718 -9.941 1.528 -19.836 -1.923 7.996 -569.929 -89.941 -2669.911 0.508 0.190 -0.576 -0.08 0.67 -0.73 0.1
1 8.41 841 -0.527 -9.333 1.743 14.801 -18.433 -7.355 -704.991 -239.994 -2594.959 0.301 -0.421 -0.817 -0.08 0.67 -0.73 0.1
1 8.42 842 -0.498 -9.266 1.901 26.215 -22.034 -10.345 -629.890 -44.971 -2624.940 0.287 -0.484 -0.936 -0.08 0.67 -0.73 0.1
1 8.43 843 -0.393 -8.112 2.433 46.204 -28.931 -19.806 -569.929 -44.971 -2774.992 0.206 -1.632 -1.400 -0.08 0.66 -0.74 0.1
1 8.44 844 -0.436 -7.662 2.538 49.042 -31.067 -23.743 -569.929 -44.971 -2774.992 0.287 -2.074 -1.432 -0.08 0.66 -0.74 0.1
1 8.45 845 -0.579 -7.116 2.548 42.938 -35.614 -24.811 -569.929 -164.893 -2774.992 0.473 -2.612 -1.367 -0.08 0.66 -0.74 0.1
1 8.46 846 -0.555 -6.910 3.242 26.276 -42.999 -22.064 -569.929 -164.893 -2774.992 0.494 -2.811 -1.999 -0.09 0.66 -0.74 0.1
1 8.47 847 -0.345 -6.785 3.419 14.557 -43.945 -17.304 -584.919 -104.932 -2819.963 0.327 -2.929 -2.130 -0.09 0.65 -0.74 0.1
1 8.48 848 0.067 -7.130 3.534 2.075 -40.375 -12.024 -690.000 -254.984 -2684.901 -0.017 -2.579 -2.204 -0.1 0.65 -0.75 0.11
1 8.49 849 0.148 -7.101 3.577 0.305 -36.896 -9.827 -674.860 -314.945 -2849.943 -0.073 -2.607 -2.245 -0.1 0.65 -0.75 0.11
1 8.50 850 0.627 -7.604 3.280 -0.793 -22.522 -6.897 -629.890 -389.896 -2804.973 -0.532 -2.104 -1.947 -0.1 0.65 -0.75 0.11
1 8.51 851 0.642 -7.896 2.763 -2.899 -10.681 -5.066 -629.890 -389.896 -2804.973 -0.531 -1.812 -1.431 -0.1 0.65 -0.75 0.11
1 8.52 852 0.781 -8.428 2.519 -13.092 -0.061 -3.845 -824.913 -239.994 -2879.924 -0.659 -1.281 -1.192 -0.1 0.65 -0.75 0.11
1 8.53 853 0.479 -9.879 1.896 -43.030 6.653 -5.524 -824.913 -239.994 -2879.924 -0.348 0.167 -0.589 -0.1 0.65 -0.75 0.11
1 8.54 854 0.579 -11.416 1.484 -56.854 3.113 -7.599 -779.942 -239.994 -2849.943 -0.436 1.698 -0.223 -0.1 0.65 -0.74 0.11
1 8.55 855 0.579 -12.862 1.638 -55.176 -5.829 -8.942 -779.942 -119.922 -2804.973 -0.424 3.135 -0.453 -0.1 0.65 -0.74 0.1
1 8.56 856 0.522 -13.054 2.490 -16.113 -19.989 -11.292 -779.942 -239.994 -2804.973 -0.333 3.311 -1.448 -0.11 0.66 -0.74 0.1
1 8.57 857 0.819 -11.866 2.490 30.182 -24.139 -14.801 -704.991 -119.922 -2879.924 -0.608 2.123 -1.455 -0.11 0.66 -0.74 0.1
1 8.58 858 0.867 -10.564 2.140 74.524 -25.574 -19.775 -704.991 -119.922 -2879.924 -0.626 0.828 -1.041 -0.11 0.66 -0.74 0.1
1 8.59 859 1.331 -9.400 1.465 98.786 -27.374 -21.118 -779.942 -14.990 -2669.911 -1.054 -0.320 -0.243 -0.11 0.65 -0.74 0.1
1 8.60 860 1.724 -8.461 1.274 90.454 -33.264 -9.491 -779.942 -14.990 -2669.911 -1.403 -1.236 0.101 -0.11 0.65 -0.75 0.11
1 8.61 861 1.901 -7.183 1.868 54.047 -30.853 -1.801 -824.913 -209.863 -2984.855 -1.549 -2.493 -0.350 -0.11 0.64 -0.75 0.11
1 8.62 862 1.963 -7.154 2.495 6.165 -22.827 0.244 -839.903 -224.854 -2789.982 -1.597 -2.505 -0.882 -0.12 0.64 -0.76 0.11
1 8.63 863 1.599 -7.896 2.581 -51.941 -7.294 -7.080 -899.864 -359.916 -2984.855 -1.218 -1.764 -0.980 -0.12 0.64 -0.75 0.11
1 8.64 864 1.092 -8.983 2.002 -64.697 -0.793 -15.564 -869.883 -254.984 -2939.885 -0.694 -0.690 -0.484 -0.12 0.64 -0.75 0.11
1 8.65 865 0.699 -10.118 1.403 -50.171 -2.502 -21.576 -869.883 -254.984 -2939.885 -0.268 0.433 0.030 -0.12 0.64 -0.75 0.11
1 8.66 866 0.527 -10.554 1.068 -14.130 -11.688 -23.407 -869.883 -224.854 -2969.865 -0.058 0.862 0.304 -0.12 0.64 -0.75 0.11
1 8.67 867 0.747 -10.477 1.183 28.229 -21.210 -23.071 -869.883 -224.854 -2969.865 -0.239 0.786 0.183 -0.12 0.64 -0.75 0.1
1 8.68 868 1.245 -9.433 1.389 68.756 -24.719 -20.508 -914.854 -179.883 -2759.852 -0.697 -0.248 0.029 -0.13 0.64 -0.75 0.1
1 8.69 869 1.537 -8.619 1.585 73.456 -20.050 -18.829 -869.883 -254.984 -2819.963 -0.948 -1.045 -0.074 -0.13 0.64 -0.75 0.1
1 8.70 870 1.810 -8.059 1.346 61.188 -12.116 -19.836 -869.883 -254.984 -2819.963 -1.181 -1.586 0.274 -0.13 0.63 -0.76 0.11
1 8.71 871 1.810 -7.499 1.073 23.377 -2.777 -18.829 -1019.936 -419.876 -2939.885 -1.112 -2.112 0.709 -0.13 0.63 -0.76 0.1
1 8.72 872 1.638 -7.614 1.068 -3.082 -0.702 -19.013 -1019.936 -419.876 -2939.885 -0.909 -1.990 0.740 -0.13 0.62 -0.76 0.1
1 8.73 873 1.590 -8.169 1.044 -21.942 1.007 -18.585 -914.854 -299.955 -3044.966 -0.832 -1.435 0.754 -0.13 0.62 -0.76 0.1
1 8.74 874 1.528 -8.844 0.963 -27.649 2.960 -17.517 -914.854 -299.955 -3044.966 -0.742 -0.763 0.801 -0.14 0.63 -0.76 0.1
1 8.75 875 1.322 -9.524 0.800 -21.332 4.761 -15.564 -1004.945 -314.945 -2909.904 -0.507 -0.088 0.924 -0.14 0.63 -0.76 0.1
1 8.76 876 1.446 -9.908 0.795 4.425 9.857 -13.641 -1004.945 -434.867 -3029.976 -0.605 0.292 0.899 -0.14 0.63 -0.76 0.1
1 8.77 877 1.322 -9.735 0.881 19.989 13.977 -10.529 -1004.945 -434.867 -3029.976 -0.457 0.121 0.809 -0.14 0.63 -0.76 0.1
1 8.78 878 1.504 -9.184 0.833 26.306 17.700 -5.310 -1139.857 -254.984 -2894.914 -0.607 -0.417 0.912 -0.14 0.63 -0.76 0.09
1 8.79 879 1.508 -8.844 0.728 17.090 19.409 -1.007 -1139.857 -254.984 -2894.914 -0.604 -0.750 1.051 -0.14 0.63 -0.76 0.09
1 8.80 880 1.456 -8.686 0.795 4.700 22.705 2.991 -974.965 -284.964 -2909.904 -0.552 -0.905 1.002 -0.13 0.62 -0.76 0.09
1 8.81 881 1.671 -8.552 0.747 -9.003 26.611 7.507 -974.965 -284.964 -2909.904 -0.773 -1.039 1.051 -0.13 0.62 -0.76 0.09
1 8.82 882 1.547 -8.696 0.929 -18.646 30.518 11.475 -989.955 -449.857 -3044.966 -0.668 -0.900 0.857 -0.13 0.63 -0.76 0.09
1 8.83 883 1.417 -8.825 0.919 -23.773 36.591 13.947 -1034.926 -434.867 -3059.957 -0.561 -0.777 0.840 -0.13 0.63 -0.76 0.09
1 8.84 884 1.216 -9.084 0.886 -21.698 39.612 12.909 -1034.926 -434.867 -3059.957 -0.383 -0.527 0.839 -0.13 0.63 -0.76 0.09
1 8.85 885 1.073 -9.261 0.804 -17.334 40.375 11.414 -914.854 -419.876 -2969.865 -0.264 -0.357 0.890 -0.12 0.63 -0.76 0.08
1 8.86 886 1.207 -9.357 0.804 -13.245 38.910 8.881 -914.854 -374.906 -3119.917 -0.442 -0.273 0.843 -0.12 0.63 -0.76 0.08
1 8.87 887 1.475 -9.587 0.934 -14.038 37.140 6.226 -974.965 -389.896 -2954.875 -0.727 -0.048 0.694 -0.12 0.64 -0.76 0.08
1 8.88 888 1.733 -9.735 0.963 -16.052 36.957 3.998 -974.965 -389.896 -2954.875 -0.996 0.096 0.645 -0.12 0.64 -0.76 0.08
1 8.89 889 1.978 -9.951 0.905 -20.233 36.591 2.533 -869.883 -224.854 -3044.966 -1.247 0.307 0.678 -0.11 0.64 -0.76 0.08
1 8.90 890 2.117 -10.315 0.503 -23.407 36.133 1.556 -794.932 -329.935 -2969.865 -1.389 0.666 1.049 -0.11 0.64 -0.76 0.07
1 8.91 891 2.236 -10.339 0.431 -21.973 33.600 0.916 -794.932 -329.935 -2969.865 -1.509 0.684 1.086 -0.11 0.64 -0.76 0.07
1 8.92 892 2.145 -10.372 1.235 -17.609 26.581 0.153 -854.893 -284.964 -3029.976 -1.411 0.707 0.213 -0.11 0.64 -0.75 0.07
1 8.93 893 2.184 -10.707 1.465 -14.252 25.787 -2.228 -854.893 -284.964 -3029.976 -1.442 1.040 -0.040 -0.11 0.64 -0.75 0.07
1 8.94 894 1.499 -12.393 2.873 -17.242 32.990 -29.297 -794.932 -179.883 -2894.914 -0.743 2.725 -1.455 -0.11 0.65 -0.75 0.06
1 8.95 895 0.421 -14.088 3.539 -52.368 29.144 -59.815 -794.932 -179.883 -2894.914 0.383 4.420 -2.154 -0.11 0.65 -0.75 0.06
1 8.96 896 -0.369 -16.430 2.816 -62.775 18.738 -90.607 -839.903 -149.902 -2894.914 1.270 6.759 -1.510 -0.11 0.65 -0.75 0.05
1 8.97 897 -0.833 -17.962 1.504 -33.844 -38.086 -76.630 -899.864 -359.916 -2879.924 1.871 8.294 -0.285 -0.11 0.65 -0.75 0.05
1 8.98 898 0.139 -15.702 1.714 25.543 -55.664 -36.041 -899.864 -359.916 -2879.924 1.030 6.040 -0.563 -0.12 0.65 -0.75 0.04
1 8.99 899 1.063 -12.905 2.830 63.721 -39.215 1.465 -854.893 -119.922 -2849.943 0.186 3.254 -1.672 -0.12 0.65 -0.75 0.04
1 9.00 900 1.422 -10.520 2.739 35.187 0.580 22.797 -914.854 -224.854 -2939.885 -0.172 0.891 -1.417 -0.13 0.65 -0.75 0.05
1 9.01 901 1.168 -9.903 2.811 -4.181 -0.122 21.851 -989.955 -149.902 -3044.966 0.048 0.274 -1.450 -0.13 0.64 -0.75 0.05
1 9.02 902 1.389 -9.429 2.524 -21.881 -5.981 21.240 -989.955 -149.902 -3044.966 -0.202 -0.204 -1.167 -0.12 0.64 -0.75 0.05
1 9.03 903 1.724 -8.993 2.768 -16.632 -1.373 31.189 -914.854 -299.955 -3074.947 -0.569 -0.647 -1.433 -0.12 0.65 -0.75 0.05
1 9.04 904 1.810 -8.643 3.247 0.092 22.217 53.162 -1079.896 -209.863 -2954.875 -0.702 -1.003 -1.920 -0.12 0.65 -0.75 0.06
1 9.05 905 1.676 -8.102 3.898 16.235 35.492 57.862 -1079.896 -209.863 -2954.875 -0.639 -1.550 -2.557 -0.12 0.65 -0.75 0.06
1 9.06 906 1.456 -7.485 3.400 33.203 40.558 51.819 -1004.945 -239.994 -2909.904 -0.503 -2.170 -2.016 -0.12 0.65 -0.75 0.06
1 9.07 907 1.082 -6.819 2.959 41.962 35.797 31.342 -794.932 -74.951 -3044.966 -0.280 -2.829 -1.439 -0.11 0.64 -0.76 0.06
1 9.08 908 0.848 -6.556 2.825 36.316 31.952 20.111 -854.893 -89.941 -2984.855 -0.094 -3.086 -1.238 -0.1 0.64 -0.76 0.06
1 9.09 909 0.187 -6.421 2.662 20.813 28.137 12.939 -854.893 -89.941 -2984.855 0.533 -3.213 -1.021 -0.1 0.64 -0.76 0.06
1 9.10 910 -0.187 -6.398 2.619 -5.951 22.247 7.294 -734.971 -224.854 -3014.986 0.884 -3.234 -0.951 -0.1 0.64 -0.76 0.06
1 9.11 911 -0.713 -6.982 2.892 -39.734 11.841 2.747 -674.860 -284.964 -2984.855 1.398 -2.654 -1.241 -0.1 0.64 -0.76 0.06
1 9.12 912 -0.991 -8.414 3.218 -84.351 0.092 -2.960 -674.860 -284.964 -2984.855 1.673 -1.234 -1.636 -0.1 0.64 -0.76 0.06
1 9.13 913 -1.039 -10.032 3.031 -94.666 4.303 -5.676 -734.971 -149.902 -3074.947 1.725 0.367 -1.563 -0.1 0.64 -0.76 0.06
1 9.14 914 -0.857 -11.924 2.763 -83.039 17.426 -7.996 -629.890 -239.994 -3164.888 1.539 2.240 -1.418 -0.1 0.65 -0.75 0.06
1 9.15 915 -1.255 -13.671 2.308 -25.147 19.318 6.775 -764.952 -149.902 -3119.917 1.941 3.962 -1.167 -0.09 0.66 -0.75 0.05
1 9.16 916 -1.695 -13.068 2.179 23.377 3.723 23.590 -764.952 -149.902 -3119.917 2.364 3.356 -1.053 -0.09 0.66 -0.74 0.05
1 9.17 917 -1.542 -11.397 2.030 61.646 -15.015 36.530 -779.942 14.990 -2909.904 2.172 1.688 -0.852 -0.09 0.66 -0.75 0.06
1 9.18 918 -1.585 -9.620 1.920 81.482 -26.093 45.685 -690.000 -29.980 -2969.865 2.162 -0.079 -0.641 -0.09 0.65 -0.75 0.06
1 9.19 919 -1.322 -8.088 1.906 72.296 -23.743 47.852 -690.000 -29.980 -2969.865 1.828 -1.598 -0.502 -0.09 0.65 -0.75 0.06
1 9.20 920 -1.135 -6.723 2.088 43.671 -14.893 41.931 -569.929 -14.990 -2984.855 1.570 -2.949 -0.569 -0.09 0.64 -0.76 0.07
1 9.21 921 -0.891 -6.704 2.595 1.740 -4.242 35.126 -674.860 -119.922 -2984.855 1.266 -2.958 -0.999 -0.09 0.64 -0.76 0.07
1 9.22 922 -0.287 -7.585 2.926 -56.580 3.784 26.795 -569.929 -164.893 -3059.957 0.566 -2.084 -1.353 -0.08 0.64 -0.76 0.08
1 9.23 923 0.225 -8.897 2.471 -72.052 4.730 26.550 -569.929 -164.893 -3059.957 0.014 -0.787 -0.988 -0.08 0.65 -0.75 0.08
1 9.24 924 0.397 -10.171 1.911 -58.258 2.838 25.421 -690.000 -29.980 -3149.898 -0.196 0.471 -0.526 -0.08 0.65 -0.75 0.08
1 9.25 925 0.646 -10.918 1.633 -23.834 3.143 29.114 -464.997 -74.951 -2894.914 -0.482 1.208 -0.316 -0.08 0.65 -0.75 0.08
1 9.26 926 0.431 -10.832 1.676 14.160 4.364 33.905 -464.997 -74.951 -2894.914 -0.311 1.119 -0.378 -0.08 0.65 -0.75 0.08
1 9.27 927 -0.172 -9.414 1.815 43.305 3.967 33.692 -704.991 -14.990 -2984.855 0.241 -0.295 -0.484 -0.08 0.65 -0.75 0.08
1 9.28 928 -0.541 -8.552 1.891 39.002 1.251 26.306 -629.890 -89.941 -3104.927 0.560 -1.148 -0.496 -0.07 0.65 -0.75 0.08
1 9.29 929 -0.809 -8.107 1.714 14.282 -0.641 15.717 -464.997 -104.932 -2969.865 0.757 -1.577 -0.211 -0.07 0.65 -0.75 0.09
1 9.30 930 -0.776 -8.040 1.623 -2.258 2.014 14.038 -464.997 -104.932 -2969.865 0.703 -1.641 -0.103 -0.07 0.65 -0.75 0.09
1 9.31 931 -0.910 -8.179 1.279 -12.604 4.883 13.886 -374.906 -119.922 -3029.976 0.817 -1.503 0.234 -0.07 0.65 -0.75 0.09
1 9.32 932 -0.919 -8.629 1.226 -13.977 4.944 13.855 -329.935 -149.902 -3074.947 0.806 -1.056 0.269 -0.07 0.65 -0.75 0.09
1 9.33 933 -0.838 -8.844 0.891 -8.911 2.258 13.733 -329.935 -149.902 -3074.947 0.704 -0.843 0.586 -0.07 0.65 -0.75 0.09
1 9.34 934 -0.690 -8.988 0.833 1.312 -2.533 12.024 -329.935 -29.980 -3194.869 0.534 -0.700 0.633 -0.06 0.65 -0.75 0.09
1 9.35 935 -0.728 -8.916 0.709 6.531 -3.845 9.277 -389.896 29.980 -3014.986 0.549 -0.772 0.756 -0.06 0.65 -0.75 0.09
1 9.36 936 -0.536 -8.710 0.857 6.226 -4.608 5.615 -434.867 -74.951 -2969.865 0.330 -0.975 0.623 -0.06 0.65 -0.75 0.09
1 9.37 937 -0.570 -8.686 0.766 3.143 -4.211 4.608 -434.867 -74.951 -2969.865 0.358 -0.997 0.723 -0.06 0.65 -0.75 0.09
1 9.38 938 -0.522 -8.883 0.843 -7.599 -1.770 0.641 -344.925 -239.994 -2909.904 0.309 -0.801 0.645 -0.06 0.65 -0.75 0.09
1 9.39 939 -0.685 -9.132 0.737 -12.970 -0.854 -1.862 -494.978 -239.994 -2984.855 0.472 -0.554 0.736 -0.06 0.65 -0.75 0.09
1 9.40 940 -0.737 -9.285 0.661 -13.153 -0.336 -4.547 -494.978 -239.994 -2984.855 0.526 -0.405 0.790 -0.06 0.65 -0.75 0.09
1 9.41 941 -0.646 -9.457 0.642 -7.202 -2.319 -9.338 -419.876 -89.941 -3104.927 0.440 -0.236 0.787 -0.06 0.65 -0.75 0.09
1 9.42 942 -0.852 -9.386 0.675 -3.082 -3.845 -12.817 -539.948 -74.951 -3014.986 0.657 -0.310 0.736 -0.06 0.65 -0.75 0.09
1 9.43 943 -0.848 -9.132 0.407 -0.671 -5.585 -15.930 -539.948 -74.951 -3014.986 0.667 -0.566 0.994 -0.06 0.65 -0.75 0.09
1 9.44 944 -0.800 -8.964 0.474 -3.021 -9.766 -20.660 -329.935 -74.951 -3044.966 0.665 -0.736 0.915 -0.06 0.65 -0.75 0.08
1 9.45 945 -0.819 -8.974 0.254 -7.629 -13.397 -23.560 -209.863 -149.902 -3014.986 0.714 -0.728 1.126 -0.07 0.65 -0.75 0.08
1 9.46 946 -0.742 -9.137 0.330 -12.604 -15.564 -26.611 -524.958 -164.893 -3029.976 0.673 -0.568 1.030 -0.07 0.65 -0.75 0.08
1 9.47 947 -0.599 -9.113 0.412 -16.357 -17.304 -27.954 -524.958 -164.893 -3029.976 0.569 -0.596 0.923 -0.07 0.65 -0.75 0.08
1 9.48 948 -0.618 -9.481 0.464 -18.189 -15.442 -28.076 -524.958 -119.922 -2909.904 0.630 -0.231 0.841 -0.07 0.65 -0.75 0.08
1 9.49 949 -0.747 -9.884 0.484 -16.907 -12.817 -26.062 -494.978 -119.922 -3059.957 0.800 0.167 0.791 -0.07 0.66 -0.75 0.08
1 9.50 950 -1.058 -10.209 0.426 -17.426 -9.918 -24.902 -494.978 -119.922 -3059.957 1.150 0.489 0.818 -0.08 0.66 -0.75 0.08
1 9.51 951 -1.197 -10.942 0.335 -16.632 -8.423 -22.034 -599.909 -14.990 -3059.957 1.351 1.215 0.847 -0.08 0.66 -0.74 0.08
1 9.52 952 -1.370 -11.095 -0.019 -14.618 -9.857 -20.264 -449.857 -89.941 -2984.855 1.553 1.365 1.175 -0.08 0.66 -0.74 0.08
1 9.53 953 -1.575 -11.234 -0.215 -13.031 -12.299 -20.966 -659.870 -104.932 -3044.966 1.792 1.502 1.351 -0.08 0.66 -0.74 0.07
1 9.54 954 -1.494 -11.363 -0.527 -9.796 -15.930 -18.524 -659.870 -104.932 -3044.966 1.745 1.631 1.645 -0.08 0.66 -0.74 0.07
1 9.55 955 -1.451 -11.086 -0.527 -6.653 -19.440 -15.961 -569.929 -89.941 -2909.904 1.733 1.352 1.634 -0.08 0.66 -0.74 0.07
1 9.56 956 -1.010 -11.119 0.867 -5.646 -21.301 -12.604 -779.942 -14.990 -3059.957 1.321 1.386 0.232 -0.09 0.66 -0.74 0.07
1 9.57 957 -0.737 -12.139 1.384 -0.366 -15.320 -7.355 -779.942 -14.990 -3059.957 1.073 2.406 -0.292 -0.09 0.66 -0.74 0.07
1 9.58 958 -0.254 -14.064 2.265 -0.763 -11.719 13.489 -599.909 -44.971 -3029.976 0.607 4.331 -1.176 -0.09 0.66 -0.74 0.07
1 9.59 959 0.469 -15.951 3.160 -42.969 -0.824 49.378 -764.952 0.000 -2939.885 -0.171 6.212 -2.104 -0.09 0.66 -0.74 0.08
1 9.60 960 0.627 -15.458 2.519 -24.475 7.324 56.732 -734.971 -74.951 -2939.885 -0.407 5.711 -1.522 -0.09 0.66 -0.74 0.08
1 9.61 961 0.795 -14.299 2.117 5.524 3.845 49.164 -734.971 -74.951 -2939.885 -0.657 4.548 -1.142 -0.08 0.67 -0.74 0.08
1 9.62 962 1.025 -13.073 2.270 15.198 -3.357 36.499 -839.903 -29.980 -2939.885 -0.955 3.323 -1.280 -0.08 0.67 -0.74 0.08
1 9.63 963 1.125 -11.971 2.346 -4.761 0.549 23.468 -614.899 0.000 -2969.865 -1.105 2.224 -1.335 -0.08 0.66 -0.74 0.09
1 9.64 964 0.215 -10.851 2.313 -24.231 12.085 16.144 -614.899 0.000 -2969.865 -0.231 1.103 -1.300 -0.08 0.66 -0.74 0.09
1 9.65 965 -0.321 -10.453 1.959 -32.959 18.585 8.301 -494.978 44.971 -3134.908 0.277 0.703 -0.973 -0.08 0.67 -0.74 0.09
1 9.66 966 -0.718 -9.577 1.437 -19.165 1.129 -3.937 -419.876 119.922 -3104.927 0.649 -0.181 -0.532 -0.07 0.67 -0.73 0.09
1 9.67 967 -0.895 -9.266 1.868 -3.937 -19.104 -13.519 -749.961 119.922 -3029.976 0.834 -0.494 -0.980 -0.07 0.67 -0.73 0.09
1 9.68 968 -0.771 -8.935 2.643 16.266 -32.379 -16.937 -749.961 119.922 -3029.976 0.729 -0.823 -1.746 -0.08 0.67 -0.73 0.09
1 9.69 969 -0.986 -8.145 2.998 39.307 -37.537 -17.639 -599.909 119.922 -2909.904 0.971 -1.609 -2.054 -0.08 0.67 -0.74 0.09
1 9.70 970 -1.015 -7.465 3.050 55.847 -38.574 -16.907 -569.929 89.941 -2909.904 1.030 -2.281 -2.031 -0.08 0.66 -0.74 0.09
1 9.71 971 -0.905 -6.857 3.558 60.669 -42.481 -14.343 -569.929 89.941 -2909.904 0.952 -2.880 -2.451 -0.08 0.66 -0.74 0.09
1 9.72 972 -0.876 -6.441 3.821 55.756 -41.138 -10.071 -614.899 29.980 -2969.865 0.954 -3.285 -2.622 -0.09 0.66 -0.74 0.09
1 9.73 973 -0.225 -5.976 3.601 42.053 -31.708 -2.991 -704.991 -14.990 -3104.927 0.348 -3.728 -2.240 -0.09 0.65 -0.75 0.09
1 9.74 974 0.010 -5.919 3.414 24.384 -18.890 -1.038 -659.870 74.951 -3119.917 0.125 -3.777 -1.995 -0.09 0.65 -0.75 0.1
1 9.75 975 0.364 -6.134 3.237 -2.930 -0.763 -2.655 -659.870 74.951 -3119.917 -0.223 -3.557 -1.790 -0.09 0.65 -0.75 0.1
1 9.76 976 0.445 -6.694 3.079 -37.476 18.555 -7.477 -839.903 -29.980 -3224.999 -0.299 -2.999 -1.647 -0.09 0.65 -0.75 0.1
1 9.77 977 0.388 -7.705 2.701 -72.907 33.478 -13.977 -764.952 -74.951 -3119.917 -0.231 -1.998 -1.336 -0.09 0.65 -0.75 0.09
1 9.78 978 0.249 -10.468 1.791 -107.941 41.046 -21.545 -764.952 -74.951 -3119.917 -0.076 0.749 -0.544 -0.09 0.65 -0.75 0.09
1 9.79 979 0.354 -13.303 0.972 -101.105 27.435 -23.041 -764.952 149.902 -3074.947 -0.156 3.566 0.125 -0.09 0.66 -0.74 0.09
1 9.80 980 0.948 -15.376 2.088 -41.474 -6.500 -16.724 -734.971 224.854 -2969.865 -0.689 5.615 -1.255 -0.09 0.67 -0.73 0.08
1 9.81 981 1.135 -14.912 2.686 -12.085 -12.909 -14.160 -599.909 89.941 -2879.924 -0.850 5.148 -1.892 -0.09 0.67 -0.73 0.08
1 9.82 982 2.241 -11.732 2.940 76.660 -15.747 -12.817 -599.909 89.941 -2879.924 -1.934 1.973 -2.094 -0.09 0.67 -0.73 0.08
1 9.83 983 2.773 -9.716 2.169 112.213 -8.453 -19.409 -734.971 74.951 -2864.934 -2.441 -0.029 -1.191 -0.1 0.66 -0.74 0.08
1 9.84 984 2.715 -8.299 1.288 124.237 -3.876 -21.301 -764.952 149.902 -2939.885 -2.341 -1.425 -0.130 -0.1 0.66 -0.74 0.08
1 9.85 985 2.466 -7.058 1.422 73.609 3.876 -12.939 -764.952 149.902 -2939.885 -2.050 -2.640 -0.081 -0.1 0.65 -0.75 0.08
1 9.86 986 2.160 -6.819 2.112 9.155 7.660 -6.775 -599.909 89.941 -3029.976 -1.721 -2.860 -0.639 -0.1 0.64 -0.75 0.08
1 9.87 987 1.652 -7.384 2.667 -53.864 9.277 -4.822 -599.909 89.941 -3029.976 -1.201 -2.288 -1.154 -0.1 0.64 -0.76 0.08
1 9.88 988 1.082 -9.189 2.356 -101.532 14.130 -12.756 -690.000 -74.951 -3044.966 -0.614 -0.509 -1.025 -0.1 0.65 -0.75 0.07
1 9.89 989 0.690 -10.693 1.733 -84.442 12.939 -18.311 -690.000 -74.951 -3044.966 -0.196 0.979 -0.538 -0.1 0.66 -0.75 0.07
1 9.90 990 0.555 -11.488 1.188 -32.105 6.470 -20.966 -794.932 -224.854 -3119.917 -0.033 1.763 -0.096 -0.1 0.66 -0.74 0.07
1 9.91 991 0.623 -11.330 1.173 30.975 -2.563 -20.935 -869.883 0.000 -3044.966 -0.068 1.604 -0.104 -0.1 0.66 -0.74 0.07
1 9.92 992 0.982 -9.716 1.484 96.039 -9.979 -19.684 -869.883 0.000 -3044.966 -0.394 0.000 -0.347 -0.1 0.66 -0.74 0.07
1 9.93 993 1.226 -8.605 1.753 103.760 -6.317 -18.402 -749.961 44.971 -2954.875 -0.605 -1.092 -0.482 -0.1 0.65 -0.75 0.07
1 9.94 994 1.326 -7.475 1.714 84.656 1.038 -18.524 -749.961 44.971 -2954.875 -0.672 -2.198 -0.287 -0.1 0.65 -0.75 0.07
1 9.95 995 1.221 -6.838 1.599 24.231 12.512 -17.944 -914.854 0.000 -3194.869 -0.508 -2.795 0.052 -0.1 0.64 -0.76 0.07
1 9.96 996 1.159 -7.082 1.461 -16.968 14.984 -17.120 -914.854 0.000 -3194.869 -0.422 -2.545 0.214 -0.1 0.64 -0.76 0.06
