COL1	TIME	ACC_X	ACC_Y	ACC_Z	GYR_X	GYR_Y	GYR_Z	MAG_X	MAG_Y	MAG_Z	LACC_X	LACC_Y	LACC_Z	QUAT_X	QUAT_Y	QUAT_Z	QUAT_W
1 0.00 0 -0.091 -10.693 3.601 3.662 -10.315 2.441 -301.753 2534.249 -3537.695 0.536 1.239 -1.059 -0.04 0.61 -0.79 0.02
1 0.01 1 -0.527 -10.549 3.261 14.343 -5.890 6.775 -316.744 2564.229 -3627.637 0.970 1.097 -0.711 -0.05 0.61 -0.79 0.02
1 0.02 2 -1.034 -9.912 2.524 40.527 -2.991 12.909 -316.744 2564.229 -3627.637 1.468 0.467 0.053 -0.04 0.61 -0.79 0.02
1 0.03 3 -1.092 -10.080 2.265 44.891 -9.033 13.367 -316.744 2744.262 -3552.686 1.499 0.648 0.364 -0.04 0.6 -0.8 0.02
1 0.04 4 0.057 -10.276 2.318 24.078 -27.008 20.111 -376.705 2609.200 -3672.607 0.298 0.873 0.419 -0.04 0.6 -0.8 0.03
1 0.05 5 0.766 -10.070 2.959 16.907 -25.330 25.055 -376.705 2609.200 -3672.607 -0.435 0.673 -0.198 -0.04 0.6 -0.8 0.03
1 0.06 6 0.613 -9.649 2.921 20.538 -13.062 26.672 -466.646 2504.269 -3492.725 -0.307 0.258 -0.138 -0.04 0.6 -0.8 0.03
1 0.07 7 0.077 -9.280 2.615 32.440 0.977 27.832 -466.646 2504.269 -3492.725 0.197 -0.102 0.202 -0.04 0.6 -0.8 0.03
1 0.08 8 -0.977 -9.041 1.609 41.321 -2.319 23.346 -331.734 2579.220 -3642.627 1.211 -0.328 1.258 -0.04 0.59 -0.8 0.04
1 0.09 9 -1.058 -8.844 1.580 35.034 -21.210 20.050 -331.734 2579.220 -3642.627 1.252 -0.508 1.341 -0.04 0.59 -0.8 0.04
1 0.10 10 -0.915 -8.691 1.762 23.254 -36.926 18.311 -436.666 2504.269 -3702.588 1.076 -0.648 1.203 -0.04 0.59 -0.81 0.04
1 0.11 11 -0.469 -8.667 1.863 18.555 -41.535 18.158 -301.753 2579.220 -3777.689 0.610 -0.663 1.130 -0.04 0.59 -0.81 0.04
1 0.12 12 -0.374 -8.490 1.858 24.719 -36.102 17.151 -301.753 2579.220 -3777.689 0.489 -0.827 1.177 -0.04 0.59 -0.81 0.05
1 0.13 13 -0.086 -7.935 1.623 32.593 -33.661 15.656 -331.734 2354.216 -3597.656 0.194 -1.370 1.450 -0.04 0.58 -0.81 0.05
1 0.14 14 0.335 -7.413 1.355 37.323 -35.095 11.871 -331.734 2354.216 -3597.656 -0.232 -1.876 1.766 -0.05 0.58 -0.81 0.06
1 0.15 15 1.082 -6.991 1.494 35.309 -38.635 5.585 -511.767 2384.197 -3747.708 -0.977 -2.280 1.680 -0.05 0.58 -0.81 0.06
1 0.16 16 2.145 -7.154 2.140 17.883 -35.706 -3.723 -511.767 2384.197 -3747.708 -2.026 -2.101 1.080 -0.05 0.58 -0.81 0.06
1 0.17 17 2.825 -7.724 2.773 -14.252 -29.968 -7.050 -436.666 2429.167 -3822.660 -2.684 -1.520 0.479 -0.05 0.58 -0.81 0.06
1 0.18 18 2.959 -8.399 2.983 -51.605 -19.440 -6.592 -376.705 2384.197 -3777.689 -2.793 -0.847 0.260 -0.05 0.58 -0.81 0.06
1 0.19 19 2.078 -9.539 2.509 -69.641 -4.822 -6.439 -376.705 2384.197 -3777.689 -1.845 0.240 0.576 -0.06 0.58 -0.81 0.06
1 0.20 20 1.288 -10.329 1.915 -50.812 -9.369 -6.470 -436.666 2384.197 -3702.588 -1.029 0.999 1.073 -0.06 0.59 -0.81 0.06
1 0.21 21 0.814 -10.592 2.006 -21.912 -20.935 -5.096 -436.666 2384.197 -3702.588 -0.531 1.241 0.911 -0.06 0.59 -0.8 0.06
1 0.22 22 1.111 -10.161 2.064 -0.488 -34.241 -5.157 -511.767 2534.249 -3597.656 -0.807 0.802 0.825 -0.06 0.59 -0.8 0.06
1 0.23 23 2.495 -9.438 2.969 -2.777 -39.490 -6.165 -511.767 2534.249 -3597.656 -2.161 0.077 -0.087 -0.07 0.59 -0.8 0.06
1 0.24 24 2.998 -9.376 3.256 -21.454 -25.024 -5.859 -466.646 2534.249 -3642.627 -2.627 0.015 -0.381 -0.07 0.59 -0.8 0.06
1 0.25 25 2.902 -9.836 3.472 -38.391 -2.716 -3.540 -541.747 2534.249 -3672.607 -2.492 0.469 -0.620 -0.07 0.59 -0.8 0.06
1 0.26 26 1.757 -10.453 3.026 -37.537 22.095 0.580 -541.747 2534.249 -3672.607 -1.322 1.056 -0.282 -0.07 0.6 -0.8 0.06
1 0.27 27 0.776 -10.530 2.801 -20.477 24.201 1.007 -526.757 2444.158 -3732.718 -0.352 1.118 -0.104 -0.07 0.6 -0.8 0.06
1 0.28 28 0.110 -10.415 2.629 -3.723 16.754 -0.732 -526.757 2444.158 -3732.718 0.303 0.996 0.046 -0.07 0.6 -0.8 0.06
1 0.29 29 -0.259 -10.046 2.615 7.690 6.317 -1.007 -481.636 2564.229 -3657.617 0.666 0.627 0.059 -0.07 0.6 -0.8 0.06
1 0.30 30 -0.029 -9.548 2.729 7.935 -5.371 1.892 -391.695 2519.259 -3687.598 0.431 0.132 -0.044 -0.07 0.6 -0.8 0.06
1 0.31 31 0.460 -9.424 2.945 -0.183 -7.507 6.683 -466.646 2609.200 -3672.607 -0.061 0.011 -0.247 -0.07 0.6 -0.8 0.06
1 0.32 32 0.948 -9.290 3.084 -7.721 -4.150 12.451 -541.747 2609.200 -3597.656 -0.557 -0.123 -0.383 -0.07 0.6 -0.8 0.06
1 0.33 33 1.446 -9.060 3.026 -7.935 5.829 15.778 -541.747 2609.200 -3597.656 -1.084 -0.359 -0.343 -0.07 0.6 -0.8 0.06
1 0.34 34 1.456 -8.902 2.830 -1.648 9.796 13.580 -511.767 2504.269 -3537.695 -1.111 -0.519 -0.152 -0.07 0.6 -0.8 0.06
1 0.35 35 1.154 -8.763 2.389 4.334 8.423 7.996 -511.767 2504.269 -3537.695 -0.823 -0.657 0.291 -0.07 0.6 -0.8 0.06
1 0.36 36 1.020 -8.710 2.179 5.951 1.404 2.228 -571.728 2609.350 -3461.995 -0.694 -0.708 0.510 -0.06 0.6 -0.8 0.06
1 0.37 37 1.121 -8.543 2.260 -1.709 -7.019 -2.655 -601.858 2519.409 -3657.018 -0.789 -0.874 0.434 -0.06 0.6 -0.8 0.06
1 0.38 38 1.446 -8.912 2.763 -21.301 -8.911 -3.723 -541.747 2684.301 -3702.138 -1.101 -0.507 -0.078 -0.07 0.6 -0.8 0.06
1 0.39 39 1.494 -9.429 2.974 -32.318 -1.465 -2.350 -436.815 2534.399 -3672.008 -1.132 0.003 -0.316 -0.07 0.6 -0.8 0.06
1 0.40 40 1.403 -10.204 2.734 -28.504 13.306 2.197 -436.815 2534.399 -3672.008 -1.021 0.755 -0.164 -0.07 0.6 -0.79 0.06
1 0.41 41 1.274 -10.152 2.571 -21.301 14.984 4.059 -511.767 2684.301 -3461.995 -0.895 0.693 -0.036 -0.07 0.61 -0.79 0.06
1 0.42 42 0.761 -9.850 2.380 4.272 15.381 3.754 -511.767 2684.301 -3461.995 -0.389 0.388 0.144 -0.07 0.61 -0.79 0.05
1 0.43 43 0.661 -9.577 2.528 11.322 10.651 2.502 -391.845 2639.331 -3657.018 -0.295 0.117 0.004 -0.06 0.61 -0.79 0.05
1 0.44 44 0.464 -9.180 2.749 2.869 6.042 1.465 -571.728 2729.422 -3417.024 -0.104 -0.276 -0.201 -0.06 0.6 -0.79 0.05
1 0.45 45 0.412 -9.036 2.734 -8.667 6.042 2.045 -451.806 2564.379 -3552.086 -0.054 -0.418 -0.178 -0.06 0.6 -0.79 0.05
1 0.46 46 0.546 -8.945 2.591 -17.761 7.019 3.265 -556.737 2489.428 -3627.037 -0.191 -0.511 -0.041 -0.06 0.6 -0.79 0.05
1 0.47 47 0.464 -9.141 2.495 -20.660 8.118 3.601 -556.737 2489.428 -3627.037 -0.116 -0.320 0.034 -0.06 0.61 -0.79 0.05
1 0.48 48 0.402 -9.429 2.370 -17.822 8.179 3.815 -421.825 2519.409 -3507.115 -0.068 -0.048 0.103 -0.06 0.61 -0.79 0.05
1 0.49 49 0.632 -9.309 2.452 -12.146 6.195 2.838 -421.825 2519.409 -3507.115 -0.305 -0.174 -0.002 -0.06 0.61 -0.79 0.05
1 0.50 50 0.517 -9.323 2.461 -11.383 5.249 1.526 -421.825 2564.379 -3552.086 -0.194 -0.164 -0.028 -0.06 0.61 -0.79 0.05
1 0.51 51 0.575 -9.376 2.471 -13.275 4.089 1.190 -391.845 2669.311 -3477.135 -0.253 -0.116 -0.053 -0.06 0.61 -0.79 0.05
1 0.52 52 0.781 -9.496 2.480 -15.900 5.219 2.228 -331.734 2654.321 -3597.057 -0.460 -0.001 -0.082 -0.06 0.61 -0.79 0.05
1 0.53 53 1.001 -9.639 2.504 -15.656 8.881 1.831 -466.796 2684.301 -3567.076 -0.682 0.137 -0.128 -0.06 0.61 -0.79 0.05
1 0.54 54 1.116 -9.486 2.375 -13.580 11.932 0.153 -466.796 2684.301 -3567.076 -0.798 -0.021 -0.020 -0.06 0.61 -0.79 0.05
1 0.55 55 0.919 -9.433 2.236 -10.010 13.062 -0.702 -316.744 2744.412 -3447.004 -0.600 -0.083 0.084 -0.06 0.62 -0.78 0.05
1 0.56 56 0.934 -9.414 2.289 -8.270 11.047 -2.594 -316.744 2744.412 -3447.004 -0.613 -0.105 0.018 -0.06 0.62 -0.78 0.05
1 0.57 57 0.804 -9.529 2.265 -8.087 7.111 -2.869 -376.854 2579.370 -3537.096 -0.479 0.007 0.031 -0.06 0.62 -0.78 0.04
1 0.58 58 0.881 -9.558 2.217 -12.787 5.127 -3.021 -466.796 2804.373 -3537.096 -0.550 0.033 0.065 -0.06 0.62 -0.78 0.04
1 0.59 59 1.082 -9.606 2.313 -16.693 6.134 -3.021 -511.767 2684.301 -3567.076 -0.744 0.077 -0.051 -0.06 0.62 -0.78 0.04
1 0.60 60 1.149 -9.740 2.303 -16.357 8.514 -2.960 -436.815 2759.402 -3537.096 -0.804 0.205 -0.064 -0.06 0.62 -0.78 0.04
1 0.61 61 1.073 -9.783 2.112 -14.557 11.505 -2.228 -436.815 2759.402 -3537.096 -0.720 0.243 0.103 -0.06 0.62 -0.78 0.04
1 0.62 62 0.690 -9.807 2.217 -12.878 13.123 -2.960 -556.737 2864.334 -3477.135 -0.326 0.258 -0.043 -0.06 0.62 -0.78 0.04
1 0.63 63 0.560 -9.917 2.198 -11.139 11.566 -3.021 -556.737 2864.334 -3477.135 -0.194 0.364 -0.042 -0.06 0.62 -0.78 0.04
1 0.64 64 0.512 -9.850 2.140 -11.749 9.277 -3.021 -451.806 2669.311 -3342.073 -0.142 0.294 -0.000 -0.05 0.62 -0.78 0.04
1 0.65 65 0.498 -9.845 2.174 -9.918 8.118 -2.167 -451.806 2669.311 -3477.135 -0.125 0.286 -0.050 -0.05 0.62 -0.78 0.04
1 0.66 66 0.555 -9.836 2.093 -7.385 8.911 -1.831 -526.757 2669.311 -3402.034 -0.181 0.273 0.018 -0.05 0.62 -0.78 0.04
1 0.67 67 0.632 -9.668 2.107 -2.655 11.658 -1.251 -466.796 2834.354 -3417.024 -0.257 0.103 -0.006 -0.05 0.62 -0.78 0.04
1 0.68 68 0.800 -9.539 2.145 -3.571 13.733 -0.916 -466.796 2834.354 -3417.024 -0.425 -0.027 -0.049 -0.05 0.62 -0.78 0.04
1 0.69 69 0.819 -9.673 2.222 -6.958 15.289 -0.458 -361.864 2744.412 -3582.066 -0.444 0.106 -0.130 -0.05 0.62 -0.78 0.03
1 0.70 70 0.790 -9.433 2.303 -9.644 18.494 0.793 -361.864 2744.412 -3582.066 -0.419 -0.137 -0.228 -0.05 0.63 -0.78 0.03
1 0.71 71 0.752 -9.654 2.188 -8.362 18.585 0.793 -361.864 2744.412 -3372.053 -0.384 0.081 -0.125 -0.05 0.63 -0.78 0.03
1 0.72 72 0.618 -9.697 2.030 -7.019 18.890 0.610 -436.815 2909.305 -3282.112 -0.254 0.121 0.023 -0.05 0.63 -0.78 0.03
1 0.73 73 0.479 -9.587 1.973 -3.998 16.113 0.183 -391.845 2819.363 -3342.073 -0.120 0.009 0.072 -0.05 0.63 -0.78 0.03
1 0.74 74 0.488 -9.419 1.915 -1.526 11.292 -0.824 -391.845 2669.311 -3342.073 -0.133 -0.159 0.125 -0.05 0.63 -0.78 0.03
1 0.75 75 0.565 -9.410 1.848 -2.594 8.179 -0.580 -391.845 2669.311 -3342.073 -0.212 -0.170 0.189 -0.05 0.63 -0.78 0.03
1 0.76 76 0.680 -9.371 1.959 -5.310 6.836 -0.610 -451.806 2864.334 -3477.135 -0.328 -0.209 0.076 -0.05 0.63 -0.78 0.03
1 0.77 77 0.709 -9.414 1.963 -11.231 8.026 -0.610 -451.806 2864.334 -3477.135 -0.355 -0.170 0.052 -0.05 0.63 -0.78 0.03
1 0.78 78 0.761 -9.486 1.968 -14.496 8.728 -1.740 -421.825 2894.314 -3552.086 -0.406 -0.101 0.030 -0.04 0.63 -0.78 0.03
1 0.79 79 0.785 -9.635 1.915 -15.869 10.071 -2.197 -316.744 2894.314 -3402.034 -0.427 0.043 0.060 -0.04 0.63 -0.77 0.03
1 0.80 80 0.584 -9.577 1.863 -13.550 10.223 -1.770 -241.792 2864.334 -3402.034 -0.223 -0.019 0.090 -0.04 0.63 -0.77 0.02
1 0.81 81 0.579 -9.635 1.901 -10.742 10.376 -2.014 -241.792 2864.334 -3402.034 -0.216 0.034 0.033 -0.04 0.63 -0.77 0.02
1 0.82 82 0.541 -9.773 1.858 -9.003 9.277 -2.899 -242.992 3014.686 -3443.856 -0.176 0.170 0.062 -0.04 0.63 -0.77 0.02
1 0.83 83 0.488 -9.501 1.877 -9.430 8.881 -2.777 -422.875 2819.663 -3293.804 -0.120 -0.105 0.030 -0.04 0.63 -0.77 0.02
1 0.84 84 0.350 -9.682 1.853 -10.498 8.667 -1.617 -422.875 2819.663 -3293.804 0.022 0.072 0.026 -0.04 0.63 -0.77 0.02
1 0.85 85 0.306 -9.659 1.906 -9.857 7.813 -1.465 -452.855 2864.784 -3368.905 0.065 0.045 -0.041 -0.04 0.63 -0.77 0.02
1 0.86 86 0.249 -9.783 2.030 -8.179 5.554 -1.312 -287.962 2894.764 -3368.905 0.122 0.167 -0.179 -0.04 0.64 -0.77 0.02
1 0.87 87 0.105 -9.754 2.078 -5.554 4.181 -1.068 -287.962 2894.764 -3368.905 0.264 0.136 -0.237 -0.04 0.64 -0.77 0.02
1 0.88 88 0.297 -9.802 1.968 -3.540 -0.366 -2.319 -392.894 2894.764 -3188.873 0.071 0.183 -0.133 -0.04 0.64 -0.77 0.02
1 0.89 89 0.378 -10.022 1.824 -3.448 -1.709 -2.472 -392.894 2894.764 -3188.873 -0.009 0.402 0.006 -0.04 0.64 -0.77 0.02
1 0.90 90 0.560 -9.946 1.973 -4.089 -3.723 -2.167 -152.900 2954.725 -3353.915 -0.187 0.325 -0.148 -0.04 0.64 -0.77 0.02
1 0.91 91 0.575 -10.070 2.102 -4.517 -4.059 -2.991 -152.900 2954.725 -3353.915 -0.196 0.448 -0.283 -0.04 0.64 -0.77 0.02
1 0.92 92 0.694 -10.415 2.303 -7.874 -3.082 -5.524 -227.852 3029.676 -3278.814 -0.302 0.791 -0.497 -0.04 0.64 -0.77 0.02
1 0.93 93 0.584 -10.516 2.203 -6.439 -4.547 -8.423 -272.972 2954.725 -3278.814 -0.180 0.890 -0.405 -0.04 0.64 -0.77 0.02
1 0.94 94 0.680 -10.635 2.040 -0.275 -7.935 -8.484 -272.972 2954.725 -3278.814 -0.261 1.009 -0.250 -0.04 0.64 -0.77 0.02
1 0.95 95 0.637 -10.573 1.762 10.376 -11.566 -9.277 -302.953 2984.706 -3308.794 -0.203 0.948 0.030 -0.04 0.64 -0.77 0.02
1 0.96 96 0.546 -10.482 1.772 21.820 -15.625 -9.674 -302.953 2984.706 -3308.794 -0.094 0.861 0.037 -0.04 0.64 -0.77 0.02
1 0.97 97 0.302 -10.195 1.820 23.285 -17.212 -10.803 -317.943 3044.667 -3263.824 0.169 0.580 0.016 -0.05 0.64 -0.77 0.02
1 0.98 98 0.354 -9.893 1.614 23.926 -18.829 -11.383 -317.943 3044.667 -3263.824 0.137 0.285 0.253 -0.05 0.63 -0.77 0.02
1 0.99 99 0.498 -9.682 1.700 21.637 -22.125 -10.193 -437.865 2984.706 -3203.863 0.035 0.089 0.228 -0.05 0.63 -0.77 0.02
1 1.00 100 0.872 -9.544 1.767 19.592 -24.384 -8.148 -437.865 2909.754 -3248.833 -0.318 -0.043 0.188 -0.05 0.63 -0.77 0.02
1 1.01 101 1.106 -9.510 1.767 17.517 -24.231 -6.836 -437.865 2909.754 -3248.833 -0.532 -0.071 0.212 -0.05 0.63 -0.77 0.02
1 1.02 102 1.417 -9.390 1.844 17.029 -22.278 -4.242 -422.875 2789.683 -3263.824 -0.823 -0.185 0.158 -0.06 0.63 -0.78 0.02
1 1.03 103 1.848 -9.486 1.982 15.991 -16.785 -2.350 -422.875 2789.683 -3263.824 -1.236 -0.083 0.041 -0.06 0.63 -0.78 0.02
1 1.04 104 1.982 -9.491 2.145 14.771 -12.756 0.000 -437.865 2879.774 -3383.896 -1.353 -0.073 -0.101 -0.06 0.63 -0.78 0.02
1 1.05 105 2.231 -9.433 2.198 14.191 -9.491 1.617 -437.865 2879.774 -3383.896 -1.587 -0.125 -0.133 -0.06 0.63 -0.78 0.02
1 1.06 106 1.997 -9.433 2.174 15.411 -6.287 3.906 -437.865 2729.722 -3308.794 -1.331 -0.114 -0.067 -0.06 0.62 -0.78 0.02
1 1.07 107 2.045 -9.381 2.140 17.975 -4.517 4.272 -482.985 2864.784 -3338.775 -1.373 -0.161 -0.010 -0.06 0.62 -0.78 0.02
1 1.08 108 2.069 -9.328 2.121 19.287 -3.876 3.906 -482.985 2864.784 -3338.775 -1.391 -0.207 0.036 -0.06 0.62 -0.78 0.02
1 1.09 109 2.136 -9.252 2.030 20.233 -3.998 4.272 -452.855 2864.784 -3368.905 -1.452 -0.277 0.155 -0.06 0.62 -0.78 0.02
1 1.10 110 2.054 -9.184 1.844 19.013 -2.441 2.350 -392.894 2819.663 -3398.886 -1.364 -0.337 0.370 -0.06 0.62 -0.78 0.02
1 1.11 111 1.906 -9.261 1.848 15.350 -1.892 -0.732 -572.927 2759.702 -3563.778 -1.208 -0.254 0.392 -0.06 0.62 -0.78 0.02
1 1.12 112 1.772 -9.481 2.021 10.498 -2.655 -3.876 -572.927 2759.702 -3563.778 -1.063 -0.028 0.240 -0.06 0.62 -0.78 0.02
1 1.13 113 1.499 -9.831 2.136 5.829 -7.172 -8.057 -467.995 2834.653 -3533.798 -0.758 0.329 0.147 -0.07 0.62 -0.78 0.02
1 1.14 114 1.499 -9.893 2.179 10.162 -9.888 -8.453 -512.966 2804.673 -3413.876 -0.738 0.395 0.111 -0.07 0.62 -0.79 0.02
1 1.15 115 1.470 -9.912 2.231 18.127 -9.125 -8.453 -512.966 2804.673 -3413.876 -0.687 0.419 0.073 -0.07 0.61 -0.79 0.02
1 1.16 116 1.504 -9.802 2.026 26.520 -6.653 -7.446 -527.956 2939.735 -3443.856 -0.700 0.318 0.306 -0.07 0.61 -0.79 0.02
1 1.17 117 1.326 -9.678 2.117 31.952 -3.601 -5.737 -527.956 2744.712 -3443.856 -0.506 0.204 0.253 -0.07 0.61 -0.79 0.02
1 1.18 118 1.159 -9.544 2.169 31.433 -1.526 -3.418 -482.985 2669.761 -3548.788 -0.325 0.082 0.244 -0.07 0.61 -0.79 0.02
1 1.19 119 1.168 -9.477 2.246 25.848 -2.716 -0.641 -482.985 2669.761 -3548.788 -0.327 0.027 0.211 -0.07 0.61 -0.79 0.02
1 1.20 120 1.111 -9.721 2.093 19.836 -5.585 2.258 -482.985 2789.683 -3443.856 -0.262 0.289 0.430 -0.07 0.61 -0.79 0.02
1 1.21 121 1.173 -9.908 2.030 20.355 -7.385 3.021 -572.927 2804.673 -3533.798 -0.324 0.483 0.517 -0.07 0.6 -0.79 0.02
1 1.22 122 1.188 -9.912 2.064 25.818 -9.888 2.838 -572.927 2804.673 -3533.798 -0.337 0.494 0.509 -0.07 0.6 -0.79 0.02
1 1.23 123 1.365 -9.807 2.231 35.401 -10.468 3.815 -482.985 2714.731 -3548.788 -0.511 0.399 0.376 -0.07 0.6 -0.8 0.02
1 1.24 124 1.322 -9.395 2.413 43.183 -8.881 8.026 -512.966 2804.673 -3563.778 -0.468 0.001 0.242 -0.07 0.6 -0.8 0.02
1 1.25 125 1.245 -9.199 2.567 41.382 -6.378 11.108 -543.246 2579.969 -3562.579 -0.394 -0.180 0.145 -0.07 0.6 -0.8 0.02
1 1.26 126 0.895 -9.141 2.509 34.332 -4.181 11.108 -543.246 2579.969 -3562.579 -0.053 -0.221 0.260 -0.07 0.59 -0.8 0.02
1 1.27 127 0.742 -9.189 2.212 26.611 -4.395 11.780 -543.246 2505.018 -3667.511 0.089 -0.160 0.606 -0.07 0.59 -0.8 0.02
1 1.28 128 0.330 -9.357 2.294 21.973 -9.613 13.672 -438.165 2505.018 -3637.530 0.471 0.025 0.590 -0.07 0.59 -0.8 0.03
1 1.29 129 0.225 -9.419 2.203 25.574 -13.275 14.099 -438.165 2505.018 -3637.530 0.558 0.094 0.708 -0.07 0.59 -0.8 0.03
1 1.30 130 0.168 -9.682 2.150 28.107 -14.801 14.496 -618.197 2579.969 -3697.491 0.597 0.366 0.792 -0.07 0.59 -0.81 0.03
1 1.31 131 -0.024 -10.061 2.126 23.407 -17.944 18.219 -618.197 2459.897 -3637.530 0.769 0.753 0.847 -0.07 0.59 -0.81 0.03
1 1.32 132 0.527 -9.845 2.801 20.020 -19.348 29.266 -573.227 2534.999 -3592.560 0.193 0.542 0.194 -0.07 0.59 -0.81 0.03
1 1.33 133 0.939 -9.285 2.758 33.569 -12.390 33.356 -573.227 2534.999 -3592.560 -0.253 -0.014 0.257 -0.07 0.58 -0.81 0.04
1 1.34 134 1.053 -8.811 2.926 47.241 0.153 30.090 -513.266 2534.999 -3697.491 -0.408 -0.479 0.126 -0.07 0.58 -0.81 0.04
1 1.35 135 0.828 -8.505 3.160 46.875 9.705 20.020 -648.178 2459.897 -3637.530 -0.260 -0.746 0.024 -0.07 0.58 -0.81 0.04
1 1.36 136 0.666 -8.447 3.103 33.356 4.822 15.595 -648.178 2459.897 -3637.530 -0.126 -0.783 0.146 -0.06 0.57 -0.81 0.04
1 1.37 137 0.699 -8.591 3.170 18.066 -6.012 12.634 -558.236 2444.907 -3682.501 -0.179 -0.626 0.121 -0.06 0.57 -0.82 0.04
1 1.38 138 1.025 -8.854 3.213 4.974 -13.916 10.712 -753.259 2459.897 -3742.462 -0.517 -0.356 0.098 -0.06 0.57 -0.82 0.05
1 1.39 139 1.633 -9.692 3.567 -8.026 -13.489 8.789 -573.227 2609.950 -3742.462 -1.129 0.483 -0.254 -0.06 0.57 -0.82 0.05
1 1.40 140 1.619 -10.171 3.232 -4.913 -3.876 8.606 -573.227 2609.950 -3742.462 -1.113 0.958 0.070 -0.07 0.57 -0.82 0.05
1 1.41 141 1.106 -10.070 2.868 7.782 8.331 11.139 -483.285 2369.956 -3682.501 -0.601 0.854 0.424 -0.07 0.57 -0.82 0.05
1 1.42 142 0.172 -9.563 2.236 23.560 16.144 15.564 -603.207 2219.904 -3757.452 0.296 0.354 1.082 -0.06 0.57 -0.82 0.05
1 1.43 143 -0.924 -9.132 1.944 16.968 7.782 17.487 -603.207 2219.904 -3757.452 1.359 -0.070 1.399 -0.06 0.57 -0.82 0.05
1 1.44 144 -0.862 -9.146 2.112 2.136 -3.815 18.890 -633.188 2444.907 -3682.501 1.259 -0.054 1.241 -0.06 0.57 -0.82 0.05
1 1.45 145 -0.608 -9.228 2.524 -7.904 -9.003 17.700 -408.184 2280.015 -3667.511 0.973 0.023 0.819 -0.06 0.57 -0.82 0.05
1 1.46 146 -0.464 -10.070 2.720 -8.087 -6.928 15.808 -393.194 2369.956 -3832.553 0.802 0.858 0.605 -0.06 0.57 -0.82 0.05
1 1.47 147 -0.570 -10.583 2.686 1.953 -1.648 19.379 -393.194 2369.956 -3832.553 0.882 1.364 0.623 -0.06 0.57 -0.82 0.06
1 1.48 148 -0.804 -10.109 2.706 14.526 0.153 24.109 -468.145 2384.946 -3772.592 1.089 0.887 0.600 -0.06 0.57 -0.82 0.06
1 1.49 149 -1.192 -9.730 2.394 28.229 -0.519 26.581 -453.155 2520.008 -3832.553 1.440 0.513 0.924 -0.06 0.57 -0.82 0.06
1 1.50 150 -1.216 -9.323 2.495 25.269 -6.805 31.036 -453.155 2520.008 -3832.553 1.370 0.127 0.888 -0.05 0.57 -0.82 0.06
1 1.51 151 -0.900 -9.103 2.696 13.336 -9.094 34.302 -468.145 2384.946 -3772.592 1.003 -0.085 0.711 -0.05 0.57 -0.82 0.07
1 1.52 152 -0.570 -9.390 2.720 6.409 -6.897 36.133 -423.174 2265.024 -3727.472 0.620 0.206 0.699 -0.05 0.57 -0.82 0.07
1 1.53 153 0.005 -9.376 2.658 8.789 -3.387 38.818 -483.285 2444.907 -3832.553 -0.008 0.193 0.766 -0.05 0.57 -0.82 0.07
1 1.54 154 0.532 -9.022 2.284 18.890 1.740 37.995 -483.285 2444.907 -3832.553 -0.590 -0.157 1.148 -0.05 0.57 -0.82 0.07
1 1.55 155 0.699 -8.586 2.054 24.780 1.068 32.745 -333.233 2459.897 -3742.462 -0.809 -0.586 1.396 -0.05 0.57 -0.82 0.08
1 1.56 156 0.876 -8.294 2.045 24.933 -1.099 24.933 -393.194 2369.956 -3682.501 -1.030 -0.868 1.431 -0.04 0.57 -0.82 0.08
1 1.57 157 1.025 -8.150 2.126 14.801 -1.923 16.022 -393.194 2369.956 -3682.501 -1.240 -0.987 1.410 -0.04 0.56 -0.82 0.08
1 1.58 158 1.053 -8.078 2.337 5.432 3.784 12.695 -483.285 2339.976 -3787.583 -1.290 -1.051 1.217 -0.04 0.56 -0.82 0.08
1 1.59 159 0.627 -8.260 2.437 -3.754 11.749 8.057 -408.184 2280.015 -3697.491 -0.883 -0.867 1.121 -0.04 0.56 -0.82 0.08
1 1.60 160 0.168 -8.629 2.366 -9.766 15.625 5.585 -378.204 2354.966 -3877.524 -0.441 -0.501 1.185 -0.04 0.56 -0.82 0.08
1 1.61 161 -0.426 -9.055 2.389 -8.392 15.076 1.556 -378.204 2354.966 -3877.524 0.139 -0.082 1.143 -0.04 0.56 -0.82 0.08
1 1.62 162 -0.709 -9.338 2.413 -4.425 13.458 0.458 -393.194 2295.005 -3832.553 0.411 0.193 1.098 -0.04 0.57 -0.82 0.08
1 1.63 163 -0.958 -9.319 2.524 -1.434 14.404 0.031 -468.145 2309.995 -3817.563 0.650 0.168 0.971 -0.04 0.57 -0.82 0.08
1 1.64 164 -1.197 -9.213 2.351 -0.244 15.900 1.343 -468.145 2309.995 -3817.563 0.865 0.056 1.124 -0.03 0.57 -0.82 0.08
1 1.65 165 -1.288 -8.993 2.212 1.129 14.526 2.655 -363.213 2219.904 -3832.553 0.939 -0.166 1.255 -0.03 0.57 -0.82 0.08
1 1.66 166 -1.231 -8.763 2.126 0.061 11.322 2.716 -423.174 2265.024 -3787.583 0.864 -0.398 1.336 -0.03 0.57 -0.82 0.08
1 1.67 167 -1.212 -8.691 1.877 -5.127 9.827 1.495 -423.174 2265.024 -3787.583 0.828 -0.472 1.576 -0.03 0.57 -0.82 0.08
1 1.68 168 -0.963 -8.428 1.609 -15.595 8.667 -2.594 -213.161 2295.005 -3907.504 0.566 -0.742 1.825 -0.03 0.57 -0.82 0.08
1 1.69 169 -0.939 -8.543 1.480 -23.102 7.690 -5.371 -303.252 2309.995 -3772.592 0.540 -0.635 1.934 -0.03 0.57 -0.82 0.08
1 1.70 170 -0.795 -8.768 1.528 -29.419 6.134 -8.270 -363.213 2219.904 -3862.534 0.399 -0.421 1.856 -0.03 0.57 -0.82 0.08
1 1.71 171 -0.752 -9.094 1.743 -36.133 4.761 -12.909 -363.213 2219.904 -3862.534 0.363 -0.110 1.601 -0.03 0.57 -0.82 0.08
1 1.72 172 -0.642 -9.309 1.575 -36.926 3.510 -22.797 -363.213 2369.956 -3787.583 0.284 0.060 1.645 -0.03 0.58 -0.81 0.07
1 1.73 173 -0.589 -9.414 1.566 -32.623 3.143 -29.602 -303.252 2309.995 -3667.511 0.262 0.143 1.593 -0.03 0.58 -0.81 0.07
1 1.74 174 -0.594 -9.371 1.571 -27.374 4.272 -35.126 -303.252 2309.995 -3667.511 0.307 0.080 1.532 -0.03 0.58 -0.81 0.07
1 1.75 175 -0.967 -9.496 1.470 -24.628 5.463 -38.635 -318.243 2295.005 -3682.501 0.727 0.187 1.585 -0.03 0.59 -0.81 0.07
1 1.76 176 -1.312 -9.496 1.283 -24.262 7.324 -43.640 -273.272 2534.999 -3592.560 1.121 0.171 1.725 -0.04 0.59 -0.81 0.07
1 1.77 177 -1.451 -9.280 1.092 -25.452 7.599 -46.478 -393.194 2295.005 -3652.521 1.310 -0.060 1.870 -0.04 0.59 -0.8 0.06
1 1.78 178 -1.729 -9.419 1.049 -27.710 6.866 -48.493 -393.194 2295.005 -3652.521 1.641 0.063 1.865 -0.04 0.59 -0.8 0.06
1 1.79 179 -1.848 -9.663 1.068 -32.806 6.714 -48.645 -318.243 2490.028 -3622.540 1.869 0.274 1.740 -0.04 0.6 -0.8 0.05
1 1.80 180 -1.935 -9.841 1.355 -39.063 5.707 -46.997 -423.174 2520.008 -3547.589 2.008 0.433 1.391 -0.04 0.6 -0.8 0.05
1 1.81 181 -1.839 -9.960 2.145 -43.854 3.479 -44.098 -423.174 2520.008 -3547.589 1.961 0.534 0.532 -0.04 0.6 -0.8 0.05
1 1.82 182 -1.336 -10.803 3.505 -49.561 1.587 -37.689 -333.233 2505.018 -3742.462 1.504 1.357 -0.899 -0.05 0.6 -0.79 0.05
1 1.83 183 0.029 -12.666 4.535 -80.780 5.035 -6.439 -333.233 2429.917 -3562.579 0.188 3.200 -2.006 -0.05 0.61 -0.79 0.04
1 1.84 184 0.661 -12.752 3.687 -77.729 22.217 9.644 -408.184 2505.018 -3457.498 -0.427 3.258 -1.268 -0.05 0.61 -0.79 0.04
1 1.85 185 1.049 -12.364 2.198 -41.107 37.598 8.209 -408.184 2505.018 -3457.498 -0.831 2.841 0.103 -0.05 0.62 -0.78 0.04
1 1.86 186 0.105 -10.813 1.049 6.317 31.830 -4.639 -468.145 2429.917 -3457.498 0.070 1.267 1.161 -0.04 0.62 -0.78 0.04
1 1.87 187 -0.177 -9.946 0.924 6.226 16.815 -14.221 -543.246 2505.018 -3532.599 0.353 0.403 1.298 -0.04 0.62 -0.78 0.04
1 1.88 188 0.014 -9.568 1.585 -10.620 3.113 -20.844 -543.246 2505.018 -3532.599 0.178 0.023 0.631 -0.04 0.62 -0.78 0.03
1 1.89 189 0.163 -9.989 2.275 -36.163 -0.397 -22.278 -378.204 2534.999 -3532.599 0.058 0.438 -0.090 -0.04 0.62 -0.78 0.03
1 1.90 190 0.632 -11.057 3.117 -62.500 5.829 -15.564 -363.213 2639.930 -3367.556 -0.380 1.493 -0.995 -0.04 0.62 -0.78 0.03
1 1.91 191 0.819 -11.828 3.194 -62.103 6.866 -14.221 -453.155 2789.982 -3547.589 -0.544 2.246 -1.158 -0.04 0.63 -0.78 0.03
1 1.92 192 0.781 -12.034 3.060 -45.960 8.057 -16.205 -453.155 2789.982 -3547.589 -0.486 2.433 -1.116 -0.04 0.63 -0.77 0.03
1 1.93 193 0.239 -11.397 2.528 -0.580 6.042 -23.651 -438.165 2609.950 -3307.595 0.102 1.776 -0.696 -0.04 0.64 -0.77 0.03
1 1.94 194 -0.666 -10.937 2.615 19.959 -0.793 -26.520 -438.165 2804.973 -3277.465 1.042 1.319 -0.773 -0.05 0.64 -0.77 0.02
1 1.95 195 -1.350 -10.324 2.888 19.379 -10.620 -23.560 -438.165 2804.973 -3277.465 1.767 0.714 -1.015 -0.05 0.63 -0.77 0.02
1 1.96 196 -1.743 -9.951 3.338 5.280 -20.294 -18.250 -543.246 2879.924 -3412.527 2.196 0.346 -1.442 -0.05 0.63 -0.77 0.02
1 1.97 197 -1.623 -9.678 3.654 -9.552 -23.651 -10.071 -453.155 2715.031 -3397.537 2.090 0.076 -1.749 -0.05 0.63 -0.77 0.02
1 1.98 198 -0.886 -9.371 3.232 -10.407 -23.712 2.075 -648.178 2684.901 -3307.595 1.356 -0.232 -1.334 -0.05 0.63 -0.77 0.02
1 1.99 199 -0.278 -9.175 2.739 5.768 -27.924 9.033 -648.178 2684.901 -3307.595 0.740 -0.430 -0.848 -0.05 0.63 -0.77 0.03
1 2.00 200 1.231 -8.653 2.696 31.433 -38.147 17.883 -558.236 2939.885 -3292.455 -0.795 -0.944 -0.761 -0.05 0.63 -0.77 0.03
1 2.01 201 1.561 -8.313 2.926 34.332 -39.032 20.111 -618.197 2760.002 -3277.465 -1.137 -1.274 -0.939 -0.06 0.63 -0.77 0.03
1 2.02 202 3.055 -7.619 3.151 23.193 -31.799 23.254 -618.197 2760.002 -3277.465 -2.648 -1.959 -1.115 -0.06 0.63 -0.78 0.04
1 2.03 203 3.678 -7.480 3.448 2.319 -18.555 23.682 -633.188 2594.959 -3337.576 -3.296 -2.093 -1.386 -0.06 0.63 -0.78 0.04
1 2.04 204 4.238 -7.935 2.988 -32.684 5.920 22.736 -648.178 2654.920 -3382.546 -3.861 -1.637 -0.920 -0.06 0.63 -0.78 0.04
1 2.05 205 4.042 -8.648 2.423 -46.478 17.120 18.280 -618.197 2609.950 -3457.498 -3.672 -0.930 -0.384 -0.06 0.63 -0.78 0.04
1 2.06 206 3.453 -9.117 2.088 -46.753 19.318 12.848 -618.197 2609.950 -3457.498 -3.086 -0.472 -0.103 -0.06 0.63 -0.77 0.04
1 2.07 207 2.926 -9.156 1.863 -30.914 13.458 5.005 -723.279 2654.920 -3307.595 -2.559 -0.448 0.056 -0.06 0.63 -0.77 0.04
1 2.08 208 2.208 -8.629 1.777 5.737 -2.899 -6.195 -558.236 2639.930 -3262.475 -1.817 -0.987 0.074 -0.06 0.63 -0.77 0.04
1 2.09 209 2.294 -7.911 2.145 21.027 -13.886 -14.130 -558.236 2639.930 -3262.475 -1.875 -1.701 -0.280 -0.06 0.63 -0.77 0.04
1 2.10 210 2.600 -7.456 2.447 19.928 -22.827 -20.966 -603.207 2745.012 -3472.488 -2.153 -2.149 -0.551 -0.06 0.63 -0.77 0.04
1 2.11 211 2.955 -7.537 2.658 2.930 -27.008 -24.902 -543.246 2609.950 -3277.465 -2.468 -2.061 -0.739 -0.06 0.63 -0.77 0.04
1 2.12 212 3.318 -8.160 2.892 -38.391 -22.492 -23.224 -633.188 2715.031 -3337.576 -2.787 -1.437 -0.982 -0.07 0.63 -0.77 0.04
1 2.13 213 3.227 -9.223 2.878 -62.897 -14.313 -20.447 -633.188 2715.031 -3337.576 -2.644 -0.380 -1.010 -0.07 0.63 -0.77 0.04
1 2.14 214 2.701 -10.497 2.691 -69.885 -5.402 -19.348 -693.148 2579.969 -3247.484 -2.060 0.883 -0.901 -0.07 0.64 -0.77 0.04
1 2.15 215 2.002 -11.636 2.318 -34.241 0.092 -14.679 -738.269 2669.911 -3262.475 -1.286 1.996 -0.710 -0.08 0.64 -0.76 0.03
1 2.16 216 1.504 -11.258 2.179 6.958 0.031 -6.409 -738.269 2669.911 -3262.475 -0.769 1.613 -0.606 -0.08 0.64 -0.76 0.03
1 2.17 217 1.121 -10.391 2.006 35.278 1.190 1.556 -558.236 2864.934 -3217.504 -0.380 0.750 -0.411 -0.08 0.64 -0.76 0.03
1 2.18 218 1.006 -9.467 1.915 39.307 1.343 4.639 -558.236 2864.934 -3217.504 -0.268 -0.164 -0.263 -0.08 0.64 -0.76 0.03
1 2.19 219 1.039 -8.663 1.470 18.433 -4.578 6.317 -738.269 2789.982 -3217.504 -0.306 -0.959 0.239 -0.08 0.64 -0.77 0.03
1 2.20 220 0.958 -8.246 1.197 6.439 -10.864 7.050 -738.269 2789.982 -3217.504 -0.230 -1.370 0.545 -0.08 0.64 -0.77 0.03
1 2.21 221 1.173 -8.299 1.063 0.854 -15.930 6.348 -708.289 2715.031 -3217.504 -0.452 -1.316 0.691 -0.08 0.64 -0.77 0.04
1 2.22 222 1.427 -8.552 1.020 -1.251 -18.524 4.150 -798.230 2834.953 -3247.484 -0.714 -1.063 0.732 -0.08 0.64 -0.77 0.04
1 2.23 223 2.083 -8.476 1.298 -1.831 -12.116 3.510 -798.230 2834.953 -3247.484 -1.371 -1.141 0.450 -0.08 0.64 -0.77 0.04
1 2.24 224 2.236 -8.581 1.307 -0.458 -4.730 4.761 -708.289 2715.031 -3217.504 -1.522 -1.036 0.436 -0.08 0.64 -0.77 0.04
1 2.25 225 2.160 -8.576 1.317 2.075 1.434 3.693 -708.289 2715.031 -3217.504 -1.439 -1.041 0.424 -0.08 0.64 -0.77 0.04
1 2.26 226 1.963 -8.591 1.111 5.066 3.876 1.678 -693.148 2804.973 -3247.484 -1.236 -1.026 0.633 -0.08 0.64 -0.77 0.04
1 2.27 227 1.863 -8.672 0.972 3.998 -0.092 -1.556 -693.148 2804.973 -3247.484 -1.128 -0.943 0.776 -0.08 0.64 -0.77 0.04
1 2.28 228 1.767 -8.725 1.053 0.977 -4.669 -2.075 -798.230 2654.920 -3202.514 -1.021 -0.889 0.697 -0.08 0.64 -0.77 0.04
1 2.29 229 1.796 -8.921 1.240 -3.174 -9.644 -1.068 -573.227 2730.021 -3202.514 -1.037 -0.692 0.509 -0.08 0.64 -0.77 0.04
1 2.30 230 1.772 -9.137 1.264 -8.728 -13.458 -1.221 -573.227 2730.021 -3202.514 -0.990 -0.478 0.465 -0.08 0.64 -0.77 0.04
1 2.31 231 1.872 -9.414 1.274 -8.850 -14.069 1.190 -828.210 2760.002 -3172.533 -1.078 -0.202 0.438 -0.09 0.64 -0.77 0.04
1 2.32 232 1.887 -9.577 1.106 -4.639 -13.153 5.096 -828.210 2760.002 -3172.533 -1.083 -0.042 0.588 -0.09 0.64 -0.76 0.04
1 2.33 233 1.911 -9.457 1.063 2.289 -11.627 9.796 -648.028 2684.751 -3278.664 -1.104 -0.163 0.621 -0.09 0.64 -0.76 0.04
1 2.34 234 2.078 -9.242 1.250 9.399 -9.674 15.259 -648.028 2684.751 -3278.664 -1.276 -0.379 0.434 -0.09 0.64 -0.76 0.04
1 2.35 235 2.332 -9.247 1.212 6.836 -7.294 17.700 -722.979 2834.803 -3248.684 -1.540 -0.374 0.480 -0.09 0.64 -0.76 0.04
1 2.36 236 2.457 -9.232 1.441 2.960 -5.402 20.905 -812.920 2669.761 -3188.723 -1.677 -0.388 0.258 -0.09 0.64 -0.76 0.04
1 2.37 237 2.619 -9.347 1.298 -0.092 -0.549 24.109 -812.920 2669.761 -3188.723 -1.873 -0.275 0.402 -0.09 0.64 -0.76 0.05
1 2.38 238 2.581 -9.625 1.245 2.594 2.808 24.811 -663.018 2744.862 -3188.723 -1.857 0.001 0.453 -0.09 0.64 -0.76 0.05
1 2.39 239 2.299 -9.678 1.384 6.439 3.876 24.689 -663.018 2744.862 -3188.723 -1.597 0.052 0.317 -0.09 0.64 -0.76 0.05
1 2.40 240 2.179 -9.620 1.188 7.935 4.578 24.384 -618.047 2654.771 -3203.713 -1.503 -0.006 0.521 -0.08 0.64 -0.76 0.05
1 2.41 241 2.073 -9.429 0.991 6.775 5.005 24.048 -618.047 2654.771 -3203.713 -1.423 -0.198 0.726 -0.08 0.64 -0.77 0.05
1 2.42 242 1.906 -9.639 0.737 3.906 8.698 25.055 -737.969 2789.833 -3158.742 -1.281 0.012 0.986 -0.08 0.64 -0.77 0.05
1 2.43 243 1.853 -9.788 0.804 2.655 12.207 24.811 -572.927 2729.872 -3203.713 -1.256 0.159 0.919 -0.08 0.64 -0.77 0.05
1 2.44 244 1.729 -10.075 0.737 1.251 19.989 25.299 -572.927 2729.872 -3203.713 -1.193 0.442 0.980 -0.08 0.64 -0.76 0.05
1 2.45 245 1.470 -10.487 0.613 0.580 25.208 21.210 -648.028 2729.872 -3128.762 -0.967 0.851 1.100 -0.08 0.64 -0.76 0.05
1 2.46 246 1.307 -10.726 0.747 0.641 27.466 16.510 -648.028 2729.872 -3128.762 -0.833 1.088 0.960 -0.07 0.64 -0.76 0.05
1 2.47 247 1.154 -11.038 0.900 3.967 23.987 13.825 -618.047 2729.872 -3203.713 -0.706 1.398 0.807 -0.07 0.64 -0.76 0.05
1 2.48 248 0.900 -11.177 0.919 11.841 14.801 15.137 -737.969 2714.881 -3158.742 -0.479 1.537 0.797 -0.07 0.64 -0.76 0.05
1 2.49 249 1.087 -11.205 1.192 12.116 8.728 18.524 -618.047 2729.872 -3128.762 -0.691 1.568 0.541 -0.07 0.64 -0.77 0.05
1 2.50 250 1.422 -11.272 1.101 10.162 8.392 24.414 -633.038 2669.761 -3188.723 -1.055 1.637 0.651 -0.07 0.64 -0.77 0.05
1 2.51 251 1.810 -11.382 0.699 7.965 13.611 28.748 -633.038 2669.761 -3188.723 -1.479 1.749 1.070 -0.07 0.64 -0.77 0.05
1 2.52 252 2.021 -11.502 0.005 6.439 22.156 28.504 -482.985 2639.780 -3218.703 -1.783 1.871 1.790 -0.06 0.64 -0.77 0.05
1 2.53 253 2.021 -11.445 -0.302 5.829 23.468 23.743 -482.985 2639.780 -3218.703 -1.830 1.814 2.107 -0.06 0.64 -0.77 0.05
1 2.54 254 1.853 -11.449 -0.488 3.845 20.660 19.043 -512.966 2654.771 -3173.732 -1.702 1.820 2.301 -0.06 0.64 -0.77 0.05
1 2.55 255 1.547 -11.315 -0.680 1.862 15.045 13.794 -602.907 2714.881 -3218.703 -1.428 1.686 2.499 -0.05 0.64 -0.77 0.06
1 2.56 256 1.398 -11.569 -0.862 -8.179 3.387 5.249 -512.966 2684.751 -3248.684 -1.301 1.940 2.682 -0.05 0.64 -0.77 0.06
1 2.57 257 1.705 -11.943 -0.450 -17.609 -3.662 0.366 -572.927 2654.771 -3248.684 -1.619 2.312 2.261 -0.05 0.64 -0.77 0.06
1 2.58 258 1.877 -12.378 0.469 -18.433 -6.104 -1.984 -572.927 2654.771 -3248.684 -1.793 2.743 1.319 -0.05 0.64 -0.77 0.06
1 2.59 259 1.350 -13.590 1.432 -9.888 2.838 -21.545 -467.995 2609.800 -3278.664 -1.249 3.946 0.309 -0.05 0.64 -0.77 0.06
1 2.60 260 1.695 -14.088 1.173 -13.611 0.824 -30.579 -467.995 2609.800 -3278.664 -1.557 4.442 0.552 -0.05 0.64 -0.76 0.05
1 2.61 261 1.791 -13.604 0.838 7.507 6.226 -17.609 -423.024 2519.858 -3053.661 -1.611 3.956 0.871 -0.06 0.64 -0.76 0.05
1 2.62 262 1.250 -12.695 0.986 48.584 25.177 -5.798 -618.047 2654.771 -3173.732 -1.052 3.051 0.748 -0.06 0.64 -0.77 0.05
1 2.63 263 0.263 -11.713 1.355 66.040 37.048 -5.402 -557.937 2594.810 -3188.723 -0.067 2.085 0.464 -0.05 0.64 -0.77 0.05
1 2.64 264 -0.656 -11.469 2.251 40.741 29.266 -16.113 -557.937 2594.810 -3218.703 0.848 1.861 -0.330 -0.05 0.63 -0.77 0.05
1 2.65 265 -1.116 -11.363 2.763 11.658 7.782 -22.888 -557.937 2594.810 -3218.703 1.318 1.770 -0.771 -0.05 0.63 -0.77 0.05
1 2.66 266 -0.690 -10.607 2.921 -2.838 -20.844 -17.944 -527.956 2744.862 -3263.674 0.955 1.020 -0.903 -0.05 0.63 -0.78 0.04
1 2.67 267 -0.010 -9.769 3.046 11.841 -16.327 -12.512 -527.956 2744.862 -3263.674 0.306 0.183 -1.029 -0.05 0.63 -0.78 0.04
1 2.68 268 0.632 -9.117 3.280 34.668 6.012 -5.676 -467.995 2459.748 -3173.732 -0.320 -0.461 -1.231 -0.06 0.63 -0.78 0.04
1 2.69 269 1.269 -8.471 3.601 52.826 32.074 3.143 -482.985 2639.780 -3083.641 -0.955 -1.092 -1.484 -0.06 0.62 -0.78 0.04
1 2.70 270 1.853 -7.638 3.749 54.688 55.237 12.054 -467.995 2429.767 -3173.732 -1.552 -1.905 -1.540 -0.05 0.62 -0.78 0.04
1 2.71 271 1.738 -6.948 3.682 49.133 53.711 13.458 -467.995 2729.872 -3278.664 -1.461 -2.572 -1.376 -0.05 0.62 -0.78 0.04
1 2.72 272 1.508 -6.125 3.582 42.511 43.579 9.460 -467.995 2729.872 -3278.664 -1.270 -3.378 -1.199 -0.05 0.61 -0.79 0.04
1 2.73 273 0.718 -5.119 2.883 32.105 22.278 -2.045 -512.966 2534.849 -3278.664 -0.532 -4.353 -0.377 -0.04 0.61 -0.79 0.04
1 2.74 274 0.019 -4.712 2.342 19.135 8.362 -11.719 -512.966 2534.849 -3278.664 0.166 -4.749 0.207 -0.04 0.61 -0.79 0.04
1 2.75 275 -0.848 -5.009 1.987 -5.463 -8.972 -23.041 -408.034 2459.748 -3278.664 1.053 -4.446 0.582 -0.04 0.61 -0.79 0.03
1 2.76 276 -1.235 -5.914 1.824 -42.023 -30.609 -38.422 -438.015 2459.748 -3353.765 1.484 -3.546 0.724 -0.04 0.61 -0.79 0.03
1 2.77 277 -1.403 -7.916 2.150 -86.579 -53.040 -57.099 -421.975 2294.105 -3341.473 1.728 -1.563 0.319 -0.05 0.61 -0.79 0.03
1 2.78 278 -0.441 -11.991 3.639 -136.383 -68.878 -62.836 -437.115 2429.167 -3206.561 0.876 2.480 -1.316 -0.05 0.62 -0.79 0.03
1 2.79 279 0.895 -13.676 4.075 -98.297 -53.711 -27.008 -437.115 2429.167 -3206.561 -0.347 4.125 -1.948 -0.06 0.62 -0.78 0.03
1 2.80 280 1.714 -12.153 3.816 43.854 4.425 34.027 -542.047 2534.099 -3356.463 -1.095 2.561 -1.908 -0.07 0.63 -0.77 0.03
1 2.81 281 1.370 -11.038 3.386 82.764 22.705 44.434 -542.047 2534.099 -3356.463 -0.812 1.461 -1.382 -0.06 0.63 -0.78 0.03
1 2.82 282 -0.086 -7.786 2.773 113.434 46.845 49.256 -737.070 2594.060 -3221.551 0.558 -1.758 -0.597 -0.06 0.62 -0.78 0.04
1 2.83 283 -0.972 -6.412 2.552 77.301 39.581 41.779 -512.066 2579.070 -3026.528 1.359 -3.098 -0.216 -0.05 0.61 -0.79 0.04
1 2.84 284 -1.216 -6.206 2.844 1.434 20.752 32.593 -482.086 2519.109 -3296.502 1.532 -3.282 -0.411 -0.05 0.61 -0.79 0.04
1 2.85 285 -0.632 -6.838 2.720 -39.917 10.559 34.973 -572.027 2534.099 -3206.561 0.890 -2.646 -0.265 -0.05 0.61 -0.79 0.04
1 2.86 286 0.005 -7.619 2.706 -62.683 5.524 38.849 -572.027 2534.099 -3206.561 0.200 -1.878 -0.295 -0.04 0.61 -0.79 0.04
1 2.87 287 0.431 -8.423 2.634 -62.714 7.019 37.445 -512.066 2429.167 -3251.532 -0.284 -1.096 -0.308 -0.04 0.62 -0.79 0.04
1 2.88 288 0.675 -8.988 2.188 -28.168 15.442 21.851 -512.066 2429.167 -3251.532 -0.632 -0.569 -0.023 -0.04 0.62 -0.78 0.05
1 2.89 289 0.484 -8.955 2.160 -1.831 15.686 8.972 -452.105 2414.177 -3221.551 -0.468 -0.609 -0.022 -0.04 0.62 -0.78 0.05
1 2.90 290 0.402 -8.768 1.982 11.322 11.963 -2.533 -391.995 2489.128 -3191.571 -0.396 -0.795 0.161 -0.04 0.62 -0.78 0.05
1 2.91 291 0.283 -8.600 1.796 9.583 5.341 -10.315 -391.995 2489.128 -3191.571 -0.270 -0.959 0.364 -0.04 0.62 -0.78 0.04
1 2.92 292 0.259 -8.232 1.781 -4.913 2.625 -17.548 -377.004 2579.070 -3281.512 -0.229 -1.325 0.390 -0.04 0.62 -0.78 0.04
1 2.93 293 0.000 -8.313 1.738 -12.421 5.707 -19.592 -377.004 2579.070 -3281.512 0.053 -1.244 0.429 -0.04 0.62 -0.78 0.04
1 2.94 294 -0.239 -8.567 1.528 -17.853 10.193 -21.362 -377.004 2579.070 -3176.581 0.320 -0.994 0.624 -0.04 0.62 -0.78 0.04
1 2.95 295 -0.728 -9.098 1.518 -24.384 12.329 -22.492 -377.004 2579.070 -3176.581 0.861 -0.474 0.577 -0.04 0.63 -0.78 0.04
1 2.96 296 -0.828 -9.405 1.642 -26.123 11.108 -22.949 -527.057 2519.109 -3116.470 0.985 -0.176 0.414 -0.04 0.63 -0.78 0.04
1 2.97 297 -0.713 -9.457 1.518 -22.949 9.216 -21.698 -557.037 2594.060 -3191.571 0.893 -0.131 0.498 -0.04 0.63 -0.78 0.04
1 2.98 298 -1.092 -9.620 1.513 -16.083 8.850 -20.142 -557.037 2594.060 -3191.571 1.292 0.025 0.468 -0.04 0.63 -0.77 0.03
1 2.99 299 -1.307 -9.524 1.484 -9.766 9.003 -17.426 -377.004 2654.171 -3101.479 1.524 -0.076 0.471 -0.04 0.63 -0.77 0.03
1 3.00 300 -1.551 -9.395 1.212 -8.453 8.453 -16.266 -377.004 2654.171 -3101.479 1.781 -0.209 0.726 -0.04 0.63 -0.77 0.03
1 3.01 301 -1.848 -8.979 1.360 -7.416 3.815 -17.456 -482.086 2639.181 -3056.509 2.088 -0.628 0.562 -0.04 0.63 -0.77 0.03
1 3.02 302 -1.748 -8.284 1.269 -7.202 -3.754 -19.074 -482.086 2639.181 -3056.509 2.008 -1.328 0.623 -0.04 0.63 -0.77 0.03
1 3.03 303 -1.389 -7.906 0.867 -7.263 -6.226 -19.440 -332.034 2429.167 -3071.499 1.670 -1.708 1.013 -0.04 0.63 -0.77 0.03
1 3.04 304 -1.121 -7.571 0.575 -6.928 -8.118 -19.959 -377.004 2534.099 -3071.499 1.433 -2.044 1.294 -0.04 0.63 -0.77 0.03
1 3.05 305 -0.723 -7.384 0.311 -8.606 -9.674 -19.257 -377.004 2534.099 -3071.499 1.067 -2.232 1.547 -0.05 0.63 -0.77 0.03
1 3.06 306 -0.474 -7.422 0.230 -14.648 -9.552 -20.447 -542.047 2534.099 -3071.499 0.849 -2.195 1.614 -0.05 0.64 -0.77 0.03
1 3.07 307 -0.215 -7.293 0.259 -26.611 -8.820 -23.468 -526.307 2713.682 -2939.285 0.623 -2.328 1.560 -0.05 0.64 -0.77 0.03
1 3.08 308 -0.110 -7.556 0.584 -32.959 -6.378 -28.259 -556.288 2743.663 -3089.337 0.554 -2.070 1.197 -0.05 0.64 -0.77 0.03
1 3.09 309 -0.010 -8.054 0.852 -40.802 -1.404 -35.004 -556.288 2743.663 -3089.337 0.495 -1.579 0.882 -0.05 0.64 -0.77 0.02
1 3.10 310 0.259 -9.323 1.001 -61.249 9.399 -47.516 -541.297 2683.702 -3104.328 0.337 -0.326 0.603 -0.06 0.64 -0.76 0.02
1 3.11 311 0.407 -10.501 0.819 -77.729 15.137 -52.918 -616.249 2758.653 -2969.266 0.257 0.841 0.687 -0.06 0.65 -0.76 0.02
1 3.12 312 0.488 -11.852 0.225 -86.457 16.144 -51.850 -616.249 2758.653 -2969.266 0.248 2.178 1.158 -0.06 0.65 -0.76 0.01
1 3.13 313 0.709 -13.130 -0.306 -79.102 11.505 -44.464 -571.278 2803.624 -2849.344 0.100 3.445 1.564 -0.06 0.66 -0.75 0.01
1 3.14 314 0.694 -13.710 -0.460 -40.619 1.831 -28.076 -571.278 2803.624 -2849.344 0.174 4.016 1.609 -0.06 0.66 -0.75 0
1 3.15 315 0.378 -13.571 -0.737 -4.761 -0.214 -20.813 -706.190 2818.764 -2984.256 0.535 3.873 1.815 -0.07 0.66 -0.74 0
1 3.16 316 -0.062 -12.809 -1.001 24.628 -3.052 -15.656 -706.190 2818.764 -2984.256 1.009 3.113 2.059 -0.07 0.66 -0.74 0
1 3.17 317 -0.594 -11.564 -1.212 36.896 -10.040 -9.125 -721.330 2878.725 -2714.282 1.584 1.881 2.347 -0.07 0.66 -0.75 0
1 3.18 318 -0.565 -10.937 -0.824 26.733 -14.832 -8.179 -1006.294 2878.725 -2819.363 1.571 1.261 2.009 -0.07 0.66 -0.75 0
1 3.19 319 -0.268 -10.425 0.498 13.275 -16.296 -9.857 -1006.145 2878.575 -2820.862 1.290 0.754 0.719 -0.07 0.66 -0.75 0
1 3.20 320 -0.005 -10.176 1.791 6.683 -15.320 -12.207 -721.180 2833.604 -2895.813 1.034 0.507 -0.569 -0.07 0.66 -0.75 0
1 3.21 321 0.551 -10.597 2.131 3.693 -20.020 -7.507 -721.180 2833.604 -2895.813 0.490 0.931 -0.900 -0.07 0.66 -0.75 0
1 3.22 322 2.069 -11.756 2.303 -34.485 -33.325 19.684 -736.170 2863.584 -2940.784 -1.021 2.090 -1.074 -0.08 0.66 -0.75 0
1 3.23 323 2.773 -12.196 1.044 -50.934 -38.269 36.469 -736.170 2863.584 -2940.784 -1.740 2.523 0.141 -0.08 0.66 -0.75 0.01
1 3.24 324 2.385 -12.321 0.555 -35.492 -31.098 41.474 -751.161 2803.474 -2895.813 -1.449 2.620 0.476 -0.08 0.66 -0.74 0.01
1 3.25 325 1.638 -11.799 1.245 -12.482 -24.384 43.579 -751.161 2878.575 -2790.882 -0.760 2.088 -0.262 -0.08 0.67 -0.74 0.02
1 3.26 326 1.269 -11.517 2.615 7.446 -30.274 55.451 -751.161 2878.575 -2790.882 -0.456 1.799 -1.645 -0.08 0.67 -0.74 0.02
1 3.27 327 1.188 -11.253 4.295 2.563 -38.330 70.160 -901.213 2653.571 -2850.843 -0.458 1.529 -3.318 -0.08 0.67 -0.74 0.03
1 3.28 328 1.001 -10.923 5.866 -29.541 -36.926 75.440 -691.200 2878.575 -2745.761 -0.374 1.191 -4.897 -0.07 0.67 -0.74 0.03
1 3.29 329 0.891 -11.823 5.722 -41.870 -45.380 70.252 -721.180 2878.575 -2715.781 -0.372 2.081 -4.794 -0.07 0.67 -0.74 0.04
1 3.30 330 0.718 -13.001 5.248 -42.236 -59.601 64.789 -721.180 2878.575 -2715.781 -0.300 3.248 -4.382 -0.07 0.67 -0.74 0.05
1 3.31 331 0.929 -13.284 4.535 -17.975 -61.035 57.556 -706.190 2818.614 -2730.771 -0.603 3.522 -3.736 -0.07 0.67 -0.73 0.05
1 3.32 332 1.872 -11.564 3.611 58.624 -37.354 44.739 -826.262 2908.555 -2745.761 -1.698 1.797 -2.825 -0.07 0.67 -0.73 0.07
1 3.33 333 1.992 -9.606 2.978 82.581 -14.923 38.147 -826.262 2908.555 -2745.761 -1.878 -0.153 -2.093 -0.07 0.67 -0.73 0.07
1 3.34 334 1.595 -8.270 2.787 63.202 1.526 27.283 -706.190 3013.487 -2775.892 -1.525 -1.477 -1.774 -0.07 0.67 -0.74 0.07
1 3.35 335 1.178 -8.203 2.548 22.186 10.193 11.231 -510.118 2757.903 -2719.378 -1.131 -1.534 -1.441 -0.07 0.66 -0.74 0.07
1 3.36 336 1.068 -10.080 1.796 -25.482 11.475 -7.690 -645.180 2952.926 -2644.427 -1.034 0.345 -0.671 -0.07 0.66 -0.74 0.07
1 3.37 337 1.216 -11.153 1.307 -24.780 4.791 -12.268 -645.180 2952.926 -2644.427 -1.170 1.415 -0.204 -0.07 0.66 -0.74 0.07
1 3.38 338 1.695 -11.057 1.044 3.815 -7.599 -18.097 -735.121 2862.985 -2914.401 -1.630 1.315 0.021 -0.07 0.66 -0.74 0.07
1 3.39 339 2.840 -9.702 0.939 56.580 -26.947 -28.900 -780.092 2892.965 -2704.388 -2.711 -0.035 0.166 -0.07 0.66 -0.74 0.07
1 3.40 340 3.362 -8.155 1.154 78.858 -34.302 -31.220 -780.092 2892.965 -2704.388 -3.165 -1.570 0.042 -0.08 0.66 -0.75 0.07
1 3.41 341 3.893 -6.785 1.341 83.649 -38.056 -29.999 -480.137 2862.985 -2779.339 -3.620 -2.922 -0.025 -0.08 0.65 -0.75 0.07
1 3.42 342 4.276 -5.847 1.528 71.106 -39.673 -26.337 -645.180 2877.975 -2899.411 -3.951 -3.842 -0.092 -0.08 0.65 -0.75 0.07
1 3.43 343 4.109 -5.105 1.839 29.175 -40.436 -22.980 -780.092 2742.913 -2884.421 -3.736 -4.568 -0.309 -0.09 0.64 -0.76 0.07
1 3.44 344 3.759 -5.272 1.829 -4.578 -36.957 -19.898 -780.092 2742.913 -2884.421 -3.342 -4.390 -0.247 -0.09 0.64 -0.76 0.07
1 3.45 345 3.314 -6.038 1.968 -37.415 -28.137 -17.181 -915.004 2787.884 -2990.702 -2.857 -3.622 -0.382 -0.09 0.64 -0.76 0.07
1 3.46 346 1.939 -8.160 2.097 -79.895 0.183 -19.104 -900.014 2757.753 -2930.591 -1.421 -1.519 -0.648 -0.1 0.65 -0.75 0.07
1 3.47 347 0.570 -10.367 2.117 -94.513 18.097 -28.137 -900.014 2757.753 -2930.591 -0.021 0.673 -0.793 -0.1 0.65 -0.75 0.07
1 3.48 348 -0.694 -12.335 1.772 -75.043 18.951 -27.588 -885.023 2667.812 -2840.649 1.286 2.626 -0.579 -0.1 0.65 -0.75 0.07
1 3.49 349 -1.355 -12.675 1.125 -10.468 4.303 -7.080 -929.994 2727.773 -2690.597 1.979 2.958 -0.022 -0.1 0.66 -0.74 0.07
1 3.50 350 -0.728 -9.812 0.579 98.694 -14.404 19.196 -900.014 2652.822 -2795.679 1.353 0.096 0.538 -0.1 0.66 -0.74 0.07
1 3.51 351 -0.177 -7.834 0.584 129.639 -18.616 20.660 -900.014 2652.822 -2795.679 0.780 -1.868 0.656 -0.1 0.65 -0.75 0.07
1 3.52 352 0.627 -6.436 0.828 112.702 -19.287 24.048 -900.014 2802.874 -2750.708 -0.057 -3.244 0.593 -0.1 0.65 -0.75 0.07
1 3.53 353 1.642 -5.674 1.034 33.295 -14.557 38.605 -749.961 2802.874 -2750.708 -1.142 -3.962 0.675 -0.1 0.63 -0.76 0.08
1 3.54 354 1.633 -5.789 1.125 -21.820 -7.355 47.730 -749.961 2802.874 -2750.708 -1.190 -3.846 0.610 -0.1 0.63 -0.76 0.08
1 3.55 355 1.484 -6.565 0.967 -57.312 1.007 49.530 -1004.945 2682.802 -2900.610 -1.112 -3.081 0.720 -0.1 0.64 -0.76 0.09
1 3.56 356 1.092 -7.504 0.910 -63.507 3.723 47.791 -885.023 2487.779 -2915.601 -0.793 -2.161 0.687 -0.09 0.64 -0.76 0.09
1 3.57 357 0.737 -8.370 0.766 -45.105 -0.061 40.009 -825.062 2607.851 -2900.610 -0.508 -1.310 0.741 -0.09 0.64 -0.75 0.09
1 3.58 358 1.221 -9.333 0.498 0.488 -16.144 26.123 -825.062 2607.851 -2900.610 -1.046 -0.357 0.953 -0.09 0.65 -0.75 0.09
1 3.59 359 2.145 -9.041 0.560 23.346 -25.696 20.569 -719.981 2727.773 -2975.711 -2.002 -0.653 0.874 -0.09 0.65 -0.75 0.09
1 3.60 360 3.165 -8.208 0.900 31.708 -24.628 13.641 -749.961 2877.825 -2975.711 -3.041 -1.477 0.595 -0.09 0.64 -0.75 0.1
1 3.61 361 3.639 -7.853 0.958 29.511 -19.257 11.719 -749.961 2877.825 -2975.711 -3.506 -1.825 0.579 -0.09 0.64 -0.75 0.1
1 3.62 362 3.687 -7.437 1.097 14.710 0.671 9.399 -809.922 2712.783 -2810.669 -3.567 -2.236 0.475 -0.09 0.64 -0.75 0.1
1 3.63 363 3.405 -7.604 0.967 -0.366 10.132 11.597 -690.000 2652.822 -2930.591 -3.300 -2.066 0.621 -0.09 0.64 -0.76 0.1
1 3.64 364 3.017 -7.834 0.699 -27.313 9.491 16.907 -840.053 2787.884 -2915.601 -2.933 -1.837 0.882 -0.09 0.64 -0.76 0.1
1 3.65 365 2.303 -9.117 0.134 -42.511 4.822 21.790 -840.053 2787.884 -2915.601 -2.246 -0.559 1.413 -0.09 0.64 -0.75 0.1
1 3.66 366 2.366 -10.540 0.005 -51.026 -1.709 28.504 -825.062 2832.854 -2825.659 -2.330 0.853 1.482 -0.09 0.64 -0.75 0.1
1 3.67 367 2.658 -12.038 0.287 -53.345 -6.866 35.248 -749.961 2757.753 -2825.659 -2.645 2.340 1.116 -0.09 0.65 -0.75 0.1
1 3.68 368 3.242 -13.355 1.197 -43.183 0.702 41.016 -749.961 2757.753 -2825.659 -3.336 3.636 0.053 -0.09 0.65 -0.74 0.11
1 3.69 369 3.285 -13.782 1.657 -24.139 19.013 40.497 -825.062 2757.753 -2720.728 -3.440 4.055 -0.465 -0.09 0.66 -0.74 0.11
1 3.70 370 2.495 -13.949 1.614 4.150 40.314 37.964 -794.932 2877.825 -2825.659 -2.715 4.221 -0.449 -0.08 0.66 -0.74 0.11
1 3.71 371 1.317 -13.547 1.058 31.983 53.070 31.708 -794.932 2877.825 -2825.659 -1.599 3.822 0.122 -0.08 0.66 -0.74 0.11
1 3.72 372 -0.474 -12.872 -0.220 64.820 51.697 19.592 -840.053 2892.815 -2780.688 0.137 3.156 1.455 -0.07 0.66 -0.74 0.11
1 3.73 373 -1.164 -12.307 -1.068 74.127 40.711 14.465 -615.049 2802.874 -2855.640 0.784 2.604 2.389 -0.07 0.65 -0.75 0.11
1 3.74 374 -1.135 -11.627 -1.690 69.428 26.123 15.259 -615.049 2907.806 -2795.679 0.723 1.940 3.117 -0.07 0.65 -0.75 0.11
1 3.75 375 -0.010 -10.018 -2.160 40.100 3.784 18.036 -615.049 2907.806 -2795.679 -0.461 0.363 3.775 -0.06 0.64 -0.76 0.11
1 3.76 376 1.077 -9.663 -1.882 7.996 -7.721 14.038 -524.958 2712.783 -2840.649 -1.571 0.013 3.517 -0.06 0.64 -0.76 0.11
1 3.77 377 2.160 -9.812 -0.292 -25.024 -9.644 9.491 -464.997 2802.874 -2855.640 -2.660 0.158 1.901 -0.06 0.64 -0.75 0.11
1 3.78 378 2.461 -10.607 1.077 -42.145 -4.395 3.357 -464.098 2802.424 -2858.338 -2.954 0.942 0.469 -0.06 0.65 -0.75 0.11
1 3.79 379 1.264 -13.547 2.394 -64.026 7.782 -27.771 -539.199 2802.424 -2903.309 -1.744 3.871 -0.916 -0.06 0.65 -0.75 0.11
1 3.80 380 0.192 -14.840 2.562 -93.537 -2.136 -45.960 -464.098 2727.473 -2933.289 -0.641 5.149 -1.171 -0.06 0.65 -0.75 0.11
1 3.81 381 -0.503 -15.707 1.264 -62.439 -2.716 -46.662 -434.117 2727.473 -2798.227 0.116 5.996 -0.003 -0.07 0.66 -0.74 0.11
1 3.82 382 -0.393 -14.974 0.709 15.289 -18.433 -30.487 -434.117 2727.473 -2798.227 0.133 5.244 0.434 -0.07 0.66 -0.74 0.1
1 3.83 383 -0.354 -12.551 3.184 91.309 -24.567 -13.947 -479.238 2937.486 -2888.318 0.124 2.832 -1.947 -0.07 0.66 -0.74 0.1
1 3.84 384 -0.014 -11.220 3.730 81.177 -15.503 -35.736 -569.179 2982.457 -2693.295 -0.184 1.519 -2.355 -0.08 0.65 -0.75 0.1
1 3.85 385 1.652 -10.324 3.831 29.114 -29.602 -40.558 -569.179 2982.457 -2693.295 -1.788 0.637 -2.353 -0.08 0.65 -0.75 0.1
1 3.86 386 2.251 -8.854 4.252 -3.296 -24.963 -21.729 -509.218 2802.424 -2858.338 -2.325 -0.829 -2.746 -0.08 0.65 -0.75 0.1
1 3.87 387 1.839 -7.700 4.487 16.541 36.255 -21.210 -689.101 2607.401 -2858.338 -1.865 -1.981 -2.964 -0.08 0.64 -0.75 0.1
1 3.88 388 1.053 -7.619 4.204 34.393 73.822 -29.907 -794.183 2757.454 -2858.338 -1.042 -2.056 -2.642 -0.08 0.64 -0.76 0.1
1 3.89 389 -0.450 -7.576 3.587 40.619 89.142 -34.302 -794.183 2757.454 -2858.338 0.500 -2.088 -1.955 -0.08 0.64 -0.76 0.09
1 3.90 390 -2.413 -6.790 1.365 42.420 59.052 -38.910 -704.091 2787.434 -2813.367 2.524 -2.851 0.389 -0.08 0.64 -0.76 0.08
1 3.91 391 -2.864 -6.484 0.752 38.513 9.308 -37.659 -719.231 2802.424 -2933.289 3.018 -3.145 1.065 -0.07 0.63 -0.77 0.08
1 3.92 392 -2.725 -6.062 0.943 17.517 -38.574 -34.790 -719.231 2802.424 -2933.289 2.935 -3.556 0.925 -0.08 0.63 -0.77 0.08
1 3.93 393 -1.906 -6.455 1.571 -18.311 -64.759 -34.393 -614.150 2652.372 -3083.341 2.180 -3.159 0.310 -0.08 0.63 -0.77 0.08
1 3.94 394 -0.369 -8.682 2.619 -86.792 -62.927 -36.163 -554.189 2667.362 -2948.279 0.713 -0.939 -0.785 -0.09 0.63 -0.77 0.08
1 3.95 395 1.216 -11.852 3.132 -125.885 -51.636 -28.656 -824.163 2727.473 -2978.260 -0.801 2.213 -1.411 -0.09 0.64 -0.76 0.08
1 3.96 396 2.978 -14.212 3.390 -120.423 -37.811 -3.021 -824.163 2727.473 -2978.260 -2.507 4.548 -1.839 -0.1 0.64 -0.76 0.08
1 3.97 397 3.390 -12.838 3.405 8.453 -0.946 29.724 -809.173 2712.483 -2993.250 -2.915 3.131 -2.144 -0.1 0.65 -0.75 0.08
1 3.98 398 2.605 -10.382 3.318 92.255 23.499 31.708 -749.212 2907.356 -2978.260 -2.177 0.679 -2.010 -0.1 0.65 -0.75 0.08
1 3.99 399 1.245 -8.332 2.911 124.085 40.466 23.346 -749.212 2907.356 -2978.260 -0.868 -1.350 -1.447 -0.1 0.65 -0.75 0.08
1 4.00 400 0.182 -6.953 2.768 106.842 50.781 12.634 -989.056 2862.235 -2785.036 0.164 -2.699 -1.109 -0.09 0.64 -0.76 0.08
1 4.01 401 -1.073 -6.316 2.629 63.202 53.864 7.263 -824.013 2832.255 -2800.026 1.389 -3.311 -0.825 -0.09 0.63 -0.77 0.08
1 4.02 402 -2.107 -6.546 2.193 -12.268 44.830 15.350 -824.013 2802.274 -2800.026 2.396 -3.068 -0.313 -0.08 0.63 -0.77 0.08
1 4.03 403 -2.299 -7.034 1.781 -48.432 27.771 22.614 -824.013 2802.274 -2800.026 2.554 -2.580 0.101 -0.08 0.63 -0.77 0.08
1 4.04 404 -1.556 -7.753 1.441 -59.357 -6.195 19.745 -734.072 2787.284 -3025.029 1.734 -1.891 0.295 -0.08 0.64 -0.76 0.08
1 4.05 405 -0.364 -8.342 1.700 -39.124 -20.020 10.040 -779.042 2742.164 -3025.029 0.518 -1.317 -0.046 -0.08 0.64 -0.76 0.08
1 4.06 406 0.996 -8.864 2.423 -9.491 -16.266 0.580 -779.042 2742.164 -3025.029 -0.848 -0.803 -0.817 -0.08 0.64 -0.76 0.08
1 4.07 407 1.695 -9.094 2.897 12.817 1.587 -4.974 -659.121 2787.284 -2920.098 -1.539 -0.573 -1.291 -0.08 0.64 -0.76 0.08
1 4.08 408 1.283 -8.797 2.820 20.752 27.100 -9.399 -749.062 2802.274 -2980.059 -1.109 -0.864 -1.181 -0.08 0.64 -0.76 0.08
1 4.09 409 0.685 -8.533 2.026 15.289 31.494 -12.756 -719.082 2952.177 -2935.088 -0.493 -1.119 -0.343 -0.08 0.64 -0.76 0.08
1 4.10 410 -0.201 -8.495 1.188 11.108 25.665 -16.419 -719.082 2952.177 -2935.088 0.409 -1.151 0.528 -0.08 0.64 -0.76 0.08
1 4.11 411 -0.594 -8.514 0.546 10.773 16.083 -20.569 -719.082 2727.173 -2980.059 0.817 -1.129 1.189 -0.08 0.64 -0.76 0.08
1 4.12 412 -1.159 -8.390 0.694 9.003 9.735 -25.024 -629.140 2937.187 -2920.098 1.437 -1.246 1.073 -0.08 0.64 -0.76 0.07
1 4.13 413 -1.092 -8.318 0.852 4.303 9.827 -25.391 -629.140 2937.187 -2920.098 1.405 -1.314 0.928 -0.08 0.63 -0.77 0.07
1 4.14 414 -1.097 -8.112 1.140 -5.463 11.658 -24.597 -734.072 2817.265 -2920.098 1.444 -1.518 0.643 -0.08 0.63 -0.77 0.07
1 4.15 415 -1.020 -8.265 1.168 -16.876 11.566 -22.247 -719.082 2727.173 -3115.121 1.399 -1.366 0.603 -0.08 0.63 -0.77 0.07
1 4.16 416 -1.039 -8.830 0.637 -29.175 6.317 -18.982 -659.121 2787.284 -2950.078 1.448 -0.805 1.106 -0.08 0.64 -0.76 0.06
1 4.17 417 -0.742 -9.127 0.565 -31.250 1.282 -15.778 -659.121 2787.284 -2950.078 1.178 -0.514 1.138 -0.08 0.64 -0.76 0.06
1 4.18 418 -0.747 -9.352 0.555 -26.642 -2.258 -15.778 -719.082 2757.154 -2859.987 1.196 -0.298 1.094 -0.08 0.64 -0.76 0.06
1 4.19 419 -0.541 -8.983 0.584 -11.322 0.824 -19.989 -704.091 2667.212 -2950.078 1.023 -0.679 0.979 -0.08 0.64 -0.76 0.06
1 4.20 420 -0.503 -8.816 0.522 -1.740 6.561 -23.102 -704.091 2667.212 -2950.078 1.007 -0.849 1.021 -0.08 0.64 -0.76 0.06
1 4.21 421 -0.637 -8.394 0.259 5.737 10.681 -24.048 -704.091 2967.167 -2815.016 1.166 -1.270 1.279 -0.08 0.64 -0.76 0.06
1 4.22 422 -0.819 -8.117 -0.115 6.775 10.529 -24.445 -824.013 2877.226 -2830.006 1.381 -1.544 1.663 -0.09 0.64 -0.76 0.06
1 4.23 423 -1.092 -8.011 -0.287 1.526 -4.639 -25.208 -779.042 2817.265 -2920.098 1.688 -1.646 1.845 -0.09 0.64 -0.76 0.05
1 4.24 424 -1.168 -7.892 -0.316 -7.843 -17.883 -28.626 -779.042 2817.265 -2920.098 1.801 -1.762 1.878 -0.09 0.64 -0.76 0.05
1 4.25 425 -0.943 -8.212 -0.220 -20.691 -27.954 -35.919 -884.124 2787.284 -2920.098 1.620 -1.440 1.772 -0.09 0.64 -0.76 0.05
1 4.26 426 -0.158 -9.319 0.340 -44.953 -23.651 -45.960 -884.124 2892.216 -2995.049 0.959 -0.337 1.133 -0.1 0.64 -0.76 0.05
1 4.27 427 0.393 -10.334 0.316 -59.174 -8.179 -48.309 -884.124 2892.216 -2995.049 0.479 0.673 1.079 -0.1 0.65 -0.75 0.05
1 4.28 428 0.843 -11.550 0.067 -67.627 11.597 -46.692 -884.124 2892.216 -2815.016 0.096 1.881 1.228 -0.1 0.65 -0.75 0.05
1 4.29 429 1.144 -12.829 -0.292 -67.230 26.917 -39.246 -884.124 2892.216 -2815.016 -0.142 3.154 1.488 -0.11 0.65 -0.75 0.04
1 4.30 430 0.924 -13.719 -0.488 -51.575 32.074 -23.316 -989.056 2967.167 -2890.117 0.128 4.039 1.592 -0.11 0.66 -0.74 0.04
1 4.31 431 0.517 -13.322 -0.192 -31.647 26.825 -18.677 -989.056 2967.167 -2890.117 0.568 3.636 1.219 -0.11 0.66 -0.74 0.03
1 4.32 432 0.249 -12.723 0.742 -5.127 17.731 -19.440 -1004.046 2952.177 -2905.107 0.860 3.035 0.235 -0.1 0.66 -0.74 0.03
1 4.33 433 0.062 -12.733 1.820 38.757 -6.439 -10.315 -899.114 2907.206 -2800.026 1.097 3.052 -0.828 -0.11 0.66 -0.74 0.03
1 4.34 434 0.948 -13.058 3.290 32.806 -24.048 8.392 -899.114 2907.206 -2800.026 0.222 3.385 -2.240 -0.11 0.66 -0.74 0.03
1 4.35 435 2.332 -12.905 3.242 -3.204 -33.234 33.936 -914.104 2937.187 -2785.036 -1.180 3.233 -2.161 -0.11 0.66 -0.74 0.03
1 4.36 436 3.189 -12.570 2.284 -29.999 -35.339 50.507 -914.104 2937.187 -2785.036 -2.090 2.890 -1.226 -0.11 0.66 -0.74 0.04
1 4.37 437 3.026 -12.513 1.681 -44.251 -28.504 57.617 -929.095 2907.206 -2905.107 -2.001 2.818 -0.679 -0.11 0.66 -0.74 0.04
1 4.38 438 1.575 -11.703 0.953 -34.363 -7.477 60.456 -929.095 2907.206 -2905.107 -0.632 1.993 -0.022 -0.11 0.66 -0.74 0.04
1 4.39 439 0.311 -11.368 1.168 -8.484 -5.280 61.432 -1019.036 3087.239 -2710.084 0.544 1.644 -0.296 -0.1 0.67 -0.74 0.05
1 4.40 440 -0.929 -11.033 3.323 12.146 -0.885 46.814 -959.075 3087.239 -2844.997 1.609 1.294 -2.466 -0.1 0.67 -0.74 0.06
1 4.41 441 -1.015 -10.789 3.687 10.132 1.587 39.032 -959.075 3087.239 -2844.997 1.631 1.047 -2.813 -0.1 0.67 -0.74 0.06
1 4.42 442 -1.231 -10.487 3.955 5.615 -23.285 21.790 -914.104 3042.268 -2815.016 1.804 0.744 -3.072 -0.09 0.67 -0.74 0.06
1 4.43 443 -0.742 -11.224 4.003 1.007 -64.118 21.179 -914.104 3042.268 -2815.016 1.288 1.480 -3.114 -0.1 0.67 -0.74 0.06
1 4.44 444 0.709 -11.962 4.487 -32.776 -104.065 44.006 -719.082 3102.229 -2755.055 -0.188 2.215 -3.609 -0.1 0.67 -0.73 0.07
1 4.45 445 4.051 -12.589 4.453 -32.745 -90.851 55.664 -719.082 3102.229 -2755.055 -3.577 2.836 -3.624 -0.1 0.67 -0.73 0.08
1 4.46 446 5.540 -12.474 3.644 5.310 -46.539 58.655 -899.114 3057.258 -2859.987 -5.134 2.713 -2.874 -0.11 0.67 -0.73 0.08
1 4.47 447 5.478 -11.440 3.046 48.218 5.066 54.901 -809.023 2967.167 -2815.016 -5.152 1.675 -2.288 -0.11 0.67 -0.73 0.09
1 4.48 448 3.635 -9.012 2.193 64.301 43.152 24.445 -809.023 2967.167 -2815.016 -3.459 -0.744 -1.283 -0.1 0.67 -0.73 0.1
1 4.49 449 2.399 -8.557 1.987 47.730 36.408 2.472 -809.023 3117.219 -2785.036 -2.244 -1.190 -0.979 -0.1 0.66 -0.74 0.09
1 4.50 450 1.417 -8.916 1.690 25.086 19.898 -7.904 -809.023 3117.219 -2785.036 -1.247 -0.823 -0.611 -0.09 0.66 -0.74 0.09
1 4.51 451 0.939 -9.496 1.528 7.416 4.089 -9.399 -794.033 3132.209 -2650.124 -0.748 -0.239 -0.413 -0.09 0.66 -0.74 0.09
1 4.52 452 1.106 -9.366 1.647 7.202 -12.756 -12.573 -749.062 3027.278 -2859.987 -0.895 -0.366 -0.520 -0.09 0.66 -0.74 0.09
1 4.53 453 1.551 -8.859 1.686 22.217 -19.592 -19.623 -839.003 3162.190 -2740.065 -1.315 -0.872 -0.548 -0.1 0.66 -0.74 0.09
1 4.54 454 2.026 -8.184 1.729 40.833 -26.123 -21.820 -719.082 3057.258 -2830.006 -1.752 -1.543 -0.561 -0.1 0.66 -0.74 0.09
1 4.55 455 2.902 -7.125 1.887 54.627 -32.684 -17.639 -719.082 3057.258 -2830.006 -2.551 -2.582 -0.589 -0.1 0.65 -0.75 0.09
1 4.56 456 3.285 -6.819 2.160 43.091 -34.271 -11.902 -839.003 3087.239 -2890.117 -2.902 -2.877 -0.786 -0.11 0.65 -0.75 0.09
1 4.57 457 3.582 -6.718 2.208 17.029 -29.053 -5.127 -839.003 3087.239 -2890.117 -3.177 -2.969 -0.780 -0.11 0.64 -0.75 0.09
1 4.58 458 3.596 -6.943 2.308 -12.878 -18.799 3.143 -929.095 2982.157 -2800.026 -3.181 -2.741 -0.868 -0.11 0.64 -0.75 0.09
1 4.59 459 3.022 -7.815 2.021 -40.863 4.639 11.353 -794.033 3102.229 -2935.088 -2.610 -1.874 -0.611 -0.11 0.64 -0.75 0.1
1 4.60 460 2.102 -8.394 1.642 -36.499 18.677 11.566 -869.134 2907.206 -2980.059 -1.706 -1.304 -0.290 -0.11 0.65 -0.75 0.1
1 4.61 461 0.900 -9.026 1.379 -18.127 21.484 9.796 -884.124 3012.288 -2890.117 -0.525 -0.680 -0.083 -0.11 0.65 -0.75 0.1
1 4.62 462 -0.508 -9.079 0.953 17.090 -4.059 2.441 -884.124 3012.288 -2890.117 0.858 -0.632 0.312 -0.11 0.65 -0.75 0.09
1 4.63 463 -0.412 -8.777 1.087 32.257 -26.489 -0.031 -959.075 3087.239 -2920.098 0.757 -0.930 0.208 -0.11 0.65 -0.75 0.1
1 4.64 464 0.297 -8.131 1.068 38.483 -38.574 3.571 -959.075 3087.239 -2920.098 0.049 -1.570 0.275 -0.11 0.65 -0.75 0.1
1 4.65 465 1.140 -7.695 1.144 40.222 -36.408 12.329 -929.095 3102.229 -2755.055 -0.794 -1.998 0.255 -0.11 0.65 -0.75 0.1
1 4.66 466 1.705 -7.312 1.001 36.652 -23.010 22.430 -779.042 3087.239 -2890.117 -1.374 -2.373 0.456 -0.11 0.64 -0.75 0.1
1 4.67 467 2.433 -7.135 0.862 21.271 1.526 31.799 -839.003 3117.219 -2890.117 -2.134 -2.544 0.646 -0.11 0.64 -0.75 0.11
1 4.68 468 2.500 -7.044 0.900 7.507 12.787 33.478 -824.013 3102.229 -2905.107 -2.246 -2.630 0.644 -0.11 0.64 -0.75 0.11
1 4.69 469 2.212 -7.145 0.972 -4.486 16.632 31.403 -824.013 3102.229 -2905.107 -2.011 -2.528 0.588 -0.11 0.64 -0.75 0.11
1 4.70 470 1.619 -7.360 0.910 -14.404 9.155 21.668 -824.013 2952.177 -3115.121 -1.513 -2.317 0.633 -0.1 0.64 -0.75 0.11
1 4.71 471 1.255 -7.762 0.857 -15.564 -1.007 13.855 -824.013 2952.177 -3115.121 -1.180 -1.919 0.664 -0.1 0.64 -0.75 0.11
1 4.72 472 0.986 -8.174 0.709 -14.374 -11.841 7.263 -779.042 3087.239 -2995.049 -0.929 -1.511 0.790 -0.1 0.64 -0.75 0.11
1 4.73 473 0.919 -8.356 0.623 -12.665 -20.233 3.052 -869.134 3057.258 -2980.059 -0.868 -1.332 0.855 -0.1 0.64 -0.75 0.11
1 4.74 474 1.111 -8.916 0.603 -8.972 -30.365 2.411 -734.072 3042.268 -3025.029 -1.058 -0.774 0.857 -0.1 0.64 -0.75 0.11
1 4.75 475 1.417 -9.070 0.737 -7.965 -33.814 5.280 -884.124 2937.187 -3025.029 -1.358 -0.623 0.706 -0.1 0.64 -0.75 0.12
1 4.76 476 1.920 -9.247 0.948 -7.629 -33.142 10.071 -884.124 2937.187 -3025.029 -1.851 -0.449 0.478 -0.11 0.65 -0.75 0.12
1 4.77 477 2.586 -9.606 1.106 -12.695 -21.454 19.623 -929.095 3057.258 -2905.107 -2.511 -0.094 0.287 -0.11 0.65 -0.75 0.12
1 4.78 478 2.749 -9.802 1.154 -15.533 -9.583 27.771 -929.095 3057.258 -2905.107 -2.685 0.099 0.216 -0.11 0.65 -0.75 0.12
1 4.79 479 2.667 -9.999 1.417 -13.611 2.960 35.187 -974.065 2982.157 -2859.987 -2.626 0.292 -0.071 -0.11 0.65 -0.74 0.12
1 4.80 480 2.634 -10.262 1.350 -7.660 12.604 40.619 -929.095 3102.229 -2935.088 -2.627 0.552 -0.023 -0.11 0.65 -0.74 0.12
1 4.81 481 2.442 -10.300 1.044 3.448 18.097 41.840 -884.124 3012.288 -2844.997 -2.480 0.589 0.275 -0.11 0.65 -0.74 0.13
1 4.82 482 2.524 -10.420 0.656 22.430 20.325 39.551 -719.082 3207.161 -2905.107 -2.608 0.710 0.670 -0.1 0.65 -0.74 0.13
1 4.83 483 2.610 -10.353 0.316 31.677 16.785 35.858 -719.082 3207.161 -2905.107 -2.738 0.647 1.034 -0.1 0.65 -0.74 0.13
1 4.84 484 2.835 -10.113 0.144 30.640 10.590 28.290 -734.072 3192.170 -2950.078 -3.030 0.420 1.285 -0.1 0.65 -0.75 0.13
1 4.85 485 2.677 -10.353 0.273 18.189 7.477 21.484 -734.072 3192.170 -2950.078 -2.892 0.665 1.188 -0.1 0.65 -0.75 0.13
1 4.86 486 2.413 -10.573 0.551 0.671 7.111 14.984 -644.130 3132.209 -2980.059 -2.637 0.887 0.921 -0.1 0.64 -0.75 0.13
1 4.87 487 2.184 -11.124 0.522 -12.329 8.942 10.040 -644.130 3057.258 -3084.990 -2.418 1.437 0.941 -0.1 0.65 -0.75 0.13
1 4.88 488 1.508 -12.264 0.412 -18.677 14.557 2.594 -659.121 3087.239 -2890.117 -1.758 2.573 1.030 -0.09 0.65 -0.75 0.13
1 4.89 489 1.350 -12.915 0.259 -15.472 19.257 -0.183 -644.130 3177.180 -3084.990 -1.609 3.221 1.156 -0.09 0.65 -0.75 0.13
1 4.90 490 0.967 -13.422 -0.077 -6.989 23.682 3.601 -644.130 3177.180 -3084.990 -1.230 3.725 1.466 -0.09 0.65 -0.74 0.13
1 4.91 491 0.742 -13.193 -0.441 7.355 28.626 12.573 -569.029 3027.278 -3040.020 -1.012 3.493 1.815 -0.09 0.65 -0.74 0.13
1 4.92 492 0.551 -11.852 -0.986 33.112 35.462 28.961 -569.029 3027.278 -3040.020 -0.880 2.159 2.393 -0.09 0.65 -0.75 0.12
1 4.93 493 0.694 -10.793 -1.408 41.412 36.438 35.645 -599.010 3162.340 -2919.948 -1.078 1.110 2.866 -0.08 0.65 -0.75 0.12
1 4.94 494 1.025 -9.936 -1.446 35.950 36.347 35.523 -659.121 3267.271 -2994.899 -1.471 0.265 2.962 -0.08 0.65 -0.75 0.12
1 4.95 495 1.456 -9.539 0.067 20.386 33.386 32.349 -599.010 3012.288 -3070.000 -1.951 -0.127 1.472 -0.07 0.65 -0.75 0.12
1 4.96 496 0.589 -10.353 1.274 -8.667 28.534 20.355 -644.130 3027.278 -3114.971 -1.124 0.690 0.272 -0.07 0.65 -0.75 0.12
1 4.97 497 -0.536 -11.445 1.968 -50.202 10.773 -1.495 -644.130 3027.278 -3114.971 -0.027 1.782 -0.434 -0.07 0.65 -0.75 0.12
1 4.98 498 -1.350 -12.541 2.073 -89.814 -6.317 -32.379 -509.068 3027.278 -3144.951 0.781 2.870 -0.599 -0.07 0.65 -0.75 0.12
1 4.99 499 -1.561 -14.016 1.484 -60.730 -35.339 -54.077 -509.068 3027.278 -3144.951 1.105 4.304 -0.258 -0.07 0.66 -0.74 0.12
1 5.00 500 -1.298 -14.007 2.998 -13.916 -56.091 -53.772 -479.088 3162.340 -3025.029 0.929 4.282 -1.842 -0.08 0.66 -0.74 0.12
1 5.01 501 -0.464 -13.533 3.874 20.203 -48.981 -60.333 -554.039 3192.320 -3025.029 0.188 3.804 -2.721 -0.09 0.66 -0.74 0.12
1 5.02 502 1.896 -12.594 3.816 16.419 -44.220 -55.481 -614.000 3102.229 -3040.020 -2.074 2.868 -2.630 -0.09 0.66 -0.74 0.12
1 5.03 503 4.065 -10.358 4.722 10.468 -14.404 -20.020 -644.130 3207.311 -2934.938 -4.161 0.633 -3.515 -0.1 0.66 -0.74 0.12
1 5.04 504 3.960 -9.003 4.999 34.058 44.434 -18.799 -644.130 3207.311 -2934.938 -4.013 -0.721 -3.779 -0.1 0.65 -0.74 0.12
1 5.05 505 2.629 -8.562 4.889 57.251 96.619 -28.504 -689.101 3207.311 -3040.020 -2.662 -1.156 -3.628 -0.1 0.65 -0.74 0.11
1 5.06 506 0.024 -8.193 3.309 57.556 119.995 -35.584 -689.101 3207.311 -3040.020 0.019 -1.496 -1.839 -0.09 0.65 -0.75 0.1
1 5.07 507 -1.757 -7.528 1.384 47.791 90.393 -35.645 -689.101 3207.311 -3009.889 1.831 -2.145 0.186 -0.08 0.64 -0.76 0.09
1 5.08 508 -2.686 -7.159 0.259 37.048 30.365 -33.814 -689.101 3282.262 -3084.990 2.793 -2.503 1.380 -0.08 0.64 -0.76 0.09
1 5.09 509 -2.557 -6.795 0.728 19.287 -29.633 -32.410 -689.101 3282.262 -3084.990 2.710 -2.857 0.960 -0.08 0.64 -0.76 0.08
1 5.10 510 -1.609 -6.958 2.102 -23.377 -64.911 -38.513 -569.029 3057.258 -3219.902 1.821 -2.690 -0.396 -0.08 0.64 -0.76 0.08
1 5.11 511 -0.742 -8.150 2.825 -54.535 -53.833 -44.434 -569.029 3057.258 -3219.902 1.025 -1.500 -1.144 -0.09 0.64 -0.76 0.08
1 5.12 512 0.067 -9.884 3.074 -75.348 -34.241 -41.168 -689.101 3177.330 -3265.023 0.295 0.223 -1.466 -0.1 0.64 -0.76 0.08
1 5.13 513 1.499 -12.072 2.734 -60.852 -15.808 -8.575 -689.101 3177.330 -3265.023 -1.022 2.384 -1.337 -0.1 0.65 -0.75 0.08
1 5.14 514 2.212 -11.890 2.696 -14.526 -4.242 16.541 -779.042 3312.242 -3234.893 -1.730 2.191 -1.375 -0.1 0.65 -0.75 0.08
1 5.15 515 1.935 -10.597 2.749 39.642 12.512 31.067 -794.033 3177.330 -3114.971 -1.484 0.897 -1.428 -0.1 0.65 -0.75 0.08
1 5.16 516 1.365 -9.137 2.701 78.614 29.694 31.738 -794.033 3177.330 -3114.971 -0.965 -0.555 -1.304 -0.1 0.65 -0.75 0.08
1 5.17 517 0.019 -7.298 2.495 85.602 50.537 15.167 -899.114 3177.330 -3009.889 0.339 -2.375 -0.963 -0.1 0.64 -0.76 0.08
1 5.18 518 -0.713 -6.809 2.035 64.575 54.932 8.728 -899.114 3177.330 -3009.889 1.035 -2.842 -0.366 -0.09 0.64 -0.76 0.08
1 5.19 519 -1.159 -6.771 2.050 32.562 48.584 13.214 -779.042 3117.219 -3025.029 1.451 -2.862 -0.273 -0.09 0.63 -0.76 0.08
1 5.20 520 -1.413 -6.690 1.772 -13.428 19.714 26.032 -779.042 3117.219 -3025.029 1.633 -2.931 0.082 -0.08 0.63 -0.77 0.08
1 5.21 521 -1.427 -6.670 1.839 -24.658 6.866 26.947 -749.062 2982.307 -3265.023 1.605 -2.956 -0.013 -0.08 0.63 -0.77 0.08
1 5.22 522 -0.316 -7.298 1.939 -41.321 -26.978 15.961 -629.140 3117.219 -3129.961 0.463 -2.340 -0.168 -0.08 0.64 -0.76 0.08
1 5.23 523 0.579 -8.121 2.351 -38.391 -33.081 2.502 -629.140 3117.219 -3129.961 -0.443 -1.527 -0.641 -0.08 0.64 -0.76 0.09
1 5.24 524 1.432 -8.878 2.701 -20.752 -9.003 -13.397 -629.140 3117.219 -3174.932 -1.287 -0.780 -1.045 -0.08 0.64 -0.76 0.09
1 5.25 525 1.053 -9.654 2.552 -5.798 14.496 -17.975 -629.140 3117.219 -3174.932 -0.880 -0.009 -0.925 -0.08 0.64 -0.76 0.09
1 5.26 526 0.067 -9.510 1.729 7.904 28.229 -20.355 -794.033 3132.209 -3295.003 0.140 -0.153 -0.107 -0.09 0.64 -0.76 0.08
1 5.27 527 -0.747 -9.208 0.986 18.402 28.473 -22.827 -794.033 3132.209 -3295.003 0.982 -0.452 0.648 -0.09 0.64 -0.76 0.08
1 5.28 528 -1.293 -8.653 0.666 21.851 16.907 -24.475 -659.121 3087.239 -3234.893 1.571 -0.996 1.023 -0.08 0.64 -0.76 0.08
1 5.29 529 -1.226 -8.428 0.828 12.970 11.231 -23.895 -629.140 3087.239 -3204.912 1.531 -1.216 0.888 -0.08 0.64 -0.76 0.08
1 5.30 530 -1.030 -8.251 0.848 -0.641 9.644 -21.668 -629.140 3087.239 -3204.912 1.367 -1.389 0.884 -0.08 0.64 -0.76 0.07
1 5.31 531 -0.690 -8.390 0.852 -13.367 9.064 -18.829 -659.121 3162.340 -3129.961 1.055 -1.250 0.873 -0.08 0.64 -0.76 0.07
1 5.32 532 -0.278 -8.821 0.541 -23.590 3.662 -14.618 -749.062 3057.258 -3219.902 0.668 -0.822 1.162 -0.08 0.64 -0.76 0.07
1 5.33 533 -0.182 -8.959 0.575 -24.262 -0.488 -13.672 -644.130 3177.330 -3219.902 0.594 -0.688 1.095 -0.09 0.64 -0.76 0.07
1 5.34 534 0.043 -9.065 0.670 -22.461 -1.007 -14.771 -644.130 3177.330 -3219.902 0.384 -0.590 0.956 -0.09 0.64 -0.76 0.07
1 5.35 535 -0.005 -9.208 1.030 -17.822 3.937 -15.656 -614.000 3207.311 -3144.951 0.469 -0.457 0.521 -0.09 0.64 -0.76 0.07
1 5.36 536 -0.067 -9.132 1.020 -14.099 8.698 -16.663 -734.072 3342.223 -3174.932 0.551 -0.537 0.502 -0.09 0.64 -0.76 0.06
1 5.37 537 -0.407 -9.161 0.848 -9.552 14.008 -17.548 -734.072 3342.223 -3174.932 0.910 -0.511 0.654 -0.09 0.64 -0.76 0.06
1 5.38 538 -0.814 -9.184 0.397 -5.096 15.259 -17.181 -809.023 3192.320 -3234.893 1.333 -0.488 1.089 -0.09 0.65 -0.76 0.06
1 5.39 539 -1.441 -9.117 -0.168 -0.031 6.378 -17.029 -959.075 3162.340 -3204.912 1.973 -0.556 1.643 -0.09 0.65 -0.76 0.06
1 5.40 540 -1.551 -8.988 -0.335 -1.678 -3.235 -21.240 -779.042 3117.219 -3234.893 2.095 -0.686 1.801 -0.09 0.65 -0.76 0.06
1 5.41 541 -1.571 -9.012 -0.168 -6.439 -10.803 -27.588 -779.042 3117.219 -3234.893 2.129 -0.664 1.620 -0.09 0.65 -0.76 0.06
1 5.42 542 -1.202 -9.764 0.517 -23.407 -13.733 -36.347 -704.091 3267.271 -3174.932 1.821 0.084 0.883 -0.09 0.65 -0.75 0.06
1 5.43 543 -0.776 -10.473 0.910 -34.882 -9.369 -36.957 -719.082 3132.209 -3295.003 1.438 0.789 0.443 -0.09 0.65 -0.75 0.06
1 5.44 544 0.038 -11.258 1.221 -39.124 -1.617 -34.363 -719.082 3132.209 -3295.003 0.667 1.569 0.073 -0.1 0.65 -0.75 0.05
1 5.45 545 0.541 -11.837 1.039 -34.027 4.578 -26.276 -869.134 3282.262 -3189.922 0.213 2.145 0.198 -0.1 0.65 -0.75 0.05
1 5.46 546 0.833 -12.062 0.737 -17.181 8.240 -18.219 -914.104 3237.291 -3204.912 -0.044 2.367 0.455 -0.1 0.66 -0.75 0.05
1 5.47 547 0.699 -11.670 0.000 12.207 7.111 -10.651 -899.114 3252.281 -3219.902 0.113 1.974 1.175 -0.1 0.66 -0.75 0.05
1 5.48 548 0.445 -11.239 -0.498 26.917 3.784 -8.637 -899.114 3252.281 -3219.902 0.382 1.546 1.685 -0.1 0.66 -0.75 0.05
1 5.49 549 0.163 -10.659 -0.718 31.677 -1.160 -8.362 -959.075 3312.242 -3174.932 0.676 0.972 1.941 -0.1 0.65 -0.75 0.05
1 5.50 550 -0.350 -10.295 -1.034 20.935 -9.399 -7.904 -899.114 3282.262 -3084.990 1.209 0.619 2.328 -0.1 0.65 -0.75 0.05
1 5.51 551 -0.364 -10.133 -1.063 7.904 -15.747 -8.759 -899.114 3282.262 -3084.990 1.229 0.458 2.364 -0.1 0.65 -0.75 0.05
1 5.52 552 -0.393 -10.147 -0.781 -3.479 -19.928 -9.918 -839.003 3087.239 -3099.980 1.265 0.471 2.069 -0.1 0.65 -0.75 0.05
1 5.53 553 -0.292 -10.075 0.254 -10.345 -18.127 -12.116 -914.104 3387.343 -3129.961 1.174 0.397 1.007 -0.1 0.65 -0.75 0.05
1 5.54 554 -0.139 -9.692 1.595 -7.813 -6.805 -13.062 -809.023 3312.242 -3204.912 1.034 0.011 -0.362 -0.1 0.65 -0.75 0.05
1 5.55 555 0.354 -10.238 1.930 -7.782 -3.967 -5.554 -809.023 3312.242 -3204.912 0.554 0.557 -0.711 -0.1 0.65 -0.75 0.05
1 5.56 556 1.302 -10.841 1.925 -24.902 -8.362 11.017 -974.215 3282.262 -3215.855 -0.389 1.159 -0.714 -0.11 0.65 -0.75 0.05
1 5.57 557 2.069 -11.066 0.809 -50.080 -18.250 39.520 -1019.186 3237.291 -3275.816 -1.204 1.369 0.314 -0.1 0.66 -0.74 0.05
1 5.58 558 2.217 -11.660 -0.148 -39.917 -25.696 50.232 -1019.186 3237.291 -3275.816 -1.412 1.950 1.196 -0.1 0.66 -0.74 0.05
1 5.59 559 2.366 -12.460 0.292 -26.611 -30.151 62.653 -1139.258 3237.291 -3170.884 -1.635 2.737 0.698 -0.1 0.66 -0.74 0.06
1 5.60 560 2.366 -12.369 1.872 -23.407 -30.457 73.120 -1109.277 3327.382 -3215.855 -1.729 2.636 -0.922 -0.1 0.66 -0.74 0.06
1 5.61 561 1.844 -11.871 3.682 -25.604 -23.529 71.076 -899.264 3357.363 -3035.822 -1.313 2.128 -2.770 -0.1 0.67 -0.74 0.07
1 5.62 562 1.001 -11.426 5.095 -10.590 -6.470 46.600 -899.264 3357.363 -3035.822 -0.569 1.674 -4.220 -0.1 0.67 -0.73 0.07
1 5.63 563 0.302 -11.919 5.023 -0.916 -10.162 36.133 -884.274 3267.271 -3020.832 0.054 2.163 -4.169 -0.1 0.67 -0.73 0.08
1 5.64 564 -0.168 -12.551 4.233 -11.383 -51.636 37.781 -899.264 3357.363 -3110.923 0.418 2.790 -3.392 -0.09 0.67 -0.73 0.08
1 5.65 565 0.661 -12.345 4.075 -9.918 -75.440 38.239 -899.264 3357.363 -3110.923 -0.460 2.581 -3.254 -0.1 0.67 -0.73 0.09
1 5.66 566 2.040 -12.038 3.860 14.710 -74.524 40.527 -884.274 3462.294 -3065.803 -1.888 2.273 -3.048 -0.1 0.67 -0.73 0.1
1 5.67 567 2.902 -11.200 3.884 44.617 -48.737 45.227 -839.153 3462.294 -3095.783 -2.803 1.437 -3.039 -0.1 0.67 -0.73 0.1
1 5.68 568 2.634 -9.496 3.117 53.040 4.730 42.542 -1079.147 3552.386 -3140.904 -2.599 -0.261 -2.199 -0.1 0.67 -0.73 0.11
1 5.69 569 2.050 -8.921 2.571 30.701 23.071 28.626 -1079.147 3552.386 -3140.904 -2.081 -0.828 -1.570 -0.1 0.66 -0.73 0.11
1 5.70 570 1.437 -9.290 1.954 2.472 24.109 12.512 -914.254 3342.373 -3020.832 -1.500 -0.451 -0.882 -0.1 0.66 -0.74 0.11
1 5.71 571 1.044 -9.989 1.499 -12.970 15.106 -0.092 -929.245 3477.285 -3140.904 -1.121 0.251 -0.403 -0.09 0.66 -0.74 0.11
1 5.72 572 1.212 -10.798 1.197 2.625 -3.021 -11.292 -929.245 3477.285 -3140.904 -1.268 1.057 -0.124 -0.09 0.66 -0.74 0.11
1 5.73 573 1.499 -10.449 1.662 28.687 -13.947 -15.320 -749.212 3432.314 -3185.875 -1.536 0.709 -0.575 -0.09 0.66 -0.74 0.11
1 5.74 574 2.236 -9.601 1.882 50.690 -19.348 -18.860 -779.192 3462.294 -3125.914 -2.240 -0.132 -0.742 -0.1 0.66 -0.74 0.11
1 5.75 575 2.840 -8.481 1.863 64.057 -23.193 -20.599 -809.173 3567.376 -3125.914 -2.795 -1.242 -0.636 -0.1 0.65 -0.74 0.11
1 5.76 576 3.711 -7.063 1.829 62.409 -26.367 -19.379 -809.173 3567.376 -3125.914 -3.611 -2.646 -0.501 -0.1 0.65 -0.75 0.11
1 5.77 577 4.137 -6.551 1.805 46.600 -24.597 -18.402 -869.284 3432.314 -3185.875 -4.002 -3.144 -0.382 -0.1 0.65 -0.75 0.11
1 5.78 578 4.271 -6.220 2.026 25.208 -19.501 -15.900 -1064.157 3312.392 -3305.796 -4.102 -3.463 -0.526 -0.1 0.64 -0.75 0.11
1 5.79 579 3.998 -6.546 2.050 -10.345 -5.066 -11.322 -1064.157 3312.392 -3305.796 -3.776 -3.127 -0.495 -0.11 0.64 -0.75 0.11
1 5.80 580 3.352 -7.264 2.088 -27.039 7.874 -7.446 -899.264 3252.281 -3215.855 -3.114 -2.412 -0.556 -0.11 0.64 -0.75 0.11
1 5.81 581 2.380 -8.150 1.796 -35.095 17.670 -8.362 -884.274 3312.392 -3410.878 -2.133 -1.533 -0.307 -0.11 0.64 -0.75 0.11
1 5.82 582 1.283 -8.993 1.595 -33.295 19.196 -12.848 -809.173 3387.343 -3230.845 -1.027 -0.698 -0.158 -0.11 0.64 -0.75 0.11
1 5.83 583 0.201 -9.635 1.456 -6.561 4.242 -18.036 -809.173 3387.343 -3230.845 0.083 -0.061 -0.060 -0.11 0.65 -0.75 0.1
1 5.84 584 0.163 -9.443 1.384 20.233 -10.651 -14.282 -884.274 3387.343 -3380.897 0.147 -0.254 -0.005 -0.11 0.65 -0.75 0.1
1 5.85 585 0.493 -8.892 1.307 44.708 -17.883 -5.676 -1004.196 3432.314 -3185.875 -0.159 -0.802 0.092 -0.11 0.65 -0.75 0.1
1 5.86 586 1.322 -7.638 1.212 60.486 -14.435 7.172 -1004.196 3432.314 -3185.875 -0.970 -2.035 0.325 -0.11 0.64 -0.75 0.1
1 5.87 587 1.623 -6.915 1.298 56.122 -3.876 14.954 -899.264 3327.382 -3185.875 -1.282 -2.744 0.327 -0.11 0.64 -0.76 0.1
1 5.88 588 1.666 -6.364 1.422 41.229 6.958 20.752 -899.264 3432.314 -3425.868 -1.349 -3.282 0.282 -0.11 0.63 -0.76 0.11
1 5.89 589 1.561 -6.177 1.049 22.827 15.350 23.987 -899.264 3432.314 -3425.868 -1.279 -3.459 0.710 -0.11 0.63 -0.76 0.11
1 5.90 590 0.761 -6.398 0.685 -4.669 19.257 24.170 -989.206 3387.343 -3275.816 -0.519 -3.235 1.101 -0.11 0.63 -0.76 0.11
1 5.91 591 0.412 -6.833 0.546 -16.388 14.832 20.416 -884.274 3267.271 -3455.849 -0.211 -2.801 1.240 -0.1 0.63 -0.76 0.11
1 5.92 592 0.412 -7.298 0.196 -21.607 6.714 17.517 -899.264 3132.359 -3260.826 -0.247 -2.340 1.570 -0.1 0.63 -0.76 0.11
1 5.93 593 0.929 -7.729 0.187 -19.043 -6.165 14.252 -899.264 3132.359 -3260.826 -0.817 -1.921 1.518 -0.1 0.63 -0.76 0.11
1 5.94 594 1.451 -7.844 0.302 -14.221 -9.827 14.496 -839.153 3117.369 -3350.917 -1.359 -1.811 1.377 -0.1 0.64 -0.76 0.11
1 5.95 595 1.935 -8.121 0.493 -10.071 -8.453 13.214 -914.254 3267.271 -3380.897 -1.861 -1.537 1.166 -0.1 0.64 -0.76 0.11
1 5.96 596 2.265 -8.284 0.651 -9.522 -5.981 13.855 -914.254 3267.271 -3380.897 -2.210 -1.377 0.994 -0.1 0.64 -0.76 0.11
1 5.97 597 2.389 -8.447 1.298 -14.160 -2.930 15.045 -959.225 3312.392 -3350.917 -2.353 -1.217 0.331 -0.1 0.64 -0.76 0.11
1 5.98 598 2.490 -9.204 1.269 -25.452 -1.190 18.677 -839.153 3342.373 -3380.897 -2.467 -0.464 0.336 -0.1 0.64 -0.75 0.11
1 5.99 599 2.423 -9.740 0.991 -31.586 0.366 23.163 -809.173 3267.271 -3380.897 -2.408 0.067 0.579 -0.1 0.64 -0.75 0.12
1 6.00 600 2.600 -10.736 0.532 -29.297 5.951 33.508 -809.173 3267.271 -3380.897 -2.623 1.047 0.938 -0.1 0.64 -0.75 0.12
1 6.01 601 2.524 -10.889 0.589 -25.848 8.362 38.483 -899.264 3357.363 -3365.907 -2.601 1.194 0.839 -0.1 0.65 -0.75 0.12
1 6.02 602 3.103 -11.248 0.967 -8.514 18.494 50.263 -914.254 3267.271 -3275.816 -3.251 1.550 0.435 -0.09 0.65 -0.75 0.12
1 6.03 603 2.926 -11.497 0.958 2.411 30.304 53.467 -914.254 3267.271 -3275.816 -3.155 1.800 0.436 -0.09 0.65 -0.75 0.12
1 6.04 604 2.744 -11.770 1.188 9.308 41.931 51.056 -839.153 3387.343 -3275.816 -3.058 2.076 0.211 -0.09 0.65 -0.75 0.12
1 6.05 605 1.724 -11.976 0.800 10.162 45.349 38.513 -794.183 3432.314 -3290.806 -2.121 2.287 0.612 -0.08 0.65 -0.75 0.12
1 6.06 606 0.824 -11.799 0.455 6.134 39.154 27.863 -569.179 3327.382 -3260.826 -1.292 2.114 0.969 -0.08 0.65 -0.75 0.12
1 6.07 607 0.019 -11.952 -0.306 4.974 28.473 19.440 -570.079 3327.382 -3256.628 -0.541 2.271 1.737 -0.07 0.65 -0.75 0.12
1 6.08 608 -0.484 -12.034 -1.235 8.270 9.308 14.191 -705.141 3567.376 -3376.700 -0.105 2.358 2.679 -0.07 0.65 -0.75 0.12
1 6.09 609 0.244 -11.823 -1.532 9.094 -0.824 15.289 -645.030 3552.386 -3421.671 -0.856 2.151 2.988 -0.07 0.65 -0.75 0.12
1 6.10 610 1.154 -11.411 -1.149 8.209 -2.289 18.127 -645.030 3552.386 -3421.671 -1.789 1.743 2.618 -0.07 0.65 -0.75 0.13
1 6.11 611 1.920 -11.315 0.555 9.216 5.096 16.541 -510.118 3402.333 -3211.658 -2.581 1.651 0.925 -0.06 0.65 -0.75 0.13
1 6.12 612 1.140 -12.359 2.825 1.526 20.447 -8.179 -465.147 3432.314 -3181.677 -1.824 2.698 -1.330 -0.06 0.65 -0.75 0.13
1 6.13 613 0.220 -13.154 4.195 -54.657 7.690 -39.063 -600.059 3492.425 -3346.720 -0.907 3.494 -2.693 -0.06 0.65 -0.75 0.13
1 6.14 614 -1.025 -14.543 3.069 -99.243 -2.716 -64.789 -600.059 3492.425 -3346.720 0.382 4.871 -1.625 -0.06 0.65 -0.75 0.12
1 6.15 615 -1.853 -16.228 1.480 -34.851 -34.607 -67.291 -465.147 3432.314 -3361.710 1.409 6.511 -0.291 -0.07 0.66 -0.74 0.12
1 6.16 616 -0.795 -15.501 1.959 30.609 -51.178 -48.279 -540.098 3552.386 -3256.628 0.451 5.776 -0.793 -0.08 0.66 -0.74 0.11
1 6.17 617 1.561 -13.293 1.978 52.704 -47.760 -22.369 -540.098 3552.386 -3256.628 -1.832 3.574 -0.752 -0.08 0.66 -0.74 0.11
1 6.18 618 3.749 -10.501 2.064 48.371 -29.450 6.042 -870.033 3552.386 -3316.739 -3.990 0.792 -0.759 -0.09 0.65 -0.74 0.12
1 6.19 619 4.377 -8.763 3.357 36.957 40.619 5.341 -735.121 3492.425 -3346.720 -4.627 -0.937 -1.981 -0.09 0.65 -0.75 0.12
1 6.20 620 3.567 -9.036 4.238 19.989 82.672 -5.066 -870.033 3507.415 -3316.739 -3.801 -0.654 -2.794 -0.08 0.65 -0.75 0.12
1 6.21 621 2.313 -9.271 4.769 -1.953 101.441 -6.989 -870.033 3507.415 -3316.739 -2.525 -0.412 -3.275 -0.08 0.65 -0.75 0.11
1 6.22 622 0.718 -9.343 4.324 -13.733 97.046 -7.080 -795.082 3432.314 -3286.759 -0.916 -0.337 -2.806 -0.08 0.65 -0.75 0.11
1 6.23 623 -1.461 -8.667 2.849 5.615 57.709 -12.299 -750.111 3477.435 -3316.739 1.263 -1.011 -1.323 -0.07 0.65 -0.75 0.1
1 6.24 624 -2.227 -8.126 1.896 30.762 27.588 -21.729 -750.111 3477.435 -3316.739 2.032 -1.548 -0.340 -0.07 0.65 -0.76 0.09
1 6.25 625 -2.332 -7.561 1.341 43.915 5.737 -33.905 -600.059 3387.343 -3196.667 2.163 -2.104 0.271 -0.07 0.64 -0.76 0.09
1 6.26 626 -2.581 -7.202 0.876 42.420 -6.592 -44.342 -600.059 3642.327 -3406.681 2.466 -2.453 0.801 -0.07 0.64 -0.76 0.09
1 6.27 627 -2.447 -7.370 1.073 13.001 -32.654 -51.483 -570.079 3432.314 -3361.710 2.402 -2.275 0.663 -0.07 0.64 -0.76 0.09
1 6.28 628 -2.011 -8.141 1.877 -22.034 -54.627 -47.913 -570.079 3432.314 -3361.710 2.050 -1.499 -0.112 -0.07 0.64 -0.76 0.09
1 6.29 629 -0.503 -9.285 2.849 -57.190 -67.475 -38.330 -705.141 3387.343 -3481.632 0.628 -0.357 -1.103 -0.08 0.64 -0.76 0.09
1 6.30 630 2.260 -11.392 3.759 -68.268 -47.852 -6.378 -810.072 3492.425 -3406.681 -2.012 1.723 -2.181 -0.09 0.64 -0.76 0.09
1 6.31 631 3.156 -11.627 3.505 -28.107 -10.040 21.515 -810.072 3492.425 -3406.681 -2.900 1.943 -2.019 -0.09 0.64 -0.75 0.09
1 6.32 632 2.428 -10.458 3.017 31.189 29.266 36.713 -810.072 3462.444 -3376.700 -2.211 0.771 -1.550 -0.09 0.65 -0.75 0.09
1 6.33 633 1.240 -9.003 2.667 77.729 56.000 34.973 -780.092 3567.376 -3226.648 -1.088 -0.676 -1.134 -0.09 0.64 -0.76 0.09
1 6.34 634 -0.986 -7.437 2.313 94.788 69.092 23.346 -795.082 3582.366 -3316.739 1.087 -2.220 -0.645 -0.08 0.64 -0.76 0.09
1 6.35 635 -1.877 -6.757 2.021 73.609 62.226 22.919 -795.082 3582.366 -3316.739 1.922 -2.875 -0.210 -0.08 0.63 -0.76 0.09
1 6.36 636 -2.423 -6.383 1.767 38.300 45.319 26.581 -870.033 3432.314 -3181.677 2.417 -3.225 0.162 -0.07 0.63 -0.77 0.09
1 6.37 637 -2.117 -6.187 1.585 -20.142 5.524 27.588 -870.033 3327.382 -3286.759 2.008 -3.404 0.426 -0.06 0.63 -0.77 0.09
1 6.38 638 -1.202 -6.584 1.470 -47.394 -22.217 20.020 -870.033 3327.382 -3286.759 1.055 -3.015 0.500 -0.06 0.63 -0.77 0.09
1 6.39 639 -0.129 -7.226 1.590 -59.601 -38.269 6.653 -510.118 3432.314 -3316.739 -0.034 -2.388 0.305 -0.06 0.63 -0.77 0.09
1 6.40 640 1.044 -8.232 2.093 -53.772 -33.051 -8.026 -690.150 3432.314 -3286.759 -1.200 -1.399 -0.284 -0.07 0.63 -0.76 0.09
1 6.41 641 1.695 -9.314 2.548 -36.713 -8.972 -17.822 -645.030 3282.412 -3316.739 -1.828 -0.330 -0.812 -0.07 0.64 -0.76 0.09
1 6.42 642 1.087 -10.123 2.624 -8.087 29.877 -21.912 -645.030 3282.412 -3316.739 -1.179 0.471 -0.929 -0.07 0.64 -0.76 0.09
1 6.43 643 0.029 -9.960 1.930 4.028 39.002 -21.851 -690.150 3507.415 -3136.707 -0.083 0.306 -0.247 -0.07 0.64 -0.76 0.09
1 6.44 644 -0.958 -9.620 1.058 13.306 28.076 -23.316 -720.131 3432.314 -3106.726 0.955 -0.030 0.646 -0.07 0.64 -0.76 0.08
1 6.45 645 -1.077 -9.323 0.718 16.571 18.768 -25.238 -720.131 3432.314 -3106.726 1.098 -0.324 1.003 -0.07 0.64 -0.76 0.08
1 6.46 646 -1.288 -9.328 0.555 14.374 11.780 -24.628 -660.020 3492.425 -3226.648 1.333 -0.316 1.183 -0.07 0.64 -0.76 0.08
1 6.47 647 -1.010 -9.132 0.680 6.866 6.073 -22.553 -660.020 3492.425 -3226.648 1.078 -0.510 1.070 -0.07 0.64 -0.76 0.08
1 6.48 648 -0.455 -8.878 0.680 -4.761 0.702 -20.050 -615.049 3327.382 -3466.642 0.546 -0.764 1.071 -0.07 0.64 -0.76 0.08
1 6.49 649 -0.024 -8.921 0.934 -8.728 -2.014 -20.355 -615.049 3327.382 -3466.642 0.138 -0.723 0.805 -0.07 0.64 -0.76 0.08
1 6.50 650 0.177 -8.787 0.857 -9.277 -0.854 -22.583 -660.020 3342.373 -3166.687 -0.036 -0.860 0.864 -0.07 0.64 -0.76 0.08
1 6.51 651 0.259 -8.964 1.106 -7.446 3.937 -25.574 -750.111 3432.314 -3286.759 -0.085 -0.685 0.596 -0.07 0.64 -0.76 0.07
1 6.52 652 -0.345 -8.864 0.819 -0.946 10.468 -29.694 -750.111 3432.314 -3286.759 0.594 -0.789 0.857 -0.08 0.64 -0.76 0.07
1 6.53 653 -0.565 -8.792 0.766 3.937 10.193 -30.060 -780.092 3462.444 -3406.681 0.853 -0.860 0.906 -0.08 0.64 -0.76 0.07
1 6.54 654 -1.121 -8.615 0.723 7.324 7.233 -26.856 -780.092 3462.444 -3406.681 1.444 -1.036 0.951 -0.08 0.64 -0.76 0.07
1 6.55 655 -1.662 -8.251 0.326 3.662 -1.770 -20.874 -810.072 3462.444 -3346.720 2.021 -1.397 1.359 -0.08 0.64 -0.76 0.06
1 6.56 656 -1.815 -7.839 0.110 -1.984 -8.545 -20.294 -810.072 3462.444 -3346.720 2.207 -1.806 1.582 -0.08 0.64 -0.76 0.06
1 6.57 657 -1.671 -7.633 0.034 -8.270 -15.717 -23.865 -810.072 3462.444 -3346.720 2.095 -2.011 1.657 -0.08 0.64 -0.76 0.06
1 6.58 658 -1.504 -7.738 0.125 -15.076 -22.553 -31.708 -810.072 3417.324 -3226.648 1.964 -1.906 1.555 -0.08 0.64 -0.76 0.06
1 6.59 659 -0.963 -8.270 0.493 -26.795 -25.421 -44.251 -810.072 3417.324 -3226.648 1.535 -1.377 1.133 -0.09 0.64 -0.76 0.06
1 6.60 660 -0.297 -8.873 0.958 -38.269 -21.454 -51.239 -930.144 3402.333 -3286.759 0.944 -0.777 0.623 -0.09 0.64 -0.76 0.06
1 6.61 661 0.417 -9.678 0.895 -47.974 -13.001 -56.946 -930.144 3402.333 -3286.759 0.310 0.023 0.621 -0.1 0.64 -0.76 0.06
1 6.62 662 1.030 -10.664 0.848 -51.911 0.366 -59.418 -900.164 3432.314 -3136.707 -0.219 1.004 0.590 -0.1 0.65 -0.76 0.05
1 6.63 663 1.504 -12.125 -0.105 -36.835 20.508 -51.575 -1005.095 3432.314 -3102.529 -0.607 2.461 1.464 -0.1 0.65 -0.75 0.05
1 6.64 664 1.379 -12.656 -0.795 -18.127 23.529 -37.842 -1110.177 3507.265 -3102.529 -0.406 2.992 2.096 -0.11 0.65 -0.75 0.05
1 6.65 665 0.766 -12.273 -1.202 -0.916 18.585 -22.125 -1200.118 3492.275 -3117.519 0.264 2.611 2.473 -0.11 0.65 -0.75 0.04
1 6.66 666 -0.105 -11.172 -0.881 14.557 2.014 -7.904 -1200.118 3492.275 -3117.519 1.186 1.516 2.161 -0.11 0.65 -0.75 0.04
1 6.67 667 -0.192 -10.640 0.283 18.280 -6.195 -3.662 -1200.118 3537.246 -3012.438 1.283 0.989 1.021 -0.11 0.65 -0.75 0.04
1 6.68 668 0.273 -10.626 1.216 18.433 -12.054 4.730 -1200.118 3537.246 -3012.438 0.818 0.977 0.109 -0.11 0.65 -0.75 0.04
1 6.69 669 1.317 -11.402 3.122 -1.495 -15.564 19.959 -1050.066 3477.285 -3177.480 -0.243 1.754 -1.779 -0.11 0.65 -0.75 0.04
1 6.70 670 3.687 -13.221 3.946 -73.914 -0.061 59.265 -1170.138 3492.275 -2982.457 -2.649 3.566 -2.624 -0.11 0.65 -0.75 0.04
1 6.71 671 4.367 -14.040 2.710 -98.633 14.984 78.949 -1170.138 3417.324 -3087.389 -3.405 4.365 -1.481 -0.11 0.65 -0.75 0.05
1 6.72 672 2.768 -13.667 1.015 -83.893 26.947 75.623 -1095.187 3492.275 -3057.408 -1.919 3.964 0.074 -0.1 0.66 -0.74 0.05
1 6.73 673 0.915 -13.044 0.005 -3.113 19.196 44.769 -1095.187 3492.275 -3057.408 -0.278 3.306 0.887 -0.09 0.67 -0.74 0.05
1 6.74 674 -1.039 -12.144 0.522 37.872 -19.379 44.800 -1020.085 3687.298 -2877.525 1.609 2.403 0.385 -0.09 0.67 -0.74 0.06
1 6.75 675 -1.470 -10.817 1.834 51.788 -52.216 51.422 -1020.085 3687.298 -2877.525 1.974 1.078 -0.866 -0.09 0.67 -0.74 0.06
1 6.76 676 -1.183 -9.620 3.036 49.927 -58.258 44.037 -1050.066 3657.317 -2997.447 1.620 -0.114 -1.994 -0.09 0.66 -0.74 0.07
1 6.77 677 -0.651 -8.983 3.740 39.032 -50.873 28.748 -840.203 3687.298 -3057.408 1.025 -0.745 -2.618 -0.09 0.66 -0.74 0.07
1 6.78 678 0.096 -9.400 4.118 1.648 -45.593 16.907 -1005.095 3552.236 -2892.516 0.240 -0.322 -2.928 -0.09 0.66 -0.74 0.08
1 6.79 679 0.886 -9.826 4.334 -34.424 -55.237 21.271 -930.144 3657.317 -3102.529 -0.572 0.108 -3.110 -0.09 0.65 -0.75 0.08
1 6.80 680 2.605 -10.655 4.496 -62.744 -69.916 32.044 -930.144 3657.317 -3102.529 -2.337 0.924 -3.363 -0.1 0.66 -0.74 0.09
1 6.81 681 3.146 -11.162 4.382 -58.655 -67.108 37.109 -825.212 3402.333 -2892.516 -2.918 1.420 -3.342 -0.1 0.66 -0.74 0.1
1 6.82 682 4.343 -12.134 3.606 -10.040 -30.365 53.528 -825.212 3402.333 -2892.516 -4.175 2.385 -2.626 -0.1 0.66 -0.73 0.1
1 6.83 683 4.195 -11.612 3.271 25.848 9.003 55.573 -915.154 3612.347 -2877.525 -4.106 1.862 -2.291 -0.1 0.66 -0.73 0.1
1 6.84 684 3.328 -10.362 3.069 44.525 38.544 40.558 -1155.147 3702.288 -2922.496 -3.321 0.617 -2.042 -0.1 0.66 -0.74 0.11
1 6.85 685 1.609 -9.462 2.255 36.408 40.741 9.949 -930.144 3657.317 -2967.467 -1.661 -0.276 -1.161 -0.09 0.66 -0.74 0.11
1 6.86 686 0.953 -9.639 1.336 19.013 17.517 -1.862 -795.082 3702.288 -2892.516 -1.014 -0.091 -0.170 -0.09 0.66 -0.74 0.11
1 6.87 687 0.905 -9.817 1.053 4.334 -9.216 -7.477 -795.082 3702.288 -2892.516 -0.959 0.091 0.154 -0.09 0.66 -0.74 0.11
1 6.88 688 1.432 -9.548 1.609 5.402 -31.403 -12.756 -885.173 3612.347 -2907.506 -1.443 -0.175 -0.389 -0.09 0.66 -0.74 0.11
1 6.89 689 1.987 -8.993 1.772 21.271 -36.072 -14.465 -885.173 3612.347 -2907.506 -1.963 -0.729 -0.536 -0.1 0.65 -0.74 0.11
1 6.90 690 2.648 -8.701 1.748 35.584 -37.689 -14.160 -930.144 3507.265 -3072.398 -2.581 -1.015 -0.470 -0.1 0.65 -0.74 0.11
1 6.91 691 3.213 -8.107 1.786 40.344 -39.337 -10.712 -825.212 3477.285 -2922.496 -3.100 -1.601 -0.449 -0.1 0.65 -0.75 0.11
1 6.92 692 3.606 -7.992 2.155 18.921 -35.950 -4.852 -1005.095 3507.265 -2997.447 -3.448 -1.706 -0.756 -0.11 0.65 -0.75 0.11
1 6.93 693 3.448 -8.198 2.351 -5.219 -26.337 -1.617 -1050.066 3507.265 -2922.496 -3.248 -1.494 -0.913 -0.11 0.64 -0.75 0.11
1 6.94 694 3.117 -8.481 2.385 -20.020 -11.902 1.373 -1050.066 3507.265 -2922.496 -2.882 -1.209 -0.939 -0.11 0.64 -0.75 0.11
1 6.95 695 1.872 -9.026 1.920 -14.221 9.735 4.456 -1095.187 3567.226 -2937.486 -1.595 -0.668 -0.515 -0.11 0.64 -0.75 0.11
1 6.96 696 0.838 -9.137 1.528 3.967 13.611 5.676 -1095.187 3567.226 -2937.486 -0.556 -0.559 -0.131 -0.11 0.64 -0.75 0.11
1 6.97 697 -0.019 -8.912 1.202 22.125 5.402 3.235 -1050.066 3552.236 -2967.467 0.296 -0.782 0.210 -0.11 0.64 -0.75 0.11
1 6.98 698 -0.369 -8.639 0.900 32.196 -13.458 0.732 -975.115 3477.285 -2922.496 0.642 -1.050 0.549 -0.11 0.64 -0.75 0.11
1 6.99 699 0.316 -8.260 0.905 27.680 -40.985 0.366 -960.125 3567.226 -2937.486 -0.041 -1.421 0.590 -0.11 0.64 -0.75 0.11
1 7.00 700 1.293 -8.064 1.077 21.179 -47.211 5.249 -1020.085 3387.343 -2937.486 -1.009 -1.610 0.460 -0.12 0.64 -0.75 0.11
1 7.01 701 2.332 -7.973 1.379 16.724 -40.772 10.376 -1020.085 3387.343 -2937.486 -2.043 -1.696 0.191 -0.12 0.64 -0.75 0.12
1 7.02 702 3.290 -8.002 1.413 15.961 -17.273 20.111 -990.105 3462.294 -3057.408 -3.019 -1.661 0.202 -0.12 0.63 -0.75 0.12
1 7.03 703 3.338 -7.825 1.360 19.562 -1.617 23.956 -990.105 3462.294 -3057.408 -3.095 -1.834 0.279 -0.12 0.63 -0.75 0.12
1 7.04 704 2.878 -7.580 0.996 24.475 8.637 25.971 -1155.147 3327.232 -3072.398 -2.672 -2.074 0.674 -0.12 0.63 -0.75 0.13
1 7.05 705 2.399 -7.312 0.934 29.602 11.658 25.299 -1065.206 3537.246 -2937.486 -2.235 -2.336 0.775 -0.12 0.63 -0.76 0.13
1 7.06 706 1.911 -7.054 0.613 30.151 8.484 22.034 -1080.196 3507.265 -2997.447 -1.786 -2.588 1.140 -0.12 0.63 -0.76 0.13
1 7.07 707 1.427 -7.030 0.575 16.907 -2.136 15.381 -975.115 3327.232 -3027.428 -1.335 -2.604 1.221 -0.11 0.63 -0.76 0.13
1 7.08 708 1.671 -7.135 0.239 1.312 -7.477 12.177 -975.115 3327.232 -3027.428 -1.604 -2.493 1.586 -0.11 0.63 -0.76 0.13
1 7.09 709 1.676 -7.221 0.192 -11.658 -8.545 9.583 -885.173 3387.343 -3087.389 -1.626 -2.406 1.642 -0.11 0.63 -0.76 0.13
1 7.10 710 2.083 -7.772 0.311 -20.844 -6.409 10.254 -885.173 3387.343 -3087.389 -2.057 -1.862 1.484 -0.11 0.63 -0.76 0.13
1 7.11 711 2.303 -8.145 0.431 -20.477 -4.639 11.719 -990.105 3312.242 -3117.519 -2.291 -1.495 1.333 -0.11 0.63 -0.76 0.13
1 7.12 712 2.236 -8.366 0.790 -20.599 -2.869 12.146 -975.115 3507.265 -3102.529 -2.241 -1.280 0.944 -0.11 0.63 -0.75 0.14
1 7.13 713 2.140 -8.610 0.824 -20.996 -1.526 13.367 -870.183 3282.262 -2922.496 -2.162 -1.041 0.880 -0.11 0.63 -0.75 0.14
1 7.14 714 2.040 -9.103 0.757 -19.104 2.838 17.334 -1020.085 3417.324 -2982.457 -2.073 -0.554 0.913 -0.11 0.63 -0.75 0.14
1 7.15 715 2.140 -9.663 0.713 -15.411 5.219 23.773 -1020.085 3417.324 -2982.457 -2.183 0.001 0.922 -0.11 0.64 -0.75 0.14
1 7.16 716 2.275 -10.224 0.809 -13.001 9.430 31.708 -870.183 3432.314 -2892.516 -2.335 0.556 0.796 -0.11 0.64 -0.75 0.14
1 7.17 717 2.672 -11.028 0.800 -12.695 19.013 40.680 -870.183 3432.314 -2892.516 -2.809 1.354 0.758 -0.11 0.64 -0.75 0.14
1 7.18 718 2.854 -11.363 0.986 -14.832 26.764 44.800 -840.203 3387.343 -2982.457 -3.058 1.687 0.551 -0.11 0.64 -0.75 0.14
1 7.19 719 2.634 -11.804 0.963 -15.900 28.504 46.173 -915.154 3462.294 -3057.408 -2.912 2.125 0.551 -0.1 0.64 -0.75 0.14
1 7.20 720 2.413 -12.048 0.967 -14.954 24.170 41.809 -930.144 3477.285 -2997.447 -2.766 2.368 0.521 -0.1 0.64 -0.75 0.14
1 7.21 721 2.050 -12.211 0.809 -9.796 17.853 32.806 -780.092 3417.324 -2937.486 -2.466 2.530 0.657 -0.1 0.64 -0.74 0.14
1 7.22 722 1.695 -12.211 -0.096 9.857 19.684 21.637 -780.092 3417.324 -2937.486 -2.160 2.531 1.550 -0.09 0.65 -0.74 0.15
1 7.23 723 1.451 -11.880 -0.646 25.330 26.795 21.332 -810.072 3462.294 -3012.438 -1.954 2.203 2.108 -0.09 0.65 -0.74 0.15
1 7.24 724 1.484 -11.258 -1.063 29.572 35.492 22.614 -810.072 3462.294 -3012.438 -2.064 1.596 2.598 -0.09 0.64 -0.75 0.15
1 7.25 725 1.666 -10.808 -0.153 20.355 36.041 22.125 -825.212 3507.265 -2967.467 -2.288 1.155 1.725 -0.08 0.64 -0.75 0.15
1 7.26 726 1.427 -10.640 1.168 14.160 31.464 18.005 -630.189 3387.343 -2937.486 -2.089 0.994 0.428 -0.08 0.64 -0.75 0.15
1 7.27 727 0.857 -11.277 2.457 4.059 21.790 -0.549 -630.189 3387.343 -2937.486 -1.548 1.635 -0.845 -0.08 0.64 -0.75 0.15
1 7.28 728 -0.675 -12.843 3.457 -62.226 4.852 -54.382 -690.150 3432.314 -2997.447 -0.008 3.199 -1.853 -0.08 0.64 -0.75 0.14
1 7.29 729 -1.331 -14.624 1.992 -90.851 -1.251 -84.534 -690.150 3432.314 -2997.447 0.711 4.965 -0.461 -0.08 0.64 -0.75 0.14
1 7.30 730 -0.948 -15.989 0.785 -61.615 -21.820 -81.482 -630.189 3342.223 -3222.451 0.444 6.303 0.616 -0.08 0.65 -0.74 0.14
1 7.31 731 -0.153 -15.932 1.317 -4.059 -40.558 -53.101 -630.189 3342.223 -3222.451 -0.222 6.225 -0.022 -0.09 0.65 -0.74 0.13
1 7.32 732 1.868 -12.948 2.361 52.307 -34.760 -3.998 -705.141 3417.324 -2937.486 -2.095 3.240 -1.044 -0.1 0.65 -0.74 0.13
1 7.33 733 3.089 -10.784 2.600 63.782 -18.280 14.343 -825.212 3327.232 -2817.415 -3.312 1.087 -1.199 -0.1 0.65 -0.74 0.13
1 7.34 734 3.807 -9.275 2.773 60.089 7.080 14.618 -825.212 3327.232 -2817.415 -4.051 -0.407 -1.276 -0.1 0.64 -0.75 0.13
1 7.35 735 3.788 -8.763 3.381 36.072 52.612 7.599 -840.203 3417.324 -2982.457 -4.039 -0.905 -1.796 -0.1 0.64 -0.75 0.13
1 7.36 736 2.816 -8.739 3.500 10.803 75.867 10.437 -840.203 3417.324 -2982.457 -3.059 -0.917 -1.844 -0.1 0.64 -0.75 0.13
1 7.37 737 1.700 -8.543 3.505 -9.277 86.396 12.421 -825.212 3327.232 -2922.496 -1.948 -1.107 -1.812 -0.09 0.64 -0.75 0.13
1 7.38 738 0.235 -8.232 3.208 -17.273 83.496 11.566 -825.212 3327.232 -2922.496 -0.501 -1.417 -1.511 -0.09 0.64 -0.76 0.13
1 7.39 739 -1.528 -7.916 2.983 -1.129 65.644 -0.977 -780.092 3312.242 -2982.457 1.207 -1.736 -1.314 -0.08 0.64 -0.76 0.12
1 7.40 740 -2.591 -7.743 2.744 19.379 55.390 -17.181 -630.189 3387.343 -3012.438 2.261 -1.908 -1.072 -0.08 0.64 -0.76 0.12
1 7.41 741 -3.749 -7.714 2.370 35.401 46.631 -37.171 -630.189 3387.343 -3012.438 3.438 -1.931 -0.666 -0.07 0.64 -0.76 0.11
1 7.42 742 -4.506 -7.580 1.657 41.046 28.320 -56.336 -630.189 3387.343 -3087.389 4.232 -2.056 0.105 -0.07 0.64 -0.76 0.11
1 7.43 743 -4.578 -7.480 1.188 24.597 -20.416 -72.876 -630.189 3387.343 -3087.389 4.371 -2.147 0.634 -0.07 0.63 -0.76 0.1
1 7.44 744 -3.477 -8.040 1.283 -8.057 -56.793 -73.975 -630.189 3162.340 -3192.470 3.344 -1.580 0.581 -0.08 0.63 -0.76 0.1
1 7.45 745 -1.872 -8.821 1.935 -45.258 -81.696 -66.620 -630.189 3162.340 -3192.470 1.830 -0.800 -0.071 -0.08 0.63 -0.76 0.1
1 7.46 746 1.355 -11.014 3.448 -69.000 -73.761 -31.159 -750.111 3177.330 -3132.509 -1.207 1.366 -1.731 -0.1 0.64 -0.76 0.1
1 7.47 747 2.706 -11.842 3.658 -45.227 -35.187 5.005 -825.212 3207.311 -3072.398 -2.507 2.179 -2.036 -0.1 0.64 -0.76 0.1
1 7.48 748 2.519 -11.397 3.050 1.556 11.536 33.844 -825.212 3207.311 -3072.398 -2.334 1.725 -1.479 -0.1 0.64 -0.75 0.11
1 7.49 749 1.384 -10.324 2.399 43.640 43.945 45.990 -990.105 3237.291 -2982.457 -1.260 0.655 -0.808 -0.1 0.64 -0.75 0.11
1 7.50 750 -0.771 -8.485 2.270 58.045 56.427 44.464 -990.105 3312.242 -3012.438 0.819 -1.172 -0.602 -0.09 0.64 -0.76 0.11
1 7.51 751 -1.954 -7.686 2.303 39.856 49.927 36.163 -750.111 3252.281 -2997.447 1.921 -1.955 -0.544 -0.09 0.63 -0.76 0.11
1 7.52 752 -2.351 -7.379 2.313 13.977 35.217 24.689 -750.111 3252.281 -2997.447 2.247 -2.249 -0.487 -0.08 0.63 -0.76 0.11
1 7.53 753 -2.203 -7.686 2.054 -20.142 2.289 13.092 -825.212 3357.213 -3102.529 2.015 -1.937 -0.207 -0.08 0.63 -0.76 0.11
1 7.54 754 -1.125 -8.787 1.796 -28.076 -17.273 7.965 -780.092 3237.291 -3057.408 0.921 -0.841 0.018 -0.08 0.63 -0.76 0.11
1 7.55 755 -0.402 -9.170 1.868 -20.477 -27.680 2.136 -780.092 3237.291 -3057.408 0.185 -0.465 -0.092 -0.08 0.64 -0.76 0.11
1 7.56 756 0.359 -9.299 1.920 0.183 -24.567 -6.073 -720.131 3207.311 -3132.509 -0.572 -0.340 -0.166 -0.08 0.64 -0.76 0.11
1 7.57 757 0.670 -9.242 2.050 23.346 -10.681 -12.482 -735.121 3267.271 -3012.438 -0.862 -0.396 -0.284 -0.08 0.64 -0.76 0.11
1 7.58 758 0.311 -8.524 1.820 40.497 12.146 -17.487 -735.121 3192.320 -2982.457 -0.475 -1.107 -0.011 -0.08 0.63 -0.76 0.11
1 7.59 759 -0.201 -8.155 1.427 31.555 20.691 -18.097 -735.121 3192.320 -2982.457 0.065 -1.464 0.442 -0.08 0.63 -0.76 0.11
1 7.60 760 -0.646 -8.241 1.058 -1.984 16.510 -17.975 -780.092 3192.320 -2982.457 0.552 -1.364 0.886 -0.08 0.63 -0.77 0.11
1 7.61 761 -0.747 -8.313 0.814 -13.489 12.085 -18.005 -885.173 3192.320 -3117.519 0.675 -1.294 1.119 -0.08 0.63 -0.77 0.11
1 7.62 762 -0.757 -9.122 0.637 -28.595 0.092 -19.501 -885.173 3192.320 -3117.519 0.711 -0.492 1.259 -0.08 0.63 -0.77 0.11
1 7.63 763 -0.828 -9.486 0.666 -19.531 -3.845 -22.644 -735.121 3267.271 -3057.408 0.807 -0.138 1.183 -0.08 0.63 -0.76 0.1
1 7.64 764 -0.627 -9.390 0.503 -0.275 -9.430 -24.811 -1005.095 3132.209 -3252.431 0.635 -0.239 1.316 -0.09 0.63 -0.76 0.1
1 7.65 765 -0.646 -9.074 0.479 17.181 -21.942 -24.933 -720.131 3177.330 -3177.480 0.689 -0.556 1.336 -0.09 0.63 -0.76 0.1
1 7.66 766 -0.383 -8.916 0.656 11.719 -30.304 -23.407 -720.131 3177.330 -3177.480 0.463 -0.711 1.172 -0.09 0.63 -0.76 0.1
1 7.67 767 -0.254 -8.959 0.881 -1.129 -32.684 -20.172 -900.164 3252.281 -3102.529 0.372 -0.666 0.958 -0.09 0.63 -0.76 0.1
1 7.68 768 -0.168 -9.261 0.934 -17.029 -22.430 -18.341 -915.154 3117.219 -3192.470 0.356 -0.368 0.877 -0.1 0.63 -0.76 0.1
1 7.69 769 -0.527 -9.328 0.958 -19.775 -11.536 -17.761 -915.154 3117.219 -3192.470 0.744 -0.307 0.821 -0.1 0.63 -0.76 0.1
1 7.70 770 -0.785 -9.343 0.852 -17.090 -5.615 -16.846 -900.164 3177.330 -3027.428 1.026 -0.298 0.891 -0.1 0.63 -0.76 0.1
1 7.71 771 -0.934 -9.170 0.752 -12.024 -3.510 -16.083 -1005.095 3177.330 -3102.529 1.192 -0.475 0.962 -0.1 0.63 -0.76 0.1
1 7.72 772 -0.939 -8.672 0.737 -2.045 -6.348 -15.564 -975.115 3207.311 -3027.428 1.213 -0.977 0.955 -0.1 0.63 -0.76 0.1
1 7.73 773 -0.996 -8.552 0.728 1.129 -9.430 -16.327 -975.115 3207.311 -3027.428 1.284 -1.098 0.953 -0.11 0.63 -0.76 0.1
1 7.74 774 -0.704 -8.323 0.824 0.031 -12.299 -19.013 -930.144 3102.229 -3102.529 1.018 -1.327 0.857 -0.11 0.63 -0.76 0.1
1 7.75 775 -0.316 -8.414 0.867 -5.646 -16.235 -22.766 -975.115 3132.209 -2997.447 0.693 -1.234 0.811 -0.11 0.63 -0.76 0.1
1 7.76 776 0.115 -8.686 0.809 -11.719 -20.447 -25.726 -975.115 3132.209 -2997.447 0.302 -0.962 0.857 -0.11 0.63 -0.76 0.1
1 7.77 777 0.484 -9.122 0.814 -18.402 -26.276 -28.809 -1155.147 3207.311 -3102.529 -0.021 -0.528 0.831 -0.12 0.63 -0.76 0.1
1 7.78 778 1.025 -9.568 0.766 -22.614 -27.252 -31.921 -1110.177 3102.229 -3072.398 -0.513 -0.086 0.842 -0.12 0.64 -0.76 0.1
1 7.79 779 1.484 -10.128 0.809 -21.454 -20.813 -33.997 -1140.157 3192.320 -3057.408 -0.915 0.471 0.758 -0.12 0.64 -0.76 0.1
1 7.80 780 1.494 -10.319 0.661 -18.189 -12.543 -33.081 -1140.157 3192.320 -3057.408 -0.864 0.660 0.867 -0.13 0.64 -0.75 0.1
1 7.81 781 1.298 -10.425 0.139 -15.106 -7.202 -31.983 -1005.095 3177.330 -2997.447 -0.609 0.764 1.353 -0.13 0.64 -0.75 0.1
1 7.82 782 0.934 -10.085 -0.450 -12.085 -5.524 -33.081 -1230.099 3207.311 -2922.496 -0.191 0.423 1.910 -0.13 0.64 -0.75 0.09
1 7.83 783 0.498 -9.778 -0.809 -9.796 -13.062 -36.987 -1230.099 3207.311 -2922.496 0.352 0.116 2.207 -0.14 0.64 -0.75 0.09
1 7.84 784 0.330 -9.778 -0.843 -11.017 -20.752 -39.887 -1260.079 3102.229 -3102.529 0.577 0.116 2.207 -0.14 0.64 -0.75 0.09
1 7.85 785 0.239 -9.750 0.201 -16.022 -26.703 -43.091 -1500.073 3162.340 -2907.506 0.728 0.088 1.124 -0.14 0.64 -0.75 0.09
1 7.86 786 0.206 -10.161 0.824 -22.217 -31.250 -42.633 -1319.590 3117.369 -3055.459 0.827 0.501 0.461 -0.15 0.64 -0.75 0.09
1 7.87 787 1.192 -12.532 2.753 -61.463 -38.483 -24.323 -1319.590 3117.369 -3055.459 -0.099 2.872 -1.516 -0.15 0.64 -0.75 0.09
1 7.88 788 2.346 -14.548 3.381 -102.661 -34.088 8.392 -1379.551 3312.392 -2980.358 -1.203 4.883 -2.226 -0.15 0.65 -0.74 0.09
1 7.89 789 2.768 -15.572 3.280 -109.406 -13.733 42.023 -1379.551 3042.268 -3010.339 -1.618 5.893 -2.270 -0.16 0.65 -0.74 0.09
1 7.90 790 2.088 -15.074 2.351 -47.882 31.189 64.972 -1379.551 3042.268 -3010.339 -1.073 5.353 -1.638 -0.15 0.66 -0.73 0.09
1 7.91 791 1.044 -14.083 1.729 19.714 53.101 58.808 -1454.652 3192.320 -2770.345 -0.129 4.349 -1.056 -0.15 0.67 -0.73 0.09
1 7.92 792 -0.235 -12.838 1.298 63.355 41.596 50.598 -1499.623 3312.392 -2770.345 1.059 3.100 -0.568 -0.14 0.67 -0.73 0.09
1 7.93 793 -0.651 -11.253 1.777 66.956 10.712 39.826 -1169.538 3387.343 -2770.345 1.399 1.517 -0.944 -0.14 0.66 -0.73 0.1
1 7.94 794 -0.436 -9.649 2.284 49.256 -29.785 24.017 -1169.538 3387.343 -2770.345 1.129 -0.082 -1.355 -0.14 0.66 -0.73 0.1
1 7.95 795 0.086 -9.438 2.682 33.447 -50.903 25.910 -1379.551 3267.271 -2830.456 0.562 -0.288 -1.669 -0.14 0.66 -0.74 0.1
1 7.96 796 0.493 -9.558 3.204 8.789 -60.333 32.715 -1169.538 3312.392 -2875.427 0.119 -0.164 -2.130 -0.14 0.65 -0.74 0.11
1 7.97 797 1.245 -9.572 3.702 -17.822 -54.382 29.022 -1169.538 3312.392 -2875.427 -0.711 -0.151 -2.597 -0.14 0.65 -0.74 0.12
1 7.98 798 1.982 -9.769 3.888 -15.564 -51.361 23.560 -1199.668 3192.320 -2905.407 -1.475 0.043 -2.796 -0.14 0.65 -0.74 0.12
1 7.99 799 2.955 -10.018 4.123 2.319 -50.476 25.238 -1259.629 3177.330 -2965.368 -2.464 0.291 -3.032 -0.14 0.65 -0.74 0.12
1 8.00 800 3.821 -10.032 4.219 22.369 -42.450 34.271 -1244.639 3342.373 -2905.407 -3.363 0.305 -3.119 -0.15 0.65 -0.73 0.13
1 8.01 801 4.401 -9.869 4.233 33.356 -24.963 45.227 -1244.639 3342.373 -2905.407 -3.991 0.144 -3.097 -0.15 0.65 -0.74 0.13
1 8.02 802 4.252 -9.304 3.955 24.658 20.142 48.706 -1274.620 3237.291 -2905.407 -3.909 -0.418 -2.771 -0.14 0.65 -0.74 0.14
1 8.03 803 3.481 -8.897 3.793 12.756 51.758 38.483 -1184.678 3132.359 -2815.466 -3.213 -0.822 -2.567 -0.14 0.65 -0.74 0.14
1 8.04 804 1.652 -9.074 2.538 3.418 62.988 17.731 -1184.678 3132.359 -2815.466 -1.471 -0.638 -1.247 -0.13 0.65 -0.74 0.14
1 8.05 805 0.986 -9.635 1.944 2.411 35.919 7.355 -1229.649 3252.281 -3070.450 -0.825 -0.076 -0.635 -0.13 0.65 -0.74 0.13
1 8.06 806 1.350 -9.927 2.069 0.244 -1.312 -1.312 -1199.668 3342.373 -2980.358 -1.195 0.217 -0.751 -0.13 0.65 -0.74 0.13
1 8.07 807 2.888 -9.682 2.864 3.632 -21.851 -12.817 -1199.668 3342.373 -2980.358 -2.717 -0.026 -1.540 -0.13 0.65 -0.74 0.13
1 8.08 808 5.047 -8.892 3.084 32.623 -8.148 -19.928 -1229.649 3102.379 -3025.479 -4.833 -0.813 -1.741 -0.13 0.64 -0.74 0.13
1 8.09 809 5.962 -8.131 2.691 49.927 10.651 -16.754 -1229.649 3177.330 -2920.397 -5.701 -1.567 -1.303 -0.13 0.64 -0.74 0.13
1 8.10 810 5.962 -7.274 2.562 49.103 24.475 -14.710 -1199.668 3087.389 -2905.407 -5.637 -2.410 -1.091 -0.13 0.64 -0.75 0.13
1 8.11 811 5.416 -6.757 2.342 28.442 31.677 -15.625 -1199.668 3087.389 -2905.407 -5.031 -2.911 -0.785 -0.14 0.63 -0.75 0.13
1 8.12 812 4.540 -7.298 2.658 -14.435 35.156 -18.341 -1289.610 3177.330 -3100.430 -4.042 -2.351 -1.016 -0.14 0.63 -0.75 0.12
1 8.13 813 3.816 -8.198 2.552 -38.513 36.286 -19.287 -1184.678 3132.359 -3100.430 -3.285 -1.453 -0.934 -0.14 0.63 -0.75 0.12
1 8.14 814 3.189 -9.362 2.097 -44.953 38.086 -19.592 -1184.678 3132.359 -3100.430 -2.613 -0.295 -0.528 -0.14 0.63 -0.75 0.11
1 8.15 815 2.504 -10.003 1.872 -32.562 41.596 -19.165 -1184.678 3132.359 -3070.450 -1.888 0.341 -0.358 -0.14 0.64 -0.75 0.11
1 8.16 816 1.484 -10.123 1.896 7.935 47.363 -22.583 -1109.577 3102.379 -3100.430 -0.834 0.458 -0.414 -0.13 0.64 -0.75 0.11
1 8.17 817 1.044 -9.888 1.743 29.266 47.363 -24.384 -1169.538 3117.369 -3055.459 -0.361 0.226 -0.253 -0.13 0.64 -0.75 0.1
1 8.18 818 0.943 -9.304 1.729 36.499 42.694 -23.224 -1169.538 3117.369 -3055.459 -0.232 -0.349 -0.194 -0.13 0.64 -0.75 0.1
1 8.19 819 1.312 -8.375 1.437 25.421 38.086 -16.449 -1274.620 3087.389 -3115.420 -0.553 -1.255 0.210 -0.13 0.63 -0.76 0.09
1 8.20 820 1.561 -8.179 1.432 13.397 41.138 -11.414 -1079.597 3207.311 -3070.450 -0.789 -1.444 0.253 -0.13 0.63 -0.76 0.09
1 8.21 821 2.054 -8.342 1.475 4.242 48.187 -5.554 -1079.597 3207.460 -3067.901 -1.278 -1.277 0.231 -0.13 0.63 -0.76 0.09
1 8.22 822 2.275 -8.629 1.489 -1.617 57.831 -2.228 -1199.519 3042.418 -3113.022 -1.505 -0.989 0.226 -0.12 0.63 -0.76 0.09
1 8.23 823 2.591 -9.156 1.566 -6.439 66.620 0.549 -1094.587 3087.389 -3187.973 -1.822 -0.462 0.153 -0.12 0.63 -0.76 0.08
1 8.24 824 2.619 -9.371 1.657 -4.334 66.498 2.411 -1199.519 3012.438 -3157.993 -1.856 -0.247 0.060 -0.12 0.63 -0.76 0.08
1 8.25 825 2.619 -9.505 1.681 2.930 63.751 2.808 -1199.519 3012.438 -3157.993 -1.862 -0.114 0.035 -0.11 0.63 -0.76 0.08
1 8.26 826 2.734 -9.295 1.786 11.047 58.808 1.007 -1079.597 3252.431 -3098.032 -1.989 -0.320 -0.043 -0.11 0.63 -0.76 0.07
1 8.27 827 2.940 -9.127 1.839 11.719 57.068 -1.709 -1139.558 3042.418 -3113.022 -2.196 -0.484 -0.073 -0.1 0.63 -0.77 0.07
1 8.28 828 3.204 -9.180 1.911 8.575 59.754 -4.547 -1139.558 3042.418 -3113.022 -2.456 -0.426 -0.121 -0.1 0.63 -0.77 0.06
1 8.29 829 3.146 -9.252 1.777 3.387 64.118 -6.409 -974.515 3057.408 -3022.931 -2.389 -0.350 0.032 -0.1 0.63 -0.77 0.06
1 8.30 830 2.974 -9.299 1.408 -1.434 73.059 -8.545 -914.554 3012.438 -3338.025 -2.206 -0.299 0.413 -0.1 0.63 -0.77 0.06
1 8.31 831 2.782 -9.390 1.413 -2.747 79.529 -8.026 -869.583 2952.477 -3172.983 -2.005 -0.206 0.414 -0.09 0.63 -0.77 0.05
1 8.32 832 2.500 -9.390 1.432 -1.465 83.954 -6.805 -869.583 2952.477 -3172.983 -1.716 -0.205 0.397 -0.09 0.63 -0.77 0.05
1 8.33 833 2.332 -9.314 1.403 0.031 89.020 -2.533 -779.492 3087.389 -3292.905 -1.553 -0.280 0.438 -0.08 0.63 -0.77 0.04
1 8.34 834 2.279 -9.252 1.255 -0.366 91.492 0.702 -929.544 3102.379 -3353.016 -1.511 -0.342 0.594 -0.08 0.63 -0.77 0.03
1 8.35 835 2.495 -9.467 1.379 -3.326 92.743 3.326 -929.544 3102.379 -3353.016 -1.743 -0.127 0.475 -0.07 0.63 -0.77 0.03
1 8.36 836 2.940 -9.539 1.312 -7.507 95.795 4.974 -719.531 3132.359 -3382.996 -2.207 -0.056 0.542 -0.07 0.63 -0.77 0.02
1 8.37 837 3.189 -9.615 1.312 -7.843 101.105 5.066 -630.040 3087.688 -3260.676 -2.475 0.018 0.536 -0.06 0.63 -0.77 0.02
1 8.38 838 3.515 -9.457 1.437 0.427 112.336 0.397 -524.958 3087.688 -3290.656 -2.817 -0.142 0.410 -0.06 0.63 -0.77 0.01
1 8.39 839 3.290 -9.271 1.384 7.416 118.012 -3.723 -524.958 3087.688 -3290.656 -2.605 -0.328 0.470 -0.05 0.63 -0.77 0.01
1 8.40 840 3.031 -9.022 1.159 12.756 122.132 -10.864 -479.987 3042.568 -3365.607 -2.359 -0.569 0.739 0.04 -0.63 0.77 0.01
1 8.41 841 2.840 -8.844 1.010 12.787 121.613 -13.062 -600.059 3042.568 -3365.607 -2.167 -0.741 0.914 0.03 -0.63 0.77 0.01
1 8.42 842 2.471 -8.806 0.704 8.514 120.819 -20.020 -600.059 3042.568 -3365.607 -1.793 -0.775 1.243 0.03 -0.63 0.77 0.02
1 8.43 843 2.174 -8.868 0.761 2.106 122.345 -23.499 -479.987 3012.587 -3440.708 -1.487 -0.709 1.200 0.02 -0.63 0.77 0.03
1 8.44 844 2.078 -9.070 0.723 -5.096 123.810 -24.963 -239.994 2892.666 -3365.607 -1.382 -0.506 1.244 0.02 -0.63 0.77 0.03
1 8.45 845 1.868 -9.558 0.833 -11.780 128.418 -22.583 -210.013 3087.688 -3335.627 -1.161 -0.017 1.129 0.01 -0.63 0.77 0.04
1 8.46 846 2.016 -9.927 0.814 -15.167 132.630 -20.111 -210.913 3087.838 -3333.079 -1.305 0.349 1.137 0.01 -0.63 0.77 0.05
1 8.47 847 2.212 -10.027 0.781 -13.336 137.818 -16.754 -90.991 3027.877 -3408.180 -1.501 0.447 1.155 -0 -0.63 0.77 0.06
1 8.48 848 2.069 -10.013 0.766 -3.571 147.217 -14.832 -120.971 2832.854 -3123.065 -1.369 0.427 1.146 -0.01 -0.63 0.77 0.07
1 8.49 849 1.944 -9.955 0.934 -2.350 149.994 -15.778 -120.971 2832.854 -3123.065 -1.257 0.369 0.981 -0.02 -0.63 0.77 0.08
1 8.50 850 1.944 -10.027 1.101 -9.247 147.706 -18.158 -105.981 2937.786 -3288.108 -1.267 0.440 0.815 -0.03 -0.63 0.77 0.09
1 8.51 851 2.203 -10.444 1.140 -17.090 147.156 -20.355 -105.981 2937.786 -3288.108 -1.531 0.855 0.768 -0.04 -0.63 0.77 0.1
1 8.52 852 2.251 -10.463 1.283 -13.916 151.368 -19.348 208.964 3027.877 -3303.098 -1.581 0.870 0.606 -0.04 -0.63 0.76 0.11
1 8.53 853 2.198 -10.511 1.408 -2.716 157.715 -17.670 207.915 3028.027 -3301.299 -1.537 0.915 0.471 -0.05 -0.63 0.76 0.12
1 8.54 854 2.145 -10.339 1.235 3.662 162.964 -17.853 312.996 3058.008 -3271.319 -1.497 0.743 0.648 -0.06 -0.63 0.76 0.12
1 8.55 855 1.882 -10.008 1.058 5.646 167.176 -19.501 432.918 3117.969 -3286.309 -1.260 0.418 0.861 -0.08 -0.63 0.76 0.14
1 8.56 856 1.939 -9.673 1.058 5.920 168.488 -21.179 432.918 3117.969 -3286.309 -1.327 0.086 0.878 -0.08 -0.63 0.76 0.15
1 8.57 857 1.753 -9.663 0.900 4.059 169.068 -23.041 432.918 3162.939 -3181.377 -1.149 0.079 1.053 -0.09 -0.63 0.76 0.16
1 8.58 858 1.470 -9.601 0.905 3.235 169.770 -25.055 432.918 3162.939 -3181.377 -0.874 0.019 1.061 -0.1 -0.62 0.76 0.17
1 8.59 859 1.106 -9.319 0.761 9.460 167.725 -26.459 746.813 3133.259 -3194.719 -0.516 -0.261 1.218 -0.11 -0.62 0.75 0.18
1 8.60 860 1.020 -9.189 0.666 12.177 163.910 -25.238 746.813 3133.259 -3194.719 -0.438 -0.387 1.332 -0.12 -0.62 0.75 0.19
1 8.61 861 0.905 -9.055 0.776 10.101 159.577 -22.949 701.843 2953.226 -3119.768 -0.332 -0.517 1.245 -0.12 -0.62 0.75 0.2
1 8.62 862 0.876 -9.141 1.164 3.113 156.189 -21.118 686.853 3088.138 -3104.777 -0.316 -0.427 0.879 -0.13 -0.62 0.75 0.21
1 8.63 863 0.747 -9.888 1.580 -11.963 153.351 -20.020 686.853 3088.138 -3104.777 -0.218 0.321 0.475 -0.15 -0.61 0.75 0.22
1 8.64 864 0.374 -10.334 1.853 -14.038 154.328 -19.379 1015.738 3013.337 -3103.428 0.138 0.763 0.191 -0.15 -0.61 0.74 0.23
1 8.65 865 -0.230 -10.339 1.805 -4.303 155.243 -17.822 1015.738 3013.337 -3103.428 0.719 0.765 0.230 -0.16 -0.61 0.74 0.24
1 8.66 866 -0.934 -9.994 1.906 13.489 155.457 -16.571 1090.689 3013.337 -2923.545 1.396 0.421 0.139 -0.17 -0.61 0.74 0.25
1 8.67 867 -1.719 -9.601 2.528 25.208 147.156 -15.442 1090.689 3013.337 -2923.545 2.147 0.033 -0.451 -0.18 -0.6 0.74 0.25
1 8.68 868 -1.824 -9.544 3.366 14.252 137.848 -16.907 1060.709 3028.327 -2953.526 2.215 -0.016 -1.243 -0.19 -0.6 0.73 0.26
1 8.69 869 -1.604 -10.372 4.042 -9.155 127.961 -23.132 1105.680 2983.356 -2953.526 1.956 0.820 -1.879 -0.19 -0.59 0.73 0.27
1 8.70 870 -0.397 -12.287 3.850 -34.668 119.843 -34.851 1105.680 2983.356 -2953.526 0.725 2.730 -1.709 -0.2 -0.59 0.73 0.28
1 8.71 871 0.632 -13.011 3.759 -11.566 126.069 -33.997 1360.813 3103.428 -2728.522 -0.293 3.445 -1.657 -0.21 -0.59 0.72 0.29
1 8.72 872 1.159 -12.580 3.955 28.992 138.184 -28.473 1360.813 3103.428 -2728.522 -0.813 3.015 -1.849 -0.22 -0.59 0.72 0.29
1 8.73 873 1.480 -11.215 4.075 52.765 149.476 -20.172 1285.712 3058.458 -2728.522 -1.142 1.663 -1.908 -0.22 -0.58 0.72 0.3
1 8.74 874 1.441 -9.663 3.510 45.746 156.891 -11.108 1285.712 3058.458 -2728.522 -1.128 0.131 -1.256 -0.23 -0.58 0.72 0.31
1 8.75 875 1.317 -9.208 3.084 32.776 158.295 -6.958 1405.035 3193.520 -2682.802 -1.036 -0.305 -0.747 -0.23 -0.57 0.72 0.32
1 8.76 876 1.480 -9.079 2.480 24.323 159.302 -6.042 1494.976 2953.526 -2622.841 -1.237 -0.418 -0.077 -0.24 -0.57 0.72 0.33
1 8.77 877 1.575 -8.715 1.906 29.175 163.086 -11.841 1494.976 2953.526 -2622.841 -1.414 -0.761 0.586 -0.25 -0.56 0.71 0.34
1 8.78 878 1.465 -8.251 1.417 36.377 168.549 -17.975 1675.009 3133.559 -2667.812 -1.337 -1.214 1.120 -0.26 -0.55 0.71 0.35
1 8.79 879 1.049 -7.729 1.159 39.124 176.880 -22.308 1675.009 3133.559 -2667.812 -0.960 -1.721 1.436 -0.27 -0.54 0.71 0.36
1 8.80 880 0.206 -7.518 0.857 33.081 183.228 -26.184 1719.979 2983.506 -2622.841 -0.155 -1.916 1.795 -0.28 -0.54 0.71 0.37
1 8.81 881 -1.173 -7.212 0.656 8.667 184.968 -31.159 1809.771 3118.568 -2427.668 1.188 -2.210 2.040 -0.28 -0.53 0.7 0.38
1 8.82 882 -1.896 -7.489 0.623 -9.674 179.352 -36.499 1884.722 2893.565 -2427.668 1.877 -1.927 2.092 -0.29 -0.53 0.7 0.39
1 8.83 883 -2.260 -7.810 0.488 -23.193 169.007 -41.412 1899.712 3028.477 -2262.626 2.217 -1.609 2.218 -0.3 -0.52 0.69 0.4
1 8.84 884 -1.935 -8.361 0.503 -26.856 153.687 -44.068 1899.712 3028.477 -2262.626 1.877 -1.078 2.132 -0.32 -0.52 0.68 0.41
1 8.85 885 -1.733 -8.643 0.642 -20.752 147.919 -43.244 2079.745 3058.607 -2127.564 1.679 -0.806 1.955 -0.32 -0.51 0.68 0.42
1 8.86 886 -1.370 -8.686 0.632 -14.648 149.140 -42.175 2079.745 3058.607 -2127.564 1.312 -0.773 1.929 -0.33 -0.51 0.67 0.43
1 8.87 887 -1.288 -8.567 0.651 -15.747 152.131 -42.359 2064.755 3193.520 -2187.675 1.228 -0.900 1.881 -0.34 -0.51 0.66 0.43
1 8.88 888 -1.456 -8.567 0.627 -25.818 154.694 -46.997 2007.492 2983.356 -2023.981 1.394 -0.909 1.873 -0.34 -0.51 0.66 0.44
1 8.89 889 -1.767 -8.706 0.603 -31.860 150.208 -49.683 2067.453 3238.340 -1858.939 1.714 -0.779 1.861 -0.35 -0.5 0.65 0.45
1 8.90 890 -1.853 -9.161 0.575 -34.973 143.128 -51.392 2202.515 3118.269 -1858.939 1.814 -0.336 1.844 -0.36 -0.5 0.65 0.45
1 8.91 891 -1.844 -9.773 0.651 -36.804 136.231 -50.171 2202.515 3118.269 -1858.939 1.813 0.261 1.705 -0.36 -0.5 0.64 0.46
1 8.92 892 -1.987 -10.099 0.867 -32.868 134.430 -44.678 2172.535 3163.239 -1678.906 1.975 0.555 1.360 -0.38 -0.5 0.62 0.47
1 8.93 893 -1.939 -10.276 0.934 -27.618 136.139 -43.183 2172.535 3163.239 -1678.906 1.931 0.720 1.236 -0.38 -0.49 0.62 0.48
1 8.94 894 -1.920 -10.137 0.934 -23.773 137.665 -41.290 2098.333 3343.272 -1619.245 1.915 0.570 1.187 -0.39 -0.49 0.61 0.48
1 8.95 895 -2.184 -10.262 1.068 -22.217 138.245 -41.229 2218.405 3328.282 -1484.333 2.180 0.685 1.009 -0.39 -0.49 0.61 0.49
1 8.96 896 -2.045 -10.271 1.341 -24.170 137.513 -39.276 2203.415 3418.373 -1289.310 2.041 0.685 0.695 -0.4 -0.49 0.6 0.49
1 8.97 897 -1.997 -10.142 1.302 -22.858 137.604 -38.544 2248.385 3418.373 -1334.281 1.993 0.547 0.691 -0.41 -0.48 0.59 0.5
1 8.98 898 -2.002 -9.917 1.231 -19.531 139.435 -38.086 2248.385 3418.373 -1334.281 1.997 0.314 0.723 -0.41 -0.48 0.59 0.51
1 8.99 899 -1.777 -9.793 1.058 -13.947 140.503 -35.217 2115.272 3433.363 -1124.717 1.771 0.176 0.830 -0.43 -0.47 0.57 0.52
1 9.00 900 -1.925 -9.750 1.030 -13.825 138.642 -33.325 2115.272 3433.363 -1124.717 1.916 0.128 0.832 -0.43 -0.47 0.57 0.52
1 9.01 901 -2.313 -9.817 0.781 -17.975 133.545 -31.494 2220.354 3478.334 -1019.786 2.299 0.190 1.053 -0.44 -0.46 0.56 0.53
1 9.02 902 -2.528 -10.252 0.637 -24.597 124.237 -29.724 2205.363 3493.324 -974.665 2.507 0.619 1.161 -0.44 -0.46 0.56 0.53
1 9.03 903 -2.476 -10.774 0.824 -30.762 108.490 -28.504 2190.223 3508.314 -809.772 2.447 1.132 0.926 -0.45 -0.46 0.55 0.54
1 9.04 904 -2.164 -10.540 0.910 -23.987 102.356 -28.595 2190.223 3403.233 -704.691 2.139 0.888 0.790 -0.45 -0.46 0.54 0.54
1 9.05 905 -1.566 -10.487 0.924 -11.841 99.518 -30.518 2193.221 3403.233 -704.991 1.556 0.829 0.737 -0.46 -0.45 0.54 0.54
1 9.06 906 -1.417 -10.415 1.235 4.181 99.121 -29.541 2073.149 3688.347 -690.000 1.428 0.751 0.391 -0.47 -0.45 0.53 0.55
1 9.07 907 -1.777 -10.147 1.298 5.707 100.891 -26.856 2073.149 3688.347 -690.000 1.794 0.484 0.332 -0.47 -0.44 0.52 0.55
1 9.08 908 -2.059 -10.109 1.279 2.563 101.868 -24.170 1983.208 3553.285 -525.108 2.077 0.446 0.356 -0.47 -0.44 0.52 0.56
1 9.09 909 -2.394 -9.908 1.188 -0.946 101.502 -23.834 1953.228 3613.246 -645.030 2.407 0.245 0.447 -0.48 -0.44 0.52 0.56
1 9.10 910 -2.552 -10.037 1.073 -2.014 99.396 -24.414 2073.149 3613.246 -405.036 2.558 0.373 0.557 -0.48 -0.43 0.51 0.57
1 9.11 911 -2.648 -9.730 0.809 0.183 96.619 -24.872 2073.149 3613.246 -479.987 2.646 0.066 0.813 -0.48 -0.43 0.51 0.57
1 9.12 912 -2.773 -9.433 0.704 6.012 93.018 -25.452 2073.149 3613.246 -479.987 2.763 -0.232 0.912 -0.49 -0.43 0.5 0.57
1 9.13 913 -2.782 -9.362 0.608 10.193 86.457 -27.618 2088.140 3628.236 -390.046 2.764 -0.303 1.016 -0.49 -0.42 0.5 0.58
1 9.14 914 -2.744 -9.477 0.934 -0.122 80.780 -27.069 2088.140 3628.236 -390.046 2.726 -0.187 0.695 -0.49 -0.41 0.49 0.58
1 9.15 915 -2.442 -9.730 1.125 -15.686 76.721 -25.940 1893.117 3613.246 -330.085 2.424 0.065 0.493 -0.5 -0.41 0.49 0.59
1 9.16 916 -2.346 -9.860 1.250 -27.405 75.623 -25.818 1908.107 3583.266 -165.042 2.328 0.189 0.336 -0.5 -0.41 0.48 0.59
1 9.17 917 -1.824 -10.037 1.073 -26.733 74.646 -26.245 1911.255 3658.517 -269.974 1.809 0.359 0.469 -0.5 -0.41 0.48 0.59
1 9.18 918 -1.226 -10.195 0.934 -10.803 72.724 -24.780 1851.144 3613.396 -119.922 1.218 0.511 0.568 -0.51 -0.41 0.47 0.59
1 9.19 919 -1.259 -10.042 0.848 6.134 69.916 -23.102 1851.144 3613.396 -119.922 1.260 0.354 0.629 -0.51 -0.4 0.47 0.6
1 9.20 920 -1.484 -9.922 1.044 20.691 65.705 -21.088 1956.226 3718.478 -44.971 1.502 0.236 0.449 -0.51 -0.4 0.46 0.6
1 9.21 921 -1.619 -9.702 0.977 19.684 65.064 -20.325 1956.226 3718.478 -44.971 1.641 0.020 0.542 -0.52 -0.4 0.46 0.6
1 9.22 922 -1.556 -9.424 0.886 9.613 65.460 -22.492 1866.134 3883.520 14.990 1.582 -0.255 0.652 -0.52 -0.39 0.46 0.61
1 9.23 923 -1.475 -9.400 0.852 1.587 64.270 -26.581 1851.144 3613.396 -74.951 1.508 -0.277 0.692 -0.52 -0.39 0.45 0.61
1 9.24 924 -1.370 -9.122 0.464 -2.014 62.653 -28.168 1896.265 3763.448 -44.971 1.416 -0.556 1.076 -0.52 -0.39 0.45 0.61
1 9.25 925 -1.475 -9.113 0.225 -0.092 57.800 -29.877 1701.242 3763.448 -119.922 1.537 -0.567 1.305 -0.52 -0.39 0.45 0.61
1 9.26 926 -1.657 -9.319 0.067 1.862 55.329 -29.785 1701.242 3763.448 -119.922 1.737 -0.362 1.454 -0.52 -0.38 0.44 0.62
1 9.27 927 -1.719 -9.572 0.235 -3.662 53.284 -30.121 1641.131 3568.425 134.912 1.818 -0.109 1.281 -0.53 -0.38 0.44 0.62
1 9.28 928 -1.518 -9.965 0.527 -15.686 55.573 -31.677 1641.131 3568.425 134.912 1.655 0.278 0.953 -0.53 -0.38 0.43 0.62
1 9.29 929 -1.580 -10.291 0.546 -19.409 57.984 -31.738 1611.150 3808.419 225.003 1.739 0.600 0.902 -0.53 -0.38 0.43 0.62
1 9.30 930 -1.623 -10.468 0.575 -18.951 56.702 -29.724 1761.203 3703.487 149.902 1.803 0.772 0.839 -0.53 -0.38 0.42 0.63
1 9.31 931 -1.619 -10.535 0.642 -14.618 53.742 -28.442 1761.203 3703.487 149.902 1.815 0.835 0.740 -0.54 -0.38 0.42 0.63
1 9.32 932 -1.355 -10.544 0.790 3.204 48.859 -28.992 1656.271 3778.438 225.003 1.570 0.841 0.569 -0.54 -0.37 0.42 0.63
1 9.33 933 -1.101 -10.339 1.101 14.191 47.974 -26.245 1656.271 3778.438 225.003 1.335 0.635 0.253 -0.54 -0.37 0.41 0.63
1 9.34 934 -0.718 -10.300 1.427 16.235 49.591 -21.301 1522.558 3868.680 375.355 0.971 0.600 -0.058 -0.54 -0.37 0.41 0.63
1 9.35 935 0.081 -10.324 1.422 3.174 53.497 -11.383 1522.558 3868.680 375.355 0.192 0.630 -0.009 -0.54 -0.37 0.41 0.64
1 9.36 936 0.517 -10.463 1.360 -12.116 56.183 -4.883 1582.669 3808.719 300.404 -0.244 0.770 0.055 -0.54 -0.36 0.4 0.64
1 9.37 937 0.690 -10.741 0.934 -26.184 58.838 0.702 1462.597 3943.631 165.342 -0.422 1.044 0.458 -0.55 -0.36 0.4 0.64
1 9.38 938 0.895 -10.961 0.809 -27.893 58.747 6.714 1462.597 3943.631 165.342 -0.643 1.258 0.543 -0.55 -0.36 0.4 0.64
1 9.39 939 0.594 -10.750 1.140 -5.341 54.444 12.268 1582.669 3928.641 360.365 -0.365 1.042 0.176 -0.55 -0.36 0.39 0.64
1 9.40 940 0.125 -10.353 1.417 14.282 52.124 9.186 1582.669 3928.641 360.365 0.075 0.642 -0.115 -0.56 -0.35 0.39 0.64
1 9.41 941 -0.469 -9.893 1.896 24.078 50.537 2.716 1432.617 3928.641 255.434 0.644 0.184 -0.579 -0.56 -0.35 0.39 0.64
1 9.42 942 -0.891 -9.620 2.040 21.851 52.307 -6.256 1432.617 3928.641 255.434 1.046 -0.085 -0.687 -0.56 -0.35 0.39 0.65
1 9.43 943 -1.259 -9.414 2.241 6.195 60.730 -13.428 1522.558 3913.650 375.355 1.401 -0.281 -0.819 -0.56 -0.34 0.38 0.65
1 9.44 944 -1.365 -9.362 2.035 -9.216 67.414 -13.367 1477.587 3658.667 405.336 1.502 -0.332 -0.601 -0.56 -0.34 0.38 0.65
1 9.45 945 -1.681 -9.587 1.604 -21.912 72.968 -11.627 1477.587 3658.667 405.336 1.811 -0.109 -0.182 -0.56 -0.33 0.38 0.66
1 9.46 946 -1.561 -9.716 1.499 -26.032 74.921 -12.756 1462.597 3838.699 345.375 1.680 0.016 -0.108 -0.57 -0.33 0.37 0.66
1 9.47 947 -0.757 -9.946 2.112 -18.921 66.956 -17.792 1462.597 3838.699 345.375 0.866 0.241 -0.757 -0.57 -0.33 0.37 0.66
1 9.48 948 0.062 -10.386 2.375 -11.475 57.404 -22.430 1372.656 3883.670 405.336 0.049 0.678 -1.047 -0.57 -0.33 0.37 0.66
1 9.49 949 0.833 -10.568 2.605 -6.195 44.830 -25.421 1372.656 3883.670 405.336 -0.709 0.858 -1.289 -0.57 -0.32 0.36 0.66
1 9.50 950 2.222 -10.894 2.710 -3.296 24.262 -20.508 1192.623 3808.719 435.316 -2.041 1.183 -1.408 -0.57 -0.32 0.36 0.66
1 9.51 951 3.108 -10.688 2.600 4.272 18.768 -16.693 1117.672 3853.689 540.398 -2.902 0.977 -1.300 -0.57 -0.32 0.35 0.66
1 9.52 952 3.927 -10.133 2.744 15.839 24.506 -14.282 1119.621 3854.139 541.297 -3.701 0.423 -1.433 -0.57 -0.32 0.35 0.67
1 9.53 953 4.353 -9.630 2.586 27.100 39.795 -13.062 1224.702 3809.019 751.311 -4.112 -0.075 -1.245 -0.57 -0.32 0.35 0.67
1 9.54 954 4.420 -8.998 2.361 25.055 68.390 -11.902 1224.702 3809.019 751.311 -4.170 -0.701 -0.977 -0.57 -0.32 0.35 0.67
1 9.55 955 3.917 -8.706 2.212 8.820 82.855 -14.282 1134.611 3914.100 631.389 -3.631 -0.985 -0.778 -0.57 -0.31 0.34 0.67
1 9.56 956 3.093 -8.610 2.164 -12.878 90.119 -19.013 1134.611 3914.100 631.389 -2.775 -1.075 -0.699 -0.57 -0.31 0.34 0.68
1 9.57 957 1.920 -9.266 1.767 -38.208 85.694 -27.832 1164.741 4094.133 496.327 -1.534 -0.421 -0.332 -0.58 -0.3 0.33 0.68
1 9.58 958 1.317 -9.793 1.762 -40.711 74.280 -32.715 1059.660 3869.129 736.320 -0.892 0.100 -0.378 -0.58 -0.3 0.32 0.68
1 9.59 959 1.159 -10.343 1.829 -32.837 61.615 -36.438 1059.660 3869.129 736.320 -0.692 0.646 -0.495 -0.58 -0.3 0.31 0.69
1 9.60 960 0.929 -10.535 1.786 -17.090 51.270 -39.154 924.598 3794.028 661.369 -0.415 0.835 -0.488 -0.59 -0.3 0.31 0.69
1 9.61 961 1.111 -10.315 2.050 2.502 45.838 -41.535 924.598 3794.028 661.369 -0.545 0.616 -0.763 -0.59 -0.3 0.3 0.69
1 9.62 962 1.240 -9.649 2.260 25.238 48.645 -41.992 894.617 3959.071 826.412 -0.619 -0.044 -0.954 -0.59 -0.3 0.3 0.69
1 9.63 963 1.628 -9.184 2.351 29.358 55.603 -40.497 894.617 3959.071 826.412 -0.950 -0.498 -1.001 -0.59 -0.3 0.29 0.69
1 9.64 964 1.858 -8.619 2.217 18.372 66.651 -36.011 759.705 3809.019 646.379 -1.074 -1.040 -0.758 -0.58 -0.29 0.29 0.7
1 9.65 965 1.844 -8.481 2.054 3.479 70.526 -32.440 849.646 4019.032 841.402 -1.015 -1.169 -0.558 -0.58 -0.29 0.28 0.71
1 9.66 966 1.628 -8.490 1.935 -11.414 72.357 -28.626 849.646 4019.032 841.402 -0.761 -1.154 -0.424 -0.58 -0.29 0.28 0.71
1 9.67 967 1.283 -8.777 1.824 -20.783 69.214 -26.215 804.676 3869.129 661.369 -0.385 -0.864 -0.321 -0.58 -0.29 0.27 0.71
1 9.68 968 0.656 -9.223 1.609 -18.433 61.188 -24.628 701.393 3869.579 737.819 0.268 -0.420 -0.123 -0.59 -0.28 0.26 0.71
1 9.69 969 0.498 -9.323 1.590 -9.979 57.923 -24.933 581.321 3959.670 902.712 0.449 -0.320 -0.122 -0.59 -0.28 0.26 0.71
1 9.70 970 0.220 -9.304 1.614 -0.031 54.535 -25.482 581.321 3959.670 902.712 0.748 -0.338 -0.154 -0.59 -0.28 0.26 0.71
1 9.71 971 0.215 -9.343 1.470 6.134 52.674 -24.811 521.360 3869.579 842.751 0.774 -0.297 -0.004 -0.59 -0.28 0.25 0.72
1 9.72 972 0.584 -9.290 1.465 0.732 50.263 -20.508 551.341 3989.651 812.771 0.442 -0.341 0.032 -0.59 -0.27 0.24 0.72
1 9.73 973 0.690 -9.328 1.528 -3.052 49.683 -15.839 551.341 3989.651 812.771 0.350 -0.300 -0.022 -0.59 -0.27 0.24 0.72
1 9.74 974 0.795 -9.410 1.513 -4.669 49.957 -12.604 446.409 4064.602 707.839 0.252 -0.217 -0.005 -0.59 -0.27 0.24 0.72
1 9.75 975 0.848 -9.443 1.437 -6.256 50.446 -11.536 461.399 4034.622 827.761 0.204 -0.183 0.073 -0.59 -0.27 0.23 0.72
1 9.76 976 1.178 -9.735 1.542 -8.423 51.422 -12.177 431.419 4034.622 932.842 -0.123 0.110 -0.034 -0.59 -0.26 0.23 0.72
1 9.77 977 1.221 -9.773 1.623 -7.629 53.070 -11.627 431.419 4034.622 932.842 -0.161 0.148 -0.120 -0.6 -0.26 0.23 0.72
1 9.78 978 1.374 -9.841 1.465 -4.028 54.871 -10.345 521.360 4064.602 992.803 -0.309 0.215 0.035 -0.6 -0.26 0.22 0.73
1 9.79 979 1.551 -9.706 1.360 0.946 60.761 -10.468 521.360 3989.651 812.771 -0.477 0.083 0.150 -0.6 -0.25 0.22 0.73
1 9.80 980 1.441 -9.615 1.173 3.967 62.714 -11.108 521.360 3989.651 812.771 -0.362 -0.005 0.348 -0.6 -0.25 0.21 0.73
1 9.81 981 1.288 -9.362 1.144 5.310 61.585 -11.871 521.360 4094.583 737.819 -0.204 -0.256 0.391 -0.6 -0.25 0.21 0.73
1 9.82 982 1.279 -9.170 0.963 5.157 59.082 -12.390 341.328 4064.602 1067.754 -0.189 -0.445 0.588 -0.6 -0.24 0.2 0.73
1 9.83 983 1.183 -8.840 0.637 1.526 57.190 -15.442 282.416 3885.169 979.462 -0.086 -0.772 0.926 -0.6 -0.24 0.2 0.73
1 9.84 984 1.188 -8.835 0.589 -3.326 55.969 -17.334 282.416 3885.169 979.462 -0.082 -0.775 0.983 -0.6 -0.24 0.2 0.74
1 9.85 985 1.082 -8.830 0.369 -8.942 53.803 -17.639 252.436 4110.172 1009.442 0.036 -0.778 1.203 -0.6 -0.24 0.19 0.74
1 9.86 986 0.915 -9.180 0.503 -16.724 46.295 -15.198 237.445 4140.153 994.452 0.230 -0.430 1.041 -0.61 -0.23 0.18 0.74
