COL1	TIME	ACC_X	ACC_Y	ACC_Z	GYR_X	GYR_Y	GYR_Z	MAG_X	MAG_Y	MAG_Z	LACC_X	LACC_Y	LACC_Z	QUAT_X	QUAT_Y	QUAT_Z	QUAT_W
1 0.00 0 -0.034 -8.725 4.688 -1.068 -0.183 0.610 -44.971 -1499.923 -3929.990 -0.055 0.139 0.036 -0 0.51 -0.86 0.01
1 0.01 1 -0.062 -8.844 4.712 -0.946 0.275 0.549 -44.971 -1499.923 -3929.990 -0.027 0.258 0.011 -0 0.51 -0.86 0.01
1 0.02 2 -0.072 -8.768 4.808 -0.671 -0.183 0.793 -164.893 -1499.923 -4049.912 -0.017 0.181 -0.085 -0 0.51 -0.86 0.01
1 0.03 3 -0.014 -8.754 4.774 -0.275 -0.183 0.824 104.932 -1589.864 -3944.980 -0.074 0.167 -0.052 -0 0.51 -0.86 0.01
1 0.04 4 0.000 -8.821 4.688 -0.214 -0.275 0.275 104.932 -1589.864 -3944.980 -0.088 0.234 0.034 -0 0.51 -0.86 0.01
1 0.05 5 -0.019 -8.806 4.674 -0.336 0.397 1.007 14.990 -1349.871 -3929.990 -0.068 0.220 0.049 -0 0.51 -0.86 0.01
1 0.06 6 -0.120 -8.701 4.750 -0.763 0.305 1.160 -29.980 -1514.913 -3915.000 0.032 0.115 -0.026 0 0.51 -0.86 0.01
1 0.07 7 -0.144 -8.749 4.793 -0.397 0.153 0.519 -59.961 -1514.913 -3809.918 0.056 0.163 -0.069 0 0.51 -0.86 0.01
1 0.08 8 -0.120 -8.696 4.693 -0.854 0.549 0.671 -59.961 -1514.913 -3809.918 0.032 0.110 0.031 0 0.51 -0.86 0.01
1 0.09 9 -0.057 -8.605 4.760 -0.885 0.458 0.458 -104.932 -1559.884 -3915.000 -0.031 0.020 -0.035 0 0.51 -0.86 0.01
1 0.10 10 -0.067 -8.682 4.736 -1.129 0.702 0.336 104.932 -1409.981 -3944.980 -0.021 0.096 -0.011 0 0.51 -0.86 0.01
1 0.11 11 -0.235 -8.730 4.760 -1.312 0.732 0.519 104.932 -1409.981 -3944.980 0.147 0.144 -0.036 0 0.51 -0.86 0.01
1 0.12 12 -0.115 -8.672 4.774 -0.580 0.183 0.580 -119.922 -1574.874 -3794.928 0.026 0.086 -0.050 0 0.51 -0.86 0.01
1 0.13 13 -0.081 -8.629 4.836 -0.977 0.580 1.129 -14.990 -1544.894 -3929.990 -0.007 0.043 -0.113 0 0.51 -0.86 0.01
1 0.14 14 -0.134 -8.792 4.712 -1.404 0.214 0.732 -209.863 -1409.981 -3809.918 0.045 0.206 0.011 0 0.51 -0.86 0.01
1 0.15 15 -0.148 -8.797 4.650 -2.289 0.580 0.885 -209.863 -1409.981 -3809.918 0.059 0.210 0.073 0 0.51 -0.86 0.01
1 0.16 16 -0.182 -8.744 4.798 -1.495 0.641 0.702 -89.941 -1544.894 -3899.859 0.093 0.157 -0.076 0 0.51 -0.86 0.01
1 0.17 17 -0.148 -8.744 4.741 -1.556 0.580 1.038 -104.932 -1559.884 -3989.951 0.059 0.157 -0.018 0 0.51 -0.86 0.01
1 0.18 18 -0.101 -8.715 4.779 -1.740 -0.458 1.373 -104.932 -1559.884 -3989.951 0.010 0.128 -0.057 0 0.51 -0.86 0.01
1 0.19 19 -0.139 -8.610 4.654 -1.709 -0.092 0.641 14.990 -1574.874 -3974.960 0.048 0.023 0.067 0 0.51 -0.86 0.01
1 0.20 20 -0.010 -8.849 4.621 -1.587 -0.305 1.007 -104.932 -1484.933 -3989.951 -0.082 0.262 0.100 0 0.51 -0.86 0.01
1 0.21 21 -0.172 -8.648 4.813 -1.953 -0.122 2.075 -224.854 -1379.851 -3794.928 0.081 0.060 -0.093 0 0.51 -0.86 0.01
1 0.22 22 -0.158 -8.696 4.640 -2.014 -0.305 1.526 -224.854 -1379.851 -3794.928 0.066 0.108 0.079 0 0.51 -0.86 0.01
1 0.23 23 -0.086 -8.643 4.784 -1.770 -0.305 1.740 -44.971 -1574.874 -3899.859 -0.006 0.055 -0.065 0 0.51 -0.86 0.01
1 0.24 24 -0.014 -8.672 4.760 -1.190 -0.763 1.526 -29.980 -1514.913 -3809.918 -0.079 0.084 -0.041 0 0.51 -0.86 0.01
1 0.25 25 -0.062 -8.744 4.707 -0.885 0.031 0.641 -29.980 -1514.913 -3809.918 -0.031 0.155 0.011 0 0.51 -0.86 0.01
1 0.26 26 -0.211 -8.725 4.726 -0.092 0.214 1.312 -44.971 -1469.942 -3974.960 0.117 0.136 -0.008 0 0.51 -0.86 0.01
1 0.27 27 -0.182 -8.749 4.712 -0.336 -0.305 2.014 -14.990 -1499.923 -4004.941 0.085 0.161 0.008 0 0.51 -0.86 0.01
1 0.28 28 -0.144 -8.591 4.698 -0.031 -0.183 1.099 104.932 -1409.981 -3884.869 0.045 0.003 0.023 0 0.51 -0.86 0.01
1 0.29 29 -0.101 -8.615 4.755 -0.885 0.366 1.343 104.932 -1409.981 -3884.869 0.001 0.028 -0.033 0 0.51 -0.86 0.01
1 0.30 30 -0.215 -8.816 4.769 -1.007 0.549 1.709 -14.990 -1379.851 -3824.908 0.116 0.229 -0.048 0 0.51 -0.86 0.01
1 0.31 31 -0.148 -8.768 4.717 -1.434 -0.183 0.946 29.980 -1589.864 -3944.980 0.048 0.181 0.005 0 0.51 -0.86 0.01
1 0.32 32 -0.125 -8.682 4.765 -0.793 -0.061 1.221 29.980 -1589.864 -3944.980 0.023 0.094 -0.043 0 0.51 -0.86 0.01
1 0.33 33 -0.062 -8.667 4.760 -0.885 -0.092 0.793 14.990 -1544.894 -3854.889 -0.039 0.080 -0.039 0 0.51 -0.86 0.01
1 0.34 34 -0.067 -8.777 4.774 -1.312 -0.488 1.312 14.990 -1544.894 -3854.889 -0.035 0.190 -0.054 0 0.51 -0.86 0.01
1 0.35 35 -0.115 -8.682 4.765 -1.038 0.153 1.251 14.990 -1544.894 -3899.859 0.013 0.094 -0.045 0 0.51 -0.86 0.01
1 0.36 36 -0.273 -8.706 4.640 -0.458 0.061 1.068 14.990 -1544.894 -3899.859 0.171 0.118 0.080 0 0.51 -0.86 0.01
1 0.37 37 -0.225 -8.734 4.817 -0.488 -0.580 1.007 0.000 -1589.864 -3884.869 0.123 0.146 -0.098 0 0.51 -0.86 0.01
1 0.38 38 -0.172 -8.754 4.765 -0.641 0.031 0.397 -104.932 -1439.962 -3884.869 0.069 0.165 -0.045 0 0.51 -0.86 0.01
1 0.39 39 -0.254 -8.710 4.755 -0.336 -0.061 1.648 -104.932 -1439.962 -3884.869 0.149 0.122 -0.036 0 0.51 -0.86 0.01
1 0.40 40 -0.287 -8.806 4.741 -0.366 0.305 0.854 29.980 -1409.981 -3764.947 0.181 0.218 -0.021 0 0.51 -0.86 0.01
1 0.41 41 -0.125 -8.730 4.717 -0.275 0.061 0.854 29.980 -1409.981 -3764.947 0.018 0.141 0.002 0 0.51 -0.86 0.01
1 0.42 42 -0.201 -8.706 4.683 -0.061 0.000 1.190 -44.971 -1499.923 -3749.957 0.093 0.117 0.036 0 0.51 -0.86 0.01
1 0.43 43 -0.125 -8.686 4.650 0.366 0.061 1.007 -44.971 -1499.923 -3749.957 0.014 0.099 0.070 0 0.51 -0.86 0.01
1 0.44 44 -0.129 -8.758 4.832 -0.122 0.092 0.824 14.990 -1544.894 -3899.859 0.018 0.172 -0.110 0 0.51 -0.86 0.01
1 0.45 45 -0.211 -8.777 4.664 0.061 -0.092 0.946 0.000 -1589.864 -3839.898 0.100 0.192 0.060 0 0.51 -0.86 0.01
1 0.46 46 -0.139 -8.725 4.745 -0.610 -0.641 1.099 0.000 -1589.864 -3839.898 0.027 0.139 -0.021 0 0.51 -0.86 0.01
1 0.47 47 -0.201 -8.792 4.678 -0.519 -0.458 0.549 -14.990 -1544.894 -3824.908 0.089 0.206 0.045 0 0.51 -0.86 0.01
1 0.48 48 -0.110 -8.840 4.789 -0.275 -0.061 1.282 -14.990 -1544.894 -3824.908 -0.002 0.254 -0.065 0 0.51 -0.86 0.01
1 0.49 49 -0.172 -8.710 4.803 -0.397 0.031 0.854 -164.893 -1619.995 -3824.908 0.060 0.125 -0.079 0 0.51 -0.86 0.01
1 0.50 50 -0.110 -8.653 4.712 -0.061 -0.122 0.732 -164.893 -1619.995 -3824.908 -0.003 0.067 0.011 0 0.51 -0.86 0.01
1 0.51 51 -0.163 -8.806 4.726 -0.183 -0.244 0.610 -89.941 -1574.874 -3929.990 0.049 0.221 -0.001 0 0.51 -0.86 0.01
1 0.52 52 -0.072 -8.706 4.669 -0.458 0.214 0.580 -89.941 -1469.942 -4004.941 -0.042 0.121 0.056 0 0.51 -0.86 0.01
1 0.53 53 -0.125 -8.739 4.645 -0.793 -0.214 0.458 -89.941 -1469.942 -4004.941 0.011 0.154 0.080 0 0.51 -0.86 0.01
1 0.54 54 -0.086 -8.763 4.631 -0.519 0.122 0.519 -14.990 -1499.923 -3929.990 -0.028 0.178 0.094 0 0.51 -0.86 0.01
1 0.55 55 -0.244 -8.773 4.592 -0.214 0.336 0.580 -14.990 -1499.923 -3929.990 0.130 0.188 0.133 0 0.51 -0.86 0.01
1 0.56 56 -0.129 -8.873 4.698 -0.122 0.092 0.122 -89.941 -1544.894 -3899.859 0.015 0.289 0.029 0 0.51 -0.86 0.01
1 0.57 57 -0.144 -8.658 4.736 0.305 -0.153 0.671 -89.941 -1544.894 -3899.859 0.029 0.074 -0.008 0 0.51 -0.86 0.01
1 0.58 58 -0.144 -8.696 4.635 -0.763 0.000 0.610 -14.990 -1424.972 -3854.889 0.029 0.112 0.092 0 0.51 -0.86 0.01
1 0.59 59 -0.134 -8.682 4.774 0.336 -0.183 0.610 -14.990 -1544.894 -3929.990 0.018 0.098 -0.047 0 0.51 -0.86 0.01
1 0.60 60 -0.158 -8.682 4.698 -0.549 -0.214 0.702 -14.990 -1544.894 -3929.990 0.041 0.099 0.032 0 0.51 -0.86 0.01
1 0.61 61 -0.091 -8.758 4.769 -0.610 -0.275 1.038 14.990 -1499.923 -4049.912 -0.026 0.176 -0.040 0 0.51 -0.86 0.01
1 0.62 62 -0.187 -8.811 4.707 -0.671 0.000 0.854 14.990 -1499.923 -4049.912 0.069 0.228 0.022 0 0.51 -0.86 0.01
1 0.63 63 -0.192 -8.734 4.774 -0.519 -0.824 0.610 -104.932 -1559.884 -3884.869 0.073 0.152 -0.045 0 0.51 -0.86 0.01
1 0.64 64 -0.120 -8.667 4.693 -0.427 -0.336 0.305 0.000 -1559.884 -3944.980 0.000 0.084 0.036 0 0.51 -0.86 0.01
1 0.65 65 -0.182 -8.682 4.836 -1.099 -1.068 1.129 29.980 -1634.985 -3944.980 0.062 0.099 -0.108 0 0.51 -0.86 0.01
1 0.66 66 -0.187 -8.696 4.750 -0.214 -1.099 0.641 44.971 -1544.894 -3854.889 0.067 0.113 -0.022 0 0.51 -0.86 0.01
1 0.67 67 -0.172 -8.600 4.717 -0.824 -0.153 0.854 44.971 -1544.894 -3854.889 0.053 0.018 0.012 0 0.51 -0.86 0.01
1 0.68 68 -0.225 -8.701 4.659 -0.916 -0.549 0.580 -29.980 -1514.913 -4139.853 0.105 0.118 0.070 0 0.51 -0.86 0.01
1 0.69 69 -0.172 -8.754 4.908 -0.702 -0.336 1.221 -29.980 -1514.913 -4139.853 0.052 0.171 -0.179 0 0.51 -0.86 0.01
1 0.70 70 -0.292 -8.792 4.822 -0.519 -0.671 0.977 0.000 -1484.933 -3915.000 0.171 0.209 -0.094 0 0.51 -0.86 0.01
1 0.71 71 -0.192 -8.835 4.631 -0.519 -0.702 1.556 -119.922 -1424.972 -3929.990 0.069 0.252 0.098 0 0.51 -0.86 0.01
1 0.72 72 -0.115 -8.682 4.760 -0.671 -0.885 1.801 -134.912 -1559.884 -3944.980 -0.008 0.099 -0.032 0 0.51 -0.86 0.01
1 0.73 73 -0.259 -8.696 4.741 -0.061 -0.458 1.678 -89.941 -1574.874 -4004.941 0.134 0.113 -0.012 0 0.51 -0.86 0.01
1 0.74 74 -0.125 -8.710 4.884 -0.366 -0.519 0.916 -89.941 -1574.874 -4004.941 -0.001 0.128 -0.154 0 0.51 -0.86 0.01
1 0.75 75 -0.105 -8.648 4.731 -0.519 -1.221 1.984 -14.990 -1499.923 -3899.859 -0.021 0.066 -0.001 0 0.51 -0.86 0.01
1 0.76 76 -0.239 -8.734 4.765 -0.946 -1.556 1.770 -14.990 -1499.923 -3899.859 0.113 0.153 -0.034 0 0.51 -0.86 0.01
1 0.77 77 -0.177 -8.730 4.621 -0.946 -0.946 1.282 0.000 -1589.864 -3764.947 0.050 0.148 0.110 0 0.51 -0.86 0.01
1 0.78 78 -0.172 -8.667 4.736 -0.336 -1.312 1.404 -29.980 -1514.913 -3944.980 0.045 0.086 -0.005 0 0.51 -0.86 0.01
1 0.79 79 -0.254 -8.696 4.712 -0.275 -1.160 1.373 -29.980 -1514.913 -3764.947 0.125 0.114 0.019 0 0.51 -0.86 0.01
1 0.80 80 -0.110 -8.710 4.813 -1.007 -0.854 1.129 -134.912 -1514.913 -3944.980 -0.019 0.129 -0.081 0 0.51 -0.86 0.01
1 0.81 81 -0.120 -8.701 4.851 -1.862 -1.404 1.617 -134.912 -1514.913 -3944.980 -0.009 0.119 -0.120 0 0.51 -0.86 0.01
1 0.82 82 -0.196 -8.835 4.626 -0.488 -0.824 1.373 -14.990 -1574.874 -3929.990 0.067 0.253 0.105 0 0.51 -0.86 0.01
1 0.83 83 -0.110 -8.763 4.836 -0.702 -1.099 1.404 -14.990 -1574.874 -3929.990 -0.020 0.181 -0.106 0 0.51 -0.86 0.01
1 0.84 84 -0.220 -8.663 4.712 -1.007 -0.549 0.671 29.980 -1559.884 -3944.980 0.091 0.081 0.018 0 0.51 -0.86 0.01
1 0.85 85 -0.172 -8.710 4.784 -0.092 -1.495 1.190 -44.971 -1619.995 -3794.928 0.042 0.128 -0.054 0 0.51 -0.86 0.01
1 0.86 86 -0.101 -8.787 4.745 -0.244 -0.793 1.068 -14.990 -1694.946 -3929.990 -0.030 0.206 -0.014 0 0.51 -0.86 0.01
1 0.87 87 -0.206 -8.715 4.750 -0.092 -1.282 1.556 -14.990 -1499.923 -3854.889 0.075 0.135 -0.018 0 0.51 -0.86 0.01
1 0.88 88 -0.081 -8.672 4.774 0.244 -1.526 1.526 -14.990 -1499.923 -3854.889 -0.050 0.093 -0.040 0 0.51 -0.86 0.01
1 0.89 89 -0.144 -8.648 4.822 0.854 -0.732 1.465 -14.990 -1574.874 -4004.941 0.013 0.070 -0.085 0 0.51 -0.86 0.01
1 0.90 90 -0.235 -8.667 4.932 0.092 -1.038 1.221 -14.990 -1574.874 -4004.941 0.103 0.091 -0.193 0 0.51 -0.86 0.01
1 0.91 91 -0.211 -8.643 4.683 -0.824 -0.763 0.885 29.980 -1559.884 -3944.980 0.079 0.068 0.058 0 0.51 -0.86 0.01
1 0.92 92 -0.096 -8.514 4.884 0.031 -0.793 1.343 -44.971 -1379.851 -3899.859 -0.037 -0.061 -0.142 0 0.51 -0.86 0.01
1 0.93 93 -0.163 -8.720 4.736 0.305 -1.038 1.343 -14.990 -1499.923 -3854.889 0.030 0.146 0.009 0 0.51 -0.86 0.01
1 0.94 94 -0.192 -8.663 4.793 0.092 -1.343 1.404 44.971 -1649.975 -3899.859 0.059 0.090 -0.047 0 0.51 -0.86 0.01
1 0.95 95 -0.244 -8.696 4.808 0.092 -1.190 1.648 44.971 -1649.975 -3899.859 0.111 0.125 -0.059 0 0.51 -0.86 0.01
1 0.96 96 -0.192 -8.663 4.894 -0.153 -1.099 1.312 -29.980 -1589.864 -3839.898 0.057 0.092 -0.143 0 0.51 -0.86 0.01
1 0.97 97 -0.177 -8.715 4.750 -0.122 -0.946 1.526 -29.980 -1589.864 -3839.898 0.042 0.146 0.003 0 0.51 -0.86 0.01
1 0.98 98 -0.139 -8.629 4.932 0.092 -1.129 2.197 -44.971 -1619.995 -3929.990 0.003 0.061 -0.177 0 0.51 -0.86 0.01
1 0.99 99 -0.263 -8.682 4.789 -0.305 -1.129 1.923 -14.990 -1499.923 -3929.990 0.127 0.115 -0.032 0 0.51 -0.86 0.01
1 1.00 100 -0.268 -8.663 4.904 -0.397 -1.312 1.495 -14.990 -1499.923 -3824.908 0.130 0.097 -0.145 0 0.51 -0.86 0.01
1 1.01 101 -0.129 -8.672 4.774 -0.122 -1.434 1.648 -29.980 -1559.884 -3915.000 -0.010 0.107 -0.014 0 0.51 -0.86 0.01
1 1.02 102 -0.172 -8.749 4.880 -0.854 -1.587 1.801 -29.980 -1559.884 -3915.000 0.033 0.185 -0.118 0 0.51 -0.86 0.01
1 1.03 103 -0.302 -8.763 4.765 -0.305 -1.801 1.343 59.961 -1409.981 -3764.947 0.162 0.200 -0.002 0 0.51 -0.86 0.01
1 1.04 104 -0.110 -8.715 4.717 0.061 -1.984 1.617 59.961 -1409.981 -3764.947 -0.031 0.152 0.047 0 0.51 -0.86 0.01
1 1.05 105 -0.177 -8.672 4.832 -0.183 -2.716 1.282 -44.971 -1574.874 -3824.908 0.036 0.110 -0.067 0 0.51 -0.86 0.01
1 1.06 106 -0.139 -8.768 4.722 -0.610 -2.747 0.916 -44.971 -1499.923 -3824.908 -0.002 0.206 0.045 0 0.51 -0.86 0.01
1 1.07 107 -0.091 -8.552 4.803 -0.580 -3.052 1.038 -44.971 -1499.923 -3824.908 -0.049 -0.008 -0.035 0 0.51 -0.86 0.01
1 1.08 108 -0.105 -8.754 4.846 -0.458 -4.272 1.038 14.990 -1619.995 -3929.990 -0.031 0.194 -0.076 0 0.51 -0.86 0.01
1 1.09 109 0.086 -8.706 4.894 -0.427 -4.883 0.336 14.990 -1619.995 -3929.990 -0.220 0.146 -0.123 0 0.51 -0.86 0.01
1 1.10 110 -0.048 -8.983 4.789 -0.763 -4.974 0.671 0.000 -1514.913 -3944.980 -0.081 0.425 -0.016 0 0.51 -0.86 0.01
1 1.11 111 0.067 -8.916 4.817 0.519 -5.554 0.366 0.000 -1514.913 -3944.980 -0.191 0.358 -0.045 0 0.51 -0.86 0.01
1 1.12 112 -0.010 -8.763 4.860 0.885 -6.165 0.336 -134.912 -1439.962 -3989.951 -0.109 0.206 -0.086 0 0.51 -0.86 0.01
1 1.13 113 -0.038 -8.696 4.846 0.458 -6.378 0.305 29.980 -1559.884 -3989.951 -0.075 0.140 -0.068 0 0.51 -0.86 0.01
1 1.14 114 0.182 -8.586 4.741 -0.214 -6.073 0.702 29.980 -1559.884 -3989.951 -0.289 0.032 0.040 0 0.51 -0.86 0.01
1 1.15 115 0.187 -8.581 4.803 0.214 -5.707 1.343 -29.980 -1439.962 -3915.000 -0.283 0.029 -0.018 -0 0.51 -0.86 0.01
1 1.16 116 0.110 -8.370 4.923 -0.305 -6.531 0.519 -29.980 -1439.962 -3915.000 -0.201 -0.180 -0.136 -0 0.51 -0.86 0.01
1 1.17 117 0.005 -8.533 4.779 -1.251 -5.768 0.610 29.980 -1559.884 -3884.869 -0.089 -0.017 0.010 -0 0.51 -0.86 0.01
1 1.18 118 0.311 -8.337 4.832 -1.770 -5.951 0.153 29.980 -1559.884 -3884.869 -0.390 -0.213 -0.042 -0 0.51 -0.86 0.01
1 1.19 119 0.244 -8.557 4.851 -1.770 -6.226 -0.275 -14.990 -1619.995 -4049.912 -0.316 0.008 -0.061 -0 0.51 -0.86 0.01
1 1.20 120 0.292 -8.514 4.908 -1.862 -5.859 0.641 14.990 -1499.923 -4049.912 -0.356 -0.035 -0.118 -0 0.51 -0.86 0.01
1 1.21 121 0.263 -8.557 4.774 -2.411 -5.829 0.183 14.990 -1499.923 -4049.912 -0.321 0.007 0.015 -0 0.51 -0.86 0.01
1 1.22 122 0.278 -8.514 4.827 -2.594 -5.310 -0.793 14.990 -1619.995 -3974.960 -0.328 -0.036 -0.038 -0 0.51 -0.86 0.01
1 1.23 123 0.158 -8.696 4.846 -2.869 -5.310 -0.610 -134.912 -1679.956 -3764.947 -0.193 0.144 -0.060 -0 0.51 -0.86 0.01
1 1.24 124 0.115 -8.667 4.678 -2.838 -5.280 -0.336 -104.932 -1709.936 -3839.898 -0.143 0.114 0.106 -0 0.51 -0.86 0.01
1 1.25 125 0.134 -8.605 4.722 -2.686 -5.859 0.061 -104.932 -1709.936 -3839.898 -0.156 0.051 0.060 -0.01 0.51 -0.86 0.01
1 1.26 126 0.196 -8.619 4.774 -3.235 -5.280 -0.305 14.990 -1424.972 -4154.993 -0.212 0.064 0.006 -0.01 0.51 -0.86 0.01
1 1.27 127 0.148 -8.739 4.544 -3.052 -5.798 0.610 -134.912 -1634.985 -3884.869 -0.158 0.183 0.233 -0.01 0.51 -0.86 0.01
1 1.28 128 0.115 -8.643 4.808 -2.319 -5.371 0.824 -134.912 -1634.985 -3884.869 -0.118 0.085 -0.033 -0.01 0.51 -0.86 0.01
1 1.29 129 0.038 -8.754 4.798 -2.045 -5.920 1.221 -44.971 -1544.894 -4079.892 -0.037 0.193 -0.027 -0.01 0.51 -0.86 0.01
1 1.30 130 -0.096 -8.720 4.731 -2.350 -6.134 2.075 -59.961 -1514.913 -3944.980 0.104 0.158 0.037 -0.01 0.51 -0.86 0.01
1 1.31 131 0.053 -8.643 4.731 -1.526 -6.531 2.930 -29.980 -1559.884 -3915.000 -0.042 0.080 0.035 -0.01 0.51 -0.86 0.01
1 1.32 132 0.000 -8.658 4.846 -1.526 -6.348 3.021 -29.980 -1559.884 -3915.000 0.012 0.094 -0.081 -0.01 0.51 -0.86 0.01
1 1.33 133 0.096 -8.629 4.688 -2.625 -6.317 3.082 -14.990 -1499.923 -3824.908 -0.083 0.065 0.077 -0.01 0.51 -0.86 0.01
1 1.34 134 0.215 -8.505 4.702 -2.838 -6.042 2.625 29.980 -1709.936 -3884.869 -0.200 -0.060 0.060 -0.01 0.51 -0.86 0.01
1 1.35 135 0.048 -8.754 4.717 -3.387 -6.256 3.265 29.980 -1709.936 -3884.869 -0.030 0.187 0.043 -0.01 0.51 -0.86 0.01
1 1.36 136 0.000 -8.672 4.702 -3.601 -5.463 2.869 -44.971 -1544.894 -3899.859 0.019 0.104 0.054 -0.01 0.51 -0.86 0.01
1 1.37 137 0.129 -8.974 4.712 -2.899 -5.157 3.723 -179.883 -1589.864 -3989.951 -0.108 0.402 0.038 -0.01 0.51 -0.86 0.01
1 1.38 138 0.148 -8.979 4.669 -2.106 -5.554 4.334 -134.912 -1589.864 -3884.869 -0.127 0.405 0.078 -0.01 0.51 -0.86 0.01
1 1.39 139 0.163 -8.878 4.631 -1.434 -6.439 4.303 -134.912 -1589.864 -3884.869 -0.141 0.303 0.114 -0.01 0.51 -0.86 0.01
1 1.40 140 0.158 -8.720 4.693 -1.251 -6.928 4.761 -29.980 -1439.962 -3884.869 -0.136 0.144 0.050 -0.01 0.51 -0.86 0.01
1 1.41 141 0.048 -8.658 4.602 -2.106 -6.104 5.249 -179.883 -1484.933 -3944.980 -0.026 0.081 0.140 -0.01 0.51 -0.86 0.01
1 1.42 142 0.125 -8.663 4.482 -5.157 -5.371 4.913 -179.883 -1484.933 -3944.980 -0.104 0.084 0.257 -0.01 0.51 -0.86 0.02
1 1.43 143 0.038 -8.696 4.544 -6.317 -4.150 5.493 -119.922 -1574.874 -3974.960 -0.019 0.115 0.189 -0.01 0.51 -0.86 0.02
1 1.44 144 0.038 -8.643 4.654 -5.798 -2.625 6.073 -134.912 -1589.864 -3944.980 -0.025 0.054 0.065 -0.01 0.51 -0.86 0.02
1 1.45 145 0.057 -8.720 4.635 -7.080 -2.502 5.676 -194.873 -1544.894 -3824.908 -0.050 0.127 0.076 -0.01 0.51 -0.86 0.02
1 1.46 146 -0.034 -8.648 4.573 -7.019 -1.770 6.836 -194.873 -1544.894 -3824.908 0.036 0.050 0.130 -0.01 0.51 -0.86 0.02
1 1.47 147 -0.230 -8.782 4.654 -7.141 -2.136 6.439 -209.863 -1559.884 -3884.869 0.226 0.180 0.040 -0.01 0.51 -0.86 0.02
1 1.48 148 -0.081 -8.897 4.664 -8.118 -3.052 7.080 -104.932 -1514.913 -3764.947 0.070 0.290 0.022 -0.01 0.51 -0.86 0.02
1 1.49 149 -0.397 -8.897 4.769 -7.690 -2.686 8.209 -104.932 -1514.913 -3764.947 0.378 0.285 -0.093 -0.01 0.51 -0.86 0.02
1 1.50 150 -0.421 -8.979 4.731 -7.263 -3.448 8.453 -194.873 -1694.946 -3929.990 0.393 0.361 -0.064 -0.01 0.51 -0.86 0.02
1 1.51 151 -0.273 -9.003 4.674 -6.989 -3.632 8.301 -164.893 -1574.874 -3929.990 0.233 0.381 -0.015 -0.01 0.51 -0.86 0.02
1 1.52 152 -0.335 -9.003 4.779 -4.883 -3.937 8.514 -134.912 -1439.962 -3839.898 0.274 0.372 -0.136 -0.01 0.51 -0.86 0.02
1 1.53 153 -0.321 -8.892 4.683 -3.235 -4.089 8.179 -134.912 -1439.962 -3839.898 0.250 0.260 -0.045 -0.01 0.51 -0.86 0.02
1 1.54 154 -0.287 -8.897 4.678 -3.448 -4.334 7.782 -269.974 -1424.972 -3824.908 0.207 0.263 -0.043 -0.01 0.51 -0.86 0.02
1 1.55 155 -0.182 -8.696 4.573 -3.510 -4.364 7.751 -164.893 -1544.894 -4004.941 0.094 0.061 0.060 -0.01 0.51 -0.86 0.02
1 1.56 156 -0.244 -8.706 4.559 -3.571 -3.876 6.958 -164.893 -1544.894 -4004.941 0.149 0.069 0.071 -0.01 0.51 -0.86 0.02
1 1.57 157 -0.187 -8.653 4.549 -4.486 -3.235 6.073 -194.873 -1469.942 -3929.990 0.086 0.015 0.078 -0.01 0.51 -0.86 0.02
1 1.58 158 -0.235 -8.629 4.702 -5.096 -2.289 6.317 -29.980 -1589.864 -3989.951 0.128 -0.012 -0.080 -0.01 0.51 -0.86 0.02
1 1.59 159 -0.158 -8.686 4.559 -5.463 -1.770 5.157 0.000 -1439.962 -3915.000 0.038 0.041 0.054 -0.01 0.51 -0.86 0.03
1 1.60 160 -0.249 -8.859 4.726 -5.188 -1.373 4.700 0.000 -1439.962 -3915.000 0.124 0.211 -0.119 -0.01 0.51 -0.86 0.03
1 1.61 161 -0.105 -8.840 4.745 -5.280 -1.190 4.059 -164.893 -1574.874 -3899.859 -0.025 0.189 -0.143 -0.01 0.51 -0.86 0.03
1 1.62 162 -0.086 -8.754 4.674 -4.364 -1.312 3.174 -134.912 -1559.884 -3809.918 -0.048 0.100 -0.076 -0.01 0.52 -0.86 0.03
1 1.63 163 -0.129 -8.773 4.731 -4.700 -0.824 3.174 -134.912 -1559.884 -3809.918 -0.007 0.117 -0.137 -0.01 0.52 -0.86 0.03
1 1.64 164 -0.091 -8.983 4.798 -4.211 0.031 3.052 -59.961 -1289.910 -3809.918 -0.049 0.326 -0.208 -0.01 0.52 -0.86 0.03
1 1.65 165 -0.278 -8.950 4.722 -3.510 0.214 2.380 -119.922 -1469.942 -3929.990 0.135 0.291 -0.134 -0.01 0.52 -0.86 0.03
1 1.66 166 -0.316 -8.931 4.789 -2.655 0.732 2.808 -119.922 -1469.942 -3929.990 0.171 0.270 -0.204 -0.01 0.52 -0.86 0.03
1 1.67 167 -0.278 -8.888 4.712 -1.251 0.824 2.502 -194.873 -1349.871 -3929.990 0.126 0.226 -0.129 -0.01 0.52 -0.86 0.03
1 1.68 168 -0.354 -8.696 4.726 -1.251 0.519 2.014 -209.863 -1364.861 -3915.000 0.200 0.035 -0.143 -0.01 0.52 -0.86 0.03
1 1.69 169 -0.326 -8.859 4.808 -0.824 0.488 1.801 -59.961 -1514.913 -3809.918 0.167 0.199 -0.223 -0.01 0.52 -0.86 0.03
1 1.70 170 -0.450 -8.715 4.827 -1.190 0.031 1.404 -59.961 -1514.913 -3809.918 0.289 0.056 -0.241 -0.01 0.52 -0.86 0.03
1 1.71 171 -0.460 -8.749 4.817 -0.702 -0.061 0.610 -59.961 -1514.913 -3839.898 0.296 0.090 -0.230 -0.01 0.52 -0.86 0.03
1 1.72 172 -0.479 -8.677 4.851 -1.404 -1.465 0.549 -14.990 -1499.923 -3824.908 0.313 0.019 -0.262 -0.01 0.52 -0.86 0.03
1 1.73 173 -0.455 -8.696 4.712 -0.519 -0.488 0.061 -14.990 -1499.923 -3824.908 0.287 0.039 -0.122 -0.01 0.52 -0.86 0.03
1 1.74 174 -0.340 -8.806 4.659 0.885 -0.885 1.038 -194.873 -1574.874 -3974.960 0.168 0.151 -0.066 -0.01 0.52 -0.86 0.03
1 1.75 175 -0.393 -8.672 4.616 0.366 -1.068 1.801 -104.932 -1514.913 -4019.931 0.220 0.019 -0.020 -0 0.52 -0.86 0.03
1 1.76 176 -0.421 -8.720 4.645 1.129 -1.099 1.984 -209.863 -1559.884 -3884.869 0.247 0.068 -0.046 -0 0.52 -0.86 0.03
1 1.77 177 -0.464 -8.672 4.693 0.946 -0.854 1.709 -209.863 -1559.884 -3884.869 0.287 0.022 -0.091 -0 0.51 -0.86 0.03
1 1.78 178 -0.488 -8.849 4.669 -0.488 -2.350 2.502 -164.893 -1424.972 -3854.889 0.307 0.201 -0.064 -0 0.51 -0.86 0.03
1 1.79 179 -0.436 -8.816 4.678 -1.312 -2.991 3.143 -89.941 -1499.923 -3899.859 0.251 0.168 -0.072 -0 0.51 -0.86 0.03
1 1.80 180 -0.474 -8.744 4.774 -0.732 -3.326 3.448 -89.941 -1499.923 -3899.859 0.287 0.096 -0.167 -0 0.51 -0.86 0.03
1 1.81 181 -0.297 -8.864 4.564 -1.221 -4.303 3.937 -194.873 -1424.972 -3854.889 0.103 0.217 0.045 -0 0.51 -0.86 0.03
1 1.82 182 -0.575 -8.897 4.607 -0.916 -4.150 4.547 -194.873 -1544.894 -3929.990 0.378 0.250 0.001 -0 0.51 -0.86 0.03
1 1.83 183 -0.350 -8.878 4.583 -0.122 -3.967 5.188 -224.854 -1379.851 -4004.941 0.148 0.231 0.025 -0 0.51 -0.86 0.03
1 1.84 184 -0.292 -8.888 4.621 0.580 -3.876 6.012 -224.854 -1379.851 -4004.941 0.086 0.242 -0.012 -0 0.51 -0.86 0.03
1 1.85 185 -0.268 -8.816 4.621 1.099 -3.510 5.249 -104.932 -1484.933 -3839.898 0.057 0.171 -0.010 -0 0.51 -0.86 0.03
1 1.86 186 -0.192 -8.706 4.535 0.641 -2.045 5.219 -119.922 -1349.871 -3929.990 -0.024 0.062 0.079 -0 0.51 -0.86 0.03
1 1.87 187 -0.120 -8.624 4.530 0.977 -1.862 5.402 -119.922 -1349.871 -3929.990 -0.100 -0.018 0.085 -0 0.51 -0.86 0.03
1 1.88 188 -0.263 -8.619 4.434 -0.671 -2.045 4.578 -194.873 -1544.894 -3899.859 0.036 -0.020 0.186 -0 0.51 -0.86 0.03
1 1.89 189 -0.215 -8.629 4.540 -0.427 -1.312 3.784 -164.893 -1499.923 -3854.889 -0.015 -0.010 0.081 -0 0.51 -0.86 0.03
1 1.90 190 -0.153 -8.715 4.511 -1.495 -0.946 3.754 -104.932 -1409.981 -3884.869 -0.081 0.076 0.110 -0 0.51 -0.86 0.03
1 1.91 191 -0.125 -8.672 4.468 -2.167 0.122 2.747 -104.932 -1409.981 -3884.869 -0.112 0.032 0.152 -0 0.51 -0.86 0.03
1 1.92 192 -0.172 -8.672 4.554 -2.777 0.153 1.892 -119.922 -1499.923 -3899.859 -0.066 0.031 0.064 -0 0.51 -0.86 0.03
1 1.93 193 -0.211 -8.639 4.592 -3.693 0.641 1.831 -179.883 -1559.884 -3839.898 -0.030 -0.003 0.023 -0 0.51 -0.86 0.03
1 1.94 194 -0.192 -8.710 4.496 -3.448 1.160 1.556 -179.883 -1559.884 -3839.898 -0.051 0.067 0.115 -0 0.51 -0.86 0.03
1 1.95 195 -0.115 -8.768 4.516 -3.540 1.831 0.977 -164.893 -1424.972 -3854.889 -0.129 0.123 0.093 -0 0.51 -0.86 0.03
1 1.96 196 -0.144 -8.739 4.449 -4.303 2.441 1.434 -119.922 -1469.942 -3824.908 -0.102 0.090 0.152 -0 0.52 -0.86 0.03
1 1.97 197 -0.211 -8.830 4.511 -4.303 2.563 0.061 -179.883 -1559.884 -3944.980 -0.036 0.178 0.085 -0 0.52 -0.86 0.03
1 1.98 198 -0.287 -8.945 4.578 -4.242 3.265 0.031 -179.883 -1559.884 -3944.980 0.039 0.290 0.013 -0 0.52 -0.86 0.03
1 1.99 199 -0.168 -8.883 4.583 -3.967 3.052 0.519 -119.922 -1379.851 -3974.960 -0.083 0.226 0.004 -0 0.52 -0.86 0.03
1 2.00 200 -0.287 -8.739 4.554 -4.150 3.967 0.397 -59.961 -1409.981 -3944.980 0.036 0.080 0.028 -0 0.52 -0.86 0.03
1 2.01 201 -0.321 -8.825 4.482 -3.845 3.387 0.122 -59.961 -1409.981 -3944.980 0.067 0.164 0.095 -0 0.52 -0.86 0.03
1 2.02 202 -0.297 -8.878 4.396 -4.364 3.265 0.397 -104.932 -1484.933 -3884.869 0.041 0.214 0.177 -0 0.52 -0.86 0.03
1 2.03 203 -0.488 -8.950 4.578 -2.167 3.296 0.275 -104.932 -1514.913 -3764.947 0.227 0.281 -0.014 -0 0.52 -0.86 0.03
1 2.04 204 -0.369 -9.022 4.597 -2.045 2.441 -0.244 -119.922 -1499.923 -3824.908 0.105 0.352 -0.035 -0 0.52 -0.86 0.03
1 2.05 205 -0.460 -8.883 4.501 -1.648 2.563 -0.183 -119.922 -1499.923 -3824.908 0.194 0.213 0.059 -0 0.52 -0.86 0.03
1 2.06 206 -0.340 -8.926 4.468 -1.434 1.953 0.122 0.000 -1439.962 -3764.947 0.073 0.255 0.091 0 0.52 -0.86 0.03
1 2.07 207 -0.330 -8.840 4.468 -1.343 2.014 0.244 -59.961 -1334.880 -3839.898 0.062 0.168 0.089 0 0.52 -0.86 0.03
1 2.08 208 -0.340 -8.907 4.453 -1.526 1.770 0.153 -59.961 -1334.880 -3839.898 0.070 0.234 0.103 0 0.52 -0.86 0.03
1 2.09 209 -0.417 -8.892 4.516 -1.343 2.106 0.183 -209.863 -1559.884 -3764.947 0.145 0.220 0.039 0 0.52 -0.86 0.03
1 2.10 210 -0.335 -8.806 4.473 -2.075 0.977 0.488 -209.863 -1559.884 -3764.947 0.062 0.133 0.081 0 0.52 -0.86 0.03
1 2.11 211 -0.369 -8.806 4.501 -1.953 1.007 0.732 -44.971 -1304.900 -3824.908 0.093 0.131 0.050 0 0.52 -0.86 0.02
1 2.12 212 -0.407 -8.806 4.482 -0.885 0.519 1.251 -44.971 -1304.900 -3824.908 0.130 0.131 0.068 0 0.52 -0.86 0.02
1 2.13 213 -0.330 -8.797 4.520 -1.129 0.732 0.763 -134.912 -1409.981 -3734.967 0.052 0.121 0.029 0 0.52 -0.86 0.02
1 2.14 214 -0.239 -8.878 4.482 -1.923 0.580 1.099 -59.961 -1364.861 -3989.951 -0.040 0.202 0.066 0 0.52 -0.86 0.02
1 2.15 215 -0.388 -8.797 4.482 -1.770 0.366 0.702 -59.961 -1364.861 -3989.951 0.109 0.120 0.065 0 0.52 -0.86 0.02
1 2.16 216 -0.369 -8.725 4.477 -1.251 -0.031 0.641 -134.912 -1589.864 -3884.869 0.089 0.048 0.070 0 0.52 -0.86 0.02
1 2.17 217 -0.359 -8.787 4.607 -1.831 0.458 1.251 -134.912 -1589.864 -3884.869 0.079 0.110 -0.061 0 0.52 -0.86 0.02
1 2.18 218 -0.364 -8.710 4.631 -2.716 -0.244 1.129 -134.912 -1409.981 -3944.980 0.082 0.033 -0.085 0 0.52 -0.86 0.02
1 2.19 219 -0.335 -8.658 4.506 -3.052 -1.984 0.916 -134.912 -1409.981 -3944.980 0.053 -0.020 0.038 0 0.52 -0.86 0.02
1 2.20 220 -0.330 -8.864 4.698 -2.686 -2.289 0.916 -29.980 -1364.861 -3839.898 0.050 0.184 -0.155 0 0.52 -0.86 0.02
1 2.21 221 -0.354 -8.878 4.597 -1.831 -3.387 0.732 -89.941 -1229.949 -3794.928 0.075 0.198 -0.056 0 0.52 -0.86 0.02
1 2.22 222 -0.464 -8.840 4.741 -1.373 -4.852 0.092 -89.941 -1229.949 -3794.928 0.188 0.160 -0.199 0 0.52 -0.86 0.02
1 2.23 223 -0.330 -8.725 4.678 -0.153 -5.859 -0.641 -89.941 -1379.851 -3749.957 0.057 0.045 -0.136 0 0.52 -0.86 0.02
1 2.24 224 -0.321 -8.710 4.688 -1.038 -6.622 -0.214 -89.941 -1379.851 -3749.957 0.052 0.032 -0.144 0 0.52 -0.86 0.02
1 2.25 225 -0.259 -8.677 4.659 -1.526 -7.172 -0.275 -44.971 -1379.851 -3824.908 0.001 -0.000 -0.112 0 0.52 -0.86 0.02
1 2.26 226 -0.115 -8.734 4.683 -2.594 -7.629 -0.610 -44.971 -1379.851 -3824.908 -0.137 0.057 -0.136 -0 0.52 -0.86 0.02
1 2.27 227 0.019 -8.725 4.554 -2.686 -7.904 0.092 -209.863 -1484.933 -3704.986 -0.263 0.046 -0.008 -0 0.52 -0.86 0.03
1 2.28 228 0.077 -8.739 4.549 -2.594 -7.263 1.404 -29.980 -1409.981 -3915.000 -0.313 0.060 -0.004 -0 0.52 -0.86 0.03
1 2.29 229 -0.067 -8.485 4.549 -2.167 -7.019 2.136 -29.980 -1409.981 -3915.000 -0.164 -0.194 -0.005 -0 0.52 -0.86 0.03
1 2.30 230 0.034 -8.509 4.597 -5.188 -6.592 2.747 -194.873 -1424.972 -3794.928 -0.261 -0.171 -0.053 -0 0.52 -0.86 0.03
1 2.31 231 0.010 -8.677 4.473 -5.707 -7.355 3.357 -194.873 -1424.972 -3794.928 -0.234 -0.005 0.068 -0 0.52 -0.85 0.03
1 2.32 232 -0.010 -8.557 4.535 -5.920 -7.904 4.211 -104.932 -1364.861 -3809.918 -0.209 -0.130 -0.005 -0 0.52 -0.85 0.03
1 2.33 233 -0.158 -8.634 4.559 -6.348 -8.301 4.395 -104.932 -1364.861 -3809.918 -0.059 -0.057 -0.034 -0 0.52 -0.85 0.03
1 2.34 234 -0.091 -8.701 4.434 -7.690 -8.423 4.211 -194.873 -1544.894 -3749.957 -0.124 0.007 0.083 -0 0.52 -0.85 0.03
1 2.35 235 -0.144 -8.686 4.444 -7.599 -8.972 4.547 -179.883 -1409.981 -3839.898 -0.070 -0.012 0.065 -0 0.52 -0.85 0.03
1 2.36 236 -0.115 -8.816 4.367 -6.165 -7.660 5.585 -179.883 -1409.981 -3839.898 -0.098 0.113 0.134 -0 0.52 -0.85 0.03
1 2.37 237 -0.168 -9.026 4.578 -3.937 -6.134 6.256 -104.932 -1289.910 -3944.980 -0.047 0.320 -0.084 -0 0.52 -0.85 0.03
1 2.38 238 -0.081 -9.386 4.683 -1.709 -5.585 5.920 -104.932 -1289.910 -3944.980 -0.136 0.678 -0.193 -0 0.52 -0.85 0.03
1 2.39 239 0.144 -9.481 4.832 1.984 -3.265 6.042 -164.893 -1379.851 -3974.960 -0.364 0.772 -0.343 -0 0.52 -0.85 0.03
1 2.40 240 0.206 -9.544 5.157 6.073 1.068 5.920 -269.974 -1499.923 -3674.856 -0.432 0.840 -0.659 -0 0.52 -0.85 0.03
1 2.41 241 0.196 -9.548 5.143 9.491 3.265 4.974 -119.922 -1274.919 -3824.908 -0.429 0.851 -0.634 -0 0.52 -0.85 0.03
1 2.42 242 0.182 -9.520 5.038 10.864 5.981 3.967 -89.941 -1304.900 -3899.859 -0.423 0.830 -0.514 -0 0.52 -0.85 0.03
1 2.43 243 0.110 -9.252 4.889 12.360 8.728 2.106 -89.941 -1304.900 -3899.859 -0.356 0.571 -0.347 -0 0.52 -0.85 0.03
1 2.44 244 -0.057 -8.897 4.449 14.648 9.216 -1.373 -164.893 -1469.942 -3749.957 -0.193 0.227 0.112 -0 0.52 -0.86 0.03
1 2.45 245 -0.546 -8.581 4.362 15.503 6.012 -3.723 -164.893 -1469.942 -3749.957 0.293 -0.079 0.218 -0 0.52 -0.86 0.03
1 2.46 246 -0.819 -8.399 4.042 11.810 2.014 -6.195 -119.922 -1469.942 -3854.889 0.565 -0.250 0.559 -0 0.52 -0.86 0.03
1 2.47 247 -1.044 -8.720 3.816 8.545 -4.150 -8.118 -104.932 -1289.910 -3944.980 0.800 0.086 0.813 -0 0.51 -0.86 0.03
1 2.48 248 -0.972 -8.983 3.692 7.507 -7.263 -7.324 -224.854 -1469.942 -3929.990 0.738 0.353 0.946 -0 0.51 -0.86 0.03
1 2.49 249 -1.087 -9.007 3.769 6.500 -9.033 -7.172 -164.893 -1379.851 -4004.941 0.863 0.380 0.875 -0 0.51 -0.86 0.03
1 2.50 250 -1.006 -9.017 3.826 3.937 -9.186 -5.157 -164.893 -1379.851 -4004.941 0.792 0.392 0.822 -0 0.51 -0.86 0.03
1 2.51 251 -1.250 -9.256 3.941 -0.061 -7.263 -2.228 -164.893 -1649.975 -3794.928 1.042 0.631 0.707 -0 0.51 -0.86 0.03
1 2.52 252 -1.106 -9.606 4.142 -0.061 -6.775 2.228 -164.893 -1649.975 -3794.928 0.899 0.978 0.501 -0 0.51 -0.86 0.03
1 2.53 253 -0.924 -9.601 4.051 -0.824 -5.249 5.524 -44.971 -1544.894 -3929.990 0.713 0.971 0.587 -0 0.51 -0.86 0.03
1 2.54 254 -0.800 -9.673 3.831 -1.648 -4.852 9.522 -104.932 -1559.884 -3915.000 0.581 1.041 0.804 -0 0.51 -0.86 0.03
1 2.55 255 -0.790 -9.395 3.855 2.350 -6.226 14.496 -209.863 -1484.933 -3915.000 0.544 0.758 0.768 -0 0.51 -0.86 0.03
1 2.56 256 -0.943 -9.366 4.003 3.448 -5.066 15.045 -134.912 -1439.962 -4019.931 0.679 0.729 0.618 -0 0.51 -0.86 0.03
1 2.57 257 -1.001 -9.252 3.601 4.395 -8.179 17.120 -134.912 -1439.962 -4019.931 0.716 0.615 1.021 -0 0.51 -0.86 0.03
1 2.58 258 -0.800 -9.060 3.467 6.836 -11.292 15.625 -164.893 -1424.972 -3974.960 0.495 0.424 1.156 -0 0.51 -0.86 0.03
1 2.59 259 -0.508 -8.816 3.649 7.385 -13.947 12.512 -164.893 -1424.972 -3974.960 0.188 0.182 0.977 -0 0.51 -0.86 0.03
1 2.60 260 -0.278 -8.696 3.371 7.019 -15.778 11.749 -59.961 -1439.962 -3734.967 -0.051 0.065 1.260 -0 0.51 -0.86 0.04
1 2.61 261 -0.460 -8.615 3.386 6.500 -16.815 9.613 -194.873 -1469.942 -3854.889 0.125 -0.013 1.251 -0 0.51 -0.86 0.04
1 2.62 262 -0.283 -8.581 3.290 4.913 -19.745 6.470 -194.873 -1649.975 -3824.908 -0.051 -0.042 1.354 -0 0.51 -0.86 0.04
1 2.63 263 -0.278 -8.658 3.357 3.754 -21.973 4.700 -194.873 -1469.942 -3899.859 -0.049 0.035 1.288 -0 0.51 -0.86 0.04
1 2.64 264 -0.201 -8.672 3.357 2.472 -22.400 3.265 -194.873 -1469.942 -3899.859 -0.115 0.048 1.288 -0.01 0.51 -0.86 0.04
1 2.65 265 -0.259 -8.725 3.137 0.427 -23.163 1.892 -284.964 -1559.884 -3839.898 -0.044 0.099 1.506 -0.01 0.51 -0.86 0.04
1 2.66 266 -0.168 -8.572 3.180 -0.183 -23.712 0.977 -284.964 -1559.884 -3839.898 -0.120 -0.057 1.457 -0.01 0.51 -0.86 0.04
1 2.67 267 -0.187 -8.586 3.237 -4.883 -24.475 -1.038 -179.883 -1439.962 -3884.869 -0.083 -0.047 1.393 -0.01 0.51 -0.86 0.04
1 2.68 268 -0.105 -8.691 3.328 -7.690 -24.750 -0.793 -179.883 -1589.864 -3884.869 -0.144 0.052 1.291 -0.01 0.51 -0.86 0.04
1 2.69 269 -0.134 -8.897 3.409 -8.331 -23.987 -2.380 -359.916 -1484.933 -3944.980 -0.076 0.241 1.180 -0.01 0.52 -0.86 0.05
1 2.70 270 -0.201 -9.060 3.309 -6.409 -23.621 -2.472 -329.935 -1589.864 -3839.898 0.013 0.395 1.265 -0.02 0.52 -0.86 0.05
1 2.71 271 -0.215 -9.007 3.371 -6.836 -25.391 -3.418 -329.935 -1589.864 -3839.898 0.048 0.334 1.188 -0.02 0.52 -0.85 0.05
1 2.72 272 -0.125 -9.026 3.409 -8.270 -25.879 -3.601 -284.964 -1559.884 -3839.898 -0.021 0.345 1.134 -0.02 0.52 -0.85 0.05
1 2.73 273 0.215 -9.242 3.500 -7.904 -24.109 -3.906 -284.964 -1559.884 -3839.898 -0.337 0.551 1.027 -0.02 0.52 -0.85 0.05
1 2.74 274 0.311 -9.141 3.366 -6.775 -22.308 -2.441 -224.854 -1424.972 -3794.928 -0.409 0.442 1.145 -0.02 0.52 -0.85 0.05
1 2.75 275 0.306 -9.127 3.424 -5.371 -20.233 -3.021 -509.968 -1634.985 -3884.869 -0.383 0.420 1.072 -0.03 0.52 -0.85 0.05
1 2.76 276 0.182 -9.050 3.457 -8.209 -18.738 -4.547 -419.876 -1469.942 -3929.990 -0.215 0.328 1.011 -0.03 0.52 -0.85 0.05
1 2.77 277 0.192 -9.060 3.295 -9.796 -18.768 -4.242 -374.906 -1544.894 -4004.941 -0.203 0.329 1.157 -0.03 0.52 -0.85 0.05
1 2.78 278 -0.134 -9.343 3.156 -11.627 -16.174 -3.204 -374.906 -1544.894 -4004.941 0.141 0.601 1.274 -0.03 0.52 -0.85 0.05
1 2.79 279 -0.306 -9.271 3.223 -11.414 -16.876 -2.716 -464.997 -1439.962 -3839.898 0.329 0.518 1.185 -0.03 0.52 -0.85 0.05
1 2.80 280 -0.426 -9.433 3.352 -11.353 -17.700 -2.563 -464.997 -1439.962 -3839.898 0.462 0.669 1.033 -0.03 0.52 -0.85 0.05
1 2.81 281 -0.201 -9.716 3.122 -8.270 -18.951 -1.038 -434.867 -1514.913 -3915.000 0.249 0.941 1.241 -0.03 0.53 -0.85 0.05
1 2.82 282 -0.038 -10.070 3.285 -7.690 -19.165 0.092 -524.958 -1499.923 -3824.908 0.098 1.286 1.059 -0.04 0.53 -0.85 0.05
1 2.83 283 -0.086 -10.334 3.022 -5.707 -17.517 1.862 -524.958 -1499.923 -3824.908 0.158 1.540 1.304 -0.04 0.53 -0.85 0.05
1 2.84 284 -0.244 -10.549 3.065 6.287 -15.564 3.632 -494.978 -1469.942 -3899.859 0.333 1.745 1.239 -0.04 0.53 -0.85 0.05
1 2.85 285 -0.383 -10.305 3.424 9.613 -14.191 3.448 -494.978 -1469.942 -3899.859 0.478 1.507 0.891 -0.04 0.53 -0.85 0.05
1 2.86 286 -0.441 -10.291 3.328 8.911 -13.153 3.235 -509.968 -1559.884 -3884.869 0.542 1.500 1.002 -0.04 0.53 -0.85 0.05
1 2.87 287 -0.546 -10.243 3.151 10.010 -12.390 1.740 -509.968 -1559.884 -3884.869 0.652 1.459 1.193 -0.04 0.53 -0.85 0.06
1 2.88 288 -0.632 -10.463 3.295 12.939 -11.047 2.502 -629.890 -1469.942 -3899.859 0.742 1.684 1.059 -0.04 0.53 -0.85 0.06
1 2.89 289 -0.608 -10.430 3.323 13.763 -11.780 2.960 -434.867 -1439.962 -3809.918 0.723 1.660 1.049 -0.04 0.52 -0.85 0.06
1 2.90 290 -0.790 -10.372 3.481 15.533 -11.414 5.463 -434.867 -1439.962 -3809.918 0.910 1.612 0.911 -0.04 0.52 -0.85 0.06
1 2.91 291 -0.838 -10.669 4.224 14.435 -10.895 9.857 -674.860 -1424.972 -3794.928 0.959 1.932 0.213 -0.04 0.52 -0.85 0.06
1 2.92 292 -0.484 -10.808 4.975 14.587 -6.744 17.090 -674.860 -1424.972 -3794.928 0.597 2.081 -0.517 -0.04 0.52 -0.85 0.06
1 2.93 293 0.101 -10.961 5.248 13.916 1.831 26.306 -464.997 -1634.985 -3764.947 -0.009 2.245 -0.769 -0.04 0.52 -0.85 0.06
1 2.94 294 0.469 -10.679 5.119 18.799 10.162 34.912 -464.997 -1634.985 -3764.947 -0.418 1.974 -0.618 -0.04 0.52 -0.85 0.06
1 2.95 295 0.570 -10.137 4.899 23.712 15.991 39.368 -539.948 -1484.933 -3944.980 -0.575 1.447 -0.369 -0.04 0.52 -0.85 0.06
1 2.96 296 0.455 -9.644 4.578 19.257 21.027 39.887 -614.899 -1559.884 -3915.000 -0.525 0.972 -0.015 -0.04 0.52 -0.85 0.07
1 2.97 297 -0.101 -9.730 4.319 14.648 18.707 35.706 -614.899 -1559.884 -3915.000 -0.036 1.074 0.273 -0.03 0.51 -0.85 0.07
1 2.98 298 -0.881 -9.592 4.180 12.085 16.571 29.266 -449.857 -1574.874 -4004.941 0.687 0.946 0.430 -0.03 0.51 -0.85 0.07
1 2.99 299 -1.307 -9.802 4.176 9.460 9.644 16.205 -584.919 -1634.985 -3915.000 1.015 1.171 0.456 -0.03 0.51 -0.86 0.07
1 3.00 300 -1.235 -9.970 4.425 14.557 4.181 11.261 -539.948 -1559.884 -3915.000 0.911 1.345 0.217 -0.02 0.51 -0.86 0.07
1 3.01 301 -1.245 -9.941 4.631 19.440 4.334 6.226 -539.948 -1559.884 -3915.000 0.905 1.329 0.034 -0.02 0.51 -0.86 0.07
1 3.02 302 -1.403 -9.888 4.884 16.388 -0.031 -0.275 -569.929 -1619.995 -3899.859 1.055 1.291 -0.193 -0.02 0.51 -0.86 0.07
1 3.03 303 -1.053 -10.377 5.622 11.169 -9.583 -4.883 -494.978 -1724.926 -3824.908 0.710 1.791 -0.910 -0.02 0.51 -0.86 0.07
1 3.04 304 -0.895 -10.248 5.986 21.332 -7.111 -6.836 -494.978 -1724.926 -3824.908 0.565 1.670 -1.257 -0.02 0.51 -0.86 0.07
1 3.05 305 -1.053 -9.462 6.072 29.724 -8.331 -10.132 -434.867 -1634.985 -3764.947 0.738 0.899 -1.317 -0.02 0.51 -0.86 0.07
1 3.06 306 -0.259 -8.337 6.900 28.198 -19.531 -19.867 -449.857 -1649.975 -3854.889 -0.008 -0.182 -2.063 -0.03 0.5 -0.86 0.07
1 3.07 307 0.378 -7.968 6.800 23.926 -22.339 -23.987 -389.896 -1709.936 -3809.918 -0.601 -0.530 -1.925 -0.03 0.5 -0.86 0.07
1 3.08 308 0.723 -7.259 6.158 20.447 -23.071 -26.154 -389.896 -1709.936 -3809.918 -0.892 -1.214 -1.238 -0.03 0.5 -0.86 0.07
1 3.09 309 0.972 -6.670 5.641 17.090 -24.078 -27.008 -584.919 -1829.858 -3884.869 -1.083 -1.781 -0.682 -0.03 0.5 -0.87 0.07
1 3.10 310 1.432 -6.584 5.220 15.259 -23.712 -29.236 -569.929 -1649.975 -3899.859 -1.484 -1.851 -0.232 -0.03 0.49 -0.87 0.07
1 3.11 311 2.097 -6.455 5.138 12.024 -19.165 -26.367 -569.929 -1649.975 -3899.859 -2.093 -1.968 -0.129 -0.04 0.49 -0.87 0.07
1 3.12 312 2.193 -6.460 5.176 6.836 -11.810 -22.308 -539.948 -1754.907 -3944.980 -2.138 -1.952 -0.149 -0.04 0.49 -0.87 0.06
1 3.13 313 1.997 -7.010 5.488 -4.517 -1.617 -20.599 -464.997 -1679.956 -3915.000 -1.867 -1.391 -0.444 -0.04 0.49 -0.87 0.06
1 3.14 314 1.882 -7.705 5.674 -13.367 2.319 -21.362 -734.971 -1784.887 -3915.000 -1.710 -0.696 -0.631 -0.04 0.49 -0.87 0.06
1 3.15 315 1.432 -8.203 5.794 -19.013 3.693 -22.980 -734.971 -1784.887 -3915.000 -1.221 -0.204 -0.762 -0.05 0.49 -0.87 0.06
1 3.16 316 1.068 -8.342 5.411 -22.247 0.977 -26.520 -539.948 -1859.988 -3915.000 -0.819 -0.075 -0.398 -0.05 0.49 -0.87 0.06
1 3.17 317 1.087 -8.193 5.167 -19.196 -4.517 -29.846 -599.909 -1799.877 -4004.941 -0.794 -0.237 -0.178 -0.05 0.49 -0.87 0.05
1 3.18 318 1.178 -7.983 5.004 -12.604 -8.759 -33.936 -599.909 -1799.877 -4004.941 -0.835 -0.457 -0.035 -0.05 0.49 -0.87 0.05
1 3.19 319 1.092 -7.959 5.038 -12.207 -10.040 -32.562 -674.860 -1619.995 -3974.960 -0.693 -0.487 -0.082 -0.05 0.49 -0.87 0.05
1 3.20 320 1.121 -7.585 4.889 -9.460 -5.188 -26.978 -629.890 -1799.877 -3974.960 -0.615 -0.869 0.042 -0.06 0.5 -0.87 0.05
1 3.21 321 0.986 -7.418 4.798 -8.240 -2.869 -24.475 -599.909 -1724.926 -3854.889 -0.439 -1.038 0.125 -0.06 0.5 -0.87 0.04
1 3.22 322 0.627 -7.202 4.698 -6.409 0.275 -17.365 -599.909 -1724.926 -3854.889 -0.048 -1.255 0.220 -0.06 0.5 -0.87 0.04
1 3.23 323 0.742 -7.317 4.669 -4.883 0.580 -13.245 -854.893 -1724.926 -3929.990 -0.142 -1.142 0.243 -0.06 0.5 -0.87 0.04
1 3.24 324 0.895 -7.394 4.650 -0.336 0.427 -8.698 -779.942 -1769.897 -3854.889 -0.278 -1.066 0.259 -0.06 0.5 -0.87 0.04
1 3.25 325 1.049 -7.283 4.540 0.885 0.305 -5.188 -779.942 -1769.897 -3854.889 -0.419 -1.175 0.370 -0.06 0.5 -0.87 0.04
1 3.26 326 0.939 -7.255 4.592 -2.075 0.580 -2.899 -690.000 -1754.907 -3809.918 -0.300 -1.201 0.320 -0.06 0.5 -0.87 0.04
1 3.27 327 1.053 -7.130 4.554 -4.700 -0.549 -2.441 -659.870 -1709.936 -4019.931 -0.410 -1.325 0.359 -0.06 0.5 -0.87 0.04
1 3.28 328 1.073 -7.633 4.214 -6.714 -2.289 -2.777 -690.000 -1679.956 -3884.869 -0.420 -0.827 0.690 -0.06 0.5 -0.87 0.04
1 3.29 329 0.862 -8.136 4.166 -6.775 -1.526 -3.082 -690.000 -1679.956 -3884.869 -0.203 -0.327 0.731 -0.06 0.5 -0.87 0.04
1 3.30 330 0.862 -8.342 4.027 -4.242 -0.122 -1.373 -899.864 -1724.926 -3929.990 -0.196 -0.126 0.861 -0.06 0.5 -0.86 0.04
1 3.31 331 0.939 -8.342 3.821 -1.190 -0.061 -0.702 -749.961 -1724.926 -3899.859 -0.268 -0.130 1.060 -0.06 0.5 -0.86 0.04
1 3.32 332 1.077 -8.227 3.232 1.251 3.754 3.662 -749.961 -1724.926 -3899.859 -0.404 -0.247 1.644 -0.06 0.5 -0.86 0.04
1 3.33 333 1.168 -8.006 3.247 3.845 10.345 6.805 -734.971 -1754.907 -3915.000 -0.497 -0.470 1.625 -0.06 0.5 -0.86 0.04
1 3.34 334 0.781 -7.652 3.132 2.655 14.587 10.162 -914.854 -1679.956 -3809.918 -0.118 -0.826 1.739 -0.06 0.5 -0.86 0.04
1 3.35 335 0.646 -7.705 2.868 -2.625 14.801 10.895 -704.991 -1724.926 -3854.889 -0.030 -0.770 2.014 -0.06 0.5 -0.86 0.04
1 3.36 336 1.058 -7.748 2.945 -3.937 13.001 10.284 -704.991 -1724.926 -3854.889 -0.466 -0.729 1.936 -0.06 0.5 -0.86 0.04
1 3.37 337 1.312 -7.494 2.591 -7.874 14.557 11.566 -704.991 -1694.946 -3929.990 -0.742 -0.986 2.288 -0.06 0.5 -0.86 0.04
1 3.38 338 1.446 -7.844 2.227 -17.731 16.144 12.634 -794.932 -1589.864 -3809.918 -0.902 -0.644 2.641 -0.06 0.5 -0.86 0.04
1 3.39 339 1.307 -8.313 2.040 -21.118 20.447 14.923 -794.932 -1589.864 -3809.918 -0.792 -0.189 2.807 -0.05 0.5 -0.86 0.04
1 3.40 340 0.646 -8.682 1.839 -21.332 26.672 15.076 -690.000 -1679.956 -3915.000 -0.167 0.164 2.984 -0.05 0.5 -0.86 0.04
1 3.41 341 0.819 -8.509 1.887 -25.086 27.649 14.130 -779.942 -1619.995 -3824.908 -0.377 -0.024 2.912 -0.05 0.5 -0.86 0.04
1 3.42 342 0.809 -8.610 1.662 -31.006 30.579 12.024 -779.942 -1619.995 -3824.908 -0.405 0.054 3.100 -0.05 0.5 -0.86 0.04
1 3.43 343 0.891 -8.773 1.633 -35.401 30.243 10.498 -749.961 -1619.995 -3794.928 -0.559 0.167 3.044 -0.04 0.51 -0.86 0.04
1 3.44 344 0.953 -8.998 1.777 -37.933 29.114 8.789 -614.899 -1559.884 -3839.898 -0.653 0.362 2.847 -0.04 0.51 -0.86 0.04
1 3.45 345 0.924 -9.098 2.150 -40.985 31.067 8.179 -569.929 -1649.975 -3794.928 -0.651 0.427 2.407 -0.04 0.52 -0.85 0.04
1 3.46 346 0.326 -9.343 4.736 -39.978 31.098 4.272 -569.929 -1649.975 -3794.928 -0.078 0.635 -0.246 -0.04 0.52 -0.85 0.04
1 3.47 347 -1.173 -12.632 8.916 -63.050 -1.221 -18.189 -419.876 -1544.894 -3929.990 1.403 3.895 -4.484 -0.04 0.52 -0.85 0.04
1 3.48 348 -1.480 -13.743 8.725 -61.005 -14.282 -24.994 -494.978 -1544.894 -3674.856 1.726 4.968 -4.369 -0.04 0.53 -0.85 0.04
1 3.49 349 -0.388 -12.762 7.073 -31.738 -12.360 -22.461 -494.978 -1544.894 -3674.856 0.675 3.946 -2.801 -0.04 0.53 -0.85 0.04
1 3.50 350 1.791 -9.366 6.503 -10.864 9.888 -7.233 -509.968 -1514.913 -3764.947 -1.437 0.520 -2.301 -0.04 0.53 -0.84 0.03
1 3.51 351 2.859 -8.998 6.522 -26.367 19.623 -3.937 -690.000 -1409.981 -3764.947 -2.506 0.144 -2.336 -0.04 0.53 -0.84 0.03
1 3.52 352 3.591 -10.645 7.039 -43.305 19.592 -2.930 -509.968 -1409.981 -3629.885 -3.246 1.772 -2.892 -0.04 0.54 -0.84 0.03
1 3.53 353 3.563 -12.053 6.800 -35.492 25.177 -0.641 -509.968 -1409.981 -3629.885 -3.226 3.154 -2.709 -0.04 0.54 -0.84 0.03
1 3.54 354 1.949 -10.904 6.120 -3.906 34.607 0.885 -674.860 -1304.900 -3674.856 -1.628 1.988 -2.064 -0.04 0.54 -0.84 0.03
1 3.55 355 0.249 -9.405 6.048 3.204 32.135 -7.294 -614.899 -1364.861 -3629.885 0.052 0.491 -1.986 -0.04 0.54 -0.84 0.03
1 3.56 356 -0.608 -9.759 6.177 -9.949 23.285 -12.909 -614.899 -1364.861 -3629.885 0.897 0.851 -2.103 -0.03 0.54 -0.84 0.03
1 3.57 357 -1.312 -9.692 5.445 4.425 13.306 -22.522 -539.948 -1334.880 -3509.963 1.617 0.779 -1.383 -0.03 0.54 -0.84 0.02
1 3.58 358 -1.106 -9.026 5.220 11.902 9.522 -21.881 -434.867 -1484.933 -3554.934 1.435 0.120 -1.145 -0.03 0.54 -0.84 0.02
1 3.59 359 -0.905 -8.777 5.473 4.700 8.484 -17.517 -524.958 -1304.900 -3494.973 1.253 -0.119 -1.378 -0.03 0.54 -0.84 0.02
1 3.60 360 -0.599 -9.022 5.813 -8.179 8.240 -10.529 -524.958 -1304.900 -3494.973 0.953 0.131 -1.705 -0.03 0.54 -0.84 0.02
1 3.61 361 -0.354 -9.438 5.627 -9.613 8.362 -3.082 -494.978 -1349.871 -3494.973 0.708 0.548 -1.518 -0.03 0.54 -0.84 0.02
1 3.62 362 -0.014 -9.165 5.239 -0.946 11.078 7.324 -509.968 -1289.910 -3584.915 0.365 0.271 -1.138 -0.03 0.54 -0.84 0.02
1 3.63 363 -0.125 -8.945 5.081 -1.251 12.543 10.895 -509.968 -1289.910 -3584.915 0.459 0.052 -0.977 -0.03 0.54 -0.84 0.02
1 3.64 364 -0.704 -8.495 4.784 3.418 18.036 16.113 -569.929 -1424.972 -3569.924 0.984 -0.392 -0.662 -0.03 0.54 -0.84 0.02
1 3.65 365 -0.996 -8.452 4.736 6.836 18.250 16.602 -419.876 -1304.900 -3569.924 1.237 -0.429 -0.599 -0.03 0.54 -0.84 0.02
1 3.66 366 -1.207 -8.126 4.549 12.329 15.900 19.104 -584.919 -1439.962 -3479.983 1.404 -0.746 -0.391 -0.03 0.54 -0.84 0.02
1 3.67 367 -1.130 -7.868 4.353 14.526 15.625 19.562 -584.919 -1439.962 -3479.983 1.282 -0.994 -0.171 -0.02 0.53 -0.84 0.02
1 3.68 368 -1.125 -7.633 4.271 15.076 16.632 18.982 -524.958 -1424.972 -3569.924 1.232 -1.216 -0.062 -0.02 0.53 -0.85 0.02
1 3.69 369 -0.900 -7.370 4.156 11.749 13.397 18.250 -509.968 -1484.933 -3659.866 0.968 -1.469 0.076 -0.02 0.53 -0.85 0.03
1 3.70 370 -0.876 -7.274 4.219 10.620 10.559 17.914 -509.968 -1484.933 -3659.866 0.910 -1.556 0.033 -0.02 0.53 -0.85 0.03
1 3.71 371 -0.790 -7.336 4.104 8.911 9.277 17.792 -449.857 -1424.972 -3644.875 0.793 -1.485 0.165 -0.02 0.53 -0.85 0.03
1 3.72 372 -0.895 -7.494 4.133 6.592 7.599 17.029 -329.935 -1484.933 -3584.915 0.840 -1.314 0.163 -0.01 0.53 -0.85 0.03
1 3.73 373 -0.857 -7.676 4.018 6.195 6.165 14.069 -494.978 -1424.972 -3569.924 0.776 -1.126 0.289 -0.01 0.53 -0.85 0.03
1 3.74 374 -0.919 -7.532 3.979 4.639 3.693 11.810 -494.978 -1424.972 -3569.924 0.817 -1.265 0.337 -0.01 0.53 -0.85 0.03
1 3.75 375 -0.690 -7.418 3.821 2.045 1.251 8.301 -419.876 -1499.923 -3644.875 0.571 -1.376 0.503 -0.01 0.53 -0.85 0.03
1 3.76 376 -0.584 -7.571 3.596 -3.357 -2.655 3.967 -359.916 -1409.981 -3629.885 0.456 -1.221 0.731 -0.01 0.53 -0.85 0.03
1 3.77 377 -0.651 -7.561 3.242 -5.798 -6.805 0.732 -359.916 -1409.981 -3629.885 0.518 -1.231 1.084 -0.01 0.53 -0.85 0.03
1 3.78 378 -0.752 -7.456 3.151 -7.050 -10.864 -1.801 -434.867 -1559.884 -3554.934 0.621 -1.339 1.170 -0.01 0.53 -0.85 0.03
1 3.79 379 -0.876 -7.403 2.964 -14.069 -16.602 -6.531 -374.906 -1379.851 -3539.944 0.770 -1.401 1.339 -0.01 0.53 -0.85 0.03
1 3.80 380 -0.852 -7.465 3.036 -20.081 -20.538 -9.613 -344.925 -1574.874 -3599.905 0.768 -1.348 1.248 -0.02 0.53 -0.85 0.03
1 3.81 381 -0.924 -7.801 2.988 -24.872 -22.705 -12.360 -344.925 -1574.874 -3599.905 0.869 -1.027 1.269 -0.02 0.53 -0.85 0.03
1 3.82 382 -0.666 -7.925 2.998 -26.764 -23.254 -13.062 -374.906 -1424.972 -3569.924 0.643 -0.918 1.226 -0.02 0.53 -0.85 0.03
1 3.83 383 -0.709 -8.016 2.849 -28.198 -22.858 -12.970 -299.955 -1379.851 -3539.944 0.720 -0.844 1.340 -0.02 0.53 -0.84 0.03
1 3.84 384 -0.637 -8.572 2.777 -31.311 -24.902 -12.512 -299.955 -1379.851 -3539.944 0.681 -0.305 1.374 -0.02 0.54 -0.84 0.03
1 3.85 385 -0.503 -8.969 2.701 -33.630 -27.435 -11.688 -449.857 -1304.900 -3539.944 0.581 0.074 1.411 -0.03 0.54 -0.84 0.03
1 3.86 386 -0.297 -9.343 2.696 -32.654 -28.992 -10.376 -449.857 -1304.900 -3539.944 0.404 0.424 1.365 -0.03 0.54 -0.84 0.03
1 3.87 387 -0.115 -9.793 2.811 -28.809 -30.914 -8.820 -389.896 -1364.861 -3509.963 0.281 0.829 1.146 -0.03 0.54 -0.84 0.04
1 3.88 388 0.230 -10.238 2.686 -24.597 -31.464 -6.195 -389.896 -1364.861 -3509.963 -0.035 1.254 1.224 -0.04 0.55 -0.84 0.04
1 3.89 389 0.541 -10.391 2.787 -18.036 -28.687 -2.625 -524.958 -1424.972 -3389.892 -0.320 1.390 1.082 -0.04 0.55 -0.83 0.04
1 3.90 390 0.718 -10.602 3.050 -10.956 -24.201 0.641 -509.968 -1409.981 -3479.983 -0.476 1.588 0.787 -0.04 0.55 -0.83 0.04
1 3.91 391 0.359 -10.607 3.275 -4.150 -17.975 2.167 -509.968 -1409.981 -3479.983 -0.104 1.588 0.550 -0.04 0.55 -0.83 0.04
1 3.92 392 0.153 -10.588 3.280 -1.862 -16.693 2.960 -704.991 -1379.851 -3539.944 0.110 1.566 0.539 -0.04 0.55 -0.83 0.04
1 3.93 393 -0.259 -10.487 3.055 -1.526 -16.419 3.723 -704.991 -1379.851 -3539.944 0.529 1.465 0.763 -0.04 0.55 -0.83 0.04
1 3.94 394 -0.761 -10.449 2.686 2.106 -14.710 6.409 -569.929 -1274.919 -3494.973 1.038 1.425 1.127 -0.05 0.55 -0.83 0.04
1 3.95 395 -1.159 -10.382 2.576 1.373 -15.747 7.538 -569.929 -1274.919 -3494.973 1.435 1.360 1.242 -0.05 0.55 -0.83 0.05
1 3.96 396 -1.398 -10.726 2.385 -0.977 -17.700 10.712 -734.971 -1334.880 -3554.934 1.668 1.703 1.430 -0.05 0.55 -0.83 0.05
1 3.97 397 -1.647 -11.066 1.992 2.228 -18.158 16.296 -704.991 -1199.968 -3569.924 1.912 2.044 1.823 -0.05 0.55 -0.83 0.05
1 3.98 398 -1.963 -11.124 2.145 8.911 -17.304 21.301 -704.991 -1199.968 -3569.924 2.215 2.104 1.677 -0.05 0.55 -0.83 0.05
1 3.99 399 -2.251 -10.679 2.112 22.034 -17.944 23.621 -629.890 -1274.919 -3569.924 2.482 1.665 1.727 -0.05 0.55 -0.83 0.05
1 4.00 400 -1.681 -10.971 4.654 29.144 -16.937 19.806 -629.890 -1274.919 -3569.924 1.890 1.968 -0.788 -0.05 0.55 -0.83 0.06
1 4.01 401 0.498 -13.628 8.222 3.937 3.754 26.245 -629.890 -1304.900 -3494.973 -0.327 4.656 -4.283 -0.05 0.54 -0.84 0.06
1 4.02 402 2.433 -13.020 5.962 11.536 13.916 35.339 -629.890 -1304.900 -3494.973 -2.305 4.050 -2.017 -0.05 0.54 -0.84 0.06
1 4.03 403 4.037 -11.631 5.488 35.126 14.465 32.318 -854.893 -1349.871 -3389.892 -3.966 2.673 -1.515 -0.05 0.54 -0.84 0.06
1 4.04 404 4.463 -10.702 6.714 30.975 18.799 27.283 -779.942 -1349.871 -3464.993 -4.443 1.767 -2.689 -0.04 0.54 -0.84 0.06
1 4.05 405 2.959 -10.535 6.881 12.543 25.238 22.034 -779.942 -1349.871 -3464.993 -2.987 1.617 -2.819 -0.04 0.54 -0.84 0.07
1 4.06 406 -0.565 -11.157 6.551 6.531 24.078 6.989 -614.899 -1289.910 -3404.882 0.496 2.246 -2.473 -0.04 0.54 -0.84 0.07
1 4.07 407 -1.508 -10.913 6.211 11.810 14.832 -6.348 -614.899 -1289.910 -3404.882 1.411 2.007 -2.124 -0.04 0.54 -0.84 0.07
1 4.08 408 -0.613 -9.510 5.895 19.928 0.092 -19.135 -539.948 -1364.861 -3299.950 0.526 0.622 -1.767 -0.04 0.54 -0.84 0.06
1 4.09 409 -0.091 -9.371 5.919 21.668 -1.587 -22.003 -539.948 -1364.861 -3299.950 0.033 0.498 -1.760 -0.04 0.54 -0.84 0.06
1 4.10 410 0.637 -8.744 5.919 20.783 -4.639 -19.806 -614.899 -1364.861 -3479.983 -0.660 -0.115 -1.728 -0.04 0.53 -0.84 0.06
1 4.11 411 0.603 -8.241 5.809 19.074 -7.202 -15.167 -584.919 -1514.913 -3479.983 -0.592 -0.598 -1.578 -0.04 0.53 -0.84 0.06
1 4.12 412 0.737 -8.054 5.837 18.799 -10.712 -10.223 -584.919 -1514.913 -3479.983 -0.696 -0.767 -1.568 -0.04 0.53 -0.85 0.06
1 4.13 413 0.570 -7.743 5.670 19.989 -0.458 2.777 -734.971 -1409.981 -3479.983 -0.506 -1.059 -1.361 -0.04 0.53 -0.85 0.06
1 4.14 414 0.527 -7.370 5.564 17.456 9.888 8.179 -734.971 -1409.981 -3479.983 -0.455 -1.412 -1.215 -0.04 0.53 -0.85 0.06
1 4.15 415 0.589 -7.159 5.488 11.353 15.869 7.324 -614.899 -1559.884 -3584.915 -0.529 -1.604 -1.101 -0.04 0.52 -0.85 0.06
1 4.16 416 0.737 -7.772 5.512 -2.930 22.888 -1.556 -599.909 -1469.942 -3644.875 -0.707 -0.966 -1.075 -0.04 0.52 -0.85 0.06
1 4.17 417 0.781 -8.265 5.038 -7.294 22.400 -10.742 -599.909 -1574.874 -3494.973 -0.755 -0.470 -0.595 -0.04 0.52 -0.85 0.06
1 4.18 418 0.795 -8.524 4.817 -4.517 15.961 -23.041 -629.890 -1619.995 -3539.944 -0.760 -0.212 -0.376 -0.04 0.52 -0.85 0.06
1 4.19 419 1.073 -8.715 4.817 2.350 5.951 -35.126 -629.890 -1619.995 -3539.944 -1.005 -0.019 -0.374 -0.04 0.52 -0.85 0.05
1 4.20 420 1.609 -8.763 4.880 8.392 -2.777 -43.030 -584.919 -1559.884 -3374.901 -1.486 0.034 -0.427 -0.04 0.52 -0.85 0.05
1 4.21 421 1.336 -8.447 4.856 9.399 -3.693 -41.474 -584.919 -1559.884 -3374.901 -1.145 -0.274 -0.389 -0.04 0.52 -0.85 0.05
1 4.22 422 1.001 -8.260 4.789 9.186 -2.777 -35.278 -690.000 -1559.884 -3509.963 -0.740 -0.450 -0.305 -0.04 0.52 -0.85 0.05
1 4.23 423 0.886 -7.781 4.626 8.148 -2.075 -25.513 -690.000 -1589.864 -3449.853 -0.518 -0.907 -0.108 -0.05 0.52 -0.85 0.04
1 4.24 424 0.718 -7.595 4.559 8.911 -0.702 -19.196 -599.909 -1469.942 -3539.944 -0.312 -1.084 -0.024 -0.05 0.52 -0.85 0.04
1 4.25 425 0.651 -7.350 4.410 9.949 -0.305 -15.167 -764.952 -1589.864 -3554.934 -0.217 -1.317 0.142 -0.05 0.52 -0.85 0.04
1 4.26 426 0.551 -7.015 4.353 9.827 0.122 -13.672 -764.952 -1589.864 -3554.934 -0.096 -1.644 0.214 -0.05 0.51 -0.86 0.04
1 4.27 427 0.469 -6.805 4.243 11.139 -0.946 -12.756 -704.991 -1469.942 -3569.924 0.004 -1.845 0.340 -0.05 0.51 -0.86 0.04
1 4.28 428 0.493 -6.642 4.391 11.139 -0.702 -10.559 -704.991 -1469.942 -3569.924 -0.002 -1.998 0.208 -0.05 0.51 -0.86 0.04
1 4.29 429 0.441 -6.814 4.219 9.430 -1.251 -9.155 -704.991 -1694.946 -3539.944 0.067 -1.816 0.398 -0.05 0.51 -0.86 0.04
1 4.30 430 0.527 -6.886 4.080 8.179 -2.350 -7.172 -659.870 -1514.913 -3554.934 -0.005 -1.735 0.551 -0.05 0.51 -0.86 0.04
1 4.31 431 0.809 -7.039 4.271 6.714 -5.188 -4.272 -764.952 -1679.956 -3704.986 -0.264 -1.567 0.385 -0.05 0.51 -0.86 0.04
1 4.32 432 0.943 -7.236 4.123 5.066 -5.585 -0.610 -659.870 -1754.907 -3554.934 -0.389 -1.365 0.543 -0.05 0.51 -0.86 0.04
1 4.33 433 1.135 -7.149 3.965 5.829 -5.432 1.709 -659.870 -1754.907 -3554.934 -0.576 -1.446 0.709 -0.06 0.51 -0.86 0.04
1 4.34 434 1.312 -7.092 3.764 7.019 -2.930 3.754 -764.952 -1634.985 -3659.866 -0.751 -1.498 0.920 -0.06 0.51 -0.86 0.04
1 4.35 435 1.461 -6.972 3.304 7.660 6.897 7.111 -764.952 -1634.985 -3659.866 -0.903 -1.612 1.390 -0.06 0.51 -0.86 0.04
1 4.36 436 1.633 -7.116 2.983 8.698 12.268 9.735 -704.991 -1694.946 -3464.993 -1.088 -1.463 1.723 -0.06 0.51 -0.86 0.04
1 4.37 437 1.743 -7.360 2.710 11.078 15.289 10.620 -794.932 -1634.985 -3449.853 -1.217 -1.212 2.010 -0.05 0.51 -0.86 0.04
1 4.38 438 1.906 -7.470 2.586 7.324 15.381 9.277 -629.890 -1649.975 -3539.944 -1.428 -1.086 2.169 -0.05 0.5 -0.86 0.04
1 4.39 439 1.508 -7.901 2.452 0.977 16.815 5.676 -674.860 -1649.975 -3599.905 -1.052 -0.650 2.313 -0.05 0.5 -0.86 0.04
1 4.40 440 1.197 -8.457 2.251 -5.585 12.970 1.923 -674.860 -1649.975 -3599.905 -0.759 -0.095 2.516 -0.05 0.5 -0.86 0.04
1 4.41 441 1.331 -8.730 2.624 -4.181 6.897 1.434 -734.971 -1634.985 -3509.963 -0.899 0.172 2.132 -0.05 0.5 -0.86 0.04
1 4.42 442 0.412 -8.811 2.729 -11.810 11.505 2.106 -734.971 -1634.985 -3509.963 0.022 0.244 2.010 -0.05 0.51 -0.86 0.04
1 4.43 443 -0.067 -8.993 2.543 -16.785 12.482 4.883 -734.971 -1634.985 -3509.963 0.496 0.414 2.175 -0.05 0.51 -0.86 0.04
1 4.44 444 -0.134 -9.074 2.423 -18.738 9.979 5.371 -614.899 -1634.985 -3584.915 0.548 0.478 2.264 -0.05 0.51 -0.86 0.04
1 4.45 445 -0.110 -9.271 2.615 -19.074 7.965 6.500 -749.961 -1694.946 -3569.924 0.490 0.633 2.000 -0.05 0.51 -0.86 0.04
1 4.46 446 -0.048 -9.127 2.337 -18.127 5.219 6.531 -614.899 -1709.936 -3479.983 0.411 0.469 2.241 -0.05 0.51 -0.86 0.04
1 4.47 447 0.603 -8.969 2.303 -19.165 2.167 5.981 -614.899 -1709.936 -3479.983 -0.253 0.292 2.238 -0.05 0.52 -0.85 0.04
1 4.48 448 1.355 -8.830 2.346 -23.285 4.913 6.500 -614.899 -1514.913 -3659.866 -1.013 0.132 2.156 -0.05 0.52 -0.85 0.04
1 4.49 449 1.446 -8.883 2.811 -28.717 9.308 8.484 -614.899 -1514.913 -3659.866 -1.110 0.162 1.647 -0.05 0.52 -0.85 0.04
1 4.50 450 0.254 -9.903 6.058 -40.924 9.674 1.831 -569.929 -1574.874 -3419.872 0.074 1.157 -1.648 -0.04 0.52 -0.85 0.04
1 4.51 451 -0.872 -12.134 7.571 -55.512 -4.761 -7.385 -674.860 -1649.975 -3389.892 1.194 3.363 -3.212 -0.04 0.53 -0.85 0.04
1 4.52 452 -1.030 -12.790 7.427 -28.992 -12.390 -13.519 -764.952 -1439.962 -3449.853 1.386 3.957 -3.198 -0.05 0.53 -0.85 0.04
1 4.53 453 -0.450 -12.211 6.958 -19.165 -10.071 -8.759 -569.929 -1619.995 -3539.944 0.830 3.363 -2.760 -0.05 0.53 -0.84 0.04
1 4.54 454 2.222 -10.607 6.402 -10.956 11.231 8.484 -569.929 -1619.995 -3539.944 -1.842 1.754 -2.216 -0.05 0.53 -0.84 0.04
1 4.55 455 3.601 -10.951 5.818 -15.717 24.536 8.514 -674.860 -1499.923 -3464.993 -3.242 2.091 -1.646 -0.05 0.53 -0.84 0.04
1 4.56 456 4.745 -11.363 6.771 -15.503 19.440 7.385 -674.860 -1499.923 -3464.993 -4.412 2.493 -2.617 -0.05 0.53 -0.84 0.04
1 4.57 457 3.783 -11.052 7.183 2.014 26.276 3.540 -704.991 -1469.942 -3464.993 -3.470 2.174 -3.046 -0.04 0.54 -0.84 0.04
1 4.58 458 1.628 -9.649 6.623 19.196 33.936 0.519 -674.860 -1499.923 -3389.892 -1.335 0.769 -2.486 -0.04 0.54 -0.84 0.04
1 4.59 459 -0.177 -8.892 5.938 11.322 26.032 -10.498 -674.860 -1499.923 -3389.892 0.448 0.024 -1.776 -0.04 0.53 -0.84 0.04
1 4.60 460 -1.365 -9.893 6.053 -5.585 3.632 -20.477 -584.919 -1259.929 -3404.882 1.641 1.039 -1.861 -0.04 0.53 -0.84 0.04
1 4.61 461 -1.887 -9.927 6.014 10.284 2.075 -22.095 -584.919 -1259.929 -3404.882 2.191 1.073 -1.825 -0.04 0.53 -0.84 0.03
1 4.62 462 -2.801 -9.290 5.641 27.100 5.615 -20.630 -704.991 -1499.923 -3359.911 3.134 0.448 -1.428 -0.04 0.53 -0.84 0.03
1 4.63 463 -3.218 -8.548 5.449 23.224 2.197 -16.846 -704.991 -1499.923 -3359.911 3.575 -0.274 -1.196 -0.04 0.53 -0.85 0.03
1 4.64 464 -2.093 -8.725 5.622 -0.122 -13.367 -4.272 -690.000 -1439.962 -3404.882 2.446 -0.080 -1.333 -0.04 0.53 -0.85 0.03
1 4.65 465 -0.455 -9.194 5.569 -1.678 -11.414 5.829 -599.909 -1544.894 -3569.924 0.801 0.397 -1.265 -0.04 0.53 -0.85 0.03
1 4.66 466 0.445 -9.338 5.406 2.869 -2.045 16.174 -599.909 -1544.894 -3569.924 -0.110 0.543 -1.095 -0.04 0.53 -0.85 0.03
1 4.67 467 -0.206 -8.830 5.076 8.331 9.064 28.504 -614.899 -1409.981 -3404.882 0.489 0.045 -0.742 -0.04 0.53 -0.85 0.04
1 4.68 468 -0.747 -8.437 4.683 5.737 8.240 30.548 -614.899 -1409.981 -3404.882 0.983 -0.340 -0.331 -0.04 0.53 -0.85 0.04
1 4.69 469 -0.881 -8.212 4.664 4.486 6.836 33.966 -704.991 -1544.894 -3359.911 1.065 -0.560 -0.298 -0.04 0.53 -0.85 0.04
1 4.70 470 -0.776 -7.801 4.477 4.761 9.247 35.065 -704.991 -1544.894 -3359.911 0.903 -0.967 -0.100 -0.03 0.52 -0.85 0.04
1 4.71 471 -0.948 -7.810 4.415 5.554 11.810 36.102 -599.909 -1469.942 -3464.993 1.015 -0.952 -0.026 -0.03 0.52 -0.85 0.05
1 4.72 472 -0.967 -7.542 4.281 4.028 12.665 34.271 -584.919 -1589.864 -3374.901 0.971 -1.214 0.121 -0.03 0.52 -0.85 0.05
1 4.73 473 -0.857 -7.513 4.123 0.793 10.651 31.372 -584.919 -1589.864 -3374.901 0.803 -1.237 0.289 -0.03 0.52 -0.85 0.05
1 4.74 474 -0.776 -7.820 4.046 6.287 5.035 26.825 -539.948 -1514.913 -3374.901 0.627 -0.926 0.373 -0.02 0.52 -0.85 0.05
1 4.75 475 -0.699 -7.743 4.056 11.292 4.456 25.147 -539.948 -1514.913 -3374.901 0.511 -0.995 0.377 -0.02 0.52 -0.85 0.06
1 4.76 476 -0.967 -7.116 4.065 20.203 3.571 20.111 -524.958 -1499.923 -3314.940 0.746 -1.609 0.393 -0.02 0.52 -0.85 0.06
1 4.77 477 -1.010 -6.948 4.051 16.602 0.092 16.632 -524.958 -1499.923 -3314.940 0.762 -1.761 0.436 -0.02 0.52 -0.85 0.06
1 4.78 478 -1.001 -6.876 4.214 11.047 -3.296 13.001 -434.867 -1514.913 -3479.983 0.733 -1.820 0.295 -0.02 0.52 -0.85 0.06
1 4.79 479 -0.771 -7.010 3.970 6.470 -6.805 6.409 -509.968 -1679.956 -3329.931 0.490 -1.678 0.555 -0.02 0.52 -0.85 0.06
1 4.80 480 -0.532 -7.030 3.807 4.608 -10.040 2.594 -509.968 -1679.956 -3329.931 0.246 -1.653 0.729 -0.02 0.52 -0.85 0.06
1 4.81 481 -0.570 -6.881 3.692 0.946 -13.367 -0.549 -569.929 -1544.894 -3389.892 0.287 -1.797 0.853 -0.02 0.52 -0.85 0.06
1 4.82 482 -0.670 -6.910 3.227 -4.700 -21.393 -7.202 -539.948 -1589.864 -3479.983 0.416 -1.766 1.322 -0.02 0.52 -0.85 0.06
1 4.83 483 -0.972 -6.953 3.295 -8.453 -27.435 -10.620 -584.919 -1634.985 -3584.915 0.745 -1.726 1.250 -0.02 0.52 -0.85 0.06
1 4.84 484 -1.240 -6.857 3.318 -14.648 -31.983 -14.923 -584.919 -1634.985 -3584.915 1.050 -1.828 1.216 -0.03 0.52 -0.85 0.06
1 4.85 485 -1.456 -6.728 3.204 -22.400 -33.020 -18.127 -509.968 -1559.884 -3374.901 1.309 -1.969 1.312 -0.03 0.52 -0.85 0.06
1 4.86 486 -1.393 -7.006 2.988 -29.511 -34.180 -19.531 -614.899 -1484.933 -3329.931 1.296 -1.707 1.497 -0.03 0.52 -0.85 0.06
1 4.87 487 -1.350 -7.307 2.825 -33.814 -34.912 -19.775 -614.899 -1484.933 -3329.931 1.304 -1.426 1.621 -0.04 0.52 -0.85 0.06
1 4.88 488 -1.092 -7.738 2.677 -34.729 -34.607 -19.135 -524.958 -1694.946 -3419.872 1.097 -1.017 1.726 -0.04 0.52 -0.85 0.06
1 4.89 489 -0.565 -8.476 2.964 -37.109 -32.806 -16.846 -584.919 -1439.962 -3404.882 0.668 -0.324 1.347 -0.05 0.53 -0.85 0.06
1 4.90 490 -0.067 -9.204 3.041 -36.194 -31.738 -15.839 -599.909 -1544.894 -3464.993 0.212 0.379 1.218 -0.05 0.53 -0.84 0.06
1 4.91 491 0.436 -9.716 3.160 -31.983 -30.579 -13.336 -599.909 -1544.894 -3464.993 -0.251 0.866 1.044 -0.05 0.53 -0.84 0.06
1 4.92 492 0.905 -9.702 3.170 -28.076 -30.243 -10.895 -629.890 -1304.900 -3314.940 -0.682 0.829 0.985 -0.05 0.53 -0.84 0.06
1 4.93 493 1.240 -10.171 3.419 -26.001 -27.924 -9.338 -794.932 -1334.880 -3374.901 -0.980 1.279 0.692 -0.06 0.54 -0.84 0.06
1 4.94 494 0.958 -10.324 3.295 -21.423 -23.316 -5.371 -794.932 -1334.880 -3374.901 -0.665 1.415 0.778 -0.06 0.54 -0.84 0.06
1 4.95 495 0.977 -10.650 3.333 -17.609 -18.463 -3.662 -779.942 -1379.851 -3314.940 -0.660 1.728 0.709 -0.06 0.54 -0.84 0.07
1 4.96 496 0.704 -10.899 3.204 -11.169 -14.038 -2.167 -734.971 -1439.962 -3119.917 -0.354 1.958 0.795 -0.06 0.54 -0.84 0.07
1 4.97 497 0.599 -11.009 3.151 -10.651 -12.604 -1.434 -659.870 -1484.933 -3254.979 -0.237 2.063 0.834 -0.07 0.54 -0.84 0.07
1 4.98 498 0.072 -11.095 2.892 -8.362 -9.399 0.977 -659.870 -1484.933 -3254.979 0.297 2.145 1.082 -0.07 0.54 -0.84 0.07
1 4.99 499 -0.125 -11.287 2.768 -5.463 -8.850 1.465 -749.961 -1379.851 -3284.960 0.498 2.332 1.197 -0.07 0.54 -0.84 0.07
1 5.00 500 -0.445 -11.301 2.428 -2.747 -9.979 1.038 -779.942 -1424.972 -3284.960 0.824 2.345 1.532 -0.07 0.54 -0.84 0.07
1 5.01 501 -0.795 -11.445 2.370 -1.984 -12.024 1.678 -779.942 -1424.972 -3284.960 1.179 2.488 1.588 -0.07 0.54 -0.84 0.07
1 5.02 502 -1.015 -11.746 2.270 2.228 -12.604 3.754 -749.961 -1229.949 -3359.911 1.406 2.789 1.686 -0.07 0.54 -0.83 0.07
1 5.03 503 -1.465 -11.603 2.289 9.888 -14.862 5.493 -674.860 -1229.949 -3314.940 1.860 2.647 1.670 -0.07 0.54 -0.83 0.07
1 5.04 504 -1.523 -11.799 3.577 24.262 -15.472 9.552 -929.994 -1229.949 -3359.911 1.920 2.859 0.418 -0.07 0.54 -0.84 0.07
1 5.05 505 -1.068 -12.843 6.872 28.320 -3.510 12.787 -929.994 -1229.949 -3359.911 1.460 3.919 -2.840 -0.07 0.54 -0.84 0.07
1 5.06 506 0.254 -14.375 7.504 14.404 13.794 19.379 -794.932 -1364.861 -3194.869 0.119 5.468 -3.435 -0.07 0.54 -0.84 0.07
1 5.07 507 2.131 -13.552 5.832 23.102 17.700 22.766 -824.913 -1349.871 -3209.859 -1.796 4.653 -1.741 -0.07 0.54 -0.84 0.08
1 5.08 508 5.196 -11.631 6.704 41.077 22.430 18.616 -824.913 -1349.871 -3209.859 -4.900 2.751 -2.571 -0.07 0.53 -0.84 0.08
1 5.09 509 4.405 -10.463 6.766 19.592 33.783 19.928 -704.991 -1304.900 -3284.960 -4.147 1.609 -2.573 -0.06 0.53 -0.84 0.08
1 5.10 510 2.299 -10.712 5.603 8.209 28.717 15.564 -779.942 -1424.972 -3389.892 -2.087 1.875 -1.371 -0.06 0.53 -0.84 0.08
1 5.11 511 -0.824 -10.142 6.105 15.625 20.935 0.580 -704.991 -1349.871 -3389.892 0.966 1.320 -1.840 -0.06 0.53 -0.84 0.08
1 5.12 512 -1.777 -8.921 6.259 13.062 14.374 -9.979 -704.991 -1349.871 -3389.892 1.910 0.110 -1.970 -0.06 0.53 -0.84 0.08
1 5.13 513 -1.599 -7.920 5.923 11.841 0.610 -20.599 -794.932 -1439.962 -3329.931 1.743 -0.881 -1.616 -0.05 0.53 -0.85 0.07
1 5.14 514 -0.493 -6.987 6.043 13.001 -12.573 -26.581 -779.942 -1424.972 -3314.940 0.657 -1.799 -1.705 -0.06 0.52 -0.85 0.07
1 5.15 515 0.211 -6.374 6.383 8.850 -15.106 -23.377 -779.942 -1424.972 -3314.940 -0.009 -2.395 -2.012 -0.06 0.52 -0.85 0.07
1 5.16 516 0.321 -6.761 6.316 -2.594 -8.789 -9.949 -824.913 -1424.972 -3314.940 -0.080 -1.992 -1.916 -0.06 0.52 -0.85 0.07
1 5.17 517 0.436 -7.494 6.158 -3.662 -0.610 1.556 -704.991 -1304.900 -3389.892 -0.170 -1.249 -1.738 -0.06 0.52 -0.85 0.07
1 5.18 518 0.862 -8.117 6.144 1.434 8.606 8.759 -704.991 -1304.900 -3389.892 -0.591 -0.620 -1.711 -0.06 0.52 -0.85 0.07
1 5.19 519 1.475 -8.241 6.350 5.066 15.503 9.979 -764.952 -1289.910 -3404.882 -1.232 -0.477 -1.880 -0.06 0.52 -0.85 0.07
1 5.20 520 1.504 -8.299 6.125 -1.556 21.301 5.890 -659.870 -1439.962 -3449.853 -1.275 -0.409 -1.635 -0.06 0.52 -0.85 0.07
1 5.21 521 1.312 -8.375 5.531 -6.195 23.407 -4.608 -869.883 -1439.962 -3404.882 -1.094 -0.328 -1.031 -0.06 0.52 -0.85 0.07
1 5.22 522 0.919 -8.323 4.856 -4.059 17.578 -17.853 -869.883 -1439.962 -3404.882 -0.697 -0.379 -0.353 -0.06 0.52 -0.85 0.07
1 5.23 523 0.814 -8.040 4.947 5.524 2.167 -36.560 -779.942 -1499.923 -3464.993 -0.566 -0.659 -0.440 -0.06 0.52 -0.85 0.07
1 5.24 524 1.082 -7.892 4.975 3.723 -3.113 -42.542 -690.000 -1439.962 -3404.882 -0.787 -0.800 -0.458 -0.06 0.52 -0.85 0.06
1 5.25 525 0.996 -7.729 4.707 -0.824 -1.709 -41.199 -690.000 -1439.962 -3404.882 -0.639 -0.954 -0.177 -0.06 0.52 -0.85 0.06
1 5.26 526 0.814 -7.398 4.238 -1.740 -1.434 -33.295 -734.971 -1409.981 -3329.931 -0.337 -1.274 0.301 -0.06 0.51 -0.85 0.06
1 5.27 527 1.034 -7.087 4.099 1.709 -2.197 -27.435 -794.932 -1484.933 -3299.950 -0.513 -1.582 0.441 -0.06 0.51 -0.85 0.05
1 5.28 528 1.298 -6.872 4.152 0.916 -0.031 -22.430 -674.860 -1424.972 -3389.892 -0.739 -1.793 0.393 -0.07 0.51 -0.85 0.05
1 5.29 529 1.413 -6.752 4.152 -3.235 3.723 -19.257 -674.860 -1424.972 -3389.892 -0.825 -1.910 0.395 -0.07 0.51 -0.85 0.05
1 5.30 530 1.417 -7.092 3.951 -6.714 7.507 -16.937 -839.903 -1409.981 -3404.882 -0.807 -1.570 0.593 -0.07 0.51 -0.85 0.05
1 5.31 531 1.710 -7.346 3.931 -5.493 11.078 -14.313 -854.893 -1544.894 -3419.872 -1.082 -1.318 0.606 -0.07 0.51 -0.85 0.05
1 5.32 532 1.580 -7.317 3.975 -5.310 12.634 -13.092 -854.893 -1544.894 -3419.872 -0.940 -1.348 0.559 -0.07 0.51 -0.85 0.05
1 5.33 533 1.480 -7.901 3.759 -4.059 9.857 -11.078 -929.994 -1379.851 -3284.960 -0.821 -0.766 0.766 -0.07 0.51 -0.85 0.05
1 5.34 534 1.772 -7.906 3.735 0.275 8.698 -9.522 -929.994 -1424.972 -3464.993 -1.101 -0.762 0.789 -0.07 0.51 -0.85 0.05
1 5.35 535 1.714 -7.872 3.649 2.869 9.949 -6.165 -824.913 -1469.942 -3419.872 -1.029 -0.793 0.877 -0.07 0.51 -0.85 0.04
1 5.36 536 2.026 -7.307 3.548 3.784 12.116 -3.998 -824.913 -1469.942 -3419.872 -1.331 -1.355 0.982 -0.07 0.51 -0.85 0.04
1 5.37 537 2.126 -6.852 3.438 3.571 16.876 -1.251 -869.883 -1334.880 -3449.853 -1.436 -1.806 1.101 -0.07 0.51 -0.85 0.04
1 5.38 538 1.978 -6.948 3.117 1.709 24.963 -0.336 -764.952 -1409.981 -3374.901 -1.299 -1.706 1.430 -0.07 0.51 -0.85 0.04
1 5.39 539 2.016 -7.121 2.787 2.289 28.473 0.488 -764.952 -1409.981 -3374.901 -1.352 -1.531 1.767 -0.07 0.51 -0.85 0.04
1 5.40 540 1.609 -7.757 2.744 1.129 30.121 0.793 -854.893 -1349.871 -3389.892 -0.985 -0.890 1.825 -0.06 0.51 -0.86 0.04
1 5.41 541 1.288 -8.208 2.768 -0.793 29.816 0.671 -794.932 -1334.880 -3404.882 -0.685 -0.438 1.806 -0.06 0.51 -0.86 0.04
1 5.42 542 1.111 -8.605 2.792 -0.946 28.107 -0.946 -764.952 -1409.981 -3299.950 -0.528 -0.041 1.786 -0.06 0.51 -0.86 0.04
1 5.43 543 1.298 -8.409 2.797 1.801 32.013 0.641 -764.952 -1409.981 -3299.950 -0.729 -0.241 1.774 -0.06 0.51 -0.86 0.04
1 5.44 544 1.073 -8.332 2.983 2.808 38.239 3.632 -734.971 -1364.861 -3374.901 -0.523 -0.320 1.585 -0.06 0.51 -0.86 0.04
1 5.45 545 0.393 -8.299 2.586 0.610 36.957 5.737 -569.929 -1469.942 -3419.872 0.130 -0.356 1.983 -0.05 0.51 -0.86 0.04
1 5.46 546 0.192 -8.069 2.586 -3.204 31.616 3.784 -569.929 -1469.942 -3419.872 0.299 -0.587 1.984 -0.05 0.51 -0.86 0.03
1 5.47 547 0.268 -8.160 2.490 -9.033 26.550 1.007 -659.870 -1364.861 -3299.950 0.194 -0.497 2.081 -0.05 0.51 -0.86 0.03
1 5.48 548 0.469 -8.466 2.188 -15.778 22.675 -1.709 -690.000 -1259.929 -3449.853 -0.043 -0.203 2.362 -0.05 0.52 -0.86 0.03
1 5.49 549 0.211 -8.447 2.040 -15.991 23.804 -2.533 -704.991 -1349.871 -3314.940 0.203 -0.232 2.492 -0.04 0.52 -0.85 0.03
1 5.50 550 -0.139 -8.720 1.700 -15.472 22.217 -1.648 -704.991 -1349.871 -3314.940 0.540 0.031 2.815 -0.04 0.52 -0.85 0.03
1 5.51 551 -0.029 -8.567 1.700 -18.616 16.113 -1.190 -629.890 -1544.894 -3359.911 0.418 -0.136 2.788 -0.04 0.52 -0.85 0.03
1 5.52 552 0.570 -8.854 1.733 -24.841 16.693 1.740 -599.909 -1274.919 -3494.973 -0.190 0.138 2.731 -0.04 0.52 -0.85 0.03
1 5.53 553 0.934 -9.041 1.834 -28.046 19.928 4.364 -599.909 -1274.919 -3494.973 -0.565 0.301 2.584 -0.04 0.52 -0.85 0.03
1 5.54 554 0.608 -9.180 4.224 -31.677 21.118 4.486 -599.909 -1424.972 -3389.892 -0.254 0.414 0.144 -0.04 0.52 -0.85 0.03
1 5.55 555 -2.648 -14.040 9.975 -76.477 -20.722 -25.726 -584.919 -1439.962 -3374.901 2.991 5.217 -5.724 -0.04 0.53 -0.85 0.03
1 5.56 556 -2.677 -15.046 8.428 -38.666 -47.760 -34.577 -524.958 -1199.968 -3389.892 3.080 6.178 -4.276 -0.04 0.54 -0.84 0.03
1 5.57 557 -2.231 -11.627 7.705 4.364 -29.297 -30.670 -524.958 -1199.968 -3389.892 2.711 2.747 -3.586 -0.05 0.54 -0.84 0.03
1 5.58 558 -0.527 -9.165 6.101 -5.951 -11.932 -11.780 -599.909 -1274.919 -3209.859 1.059 0.291 -1.976 -0.05 0.54 -0.84 0.03
1 5.59 559 1.585 -8.835 4.329 -28.076 8.789 -1.862 -614.899 -1169.988 -3299.950 -1.036 -0.045 -0.219 -0.05 0.54 -0.84 0.03
1 5.60 560 4.056 -12.072 5.775 -49.957 -0.885 0.549 -614.899 -1169.988 -3299.950 -3.508 3.175 -1.702 -0.05 0.54 -0.84 0.03
1 5.61 561 4.358 -13.777 6.709 -34.821 -15.686 0.366 -629.890 -1124.867 -3314.940 -3.812 4.852 -2.698 -0.05 0.54 -0.84 0.03
1 5.62 562 3.237 -12.647 6.493 11.658 -1.373 1.892 -629.890 -1124.867 -3314.940 -2.683 3.697 -2.539 -0.05 0.54 -0.84 0.03
1 5.63 563 0.010 -10.152 6.144 9.888 9.735 -6.622 -704.991 -1199.968 -3209.859 0.542 1.218 -2.152 -0.05 0.54 -0.84 0.03
1 5.64 564 -1.049 -10.851 6.350 -9.613 -6.989 -14.587 -704.991 -1199.968 -3209.859 1.610 1.922 -2.351 -0.05 0.54 -0.84 0.03
1 5.65 565 -0.828 -11.675 6.843 1.373 -14.710 -17.609 -839.903 -1289.910 -3224.999 1.418 2.742 -2.855 -0.05 0.54 -0.84 0.03
1 5.66 566 -0.618 -11.090 6.350 25.543 -7.843 -17.212 -524.958 -959.975 -3164.888 1.241 2.165 -2.350 -0.05 0.54 -0.84 0.03
1 5.67 567 -0.364 -9.366 5.895 23.956 0.763 -8.911 -524.958 -959.975 -3164.888 1.014 0.462 -1.854 -0.06 0.54 -0.84 0.03
1 5.68 568 0.192 -9.572 5.780 7.141 -2.594 -1.434 -659.870 -1139.857 -3329.931 0.473 0.687 -1.700 -0.06 0.54 -0.84 0.03
1 5.69 569 0.929 -10.008 5.574 4.089 -3.387 4.578 -659.870 -1139.857 -3329.931 -0.257 1.131 -1.477 -0.06 0.54 -0.84 0.03
1 5.70 570 1.609 -9.659 5.153 12.512 4.730 11.871 -629.890 -1229.949 -3164.888 -0.949 0.790 -1.034 -0.06 0.54 -0.84 0.03
1 5.71 571 0.747 -8.921 4.774 11.993 11.627 16.937 -629.890 -1229.949 -3164.888 -0.109 0.061 -0.636 -0.06 0.53 -0.84 0.03
1 5.72 572 0.077 -8.318 4.324 9.308 13.062 18.982 -794.932 -1259.929 -3254.979 0.533 -0.534 -0.163 -0.06 0.53 -0.84 0.03
1 5.73 573 -0.139 -8.045 4.104 7.965 10.834 20.142 -779.942 -1124.867 -3314.940 0.712 -0.801 0.075 -0.05 0.53 -0.84 0.03
1 5.74 574 -0.168 -7.882 4.099 8.911 11.841 22.217 -779.942 -1124.867 -3314.940 0.702 -0.959 0.096 -0.05 0.53 -0.84 0.03
1 5.75 575 -0.192 -7.470 3.788 12.421 18.890 25.360 -614.899 -1259.929 -3449.853 0.684 -1.364 0.425 -0.05 0.53 -0.84 0.03
1 5.76 576 -0.589 -7.145 3.668 14.038 22.034 27.954 -614.899 -1259.929 -3449.853 1.038 -1.683 0.564 -0.05 0.53 -0.85 0.03
1 5.77 577 -0.771 -6.800 3.625 18.280 18.127 26.947 -509.968 -1214.958 -3329.931 1.119 -2.010 0.654 -0.04 0.53 -0.85 0.04
1 5.78 578 -0.963 -6.685 3.706 20.325 14.832 25.116 -509.968 -1214.958 -3329.931 1.264 -2.112 0.601 -0.04 0.53 -0.85 0.04
1 5.79 579 -0.857 -6.589 3.773 19.470 13.611 25.513 -584.919 -1334.880 -3299.950 1.116 -2.195 0.564 -0.04 0.53 -0.85 0.04
1 5.80 580 -0.929 -6.541 3.802 16.052 12.299 26.611 -614.899 -1259.929 -3254.979 1.145 -2.230 0.563 -0.04 0.53 -0.85 0.04
1 5.81 581 -1.025 -6.503 3.625 13.184 9.186 25.879 -614.899 -1259.929 -3254.979 1.198 -2.258 0.763 -0.04 0.52 -0.85 0.04
1 5.82 582 -0.915 -6.776 3.548 7.996 2.991 24.597 -509.968 -1259.929 -3329.931 1.050 -1.976 0.859 -0.03 0.52 -0.85 0.04
1 5.83 583 -0.867 -7.030 3.433 4.150 1.099 22.217 -509.968 -1259.929 -3329.931 0.967 -1.716 0.988 -0.03 0.52 -0.85 0.05
1 5.84 584 -0.843 -7.111 3.227 2.014 -0.488 19.531 -524.958 -1379.851 -3239.989 0.885 -1.628 1.208 -0.03 0.52 -0.85 0.05
1 5.85 585 -1.111 -7.140 3.017 1.373 -2.197 17.304 -524.958 -1379.851 -3239.989 1.130 -1.597 1.423 -0.03 0.52 -0.85 0.05
1 5.86 586 -0.948 -7.231 2.835 -6.378 -10.498 9.888 -449.857 -1274.919 -3389.892 0.953 -1.506 1.605 -0.03 0.52 -0.85 0.05
1 5.87 587 -0.584 -7.542 2.356 -14.160 -18.250 4.517 -434.867 -1289.910 -3404.882 0.587 -1.199 2.075 -0.03 0.52 -0.85 0.05
1 5.88 588 -0.302 -7.772 2.073 -19.013 -25.086 0.305 -434.867 -1289.910 -3404.882 0.314 -0.979 2.338 -0.03 0.52 -0.85 0.05
1 5.89 589 -0.215 -8.026 2.160 -22.095 -32.806 -4.028 -344.925 -1274.919 -3419.872 0.247 -0.738 2.227 -0.03 0.52 -0.85 0.05
1 5.90 590 -0.474 -8.083 2.318 -24.475 -34.882 -4.944 -344.925 -1274.919 -3419.872 0.533 -0.694 2.042 -0.04 0.53 -0.85 0.05
1 5.91 591 -1.034 -8.179 2.217 -27.588 -36.102 -5.219 -374.906 -1274.919 -3419.872 1.123 -0.613 2.112 -0.04 0.53 -0.85 0.05
1 5.92 592 -1.192 -8.423 2.380 -32.349 -41.596 -6.073 -449.857 -1199.968 -3464.993 1.348 -0.404 1.875 -0.04 0.53 -0.84 0.06
1 5.93 593 -1.188 -8.639 2.399 -31.738 -43.060 -5.524 -599.909 -1229.949 -3389.892 1.370 -0.213 1.802 -0.05 0.53 -0.84 0.06
1 5.94 594 -0.862 -8.950 2.504 -29.816 -43.823 -5.676 -539.948 -1259.929 -3254.979 1.070 0.074 1.645 -0.05 0.53 -0.84 0.06
1 5.95 595 -0.694 -9.237 2.437 -28.870 -44.006 -4.608 -539.948 -1259.929 -3254.979 0.929 0.339 1.662 -0.05 0.54 -0.84 0.06
1 5.96 596 -0.235 -9.563 2.682 -28.687 -45.380 -2.930 -674.860 -1154.998 -3314.940 0.496 0.643 1.369 -0.06 0.54 -0.84 0.06
1 5.97 597 0.115 -9.841 3.002 -27.771 -43.701 -2.411 -674.860 -1154.998 -3314.940 0.175 0.899 0.998 -0.06 0.54 -0.84 0.06
1 5.98 598 0.273 -10.147 3.031 -24.902 -40.772 -1.160 -659.870 -1259.929 -3449.853 0.045 1.185 0.921 -0.06 0.54 -0.84 0.07
1 5.99 599 0.608 -10.501 3.084 -18.524 -35.339 2.808 -764.952 -1064.906 -3299.950 -0.242 1.505 0.786 -0.07 0.55 -0.83 0.07
1 6.00 600 0.833 -10.702 3.204 -16.296 -31.494 6.042 -704.991 -1199.968 -3209.859 -0.451 1.696 0.642 -0.07 0.55 -0.83 0.07
1 6.01 601 1.025 -11.047 3.175 -16.266 -25.848 9.827 -779.942 -1004.945 -3314.940 -0.634 2.032 0.648 -0.07 0.55 -0.83 0.07
1 6.02 602 0.953 -11.387 3.031 -13.916 -20.447 11.963 -779.942 -1004.945 -3314.940 -0.561 2.363 0.770 -0.07 0.55 -0.83 0.07
1 6.03 603 0.374 -11.416 2.911 -9.430 -16.968 13.611 -749.961 -1154.998 -3284.960 0.013 2.384 0.873 -0.07 0.55 -0.83 0.07
1 6.04 604 -0.517 -11.540 2.629 -4.883 -14.557 10.590 -749.961 -1154.998 -3284.960 0.896 2.504 1.145 -0.07 0.55 -0.83 0.08
1 6.05 605 -1.025 -11.785 2.409 -2.594 -17.304 10.071 -929.994 -1079.896 -3164.888 1.397 2.745 1.359 -0.07 0.55 -0.83 0.08
1 6.06 606 -1.365 -11.713 2.303 8.575 -19.898 9.796 -779.942 -1004.945 -3314.940 1.734 2.672 1.461 -0.08 0.55 -0.83 0.08
1 6.07 607 -1.532 -12.268 4.401 22.278 -16.419 13.031 -779.942 -929.994 -3209.859 1.896 3.241 -0.605 -0.08 0.55 -0.83 0.08
1 6.08 608 -0.924 -13.446 7.226 23.407 -7.172 14.771 -779.942 -1124.867 -3209.859 1.279 4.433 -3.396 -0.08 0.55 -0.83 0.08
1 6.09 609 0.824 -15.031 7.216 12.390 12.360 19.684 -779.942 -1124.867 -3209.859 -0.489 6.030 -3.356 -0.08 0.55 -0.83 0.08
1 6.10 610 2.423 -13.983 5.090 19.165 14.557 27.222 -839.903 -989.955 -3194.869 -2.126 4.988 -1.210 -0.07 0.54 -0.83 0.09
1 6.11 611 4.947 -11.521 5.483 40.283 17.242 22.949 -839.903 -989.955 -3194.869 -4.693 2.542 -1.566 -0.07 0.54 -0.83 0.09
1 6.12 612 3.362 -9.936 4.994 19.196 23.193 20.752 -824.913 -1049.916 -3239.989 -3.148 0.981 -1.020 -0.07 0.54 -0.83 0.09
1 6.13 613 0.910 -10.616 4.377 0.641 19.074 9.369 -764.952 -1259.929 -3404.882 -0.740 1.677 -0.365 -0.07 0.54 -0.83 0.09
1 6.14 614 -2.284 -10.573 5.440 13.458 8.575 3.265 -659.870 -1064.906 -3404.882 2.410 1.640 -1.412 -0.06 0.54 -0.84 0.09
1 6.15 615 -2.634 -9.587 6.278 19.074 5.219 -8.667 -690.000 -1139.857 -3374.901 2.755 0.664 -2.227 -0.06 0.54 -0.84 0.09
1 6.16 616 -1.480 -9.146 6.177 26.672 -8.606 -18.524 -690.000 -1139.857 -3374.901 1.615 0.238 -2.095 -0.06 0.54 -0.84 0.09
1 6.17 617 0.718 -8.208 6.283 33.295 -23.712 -19.867 -704.991 -1154.998 -3539.944 -0.547 -0.681 -2.159 -0.07 0.53 -0.84 0.09
1 6.18 618 1.604 -7.054 7.145 29.999 -23.743 -11.780 -704.991 -1154.998 -3539.944 -1.392 -1.806 -2.961 -0.07 0.53 -0.84 0.09
1 6.19 619 1.753 -7.078 6.829 7.935 -11.658 3.143 -794.932 -1094.887 -3374.901 -1.503 -1.753 -2.587 -0.07 0.53 -0.84 0.09
1 6.20 620 1.939 -8.107 6.493 2.930 -5.981 11.719 -659.870 -1064.906 -3149.898 -1.668 -0.703 -2.210 -0.07 0.53 -0.84 0.09
1 6.21 621 1.877 -8.404 6.369 8.118 9.216 16.846 -824.913 -1079.896 -3539.944 -1.617 -0.386 -2.043 -0.07 0.52 -0.84 0.09
1 6.22 622 1.149 -7.901 6.005 4.059 15.900 13.611 -734.971 -1214.958 -3509.963 -0.913 -0.879 -1.659 -0.07 0.52 -0.85 0.09
1 6.23 623 0.560 -7.738 5.172 -9.522 15.045 2.594 -734.971 -1214.958 -3509.963 -0.341 -1.035 -0.810 -0.07 0.52 -0.85 0.09
1 6.24 624 0.215 -8.208 4.592 -12.939 9.705 -11.871 -629.890 -1079.896 -3389.892 -0.000 -0.567 -0.233 -0.07 0.52 -0.85 0.09
1 6.25 625 0.340 -8.648 4.276 -4.608 0.122 -28.870 -629.890 -1079.896 -3389.892 -0.107 -0.130 0.074 -0.07 0.52 -0.85 0.08
1 6.26 626 1.053 -8.672 4.664 7.507 -15.808 -46.204 -734.971 -1259.929 -3554.934 -0.773 -0.105 -0.314 -0.07 0.52 -0.85 0.08
1 6.27 627 1.465 -8.457 4.693 5.524 -15.472 -48.554 -824.913 -1124.867 -3539.944 -1.112 -0.312 -0.332 -0.07 0.52 -0.85 0.08
1 6.28 628 1.331 -8.083 4.200 0.824 -11.810 -40.009 -824.913 -1229.949 -3419.872 -0.819 -0.669 0.181 -0.08 0.52 -0.85 0.07
1 6.29 629 1.149 -7.997 4.061 1.068 -11.536 -35.584 -794.932 -1139.857 -3509.963 -0.571 -0.749 0.323 -0.08 0.52 -0.85 0.07
1 6.30 630 0.872 -7.599 3.745 1.465 -10.193 -23.346 -794.932 -1139.857 -3509.963 -0.241 -1.141 0.642 -0.08 0.52 -0.85 0.07
1 6.31 631 0.742 -7.360 3.716 1.190 -7.202 -16.571 -854.893 -1124.867 -3464.993 -0.075 -1.376 0.674 -0.08 0.52 -0.85 0.07
1 6.32 632 0.627 -7.456 3.611 0.549 -4.730 -12.939 -854.893 -1124.867 -3464.993 0.066 -1.277 0.782 -0.08 0.52 -0.85 0.07
1 6.33 633 0.536 -7.192 3.362 3.052 -2.380 -8.392 -779.942 -1049.916 -3284.960 0.177 -1.538 1.033 -0.08 0.52 -0.85 0.07
1 6.34 634 0.694 -7.063 3.204 4.639 0.885 -5.524 -899.864 -1199.968 -3419.872 0.034 -1.664 1.195 -0.09 0.52 -0.85 0.07
1 6.35 635 0.886 -7.106 3.280 4.700 2.716 -1.740 -899.864 -1199.968 -3419.872 -0.147 -1.616 1.126 -0.09 0.52 -0.85 0.07
1 6.36 636 1.111 -7.202 3.180 2.991 4.608 2.686 -914.854 -1094.887 -3404.882 -0.372 -1.512 1.243 -0.09 0.52 -0.85 0.07
1 6.37 637 1.226 -7.283 3.328 2.502 6.744 5.859 -914.854 -1094.887 -3404.882 -0.494 -1.428 1.101 -0.09 0.52 -0.85 0.07
1 6.38 638 1.346 -7.518 3.098 2.289 5.707 7.111 -824.913 -1154.998 -3464.993 -0.625 -1.191 1.337 -0.08 0.52 -0.85 0.07
1 6.39 639 1.733 -7.662 3.108 3.601 6.500 7.355 -824.913 -1154.998 -3464.993 -1.026 -1.045 1.334 -0.08 0.52 -0.85 0.07
1 6.40 640 1.815 -7.528 2.744 5.310 14.374 9.247 -1019.936 -1169.988 -3329.931 -1.122 -1.176 1.706 -0.08 0.52 -0.85 0.07
1 6.41 641 1.973 -7.422 2.399 6.500 17.853 9.827 -839.903 -1289.910 -3479.983 -1.300 -1.278 2.061 -0.08 0.52 -0.85 0.07
1 6.42 642 2.117 -7.202 2.380 9.155 23.804 10.834 -839.903 -1289.910 -3479.983 -1.468 -1.494 2.092 -0.08 0.52 -0.85 0.07
1 6.43 643 1.853 -7.446 2.222 9.674 31.525 9.613 -704.991 -1274.919 -3494.973 -1.266 -1.237 2.283 -0.08 0.51 -0.85 0.07
1 6.44 644 1.662 -7.767 2.389 7.568 32.013 8.179 -704.991 -1274.919 -3494.973 -1.108 -0.909 2.133 -0.07 0.51 -0.85 0.07
1 6.45 645 1.408 -7.829 2.380 4.181 31.220 6.104 -824.913 -1154.998 -3494.973 -0.886 -0.842 2.157 -0.07 0.51 -0.85 0.07
1 6.46 646 1.092 -7.767 2.289 0.702 25.391 4.334 -824.913 -1154.998 -3494.973 -0.598 -0.901 2.257 -0.07 0.51 -0.85 0.07
1 6.47 647 0.785 -8.030 2.284 -4.547 22.186 3.204 -824.913 -1304.900 -3464.993 -0.313 -0.637 2.264 -0.07 0.51 -0.85 0.07
1 6.48 648 -0.005 -8.447 2.389 -8.423 15.656 2.960 -779.942 -1154.998 -3389.892 0.458 -0.224 2.155 -0.07 0.51 -0.85 0.07
1 6.49 649 -0.168 -8.768 2.677 -6.805 10.895 3.326 -779.942 -1154.998 -3389.892 0.606 0.092 1.859 -0.07 0.51 -0.85 0.06
1 6.50 650 -0.158 -8.888 3.046 -5.096 7.416 4.578 -704.991 -1274.919 -3539.944 0.583 0.204 1.478 -0.06 0.51 -0.85 0.06
1 6.51 651 -0.014 -8.428 3.371 -7.904 6.714 8.362 -629.890 -1124.867 -3539.944 0.407 -0.273 1.122 -0.06 0.52 -0.85 0.06
1 6.52 652 0.565 -8.275 3.218 -10.407 7.507 9.338 -584.919 -1289.910 -3629.885 -0.191 -0.434 1.260 -0.06 0.52 -0.85 0.06
1 6.53 653 0.929 -8.093 3.189 -10.559 9.033 10.986 -584.919 -1289.910 -3629.885 -0.573 -0.626 1.272 -0.06 0.52 -0.85 0.06
1 6.54 654 1.398 -8.275 3.079 -14.221 13.611 12.421 -539.948 -1169.988 -3554.934 -1.064 -0.451 1.370 -0.06 0.52 -0.85 0.06
1 6.55 655 2.131 -8.490 2.447 -26.764 25.024 14.954 -629.890 -1124.867 -3569.924 -1.819 -0.248 1.980 -0.06 0.52 -0.85 0.06
1 6.56 656 1.891 -8.940 3.453 -28.839 29.602 13.428 -629.890 -1124.867 -3569.924 -1.603 0.182 0.935 -0.06 0.52 -0.85 0.06
1 6.57 657 -0.613 -10.525 8.572 -21.912 21.698 3.296 -734.971 -1094.887 -3584.915 0.878 1.743 -4.231 -0.06 0.52 -0.85 0.06
1 6.58 658 -2.533 -14.639 9.472 -63.873 -42.206 -36.469 -674.860 -959.975 -3539.944 2.813 5.814 -5.219 -0.06 0.53 -0.84 0.06
1 6.59 659 -1.336 -13.863 7.173 -29.144 -31.616 -39.490 -584.919 -1064.906 -3479.983 1.697 5.003 -3.000 -0.06 0.53 -0.84 0.06
1 6.60 660 -0.225 -11.416 5.938 0.671 -15.564 -30.853 -584.919 -1064.906 -3479.983 0.655 2.548 -1.789 -0.06 0.53 -0.84 0.06
1 6.61 661 1.528 -9.572 4.645 -13.672 -6.928 -19.928 -569.929 -1124.867 -3464.993 -1.050 0.706 -0.498 -0.07 0.53 -0.84 0.06
1 6.62 662 3.773 -9.994 5.210 -27.405 -1.373 -18.677 -794.932 -1064.906 -3404.882 -3.263 1.119 -1.084 -0.07 0.53 -0.84 0.06
1 6.63 663 4.587 -12.110 6.493 -32.837 -7.263 -18.127 -794.932 -1064.906 -3404.882 -4.048 3.219 -2.408 -0.07 0.54 -0.84 0.06
1 6.64 664 2.935 -11.675 5.895 1.465 3.143 -15.686 -599.909 -959.975 -3494.973 -2.365 2.763 -1.857 -0.07 0.54 -0.84 0.05
1 6.65 665 -0.038 -10.185 5.655 3.143 12.085 -20.660 -690.000 -989.955 -3479.983 0.649 1.281 -1.607 -0.07 0.54 -0.84 0.05
1 6.66 666 -1.121 -10.693 5.967 -10.407 -9.705 -22.461 -629.890 -1049.916 -3494.973 1.757 1.791 -1.918 -0.07 0.54 -0.84 0.05
1 6.67 667 -1.738 -11.301 6.421 -4.181 -16.785 -23.041 -629.890 -1049.916 -3494.973 2.415 2.396 -2.385 -0.07 0.54 -0.84 0.05
1 6.68 668 -2.279 -11.200 6.316 14.130 -7.477 -21.912 -749.961 -1154.998 -3539.944 2.997 2.299 -2.280 -0.07 0.54 -0.84 0.05
1 6.69 669 -2.227 -10.367 6.364 26.581 -6.104 -13.184 -690.000 -944.984 -3449.853 2.977 1.481 -2.301 -0.08 0.54 -0.84 0.05
1 6.70 670 -0.570 -9.295 6.081 13.275 -12.116 3.571 -690.000 -944.984 -3449.853 1.340 0.427 -1.982 -0.08 0.53 -0.84 0.05
1 6.71 671 0.680 -9.788 5.957 0.549 -9.613 10.345 -794.932 -1064.906 -3509.963 0.096 0.932 -1.833 -0.08 0.53 -0.84 0.05
1 6.72 672 0.967 -10.113 5.311 8.026 4.395 21.240 -824.913 -1124.867 -3569.924 -0.213 1.260 -1.178 -0.08 0.53 -0.84 0.05
1 6.73 673 0.709 -9.716 5.196 13.825 8.575 23.499 -794.932 -1064.906 -3404.882 0.012 0.868 -1.045 -0.08 0.53 -0.84 0.05
1 6.74 674 -0.057 -8.624 4.654 15.778 10.101 27.893 -794.932 -1064.906 -3404.882 0.734 -0.214 -0.474 -0.07 0.53 -0.84 0.05
1 6.75 675 -0.163 -8.035 4.511 9.308 10.345 29.999 -764.952 -1094.887 -3584.915 0.790 -0.794 -0.305 -0.07 0.53 -0.84 0.05
1 6.76 676 -0.139 -7.858 4.319 5.981 12.451 30.579 -734.971 -1064.906 -3374.901 0.714 -0.966 -0.095 -0.07 0.53 -0.84 0.06
1 6.77 677 -0.273 -7.413 4.022 9.460 16.510 33.020 -734.971 -1064.906 -3374.901 0.793 -1.408 0.217 -0.07 0.53 -0.84 0.06
1 6.78 678 -0.455 -7.212 3.860 12.177 16.266 32.440 -749.961 -1049.916 -3494.973 0.918 -1.604 0.396 -0.07 0.53 -0.84 0.06
1 6.79 679 -0.766 -6.857 3.706 17.761 14.954 34.027 -824.913 -929.994 -3569.924 1.176 -1.952 0.568 -0.06 0.53 -0.85 0.06
1 6.80 680 -0.699 -6.216 3.467 26.428 8.606 28.992 -569.929 -1049.916 -3569.924 1.005 -2.569 0.867 -0.06 0.52 -0.85 0.06
1 6.81 681 -0.656 -5.823 3.687 22.278 7.355 29.236 -569.929 -1049.916 -3569.924 0.918 -2.944 0.684 -0.06 0.52 -0.85 0.07
1 6.82 682 -0.632 -5.588 3.630 16.296 7.568 29.419 -704.991 -1079.896 -3644.875 0.850 -3.165 0.771 -0.05 0.52 -0.85 0.07
1 6.83 683 -0.766 -5.660 3.855 11.719 7.263 28.565 -539.948 -1214.958 -3584.915 0.941 -3.083 0.569 -0.05 0.52 -0.85 0.07
1 6.84 684 -0.862 -6.010 3.812 5.066 2.960 23.224 -539.948 -1214.958 -3584.915 0.996 -2.725 0.629 -0.05 0.52 -0.85 0.07
1 6.85 685 -0.862 -6.292 3.831 -3.479 -0.580 18.311 -509.968 -1259.929 -3584.915 0.961 -2.438 0.621 -0.05 0.52 -0.85 0.07
1 6.86 686 -0.958 -6.776 3.687 -11.414 -4.120 12.939 -599.909 -1229.949 -3599.905 1.031 -1.954 0.765 -0.05 0.52 -0.85 0.07
1 6.87 687 -0.996 -7.145 2.955 -17.792 -14.984 2.594 -674.860 -1154.998 -3644.875 1.049 -1.601 1.468 -0.05 0.52 -0.85 0.07
1 6.88 688 -0.608 -7.346 2.495 -18.982 -22.461 -4.608 -674.860 -1154.998 -3644.875 0.672 -1.411 1.905 -0.05 0.52 -0.85 0.07
1 6.89 689 -0.326 -7.508 2.337 -20.630 -27.893 -9.888 -629.890 -1199.968 -3674.856 0.414 -1.260 2.038 -0.05 0.52 -0.85 0.08
1 6.90 690 -0.374 -7.408 2.184 -23.438 -30.792 -15.106 -539.948 -1019.936 -3734.967 0.498 -1.374 2.164 -0.05 0.52 -0.85 0.08
1 6.91 691 -0.278 -7.312 2.203 -28.442 -30.518 -18.494 -539.948 -1019.936 -3734.967 0.445 -1.485 2.113 -0.06 0.53 -0.85 0.08
1 6.92 692 -0.594 -7.892 2.136 -38.208 -30.365 -19.104 -674.860 -1079.896 -3599.905 0.807 -0.924 2.140 -0.06 0.53 -0.84 0.07
1 6.93 693 -0.536 -8.509 2.054 -42.206 -32.013 -19.775 -614.899 -1094.887 -3584.915 0.795 -0.329 2.172 -0.06 0.53 -0.84 0.07
1 6.94 694 -0.493 -8.844 1.949 -41.382 -33.844 -19.470 -614.899 -1094.887 -3584.915 0.800 -0.019 2.221 -0.07 0.53 -0.84 0.07
1 6.95 695 -0.278 -9.371 2.342 -34.119 -33.478 -16.815 -690.000 -914.854 -3584.915 0.672 0.453 1.702 -0.07 0.54 -0.84 0.07
1 6.96 696 0.235 -9.611 2.538 -32.745 -30.640 -12.451 -629.890 -884.874 -3644.875 0.198 0.668 1.447 -0.07 0.54 -0.84 0.07
1 6.97 697 0.560 -10.118 2.734 -31.738 -26.856 -8.759 -779.942 -884.874 -3674.856 -0.095 1.153 1.195 -0.08 0.54 -0.83 0.07
1 6.98 698 0.900 -10.362 2.744 -28.412 -24.719 -5.646 -779.942 -884.874 -3674.856 -0.408 1.375 1.133 -0.08 0.54 -0.83 0.07
1 6.99 699 1.279 -10.779 2.835 -22.980 -19.318 -1.404 -869.883 -944.984 -3509.963 -0.763 1.772 0.993 -0.08 0.55 -0.83 0.07
1 7.00 700 0.814 -11.167 2.950 -20.355 -12.665 1.709 -944.984 -1139.857 -3659.866 -0.283 2.147 0.845 -0.08 0.55 -0.83 0.08
1 7.01 701 0.263 -11.277 2.820 -17.822 -9.644 0.946 -944.984 -1139.857 -3659.866 0.276 2.246 0.946 -0.08 0.55 -0.83 0.08
1 7.02 702 -0.426 -11.421 2.672 -9.247 -9.094 2.777 -824.913 -779.942 -3539.944 0.975 2.373 1.052 -0.08 0.55 -0.83 0.08
1 7.03 703 -0.881 -11.090 2.423 -2.747 -10.162 3.754 -989.955 -749.961 -3704.986 1.432 2.039 1.292 -0.09 0.55 -0.83 0.08
1 7.04 704 -1.408 -11.033 2.117 -0.854 -12.604 4.211 -779.942 -884.874 -3359.911 1.960 1.981 1.597 -0.09 0.55 -0.83 0.08
1 7.05 705 -1.666 -11.114 1.820 -1.373 -15.472 6.561 -779.942 -884.874 -3359.911 2.220 2.062 1.893 -0.09 0.55 -0.83 0.08
1 7.06 706 -1.959 -11.378 1.829 1.221 -16.083 10.651 -734.971 -749.961 -3659.866 2.512 2.325 1.883 -0.09 0.55 -0.83 0.08
1 7.07 707 -2.164 -12.201 4.702 15.167 -6.775 21.576 -734.971 -839.903 -3554.934 2.711 3.150 -0.985 -0.09 0.55 -0.83 0.08
1 7.08 708 -1.178 -14.366 8.126 4.730 11.414 30.151 -734.971 -839.903 -3554.934 1.703 5.321 -4.389 -0.09 0.55 -0.83 0.08
1 7.09 709 1.767 -14.749 5.981 17.151 26.367 45.410 -929.994 -809.922 -3419.872 -1.349 5.706 -2.227 -0.08 0.55 -0.83 0.09
1 7.10 710 4.075 -12.709 5.057 36.835 16.510 43.701 -794.932 -839.903 -3449.853 -3.734 3.679 -1.265 -0.08 0.55 -0.83 0.09
1 7.11 711 4.894 -11.971 5.627 20.142 11.993 37.293 -779.942 -929.994 -3494.973 -4.619 2.960 -1.786 -0.08 0.55 -0.83 0.09
1 7.12 712 2.902 -12.235 5.014 8.942 11.963 21.790 -779.942 -929.994 -3494.973 -2.680 3.232 -1.148 -0.07 0.55 -0.83 0.09
1 7.13 713 -0.287 -12.996 5.243 20.813 1.068 6.439 -734.971 -749.961 -3584.915 0.481 4.001 -1.360 -0.07 0.54 -0.83 0.09
1 7.14 714 -3.572 -11.497 6.690 33.478 -2.258 -10.254 -779.942 -809.922 -3569.924 3.761 2.518 -2.770 -0.07 0.54 -0.83 0.09
1 7.15 715 -2.643 -10.913 6.412 37.781 -9.308 -17.273 -779.942 -809.922 -3569.924 2.844 1.955 -2.444 -0.07 0.54 -0.83 0.09
1 7.16 716 0.733 -9.845 6.608 48.828 -24.475 -22.949 -539.948 -989.955 -3554.934 -0.464 0.940 -2.525 -0.07 0.54 -0.84 0.09
1 7.17 717 1.757 -9.520 7.030 51.636 -23.621 -21.423 -704.991 -929.994 -3569.924 -1.443 0.649 -2.877 -0.08 0.53 -0.84 0.09
1 7.18 718 2.021 -7.523 6.848 43.091 -18.127 -9.338 -749.961 -884.874 -3599.905 -1.674 -1.313 -2.624 -0.08 0.53 -0.84 0.09
1 7.19 719 2.413 -7.762 6.489 30.396 -24.323 -4.974 -749.961 -884.874 -3599.905 -2.035 -1.042 -2.201 -0.08 0.52 -0.84 0.09
1 7.20 720 2.093 -8.078 6.144 28.778 -9.155 9.735 -779.942 -1004.945 -3674.856 -1.679 -0.696 -1.799 -0.08 0.52 -0.84 0.09
1 7.21 721 1.197 -7.456 5.847 28.870 7.294 16.388 -704.991 -929.994 -3794.928 -0.769 -1.292 -1.449 -0.08 0.52 -0.85 0.09
1 7.22 722 0.192 -6.503 5.368 20.142 15.472 15.045 -704.991 -929.994 -3794.928 0.225 -2.218 -0.917 -0.08 0.52 -0.85 0.09
1 7.23 723 0.014 -6.407 4.602 6.042 16.144 5.310 -749.961 -1124.867 -3749.957 0.376 -2.292 -0.105 -0.08 0.51 -0.85 0.09
1 7.24 724 0.354 -6.929 4.113 0.519 13.428 -14.130 -824.913 -1049.916 -3794.928 0.010 -1.760 0.403 -0.08 0.51 -0.85 0.09
1 7.25 725 0.680 -7.542 4.147 2.441 6.744 -25.116 -764.952 -1139.857 -3734.967 -0.300 -1.145 0.374 -0.08 0.51 -0.85 0.09
1 7.26 726 1.130 -8.035 4.042 7.965 -5.066 -35.645 -764.952 -1139.857 -3734.967 -0.715 -0.646 0.486 -0.08 0.51 -0.85 0.08
1 7.27 727 1.757 -8.093 4.343 15.564 -13.947 -42.145 -629.890 -1199.968 -3719.977 -1.282 -0.578 0.198 -0.08 0.51 -0.85 0.08
1 7.28 728 1.681 -7.322 4.382 14.923 -11.475 -38.880 -854.893 -1079.896 -3824.908 -1.129 -1.333 0.182 -0.08 0.51 -0.85 0.08
1 7.29 729 1.235 -6.733 4.200 7.050 -6.683 -32.806 -854.893 -1079.896 -3824.908 -0.611 -1.905 0.388 -0.08 0.51 -0.85 0.08
1 7.30 730 1.144 -6.182 4.022 0.732 -4.395 -25.787 -854.893 -959.975 -3899.859 -0.469 -2.444 0.578 -0.09 0.51 -0.85 0.08
1 7.31 731 1.178 -6.086 3.951 -0.122 -2.472 -17.426 -779.942 -1049.916 -3854.889 -0.431 -2.531 0.656 -0.09 0.51 -0.85 0.07
1 7.32 732 1.178 -6.187 3.951 -0.458 -1.434 -14.252 -929.994 -1124.867 -3824.908 -0.407 -2.428 0.657 -0.09 0.51 -0.85 0.07
1 7.33 733 1.350 -6.436 4.027 -2.045 -0.397 -11.414 -929.994 -1124.867 -3824.908 -0.559 -2.177 0.581 -0.09 0.51 -0.85 0.07
1 7.34 734 1.312 -6.704 3.922 -3.571 0.732 -9.186 -839.903 -914.854 -3734.967 -0.505 -1.908 0.685 -0.09 0.51 -0.85 0.07
1 7.35 735 0.977 -6.919 3.946 -5.402 1.099 -7.446 -869.883 -1139.857 -3809.918 -0.158 -1.693 0.658 -0.09 0.51 -0.85 0.07
1 7.36 736 0.666 -7.331 3.754 -5.615 -1.556 -4.822 -869.883 -1139.857 -3809.918 0.162 -1.283 0.844 -0.09 0.51 -0.85 0.07
1 7.37 737 0.857 -7.451 3.649 -2.594 -3.662 -3.967 -914.854 -1019.936 -3809.918 -0.021 -1.166 0.943 -0.09 0.51 -0.85 0.07
1 7.38 738 1.221 -7.408 3.687 -1.770 -3.143 -1.129 -914.854 -1019.936 -3809.918 -0.376 -1.210 0.901 -0.09 0.51 -0.85 0.07
1 7.39 739 1.762 -7.480 3.443 -1.038 0.275 2.472 -869.883 -1094.887 -3659.866 -0.910 -1.139 1.144 -0.09 0.51 -0.85 0.07
1 7.40 740 1.733 -7.341 3.505 2.533 6.897 5.402 -869.883 -1094.887 -3659.866 -0.887 -1.277 1.083 -0.09 0.51 -0.85 0.07
1 7.41 741 1.604 -7.350 3.160 5.829 12.085 6.042 -854.893 -1124.867 -3854.889 -0.770 -1.264 1.436 -0.09 0.51 -0.85 0.07
1 7.42 742 1.738 -7.140 2.840 7.141 16.754 8.392 -989.955 -1139.857 -3809.918 -0.921 -1.470 1.769 -0.09 0.51 -0.85 0.07
1 7.43 743 1.777 -7.461 2.500 2.930 21.240 10.620 -989.955 -1139.857 -3809.918 -0.982 -1.145 2.122 -0.09 0.51 -0.86 0.07
1 7.44 744 1.762 -7.767 2.342 -0.732 23.865 11.963 -854.893 -1154.998 -3854.889 -0.996 -0.836 2.289 -0.09 0.51 -0.86 0.07
1 7.45 745 1.437 -8.169 2.045 -2.930 23.743 12.482 -854.893 -1154.998 -3854.889 -0.701 -0.434 2.591 -0.08 0.51 -0.86 0.07
1 7.46 746 0.790 -8.821 2.509 -1.465 18.036 9.796 -869.883 -1139.857 -3884.869 -0.118 0.213 2.128 -0.08 0.51 -0.86 0.07
1 7.47 747 0.915 -8.538 2.787 0.214 10.681 9.949 -869.883 -1139.857 -3884.869 -0.263 -0.077 1.840 -0.08 0.51 -0.86 0.07
1 7.48 748 0.139 -8.509 2.792 -6.775 12.939 11.566 -944.984 -1064.906 -3989.951 0.495 -0.112 1.825 -0.08 0.51 -0.86 0.07
1 7.49 749 -0.503 -9.046 2.715 -10.529 11.292 13.672 -854.893 -1124.867 -3899.859 1.111 0.413 1.883 -0.08 0.51 -0.85 0.07
1 7.50 750 -0.239 -9.223 2.911 -6.470 8.637 15.259 -854.893 -1124.867 -3899.859 0.817 0.577 1.665 -0.07 0.51 -0.85 0.07
1 7.51 751 0.283 -8.835 3.127 -7.965 11.871 18.311 -839.903 -1019.936 -3839.898 0.262 0.178 1.434 -0.07 0.51 -0.85 0.07
1 7.52 752 0.618 -8.667 2.921 -12.116 14.008 18.219 -839.903 -1019.936 -3839.898 -0.107 -0.001 1.623 -0.07 0.51 -0.85 0.07
1 7.53 753 1.116 -8.399 2.567 -14.984 14.099 13.794 -839.903 -1094.887 -3989.951 -0.667 -0.296 1.932 -0.07 0.52 -0.85 0.07
1 7.54 754 1.676 -8.351 2.246 -19.043 18.585 13.519 -839.903 -1094.887 -3989.951 -1.252 -0.359 2.224 -0.07 0.52 -0.85 0.07
1 7.55 755 1.949 -8.184 2.035 -24.933 26.764 12.604 -704.991 -1154.998 -3824.908 -1.556 -0.541 2.411 -0.07 0.52 -0.85 0.07
1 7.56 756 2.078 -8.256 1.638 -29.450 33.844 10.773 -674.860 -1049.916 -3899.859 -1.721 -0.487 2.777 -0.06 0.52 -0.85 0.07
1 7.57 757 1.935 -8.370 2.897 -33.417 37.567 5.127 -674.860 -1049.916 -3899.859 -1.613 -0.392 1.480 -0.06 0.52 -0.85 0.07
1 7.58 758 0.000 -11.344 8.198 -54.352 17.426 -14.008 -524.958 -854.893 -3974.960 0.300 2.558 -3.867 -0.06 0.52 -0.85 0.07
1 7.59 759 -1.398 -13.370 8.835 -61.493 -14.099 -32.654 -524.958 -854.893 -3974.960 1.702 4.554 -4.566 -0.06 0.53 -0.84 0.06
1 7.60 760 -0.752 -11.540 7.221 -18.738 -27.191 -47.028 -569.929 -929.994 -3854.889 1.176 2.664 -3.091 -0.06 0.53 -0.84 0.06
1 7.61 761 -0.120 -10.477 6.603 -15.595 -25.024 -44.190 -569.929 -929.994 -3854.889 0.624 1.594 -2.496 -0.07 0.53 -0.84 0.06
1 7.62 762 0.632 -9.304 5.205 -35.401 1.495 -33.447 -749.961 -779.942 -3824.908 -0.067 0.409 -1.132 -0.07 0.54 -0.84 0.05
1 7.63 763 0.498 -10.611 5.172 -39.887 -1.099 -35.492 -659.870 -839.903 -3884.869 0.112 1.699 -1.143 -0.07 0.54 -0.84 0.05
1 7.64 764 0.977 -12.575 5.813 -37.171 -26.642 -33.783 -659.870 -839.903 -3884.869 -0.313 3.642 -1.839 -0.07 0.54 -0.84 0.05
1 7.65 765 0.661 -11.833 6.230 4.578 -15.259 -11.597 -734.971 -944.984 -3554.934 0.064 2.885 -2.299 -0.08 0.54 -0.84 0.05
1 7.66 766 -0.287 -11.373 6.005 -2.411 -2.991 -1.740 -734.971 -944.984 -3554.934 1.047 2.427 -2.076 -0.08 0.54 -0.84 0.05
1 7.67 767 -0.800 -12.058 5.861 -17.456 -13.763 0.183 -794.932 -869.883 -3704.986 1.568 3.114 -1.929 -0.08 0.54 -0.84 0.05
1 7.68 768 -0.206 -12.043 6.110 6.958 -17.395 1.282 -764.952 -869.883 -3734.967 0.992 3.087 -2.211 -0.08 0.54 -0.83 0.05
1 7.69 769 0.129 -11.095 6.345 17.334 -9.460 4.456 -854.893 -809.922 -3749.957 0.665 2.146 -2.430 -0.08 0.54 -0.83 0.05
1 7.70 770 0.488 -10.233 5.900 7.172 -6.378 7.721 -839.903 -914.854 -3734.967 0.304 1.294 -1.962 -0.08 0.54 -0.84 0.05
1 7.71 771 1.063 -10.295 5.641 -4.395 -8.972 11.993 -839.903 -914.854 -3734.967 -0.278 1.359 -1.697 -0.08 0.54 -0.84 0.05
1 7.72 772 1.628 -10.248 5.330 1.221 -4.791 16.937 -839.903 -794.932 -3764.947 -0.855 1.307 -1.391 -0.08 0.54 -0.84 0.05
1 7.73 773 1.207 -9.635 4.947 9.277 4.456 21.149 -839.903 -794.932 -3764.947 -0.451 0.693 -1.008 -0.08 0.54 -0.84 0.06
1 7.74 774 0.603 -8.888 4.463 11.169 12.665 25.055 -824.913 -734.971 -3719.977 0.124 -0.051 -0.512 -0.08 0.54 -0.84 0.06
1 7.75 775 0.057 -8.452 4.156 3.906 11.597 25.330 -764.952 -599.909 -3704.986 0.589 -0.476 -0.166 -0.08 0.54 -0.84 0.06
1 7.76 776 -0.048 -8.236 3.840 5.371 12.451 25.971 -779.942 -659.870 -3854.889 0.649 -0.689 0.161 -0.08 0.54 -0.84 0.06
1 7.77 777 -0.287 -7.829 3.606 9.796 16.632 25.757 -749.961 -809.922 -3749.957 0.842 -1.094 0.408 -0.07 0.54 -0.84 0.06
1 7.78 778 -0.498 -7.398 3.462 13.855 17.731 24.780 -749.961 -809.922 -3749.957 1.006 -1.519 0.571 -0.07 0.54 -0.84 0.06
1 7.79 779 -0.618 -7.485 3.342 18.860 14.191 23.529 -764.952 -794.932 -3764.947 1.082 -1.424 0.714 -0.07 0.54 -0.84 0.06
1 7.80 780 -0.460 -7.006 3.524 34.851 10.590 21.973 -764.952 -794.932 -3764.947 0.884 -1.890 0.565 -0.07 0.54 -0.84 0.06
1 7.81 781 -0.244 -6.302 3.836 33.844 12.878 19.775 -674.860 -854.893 -3749.957 0.632 -2.574 0.301 -0.06 0.53 -0.84 0.07
1 7.82 782 -0.402 -6.153 3.740 19.714 12.817 18.768 -734.971 -719.981 -3809.918 0.722 -2.682 0.487 -0.06 0.53 -0.84 0.07
1 7.83 783 -0.522 -6.067 3.658 15.350 11.963 18.311 -629.890 -1049.916 -3929.990 0.809 -2.757 0.595 -0.06 0.53 -0.84 0.07
1 7.84 784 -0.546 -6.230 3.409 9.033 7.538 14.679 -749.961 -929.994 -3854.889 0.805 -2.586 0.862 -0.06 0.53 -0.84 0.07
1 7.85 785 -0.579 -6.441 3.357 4.700 3.418 13.001 -749.961 -929.994 -3854.889 0.816 -2.370 0.928 -0.06 0.53 -0.84 0.07
1 7.86 786 -0.757 -6.493 3.266 -1.251 -0.092 11.536 -629.890 -854.893 -3824.908 0.975 -2.314 1.026 -0.06 0.53 -0.85 0.07
1 7.87 787 -0.785 -6.996 3.007 -9.125 -8.667 5.890 -629.890 -854.893 -3824.908 0.990 -1.813 1.283 -0.06 0.53 -0.84 0.07
1 7.88 788 -0.397 -7.312 2.907 -14.862 -11.780 2.014 -584.919 -914.854 -3764.947 0.598 -1.501 1.374 -0.06 0.53 -0.84 0.07
1 7.89 789 -0.326 -7.686 2.658 -21.637 -12.604 -1.495 -584.919 -944.984 -3809.918 0.531 -1.135 1.607 -0.06 0.53 -0.84 0.07
1 7.90 790 -0.393 -8.078 1.963 -25.940 -15.747 -4.791 -584.919 -839.903 -3809.918 0.623 -0.770 2.244 -0.06 0.53 -0.84 0.07
1 7.91 791 -0.383 -8.404 1.628 -24.475 -19.501 -7.355 -614.899 -794.932 -3809.918 0.632 -0.460 2.545 -0.06 0.53 -0.84 0.07
1 7.92 792 -0.321 -8.514 1.619 -22.400 -22.522 -7.355 -614.899 -794.932 -3809.918 0.593 -0.363 2.523 -0.06 0.53 -0.84 0.07
1 7.93 793 -0.283 -8.519 1.609 -22.644 -27.405 -7.813 -659.870 -749.961 -3915.000 0.581 -0.372 2.503 -0.06 0.53 -0.84 0.07
1 7.94 794 0.010 -8.490 1.489 -25.360 -30.243 -7.538 -659.870 -749.961 -3915.000 0.318 -0.414 2.592 -0.07 0.54 -0.84 0.07
1 7.95 795 0.369 -9.189 1.863 -26.123 -30.853 -5.066 -659.870 -749.961 -3839.898 -0.011 0.271 2.183 -0.07 0.54 -0.84 0.07
1 7.96 796 0.503 -9.831 2.188 -19.714 -26.947 -1.495 -629.890 -734.971 -3899.859 -0.118 0.894 1.815 -0.07 0.54 -0.84 0.07
1 7.97 797 0.498 -10.511 2.710 -9.491 -19.531 3.418 -734.971 -839.903 -3839.898 -0.077 1.542 1.217 -0.07 0.54 -0.83 0.07
1 7.98 798 0.359 -10.588 3.060 -9.186 -16.907 4.334 -734.971 -944.984 -3764.947 0.070 1.611 0.849 -0.07 0.54 -0.83 0.07
1 7.99 799 0.134 -10.832 3.290 -9.613 -15.411 3.693 -734.971 -944.984 -3764.947 0.300 1.850 0.607 -0.08 0.54 -0.83 0.08
1 8.00 800 -0.014 -11.215 3.362 -5.859 -11.932 4.944 -869.883 -749.961 -3839.898 0.452 2.229 0.524 -0.08 0.54 -0.83 0.08
1 8.01 801 -0.350 -11.019 3.079 3.143 -10.437 3.815 -869.883 -749.961 -3839.898 0.788 2.031 0.803 -0.08 0.54 -0.83 0.08
1 8.02 802 -0.632 -10.444 2.873 8.057 -11.383 4.578 -764.952 -599.909 -3809.918 1.073 1.460 1.016 -0.08 0.54 -0.83 0.08
1 8.03 803 -0.761 -10.477 2.562 7.690 -9.796 5.646 -854.893 -779.942 -3749.957 1.203 1.498 1.340 -0.08 0.54 -0.83 0.08
1 8.04 804 -1.121 -10.372 2.064 14.710 -9.918 6.531 -899.864 -734.971 -3794.928 1.556 1.402 1.860 -0.08 0.54 -0.83 0.08
1 8.05 805 -1.173 -10.267 1.973 16.663 -10.986 6.378 -839.903 -719.981 -3704.986 1.602 1.303 1.966 -0.08 0.54 -0.83 0.08
1 8.06 806 -2.016 -10.339 1.259 13.275 -15.533 12.177 -839.903 -719.981 -3704.986 2.428 1.378 2.687 -0.08 0.54 -0.83 0.08
1 8.07 807 -2.404 -10.631 0.934 10.315 -22.034 14.496 -839.903 -674.860 -3839.898 2.792 1.668 3.012 -0.08 0.54 -0.83 0.08
1 8.08 808 -2.342 -11.311 2.021 9.796 -23.010 11.719 -839.903 -674.860 -3839.898 2.715 2.349 1.927 -0.08 0.54 -0.83 0.09
1 8.09 809 -0.153 -14.730 10.731 43.152 9.796 12.482 -899.864 -779.942 -3644.875 0.526 5.777 -6.762 -0.08 0.54 -0.83 0.09
1 8.10 810 2.969 -15.065 10.367 -13.886 44.617 43.640 -1004.945 -779.942 -3854.889 -2.611 6.137 -6.341 -0.08 0.54 -0.84 0.09
1 8.11 811 4.808 -13.058 5.617 -11.993 34.180 45.441 -1004.945 -779.942 -3854.889 -4.520 4.132 -1.583 -0.07 0.54 -0.84 0.09
1 8.12 812 5.952 -10.209 5.545 21.668 23.499 30.365 -794.932 -644.880 -3884.869 -5.816 1.276 -1.518 -0.07 0.54 -0.83 0.09
1 8.13 813 2.428 -9.860 5.627 19.196 28.381 23.010 -794.932 -644.880 -3884.869 -2.343 0.941 -1.566 -0.06 0.54 -0.84 0.09
1 8.14 814 -2.366 -10.214 6.829 -0.641 33.844 18.768 -734.971 -719.981 -3659.866 2.401 1.305 -2.745 -0.06 0.54 -0.84 0.09
1 8.15 815 -4.434 -10.099 6.766 -16.449 25.055 -0.244 -734.971 -719.981 -3659.866 4.431 1.188 -2.688 -0.06 0.54 -0.84 0.09
1 8.16 816 -1.767 -9.247 5.186 -5.798 -12.482 -20.142 -704.991 -779.942 -3854.889 1.759 0.326 -1.130 -0.06 0.54 -0.84 0.09
1 8.17 817 0.316 -8.835 5.832 12.329 -19.867 -21.637 -659.870 -749.961 -3704.986 -0.295 -0.092 -1.789 -0.06 0.54 -0.84 0.09
1 8.18 818 0.532 -7.973 6.738 11.475 -13.550 -11.169 -659.870 -749.961 -3704.986 -0.476 -0.944 -2.673 -0.06 0.54 -0.84 0.09
1 8.19 819 -0.053 -8.342 5.943 -10.803 -18.799 1.984 -764.952 -674.860 -3629.885 0.157 -0.551 -1.825 -0.06 0.53 -0.84 0.09
1 8.20 820 0.613 -9.659 5.909 -8.820 -24.841 7.813 -764.952 -674.860 -3629.885 -0.500 0.767 -1.791 -0.06 0.53 -0.84 0.09
1 8.21 821 1.082 -10.022 6.158 5.188 -16.785 14.954 -749.961 -809.922 -3719.977 -0.966 1.130 -2.041 -0.06 0.53 -0.84 0.09
1 8.22 822 1.049 -9.232 6.101 12.665 -4.639 19.562 -749.961 -809.922 -3719.977 -0.945 0.346 -1.970 -0.06 0.53 -0.84 0.09
1 8.23 823 0.623 -8.667 5.617 4.761 4.272 17.395 -749.961 -704.991 -3854.889 -0.545 -0.211 -1.469 -0.06 0.53 -0.84 0.09
1 8.24 824 0.536 -8.773 4.688 -1.617 6.378 2.502 -734.971 -749.961 -3764.947 -0.478 -0.099 -0.525 -0.06 0.53 -0.84 0.09
1 8.25 825 0.575 -8.787 4.477 5.737 4.608 -9.796 -734.971 -749.961 -3764.947 -0.524 -0.082 -0.309 -0.06 0.53 -0.84 0.09
1 8.26 826 0.790 -8.572 4.200 13.611 -0.244 -20.630 -764.952 -674.860 -3809.918 -0.729 -0.293 -0.021 -0.06 0.53 -0.84 0.09
1 8.27 827 1.638 -8.481 4.286 14.771 -9.857 -33.875 -764.952 -839.903 -3764.947 -1.500 -0.362 -0.063 -0.06 0.53 -0.84 0.09
1 8.28 828 1.815 -8.375 4.262 13.519 -10.376 -36.408 -764.952 -599.909 -3734.967 -1.612 -0.455 -0.017 -0.07 0.53 -0.84 0.09
1 8.29 829 1.623 -8.318 4.214 14.374 -9.399 -33.051 -764.952 -599.909 -3734.967 -1.353 -0.500 0.053 -0.07 0.53 -0.84 0.08
1 8.30 830 1.461 -7.939 4.190 11.902 -10.284 -28.687 -794.932 -674.860 -3734.967 -1.130 -0.867 0.098 -0.07 0.53 -0.84 0.08
1 8.31 831 1.049 -7.418 4.075 5.188 -8.698 -22.034 -824.913 -584.919 -3674.856 -0.664 -1.378 0.231 -0.07 0.52 -0.84 0.08
1 8.32 832 0.709 -7.259 3.893 2.686 -5.920 -18.707 -824.913 -584.919 -3674.856 -0.286 -1.529 0.423 -0.08 0.52 -0.84 0.08
1 8.33 833 0.532 -7.173 3.745 2.136 -4.181 -17.029 -869.883 -839.903 -3584.915 -0.078 -1.611 0.577 -0.08 0.52 -0.85 0.08
1 8.34 834 0.627 -7.034 3.457 5.524 -3.326 -16.632 -764.952 -839.903 -3884.869 -0.120 -1.741 0.876 -0.08 0.52 -0.85 0.08
1 8.35 835 0.766 -6.939 3.544 6.928 -2.716 -16.846 -854.893 -734.971 -3749.957 -0.233 -1.830 0.799 -0.08 0.52 -0.85 0.08
1 8.36 836 0.915 -7.130 3.453 7.446 -1.617 -16.052 -854.893 -734.971 -3749.957 -0.357 -1.631 0.902 -0.08 0.52 -0.85 0.07
1 8.37 837 1.015 -7.331 3.381 6.653 -1.831 -13.550 -929.994 -854.893 -3599.905 -0.434 -1.423 0.986 -0.08 0.52 -0.85 0.07
1 8.38 838 0.943 -7.489 3.055 5.707 -2.747 -9.125 -989.955 -794.932 -3704.986 -0.343 -1.258 1.322 -0.08 0.52 -0.85 0.07
1 8.39 839 0.982 -7.389 3.012 4.272 -4.822 -5.371 -989.955 -794.932 -3704.986 -0.366 -1.353 1.374 -0.08 0.52 -0.85 0.07
1 8.40 840 1.053 -7.212 2.897 0.763 -3.906 -1.221 -914.854 -944.984 -3659.866 -0.425 -1.525 1.497 -0.08 0.52 -0.85 0.07
1 8.41 841 0.967 -7.068 2.504 -1.099 3.418 6.531 -734.971 -719.981 -3704.986 -0.333 -1.666 1.895 -0.08 0.52 -0.85 0.07
1 8.42 842 0.699 -7.226 2.447 -1.068 7.050 9.796 -854.893 -854.893 -3719.977 -0.077 -1.508 1.954 -0.08 0.52 -0.85 0.07
1 8.43 843 0.680 -7.623 2.322 0.153 7.874 10.803 -854.893 -854.893 -3719.977 -0.076 -1.111 2.080 -0.08 0.52 -0.85 0.07
1 8.44 844 1.025 -7.968 2.021 1.892 11.963 11.322 -929.994 -854.893 -3719.977 -0.440 -0.766 2.385 -0.08 0.52 -0.85 0.07
1 8.45 845 1.020 -8.236 2.083 7.294 14.557 12.482 -929.994 -779.942 -3674.856 -0.459 -0.496 2.330 -0.08 0.52 -0.85 0.07
1 8.46 846 0.728 -8.150 2.476 10.162 9.430 12.573 -929.994 -779.942 -3674.856 -0.193 -0.576 1.952 -0.08 0.52 -0.85 0.07
1 8.47 847 0.814 -7.757 2.753 7.477 5.493 11.841 -974.965 -704.991 -3674.856 -0.303 -0.962 1.690 -0.08 0.52 -0.85 0.07
1 8.48 848 0.728 -7.738 2.279 -2.655 8.392 11.200 -779.942 -854.893 -3794.928 -0.256 -0.974 2.183 -0.07 0.52 -0.85 0.08
1 8.49 849 0.613 -7.930 2.241 -4.425 7.935 11.658 -914.854 -839.903 -3734.967 -0.161 -0.785 2.219 -0.07 0.52 -0.85 0.08
1 8.50 850 0.474 -8.107 2.227 -2.960 7.751 12.360 -914.854 -839.903 -3734.967 -0.043 -0.610 2.231 -0.07 0.52 -0.85 0.08
1 8.51 851 0.292 -8.179 2.366 -3.571 6.439 13.580 -794.932 -944.984 -3704.986 0.117 -0.540 2.091 -0.07 0.52 -0.85 0.08
1 8.52 852 0.354 -8.131 2.198 -5.737 4.761 13.641 -944.984 -944.984 -3704.986 0.034 -0.590 2.255 -0.07 0.52 -0.85 0.08
1 8.53 853 1.221 -8.150 2.231 -6.622 2.594 11.597 -944.984 -944.984 -3704.986 -0.853 -0.575 2.216 -0.07 0.52 -0.85 0.08
1 8.54 854 1.777 -8.437 2.399 -10.681 3.845 10.895 -764.952 -914.854 -3764.947 -1.426 -0.291 2.042 -0.07 0.52 -0.85 0.08
1 8.55 855 2.260 -8.658 3.084 -18.158 7.538 11.627 -944.984 -914.854 -3734.967 -1.921 -0.080 1.341 -0.07 0.52 -0.85 0.08
1 8.56 856 0.484 -9.347 7.441 -37.445 6.439 1.984 -899.864 -854.893 -3644.875 -0.155 0.576 -3.084 -0.07 0.52 -0.85 0.08
1 8.57 857 -1.992 -12.216 9.036 -72.968 -20.569 -20.752 -899.864 -854.893 -3644.875 2.329 3.416 -4.735 -0.07 0.53 -0.84 0.08
1 8.58 858 -2.222 -14.323 8.045 -66.406 -46.387 -37.903 -869.883 -749.961 -3659.866 2.614 5.477 -3.846 -0.07 0.53 -0.84 0.08
1 8.59 859 -0.934 -13.686 6.699 -28.534 -36.530 -38.757 -854.893 -704.991 -3539.944 1.409 4.807 -2.579 -0.08 0.53 -0.84 0.08
1 8.60 860 2.303 -9.764 4.377 -11.078 -1.953 -3.876 -854.893 -704.991 -3539.944 -1.761 0.876 -0.284 -0.08 0.53 -0.84 0.08
1 8.61 861 3.836 -9.979 3.764 -37.171 27.802 3.387 -1064.906 -674.860 -3584.915 -3.274 1.088 0.320 -0.08 0.53 -0.84 0.08
1 8.62 862 5.234 -12.029 4.927 -46.967 21.057 2.991 -989.955 -719.981 -3554.934 -4.680 3.119 -0.884 -0.08 0.54 -0.84 0.07
1 8.63 863 5.765 -14.093 7.015 -16.174 16.693 -6.714 -1019.936 -674.860 -3479.983 -5.235 5.133 -3.080 -0.08 0.54 -0.83 0.07
1 8.64 864 3.462 -12.177 6.460 19.623 27.802 -12.054 -1019.936 -674.860 -3479.983 -2.932 3.216 -2.529 -0.08 0.54 -0.83 0.07
1 8.65 865 1.053 -10.487 6.661 23.224 28.442 -20.325 -1064.906 -644.880 -3584.915 -0.521 1.542 -2.693 -0.08 0.54 -0.84 0.07
1 8.66 866 -0.824 -10.271 6.532 3.113 15.533 -32.044 -1019.936 -599.909 -3509.963 1.373 1.340 -2.535 -0.08 0.54 -0.84 0.07
1 8.67 867 -1.939 -10.817 6.455 -2.045 5.310 -40.222 -1019.936 -599.909 -3509.963 2.529 1.890 -2.455 -0.08 0.54 -0.84 0.07
1 8.68 868 -2.485 -10.343 5.847 28.473 7.690 -41.046 -839.903 -569.929 -3509.963 3.129 1.422 -1.842 -0.08 0.54 -0.84 0.06
1 8.69 869 -2.471 -9.467 5.909 34.271 8.606 -33.203 -914.854 -749.961 -3554.934 3.169 0.565 -1.870 -0.08 0.54 -0.84 0.06
1 8.70 870 -1.188 -9.453 5.655 9.430 1.068 -13.275 -914.854 -794.932 -3509.963 1.959 0.595 -1.534 -0.08 0.53 -0.84 0.06
1 8.71 871 -0.359 -9.663 5.234 5.707 -2.289 -7.690 -914.854 -794.932 -3509.963 1.146 0.813 -1.100 -0.08 0.53 -0.84 0.06
1 8.72 872 1.676 -9.740 5.234 13.275 2.899 5.157 -899.864 -734.971 -3494.973 -0.885 0.896 -1.087 -0.08 0.53 -0.84 0.06
1 8.73 873 1.451 -9.156 5.105 17.853 18.341 14.679 -944.984 -839.903 -3449.853 -0.673 0.321 -0.935 -0.08 0.53 -0.84 0.06
1 8.74 874 0.014 -8.457 4.549 16.846 28.107 23.834 -944.984 -839.903 -3449.853 0.729 -0.366 -0.348 -0.08 0.53 -0.84 0.06
1 8.75 875 -1.140 -7.925 4.238 9.827 23.224 29.663 -1034.926 -734.971 -3569.924 1.829 -0.888 -0.007 -0.08 0.53 -0.84 0.06
1 8.76 876 -1.082 -7.695 4.496 8.942 23.834 32.227 -1064.906 -944.984 -3509.963 1.706 -1.112 -0.244 -0.08 0.53 -0.84 0.06
1 8.77 877 -1.212 -7.619 4.382 13.947 28.656 33.569 -1064.906 -944.984 -3509.963 1.766 -1.184 -0.110 -0.07 0.53 -0.85 0.06
1 8.78 878 -1.508 -6.675 4.003 22.430 28.992 31.006 -989.955 -674.860 -3554.934 1.919 -2.107 0.327 -0.07 0.52 -0.85 0.07
1 8.79 879 -1.518 -6.254 3.874 16.571 23.743 27.741 -929.994 -854.893 -3644.875 1.870 -2.515 0.488 -0.06 0.52 -0.85 0.07
1 8.80 880 -1.298 -6.254 3.941 9.857 17.670 23.682 -824.913 -929.994 -3569.924 1.600 -2.505 0.444 -0.06 0.52 -0.85 0.07
1 8.81 881 -1.336 -6.374 3.802 9.094 15.076 21.881 -824.913 -929.994 -3569.924 1.596 -2.379 0.598 -0.06 0.52 -0.85 0.07
1 8.82 882 -1.312 -6.618 3.745 13.367 13.123 19.074 -674.860 -929.994 -3539.944 1.535 -2.128 0.671 -0.06 0.52 -0.85 0.07
1 8.83 883 -1.068 -6.421 3.802 14.008 7.294 15.137 -779.942 -959.975 -3674.856 1.259 -2.315 0.634 -0.05 0.52 -0.85 0.07
1 8.84 884 -0.718 -6.048 3.773 10.620 5.981 11.627 -779.942 -959.975 -3674.856 0.883 -2.678 0.685 -0.05 0.52 -0.85 0.07
1 8.85 885 -0.484 -6.187 3.577 5.432 -0.336 4.822 -749.961 -854.893 -3644.875 0.616 -2.523 0.913 -0.05 0.52 -0.85 0.07
1 8.86 886 -0.661 -6.512 3.467 1.495 -4.578 1.129 -659.870 -989.955 -3554.934 0.790 -2.193 1.031 -0.05 0.52 -0.85 0.07
1 8.87 887 -0.785 -6.570 3.204 -3.052 -11.383 -6.073 -704.991 -959.975 -3749.957 0.920 -2.135 1.296 -0.05 0.52 -0.85 0.07
1 8.88 888 -0.464 -6.474 2.830 -9.857 -22.858 -18.127 -704.991 -959.975 -3749.957 0.622 -2.233 1.665 -0.05 0.52 -0.85 0.07
1 8.89 889 -0.010 -6.359 2.897 -14.496 -27.924 -25.055 -869.883 -1019.936 -3659.866 0.212 -2.353 1.585 -0.06 0.52 -0.85 0.07
1 8.90 890 -0.306 -6.455 2.715 -23.132 -28.381 -29.541 -794.932 -914.854 -3629.885 0.564 -2.266 1.747 -0.06 0.52 -0.85 0.07
1 8.91 891 -0.833 -6.546 2.581 -30.701 -26.764 -30.579 -794.932 -914.854 -3629.885 1.150 -2.188 1.853 -0.06 0.52 -0.85 0.07
1 8.92 892 -1.197 -7.365 2.409 -37.720 -29.175 -31.830 -764.952 -944.984 -3659.866 1.636 -1.406 1.940 -0.07 0.52 -0.85 0.07
1 8.93 893 -1.068 -7.714 2.380 -39.093 -30.029 -31.220 -869.883 -944.984 -3584.915 1.570 -1.079 1.917 -0.07 0.52 -0.85 0.07
1 8.94 894 -0.575 -8.730 1.939 -41.443 -31.036 -28.473 -929.994 -929.994 -3599.905 1.138 -0.087 2.302 -0.08 0.53 -0.84 0.07
1 8.95 895 -0.101 -9.319 1.781 -38.941 -32.135 -26.093 -929.994 -929.994 -3599.905 0.719 0.475 2.396 -0.08 0.53 -0.84 0.07
1 8.96 896 0.273 -9.941 1.973 -35.004 -32.471 -20.569 -914.854 -869.883 -3404.882 0.394 1.069 2.137 -0.08 0.53 -0.84 0.07
1 8.97 897 0.819 -10.305 2.217 -32.501 -28.076 -12.177 -929.994 -1004.945 -3569.924 -0.109 1.407 1.829 -0.09 0.54 -0.84 0.07
1 8.98 898 1.025 -10.626 2.337 -31.403 -26.062 -7.599 -929.994 -1004.945 -3569.924 -0.279 1.704 1.648 -0.09 0.54 -0.84 0.07
1 8.99 899 1.178 -11.028 2.538 -31.647 -23.377 -4.456 -1034.926 -854.893 -3419.872 -0.402 2.082 1.388 -0.09 0.54 -0.83 0.07
1 9.00 900 0.953 -11.746 2.734 -28.809 -17.273 -0.519 -1004.945 -854.893 -3494.973 -0.138 2.766 1.104 -0.09 0.54 -0.83 0.07
1 9.01 901 0.493 -11.952 2.696 -20.752 -13.001 0.793 -1034.926 -884.874 -3539.944 0.332 2.958 1.106 -0.1 0.54 -0.83 0.07
1 9.02 902 -0.005 -11.732 2.658 -13.275 -11.536 2.106 -1034.926 -884.874 -3539.944 0.837 2.727 1.119 -0.1 0.55 -0.83 0.07
1 9.03 903 -0.699 -11.430 2.265 -9.399 -12.268 3.967 -1169.988 -794.932 -3404.882 1.535 2.419 1.495 -0.1 0.55 -0.83 0.07
1 9.04 904 -1.168 -11.435 1.858 -6.500 -13.763 7.507 -1139.857 -674.860 -3404.882 2.007 2.419 1.891 -0.1 0.55 -0.83 0.07
1 9.05 905 -1.532 -11.507 1.815 0.214 -12.695 9.613 -1139.857 -674.860 -3404.882 2.370 2.487 1.924 -0.1 0.55 -0.83 0.07
1 9.06 906 -1.595 -12.024 1.829 9.277 -13.458 11.780 -1184.978 -779.942 -3599.905 2.428 3.003 1.908 -0.1 0.55 -0.83 0.07
1 9.07 907 -0.881 -13.700 7.384 25.208 -1.038 22.888 -1154.998 -884.874 -3464.993 1.693 4.693 -3.609 -0.1 0.55 -0.83 0.08
1 9.08 908 0.551 -15.639 9.247 13.336 25.940 36.530 -1094.887 -839.903 -3404.882 0.222 6.643 -5.438 -0.1 0.54 -0.83 0.08
1 9.09 909 2.145 -14.112 6.278 30.029 41.199 43.488 -1094.887 -839.903 -3404.882 -1.444 5.121 -2.442 -0.1 0.54 -0.83 0.08
1 9.10 910 3.706 -11.842 5.631 42.114 47.180 37.109 -1169.988 -839.903 -3404.882 -3.088 2.869 -1.740 -0.09 0.54 -0.83 0.08
1 9.11 911 4.774 -11.033 5.325 25.055 45.746 30.426 -1004.945 -884.874 -3419.872 -4.232 2.081 -1.374 -0.09 0.54 -0.83 0.08
1 9.12 912 2.480 -10.813 4.133 7.263 29.297 7.172 -1004.945 -884.874 -3419.872 -2.002 1.872 -0.148 -0.08 0.54 -0.83 0.08
1 9.13 913 0.608 -11.655 5.689 20.294 25.574 6.622 -1034.926 -884.874 -3539.944 -0.165 2.720 -1.688 -0.08 0.54 -0.84 0.08
1 9.14 914 -2.337 -9.486 6.335 24.384 26.306 -2.960 -1019.936 -749.961 -3329.931 2.733 0.580 -2.265 -0.08 0.54 -0.84 0.08
1 9.15 915 -2.538 -9.079 6.048 14.557 17.731 -10.712 -794.932 -869.883 -3449.853 2.931 0.187 -1.947 -0.08 0.53 -0.84 0.08
1 9.16 916 -0.575 -9.055 6.785 15.747 -10.864 -28.717 -794.932 -869.883 -3449.853 0.996 0.170 -2.672 -0.08 0.53 -0.84 0.08
1 9.17 917 1.034 -8.883 7.590 25.513 -13.580 -27.283 -974.965 -1004.945 -3494.973 -0.564 0.013 -3.448 -0.08 0.53 -0.84 0.08
1 9.18 918 1.571 -8.083 7.748 16.235 -14.343 -15.991 -914.854 -914.854 -3449.853 -1.058 -0.768 -3.572 -0.08 0.53 -0.84 0.08
1 9.19 919 2.394 -8.117 7.015 1.678 -14.984 -1.221 -914.854 -914.854 -3449.853 -1.852 -0.724 -2.821 -0.08 0.53 -0.84 0.08
1 9.20 920 2.552 -9.237 6.967 3.021 -0.153 10.864 -1109.877 -1004.945 -3389.892 -1.993 0.400 -2.768 -0.08 0.53 -0.84 0.08
1 9.21 921 1.753 -9.146 6.852 8.270 21.820 18.097 -1109.877 -1004.945 -3389.892 -1.201 0.311 -2.649 -0.08 0.53 -0.84 0.08
1 9.22 922 -0.407 -7.700 5.454 5.432 27.985 14.069 -989.955 -1064.906 -3629.885 0.884 -1.125 -1.220 -0.08 0.53 -0.84 0.08
1 9.23 923 -0.503 -7.532 4.784 0.580 25.147 1.740 -989.955 -1064.906 -3629.885 0.943 -1.285 -0.529 -0.08 0.53 -0.84 0.08
1 9.24 924 -0.297 -7.925 4.568 -0.519 20.416 -10.651 -974.965 -1049.916 -3494.973 0.717 -0.888 -0.302 -0.07 0.53 -0.84 0.08
1 9.25 925 0.330 -8.270 4.544 6.348 10.681 -24.078 -854.893 -1079.896 -3569.924 0.091 -0.538 -0.268 -0.07 0.53 -0.84 0.08
1 9.26 926 1.346 -8.241 4.650 11.871 -0.549 -34.607 -854.893 -1079.896 -3569.924 -0.894 -0.557 -0.357 -0.07 0.52 -0.84 0.08
1 9.27 927 1.882 -7.954 4.616 8.392 -4.974 -40.131 -854.893 -1154.998 -3464.993 -1.374 -0.831 -0.302 -0.08 0.52 -0.85 0.07
1 9.28 928 1.662 -7.667 4.415 1.434 -4.944 -36.987 -854.893 -1154.998 -3464.993 -1.087 -1.105 -0.082 -0.08 0.52 -0.85 0.07
1 9.29 929 1.293 -7.293 4.156 -3.571 -7.355 -29.846 -944.984 -944.984 -3509.963 -0.596 -1.464 0.188 -0.08 0.52 -0.85 0.07
1 9.30 930 1.188 -7.097 4.089 -6.653 -7.568 -23.499 -944.984 -944.984 -3509.963 -0.447 -1.659 0.251 -0.08 0.52 -0.85 0.06
1 9.31 931 0.623 -6.939 4.003 -10.468 -6.287 -17.731 -869.883 -1139.857 -3479.983 0.154 -1.818 0.328 -0.09 0.52 -0.85 0.06
1 9.32 932 0.091 -6.747 3.797 -11.017 -4.578 -13.062 -944.984 -1139.857 -3584.915 0.712 -2.013 0.521 -0.09 0.52 -0.85 0.06
1 9.33 933 0.062 -6.776 3.453 -9.247 -2.716 -8.850 -944.984 -1139.857 -3584.915 0.760 -1.989 0.853 -0.09 0.52 -0.85 0.06
1 9.34 934 0.225 -7.068 3.295 -4.700 1.556 -3.601 -1004.945 -1049.916 -3569.924 0.611 -1.701 1.001 -0.09 0.52 -0.85 0.06
1 9.35 935 0.450 -7.264 3.117 -2.106 4.395 1.099 -1004.945 -1049.916 -3569.924 0.393 -1.506 1.173 -0.09 0.52 -0.85 0.06
1 9.36 936 0.924 -7.432 3.007 3.876 8.087 8.240 -1019.936 -1169.988 -3554.934 -0.091 -1.338 1.286 -0.09 0.52 -0.85 0.06
1 9.37 937 0.828 -7.350 2.931 5.402 11.810 11.963 -1019.936 -1169.988 -3554.934 -0.012 -1.417 1.372 -0.09 0.52 -0.85 0.06
1 9.38 938 1.125 -7.360 2.873 6.683 14.221 12.634 -1094.887 -1094.887 -3659.866 -0.333 -1.403 1.441 -0.09 0.52 -0.85 0.06
1 9.39 939 1.283 -7.394 2.696 7.294 16.785 13.062 -1184.978 -1154.998 -3674.856 -0.518 -1.366 1.631 -0.09 0.52 -0.85 0.06
1 9.40 940 1.686 -7.212 2.562 7.538 18.951 13.733 -1184.978 -1154.998 -3674.856 -0.949 -1.544 1.779 -0.08 0.52 -0.85 0.06
1 9.41 941 1.796 -6.881 2.193 7.263 30.029 16.449 -1019.936 -1064.906 -3509.963 -1.091 -1.869 2.162 -0.08 0.52 -0.85 0.07
1 9.42 942 1.815 -6.833 2.040 3.784 32.715 16.480 -1019.936 -1064.906 -3509.963 -1.150 -1.913 2.331 -0.08 0.52 -0.85 0.07
1 9.43 943 1.987 -6.924 1.954 -1.556 32.898 13.672 -929.994 -1199.968 -3494.973 -1.366 -1.820 2.428 -0.08 0.52 -0.85 0.07
1 9.44 944 2.078 -7.690 2.241 -12.756 32.837 11.047 -1019.936 -1139.857 -3659.866 -1.537 -1.059 2.140 -0.07 0.52 -0.85 0.06
1 9.45 945 2.164 -8.006 2.385 -15.137 25.726 9.918 -989.955 -1169.988 -3629.885 -1.657 -0.752 1.983 -0.07 0.52 -0.85 0.06
1 9.46 946 1.743 -8.370 2.639 -17.487 24.994 9.064 -974.965 -1079.896 -3644.875 -1.264 -0.398 1.712 -0.07 0.52 -0.85 0.06
1 9.47 947 0.709 -8.505 2.389 -20.477 30.487 11.047 -974.965 -1079.896 -3644.875 -0.254 -0.278 1.935 -0.07 0.52 -0.85 0.06
1 9.48 948 0.125 -8.686 2.595 -18.250 29.083 14.465 -839.903 -1169.988 -3704.986 0.298 -0.114 1.695 -0.06 0.53 -0.85 0.06
1 9.49 949 -0.029 -8.624 2.935 -18.677 24.475 15.350 -839.903 -1169.988 -3704.986 0.414 -0.194 1.322 -0.06 0.53 -0.84 0.06
1 9.50 950 0.206 -8.816 2.902 -21.607 23.987 15.503 -779.942 -1079.896 -3674.856 0.140 -0.019 1.325 -0.06 0.53 -0.84 0.06
1 9.51 951 0.163 -8.868 2.619 -24.139 21.027 12.878 -839.903 -1064.906 -3554.934 0.111 -0.001 1.539 -0.06 0.53 -0.84 0.06
1 9.52 952 0.804 -8.701 2.677 -23.132 17.487 8.667 -749.961 -1079.896 -3569.924 -0.559 -0.188 1.442 -0.06 0.54 -0.84 0.06
1 9.53 953 1.312 -8.567 2.792 -25.024 20.050 9.430 -629.890 -1124.867 -3599.905 -1.085 -0.340 1.289 -0.05 0.54 -0.84 0.06
1 9.54 954 0.895 -8.634 2.768 -27.313 23.438 11.292 -629.890 -1124.867 -3599.905 -0.686 -0.292 1.273 -0.05 0.54 -0.84 0.06
1 9.55 955 0.584 -8.658 3.989 -25.452 28.046 10.468 -824.913 -1049.916 -3599.905 -0.398 -0.287 0.012 -0.05 0.54 -0.84 0.06
1 9.56 956 -2.078 -11.114 9.338 -41.260 16.174 -8.881 -824.913 -1049.916 -3599.905 2.240 2.154 -5.371 -0.05 0.54 -0.84 0.06
1 9.57 957 -3.165 -13.805 9.003 -64.759 -11.658 -27.100 -704.991 -1124.867 -3539.944 3.320 4.828 -5.075 -0.05 0.55 -0.83 0.06
1 9.58 958 -1.733 -12.072 6.038 -9.735 -5.707 -30.243 -569.929 -959.975 -3599.905 1.978 3.035 -2.256 -0.05 0.55 -0.83 0.06
1 9.59 959 -0.685 -10.645 5.689 6.592 -1.617 -23.316 -690.000 -1094.887 -3509.963 0.970 1.609 -1.907 -0.05 0.55 -0.83 0.06
1 9.60 960 3.601 -8.332 5.569 -29.541 2.747 -5.890 -764.952 -944.984 -3449.853 -3.298 -0.701 -1.781 -0.05 0.55 -0.83 0.05
1 9.61 961 5.459 -10.362 6.283 -62.592 9.338 -5.432 -764.952 -944.984 -3449.853 -5.131 1.313 -2.535 -0.06 0.55 -0.83 0.05
1 9.62 962 5.368 -13.015 6.407 -51.331 6.317 -4.944 -749.961 -1004.945 -3644.875 -5.036 3.932 -2.744 -0.06 0.56 -0.83 0.05
1 9.63 963 2.097 -11.890 5.674 -2.686 4.578 0.671 -749.961 -1004.945 -3644.875 -1.762 2.784 -2.068 -0.06 0.56 -0.83 0.05
1 9.64 964 -0.057 -10.841 5.828 -0.031 14.832 -6.958 -599.909 -1049.916 -3569.924 0.392 1.731 -2.232 -0.06 0.56 -0.83 0.05
1 9.65 965 -1.595 -10.999 6.034 -9.766 8.575 -11.871 -764.952 -1019.936 -3509.963 1.930 1.890 -2.434 -0.06 0.56 -0.83 0.05
1 9.66 966 -2.423 -11.023 5.842 11.414 -1.282 -21.301 -854.893 -929.994 -3539.944 2.792 1.911 -2.255 -0.06 0.56 -0.82 0.05
1 9.67 967 -2.313 -9.936 5.842 27.435 -4.334 -20.599 -749.961 -959.975 -3539.944 2.714 0.835 -2.229 -0.06 0.56 -0.83 0.05
1 9.68 968 -2.193 -9.175 5.837 20.325 -10.986 -18.677 -749.961 -959.975 -3539.944 2.626 0.091 -2.185 -0.06 0.56 -0.83 0.05
1 9.69 969 -1.470 -9.189 5.823 6.592 -19.806 -17.395 -854.893 -1004.945 -3419.872 1.937 0.117 -2.146 -0.06 0.56 -0.83 0.05
1 9.70 970 -0.690 -9.682 5.722 3.143 -23.041 -13.519 -854.893 -1004.945 -3419.872 1.193 0.615 -2.038 -0.06 0.56 -0.83 0.05
1 9.71 971 -0.469 -9.735 5.507 7.202 -18.616 3.326 -839.903 -944.984 -3659.866 1.002 0.672 -1.817 -0.06 0.55 -0.83 0.05
1 9.72 972 -0.872 -9.151 5.349 8.392 -15.289 13.336 -929.994 -884.874 -3644.875 1.417 0.092 -1.650 -0.07 0.55 -0.83 0.05
1 9.73 973 -1.197 -8.782 4.841 7.355 -16.419 22.705 -914.854 -989.955 -3509.963 1.709 -0.264 -1.107 -0.07 0.55 -0.83 0.05
1 9.74 974 -1.149 -8.710 4.722 6.592 -18.097 26.733 -869.883 -989.955 -3554.934 1.626 -0.330 -0.969 -0.07 0.55 -0.83 0.06
1 9.75 975 -1.111 -8.754 4.473 8.179 -16.663 31.189 -869.883 -989.955 -3554.934 1.548 -0.281 -0.702 -0.07 0.55 -0.83 0.06
1 9.76 976 -1.240 -8.615 4.367 13.092 -16.083 33.112 -749.961 -959.975 -3419.872 1.633 -0.414 -0.576 -0.07 0.55 -0.83 0.06
1 9.77 977 -1.221 -8.155 4.247 18.372 -17.853 33.051 -749.961 -959.975 -3419.872 1.566 -0.864 -0.430 -0.06 0.55 -0.83 0.07
1 9.78 978 -1.317 -7.872 4.319 18.799 -20.477 32.745 -839.903 -869.883 -3509.963 1.617 -1.135 -0.470 -0.06 0.55 -0.83 0.07
1 9.79 979 -1.623 -7.671 4.262 16.052 -21.942 32.410 -929.994 -959.975 -3464.993 1.880 -1.323 -0.380 -0.06 0.55 -0.83 0.07
1 9.80 980 -1.604 -7.767 4.104 16.022 -28.839 32.318 -794.932 -1094.887 -3629.885 1.776 -1.205 -0.165 -0.06 0.54 -0.83 0.08
1 9.81 981 -1.652 -7.667 3.989 16.632 -31.433 32.044 -899.864 -929.994 -3569.924 1.785 -1.294 -0.022 -0.06 0.54 -0.83 0.08
1 9.82 982 -1.312 -7.461 3.840 14.923 -37.018 29.816 -899.864 -929.994 -3569.924 1.423 -1.489 0.151 -0.06 0.54 -0.83 0.09
1 9.83 983 -1.403 -7.590 3.821 12.665 -39.459 29.236 -869.883 -1259.929 -3479.983 1.498 -1.350 0.192 -0.06 0.54 -0.83 0.09
1 9.84 984 -1.331 -7.710 3.788 12.024 -41.992 27.588 -869.883 -1259.929 -3479.983 1.412 -1.222 0.244 -0.07 0.54 -0.83 0.09
1 9.85 985 -0.972 -7.887 3.831 9.949 -44.495 22.125 -944.984 -1214.958 -3509.963 1.043 -1.037 0.218 -0.07 0.54 -0.83 0.1
1 9.86 986 -0.781 -7.839 3.611 8.179 -47.913 18.250 -899.864 -1199.968 -3644.875 0.843 -1.078 0.456 -0.07 0.54 -0.83 0.1
1 9.87 987 -0.833 -7.657 3.706 8.972 -52.551 13.580 -899.864 -1199.968 -3644.875 0.900 -1.253 0.373 -0.07 0.54 -0.84 0.1
1 9.88 988 -0.757 -7.566 3.491 9.369 -60.333 7.660 -869.883 -1214.958 -3734.967 0.859 -1.331 0.617 -0.08 0.53 -0.84 0.11
1 9.89 989 -0.704 -7.437 3.261 5.981 -63.568 7.385 -869.883 -1214.958 -3734.967 0.835 -1.454 0.859 -0.08 0.53 -0.84 0.11
1 9.90 990 -1.058 -7.317 2.945 -0.153 -68.543 5.890 -1094.887 -1289.910 -3449.853 1.222 -1.570 1.182 -0.08 0.53 -0.83 0.12
1 9.91 991 -0.891 -7.595 2.686 -8.820 -74.982 5.280 -1094.887 -1289.910 -3449.853 1.092 -1.293 1.438 -0.09 0.53 -0.83 0.12
1 9.92 992 -1.125 -8.232 2.662 -18.189 -79.193 7.324 -929.994 -1079.896 -3674.856 1.369 -0.662 1.446 -0.09 0.53 -0.83 0.12
1 9.93 993 -1.370 -8.639 2.571 -16.602 -82.337 9.796 -1169.988 -1139.857 -3509.963 1.655 -0.265 1.512 -0.1 0.53 -0.83 0.12
