COL1	TIME	ACC_X	ACC_Y	ACC_Z	GYR_X	GYR_Y	GYR_Z	MAG_X	MAG_Y	MAG_Z	LACC_X	LACC_Y	LACC_Z	QUAT_X	QUAT_Y	QUAT_Z	QUAT_W
1 0.48 48 1.207 -9.812 0.555 -0.580 -1.129 1.587 -944.984 -149.902 -2819.963 0.029 0.111 0.086 -0.15 0.67 -0.73 0.07
1 0.49 49 1.298 -9.759 0.603 -1.129 -0.153 0.763 -944.984 -104.932 -2894.914 -0.064 0.058 0.037 -0.15 0.67 -0.73 0.07
1 0.50 50 1.250 -9.826 0.651 -1.160 -0.183 1.129 -944.984 -104.932 -2894.914 -0.016 0.125 -0.011 -0.15 0.67 -0.73 0.07
1 0.51 51 1.188 -9.951 0.728 -0.458 -0.427 0.610 -1004.945 -14.990 -2849.943 0.047 0.250 -0.088 -0.15 0.67 -0.73 0.07
1 0.52 52 1.216 -9.864 0.613 -0.366 -0.519 0.458 -1004.945 -14.990 -2849.943 0.018 0.164 0.027 -0.15 0.67 -0.73 0.07
1 0.53 53 1.307 -9.860 0.517 -1.373 -0.458 0.153 -1079.896 -284.964 -2909.904 -0.073 0.159 0.123 -0.15 0.67 -0.73 0.07
1 0.54 54 1.245 -9.860 0.575 -0.305 -0.092 0.092 -899.864 -44.971 -2774.992 -0.010 0.159 0.065 -0.15 0.67 -0.73 0.07
1 0.55 55 1.293 -9.951 0.527 -0.549 -0.732 0.336 -899.864 -44.971 -2774.992 -0.057 0.250 0.113 -0.15 0.67 -0.73 0.07
1 0.56 56 1.312 -9.726 0.666 -1.862 -2.014 0.366 -1004.945 -119.922 -2879.924 -0.076 0.025 -0.027 -0.15 0.67 -0.73 0.07
1 0.57 57 1.326 -9.711 0.694 -1.129 -0.946 1.526 -1004.945 -119.922 -2879.924 -0.089 0.011 -0.057 -0.15 0.67 -0.73 0.07
1 0.58 58 1.274 -9.788 0.546 -1.190 -0.305 1.312 -929.994 -164.893 -2909.904 -0.035 0.087 0.092 -0.15 0.67 -0.73 0.07
1 0.59 59 1.188 -9.702 0.694 -0.122 0.153 1.495 -929.994 -164.893 -2909.904 0.051 0.001 -0.057 -0.15 0.67 -0.73 0.07
1 0.60 60 1.140 -9.682 0.584 -0.793 -0.244 1.373 -1004.945 -209.863 -2909.904 0.098 -0.018 0.055 -0.15 0.67 -0.73 0.07
1 0.61 61 1.207 -9.764 0.646 -0.519 -0.610 0.671 -854.893 -44.971 -2879.924 0.031 0.063 -0.008 -0.15 0.67 -0.73 0.07
1 0.62 62 1.226 -9.860 0.680 0.000 -0.458 1.190 -854.893 -44.971 -2879.924 0.012 0.159 -0.041 -0.15 0.67 -0.73 0.07
1 0.63 63 1.087 -9.750 0.680 0.092 -0.580 0.824 -1094.887 -104.932 -2819.963 0.150 0.049 -0.041 -0.15 0.67 -0.73 0.07
1 0.64 64 1.135 -9.726 0.646 -0.610 -0.885 1.099 -1079.896 -89.941 -2729.872 0.102 0.025 -0.006 -0.15 0.67 -0.73 0.07
1 0.65 65 1.188 -9.864 0.551 -1.770 -1.312 0.977 -974.965 -164.893 -2879.924 0.049 0.164 0.089 -0.15 0.67 -0.73 0.07
1 0.66 66 1.226 -9.821 0.713 -1.709 -1.495 1.831 -974.965 -164.893 -2879.924 0.010 0.121 -0.075 -0.15 0.67 -0.73 0.07
1 0.67 67 1.216 -9.893 0.579 -1.282 -1.282 1.160 -989.955 -104.932 -2864.934 0.019 0.192 0.059 -0.15 0.67 -0.73 0.07
1 0.68 68 1.192 -9.778 0.579 -1.221 -1.099 1.129 -899.864 -44.971 -2879.924 0.043 0.077 0.059 -0.15 0.67 -0.73 0.07
1 0.69 69 1.336 -9.740 0.541 -1.495 -0.641 1.007 -899.864 -44.971 -2879.924 -0.100 0.039 0.097 -0.15 0.67 -0.73 0.07
1 0.70 70 1.154 -9.754 0.579 -1.190 -0.946 1.099 -1019.936 -74.951 -2819.963 0.081 0.053 0.058 -0.15 0.67 -0.73 0.07
1 0.71 71 1.360 -9.639 0.651 -1.282 -1.740 0.427 -1034.926 -89.941 -2804.973 -0.125 -0.062 -0.014 -0.15 0.67 -0.73 0.07
1 0.72 72 1.288 -9.812 0.618 -1.831 -1.282 1.190 -839.903 -74.951 -2789.982 -0.052 0.111 0.019 -0.15 0.67 -0.73 0.07
1 0.73 73 1.317 -9.702 0.651 -1.282 -0.671 0.732 -839.903 -74.951 -2789.982 -0.081 0.001 -0.014 -0.15 0.67 -0.73 0.07
1 0.74 74 1.231 -9.802 0.771 -0.977 -0.183 1.282 -1004.945 14.990 -2954.875 0.006 0.101 -0.134 -0.15 0.67 -0.73 0.07
1 0.75 75 1.207 -9.850 0.508 -0.549 -0.244 1.434 -989.955 29.980 -2939.885 0.030 0.149 0.130 -0.15 0.67 -0.73 0.07
1 0.76 76 1.355 -9.783 0.699 -1.160 -0.946 1.465 -989.955 29.980 -2939.885 -0.119 0.082 -0.061 -0.15 0.67 -0.73 0.07
1 0.77 77 1.322 -9.797 0.666 -1.526 -0.397 1.373 -1004.945 14.990 -2879.924 -0.086 0.097 -0.028 -0.15 0.67 -0.73 0.07
1 0.78 78 1.274 -9.817 0.618 -1.129 0.153 1.678 -869.883 -74.951 -2789.982 -0.037 0.116 0.020 -0.15 0.67 -0.73 0.07
1 0.79 79 1.097 -9.797 0.781 -1.068 -0.488 1.495 -929.994 -89.941 -2804.973 0.140 0.097 -0.142 -0.15 0.67 -0.73 0.07
1 0.80 80 1.192 -9.706 0.670 -1.190 -1.007 0.427 -929.994 -89.941 -2804.973 0.043 0.006 -0.032 -0.15 0.67 -0.73 0.07
1 0.81 81 1.159 -9.841 0.579 -1.770 -1.404 -0.336 -944.984 -104.932 -2864.934 0.077 0.140 0.059 -0.15 0.67 -0.73 0.07
1 0.82 82 1.288 -9.884 0.761 -0.977 -1.892 0.031 -944.984 -149.902 -2864.934 -0.051 0.183 -0.124 -0.15 0.67 -0.73 0.07
1 0.83 83 1.197 -9.773 0.685 -0.061 -0.671 -0.153 -944.984 -149.902 -2864.934 0.042 0.073 -0.047 -0.15 0.67 -0.73 0.07
1 0.84 84 1.307 -9.831 0.623 -0.885 -1.038 0.275 -989.955 -74.951 -2939.885 -0.067 0.131 0.017 -0.15 0.67 -0.73 0.07
1 0.85 85 1.183 -9.817 0.675 -0.702 -0.671 1.160 -1004.945 -119.922 -2804.973 0.058 0.116 -0.036 -0.15 0.67 -0.73 0.07
1 0.86 86 1.207 -9.855 0.685 -0.763 -0.977 1.556 -1064.906 -149.902 -2864.934 0.034 0.155 -0.046 -0.15 0.67 -0.73 0.07
1 0.87 87 1.235 -9.817 0.646 -0.641 -1.740 1.343 -1064.906 -149.902 -2864.934 0.004 0.116 -0.007 -0.15 0.67 -0.73 0.07
1 0.88 88 1.231 -9.716 0.761 -0.458 -1.190 1.740 -989.955 -104.932 -2939.885 0.009 0.016 -0.122 -0.15 0.67 -0.73 0.07
1 0.89 89 1.245 -9.860 0.584 0.122 -0.824 1.740 -944.984 -74.951 -2789.982 -0.007 0.159 0.056 -0.15 0.67 -0.73 0.07
1 0.90 90 1.264 -9.860 0.690 -0.458 -1.434 2.075 -944.984 -74.951 -2789.982 -0.026 0.159 -0.048 -0.15 0.67 -0.73 0.07
1 0.91 91 1.293 -9.706 0.661 -1.007 -1.801 1.282 -1019.936 -74.951 -2894.914 -0.055 0.006 -0.019 -0.15 0.67 -0.73 0.07
1 0.92 92 1.231 -9.793 0.632 -0.793 -1.068 0.702 -1004.945 -44.971 -2699.891 0.008 0.092 0.009 -0.15 0.67 -0.73 0.07
1 0.93 93 1.393 -9.668 0.824 -1.160 -1.465 0.854 -1034.926 -239.994 -2879.924 -0.154 -0.032 -0.181 -0.15 0.67 -0.73 0.07
1 0.94 94 1.269 -9.826 0.589 -1.221 -1.221 0.366 -1034.926 -239.994 -2879.924 -0.029 0.126 0.054 -0.15 0.67 -0.73 0.07
1 0.95 95 1.240 -9.706 0.613 -0.427 -0.854 0.580 -1019.936 -29.980 -2894.914 0.000 0.007 0.030 -0.15 0.67 -0.73 0.07
1 0.96 96 1.264 -9.682 0.623 -0.397 -0.488 1.129 -899.864 -44.971 -2849.943 -0.023 -0.017 0.020 -0.15 0.67 -0.73 0.07
1 0.97 97 1.231 -9.706 0.608 -0.885 -0.061 1.312 -899.864 -44.971 -2849.943 0.010 0.007 0.035 -0.15 0.67 -0.73 0.07
1 0.98 98 1.149 -9.850 0.637 -1.221 -0.610 1.251 -929.994 -164.893 -2954.875 0.092 0.150 0.006 -0.15 0.67 -0.73 0.07
1 0.99 99 1.250 -9.941 0.704 -1.373 -1.831 0.580 -869.883 -29.980 -2864.934 -0.009 0.241 -0.062 -0.15 0.67 -0.73 0.07
1 1.00 100 1.336 -9.807 0.584 -0.732 -1.770 1.282 -944.984 -74.951 -2714.881 -0.096 0.107 0.059 -0.15 0.67 -0.73 0.07
1 1.01 101 1.226 -9.802 0.618 -1.160 -1.831 1.129 -944.984 -74.951 -2714.881 0.014 0.102 0.024 -0.15 0.67 -0.73 0.07
1 1.02 102 1.245 -9.778 0.589 -1.495 -2.380 2.167 -1019.936 -149.902 -2819.963 -0.005 0.078 0.053 -0.15 0.67 -0.73 0.07
1 1.03 103 1.302 -9.649 0.651 -1.740 -2.472 1.678 -914.854 -179.883 -2894.914 -0.064 -0.051 -0.011 -0.15 0.67 -0.73 0.07
1 1.04 104 1.355 -9.778 0.618 -1.251 -1.160 1.343 -914.854 -179.883 -2894.914 -0.116 0.078 0.022 -0.15 0.67 -0.73 0.07
1 1.05 105 1.283 -9.764 0.623 -1.465 -0.793 1.495 -869.883 -179.883 -2819.963 -0.043 0.064 0.017 -0.15 0.67 -0.73 0.07
1 1.06 106 1.312 -9.812 0.623 -1.099 -1.007 1.343 -869.883 -254.984 -2894.914 -0.072 0.112 0.017 -0.15 0.67 -0.73 0.07
1 1.07 107 1.331 -9.917 0.713 -1.495 -0.519 2.228 -869.883 -254.984 -2894.914 -0.091 0.217 -0.074 -0.15 0.67 -0.73 0.07
1 1.08 108 1.389 -9.850 0.613 -1.190 -0.488 1.373 -974.965 -14.990 -3029.976 -0.147 0.150 0.026 -0.15 0.67 -0.73 0.07
1 1.09 109 1.379 -9.716 0.690 -1.190 -0.458 1.770 -974.965 -89.941 -2909.904 -0.137 0.016 -0.050 -0.15 0.67 -0.73 0.07
1 1.10 110 1.307 -9.702 0.685 -1.648 -0.244 1.617 -869.883 -149.902 -2819.963 -0.065 0.002 -0.045 -0.15 0.67 -0.73 0.07
1 1.11 111 1.331 -9.788 0.828 -1.099 -0.336 1.434 -869.883 -149.902 -2819.963 -0.088 0.088 -0.189 -0.15 0.67 -0.73 0.07
1 1.12 112 1.231 -9.965 0.623 -1.465 0.183 0.732 -989.955 -224.854 -2894.914 0.013 0.265 0.018 -0.15 0.67 -0.73 0.07
1 1.13 113 1.259 -9.778 0.656 -1.709 -0.519 0.061 -1019.936 -104.932 -2969.865 -0.016 0.079 -0.015 -0.15 0.67 -0.73 0.07
1 1.14 114 1.326 -9.841 0.704 -1.160 -0.549 0.244 -1019.936 -104.932 -2969.865 -0.084 0.141 -0.063 -0.15 0.67 -0.73 0.07
1 1.15 115 1.307 -9.845 0.594 -1.465 -0.458 0.549 -1004.945 -209.863 -2849.943 -0.064 0.146 0.047 -0.15 0.67 -0.73 0.07
1 1.16 116 1.173 -9.941 0.642 -1.068 0.031 0.275 -1019.936 -104.932 -2819.963 0.070 0.241 -0.001 -0.15 0.67 -0.73 0.07
1 1.17 117 1.245 -9.821 0.776 -1.984 -0.397 0.427 -929.994 -89.941 -2774.992 -0.001 0.122 -0.134 -0.15 0.67 -0.73 0.07
1 1.18 118 1.240 -9.773 0.713 -0.702 -0.977 0.214 -929.994 -89.941 -2774.992 0.003 0.074 -0.072 -0.15 0.67 -0.73 0.07
1 1.19 119 1.298 -9.793 0.675 -0.641 -0.793 1.190 -974.965 -89.941 -2804.973 -0.055 0.093 -0.033 -0.15 0.67 -0.73 0.07
1 1.20 120 1.283 -9.864 0.589 -0.793 -0.580 1.587 -944.984 -149.902 -2864.934 -0.040 0.165 0.053 -0.15 0.67 -0.73 0.07
1 1.21 121 1.183 -9.740 0.603 -0.153 -0.275 1.862 -944.984 -149.902 -2864.934 0.061 0.040 0.039 -0.15 0.67 -0.73 0.07
1 1.22 122 1.197 -9.874 0.728 -1.251 -1.129 1.160 -914.854 0.000 -2894.914 0.045 0.174 -0.086 -0.15 0.67 -0.73 0.07
1 1.23 123 1.226 -9.730 0.627 -0.793 -1.190 0.946 -929.994 -164.893 -2954.875 0.016 0.031 0.015 -0.15 0.67 -0.73 0.07
1 1.24 124 1.331 -9.807 0.608 -0.244 -0.641 1.099 -974.965 -89.941 -2729.872 -0.090 0.107 0.034 -0.15 0.67 -0.73 0.07
1 1.25 125 1.259 -9.802 0.670 -1.282 -0.580 1.129 -974.965 -89.941 -2729.872 -0.017 0.102 -0.029 -0.15 0.67 -0.73 0.07
1 1.26 126 1.283 -9.692 0.517 -1.587 -1.709 0.946 -1004.945 -44.971 -2774.992 -0.041 -0.008 0.124 -0.15 0.67 -0.73 0.07
1 1.27 127 1.346 -9.879 0.642 -2.106 -1.831 0.427 -989.955 -74.951 -3014.986 -0.103 0.179 -0.001 -0.15 0.67 -0.73 0.07
1 1.28 128 1.355 -9.888 0.618 -1.343 -0.153 0.793 -989.955 -74.951 -3014.986 -0.111 0.189 0.021 -0.15 0.67 -0.73 0.07
1 1.29 129 1.226 -9.917 0.589 -1.221 0.854 1.587 -929.994 -44.971 -2909.904 0.020 0.218 0.050 -0.15 0.67 -0.73 0.07
1 1.30 130 1.245 -9.692 0.646 -1.129 -0.671 1.312 -824.913 -164.893 -2954.875 -0.001 -0.008 -0.008 -0.15 0.67 -0.73 0.07
1 1.31 131 1.226 -9.807 0.713 -1.434 -0.732 1.007 -944.984 -74.951 -2894.914 0.018 0.107 -0.075 -0.15 0.67 -0.73 0.07
1 1.32 132 1.255 -9.817 0.781 -1.648 -0.793 1.160 -944.984 -74.951 -2894.914 -0.011 0.117 -0.142 -0.15 0.67 -0.73 0.07
1 1.33 133 1.384 -9.769 0.608 -0.610 -0.610 1.465 -974.965 -119.922 -2849.943 -0.140 0.069 0.031 -0.15 0.67 -0.73 0.07
1 1.34 134 1.245 -9.807 0.532 -1.251 -0.610 0.946 -839.903 -224.854 -2819.963 -0.001 0.107 0.107 -0.15 0.67 -0.73 0.07
1 1.35 135 1.231 -9.864 0.781 -1.465 -1.007 1.068 -839.903 -224.854 -2819.963 0.014 0.165 -0.142 -0.15 0.67 -0.73 0.07
1 1.36 136 1.269 -9.711 0.522 -1.343 -1.373 0.427 -749.961 14.990 -2954.875 -0.025 0.012 0.116 -0.15 0.67 -0.73 0.07
1 1.37 137 1.255 -9.711 0.670 -1.251 -0.397 0.153 -989.955 -74.951 -2864.934 -0.010 0.012 -0.033 -0.15 0.67 -0.73 0.07
1 1.38 138 1.370 -9.769 0.694 -1.373 -0.366 0.732 -1004.945 -44.971 -2909.904 -0.125 0.069 -0.057 -0.15 0.67 -0.73 0.07
1 1.39 139 1.154 -9.826 0.642 -1.495 -0.061 0.854 -1004.945 -44.971 -2909.904 0.091 0.127 -0.004 -0.15 0.67 -0.73 0.07
1 1.40 140 1.231 -9.769 0.694 -1.312 -0.397 0.793 -899.864 -44.971 -2804.973 0.014 0.069 -0.057 -0.15 0.67 -0.73 0.07
1 1.41 141 1.207 -9.845 0.555 -0.702 -0.549 1.038 -1064.906 -224.854 -2864.934 0.038 0.146 0.082 -0.15 0.67 -0.73 0.07
1 1.42 142 1.231 -9.845 0.627 -1.495 -1.312 0.183 -1064.906 -224.854 -2864.934 0.014 0.146 0.010 -0.15 0.67 -0.73 0.07
1 1.43 143 1.307 -9.850 0.579 -0.793 -1.526 0.458 -794.932 -104.932 -2939.885 -0.064 0.150 0.057 -0.15 0.67 -0.73 0.07
1 1.44 144 1.360 -9.850 0.713 -0.488 -1.404 1.312 -869.883 0.000 -2864.934 -0.116 0.150 -0.077 -0.15 0.67 -0.73 0.07
1 1.45 145 1.288 -9.812 0.737 -1.038 -0.854 1.099 -974.965 -164.893 -2984.855 -0.044 0.112 -0.101 -0.15 0.67 -0.73 0.07
1 1.46 146 1.370 -9.864 0.661 -2.014 -1.282 1.465 -974.965 -164.893 -2984.855 -0.125 0.165 -0.024 -0.15 0.67 -0.73 0.07
1 1.47 147 1.178 -9.821 0.709 -1.068 -1.495 1.495 -914.854 -104.932 -2789.982 0.067 0.122 -0.072 -0.15 0.67 -0.73 0.07
1 1.48 148 1.259 -9.874 0.685 -0.946 -1.099 1.770 -914.854 -179.883 -2789.982 -0.014 0.174 -0.048 -0.15 0.67 -0.73 0.07
1 1.49 149 1.264 -9.836 0.666 -0.916 -1.099 1.617 -914.854 -179.883 -2789.982 -0.019 0.136 -0.029 -0.15 0.67 -0.73 0.07
1 1.50 150 1.298 -9.769 0.618 -1.190 -0.824 1.709 -944.984 -104.932 -2714.881 -0.053 0.069 0.020 -0.15 0.67 -0.73 0.07
1 1.51 151 1.274 -9.773 0.632 -0.977 -1.068 1.526 -944.984 -104.932 -2714.881 -0.029 0.074 0.006 -0.15 0.67 -0.73 0.07
1 1.52 152 1.202 -9.850 0.488 -0.793 -1.068 0.702 -839.903 29.980 -2864.934 0.044 0.151 0.149 -0.15 0.67 -0.73 0.07
1 1.53 153 1.197 -9.955 0.713 -1.678 -0.641 0.305 -839.903 29.980 -2864.934 0.048 0.256 -0.076 -0.15 0.67 -0.73 0.07
1 1.54 154 1.312 -9.860 0.646 -1.221 -1.007 0.519 -929.994 -164.893 -2879.924 -0.067 0.160 -0.009 -0.15 0.67 -0.73 0.07
1 1.55 155 1.283 -9.855 0.599 -0.854 -0.916 0.519 -914.854 -74.951 -2789.982 -0.038 0.155 0.039 -0.15 0.67 -0.73 0.07
1 1.56 156 1.317 -9.726 0.599 -0.458 -1.617 0.885 -914.854 -74.951 -2789.982 -0.072 0.026 0.038 -0.15 0.67 -0.73 0.07
1 1.57 157 1.427 -9.706 0.699 -1.343 -0.732 0.946 -989.955 0.000 -2789.982 -0.181 0.007 -0.062 -0.15 0.67 -0.73 0.07
1 1.58 158 1.336 -9.850 0.651 -0.885 -0.488 0.946 -989.955 0.000 -2789.982 -0.090 0.151 -0.014 -0.15 0.67 -0.73 0.07
1 1.59 159 1.164 -9.812 0.570 -1.678 -0.183 1.373 -989.955 -149.902 -2894.914 0.084 0.112 0.067 -0.15 0.67 -0.73 0.07
1 1.60 160 1.149 -9.721 0.546 -0.854 -0.183 1.831 -989.955 -149.902 -2894.914 0.098 0.021 0.091 -0.15 0.67 -0.73 0.07
1 1.61 161 1.245 -9.706 0.656 -0.824 -0.580 1.678 -929.994 44.971 -2879.924 0.001 0.007 -0.020 -0.15 0.67 -0.73 0.07
1 1.62 162 1.154 -9.826 0.646 -0.763 -1.251 1.556 -854.893 -119.922 -2804.973 0.092 0.127 -0.010 -0.15 0.67 -0.73 0.07
1 1.63 163 1.164 -9.788 0.551 -0.885 -1.190 1.129 -854.893 -119.922 -2804.973 0.082 0.088 0.086 -0.15 0.67 -0.73 0.07
1 1.64 164 1.341 -9.802 0.627 -0.458 -0.366 0.793 -1079.896 -119.922 -2849.943 -0.096 0.102 0.009 -0.15 0.67 -0.73 0.07
1 1.65 165 1.288 -9.817 0.541 -1.221 -1.099 0.610 -1079.896 -119.922 -2849.943 -0.043 0.117 0.095 -0.15 0.67 -0.73 0.07
1 1.66 166 1.393 -9.740 0.608 -1.404 -0.824 0.793 -1094.887 -149.902 -2819.963 -0.148 0.040 0.028 -0.15 0.67 -0.73 0.07
1 1.67 167 1.255 -9.841 0.484 -1.953 -1.007 0.488 -1094.887 -149.902 -2819.963 -0.008 0.141 0.152 -0.15 0.67 -0.73 0.07
1 1.68 168 1.456 -9.793 0.713 -1.526 -0.031 1.312 -929.994 -119.922 -2879.924 -0.209 0.093 -0.078 -0.15 0.67 -0.73 0.07
1 1.69 169 1.216 -9.826 0.584 -1.099 -0.305 1.312 -899.864 -14.990 -2879.924 0.031 0.127 0.052 -0.15 0.67 -0.73 0.07
1 1.70 170 1.269 -9.850 0.623 -0.580 0.061 1.831 -899.864 -14.990 -2879.924 -0.022 0.151 0.013 -0.15 0.67 -0.73 0.07
1 1.71 171 1.235 -9.951 0.632 -1.465 -0.092 2.258 -929.994 -119.922 -2954.875 0.011 0.251 0.003 -0.15 0.67 -0.73 0.07
1 1.72 172 1.312 -9.750 0.675 -1.312 -1.007 1.556 -929.994 -119.922 -2954.875 -0.067 0.050 -0.040 -0.15 0.67 -0.73 0.07
1 1.73 173 1.389 -9.783 0.651 -0.214 -1.038 1.617 -734.971 74.951 -2894.914 -0.144 0.083 -0.017 -0.15 0.67 -0.73 0.07
1 1.74 174 1.279 -9.970 0.618 -1.160 -0.641 1.312 -1064.906 -104.932 -2819.963 -0.034 0.270 0.017 -0.15 0.67 -0.73 0.07
1 1.75 175 1.250 -9.812 0.594 -1.099 0.092 1.068 -929.994 -119.922 -2879.924 -0.005 0.112 0.041 -0.15 0.67 -0.73 0.07
1 1.76 176 1.331 -9.759 0.584 -0.824 -0.916 0.854 -944.984 -74.951 -2864.934 -0.086 0.059 0.050 -0.15 0.67 -0.73 0.07
1 1.77 177 1.202 -9.793 0.637 -0.336 -0.854 -0.305 -944.984 -74.951 -2864.934 0.043 0.093 -0.003 -0.15 0.67 -0.73 0.07
1 1.78 178 1.221 -9.855 0.579 -1.373 -0.732 0.305 -914.854 -179.883 -2819.963 0.025 0.155 0.055 -0.15 0.67 -0.73 0.07
1 1.79 179 1.312 -9.855 0.551 -1.099 -0.824 0.641 -914.854 -179.883 -2819.963 -0.066 0.155 0.083 -0.15 0.67 -0.73 0.07
1 1.80 180 1.188 -9.836 0.608 -0.763 -1.129 1.343 -989.955 -29.980 -2789.982 0.059 0.136 0.025 -0.15 0.67 -0.73 0.07
1 1.81 181 1.183 -9.687 0.555 -0.824 -1.129 0.916 -989.955 -29.980 -2789.982 0.064 -0.012 0.078 -0.15 0.67 -0.73 0.07
1 1.82 182 1.307 -9.706 0.704 -1.556 -0.397 2.014 -944.984 -29.980 -2894.914 -0.061 0.007 -0.071 -0.15 0.67 -0.73 0.07
1 1.83 183 1.235 -9.797 0.508 -0.580 -0.519 1.587 -944.984 -299.955 -2819.963 0.011 0.098 0.125 -0.15 0.67 -0.73 0.07
1 1.84 184 1.178 -9.850 0.579 -1.068 -1.251 0.671 -944.984 -299.955 -2819.963 0.068 0.150 0.053 -0.15 0.67 -0.73 0.07
1 1.85 185 1.346 -9.754 0.704 -0.397 -1.801 0.061 -974.965 -44.971 -2729.872 -0.100 0.054 -0.072 -0.15 0.67 -0.73 0.07
1 1.86 186 1.302 -9.989 0.608 -0.214 -2.106 0.275 -974.965 -44.971 -2729.872 -0.056 0.289 0.025 -0.15 0.67 -0.73 0.07
1 1.87 187 1.288 -9.855 0.675 -0.671 -2.075 -0.031 -899.864 -164.893 -2729.872 -0.039 0.155 -0.042 -0.15 0.67 -0.73 0.07
1 1.88 188 1.283 -9.807 0.618 -0.397 -1.068 0.336 -974.965 -14.990 -2849.943 -0.032 0.108 0.017 -0.15 0.67 -0.73 0.07
1 1.89 189 1.264 -9.874 0.575 -0.641 -1.282 0.671 -1004.945 14.990 -2849.943 -0.012 0.175 0.060 -0.15 0.67 -0.73 0.07
1 1.90 190 1.346 -9.817 0.570 -0.427 -1.038 0.488 -944.984 -74.951 -2819.963 -0.094 0.118 0.065 -0.15 0.67 -0.73 0.07
1 1.91 191 1.322 -9.778 0.618 -0.305 -0.946 0.824 -944.984 -74.951 -2819.963 -0.069 0.079 0.017 -0.15 0.67 -0.73 0.07
1 1.92 192 1.331 -9.860 0.675 -0.214 -0.946 0.702 -914.854 -74.951 -2864.934 -0.078 0.161 -0.040 -0.15 0.67 -0.73 0.07
1 1.93 193 1.302 -9.788 0.589 -0.519 -0.885 1.495 -914.854 -74.951 -2864.934 -0.050 0.089 0.046 -0.15 0.67 -0.73 0.07
1 1.94 194 1.144 -9.821 0.709 -0.122 -0.610 1.678 -929.994 -119.922 -2879.924 0.109 0.123 -0.074 -0.15 0.67 -0.73 0.07
1 1.95 195 1.279 -9.745 0.627 -0.153 -0.427 1.984 -974.965 -89.941 -2804.973 -0.025 0.046 0.008 -0.15 0.67 -0.73 0.07
1 1.96 196 1.259 -9.831 0.608 -0.305 -0.854 1.312 -899.864 -119.922 -2699.891 -0.007 0.132 0.028 -0.15 0.67 -0.73 0.07
1 1.97 197 1.288 -9.908 0.742 0.336 -0.366 1.617 -974.965 -14.990 -2984.855 -0.035 0.209 -0.106 -0.15 0.67 -0.73 0.07
1 1.98 198 1.212 -9.797 0.680 0.275 0.061 1.892 -974.965 -14.990 -2984.855 0.041 0.099 -0.040 -0.15 0.67 -0.73 0.07
1 1.99 199 1.374 -9.716 0.666 -0.244 -0.366 1.953 -899.864 -14.990 -2909.904 -0.124 0.017 -0.024 -0.15 0.67 -0.73 0.07
1 2.00 200 1.336 -9.807 0.737 0.458 0.000 2.106 -899.864 -14.990 -2909.904 -0.084 0.108 -0.096 -0.15 0.67 -0.73 0.07
1 2.01 201 1.312 -9.697 0.613 0.824 0.153 1.587 -914.854 -29.980 -2819.963 -0.061 -0.002 0.032 -0.15 0.67 -0.73 0.07
1 2.02 202 1.226 -9.793 0.637 -0.183 0.671 2.228 -989.955 -74.951 -2714.881 0.024 0.094 0.010 -0.15 0.67 -0.73 0.07
1 2.03 203 1.322 -9.788 0.613 0.122 0.427 1.434 -1004.945 -209.863 -2954.875 -0.073 0.089 0.037 -0.15 0.67 -0.73 0.07
1 2.04 204 1.226 -9.860 0.637 -0.916 -0.397 0.793 -974.965 -89.941 -2909.904 0.022 0.161 0.014 -0.15 0.67 -0.73 0.07
1 2.05 205 1.322 -9.855 0.570 0.031 -0.610 0.916 -974.965 -89.941 -2909.904 -0.074 0.156 0.080 -0.15 0.67 -0.73 0.07
1 2.06 206 1.312 -9.730 0.651 -0.183 0.732 1.251 -914.854 -74.951 -2819.963 -0.064 0.032 -0.001 -0.15 0.67 -0.73 0.07
1 2.07 207 1.245 -9.769 0.498 -0.061 0.397 1.068 -914.854 -74.951 -2819.963 0.003 0.070 0.154 -0.15 0.67 -0.73 0.07
1 2.08 208 1.144 -9.845 0.723 -0.763 -0.458 1.709 -989.955 -104.932 -2894.914 0.103 0.147 -0.071 -0.15 0.67 -0.73 0.07
1 2.09 209 1.259 -9.874 0.752 -1.007 -0.458 2.625 -974.965 -89.941 -2849.943 -0.012 0.176 -0.100 -0.15 0.67 -0.73 0.07
1 2.10 210 1.259 -9.778 0.632 -0.671 0.275 3.448 -1019.936 -74.951 -2894.914 -0.015 0.080 0.022 -0.15 0.67 -0.73 0.07
1 2.11 211 1.226 -9.716 0.618 -0.519 0.366 3.204 -869.883 -149.902 -2969.865 0.015 0.017 0.037 -0.15 0.67 -0.73 0.07
1 2.12 212 1.144 -9.764 0.642 -1.251 -0.549 2.594 -869.883 -149.902 -2969.865 0.093 0.064 0.013 -0.15 0.67 -0.73 0.07
1 2.13 213 1.202 -9.769 0.623 -1.556 -1.373 1.282 -989.955 -74.951 -2789.982 0.033 0.069 0.032 -0.15 0.67 -0.73 0.07
1 2.14 214 1.288 -9.735 0.536 -1.099 -1.892 1.373 -989.955 -74.951 -2789.982 -0.054 0.035 0.118 -0.15 0.67 -0.73 0.07
1 2.15 215 1.279 -9.807 0.536 -0.641 -0.732 1.068 -1154.998 -44.971 -2954.875 -0.045 0.107 0.117 -0.15 0.67 -0.73 0.07
1 2.16 216 1.360 -9.898 0.555 -1.129 -0.366 1.709 -929.994 -164.893 -2879.924 -0.126 0.198 0.098 -0.15 0.67 -0.73 0.07
1 2.17 217 1.350 -9.740 0.503 -1.740 -0.153 2.045 -929.994 -164.893 -2879.924 -0.116 0.040 0.150 -0.15 0.67 -0.73 0.07
1 2.18 218 1.336 -9.711 0.575 -1.556 -0.885 1.465 -929.994 -14.990 -2909.904 -0.100 0.011 0.076 -0.15 0.67 -0.73 0.07
1 2.19 219 1.274 -9.817 0.608 -1.984 -0.122 1.617 -929.994 -14.990 -2909.904 -0.037 0.117 0.041 -0.15 0.67 -0.73 0.07
1 2.20 220 1.140 -9.869 0.555 -2.045 1.007 3.174 -989.955 -29.980 -2969.865 0.095 0.169 0.092 -0.15 0.67 -0.73 0.07
1 2.21 221 1.097 -9.850 0.603 -2.411 1.221 2.930 -989.955 -29.980 -2969.865 0.135 0.149 0.043 -0.15 0.67 -0.73 0.07
1 2.22 222 1.149 -9.764 0.541 -1.434 -1.678 2.106 -914.854 -29.980 -2939.885 0.079 0.063 0.103 -0.15 0.67 -0.73 0.07
1 2.23 223 1.288 -9.716 0.551 -1.007 -2.136 1.892 -1079.896 -89.941 -2849.943 -0.062 0.014 0.092 -0.15 0.67 -0.73 0.07
1 2.24 224 1.216 -9.807 0.737 -2.228 -1.678 2.747 -914.854 -224.854 -2864.934 0.008 0.105 -0.095 -0.15 0.67 -0.73 0.07
1 2.25 225 1.231 -9.812 0.618 -2.228 -0.336 2.930 -989.955 -179.883 -2819.963 -0.009 0.109 0.023 -0.15 0.67 -0.73 0.07
1 2.26 226 1.212 -9.778 0.723 -1.953 0.000 3.052 -989.955 -179.883 -2819.963 0.007 0.075 -0.085 -0.15 0.67 -0.73 0.07
1 2.27 227 1.274 -9.788 0.627 -1.495 0.275 3.632 -944.984 -29.980 -2894.914 -0.058 0.084 0.011 -0.15 0.67 -0.73 0.07
1 2.28 228 1.231 -9.826 0.575 -1.404 -0.153 2.472 -944.984 -29.980 -2894.914 -0.019 0.122 0.063 -0.15 0.67 -0.73 0.07
1 2.29 229 1.274 -9.740 0.637 -1.862 -0.458 2.319 -1094.887 -74.951 -2939.885 -0.063 0.036 -0.001 -0.15 0.67 -0.73 0.07
1 2.30 230 1.312 -9.726 0.728 -2.747 0.946 1.740 -1094.887 -29.980 -2939.885 -0.103 0.021 -0.093 -0.15 0.67 -0.73 0.07
1 2.31 231 1.250 -9.802 0.651 -2.350 2.899 0.458 -1094.887 -29.980 -2939.885 -0.040 0.098 -0.018 -0.15 0.67 -0.73 0.07
1 2.32 232 1.106 -9.750 0.536 -1.678 1.648 0.763 -839.903 -104.932 -2789.982 0.105 0.045 0.094 -0.15 0.67 -0.73 0.07
1 2.33 233 1.101 -9.769 0.666 -2.045 0.122 1.556 -839.903 -104.932 -2789.982 0.109 0.064 -0.036 -0.15 0.67 -0.73 0.07
1 2.34 234 1.135 -9.797 0.685 -2.808 0.153 1.099 -794.932 -29.980 -2789.982 0.074 0.093 -0.057 -0.15 0.67 -0.73 0.07
1 2.35 235 1.144 -9.793 0.694 -2.716 0.763 1.190 -794.932 -29.980 -2789.982 0.063 0.087 -0.069 -0.15 0.67 -0.73 0.07
1 2.36 236 1.212 -9.788 0.584 -1.770 0.427 1.038 -764.952 -29.980 -2789.982 -0.005 0.083 0.040 -0.15 0.67 -0.73 0.07
1 2.37 237 1.178 -9.951 0.632 -1.617 -1.465 -0.519 -854.893 -89.941 -2909.904 0.029 0.245 -0.009 -0.15 0.67 -0.73 0.07
1 2.38 238 1.125 -9.821 0.690 -0.854 -2.075 -0.397 -854.893 -89.941 -2909.904 0.082 0.116 -0.066 -0.15 0.67 -0.73 0.07
1 2.39 239 1.255 -9.855 0.776 -1.495 -1.068 0.366 -839.903 -29.980 -3044.966 -0.044 0.150 -0.152 -0.15 0.67 -0.73 0.07
1 2.40 240 1.298 -9.836 0.713 -2.106 0.519 1.678 -839.903 -29.980 -3044.966 -0.087 0.131 -0.089 -0.15 0.67 -0.73 0.07
1 2.41 241 1.149 -9.893 0.661 -1.770 0.458 1.404 -854.893 -44.971 -2774.992 0.061 0.188 -0.037 -0.15 0.67 -0.73 0.07
1 2.42 242 1.221 -9.764 0.761 -1.038 -0.214 0.427 -854.893 -44.971 -2774.992 -0.012 0.059 -0.137 -0.15 0.67 -0.73 0.07
1 2.43 243 1.116 -9.706 0.757 -1.251 -1.434 -0.397 -1034.926 14.990 -2879.924 0.093 0.001 -0.132 -0.15 0.67 -0.73 0.07
1 2.44 244 1.053 -9.817 0.685 -0.977 -2.258 -0.885 -899.864 -44.971 -2774.992 0.156 0.112 -0.060 -0.15 0.67 -0.73 0.07
1 2.45 245 1.231 -9.817 0.690 -0.336 -1.770 -0.610 -899.864 -44.971 -2774.992 -0.018 0.112 -0.064 -0.15 0.67 -0.73 0.07
1 2.46 246 1.312 -9.750 0.781 -0.549 -1.617 -0.916 -944.984 0.000 -2864.934 -0.097 0.045 -0.154 -0.15 0.67 -0.73 0.07
1 2.47 247 1.317 -9.826 0.733 -0.824 -1.251 -0.244 -1079.896 -164.893 -2909.904 -0.097 0.123 -0.105 -0.15 0.67 -0.73 0.07
1 2.48 248 1.192 -9.745 0.723 -0.427 -0.916 -0.397 -839.903 -149.902 -2759.852 0.029 0.042 -0.094 -0.15 0.67 -0.73 0.07
1 2.49 249 1.216 -9.702 0.656 -0.214 -0.519 -1.282 -839.903 -149.902 -2759.852 0.008 -0.001 -0.025 -0.15 0.67 -0.73 0.07
1 2.50 250 1.106 -9.750 0.809 0.336 -2.441 -2.228 -944.984 -149.902 -2894.914 0.122 0.047 -0.177 -0.15 0.67 -0.73 0.07
1 2.51 251 1.164 -9.730 0.800 -0.275 -3.662 -3.754 -974.965 -44.971 -2804.973 0.069 0.029 -0.164 -0.15 0.67 -0.73 0.07
1 2.52 252 1.283 -9.960 0.761 0.519 -5.249 -5.280 -974.965 -44.971 -2804.973 -0.043 0.260 -0.124 -0.15 0.67 -0.73 0.07
1 2.53 253 1.293 -9.917 0.771 1.099 -5.310 -5.554 -854.893 -14.990 -2804.973 -0.043 0.218 -0.131 -0.15 0.67 -0.73 0.07
1 2.54 254 1.331 -10.195 0.776 2.350 -6.592 -3.998 -944.984 -179.883 -2864.934 -0.062 0.499 -0.127 -0.15 0.67 -0.73 0.07
1 2.55 255 1.317 -10.281 0.857 3.204 -9.338 -4.517 -974.965 -164.893 -2804.973 -0.039 0.587 -0.204 -0.15 0.67 -0.73 0.07
1 2.56 256 1.393 -10.257 1.010 5.768 -11.932 -4.669 -974.965 -164.893 -2804.973 -0.107 0.564 -0.350 -0.15 0.67 -0.73 0.07
1 2.57 257 1.580 -10.161 0.977 8.881 -13.672 -5.798 -989.955 -179.883 -2939.885 -0.283 0.471 -0.307 -0.16 0.66 -0.73 0.07
1 2.58 258 1.628 -9.989 1.068 10.254 -14.496 -5.737 -1034.926 -44.971 -2849.943 -0.318 0.301 -0.382 -0.16 0.66 -0.73 0.07
1 2.59 259 1.590 -10.094 1.025 7.721 -13.489 -6.287 -1034.926 -44.971 -2849.943 -0.267 0.410 -0.322 -0.16 0.66 -0.73 0.07
1 2.60 260 1.623 -9.989 0.876 8.850 -14.771 -6.866 -1004.945 -14.990 -2804.973 -0.287 0.307 -0.160 -0.16 0.66 -0.73 0.07
1 2.61 261 1.700 -9.635 0.862 14.252 -19.104 -5.035 -974.965 -119.922 -2954.875 -0.336 -0.041 -0.116 -0.16 0.66 -0.73 0.07
1 2.62 262 1.791 -9.630 0.852 13.275 -19.135 -4.944 -1004.945 -89.941 -2909.904 -0.413 -0.043 -0.088 -0.16 0.66 -0.73 0.07
1 2.63 263 1.891 -9.433 0.733 9.094 -16.113 -2.686 -1004.945 -89.941 -2909.904 -0.502 -0.236 0.047 -0.16 0.66 -0.73 0.07
1 2.64 264 2.021 -9.529 0.723 9.338 -13.367 -0.977 -1004.945 -164.893 -2984.855 -0.621 -0.138 0.069 -0.16 0.66 -0.73 0.07
1 2.65 265 2.040 -9.601 0.656 10.193 -12.299 -0.275 -1094.887 -104.932 -2894.914 -0.631 -0.064 0.148 -0.17 0.66 -0.73 0.07
1 2.66 266 1.872 -9.328 0.618 9.979 -10.834 1.221 -1094.887 -104.932 -2894.914 -0.456 -0.334 0.200 -0.17 0.66 -0.73 0.08
1 2.67 267 1.973 -9.328 0.512 8.545 -9.491 2.563 -1064.906 -224.854 -2894.914 -0.552 -0.333 0.318 -0.17 0.66 -0.73 0.08
1 2.68 268 2.102 -9.323 0.445 4.608 -8.545 4.272 -1019.936 -179.883 -2864.934 -0.675 -0.335 0.404 -0.17 0.65 -0.73 0.08
1 2.69 269 2.073 -9.457 0.469 2.563 -7.446 4.822 -1154.998 -164.893 -2879.924 -0.645 -0.200 0.383 -0.17 0.65 -0.73 0.08
1 2.70 270 2.145 -9.606 0.474 0.610 -3.998 3.265 -1154.998 -164.893 -2879.924 -0.715 -0.052 0.378 -0.17 0.65 -0.73 0.08
1 2.71 271 2.021 -9.582 0.488 0.977 -0.244 2.533 -944.984 -74.951 -2864.934 -0.588 -0.075 0.363 -0.17 0.65 -0.73 0.08
1 2.72 272 1.963 -9.539 0.177 1.007 1.221 3.357 -1034.926 -164.893 -2879.924 -0.528 -0.118 0.676 -0.17 0.65 -0.73 0.08
1 2.73 273 2.045 -9.572 0.239 0.763 0.000 5.157 -1034.926 -164.893 -2879.924 -0.610 -0.085 0.612 -0.17 0.65 -0.73 0.08
1 2.74 274 2.409 -9.750 0.541 -3.235 1.465 5.920 -1139.857 -224.854 -2864.934 -0.976 0.092 0.308 -0.17 0.65 -0.73 0.08
1 2.75 275 2.509 -9.927 0.771 -6.470 8.789 6.317 -1004.945 -119.922 -2954.875 -1.078 0.269 0.073 -0.17 0.65 -0.73 0.08
1 2.76 276 1.738 -10.118 0.541 -2.777 19.013 3.204 -1019.936 -179.883 -2969.865 -0.310 0.459 0.291 -0.17 0.66 -0.73 0.08
1 2.77 277 1.384 -10.157 0.436 0.549 18.494 1.556 -1019.936 -179.883 -2969.865 0.043 0.497 0.397 -0.17 0.66 -0.73 0.07
1 2.78 278 1.034 -10.147 0.450 1.129 13.825 1.678 -1109.877 -164.893 -2954.875 0.389 0.487 0.387 -0.17 0.66 -0.73 0.07
1 2.79 279 1.216 -9.975 0.613 0.824 8.179 2.960 -929.994 -14.990 -2909.904 0.202 0.314 0.227 -0.16 0.66 -0.73 0.07
1 2.80 280 1.350 -9.917 0.819 0.549 7.263 3.662 -929.994 -14.990 -2909.904 0.061 0.256 0.024 -0.16 0.66 -0.73 0.07
1 2.81 281 1.609 -10.003 0.833 1.526 11.078 2.502 -974.965 -89.941 -2954.875 -0.202 0.342 0.013 -0.16 0.66 -0.73 0.07
1 2.82 282 1.623 -9.869 0.804 4.761 14.038 2.106 -1064.906 0.000 -3074.947 -0.218 0.208 0.048 -0.16 0.66 -0.73 0.07
1 2.83 283 1.130 -9.539 0.785 6.165 16.205 3.448 -1064.906 -254.984 -2894.914 0.270 -0.121 0.091 -0.16 0.66 -0.73 0.07
1 2.84 284 0.905 -9.505 0.910 2.808 14.557 3.418 -1064.906 -254.984 -2894.914 0.488 -0.154 -0.020 -0.16 0.66 -0.74 0.07
1 2.85 285 0.733 -9.615 0.737 -1.068 11.292 4.028 -929.994 -119.922 -2984.855 0.652 -0.045 0.160 -0.16 0.66 -0.74 0.07
1 2.86 286 0.790 -9.821 0.747 -2.686 6.439 2.533 -1034.926 -164.893 -2909.904 0.585 0.160 0.151 -0.16 0.66 -0.74 0.07
1 2.87 287 1.068 -9.836 0.809 -0.916 2.167 0.916 -1034.926 -164.893 -2909.904 0.301 0.173 0.087 -0.16 0.66 -0.74 0.07
1 2.88 288 1.499 -9.841 1.006 3.265 -0.031 -1.984 -1064.906 -179.883 -3014.986 -0.133 0.178 -0.108 -0.16 0.66 -0.74 0.07
1 2.89 289 1.580 -9.639 1.173 4.425 2.258 -3.326 -1064.906 -224.854 -2939.885 -0.211 -0.022 -0.270 -0.16 0.66 -0.74 0.07
1 2.90 290 1.686 -9.860 1.197 4.059 6.378 -3.052 -1064.906 -224.854 -2939.885 -0.310 0.200 -0.285 -0.16 0.65 -0.74 0.07
1 2.91 291 1.197 -9.932 1.135 3.540 9.460 -1.282 -974.965 -164.893 -2849.943 0.191 0.275 -0.202 -0.16 0.65 -0.74 0.07
1 2.92 292 0.991 -9.908 1.010 5.310 7.477 -0.092 -944.984 -224.854 -2864.934 0.397 0.253 -0.066 -0.16 0.65 -0.74 0.07
1 2.93 293 1.006 -9.864 1.077 7.019 3.906 -1.068 -899.864 -209.863 -2954.875 0.381 0.210 -0.120 -0.16 0.65 -0.74 0.07
1 2.94 294 0.929 -9.778 1.121 6.500 2.045 0.000 -899.864 -209.863 -2954.875 0.456 0.125 -0.149 -0.15 0.65 -0.74 0.07
1 2.95 295 1.231 -9.721 1.111 5.127 -0.793 -0.427 -1079.896 -164.893 -2954.875 0.152 0.069 -0.128 -0.15 0.65 -0.74 0.07
1 2.96 296 1.279 -9.754 1.020 5.493 -1.068 -0.824 -1019.936 -104.932 -3044.966 0.104 0.103 -0.027 -0.15 0.65 -0.74 0.07
1 2.97 297 1.370 -9.908 0.982 5.951 -0.854 -1.434 -1019.936 -104.932 -3044.966 0.015 0.258 0.022 -0.15 0.65 -0.74 0.07
1 2.98 298 1.398 -9.582 0.919 8.850 0.183 -0.671 -1079.896 -164.893 -3029.976 -0.007 -0.064 0.107 -0.15 0.65 -0.74 0.07
1 2.99 299 1.350 -9.390 0.862 8.728 -0.763 2.838 -1004.945 -209.863 -3104.927 0.041 -0.254 0.179 -0.15 0.65 -0.74 0.07
1 3.00 300 1.599 -9.290 0.862 4.395 -1.160 3.876 -929.994 -239.994 -2954.875 -0.210 -0.354 0.191 -0.15 0.65 -0.74 0.07
1 3.01 301 1.820 -9.376 0.953 1.038 -1.373 2.350 -929.994 -239.994 -2954.875 -0.432 -0.267 0.105 -0.15 0.65 -0.74 0.07
1 3.02 302 1.848 -9.481 0.905 1.221 0.488 2.808 -929.994 -284.964 -3134.908 -0.460 -0.162 0.155 -0.15 0.65 -0.74 0.07
1 3.03 303 1.494 -9.472 0.790 0.946 6.317 2.594 -989.955 -179.883 -3014.986 -0.105 -0.171 0.273 -0.15 0.65 -0.74 0.07
1 3.04 304 1.283 -9.563 0.752 0.275 6.439 0.427 -989.955 -179.883 -3014.986 0.105 -0.080 0.314 -0.15 0.65 -0.74 0.07
1 3.05 305 1.121 -9.553 0.728 0.702 1.312 -1.801 -974.965 -239.994 -3029.976 0.270 -0.088 0.342 -0.15 0.65 -0.74 0.07
1 3.06 306 1.302 -9.592 0.728 0.366 -1.434 -1.770 -929.994 -239.994 -2909.904 0.090 -0.050 0.343 -0.15 0.65 -0.74 0.07
1 3.07 307 1.551 -9.572 0.900 -2.594 -6.531 -1.770 -1034.926 -239.994 -2909.904 -0.154 -0.069 0.166 -0.15 0.65 -0.74 0.07
1 3.08 308 1.872 -9.477 0.709 -1.343 -6.989 -2.869 -1034.926 -239.994 -2909.904 -0.469 -0.164 0.352 -0.15 0.65 -0.74 0.07
1 3.09 309 1.925 -9.457 0.737 -1.282 -4.089 -3.540 -869.883 -149.902 -3044.966 -0.511 -0.182 0.321 -0.16 0.65 -0.74 0.07
1 3.10 310 1.686 -9.366 0.948 -2.869 0.061 -2.289 -914.854 -149.902 -2939.885 -0.261 -0.272 0.108 -0.16 0.65 -0.74 0.07
1 3.11 311 1.499 -9.433 0.757 -3.510 -0.275 -1.129 -914.854 -149.902 -2939.885 -0.066 -0.204 0.296 -0.16 0.65 -0.74 0.07
1 3.12 312 1.551 -9.419 0.852 -4.425 -3.723 0.854 -869.883 -224.854 -3044.966 -0.109 -0.218 0.190 -0.16 0.65 -0.74 0.06
1 3.13 313 1.614 -9.400 1.030 -5.493 -4.578 1.617 -1019.936 -179.883 -2969.865 -0.170 -0.238 0.005 -0.16 0.65 -0.74 0.06
1 3.14 314 1.844 -9.218 0.967 -5.493 -3.906 4.456 -869.883 -104.932 -3014.986 -0.401 -0.421 0.060 -0.16 0.65 -0.74 0.06
1 3.15 315 1.896 -9.113 0.809 -7.721 -1.953 5.554 -869.883 -104.932 -3014.986 -0.455 -0.527 0.210 -0.16 0.65 -0.74 0.06
1 3.16 316 1.944 -9.175 0.886 -11.658 -0.732 6.897 -914.854 -254.984 -3044.966 -0.506 -0.466 0.121 -0.16 0.65 -0.74 0.06
1 3.17 317 1.882 -9.410 0.986 -13.794 0.336 7.843 -1064.906 -179.883 -3014.986 -0.448 -0.234 0.004 -0.16 0.65 -0.74 0.06
1 3.18 318 1.815 -9.568 0.881 -12.970 2.167 7.751 -1064.906 -179.883 -3014.986 -0.387 -0.079 0.091 -0.16 0.65 -0.74 0.07
1 3.19 319 1.786 -9.568 0.824 -10.529 3.021 9.766 -1004.945 -164.893 -2984.855 -0.365 -0.082 0.131 -0.16 0.65 -0.74 0.07
1 3.20 320 2.069 -9.453 0.900 -11.841 5.249 10.803 -839.903 -224.854 -3044.966 -0.668 -0.202 0.027 -0.15 0.65 -0.74 0.07
1 3.21 321 2.088 -9.505 0.943 -16.052 7.111 10.559 -1004.945 -119.922 -3029.976 -0.698 -0.153 -0.033 -0.15 0.66 -0.74 0.06
1 3.22 322 2.045 -9.812 0.958 -17.700 11.017 10.010 -1004.945 -119.922 -3029.976 -0.665 0.150 -0.068 -0.15 0.66 -0.74 0.06
1 3.23 323 1.944 -9.932 1.049 -17.120 15.076 10.925 -929.994 -164.893 -2954.875 -0.574 0.267 -0.179 -0.15 0.66 -0.74 0.06
1 3.24 324 1.781 -10.018 0.838 -16.205 19.470 13.611 -824.913 -314.945 -2984.855 -0.425 0.349 0.012 -0.15 0.66 -0.73 0.06
1 3.25 325 1.537 -9.941 0.584 -16.266 19.531 18.189 -824.913 -314.945 -2984.855 -0.200 0.268 0.246 -0.15 0.66 -0.73 0.06
1 3.26 326 1.743 -9.955 0.867 -18.280 18.219 19.104 -1034.926 -119.922 -3134.908 -0.431 0.278 -0.056 -0.15 0.66 -0.73 0.06
1 3.27 327 1.820 -10.362 0.895 -22.522 23.163 18.677 -854.893 -284.964 -2909.904 -0.559 0.674 -0.132 -0.14 0.66 -0.73 0.06
1 3.28 328 1.882 -10.386 0.967 -19.775 27.954 19.501 -914.854 -149.902 -2864.934 -0.646 0.693 -0.229 -0.14 0.66 -0.73 0.06
1 3.29 329 1.724 -10.511 0.886 -19.196 32.196 22.583 -914.854 -149.902 -2864.934 -0.516 0.812 -0.168 -0.14 0.67 -0.73 0.06
1 3.30 330 1.475 -10.602 0.900 -20.264 34.241 22.400 -779.942 14.990 -2879.924 -0.299 0.898 -0.202 -0.14 0.67 -0.73 0.06
1 3.31 331 1.451 -10.497 0.943 -16.541 37.659 20.996 -869.883 -29.980 -2864.934 -0.309 0.787 -0.266 -0.13 0.67 -0.73 0.06
1 3.32 332 1.135 -10.334 1.097 -10.956 45.471 19.043 -869.883 -29.980 -2864.934 -0.026 0.619 -0.432 -0.13 0.67 -0.73 0.06
1 3.33 333 0.761 -10.085 0.919 -12.024 49.500 17.944 -749.961 -44.971 -2774.992 0.317 0.367 -0.260 -0.13 0.67 -0.73 0.06
1 3.34 334 0.378 -10.075 0.747 -10.010 51.514 14.771 -749.961 -44.971 -2774.992 0.670 0.353 -0.092 -0.12 0.67 -0.73 0.05
1 3.35 335 -0.096 -10.118 0.551 -10.498 52.887 11.993 -704.991 44.971 -2774.992 1.086 0.390 0.097 -0.12 0.67 -0.73 0.05
1 3.36 336 -0.460 -10.248 0.431 -14.191 50.934 11.597 -704.991 44.971 -2774.992 1.420 0.516 0.208 -0.11 0.67 -0.73 0.05
1 3.37 337 -0.781 -10.233 0.335 -14.923 47.730 12.024 -599.909 -44.971 -2849.943 1.710 0.497 0.290 -0.11 0.68 -0.73 0.05
1 3.38 338 -0.934 -10.276 0.364 -12.726 44.983 12.390 -494.978 -164.893 -2849.943 1.831 0.536 0.246 -0.11 0.68 -0.73 0.05
1 3.39 339 -1.001 -10.324 0.278 -10.376 40.894 13.580 -494.978 -164.893 -2849.943 1.863 0.580 0.319 -0.1 0.68 -0.73 0.04
1 3.40 340 -0.862 -10.032 0.359 -5.829 34.760 18.341 -509.968 0.000 -2789.982 1.687 0.284 0.227 -0.1 0.68 -0.73 0.04
1 3.41 341 -0.551 -9.994 0.278 -7.538 30.670 20.966 -509.968 0.000 -2789.982 1.334 0.242 0.303 -0.09 0.68 -0.73 0.04
1 3.42 342 -0.292 -10.109 0.436 -10.559 30.579 24.139 -434.867 74.951 -2819.963 0.986 0.349 0.125 -0.09 0.68 -0.73 0.04
1 3.43 343 -0.407 -10.339 0.383 -7.904 31.464 24.414 -434.867 74.951 -2819.963 1.056 0.576 0.167 -0.08 0.68 -0.73 0.04
1 3.44 344 -0.455 -10.276 0.297 -2.472 31.647 25.024 -539.948 74.951 -2789.982 1.058 0.510 0.246 -0.08 0.68 -0.73 0.04
1 3.45 345 -0.603 -10.075 0.225 0.732 30.335 24.109 -389.896 -104.932 -2819.963 1.160 0.306 0.319 -0.08 0.68 -0.73 0.04
1 3.46 346 -0.795 -10.066 0.182 0.031 26.215 22.980 -389.896 -104.932 -2819.963 1.307 0.294 0.365 -0.07 0.68 -0.73 0.04
1 3.47 347 -0.623 -10.219 0.172 -2.563 17.029 21.790 -329.935 74.951 -2789.982 1.090 0.445 0.374 -0.07 0.68 -0.73 0.04
1 3.48 348 -0.441 -10.358 0.321 -0.244 15.839 20.813 -329.935 74.951 -2789.982 0.866 0.582 0.223 -0.07 0.68 -0.73 0.04
1 3.49 349 -0.268 -10.094 0.474 7.721 17.975 19.714 -269.974 44.971 -2699.891 0.619 0.316 0.076 -0.06 0.68 -0.73 0.04
1 3.50 350 -0.153 -10.075 0.412 9.277 16.754 19.257 -269.974 44.971 -2699.891 0.471 0.297 0.152 -0.06 0.68 -0.73 0.04
1 3.51 351 -0.254 -9.615 0.340 9.766 13.245 13.245 -254.984 -104.932 -2759.852 0.542 -0.163 0.240 -0.06 0.68 -0.73 0.04
1 3.52 352 -0.302 -9.544 0.211 10.468 11.322 11.749 -344.925 -89.941 -2729.872 0.567 -0.235 0.385 -0.06 0.68 -0.73 0.04
1 3.53 353 -0.048 -9.381 -0.019 8.545 9.949 13.275 -344.925 -89.941 -2729.872 0.292 -0.397 0.630 -0.06 0.68 -0.73 0.04
1 3.54 354 0.350 -9.141 -0.019 5.768 7.660 10.956 -224.854 -14.990 -2774.992 -0.128 -0.636 0.640 -0.06 0.68 -0.73 0.04
1 3.55 355 0.383 -9.184 -0.086 3.571 8.301 7.446 -224.854 -14.990 -2774.992 -0.179 -0.593 0.713 -0.05 0.68 -0.73 0.04
1 3.56 356 -0.120 -9.716 -0.053 0.946 10.407 3.693 -194.873 -44.971 -2774.992 0.307 -0.062 0.683 -0.05 0.68 -0.73 0.04
1 3.57 357 -0.134 -9.797 -0.225 0.275 10.376 2.777 -194.873 -44.971 -2774.992 0.316 0.019 0.854 -0.05 0.68 -0.73 0.04
1 3.58 358 -0.421 -9.606 -0.369 7.050 9.064 0.671 -179.883 -74.951 -2684.901 0.598 -0.172 0.998 -0.05 0.68 -0.73 0.04
1 3.59 359 -0.426 -9.328 -0.321 10.132 7.294 -0.763 -254.984 -149.902 -2819.963 0.599 -0.450 0.957 -0.05 0.68 -0.73 0.04
1 3.60 360 -0.445 -9.395 -0.311 6.317 5.188 -3.387 -254.984 -149.902 -2819.963 0.618 -0.382 0.956 -0.05 0.68 -0.73 0.04
1 3.61 361 -0.536 -9.280 -0.354 2.075 4.730 -7.904 -119.922 -44.971 -2849.943 0.712 -0.497 1.001 -0.05 0.68 -0.73 0.04
1 3.62 362 -0.819 -9.486 -0.474 3.082 2.197 -15.076 -119.922 -44.971 -2849.943 1.004 -0.291 1.119 -0.05 0.68 -0.73 0.04
1 3.63 363 -0.934 -9.802 -0.484 6.012 -1.556 -19.287 -119.922 -89.941 -2774.992 1.134 0.025 1.126 -0.05 0.68 -0.73 0.04
1 3.64 364 -0.646 -9.841 -0.517 4.364 -10.529 -20.630 -89.941 14.990 -2774.992 0.891 0.065 1.162 -0.05 0.68 -0.73 0.04
1 3.65 365 -0.397 -10.104 -0.599 3.601 -16.754 -20.020 -224.854 -44.971 -2729.872 0.668 0.329 1.241 -0.05 0.68 -0.73 0.03
1 3.66 366 0.062 -10.181 -0.584 3.632 -19.409 -17.700 -299.955 -14.990 -2774.992 0.234 0.406 1.224 -0.05 0.68 -0.73 0.03
1 3.67 367 0.206 -10.252 -0.412 5.951 -19.257 -15.808 -299.955 -14.990 -2774.992 0.117 0.478 1.048 -0.05 0.68 -0.73 0.03
1 3.68 368 0.441 -10.090 -0.397 8.637 -17.609 -15.167 -224.854 -89.941 -2879.924 -0.092 0.317 1.036 -0.06 0.68 -0.73 0.03
1 3.69 369 0.436 -10.123 -0.187 9.766 -16.937 -15.106 -224.854 -89.941 -2879.924 -0.061 0.351 0.830 -0.06 0.68 -0.73 0.03
1 3.70 370 0.321 -10.013 -0.077 8.972 -14.893 -13.214 -254.984 0.000 -2789.982 0.080 0.243 0.727 -0.06 0.68 -0.73 0.03
1 3.71 371 0.254 -9.711 -0.120 10.773 -14.313 -11.719 -344.925 -89.941 -2804.973 0.190 -0.056 0.788 -0.06 0.68 -0.73 0.03
1 3.72 372 0.292 -9.750 0.057 11.414 -14.221 -11.749 -329.935 0.000 -2864.934 0.172 -0.016 0.623 -0.06 0.68 -0.73 0.03
1 3.73 373 0.148 -9.721 0.000 10.162 -13.672 -11.353 -359.916 -74.951 -2894.914 0.334 -0.043 0.693 -0.07 0.68 -0.73 0.03
1 3.74 374 0.225 -10.022 -0.158 8.453 -14.679 -10.620 -359.916 -74.951 -2894.914 0.274 0.260 0.861 -0.07 0.68 -0.73 0.03
1 3.75 375 0.153 -9.955 -0.029 9.308 -13.794 -13.184 -299.955 -44.971 -2804.973 0.363 0.195 0.738 -0.07 0.68 -0.73 0.03
1 3.76 376 0.034 -10.042 -0.038 13.977 -15.137 -16.022 -299.955 -44.971 -2804.973 0.504 0.283 0.758 -0.07 0.68 -0.73 0.03
1 3.77 377 0.024 -10.147 -0.005 16.754 -17.151 -16.296 -374.906 44.971 -2879.924 0.537 0.391 0.738 -0.07 0.68 -0.73 0.03
1 3.78 378 0.062 -10.090 0.354 17.151 -17.822 -16.419 -329.935 -29.980 -2819.963 0.521 0.336 0.397 -0.07 0.68 -0.73 0.03
1 3.79 379 0.436 -10.157 0.254 18.951 -18.738 -17.395 -434.867 0.000 -2894.914 0.198 0.409 0.540 -0.08 0.67 -0.73 0.03
1 3.80 380 0.560 -10.128 0.038 21.545 -18.250 -14.374 -419.876 -89.941 -2954.875 0.101 0.385 0.781 -0.08 0.67 -0.74 0.03
1 3.81 381 1.121 -9.898 -0.010 23.316 -16.602 -10.376 -419.876 -89.941 -2954.875 -0.436 0.159 0.857 -0.08 0.67 -0.74 0.03
1 3.82 382 1.365 -9.730 0.115 19.562 -13.855 -10.071 -449.857 -119.922 -3059.957 -0.660 -0.005 0.760 -0.08 0.67 -0.74 0.03
1 3.83 383 1.245 -9.855 0.177 17.334 -10.559 -13.367 -449.857 -119.922 -3059.957 -0.516 0.123 0.720 -0.08 0.67 -0.74 0.03
1 3.84 384 0.666 -10.286 0.010 22.369 -5.096 -13.733 -524.958 -164.893 -3104.927 0.090 0.558 0.910 -0.08 0.67 -0.74 0.03
1 3.85 385 0.120 -10.334 0.086 23.682 -7.324 -12.482 -569.929 -239.994 -2849.943 0.661 0.611 0.859 -0.08 0.67 -0.74 0.03
1 3.86 386 -0.158 -10.281 -0.225 24.994 -17.151 -11.993 -584.919 -179.883 -3074.947 0.973 0.567 1.227 -0.09 0.66 -0.74 0.03
1 3.87 387 -0.244 -10.085 -0.139 27.832 -21.851 -11.719 -629.890 -359.916 -2984.855 1.074 0.374 1.170 -0.09 0.66 -0.74 0.03
1 3.88 388 -0.072 -10.099 -0.105 28.687 -25.513 -10.101 -629.890 -359.916 -2984.855 0.915 0.393 1.167 -0.09 0.66 -0.74 0.04
1 3.89 389 0.043 -10.061 0.579 26.947 -28.565 -8.240 -629.890 -284.964 -3029.976 0.812 0.360 0.514 -0.09 0.66 -0.74 0.04
1 3.90 390 0.397 -10.947 1.949 19.623 -31.067 -2.563 -629.890 -284.964 -3029.976 0.468 1.250 -0.826 -0.09 0.66 -0.75 0.04
1 3.91 391 1.743 -12.393 1.480 1.434 -42.481 28.717 -749.961 -284.964 -2954.875 -0.875 2.698 -0.337 -0.09 0.66 -0.75 0.04
1 3.92 392 2.504 -10.837 1.116 39.429 -35.248 33.753 -494.978 -209.863 -3059.957 -1.662 1.140 0.026 -0.1 0.66 -0.75 0.04
1 3.93 393 2.327 -9.070 1.398 60.425 -5.920 20.935 -629.890 -389.896 -2984.855 -1.555 -0.617 -0.127 -0.1 0.65 -0.75 0.05
1 3.94 394 1.537 -8.720 1.212 33.905 5.890 15.686 -659.870 -254.984 -3074.947 -0.779 -0.956 0.142 -0.1 0.65 -0.75 0.05
1 3.95 395 0.948 -9.204 0.895 16.419 8.423 12.116 -659.870 -254.984 -3074.947 -0.205 -0.468 0.503 -0.09 0.65 -0.75 0.05
1 3.96 396 0.326 -10.037 1.039 14.435 6.866 9.979 -599.909 -359.916 -3104.927 0.404 0.368 0.382 -0.09 0.65 -0.75 0.05
1 3.97 397 0.330 -10.109 1.130 20.386 6.226 13.977 -599.909 -359.916 -3104.927 0.381 0.441 0.312 -0.09 0.65 -0.76 0.05
1 3.98 398 0.057 -9.352 1.010 30.792 11.353 20.355 -690.000 -449.857 -3149.898 0.628 -0.312 0.464 -0.09 0.65 -0.76 0.05
1 3.99 399 -0.177 -8.797 0.986 29.144 17.548 15.656 -659.870 -329.935 -3254.979 0.828 -0.863 0.530 -0.09 0.64 -0.76 0.05
1 4.00 400 -0.790 -8.979 1.226 9.705 15.228 13.001 -569.929 -389.896 -3209.859 1.380 -0.673 0.367 -0.08 0.64 -0.76 0.05
1 4.01 401 -0.781 -9.333 1.154 2.808 9.857 14.069 -629.890 -434.867 -3134.908 1.339 -0.319 0.449 -0.08 0.64 -0.76 0.05
1 4.02 402 -0.297 -9.999 1.408 -5.524 -2.991 16.571 -629.890 -434.867 -3134.908 0.822 0.344 0.188 -0.08 0.64 -0.76 0.06
1 4.03 403 0.043 -10.329 1.628 2.045 -1.282 14.801 -449.857 -284.964 -3164.888 0.453 0.672 -0.038 -0.08 0.64 -0.76 0.06
1 4.04 404 0.014 -10.161 1.978 11.871 3.357 14.465 -449.857 -284.964 -3164.888 0.458 0.504 -0.380 -0.08 0.64 -0.76 0.06
1 4.05 405 -0.062 -9.745 2.011 11.292 4.089 16.541 -569.929 -389.896 -3209.859 0.509 0.090 -0.391 -0.08 0.64 -0.76 0.06
1 4.06 406 -0.168 -9.410 2.030 2.869 0.458 14.343 -509.968 -329.935 -3194.869 0.587 -0.243 -0.392 -0.08 0.64 -0.76 0.06
1 4.07 407 -0.235 -9.711 2.136 -2.563 -3.296 13.062 -509.968 -329.935 -3194.869 0.630 0.059 -0.486 -0.08 0.64 -0.76 0.06
1 4.08 408 0.038 -9.979 2.203 -7.690 -4.120 10.834 -524.958 -434.867 -3209.859 0.314 0.325 -0.556 -0.07 0.64 -0.76 0.06
1 4.09 409 0.053 -9.936 2.097 -5.005 -6.104 7.172 -524.958 -434.867 -3209.859 0.284 0.281 -0.456 -0.07 0.64 -0.76 0.06
1 4.10 410 0.077 -9.754 2.136 -3.876 -10.162 3.418 -419.876 -434.867 -3104.927 0.252 0.098 -0.495 -0.07 0.64 -0.76 0.06
1 4.11 411 0.268 -9.659 2.380 -7.538 -14.435 0.671 -419.876 -434.867 -3104.927 0.058 0.002 -0.742 -0.07 0.64 -0.76 0.06
1 4.12 412 0.378 -9.721 2.615 -10.864 -18.311 -8.087 -584.919 -524.958 -3224.999 -0.047 0.063 -0.983 -0.08 0.64 -0.76 0.06
1 4.13 413 0.445 -9.817 2.710 -12.085 -21.057 -11.505 -374.906 -509.968 -3134.908 -0.098 0.158 -1.087 -0.08 0.64 -0.76 0.06
1 4.14 414 0.584 -9.970 2.619 -10.925 -24.414 -14.801 -374.906 -509.968 -3134.908 -0.214 0.311 -1.006 -0.08 0.64 -0.76 0.06
1 4.15 415 0.809 -9.678 2.729 -7.629 -29.846 -18.219 -614.899 -374.906 -3149.898 -0.376 0.019 -1.130 -0.08 0.64 -0.76 0.06
1 4.16 416 0.996 -9.625 2.682 -10.925 -34.241 -18.768 -614.899 -374.906 -3149.898 -0.525 -0.033 -1.086 -0.09 0.64 -0.76 0.06
1 4.17 417 1.374 -9.491 2.648 -14.771 -38.483 -17.609 -629.890 -584.919 -3164.888 -0.862 -0.167 -1.064 -0.09 0.64 -0.76 0.06
1 4.18 418 1.753 -9.266 2.672 -12.665 -39.093 -16.052 -629.890 -584.919 -3164.888 -1.198 -0.392 -1.103 -0.09 0.64 -0.76 0.06
1 4.19 419 2.169 -8.945 2.706 -10.010 -35.736 -15.442 -794.932 -419.876 -3044.966 -1.572 -0.712 -1.147 -0.09 0.64 -0.76 0.06
1 4.20 420 2.021 -8.801 2.461 -14.587 -28.778 -14.374 -674.860 -434.867 -3104.927 -1.381 -0.854 -0.910 -0.1 0.64 -0.76 0.07
1 4.21 421 1.987 -8.423 2.188 -18.616 -27.191 -11.932 -674.860 -434.867 -3104.927 -1.306 -1.231 -0.650 -0.1 0.64 -0.76 0.07
1 4.22 422 1.968 -8.528 2.016 -23.865 -29.389 -10.620 -539.948 -494.978 -3074.947 -1.251 -1.127 -0.497 -0.1 0.64 -0.76 0.07
1 4.23 423 2.145 -8.672 2.193 -32.806 -29.602 -9.155 -584.919 -374.906 -3149.898 -1.362 -0.988 -0.741 -0.11 0.64 -0.75 0.07
1 4.24 424 2.121 -8.959 2.361 -36.743 -25.024 -10.010 -690.000 -374.906 -3119.917 -1.307 -0.705 -0.954 -0.11 0.64 -0.75 0.07
1 4.25 425 2.279 -9.232 2.169 -34.821 -21.118 -10.468 -690.000 -374.906 -3119.917 -1.433 -0.436 -0.811 -0.11 0.65 -0.75 0.06
1 4.26 426 2.093 -9.405 1.978 -31.311 -17.822 -11.688 -794.932 -494.978 -3014.986 -1.214 -0.267 -0.663 -0.12 0.65 -0.75 0.06
1 4.27 427 1.925 -9.764 2.026 -33.173 -12.421 -14.191 -989.955 -329.935 -3014.986 -1.014 0.090 -0.752 -0.12 0.65 -0.75 0.06
1 4.28 428 1.695 -9.711 1.762 -27.374 -12.482 -16.693 -989.955 -329.935 -3014.986 -0.751 0.035 -0.532 -0.12 0.65 -0.75 0.06
1 4.29 429 1.743 -9.572 1.824 -21.484 -11.475 -16.419 -674.860 -389.896 -2879.924 -0.765 -0.106 -0.633 -0.12 0.65 -0.75 0.06
1 4.30 430 1.652 -9.726 1.791 -28.931 -10.498 -15.137 -839.903 -419.876 -3044.966 -0.608 0.047 -0.659 -0.12 0.65 -0.74 0.06
1 4.31 431 1.628 -10.094 1.733 -31.159 -12.207 -15.625 -779.942 -389.896 -2984.855 -0.553 0.415 -0.640 -0.13 0.65 -0.74 0.06
1 4.32 432 1.676 -10.003 1.753 -23.804 -14.832 -14.313 -779.942 -389.896 -2984.855 -0.571 0.323 -0.699 -0.13 0.66 -0.74 0.06
1 4.33 433 1.839 -9.807 1.834 -17.120 -15.656 -12.451 -929.994 -359.916 -2984.855 -0.705 0.127 -0.808 -0.13 0.66 -0.74 0.06
1 4.34 434 2.184 -9.343 1.690 -20.630 -14.954 -8.514 -899.864 -284.964 -2849.943 -1.025 -0.337 -0.685 -0.13 0.66 -0.74 0.06
1 4.35 435 2.255 -9.453 1.695 -22.522 -11.871 -8.118 -899.864 -284.964 -2849.943 -1.073 -0.226 -0.713 -0.13 0.66 -0.74 0.06
1 4.36 436 1.915 -9.635 1.518 -20.722 -9.918 -6.928 -899.864 -284.964 -2909.904 -0.710 -0.044 -0.563 -0.14 0.66 -0.74 0.06
1 4.37 437 1.824 -9.343 1.283 -15.595 -11.322 -5.188 -944.984 -224.854 -2864.934 -0.581 -0.336 -0.378 -0.14 0.66 -0.74 0.06
1 4.38 438 1.777 -9.448 1.274 -18.738 -13.062 -6.714 -1034.926 -314.945 -2849.943 -0.516 -0.230 -0.390 -0.14 0.66 -0.74 0.06
1 4.39 439 1.920 -9.563 1.020 -19.074 -15.381 -8.362 -1034.926 -314.945 -2849.943 -0.641 -0.115 -0.162 -0.14 0.66 -0.74 0.06
1 4.40 440 2.212 -9.524 1.063 -15.839 -15.656 -8.026 -869.883 -254.984 -2789.982 -0.913 -0.153 -0.233 -0.14 0.66 -0.73 0.06
1 4.41 441 2.117 -9.491 0.919 -15.839 -14.526 -9.491 -1004.945 -209.863 -2849.943 -0.794 -0.186 -0.112 -0.14 0.66 -0.73 0.06
1 4.42 442 2.117 -9.501 0.833 -14.801 -15.717 -15.228 -1004.945 -209.863 -2849.943 -0.769 -0.175 -0.049 -0.15 0.66 -0.73 0.06
1 4.43 443 1.963 -9.429 0.795 -12.024 -15.747 -16.571 -989.955 -254.984 -2864.934 -0.585 -0.244 -0.034 -0.15 0.66 -0.73 0.06
1 4.44 444 2.093 -9.343 0.728 -12.360 -15.320 -15.045 -1094.887 -254.984 -2864.934 -0.650 -0.324 -0.004 -0.15 0.66 -0.73 0.06
1 4.45 445 2.040 -9.386 0.613 -14.343 -15.686 -14.893 -1109.877 -164.893 -2804.973 -0.568 -0.278 0.089 -0.15 0.66 -0.73 0.06
1 4.46 446 1.997 -9.529 0.469 -17.181 -17.792 -18.799 -1109.877 -164.893 -2804.973 -0.492 -0.131 0.206 -0.16 0.66 -0.73 0.06
1 4.47 447 2.203 -9.572 0.584 -13.306 -17.181 -20.325 -1034.926 -209.863 -2804.973 -0.662 -0.084 0.062 -0.16 0.66 -0.73 0.06
1 4.48 448 2.107 -9.716 0.661 -9.583 -15.961 -17.914 -1184.978 -314.945 -2729.872 -0.529 0.064 -0.035 -0.16 0.66 -0.73 0.06
1 4.49 449 2.193 -9.773 0.393 -10.925 -15.228 -14.587 -1184.978 -314.945 -2729.872 -0.583 0.126 0.217 -0.16 0.66 -0.73 0.06
1 4.50 450 2.227 -9.927 0.359 -11.505 -15.808 -13.397 -1169.988 -29.980 -2609.950 -0.587 0.283 0.232 -0.17 0.67 -0.73 0.06
1 4.51 451 2.260 -10.037 0.374 -10.193 -15.198 -10.895 -1079.896 -239.994 -2624.940 -0.595 0.396 0.197 -0.17 0.67 -0.73 0.05
1 4.52 452 2.136 -9.860 0.555 -6.012 -10.101 -7.629 -1139.857 -104.932 -2894.914 -0.427 0.225 -0.020 -0.17 0.67 -0.72 0.06
1 4.53 453 2.212 -9.682 0.527 -4.120 -6.928 -4.639 -1139.857 -104.932 -2894.914 -0.487 0.050 -0.000 -0.17 0.67 -0.72 0.06
1 4.54 454 2.102 -9.654 0.508 -1.984 -4.608 -2.838 -1109.877 -314.945 -2849.943 -0.365 0.023 0.014 -0.17 0.67 -0.72 0.05
1 4.55 455 1.844 -9.390 0.441 -0.580 -3.571 -1.099 -1064.906 -149.902 -2759.852 -0.098 -0.239 0.079 -0.17 0.67 -0.72 0.06
1 4.56 456 1.930 -9.381 0.388 -1.770 -4.486 -0.336 -1064.906 -149.902 -2759.852 -0.180 -0.248 0.131 -0.17 0.67 -0.72 0.06
1 4.57 457 2.026 -9.448 0.613 -0.763 -2.106 -0.519 -1199.968 -179.883 -2684.901 -0.272 -0.180 -0.096 -0.17 0.67 -0.72 0.06
1 4.58 458 2.011 -9.132 0.642 3.723 2.075 -0.153 -1199.968 -179.883 -2639.930 -0.253 -0.495 -0.125 -0.18 0.67 -0.72 0.06
1 4.59 459 1.729 -9.175 0.713 8.118 8.087 -1.160 -1199.968 -224.854 -2759.852 0.038 -0.450 -0.176 -0.18 0.66 -0.72 0.06
1 4.60 460 1.451 -9.232 0.651 7.538 10.254 -2.380 -1199.968 -224.854 -2759.852 0.320 -0.390 -0.096 -0.18 0.66 -0.72 0.06
1 4.61 461 1.302 -9.266 0.666 7.446 10.590 -2.594 -1304.900 -239.994 -2774.992 0.471 -0.355 -0.095 -0.18 0.66 -0.73 0.06
1 4.62 462 1.413 -9.501 0.445 6.897 5.859 -1.434 -1199.968 -299.955 -2684.901 0.362 -0.119 0.142 -0.18 0.66 -0.73 0.06
1 4.63 463 1.528 -10.027 0.125 2.380 -1.587 0.793 -1199.968 -299.955 -2684.901 0.247 0.408 0.474 -0.18 0.66 -0.73 0.06
1 4.64 464 2.648 -10.607 0.057 1.007 -7.416 10.223 -1169.988 -299.955 -2789.982 -0.877 0.987 0.540 -0.18 0.66 -0.73 0.06
1 4.65 465 3.069 -10.252 0.417 8.881 -0.671 16.174 -1244.939 -299.955 -2714.881 -1.308 0.630 0.177 -0.18 0.66 -0.73 0.06
1 4.66 466 2.888 -9.764 0.393 16.235 10.620 17.883 -1244.939 -299.955 -2714.881 -1.147 0.139 0.212 -0.18 0.66 -0.73 0.06
1 4.67 467 1.973 -9.477 0.263 10.864 20.355 16.388 -1409.981 -119.922 -2729.872 -0.267 -0.152 0.392 -0.17 0.66 -0.73 0.06
1 4.68 468 1.355 -9.687 0.000 2.899 18.433 13.550 -1244.939 -179.883 -2714.881 0.331 0.057 0.673 -0.17 0.66 -0.73 0.06
1 4.69 469 1.039 -10.133 -0.129 3.387 13.733 13.062 -1199.968 -299.955 -2684.901 0.625 0.499 0.808 -0.17 0.66 -0.73 0.06
1 4.70 470 1.298 -9.989 0.038 10.162 8.026 16.541 -1199.968 -299.955 -2684.901 0.342 0.352 0.647 -0.17 0.66 -0.73 0.06
1 4.71 471 1.398 -9.520 0.287 13.519 8.545 20.569 -1169.988 -299.955 -2939.885 0.213 -0.122 0.413 -0.17 0.66 -0.73 0.06
1 4.72 472 1.887 -9.429 0.354 9.644 8.972 21.454 -1154.998 -239.994 -2774.992 -0.306 -0.216 0.366 -0.17 0.66 -0.73 0.06
1 4.73 473 1.987 -9.453 0.326 3.265 7.690 20.783 -1154.998 -239.994 -2774.992 -0.438 -0.196 0.413 -0.17 0.66 -0.73 0.06
1 4.74 474 2.385 -9.510 0.005 5.035 6.348 18.494 -1139.857 -254.984 -2714.881 -0.886 -0.145 0.747 -0.16 0.66 -0.73 0.06
1 4.75 475 2.495 -9.649 0.096 7.874 7.019 16.388 -1079.896 -119.922 -2849.943 -1.016 -0.009 0.663 -0.16 0.66 -0.73 0.07
1 4.76 476 2.442 -9.400 0.239 9.125 10.986 12.543 -1139.857 -224.854 -2639.930 -0.978 -0.259 0.529 -0.16 0.66 -0.73 0.07
1 4.77 477 2.155 -9.285 0.283 8.728 13.031 7.874 -1139.857 -224.854 -2639.930 -0.700 -0.375 0.500 -0.16 0.66 -0.73 0.07
1 4.78 478 1.863 -9.433 0.326 7.507 11.444 2.869 -1064.906 -224.854 -2759.852 -0.411 -0.226 0.471 -0.16 0.66 -0.73 0.07
1 4.79 479 1.556 -9.750 0.196 4.883 3.387 -2.502 -1004.945 -314.945 -2879.924 -0.103 0.092 0.610 -0.16 0.66 -0.73 0.07
1 4.80 480 1.872 -10.003 0.043 7.965 -0.519 -2.716 -1004.945 -314.945 -2879.924 -0.413 0.347 0.769 -0.16 0.66 -0.73 0.06
1 4.81 481 2.217 -9.898 -0.029 12.390 0.580 0.031 -1019.936 -374.906 -2789.982 -0.742 0.245 0.859 -0.16 0.66 -0.73 0.06
1 4.82 482 2.270 -9.850 0.134 11.749 4.059 3.021 -974.965 -239.994 -2729.872 -0.790 0.199 0.711 -0.16 0.66 -0.73 0.06
1 4.83 483 2.571 -9.592 0.225 8.698 8.698 6.104 -1169.988 -299.955 -2759.852 -1.091 -0.058 0.634 -0.16 0.66 -0.73 0.06
1 4.84 484 2.524 -9.874 0.182 4.883 14.282 7.172 -1169.988 -299.955 -2759.852 -1.044 0.225 0.688 -0.16 0.66 -0.74 0.06
1 4.85 485 2.351 -10.224 0.144 2.930 18.524 8.148 -1139.857 -299.955 -2819.963 -0.876 0.575 0.732 -0.16 0.66 -0.74 0.06
1 4.86 486 2.346 -10.382 0.747 5.096 23.254 7.050 -1079.896 -359.916 -2669.911 -0.879 0.732 0.135 -0.16 0.66 -0.74 0.06
1 4.87 487 2.088 -11.363 1.197 -6.958 29.785 0.305 -1079.896 -359.916 -2669.911 -0.626 1.714 -0.305 -0.16 0.66 -0.74 0.06
1 4.88 488 0.953 -11.440 -0.273 1.373 35.004 -21.362 -1154.998 -284.964 -2804.973 0.518 1.791 1.155 -0.15 0.66 -0.74 0.06
1 4.89 489 0.963 -10.650 -0.862 24.231 31.830 -22.705 -839.903 -374.906 -2759.852 0.538 1.008 1.772 -0.15 0.66 -0.74 0.06
1 4.90 490 1.068 -9.242 -0.718 23.621 14.374 -12.390 -1064.906 -299.955 -2894.914 0.453 -0.391 1.681 -0.15 0.65 -0.74 0.05
1 4.91 491 1.609 -9.884 -0.464 -23.499 -2.594 -12.390 -1064.906 -299.955 -2894.914 -0.075 0.253 1.434 -0.15 0.65 -0.74 0.05
1 4.92 492 2.811 -10.928 -0.417 -33.356 -11.047 -20.538 -929.994 -314.945 -2849.943 -1.254 1.296 1.333 -0.15 0.66 -0.74 0.05
1 4.93 493 3.544 -11.210 0.249 5.524 9.064 -18.189 -974.965 -314.945 -3029.976 -1.948 1.580 0.622 -0.16 0.66 -0.74 0.05
1 4.94 494 2.859 -10.607 0.867 4.425 27.863 -11.597 -974.965 -314.945 -3029.976 -1.233 0.982 0.006 -0.16 0.66 -0.74 0.05
1 4.95 495 1.863 -11.109 0.814 -17.090 30.151 -16.357 -914.854 -374.906 -2864.934 -0.220 1.489 0.077 -0.16 0.66 -0.74 0.05
1 4.96 496 1.092 -11.943 0.522 -14.343 14.313 -25.848 -1019.936 -419.876 -2819.963 0.601 2.328 0.336 -0.16 0.66 -0.74 0.04
1 4.97 497 1.130 -11.406 0.603 5.310 9.399 -20.569 -1034.926 -239.994 -2774.992 0.600 1.798 0.247 -0.16 0.66 -0.74 0.04
1 4.98 498 1.499 -10.520 0.843 12.665 8.270 -11.322 -1034.926 -239.994 -2774.992 0.258 0.918 0.023 -0.16 0.66 -0.74 0.04
1 4.99 499 1.844 -9.979 0.737 4.211 7.660 -6.317 -974.965 -464.997 -2804.973 -0.073 0.381 0.149 -0.16 0.66 -0.74 0.04
1 5.00 500 2.069 -10.334 0.642 -10.132 4.211 -7.324 -1109.877 -359.916 -2774.992 -0.289 0.738 0.249 -0.16 0.66 -0.74 0.04
1 5.01 501 2.155 -10.319 0.335 -3.937 3.357 -7.690 -1109.877 -359.916 -2774.992 -0.363 0.725 0.544 -0.16 0.66 -0.74 0.04
1 5.02 502 1.863 -9.817 0.244 8.575 5.707 -5.463 -1109.877 -314.945 -2879.924 -0.058 0.224 0.625 -0.16 0.66 -0.74 0.04
1 5.03 503 1.168 -9.141 -0.014 8.942 2.106 -1.495 -1064.906 -254.984 -2939.885 0.653 -0.447 0.905 -0.16 0.66 -0.74 0.04
1 5.04 504 0.977 -9.084 0.053 -0.702 -3.937 -0.549 -1094.887 -329.935 -2819.963 0.845 -0.503 0.844 -0.16 0.65 -0.74 0.04
1 5.05 505 0.924 -9.161 0.259 -10.345 -9.491 0.610 -1094.887 -329.935 -2819.963 0.895 -0.428 0.627 -0.16 0.66 -0.74 0.04
1 5.06 506 1.216 -9.692 0.498 -15.198 -13.428 5.524 -1079.896 -314.945 -2804.973 0.598 0.100 0.364 -0.16 0.66 -0.74 0.04
1 5.07 507 1.561 -9.884 0.804 -11.963 -14.893 13.184 -1079.896 -359.916 -2699.891 0.241 0.287 0.031 -0.16 0.66 -0.74 0.04
1 5.08 508 2.045 -9.692 1.188 -7.233 -9.460 24.017 -1079.896 -359.916 -2699.891 -0.265 0.090 -0.371 -0.16 0.66 -0.73 0.04
1 5.09 509 2.179 -9.539 1.571 -9.308 -2.258 30.823 -989.955 -254.984 -2759.852 -0.428 -0.070 -0.765 -0.16 0.66 -0.73 0.04
1 5.10 510 2.026 -9.376 1.839 -12.146 4.120 34.088 -989.955 -254.984 -2759.852 -0.313 -0.240 -1.041 -0.16 0.66 -0.73 0.05
1 5.11 511 1.662 -9.453 1.896 -9.583 8.850 35.156 -1034.926 -359.916 -2774.992 -0.043 -0.181 -1.112 -0.16 0.66 -0.73 0.05
1 5.12 512 1.494 -9.544 2.131 -6.836 10.803 34.912 -1034.926 -359.916 -2774.992 0.074 -0.098 -1.346 -0.15 0.66 -0.73 0.05
1 5.13 513 1.432 -9.639 2.260 -3.876 13.428 35.370 -1004.945 -209.863 -2699.891 0.085 -0.010 -1.470 -0.15 0.66 -0.73 0.05
1 5.14 514 1.250 -9.553 2.404 -2.930 15.411 34.302 -914.854 -254.984 -2819.963 0.214 -0.104 -1.604 -0.15 0.66 -0.73 0.05
1 5.15 515 1.336 -9.390 2.342 0.916 19.074 30.212 -914.854 -254.984 -2819.963 0.077 -0.273 -1.529 -0.15 0.66 -0.73 0.05
1 5.16 516 1.274 -8.950 2.509 3.571 21.118 27.252 -854.893 -359.916 -2849.943 0.092 -0.719 -1.679 -0.14 0.66 -0.73 0.06
1 5.17 517 1.427 -8.859 2.524 -0.336 23.224 23.773 -854.893 -359.916 -2849.943 -0.104 -0.814 -1.671 -0.14 0.66 -0.74 0.06
1 5.18 518 1.465 -8.787 2.658 -3.510 27.557 18.707 -1034.926 -389.896 -2804.973 -0.210 -0.892 -1.769 -0.14 0.66 -0.74 0.06
1 5.19 519 1.274 -8.672 2.447 1.190 32.684 15.747 -1034.926 -389.896 -2804.973 -0.045 -1.008 -1.541 -0.14 0.66 -0.74 0.06
1 5.20 520 0.953 -8.107 2.030 7.080 34.882 10.742 -914.854 -299.955 -2759.852 0.252 -1.574 -1.099 -0.13 0.66 -0.74 0.06
1 5.21 521 0.785 -8.021 1.633 8.423 35.828 2.533 -914.854 -374.906 -2759.852 0.403 -1.660 -0.681 -0.13 0.66 -0.74 0.05
1 5.22 522 0.651 -8.246 1.642 1.526 33.936 -1.556 -914.854 -374.906 -2759.852 0.532 -1.434 -0.672 -0.13 0.66 -0.74 0.05
1 5.23 523 0.340 -8.868 1.652 -13.916 30.335 -2.716 -869.883 -374.906 -2684.901 0.842 -0.811 -0.675 -0.13 0.66 -0.74 0.05
1 5.24 524 0.172 -9.505 1.350 -17.151 27.100 -3.082 -869.883 -374.906 -2684.901 1.011 -0.175 -0.384 -0.13 0.66 -0.74 0.05
1 5.25 525 0.278 -10.209 1.288 -9.247 23.438 0.000 -794.932 -449.857 -2684.901 0.894 0.525 -0.346 -0.12 0.66 -0.74 0.05
1 5.26 526 0.278 -10.252 1.422 -2.991 24.353 3.876 -794.932 -449.857 -2684.901 0.884 0.567 -0.482 -0.12 0.66 -0.74 0.05
1 5.27 527 0.259 -10.171 1.370 -1.373 24.048 7.935 -674.860 -314.945 -2729.872 0.887 0.484 -0.423 -0.12 0.66 -0.74 0.04
1 5.28 528 0.048 -9.960 1.312 -2.991 22.858 11.353 -734.971 -254.984 -2714.881 1.075 0.272 -0.359 -0.12 0.66 -0.74 0.04
1 5.29 529 -0.053 -9.812 1.307 -3.693 23.254 13.519 -734.971 -254.984 -2714.881 1.148 0.120 -0.351 -0.12 0.66 -0.74 0.04
1 5.30 530 0.148 -9.797 1.173 -4.486 23.499 17.944 -704.991 -284.964 -2774.992 0.915 0.103 -0.214 -0.11 0.66 -0.74 0.04
1 5.31 531 0.096 -9.778 1.077 -5.890 20.783 20.477 -704.991 -284.964 -2774.992 0.932 0.080 -0.116 -0.11 0.66 -0.74 0.04
1 5.32 532 0.388 -9.343 0.599 -1.801 20.294 17.181 -704.991 -239.994 -2804.973 0.566 -0.364 0.359 -0.11 0.66 -0.74 0.04
1 5.33 533 0.488 -9.261 0.555 -2.045 20.447 17.426 -704.991 -239.994 -2804.973 0.434 -0.448 0.401 -0.1 0.66 -0.74 0.04
1 5.34 534 0.450 -9.237 0.570 -8.301 20.050 15.472 -659.870 -374.906 -2714.881 0.444 -0.475 0.381 -0.1 0.66 -0.74 0.04
1 5.35 535 0.287 -9.256 0.512 -10.284 19.959 15.259 -629.890 -284.964 -2774.992 0.579 -0.460 0.427 -0.1 0.66 -0.74 0.04
1 5.36 536 0.163 -9.295 0.292 -8.118 19.623 14.099 -629.890 -284.964 -2774.992 0.677 -0.425 0.634 -0.1 0.67 -0.74 0.04
1 5.37 537 0.101 -9.199 0.211 -7.599 16.052 11.475 -584.919 -419.876 -2819.963 0.713 -0.524 0.704 -0.1 0.67 -0.74 0.04
1 5.38 538 0.263 -9.247 0.086 -7.904 13.031 9.369 -584.919 -419.876 -2819.963 0.526 -0.480 0.816 -0.09 0.67 -0.74 0.04
1 5.39 539 0.287 -9.343 0.283 -10.559 11.505 9.888 -704.991 -359.916 -2699.891 0.483 -0.387 0.607 -0.09 0.67 -0.74 0.04
1 5.40 540 0.555 -9.606 0.445 -11.810 12.482 9.033 -614.899 -254.984 -2759.852 0.180 -0.129 0.410 -0.09 0.67 -0.74 0.04
1 5.41 541 0.369 -9.572 0.311 -9.979 15.442 7.782 -629.890 -314.945 -2729.872 0.352 -0.165 0.526 -0.09 0.67 -0.74 0.04
1 5.42 542 0.144 -9.692 0.283 -7.416 17.792 6.866 -524.958 -284.964 -2699.891 0.563 -0.048 0.542 -0.09 0.67 -0.73 0.04
1 5.43 543 -0.168 -9.601 0.072 -5.768 18.066 6.775 -524.958 -284.964 -2699.891 0.860 -0.140 0.742 -0.09 0.67 -0.73 0.04
1 5.44 544 -0.551 -9.654 0.139 -5.920 12.390 4.944 -614.899 -374.906 -2639.930 1.227 -0.090 0.665 -0.09 0.67 -0.73 0.04
1 5.45 545 -0.464 -9.912 0.148 -6.226 7.935 2.655 -614.899 -374.906 -2639.930 1.125 0.167 0.645 -0.08 0.67 -0.73 0.04
1 5.46 546 -0.503 -9.841 0.192 -4.395 3.143 0.092 -614.899 -179.883 -2639.930 1.150 0.093 0.591 -0.08 0.67 -0.73 0.04
1 5.47 547 -0.345 -9.386 -0.014 2.960 -2.380 -1.648 -569.929 -389.896 -2624.940 0.977 -0.364 0.783 -0.08 0.67 -0.73 0.04
1 5.48 548 -0.244 -9.108 -0.077 2.563 -5.219 -3.113 -539.948 -374.906 -2534.999 0.874 -0.642 0.846 -0.08 0.67 -0.73 0.04
1 5.49 549 -0.230 -9.055 -0.158 -1.343 -8.789 -4.211 -599.909 -314.945 -2624.940 0.861 -0.694 0.925 -0.08 0.67 -0.73 0.04
1 5.50 550 -0.268 -9.074 -0.177 -7.294 -16.052 -5.371 -599.909 -314.945 -2624.940 0.903 -0.676 0.935 -0.08 0.67 -0.73 0.04
1 5.51 551 -0.144 -9.285 -0.345 -11.566 -20.905 -8.514 -614.899 -329.935 -2609.950 0.785 -0.466 1.083 -0.09 0.67 -0.73 0.04
1 5.52 552 0.239 -9.496 -0.383 -6.561 -19.531 -11.505 -614.899 -329.935 -2609.950 0.413 -0.256 1.097 -0.09 0.68 -0.73 0.05
1 5.53 553 0.326 -9.467 -0.148 -2.655 -16.510 -12.390 -509.968 -329.935 -2789.982 0.343 -0.285 0.843 -0.09 0.68 -0.73 0.05
1 5.54 554 0.412 -9.472 -0.086 -3.632 -15.076 -10.651 -449.857 -359.916 -2594.959 0.276 -0.280 0.768 -0.09 0.68 -0.73 0.05
1 5.55 555 0.091 -9.208 0.062 -6.683 -9.186 -8.270 -674.860 -164.893 -2774.992 0.627 -0.543 0.595 -0.09 0.68 -0.73 0.05
1 5.56 556 -0.043 -9.443 -0.163 -6.866 -8.514 -6.378 -704.991 -389.896 -2699.891 0.772 -0.308 0.809 -0.09 0.68 -0.73 0.05
1 5.57 557 -0.057 -9.501 -0.283 -9.094 -11.017 -4.974 -704.991 -389.896 -2699.891 0.791 -0.252 0.912 -0.1 0.68 -0.73 0.05
1 5.58 558 -0.014 -9.453 -0.330 -8.606 -15.076 -7.538 -614.899 -179.883 -2684.901 0.754 -0.300 0.940 -0.1 0.68 -0.73 0.05
1 5.59 559 0.484 -9.620 -0.287 -6.409 -20.813 -4.547 -614.899 -179.883 -2684.901 0.264 -0.133 0.878 -0.1 0.68 -0.73 0.05
1 5.60 560 0.948 -9.663 -0.081 -9.705 -18.585 -0.122 -614.899 -254.984 -2609.950 -0.192 -0.091 0.654 -0.1 0.68 -0.73 0.05
1 5.61 561 1.470 -9.879 0.273 -13.794 -14.130 3.448 -449.857 -389.896 -2549.989 -0.710 0.124 0.280 -0.1 0.68 -0.73 0.05
1 5.62 562 1.939 -10.377 0.129 -13.916 -7.477 7.660 -674.860 -239.994 -2594.959 -1.177 0.620 0.376 -0.1 0.68 -0.72 0.05
1 5.63 563 1.796 -10.377 -0.105 -6.714 2.106 6.622 -734.971 -254.984 -2534.999 -1.034 0.619 0.591 -0.1 0.68 -0.72 0.05
1 5.64 564 1.326 -10.118 -0.350 2.136 14.435 3.601 -734.971 -254.984 -2534.999 -0.565 0.360 0.827 -0.1 0.68 -0.72 0.05
1 5.65 565 0.431 -10.367 -0.771 4.181 21.515 2.869 -629.890 -239.994 -2474.888 0.331 0.609 1.251 -0.1 0.68 -0.72 0.05
1 5.66 566 -0.436 -10.837 -0.800 -1.526 19.348 3.815 -629.890 -239.994 -2474.888 1.192 1.078 1.279 -0.1 0.68 -0.72 0.05
1 5.67 567 -0.963 -12.120 1.235 -13.397 2.747 3.418 -629.890 -389.896 -2594.959 1.711 2.360 -0.763 -0.1 0.68 -0.72 0.05
1 5.68 568 0.038 -15.122 2.145 -35.950 -18.066 23.590 -690.000 -254.984 -2564.979 0.707 5.362 -1.686 -0.1 0.68 -0.72 0.05
1 5.69 569 1.403 -14.567 0.613 -0.580 -17.242 41.077 -599.909 -389.896 -2624.940 -0.740 4.796 -0.255 -0.1 0.69 -0.72 0.05
1 5.70 570 1.173 -11.938 -0.546 53.894 -5.737 20.050 -690.000 -254.984 -2564.979 -0.562 2.164 0.929 -0.1 0.69 -0.72 0.06
1 5.71 571 0.948 -10.808 0.081 40.192 0.641 8.911 -690.000 -254.984 -2564.979 -0.360 1.037 0.384 -0.1 0.68 -0.72 0.06
1 5.72 572 0.445 -10.444 -0.283 3.845 7.172 8.667 -659.870 -224.854 -2534.999 0.132 0.674 0.796 -0.1 0.68 -0.72 0.06
1 5.73 573 -0.364 -10.650 -0.627 -9.430 10.407 5.859 -659.870 -224.854 -2534.999 0.930 0.879 1.137 -0.09 0.68 -0.72 0.06
1 5.74 574 -1.959 -11.564 -0.302 -7.690 12.085 -2.075 -674.860 -359.916 -2594.959 2.512 1.792 0.792 -0.09 0.68 -0.72 0.06
1 5.75 575 -2.284 -11.933 0.766 -8.057 -1.007 1.709 -614.899 -329.935 -2429.917 2.841 2.161 -0.285 -0.09 0.68 -0.72 0.06
1 5.76 576 -1.063 -11.603 1.331 -6.378 -24.323 14.130 -569.929 -434.867 -2669.911 1.611 1.829 -0.870 -0.09 0.68 -0.72 0.06
1 5.77 577 -0.474 -11.426 1.293 -3.510 -26.093 17.609 -524.958 -359.916 -2669.911 1.002 1.650 -0.840 -0.09 0.68 -0.72 0.06
1 5.78 578 0.249 -11.119 1.738 5.157 -16.724 14.710 -524.958 -359.916 -2669.911 0.254 1.343 -1.283 -0.09 0.68 -0.72 0.06
1 5.79 579 0.484 -10.846 2.145 6.744 -20.996 6.866 -539.948 -419.876 -2534.999 0.003 1.069 -1.681 -0.09 0.68 -0.72 0.06
1 5.80 580 1.010 -10.181 2.198 10.254 -29.541 -0.031 -539.948 -419.876 -2534.999 -0.528 0.404 -1.723 -0.1 0.68 -0.72 0.06
1 5.81 581 1.106 -9.462 2.059 23.956 -20.081 -5.066 -569.929 -359.916 -2594.959 -0.615 -0.312 -1.554 -0.1 0.68 -0.72 0.07
1 5.82 582 0.848 -9.414 1.901 20.660 -9.430 -0.916 -569.929 -284.964 -2624.940 -0.340 -0.357 -1.349 -0.1 0.68 -0.72 0.07
1 5.83 583 0.493 -9.228 2.217 9.033 -6.012 3.357 -569.929 -284.964 -2624.940 0.024 -0.540 -1.620 -0.1 0.68 -0.73 0.07
1 5.84 584 0.488 -8.715 2.073 9.247 -14.618 -1.068 -614.899 -329.935 -2609.950 0.028 -1.050 -1.425 -0.1 0.68 -0.73 0.07
1 5.85 585 0.862 -8.442 2.150 16.968 -15.717 -3.754 -614.899 -329.935 -2609.950 -0.339 -1.320 -1.472 -0.1 0.67 -0.73 0.07
1 5.86 586 1.149 -8.241 2.322 15.198 -7.385 -1.770 -674.860 -509.968 -2519.858 -0.618 -1.519 -1.613 -0.1 0.67 -0.73 0.07
1 5.87 587 1.279 -8.289 2.351 0.305 4.517 0.061 -674.860 -509.968 -2519.858 -0.744 -1.469 -1.621 -0.1 0.67 -0.73 0.07
1 5.88 588 0.608 -9.141 2.212 -21.332 15.900 -7.629 -690.000 -329.935 -2639.930 -0.071 -0.617 -1.487 -0.1 0.67 -0.73 0.07
1 5.89 589 -0.101 -9.850 1.978 -13.519 13.855 -13.641 -599.909 -434.867 -2594.959 0.651 0.092 -1.265 -0.1 0.67 -0.73 0.07
1 5.90 590 -0.560 -10.185 2.169 -0.732 6.012 -16.480 -599.909 -434.867 -2594.959 1.128 0.427 -1.467 -0.1 0.67 -0.73 0.07
1 5.91 591 -0.321 -10.300 2.117 -3.174 -8.881 -15.747 -749.961 -389.896 -2519.858 0.925 0.546 -1.394 -0.1 0.67 -0.73 0.06
1 5.92 592 0.263 -10.118 1.858 -7.080 -20.599 -14.099 -749.961 -389.896 -2519.858 0.358 0.365 -1.131 -0.1 0.67 -0.73 0.06
1 5.93 593 0.939 -9.587 1.772 -5.981 -27.283 -15.106 -674.860 -389.896 -2594.959 -0.296 -0.165 -1.047 -0.1 0.67 -0.73 0.07
1 5.94 594 1.269 -9.223 1.987 -4.639 -26.672 -20.142 -674.860 -389.896 -2594.959 -0.598 -0.527 -1.263 -0.11 0.67 -0.73 0.07
1 5.95 595 1.614 -9.079 1.681 -7.355 -22.156 -23.621 -704.991 -539.948 -2624.940 -0.901 -0.668 -0.955 -0.11 0.67 -0.73 0.07
1 5.96 596 1.302 -9.539 1.178 -14.374 -21.973 -23.346 -764.952 -329.935 -2459.897 -0.544 -0.205 -0.457 -0.11 0.67 -0.73 0.07
1 5.97 597 1.063 -10.185 1.101 -20.264 -24.384 -24.078 -764.952 -329.935 -2459.897 -0.260 0.444 -0.394 -0.12 0.67 -0.73 0.06
1 5.98 598 0.819 -10.152 1.322 -13.794 -24.323 -25.940 -854.893 -359.916 -2594.959 0.028 0.412 -0.640 -0.12 0.67 -0.73 0.06
1 5.99 599 0.431 -9.860 1.178 5.249 -24.506 -24.963 -794.932 -374.906 -2459.897 0.500 0.126 -0.521 -0.12 0.67 -0.73 0.06
1 6.00 600 0.287 -9.414 1.135 2.350 -24.994 -22.888 -839.903 -449.857 -2459.897 0.681 -0.315 -0.467 -0.13 0.67 -0.73 0.06
1 6.01 601 0.412 -9.223 1.006 -4.791 -28.748 -23.254 -839.903 -449.857 -2459.897 0.589 -0.503 -0.336 -0.13 0.67 -0.73 0.06
1 6.02 602 0.828 -9.189 0.843 -5.249 -32.929 -23.743 -839.903 -224.854 -2609.950 0.208 -0.533 -0.180 -0.13 0.67 -0.73 0.06
1 6.03 603 1.623 -9.419 0.958 -3.754 -31.830 -21.240 -824.913 -284.964 -2519.858 -0.549 -0.300 -0.304 -0.14 0.67 -0.73 0.07
1 6.04 604 1.901 -9.429 0.852 -3.906 -25.940 -19.043 -824.913 -284.964 -2519.858 -0.788 -0.286 -0.206 -0.14 0.67 -0.73 0.07
1 6.05 605 2.169 -9.285 0.694 -1.038 -21.210 -17.853 -944.984 -374.906 -2564.979 -1.018 -0.426 -0.055 -0.14 0.67 -0.73 0.07
1 6.06 606 2.150 -9.137 0.369 3.754 -15.717 -18.219 -974.965 -359.916 -2519.858 -0.925 -0.566 0.269 -0.15 0.67 -0.73 0.07
1 6.07 607 2.150 -9.089 0.215 -1.587 -13.550 -17.273 -1019.936 -299.955 -2459.897 -0.888 -0.609 0.424 -0.15 0.67 -0.73 0.07
1 6.08 608 2.198 -9.117 0.153 -3.815 -12.878 -17.304 -1019.936 -299.955 -2459.897 -0.899 -0.576 0.479 -0.15 0.67 -0.73 0.06
1 6.09 609 2.198 -8.888 0.048 -1.221 -13.123 -17.426 -944.984 -374.906 -2534.999 -0.863 -0.801 0.575 -0.15 0.67 -0.73 0.06
1 6.10 610 2.083 -8.859 0.043 1.709 -10.895 -16.327 -1154.998 -359.916 -2519.858 -0.713 -0.825 0.576 -0.15 0.67 -0.73 0.06
1 6.11 611 2.011 -8.777 -0.158 -2.411 -8.545 -14.862 -1154.998 -359.916 -2519.858 -0.609 -0.902 0.775 -0.16 0.67 -0.73 0.06
1 6.12 612 1.920 -8.821 -0.445 -3.571 -8.209 -13.367 -1094.887 -329.935 -2459.897 -0.487 -0.855 1.055 -0.16 0.67 -0.73 0.06
1 6.13 613 1.882 -8.806 -0.426 -1.709 -9.613 -10.956 -989.955 -374.906 -2534.999 -0.397 -0.863 1.014 -0.16 0.67 -0.73 0.06
1 6.14 614 1.844 -8.773 -0.254 -5.768 -10.071 -9.460 -1139.857 -419.876 -2534.999 -0.337 -0.894 0.830 -0.16 0.67 -0.72 0.06
1 6.15 615 1.959 -8.916 -0.287 -7.568 -10.590 -6.805 -1139.857 -419.876 -2534.999 -0.433 -0.748 0.847 -0.17 0.67 -0.72 0.06
1 6.16 616 1.963 -8.749 -0.306 -5.280 -10.071 -2.655 -1169.988 -449.857 -2459.897 -0.423 -0.914 0.850 -0.17 0.67 -0.72 0.06
1 6.17 617 2.131 -8.524 -0.235 -4.395 -8.514 2.045 -1259.929 -314.945 -2444.907 -0.582 -1.139 0.765 -0.17 0.67 -0.72 0.06
1 6.18 618 2.337 -8.600 -0.335 -9.033 -5.585 8.026 -1259.929 -314.945 -2444.907 -0.788 -1.063 0.855 -0.17 0.67 -0.72 0.06
1 6.19 619 2.366 -8.667 -0.441 -13.245 -5.127 12.878 -1139.857 -449.857 -2534.999 -0.819 -0.997 0.944 -0.17 0.67 -0.72 0.06
1 6.20 620 2.442 -8.591 -0.517 -11.841 -4.150 16.754 -1034.926 -359.916 -2594.959 -0.916 -1.079 0.972 -0.17 0.67 -0.72 0.07
1 6.21 621 2.447 -8.567 -0.407 -10.773 -3.143 18.372 -1139.857 -449.857 -2354.966 -0.937 -1.107 0.840 -0.17 0.67 -0.72 0.07
1 6.22 622 2.399 -8.476 -0.460 -13.245 -1.709 20.294 -1139.857 -449.857 -2354.966 -0.910 -1.202 0.872 -0.17 0.67 -0.72 0.07
1 6.23 623 2.184 -8.782 -0.388 -17.731 -2.930 18.982 -1079.896 -314.945 -2444.907 -0.718 -0.900 0.777 -0.17 0.67 -0.72 0.07
1 6.24 624 2.179 -9.084 -0.532 -19.043 -5.035 17.975 -1109.877 -359.916 -2414.927 -0.732 -0.602 0.889 -0.17 0.67 -0.72 0.07
1 6.25 625 2.327 -9.529 -0.469 -13.794 -4.364 18.219 -1109.877 -359.916 -2414.927 -0.899 -0.161 0.794 -0.17 0.67 -0.72 0.07
1 6.26 626 2.145 -9.572 -0.421 -10.773 -2.899 16.602 -1139.857 -329.935 -2354.966 -0.736 -0.121 0.719 -0.17 0.68 -0.71 0.07
1 6.27 627 2.188 -9.721 -0.254 -10.345 -0.977 15.778 -1109.877 -359.916 -2414.927 -0.796 0.024 0.530 -0.17 0.68 -0.71 0.07
1 6.28 628 1.853 -9.788 -0.081 -11.383 0.610 14.984 -1064.906 -374.906 -2429.917 -0.493 0.086 0.321 -0.17 0.68 -0.71 0.07
1 6.29 629 1.666 -10.013 0.034 -10.437 -0.366 14.496 -1064.906 -374.906 -2429.917 -0.323 0.308 0.188 -0.17 0.68 -0.71 0.07
1 6.30 630 1.657 -10.348 0.330 -8.972 -2.869 14.191 -1019.936 -419.876 -2429.917 -0.330 0.641 -0.123 -0.17 0.68 -0.71 0.08
1 6.31 631 1.753 -10.530 0.187 -6.958 -5.615 12.207 -1139.857 -254.984 -2384.946 -0.443 0.820 0.009 -0.17 0.68 -0.71 0.08
1 6.32 632 1.939 -10.640 -0.014 -0.153 -6.928 9.857 -1139.857 -254.984 -2384.946 -0.642 0.928 0.202 -0.17 0.68 -0.71 0.08
1 6.33 633 2.030 -10.410 0.048 2.258 -5.096 9.155 -914.854 -254.984 -2459.897 -0.742 0.697 0.137 -0.17 0.68 -0.71 0.08
1 6.34 634 2.102 -10.607 0.019 2.106 -3.082 7.813 -944.984 -254.984 -2429.917 -0.824 0.892 0.168 -0.17 0.68 -0.71 0.08
1 6.35 635 2.117 -11.133 -0.235 2.991 -5.981 4.303 -914.854 -374.906 -2534.999 -0.852 1.417 0.428 -0.17 0.68 -0.71 0.08
1 6.36 636 2.591 -11.153 -0.192 9.827 -7.355 2.045 -914.854 -374.906 -2534.999 -1.330 1.436 0.393 -0.17 0.68 -0.71 0.08
1 6.37 637 2.792 -10.846 -0.053 15.625 -7.080 3.326 -1034.926 -314.945 -2339.976 -1.532 1.130 0.272 -0.17 0.68 -0.71 0.08
1 6.38 638 3.295 -10.870 -0.302 14.954 -2.716 5.585 -1079.896 -284.964 -2474.888 -2.039 1.154 0.545 -0.17 0.68 -0.71 0.08
1 6.39 639 3.510 -10.995 -0.517 12.634 4.517 9.094 -1079.896 -284.964 -2474.888 -2.262 1.278 0.783 -0.17 0.68 -0.71 0.08
1 6.40 640 3.347 -10.817 -0.536 16.541 12.787 10.712 -1154.998 -284.964 -2369.956 -2.112 1.100 0.825 -0.17 0.68 -0.71 0.08
1 6.41 641 3.026 -10.798 -0.584 22.888 17.517 9.705 -1034.926 -389.896 -2414.927 -1.806 1.080 0.901 -0.17 0.68 -0.71 0.08
1 6.42 642 2.749 -10.549 -0.910 25.574 20.081 7.477 -1034.926 -389.896 -2414.927 -1.542 0.830 1.263 -0.16 0.67 -0.71 0.08
1 6.43 643 2.658 -10.798 -0.402 19.409 21.820 5.249 -1094.887 -299.955 -2354.966 -1.473 1.080 0.839 -0.16 0.67 -0.72 0.08
1 6.44 644 2.184 -11.718 0.919 9.216 20.691 -4.883 -1154.998 -434.867 -2414.927 -1.004 2.000 -0.451 -0.16 0.67 -0.72 0.08
1 6.45 645 1.676 -13.015 1.341 -0.122 19.440 -26.367 -944.984 -254.984 -2429.917 -0.481 3.300 -0.858 -0.16 0.67 -0.72 0.08
1 6.46 646 0.996 -12.728 0.163 16.144 14.130 -42.267 -944.984 -254.984 -2429.917 0.245 3.019 0.327 -0.16 0.67 -0.72 0.08
1 6.47 647 1.302 -10.257 -0.656 43.396 -6.256 -41.229 -1019.936 -329.935 -2504.868 0.004 0.559 1.187 -0.16 0.67 -0.72 0.08
1 6.48 648 1.973 -10.195 -0.268 16.663 -8.392 -34.790 -1109.877 -209.863 -2414.927 -0.602 0.510 0.866 -0.17 0.67 -0.72 0.07
1 6.49 649 2.524 -10.813 -0.215 -3.052 -4.395 -25.238 -1109.877 -209.863 -2414.927 -1.096 1.137 0.840 -0.17 0.66 -0.73 0.07
1 6.50 650 3.160 -10.980 0.067 0.854 5.127 -12.390 -1034.926 -239.994 -2444.907 -1.656 1.316 0.549 -0.17 0.66 -0.73 0.07
1 6.51 651 2.797 -11.004 0.512 -1.251 14.008 -3.784 -1109.877 -284.964 -2444.907 -1.277 1.343 0.109 -0.17 0.66 -0.73 0.07
1 6.52 652 2.471 -11.124 0.800 -5.341 22.308 2.747 -1019.936 -299.955 -2639.930 -0.948 1.463 -0.177 -0.17 0.66 -0.73 0.07
1 6.53 653 2.102 -11.028 0.752 -2.197 20.813 6.989 -1019.936 -299.955 -2639.930 -0.586 1.366 -0.129 -0.17 0.66 -0.73 0.07
1 6.54 654 2.016 -10.458 0.986 6.622 16.541 5.920 -1064.906 -374.906 -2534.999 -0.511 0.795 -0.358 -0.17 0.66 -0.73 0.07
1 6.55 655 2.217 -10.286 1.504 5.249 17.059 13.855 -974.965 -464.997 -2549.989 -0.719 0.623 -0.858 -0.17 0.66 -0.73 0.07
1 6.56 656 2.332 -9.970 1.935 5.127 19.501 20.325 -974.965 -464.997 -2549.989 -0.847 0.306 -1.271 -0.17 0.66 -0.73 0.07
1 6.57 657 1.748 -9.012 2.361 10.742 25.757 12.085 -1244.939 -599.909 -2459.897 -0.309 -0.655 -1.648 -0.16 0.66 -0.73 0.07
1 6.58 658 1.422 -8.567 2.174 8.759 27.771 7.874 -1139.857 -449.857 -2534.999 0.002 -1.100 -1.426 -0.16 0.66 -0.73 0.07
1 6.59 659 0.651 -8.131 2.093 4.456 31.342 7.172 -1079.896 -539.948 -2519.858 0.762 -1.535 -1.313 -0.16 0.66 -0.73 0.07
1 6.60 660 -0.220 -7.609 1.987 -0.854 37.537 6.805 -1079.896 -539.948 -2519.858 1.621 -2.058 -1.194 -0.16 0.66 -0.73 0.07
1 6.61 661 -0.857 -7.456 1.939 -5.188 42.236 6.317 -1094.887 -374.906 -2504.868 2.245 -2.212 -1.139 -0.15 0.66 -0.73 0.06
1 6.62 662 -1.422 -8.102 2.040 -4.822 39.826 8.148 -944.984 -419.876 -2459.897 2.797 -1.568 -1.237 -0.15 0.66 -0.73 0.06
1 6.63 663 -1.144 -8.888 1.777 -5.859 27.710 11.902 -944.984 -419.876 -2459.897 2.504 -0.784 -0.972 -0.15 0.66 -0.73 0.06
1 6.64 664 0.005 -9.922 2.136 -17.395 7.660 11.841 -839.903 -254.984 -2384.946 1.300 0.242 -1.333 -0.15 0.66 -0.73 0.06
1 6.65 665 0.345 -10.123 2.131 -17.365 6.012 11.658 -899.864 -359.916 -2519.858 0.931 0.439 -1.342 -0.14 0.66 -0.73 0.06
1 6.66 666 0.915 -10.224 2.260 2.472 11.139 14.038 -1004.945 -164.893 -2594.959 0.337 0.536 -1.473 -0.14 0.66 -0.73 0.06
1 6.67 667 0.728 -9.793 2.164 17.426 17.670 12.695 -1004.945 -164.893 -2594.959 0.500 0.104 -1.352 -0.14 0.66 -0.73 0.06
1 6.68 668 0.220 -9.108 1.954 23.682 18.097 7.050 -869.883 -449.857 -2504.868 0.987 -0.580 -1.097 -0.14 0.66 -0.73 0.06
1 6.69 669 -0.129 -8.701 2.059 15.564 5.768 0.549 -974.965 -434.867 -2474.888 1.321 -0.984 -1.154 -0.14 0.66 -0.74 0.06
1 6.70 670 -0.110 -9.046 2.222 2.350 -1.495 2.045 -974.965 -434.867 -2474.888 1.292 -0.637 -1.277 -0.14 0.66 -0.74 0.06
1 6.71 671 -0.043 -9.501 2.399 -2.411 -4.303 4.303 -869.883 -449.857 -2384.946 1.215 -0.181 -1.435 -0.14 0.66 -0.74 0.06
1 6.72 672 -0.101 -10.080 2.351 11.597 1.038 4.456 -1019.936 -449.857 -2639.930 1.246 0.398 -1.362 -0.14 0.66 -0.74 0.07
1 6.73 673 -0.283 -9.922 2.389 25.147 4.730 5.463 -779.942 -434.867 -2519.858 1.413 0.241 -1.366 -0.14 0.66 -0.74 0.07
1 6.74 674 -0.867 -9.266 2.136 31.647 5.219 6.897 -779.942 -434.867 -2519.858 1.978 -0.411 -1.059 -0.14 0.65 -0.74 0.07
1 6.75 675 -1.034 -8.710 1.911 33.447 2.960 8.179 -794.932 -329.935 -2384.946 2.122 -0.962 -0.774 -0.13 0.65 -0.74 0.07
1 6.76 676 -0.560 -8.476 1.475 24.262 -4.364 13.062 -779.942 -359.916 -2549.989 1.622 -1.193 -0.280 -0.13 0.65 -0.75 0.07
1 6.77 677 -0.172 -8.624 1.250 9.918 -4.730 16.419 -779.942 -359.916 -2549.989 1.218 -1.041 -0.014 -0.13 0.65 -0.75 0.07
1 6.78 678 0.101 -8.897 1.231 3.479 -2.533 16.968 -854.893 -314.945 -2594.959 0.924 -0.768 0.026 -0.13 0.65 -0.75 0.07
1 6.79 679 0.512 -9.055 1.082 9.674 -0.763 17.517 -734.971 -419.876 -2609.950 0.456 -0.613 0.192 -0.13 0.65 -0.75 0.07
1 6.80 680 0.915 -8.844 0.958 13.001 -1.190 15.533 -779.942 -509.968 -2594.959 0.026 -0.824 0.334 -0.13 0.65 -0.75 0.07
1 6.81 681 1.063 -8.552 1.068 9.827 -0.916 12.604 -779.942 -509.968 -2594.959 -0.143 -1.116 0.243 -0.13 0.65 -0.75 0.08
1 6.82 682 1.144 -8.744 1.307 1.312 1.709 9.796 -779.942 -314.945 -2474.888 -0.240 -0.924 0.016 -0.13 0.65 -0.75 0.08
1 6.83 683 1.317 -8.955 1.279 -6.012 4.883 9.827 -914.854 -374.906 -2684.901 -0.425 -0.714 0.046 -0.13 0.65 -0.75 0.08
1 6.84 684 1.317 -9.400 1.336 -6.134 10.803 9.522 -914.854 -374.906 -2684.901 -0.436 -0.271 -0.019 -0.13 0.65 -0.75 0.08
1 6.85 685 1.216 -9.395 1.188 -2.197 15.411 6.439 -779.942 -539.948 -2594.959 -0.347 -0.278 0.123 -0.13 0.65 -0.75 0.08
1 6.86 686 0.967 -9.328 1.140 0.183 18.524 2.716 -779.942 -539.948 -2594.959 -0.106 -0.346 0.170 -0.12 0.65 -0.75 0.08
1 6.87 687 0.479 -9.304 0.795 -0.458 17.090 -3.296 -704.991 -359.916 -2729.872 0.374 -0.369 0.521 -0.12 0.65 -0.75 0.07
1 6.88 688 0.297 -9.477 0.876 -3.235 14.160 -6.836 -704.991 -359.916 -2729.872 0.558 -0.197 0.439 -0.12 0.65 -0.75 0.07
1 6.89 689 0.177 -9.663 0.642 -5.249 12.970 -7.965 -734.971 -374.906 -2639.930 0.684 -0.010 0.668 -0.12 0.65 -0.75 0.07
1 6.90 690 0.120 -9.778 0.670 -4.456 11.292 -7.477 -779.942 -464.997 -2444.907 0.747 0.104 0.630 -0.12 0.65 -0.75 0.07
1 6.91 691 -0.345 -9.735 0.177 1.465 6.195 -10.315 -779.942 -464.997 -2444.907 1.216 0.060 1.117 -0.12 0.65 -0.75 0.07
1 6.92 692 -0.522 -9.390 0.192 5.280 1.617 -12.848 -779.942 -434.867 -2624.940 1.400 -0.284 1.101 -0.12 0.65 -0.75 0.07
1 6.93 693 -0.407 -9.534 0.034 0.793 -0.641 -11.902 -779.942 -434.867 -2624.940 1.295 -0.140 1.259 -0.12 0.65 -0.75 0.07
1 6.94 694 -0.723 -9.735 0.187 -8.118 -5.066 -8.759 -824.913 -389.896 -2624.940 1.627 0.061 1.089 -0.12 0.65 -0.75 0.07
1 6.95 695 -0.603 -9.673 0.115 -1.221 -9.491 -11.383 -824.913 -389.896 -2624.940 1.512 -0.003 1.143 -0.12 0.65 -0.75 0.07
1 6.96 696 -0.771 -9.706 0.431 5.219 -10.895 -13.275 -824.913 -509.968 -2474.888 1.690 0.030 0.820 -0.12 0.65 -0.75 0.07
1 6.97 697 -0.915 -9.659 0.493 7.324 -13.641 -10.956 -839.903 -329.935 -2564.979 1.843 -0.016 0.760 -0.12 0.65 -0.75 0.07
1 6.98 698 -1.073 -9.429 0.632 5.707 -19.135 -7.965 -839.903 -329.935 -2564.979 2.007 -0.245 0.625 -0.12 0.65 -0.75 0.07
1 6.99 699 -0.963 -9.084 0.498 12.177 -22.247 -5.219 -794.932 -254.984 -2534.999 1.899 -0.589 0.762 -0.13 0.65 -0.75 0.07
1 7.00 700 -0.618 -9.050 0.177 12.756 -26.245 2.197 -794.932 -254.984 -2534.999 1.555 -0.622 1.092 -0.13 0.65 -0.75 0.07
1 7.01 701 0.115 -9.592 0.709 -3.845 -34.149 12.543 -989.955 -419.876 -2564.979 0.800 -0.081 0.572 -0.13 0.65 -0.75 0.08
1 7.02 702 0.680 -10.382 1.331 -9.949 -36.560 15.991 -989.955 -419.876 -2564.979 0.217 0.705 -0.068 -0.13 0.65 -0.75 0.08
1 7.03 703 1.542 -11.579 1.906 -3.998 -33.234 20.996 -899.864 -314.945 -2549.989 -0.664 1.898 -0.661 -0.13 0.65 -0.75 0.08
1 7.04 704 2.088 -11.497 1.537 13.245 -26.917 27.527 -899.864 -434.867 -2624.940 -1.236 1.814 -0.295 -0.13 0.65 -0.75 0.09
1 7.05 705 2.299 -10.698 0.939 32.227 -20.325 25.726 -899.864 -434.867 -2624.940 -1.482 1.015 0.330 -0.13 0.65 -0.75 0.09
1 7.06 706 1.829 -9.663 0.340 38.330 -12.573 8.637 -929.994 -284.964 -2669.911 -1.042 -0.015 0.980 -0.13 0.64 -0.75 0.09
1 7.07 707 1.140 -9.362 -0.168 32.593 -16.235 3.815 -929.994 -284.964 -2669.911 -0.356 -0.310 1.540 -0.13 0.64 -0.75 0.09
1 7.08 708 0.522 -9.788 -0.508 18.372 -27.802 3.174 -944.984 -524.958 -2639.930 0.270 0.127 1.948 -0.13 0.64 -0.75 0.09
1 7.09 709 0.369 -9.994 -0.575 15.625 -29.053 0.763 -944.984 -524.958 -2639.930 0.427 0.334 2.024 -0.14 0.64 -0.75 0.1
1 7.10 710 -0.024 -10.271 -1.068 19.318 -34.149 -7.935 -1034.926 -389.896 -2549.989 0.830 0.614 2.523 -0.14 0.64 -0.75 0.1
1 7.11 711 0.086 -10.329 -0.876 21.820 -40.039 -9.247 -1004.945 -389.896 -2669.911 0.736 0.674 2.340 -0.14 0.64 -0.75 0.1
1 7.12 712 0.512 -10.717 2.035 13.580 -38.056 -8.667 -1004.945 -389.896 -2669.911 0.328 1.065 -0.563 -0.14 0.64 -0.75 0.1
1 7.13 713 2.571 -15.390 3.520 -43.701 -48.126 39.276 -1004.945 -389.896 -2699.891 -1.716 5.740 -2.047 -0.15 0.64 -0.75 0.1
1 7.14 714 3.500 -13.284 1.690 8.972 -34.454 50.751 -1004.945 -389.896 -2699.891 -2.675 3.622 -0.273 -0.15 0.64 -0.75 0.11
1 7.15 715 3.175 -11.004 1.868 77.759 -0.153 27.008 -914.854 -569.929 -2714.881 -2.416 1.334 -0.470 -0.15 0.64 -0.75 0.11
1 7.16 716 0.996 -9.199 2.284 36.194 16.815 26.917 -989.955 -449.857 -2639.930 -0.317 -0.446 -0.686 -0.14 0.63 -0.75 0.12
1 7.17 717 0.364 -9.031 1.427 3.265 2.808 27.802 -1034.926 -434.867 -2669.911 0.277 -0.608 0.220 -0.14 0.63 -0.76 0.12
1 7.18 718 -0.077 -10.358 1.437 -12.299 -4.425 20.233 -989.955 -524.958 -2714.881 0.680 0.716 0.210 -0.14 0.63 -0.76 0.12
1 7.19 719 -0.623 -11.124 2.073 -11.108 -0.061 25.147 -989.955 -524.958 -2714.881 1.193 1.477 -0.448 -0.14 0.63 -0.75 0.12
1 7.20 720 -1.063 -9.343 1.753 9.247 -0.397 14.679 -929.994 -509.968 -2699.891 1.597 -0.309 -0.137 -0.14 0.63 -0.75 0.12
1 7.21 721 -0.800 -8.576 1.925 7.813 -9.460 1.892 -929.994 -509.968 -2699.891 1.302 -1.075 -0.299 -0.14 0.63 -0.75 0.12
1 7.22 722 -0.532 -8.840 2.519 -16.632 -17.883 1.709 -929.994 -464.997 -2774.992 1.019 -0.809 -0.875 -0.13 0.63 -0.75 0.12
1 7.23 723 0.057 -9.606 3.242 -37.171 -21.881 6.683 -1019.936 -524.958 -2759.852 0.423 -0.052 -1.650 -0.14 0.63 -0.75 0.12
1 7.24 724 0.646 -10.046 3.204 -21.454 -25.360 7.660 -914.854 -494.978 -2639.930 -0.173 0.382 -1.649 -0.14 0.63 -0.75 0.12
1 7.25 725 1.087 -9.769 3.151 -8.637 -28.900 10.376 -1034.926 -539.948 -2729.872 -0.618 0.102 -1.611 -0.14 0.63 -0.75 0.13
1 7.26 726 1.427 -8.993 3.189 -5.554 -25.147 12.177 -1034.926 -539.948 -2729.872 -0.963 -0.674 -1.649 -0.14 0.63 -0.75 0.13
1 7.27 727 1.604 -8.485 3.098 -10.162 -20.233 15.869 -824.913 -629.890 -2669.911 -1.145 -1.181 -1.554 -0.14 0.63 -0.75 0.13
1 7.28 728 1.695 -8.394 2.878 -27.771 -17.395 24.262 -824.913 -629.890 -2669.911 -1.248 -1.274 -1.338 -0.14 0.63 -0.75 0.13
1 7.29 729 1.422 -8.686 2.825 -42.664 -15.045 20.264 -1034.926 -629.890 -2669.911 -0.995 -0.986 -1.308 -0.14 0.63 -0.75 0.13
1 7.30 730 0.872 -9.702 2.418 -52.216 -15.503 11.871 -974.965 -389.896 -2669.911 -0.462 0.022 -0.946 -0.14 0.64 -0.75 0.13
1 7.31 731 0.383 -11.100 1.729 -56.244 -20.813 2.838 -1019.936 -494.978 -2609.950 0.013 1.399 -0.396 -0.14 0.64 -0.74 0.13
1 7.32 732 0.397 -11.181 1.652 -47.211 -17.700 -5.096 -794.932 -419.876 -2564.979 0.003 1.470 -0.400 -0.14 0.64 -0.74 0.13
1 7.33 733 0.215 -11.411 1.671 -44.739 -16.571 -8.057 -794.932 -419.876 -2564.979 0.198 1.692 -0.487 -0.15 0.65 -0.74 0.13
1 7.34 734 -0.053 -11.224 1.959 -42.084 -15.900 -9.796 -854.893 -284.964 -2519.858 0.483 1.498 -0.840 -0.15 0.65 -0.73 0.13
1 7.35 735 0.584 -11.813 1.973 -37.689 -18.646 -10.010 -854.893 -284.964 -2519.858 -0.134 2.081 -0.914 -0.15 0.65 -0.73 0.13
1 7.36 736 1.317 -12.244 1.590 -29.694 -23.468 -10.895 -974.965 -314.945 -2414.927 -0.848 2.507 -0.587 -0.15 0.65 -0.73 0.13
1 7.37 737 1.987 -11.655 1.571 -1.831 -28.198 -15.411 -779.942 -314.945 -2414.927 -1.498 1.914 -0.617 -0.15 0.65 -0.73 0.13
1 7.38 738 2.524 -10.080 1.595 20.325 -19.989 -22.095 -974.965 -314.945 -2474.888 -1.973 0.343 -0.633 -0.16 0.65 -0.73 0.13
1 7.39 739 2.140 -9.788 1.408 9.033 -15.289 -21.790 -1004.945 -239.994 -2594.959 -1.538 0.057 -0.414 -0.16 0.65 -0.73 0.13
1 7.40 740 1.738 -9.860 1.154 0.885 -17.426 -23.468 -1004.945 -239.994 -2594.959 -1.086 0.133 -0.149 -0.16 0.65 -0.73 0.13
1 7.41 741 1.781 -9.908 1.006 5.280 -24.017 -25.269 -1094.887 -149.902 -2564.979 -1.080 0.185 0.003 -0.16 0.65 -0.73 0.13
1 7.42 742 1.642 -9.730 0.857 13.580 -25.635 -26.001 -1094.887 -149.902 -2564.979 -0.890 0.013 0.161 -0.17 0.65 -0.73 0.13
1 7.43 743 1.657 -9.017 0.843 18.250 -17.761 -21.912 -1034.926 -359.916 -2519.858 -0.854 -0.695 0.196 -0.17 0.65 -0.73 0.13
1 7.44 744 1.432 -8.615 0.747 13.458 -12.878 -18.829 -1184.978 -314.945 -2414.927 -0.585 -1.090 0.318 -0.17 0.65 -0.73 0.13
1 7.45 745 1.159 -8.519 0.685 2.533 -13.306 -18.524 -1064.906 -179.883 -2429.917 -0.242 -1.176 0.412 -0.18 0.64 -0.73 0.13
1 7.46 746 1.226 -8.505 0.704 -0.122 -14.526 -18.799 -1064.906 -254.984 -2609.950 -0.277 -1.187 0.395 -0.18 0.64 -0.73 0.13
1 7.47 747 1.393 -8.241 0.608 3.601 -15.839 -19.379 -1064.906 -254.984 -2609.950 -0.412 -1.447 0.492 -0.18 0.64 -0.73 0.13
1 7.48 748 1.729 -8.394 0.819 7.050 -14.801 -20.508 -1064.906 -374.906 -2534.999 -0.714 -1.290 0.288 -0.18 0.64 -0.74 0.13
1 7.49 749 2.054 -8.184 0.757 6.500 -13.092 -21.607 -1064.906 -374.906 -2534.999 -1.005 -1.496 0.360 -0.18 0.64 -0.74 0.13
1 7.50 750 2.231 -8.026 0.915 4.578 -7.019 -21.759 -1229.949 -239.994 -2519.858 -1.146 -1.649 0.211 -0.18 0.64 -0.74 0.12
1 7.51 751 2.231 -8.002 0.848 5.371 -1.801 -21.973 -1244.939 -329.935 -2534.999 -1.110 -1.668 0.285 -0.19 0.64 -0.74 0.12
1 7.52 752 2.069 -8.284 0.637 0.763 4.028 -24.292 -1199.968 -449.857 -2564.979 -0.877 -1.375 0.514 -0.19 0.64 -0.74 0.12
1 7.53 753 1.858 -8.150 0.680 -0.793 5.463 -25.086 -1349.871 -419.876 -2609.950 -0.629 -1.504 0.474 -0.19 0.64 -0.74 0.12
1 7.54 754 1.748 -8.165 0.503 1.465 7.324 -22.766 -1349.871 -419.876 -2609.950 -0.483 -1.484 0.654 -0.19 0.64 -0.74 0.12
1 7.55 755 1.762 -8.121 0.321 0.580 9.460 -19.745 -1424.972 -374.906 -2534.999 -0.465 -1.522 0.842 -0.19 0.64 -0.74 0.12
1 7.56 756 1.585 -8.131 0.115 -3.296 9.583 -16.205 -1424.972 -374.906 -2534.999 -0.260 -1.509 1.051 -0.19 0.64 -0.74 0.12
1 7.57 757 1.494 -8.203 -0.048 -7.080 8.179 -10.071 -1109.877 -389.896 -2594.959 -0.146 -1.434 1.212 -0.19 0.64 -0.74 0.11
1 7.58 758 1.647 -8.198 -0.129 -7.019 9.644 -5.676 -1349.871 -299.955 -2564.979 -0.282 -1.437 1.287 -0.19 0.64 -0.74 0.11
1 7.59 759 1.848 -8.256 -0.263 -9.491 11.353 -0.305 -1349.871 -299.955 -2564.979 -0.473 -1.379 1.414 -0.19 0.64 -0.74 0.11
1 7.60 760 1.853 -8.481 -0.326 -14.038 14.282 5.859 -1259.929 -389.896 -2519.858 -0.482 -1.157 1.453 -0.19 0.64 -0.74 0.11
1 7.61 761 1.700 -8.471 -0.378 -14.954 16.510 9.796 -1259.929 -389.896 -2519.858 -0.340 -1.170 1.489 -0.19 0.64 -0.74 0.11
1 7.62 762 1.331 -8.859 -0.393 -16.419 18.189 13.001 -1304.900 -389.896 -2549.989 0.012 -0.787 1.486 -0.19 0.64 -0.74 0.11
1 7.63 763 1.164 -9.003 -0.335 -16.693 18.280 14.710 -1304.900 -389.896 -2549.989 0.159 -0.649 1.399 -0.19 0.64 -0.74 0.11
1 7.64 764 1.106 -9.357 -0.479 -14.038 14.038 14.801 -1244.939 -374.906 -2459.897 0.194 -0.301 1.513 -0.19 0.64 -0.74 0.11
1 7.65 765 1.140 -9.256 -0.110 -11.322 13.825 16.998 -1154.998 -314.945 -2444.907 0.136 -0.408 1.116 -0.18 0.64 -0.73 0.11
1 7.66 766 1.092 -9.390 0.259 -11.932 14.374 17.822 -1154.998 -314.945 -2444.907 0.158 -0.280 0.725 -0.18 0.65 -0.73 0.11
1 7.67 767 0.972 -9.726 1.039 -13.336 12.848 14.862 -1109.877 -239.994 -2369.956 0.224 0.045 -0.096 -0.18 0.65 -0.73 0.11
1 7.68 768 0.929 -10.377 1.815 -12.695 9.003 9.949 -1109.877 -239.994 -2369.956 0.245 0.692 -0.887 -0.18 0.65 -0.73 0.11
1 7.69 769 0.982 -10.894 2.093 -8.575 5.859 3.784 -1139.857 -299.955 -2534.999 0.178 1.206 -1.175 -0.18 0.65 -0.73 0.11
1 7.70 770 1.202 -10.770 1.801 8.148 4.883 0.366 -1139.857 -299.955 -2534.999 -0.046 1.081 -0.883 -0.18 0.65 -0.73 0.11
1 7.71 771 1.154 -10.947 1.973 20.111 4.517 -0.580 -1169.988 -254.984 -2609.950 0.003 1.261 -1.034 -0.18 0.65 -0.73 0.11
1 7.72 772 1.140 -11.062 1.810 15.137 -1.892 -4.425 -1229.949 -284.964 -2444.907 0.020 1.379 -0.839 -0.18 0.65 -0.73 0.11
1 7.73 773 1.705 -10.635 0.876 24.506 -6.195 -1.434 -1229.949 -284.964 -2444.907 -0.538 0.956 0.120 -0.18 0.65 -0.73 0.11
1 7.74 774 2.615 -10.104 0.292 32.959 -8.362 5.341 -1199.968 -224.854 -2504.868 -1.442 0.429 0.736 -0.18 0.65 -0.74 0.11
1 7.75 775 3.826 -9.735 -0.297 13.428 -5.890 8.911 -1034.926 -314.945 -2414.927 -2.649 0.069 1.401 -0.18 0.64 -0.74 0.11
1 7.76 776 4.176 -9.510 -0.599 6.714 3.082 9.552 -1229.949 -359.916 -2699.891 -2.991 -0.154 1.710 -0.18 0.64 -0.74 0.11
1 7.77 777 4.185 -9.592 -0.249 3.448 15.045 10.498 -1229.949 -359.916 -2699.891 -2.993 -0.072 1.361 -0.18 0.64 -0.74 0.11
1 7.78 778 4.243 -10.698 1.767 -21.088 29.511 7.660 -1154.998 -209.863 -2594.959 -3.044 1.034 -0.663 -0.18 0.64 -0.74 0.11
1 7.79 779 0.881 -15.611 0.560 -72.571 42.603 -44.617 -1259.929 -314.945 -2699.891 0.320 5.942 0.498 -0.18 0.64 -0.74 0.11
1 7.80 780 -0.182 -14.701 -0.646 24.384 25.696 -66.376 -1259.929 -314.945 -2699.891 1.427 5.027 1.603 -0.18 0.65 -0.73 0.1
1 7.81 781 -0.555 -13.777 0.378 53.681 2.380 -50.965 -1154.998 -314.945 -2669.911 1.893 4.116 0.582 -0.18 0.65 -0.73 0.1
1 7.82 782 0.139 -12.977 1.010 -16.663 -22.888 -17.426 -1154.998 -209.863 -2549.989 1.338 3.347 0.051 -0.18 0.64 -0.74 0.09
1 7.83 783 2.255 -12.934 1.432 -7.965 -46.784 -17.212 -1244.939 -149.902 -2684.901 -0.750 3.306 -0.397 -0.19 0.64 -0.74 0.09
1 7.84 784 4.525 -13.705 2.011 -11.261 -51.666 -33.661 -1244.939 -149.902 -2684.901 -2.978 4.081 -0.999 -0.19 0.64 -0.74 0.09
1 7.85 785 5.804 -13.671 1.959 8.484 -32.257 -20.172 -1334.880 -314.945 -2474.888 -4.200 4.054 -0.969 -0.19 0.64 -0.74 0.09
1 7.86 786 4.458 -11.023 1.001 35.706 -3.510 -2.686 -1274.919 -254.984 -2564.979 -2.826 1.413 0.010 -0.2 0.64 -0.74 0.1
1 7.87 787 3.371 -9.161 1.063 10.193 8.575 21.912 -1274.919 -254.984 -2564.979 -1.738 -0.444 0.002 -0.2 0.64 -0.74 0.1
1 7.88 788 3.405 -9.410 1.710 -24.841 8.911 38.269 -1229.949 -239.994 -2444.907 -1.790 -0.194 -0.614 -0.19 0.64 -0.74 0.1
1 7.89 789 3.673 -10.856 2.040 -43.274 16.602 41.748 -1364.861 -389.896 -2624.940 -2.147 1.230 -1.014 -0.19 0.64 -0.74 0.1
1 7.90 790 3.275 -10.803 2.260 -20.447 30.151 29.450 -1274.919 -224.854 -2684.901 -1.809 1.162 -1.286 -0.19 0.64 -0.73 0.1
1 7.91 791 2.164 -9.908 2.437 12.360 41.046 17.548 -1274.919 -224.854 -2684.901 -0.741 0.260 -1.472 -0.19 0.65 -0.73 0.1
1 7.92 792 1.202 -8.677 2.140 33.997 43.976 10.315 -1349.871 -299.955 -2534.999 0.196 -0.970 -1.131 -0.18 0.64 -0.74 0.1
1 7.93 793 0.455 -7.614 1.959 37.018 37.445 9.613 -1184.978 -284.964 -2624.940 0.925 -2.028 -0.876 -0.18 0.64 -0.74 0.1
1 7.94 794 0.254 -6.723 2.706 12.817 26.306 7.080 -1184.978 -284.964 -2624.940 1.107 -2.914 -1.563 -0.18 0.64 -0.74 0.1
1 7.95 795 0.407 -7.236 2.567 -14.740 20.905 3.845 -1259.929 -239.994 -2549.989 0.938 -2.400 -1.388 -0.18 0.64 -0.74 0.1
1 7.96 796 0.718 -8.840 2.121 -38.147 9.186 2.411 -1109.877 -89.941 -2669.911 0.612 -0.803 -0.990 -0.17 0.64 -0.74 0.09
1 7.97 797 0.943 -9.089 2.188 -33.936 8.637 2.899 -1169.988 -329.935 -2609.950 0.382 -0.560 -1.103 -0.17 0.64 -0.74 0.09
1 7.98 798 1.082 -9.108 2.394 0.427 19.043 4.211 -1169.988 -329.935 -2609.950 0.234 -0.544 -1.322 -0.17 0.64 -0.74 0.09
1 7.99 799 0.613 -8.524 2.586 16.388 26.550 6.744 -929.994 -164.893 -2624.940 0.693 -1.127 -1.489 -0.17 0.64 -0.74 0.09
1 8.00 800 0.172 -8.097 2.394 14.130 25.330 9.796 -1079.896 -119.922 -2624.940 1.116 -1.550 -1.254 -0.17 0.64 -0.74 0.09
1 8.01 801 0.254 -8.165 2.653 -9.583 15.015 10.376 -1079.896 -119.922 -2624.940 1.017 -1.483 -1.490 -0.17 0.64 -0.74 0.09
1 8.02 802 0.393 -8.667 2.825 -20.783 10.590 11.414 -1109.877 -89.941 -2519.858 0.861 -0.983 -1.665 -0.16 0.64 -0.74 0.09
1 8.03 803 0.570 -9.228 2.409 -14.191 10.773 12.787 -1169.988 -149.902 -2684.901 0.667 -0.427 -1.272 -0.16 0.64 -0.74 0.09
1 8.04 804 0.704 -8.567 2.337 17.212 15.839 15.747 -974.965 -209.863 -2549.989 0.483 -1.094 -1.194 -0.16 0.64 -0.74 0.09
1 8.05 805 0.646 -8.026 2.246 27.618 20.447 18.097 -974.965 -209.863 -2549.989 0.512 -1.633 -1.058 -0.16 0.64 -0.74 0.09
1 8.06 806 0.512 -7.729 2.097 17.517 21.088 18.341 -1079.896 -209.863 -2549.989 0.617 -1.928 -0.866 -0.16 0.64 -0.74 0.09
1 8.07 807 0.321 -7.968 1.815 -2.838 21.301 15.350 -1184.978 -359.916 -2594.959 0.779 -1.689 -0.559 -0.15 0.64 -0.75 0.09
1 8.08 808 -0.005 -8.964 1.604 -18.066 23.254 7.782 -1184.978 -359.916 -2594.959 1.081 -0.696 -0.354 -0.15 0.64 -0.75 0.09
1 8.09 809 -0.168 -9.443 1.417 -10.376 23.346 3.510 -1094.887 -299.955 -2684.901 1.228 -0.221 -0.187 -0.15 0.64 -0.74 0.09
1 8.10 810 -0.397 -9.553 1.384 -0.458 23.224 0.549 -989.955 -299.955 -2759.852 1.440 -0.114 -0.164 -0.15 0.64 -0.74 0.09
1 8.11 811 -0.460 -9.175 1.307 4.639 19.043 -3.326 -989.955 -104.932 -2609.950 1.477 -0.493 -0.072 -0.15 0.64 -0.75 0.09
1 8.12 812 -0.570 -9.017 1.240 0.641 14.435 -3.815 -989.955 -104.932 -2609.950 1.580 -0.651 0.006 -0.15 0.64 -0.75 0.09
1 8.13 813 -0.220 -9.117 1.403 -7.019 10.986 -3.113 -1004.945 -209.863 -2594.959 1.223 -0.551 -0.155 -0.14 0.64 -0.75 0.09
1 8.14 814 0.077 -9.328 1.504 -11.139 9.277 -2.075 -1004.945 -209.863 -2624.940 0.921 -0.342 -0.262 -0.14 0.64 -0.75 0.09
1 8.15 815 0.220 -9.414 1.317 -8.789 10.712 -1.617 -1004.945 -209.863 -2624.940 0.772 -0.257 -0.087 -0.14 0.65 -0.75 0.09
1 8.16 816 0.469 -9.065 1.212 -0.702 13.489 1.801 -869.883 -74.951 -2639.930 0.519 -0.608 0.013 -0.14 0.65 -0.75 0.09
1 8.17 817 0.570 -8.955 1.331 -5.157 14.160 5.463 -899.864 -164.893 -2699.891 0.411 -0.719 -0.104 -0.14 0.65 -0.75 0.09
1 8.18 818 0.517 -9.204 1.288 -13.306 15.289 5.890 -899.864 -164.893 -2699.891 0.452 -0.471 -0.061 -0.14 0.65 -0.75 0.09
1 8.19 819 0.460 -9.754 0.804 -12.116 17.609 4.639 -989.955 -179.883 -2639.930 0.486 0.074 0.394 -0.14 0.65 -0.74 0.08
1 8.20 820 0.460 -9.855 0.776 -7.324 15.747 7.660 -914.854 -149.902 -2564.979 0.473 0.172 0.409 -0.14 0.65 -0.74 0.08
1 8.21 821 0.383 -9.769 0.752 -3.113 11.505 7.568 -929.994 -119.922 -2699.891 0.533 0.083 0.424 -0.14 0.65 -0.74 0.08
1 8.22 822 0.546 -9.477 0.594 -1.007 10.803 3.876 -929.994 -119.922 -2699.891 0.355 -0.211 0.578 -0.13 0.65 -0.74 0.08
1 8.23 823 0.469 -9.649 0.584 -2.441 8.301 3.815 -899.864 -119.922 -2549.989 0.423 -0.040 0.586 -0.13 0.65 -0.74 0.08
1 8.24 824 0.163 -9.639 0.374 -2.197 11.688 3.601 -899.864 -284.964 -2669.911 0.721 -0.051 0.793 -0.13 0.65 -0.74 0.08
1 8.25 825 -0.273 -9.716 0.225 -1.099 14.496 2.258 -899.864 -284.964 -2669.911 1.148 0.024 0.935 -0.13 0.65 -0.74 0.08
1 8.26 826 -0.977 -9.769 0.120 2.686 8.484 -2.228 -839.903 -179.883 -2714.881 1.831 0.074 1.033 -0.13 0.65 -0.74 0.08
1 8.27 827 -1.293 -9.611 -0.330 3.387 -0.092 -3.357 -869.883 -254.984 -2564.979 2.138 -0.085 1.482 -0.13 0.65 -0.74 0.08
1 8.28 828 -1.006 -9.515 -0.388 2.930 -6.836 -5.707 -869.883 -149.902 -2504.868 1.843 -0.181 1.536 -0.13 0.65 -0.74 0.08
1 8.29 829 -0.599 -9.362 -0.378 1.862 -12.238 -4.730 -869.883 -149.902 -2504.868 1.433 -0.336 1.520 -0.13 0.65 -0.74 0.08
1 8.30 830 -0.038 -9.611 -0.421 -4.517 -17.578 -4.578 -854.893 -89.941 -2669.911 0.872 -0.088 1.552 -0.13 0.65 -0.74 0.08
1 8.31 831 0.172 -9.769 -0.431 -4.120 -16.296 -7.690 -794.932 -224.854 -2684.901 0.664 0.068 1.544 -0.13 0.65 -0.74 0.08
1 8.32 832 0.297 -9.716 0.129 -1.465 -12.054 -9.674 -794.932 -224.854 -2684.901 0.548 0.014 0.966 -0.13 0.65 -0.74 0.08
1 8.33 833 -0.014 -9.989 0.441 6.042 -4.852 -11.444 -869.883 -29.980 -2639.930 0.888 0.288 0.641 -0.13 0.65 -0.74 0.08
1 8.34 834 -0.129 -9.802 0.723 5.371 -6.836 -9.186 -869.883 -179.883 -2609.950 1.015 0.103 0.363 -0.14 0.65 -0.74 0.08
1 8.35 835 -0.091 -10.056 1.140 4.913 -10.559 -9.216 -1034.926 -119.922 -2594.959 0.986 0.358 -0.048 -0.14 0.65 -0.74 0.08
1 8.36 836 0.374 -10.837 1.963 3.296 -12.085 -2.594 -1034.926 -119.922 -2594.959 0.529 1.140 -0.866 -0.14 0.65 -0.74 0.08
1 8.37 837 1.168 -10.846 2.088 9.857 -8.545 7.690 -869.883 0.000 -2684.901 -0.265 1.151 -0.982 -0.14 0.65 -0.74 0.09
1 8.38 838 1.566 -9.745 1.226 27.771 -5.463 6.409 -914.854 -149.902 -2639.930 -0.673 0.051 -0.100 -0.14 0.65 -0.74 0.09
1 8.39 839 1.604 -9.443 0.541 29.114 -7.141 2.197 -914.854 -149.902 -2639.930 -0.716 -0.246 0.628 -0.14 0.65 -0.74 0.09
1 8.40 840 0.910 -9.716 -0.067 18.768 -0.763 3.052 -974.965 -164.893 -2774.992 -0.012 0.037 1.312 -0.14 0.65 -0.75 0.09
1 8.41 841 0.306 -9.860 -0.273 16.144 0.946 3.418 -899.864 -164.893 -2774.992 0.589 0.183 1.537 -0.14 0.65 -0.75 0.09
1 8.42 842 -1.106 -9.879 -1.039 13.702 -8.270 -3.510 -824.913 -239.994 -2774.992 1.995 0.203 2.313 -0.14 0.65 -0.75 0.09
1 8.43 843 -1.235 -9.386 -1.216 17.304 -26.581 -10.010 -824.913 -239.994 -2774.992 2.122 -0.290 2.495 -0.14 0.64 -0.75 0.09
1 8.44 844 -0.867 -8.907 -1.149 16.998 -39.795 -12.177 -974.965 -164.893 -2699.891 1.761 -0.767 2.434 -0.14 0.64 -0.75 0.09
1 8.45 845 -0.115 -8.730 1.456 -6.195 -41.870 -9.552 -944.984 -29.980 -2789.982 1.023 -0.943 -0.171 -0.14 0.64 -0.75 0.09
1 8.46 846 0.919 -11.890 3.505 -49.805 -42.664 8.423 -944.984 -29.980 -2789.982 0.014 2.219 -2.226 -0.14 0.64 -0.75 0.09
1 8.47 847 3.065 -15.903 2.246 -103.546 -70.130 68.543 -1034.926 -209.863 -2804.973 -2.131 6.225 -1.016 -0.15 0.64 -0.74 0.1
1 8.48 848 4.123 -12.307 1.039 27.466 -9.827 44.891 -1004.945 -119.922 -2909.904 -3.354 2.588 -0.038 -0.15 0.65 -0.73 0.11
1 8.49 849 2.998 -10.798 1.326 56.976 14.710 20.386 -1004.945 -209.863 -2474.888 -2.282 1.083 -0.262 -0.15 0.65 -0.74 0.11
1 8.50 850 1.748 -9.285 1.566 19.104 16.571 19.470 -1004.945 -209.863 -2474.888 -1.063 -0.424 -0.424 -0.14 0.65 -0.74 0.11
1 8.51 851 0.809 -9.036 1.954 -23.621 14.435 9.949 -869.883 -74.951 -2759.852 -0.142 -0.672 -0.795 -0.14 0.65 -0.74 0.11
1 8.52 852 -1.077 -12.249 2.002 -52.979 9.064 16.632 -944.984 -29.980 -2819.963 1.733 2.536 -0.878 -0.14 0.65 -0.74 0.11
1 8.53 853 -1.575 -12.551 1.915 -38.788 -7.721 11.932 -944.984 -29.980 -2819.963 2.207 2.828 -0.860 -0.14 0.65 -0.74 0.11
1 8.54 854 -1.121 -11.598 2.011 0.031 -20.416 -5.768 -974.965 -44.971 -2774.992 1.732 1.867 -1.022 -0.14 0.66 -0.73 0.11
1 8.55 855 0.120 -10.334 2.457 4.944 -33.478 -3.601 -899.864 -14.990 -2804.973 0.518 0.605 -1.466 -0.14 0.66 -0.73 0.11
1 8.56 856 0.943 -9.553 2.643 -10.223 -35.248 7.446 -929.994 -44.971 -2849.943 -0.300 -0.175 -1.647 -0.14 0.65 -0.73 0.11
1 8.57 857 1.523 -9.611 2.911 -21.545 -31.098 11.475 -929.994 -44.971 -2849.943 -0.885 -0.119 -1.925 -0.15 0.65 -0.73 0.11
1 8.58 858 1.748 -10.291 3.074 -28.839 -25.818 12.421 -1064.906 -29.980 -2639.930 -1.117 0.559 -2.110 -0.15 0.66 -0.73 0.11
1 8.59 859 1.848 -10.722 2.840 -22.034 -20.386 14.435 -944.984 0.000 -2684.901 -1.228 0.985 -1.911 -0.15 0.66 -0.73 0.12
1 8.60 860 2.011 -9.979 2.811 -5.463 -7.080 21.942 -944.984 0.000 -2684.901 -1.410 0.240 -1.909 -0.15 0.66 -0.73 0.12
1 8.61 861 1.786 -9.544 2.916 -9.522 2.258 23.712 -974.965 14.990 -2624.940 -1.213 -0.199 -2.024 -0.15 0.66 -0.73 0.12
1 8.62 862 1.288 -10.056 2.394 -31.891 7.965 25.879 -929.994 89.941 -2849.943 -0.767 0.310 -1.510 -0.15 0.66 -0.73 0.12
1 8.63 863 1.106 -10.497 2.212 -36.560 7.446 26.093 -974.965 89.941 -2549.989 -0.616 0.746 -1.364 -0.14 0.66 -0.73 0.12
1 8.64 864 0.776 -10.722 2.035 -31.311 5.829 19.043 -974.965 89.941 -2549.989 -0.319 0.965 -1.234 -0.14 0.66 -0.73 0.12
1 8.65 865 0.814 -10.434 2.011 -22.278 5.737 7.019 -929.994 -44.971 -2669.911 -0.381 0.673 -1.251 -0.14 0.66 -0.72 0.12
1 8.66 866 0.747 -10.386 1.748 -27.344 -0.549 -4.486 -914.854 0.000 -2714.881 -0.316 0.624 -1.011 -0.14 0.67 -0.72 0.12
1 8.67 867 0.833 -10.813 1.326 -34.454 -12.543 -24.139 -914.854 0.000 -2714.881 -0.386 1.048 -0.625 -0.14 0.67 -0.72 0.12
1 8.68 868 1.384 -10.779 1.695 -23.560 -17.975 -31.677 -839.903 104.932 -2639.930 -0.901 1.013 -1.043 -0.14 0.67 -0.72 0.12
1 8.69 869 1.705 -10.339 1.748 -10.620 -17.822 -35.675 -839.903 104.932 -2639.930 -1.173 0.572 -1.135 -0.15 0.67 -0.72 0.12
1 8.70 870 1.906 -9.812 1.652 -6.073 -15.717 -37.811 -869.883 74.951 -2564.979 -1.319 0.047 -1.060 -0.15 0.67 -0.72 0.12
1 8.71 871 1.580 -9.615 1.700 -12.146 -14.008 -44.830 -989.955 224.854 -2714.881 -0.854 -0.140 -1.112 -0.15 0.67 -0.72 0.11
1 8.72 872 1.437 -9.831 1.518 -14.465 -15.137 -49.652 -1019.936 104.932 -2639.930 -0.631 0.081 -0.942 -0.16 0.67 -0.72 0.11
1 8.73 873 1.235 -9.960 1.154 -5.188 -16.510 -51.270 -1034.926 209.863 -2474.888 -0.347 0.217 -0.590 -0.16 0.67 -0.72 0.11
1 8.74 874 1.432 -9.467 0.833 7.263 -17.944 -46.265 -1034.926 209.863 -2474.888 -0.462 -0.268 -0.267 -0.17 0.67 -0.72 0.1
1 8.75 875 1.681 -8.878 0.867 11.963 -20.966 -37.995 -1079.896 44.971 -2474.888 -0.638 -0.849 -0.285 -0.17 0.66 -0.72 0.1
1 8.76 876 1.633 -8.725 0.900 4.974 -18.280 -33.783 -1079.896 44.971 -2474.888 -0.525 -0.994 -0.299 -0.17 0.66 -0.72 0.1
1 8.77 877 1.944 -8.509 0.690 2.106 -13.001 -29.450 -1169.988 104.932 -2684.901 -0.722 -1.195 -0.074 -0.18 0.66 -0.72 0.1
1 8.78 878 1.671 -8.442 0.948 7.843 -8.881 -27.710 -1169.988 104.932 -2684.901 -0.400 -1.255 -0.326 -0.18 0.66 -0.72 0.1
1 8.79 879 1.652 -8.385 0.800 11.353 -3.082 -23.773 -1304.900 44.971 -2669.911 -0.339 -1.306 -0.164 -0.18 0.66 -0.72 0.1
1 8.80 880 1.456 -8.208 0.627 11.688 -0.122 -19.653 -1244.939 149.902 -2504.868 -0.106 -1.477 0.027 -0.18 0.66 -0.72 0.1
1 8.81 881 1.475 -8.026 0.579 10.162 -0.031 -16.083 -1244.939 149.902 -2504.868 -0.096 -1.654 0.094 -0.18 0.66 -0.72 0.1
1 8.82 882 1.551 -7.872 0.785 6.134 -3.235 -12.024 -1244.939 29.980 -2504.868 -0.148 -1.802 -0.097 -0.19 0.66 -0.73 0.1
1 8.83 883 1.781 -8.112 0.862 2.655 -2.716 -9.583 -1244.939 29.980 -2504.868 -0.357 -1.559 -0.162 -0.19 0.66 -0.73 0.09
1 8.84 884 2.016 -8.710 0.690 0.183 1.160 -8.270 -1229.949 14.990 -2669.911 -0.560 -0.955 0.020 -0.19 0.65 -0.73 0.09
1 8.85 885 1.920 -8.801 0.757 1.770 2.686 -7.355 -1229.949 14.990 -2669.911 -0.449 -0.861 -0.044 -0.19 0.65 -0.73 0.09
1 8.86 886 2.107 -8.481 0.536 12.177 3.906 -4.517 -1364.861 -14.990 -2549.989 -0.621 -1.179 0.191 -0.19 0.65 -0.73 0.09
1 8.87 887 2.097 -8.294 0.599 12.573 3.845 -2.136 -1319.890 149.902 -2609.950 -0.603 -1.362 0.151 -0.19 0.65 -0.73 0.09
1 8.88 888 2.026 -8.284 0.503 5.646 4.669 0.214 -1319.890 149.902 -2609.950 -0.527 -1.370 0.266 -0.19 0.65 -0.73 0.09
1 8.89 889 1.920 -8.567 0.369 -2.777 5.554 3.143 -1274.919 74.951 -2684.901 -0.422 -1.087 0.408 -0.19 0.65 -0.73 0.09
1 8.90 890 1.642 -8.902 0.378 -3.784 6.775 5.310 -1274.919 74.951 -2684.901 -0.147 -0.752 0.399 -0.19 0.65 -0.73 0.09
1 8.91 891 1.566 -8.959 0.081 -1.038 8.606 9.491 -1274.919 104.932 -2714.881 -0.074 -0.695 0.692 -0.19 0.65 -0.73 0.09
1 8.92 892 1.561 -8.777 0.125 1.312 7.172 16.480 -1394.991 74.951 -2714.881 -0.097 -0.882 0.648 -0.19 0.65 -0.73 0.09
1 8.93 893 1.494 -8.552 0.019 -2.563 6.073 18.768 -1259.929 89.941 -2669.911 -0.053 -1.110 0.753 -0.18 0.65 -0.73 0.09
1 8.94 894 1.528 -8.548 -0.034 -5.951 5.157 21.118 -1274.919 74.951 -2714.881 -0.114 -1.119 0.803 -0.18 0.65 -0.73 0.09
1 8.95 895 1.710 -8.643 0.144 -8.057 6.226 22.308 -1274.919 74.951 -2714.881 -0.328 -1.029 0.619 -0.18 0.65 -0.73 0.1
1 8.96 896 1.547 -8.806 0.077 -8.942 8.728 20.233 -1319.890 149.902 -2684.901 -0.195 -0.871 0.675 -0.18 0.65 -0.73 0.1
1 8.97 897 1.470 -9.003 -0.072 -7.446 8.637 18.005 -1319.890 149.902 -2684.901 -0.145 -0.679 0.808 -0.18 0.66 -0.73 0.1
1 8.98 898 1.432 -9.448 -0.053 -8.453 6.805 15.442 -1304.900 89.941 -2624.940 -0.131 -0.238 0.777 -0.18 0.66 -0.73 0.1
1 8.99 899 1.489 -9.663 0.096 -7.629 2.838 14.740 -1259.929 209.863 -2669.911 -0.229 -0.031 0.597 -0.18 0.66 -0.73 0.1
1 9.00 900 1.614 -9.596 0.139 -2.197 -0.641 14.099 -1259.929 44.971 -2669.911 -0.371 -0.101 0.542 -0.18 0.66 -0.72 0.1
1 9.01 901 1.753 -9.769 0.397 -1.282 -4.120 11.932 -1184.978 209.863 -2774.992 -0.526 0.069 0.279 -0.18 0.66 -0.72 0.1
1 9.02 902 1.968 -9.869 0.345 -3.937 -6.897 9.216 -1184.978 209.863 -2774.992 -0.752 0.168 0.326 -0.18 0.66 -0.72 0.1
1 9.03 903 2.217 -10.008 0.340 -1.282 -7.599 8.392 -1184.978 119.922 -2774.992 -1.007 0.306 0.324 -0.18 0.66 -0.72 0.1
1 9.04 904 2.193 -10.018 0.781 2.380 -2.380 8.026 -1184.978 119.922 -2774.992 -0.985 0.315 -0.119 -0.18 0.66 -0.72 0.1
1 9.05 905 1.959 -10.358 0.785 0.671 2.472 7.233 -1229.949 44.971 -2624.940 -0.753 0.655 -0.121 -0.18 0.66 -0.72 0.1
1 9.06 906 1.197 -10.808 0.484 4.272 2.625 6.409 -1079.896 164.893 -2594.959 0.001 1.105 0.189 -0.18 0.66 -0.72 0.1
1 9.07 907 0.972 -10.817 0.436 8.545 -0.214 5.798 -1199.968 104.932 -2639.930 0.219 1.114 0.249 -0.18 0.66 -0.72 0.1
1 9.08 908 1.192 -10.880 -0.086 15.106 -14.679 6.531 -1229.949 209.863 -2729.872 -0.008 1.177 0.790 -0.18 0.66 -0.72 0.1
1 9.09 909 1.901 -10.999 -0.603 10.651 -26.825 10.345 -1229.949 209.863 -2729.872 -0.724 1.297 1.328 -0.18 0.66 -0.73 0.1
1 9.10 910 3.141 -10.449 -0.651 13.550 -28.900 16.327 -1094.887 29.980 -2789.982 -1.977 0.746 1.390 -0.18 0.66 -0.73 0.11
1 9.11 911 4.085 -10.549 -0.848 1.801 -10.925 21.362 -1094.887 29.980 -2789.982 -2.937 0.845 1.596 -0.18 0.66 -0.73 0.11
1 9.12 912 4.042 -10.789 -1.044 -2.594 1.831 23.865 -1109.877 119.922 -2669.911 -2.922 1.082 1.798 -0.18 0.66 -0.73 0.11
1 9.13 913 3.649 -10.655 -1.092 -0.305 9.613 23.621 -1154.998 44.971 -2774.992 -2.563 0.944 1.845 -0.18 0.66 -0.73 0.11
1 9.14 914 3.093 -10.449 -1.302 4.761 10.407 14.984 -1034.926 89.941 -2804.973 -2.072 0.732 2.065 -0.17 0.66 -0.73 0.11
1 9.15 915 2.993 -10.281 -1.298 4.608 5.768 8.362 -1094.887 149.902 -2714.881 -1.990 0.563 2.071 -0.17 0.66 -0.73 0.11
1 9.16 916 3.376 -10.712 -0.661 -1.709 4.211 3.784 -1094.887 149.902 -2714.881 -2.376 0.994 1.434 -0.17 0.66 -0.73 0.11
1 9.17 917 3.840 -11.253 0.828 -6.073 16.235 -0.183 -1094.887 74.951 -2759.852 -2.845 1.534 -0.057 -0.17 0.66 -0.73 0.11
1 9.18 918 3.127 -12.613 1.207 -17.059 36.743 -19.959 -1094.887 74.951 -2759.852 -2.126 2.894 -0.443 -0.17 0.66 -0.73 0.11
1 9.19 919 1.015 -12.508 0.153 8.362 33.203 -54.444 -1079.896 89.941 -2804.973 0.023 2.791 0.593 -0.17 0.66 -0.73 0.11
1 9.20 920 0.498 -12.149 0.220 27.832 16.144 -59.570 -1019.936 104.932 -2864.934 0.612 2.441 0.533 -0.17 0.66 -0.73 0.1
1 9.21 921 0.599 -12.819 0.948 -6.714 0.397 -40.344 -1109.877 89.941 -2879.924 0.679 3.137 -0.132 -0.17 0.65 -0.73 0.09
1 9.22 922 1.695 -12.498 1.374 2.594 -6.195 -22.522 -1154.998 209.863 -2729.872 -0.364 2.823 -0.565 -0.17 0.65 -0.73 0.09
1 9.23 923 2.471 -12.551 2.136 9.796 -9.430 -20.264 -1154.998 209.863 -2729.872 -1.106 2.881 -1.318 -0.18 0.65 -0.73 0.09
1 9.24 924 2.648 -12.728 2.524 1.282 -1.526 -15.717 -1184.978 119.922 -2804.973 -1.250 3.064 -1.694 -0.18 0.65 -0.73 0.09
1 9.25 925 2.203 -11.445 1.710 14.404 3.387 -1.862 -1184.978 119.922 -2804.973 -0.785 1.784 -0.874 -0.18 0.65 -0.73 0.09
1 9.26 926 2.011 -8.988 1.523 21.332 -0.122 11.383 -1199.968 149.902 -2819.963 -0.593 -0.670 -0.658 -0.18 0.65 -0.73 0.09
1 9.27 927 2.255 -8.428 1.777 6.439 8.362 20.081 -1034.926 14.990 -2849.943 -0.847 -1.228 -0.872 -0.18 0.65 -0.73 0.09
1 9.28 928 1.949 -8.782 1.925 -16.724 26.367 29.083 -1244.939 104.932 -2789.982 -0.593 -0.879 -0.994 -0.17 0.65 -0.73 0.09
1 9.29 929 1.686 -8.969 2.093 -17.426 29.968 29.083 -1229.949 119.922 -2849.943 -0.368 -0.698 -1.171 -0.17 0.65 -0.73 0.09
1 9.30 930 0.737 -8.246 2.021 -3.937 30.029 15.625 -1229.949 119.922 -2849.943 0.543 -1.426 -1.099 -0.17 0.65 -0.73 0.09
1 9.31 931 0.493 -7.983 2.054 3.815 24.994 6.104 -1034.926 239.994 -2849.943 0.766 -1.692 -1.128 -0.17 0.65 -0.73 0.09
1 9.32 932 0.503 -7.805 2.610 9.827 24.109 4.211 -1034.926 239.994 -2849.943 0.747 -1.869 -1.669 -0.16 0.65 -0.74 0.09
1 9.33 933 0.651 -7.810 2.260 13.153 24.841 9.979 -1139.857 0.000 -2789.982 0.589 -1.863 -1.296 -0.16 0.65 -0.74 0.09
1 9.34 934 0.594 -8.179 2.117 3.723 20.599 7.843 -974.965 164.893 -2954.875 0.631 -1.494 -1.126 -0.16 0.65 -0.74 0.09
1 9.35 935 0.800 -8.830 2.078 -10.712 16.174 1.038 -974.965 164.893 -2954.875 0.410 -0.843 -1.072 -0.16 0.65 -0.74 0.09
1 9.36 936 0.565 -9.807 2.131 -9.949 16.937 -2.533 -1004.945 239.994 -2849.943 0.639 0.132 -1.139 -0.16 0.65 -0.74 0.08
1 9.37 937 0.220 -9.759 2.169 3.113 18.494 1.831 -1004.945 239.994 -2849.943 0.981 0.084 -1.174 -0.16 0.65 -0.74 0.08
1 9.38 938 -0.024 -9.319 1.858 12.451 15.259 5.402 -1139.857 104.932 -2969.865 1.212 -0.356 -0.841 -0.15 0.65 -0.74 0.08
1 9.39 939 0.254 -8.849 2.145 12.329 6.531 6.439 -1139.857 104.932 -2969.865 0.917 -0.824 -1.098 -0.15 0.65 -0.74 0.08
1 9.40 940 0.872 -8.840 2.509 -2.380 -0.305 5.371 -1004.945 284.964 -2909.904 0.285 -0.832 -1.435 -0.15 0.65 -0.74 0.08
1 9.41 941 1.140 -9.242 2.409 -8.514 3.693 4.150 -989.955 29.980 -2819.963 0.006 -0.430 -1.323 -0.15 0.65 -0.74 0.08
1 9.42 942 1.034 -9.668 2.136 -3.021 11.536 4.700 -989.955 29.980 -2819.963 0.105 -0.004 -1.048 -0.15 0.65 -0.74 0.08
1 9.43 943 0.445 -9.855 2.117 9.979 22.522 8.728 -1079.896 14.990 -2909.904 0.675 0.183 -1.006 -0.15 0.65 -0.74 0.08
1 9.44 944 -0.254 -9.261 1.915 15.564 21.484 11.383 -1079.896 14.990 -2909.904 1.353 -0.410 -0.774 -0.15 0.65 -0.74 0.08
1 9.45 945 -0.268 -8.912 1.604 18.311 15.991 12.482 -1079.896 44.971 -2909.904 1.339 -0.758 -0.426 -0.14 0.65 -0.74 0.08
1 9.46 946 -0.220 -8.447 1.484 16.907 11.353 13.977 -1079.896 44.971 -2909.904 1.262 -1.222 -0.272 -0.14 0.65 -0.75 0.08
1 9.47 947 0.297 -8.586 1.164 10.529 10.254 18.494 -869.883 104.932 -3014.986 0.722 -1.082 0.076 -0.14 0.65 -0.75 0.08
1 9.48 948 1.111 -8.830 1.212 -2.533 13.062 22.522 -989.955 29.980 -2939.885 -0.122 -0.839 0.043 -0.14 0.65 -0.75 0.08
1 9.49 949 1.240 -8.983 1.207 -1.556 18.585 14.923 -989.955 29.980 -2939.885 -0.287 -0.689 0.051 -0.14 0.65 -0.75 0.08
1 9.50 950 0.934 -8.897 0.781 6.653 28.717 5.798 -1004.945 164.893 -2954.875 -0.018 -0.777 0.487 -0.13 0.65 -0.75 0.08
1 9.51 951 0.450 -8.931 0.776 7.416 31.159 5.341 -1004.945 164.893 -2954.875 0.455 -0.743 0.506 -0.13 0.65 -0.75 0.08
1 9.52 952 -0.091 -9.261 0.781 -3.204 28.320 4.822 -1019.936 224.854 -3074.947 0.981 -0.413 0.511 -0.13 0.65 -0.75 0.08
1 9.53 953 -0.254 -9.678 0.857 -9.705 21.790 3.448 -1019.936 224.854 -3074.947 1.127 0.002 0.428 -0.13 0.65 -0.75 0.08
1 9.54 954 0.062 -9.673 0.886 -5.585 15.686 0.336 -839.903 74.951 -2939.885 0.796 -0.006 0.388 -0.13 0.65 -0.75 0.08
1 9.55 955 0.105 -9.295 1.049 7.965 17.609 -2.594 -854.893 89.941 -2954.875 0.746 -0.385 0.221 -0.13 0.65 -0.75 0.08
1 9.56 956 -0.005 -9.127 1.053 8.209 18.829 -2.075 -854.893 89.941 -2954.875 0.853 -0.552 0.227 -0.12 0.65 -0.75 0.08
1 9.57 957 -0.163 -9.070 0.934 3.754 15.167 -1.831 -779.942 14.990 -2909.904 1.006 -0.608 0.362 -0.12 0.65 -0.75 0.08
1 9.58 958 -0.153 -9.362 0.579 -0.732 6.256 -3.448 -824.913 119.922 -3104.927 0.987 -0.315 0.728 -0.12 0.65 -0.75 0.07
1 9.59 959 -0.225 -9.400 0.579 1.892 3.174 -4.334 -794.932 29.980 -2939.885 1.057 -0.277 0.726 -0.12 0.65 -0.75 0.07
1 9.60 960 -0.364 -9.486 0.436 6.500 0.610 -5.432 -794.932 29.980 -2939.885 1.196 -0.190 0.872 -0.12 0.65 -0.75 0.07
1 9.61 961 -0.297 -9.079 0.230 6.805 -1.801 -6.836 -764.952 104.932 -2894.914 1.130 -0.597 1.084 -0.12 0.65 -0.75 0.07
1 9.62 962 -0.268 -8.926 -0.024 5.188 -3.326 -7.751 -869.883 104.932 -3044.966 1.106 -0.749 1.342 -0.12 0.65 -0.75 0.07
1 9.63 963 -0.474 -9.050 -0.235 -2.777 -4.730 -5.615 -869.883 104.932 -3044.966 1.318 -0.624 1.552 -0.12 0.65 -0.75 0.07
1 9.64 964 -0.426 -9.218 -0.374 -5.157 -6.104 -4.059 -854.893 119.922 -2849.943 1.273 -0.457 1.680 -0.12 0.65 -0.75 0.07
1 9.65 965 -0.029 -9.529 -0.215 -6.836 -10.925 -3.418 -914.854 74.951 -2939.885 0.876 -0.151 1.486 -0.12 0.65 -0.75 0.07
1 9.66 966 0.244 -9.529 0.101 -5.676 -12.878 -4.395 -854.893 -14.990 -2954.875 0.605 -0.153 1.150 -0.12 0.65 -0.75 0.07
1 9.67 967 0.455 -9.501 0.139 -3.204 -14.191 -4.364 -854.893 -14.990 -2954.875 0.400 -0.184 1.095 -0.12 0.65 -0.75 0.07
1 9.68 968 0.800 -9.472 0.354 -4.517 -11.688 -3.906 -929.994 164.893 -3059.957 0.062 -0.214 0.867 -0.12 0.65 -0.75 0.08
1 9.69 969 0.761 -9.539 0.479 -5.463 -5.981 -5.737 -824.913 119.922 -2954.875 0.109 -0.147 0.729 -0.13 0.65 -0.75 0.08
1 9.70 970 0.388 -9.802 0.661 -0.610 -5.493 -6.775 -824.913 119.922 -2954.875 0.494 0.116 0.536 -0.13 0.65 -0.75 0.07
1 9.71 971 0.350 -10.099 1.441 1.801 -7.721 -7.172 -854.893 239.994 -3029.976 0.542 0.413 -0.251 -0.13 0.65 -0.75 0.07
1 9.72 972 0.972 -10.655 2.873 2.411 -9.369 0.336 -914.854 74.951 -3014.986 -0.066 0.970 -1.676 -0.13 0.65 -0.75 0.07
1 9.73 973 1.317 -10.899 2.907 4.028 -9.277 4.730 -899.864 44.971 -2954.875 -0.412 1.215 -1.705 -0.13 0.65 -0.75 0.08
1 9.74 974 2.169 -10.880 2.198 17.212 -3.052 9.460 -899.864 44.971 -2954.875 -1.274 1.197 -0.980 -0.13 0.65 -0.75 0.08
1 9.75 975 2.212 -10.722 1.413 28.107 3.906 8.301 -914.854 104.932 -3014.986 -1.329 1.042 -0.163 -0.13 0.65 -0.75 0.08
1 9.76 976 1.235 -10.425 0.479 39.246 11.627 5.829 -914.854 179.883 -3044.966 -0.364 0.750 0.819 -0.13 0.65 -0.75 0.08
1 9.77 977 -1.087 -9.884 -0.546 40.711 8.392 -1.617 -914.854 179.883 -3044.966 1.952 0.217 1.904 -0.13 0.64 -0.75 0.08
1 9.78 978 -1.997 -9.898 -0.915 28.565 -6.165 -2.655 -1034.926 209.863 -2954.875 2.855 0.238 2.328 -0.12 0.64 -0.75 0.08
1 9.79 979 -2.035 -9.898 -1.202 18.066 -25.543 -0.427 -929.994 119.922 -3059.957 2.883 0.242 2.648 -0.12 0.64 -0.75 0.08
1 9.80 980 -1.010 -9.266 -1.207 19.898 -46.631 -0.793 -854.893 164.893 -3134.908 1.834 -0.389 2.669 -0.13 0.64 -0.75 0.08
1 9.81 981 -0.211 -8.605 -1.183 18.829 -50.018 1.617 -854.893 164.893 -3134.908 1.032 -1.049 2.651 -0.13 0.64 -0.75 0.09
1 9.82 982 0.034 -8.083 -0.967 10.498 -46.631 4.211 -1064.906 254.984 -3149.898 0.792 -1.569 2.447 -0.13 0.64 -0.75 0.09
1 9.83 983 -0.034 -7.825 -0.742 -0.183 -44.464 4.822 -974.965 89.941 -3059.957 0.865 -1.826 2.230 -0.13 0.64 -0.75 0.09
1 9.84 984 0.795 -10.420 3.515 -43.793 -47.699 20.691 -974.965 89.941 -3059.957 0.040 0.768 -2.037 -0.14 0.64 -0.75 0.09
1 9.85 985 2.902 -15.865 2.758 -113.770 -71.320 79.132 -1079.896 14.990 -3164.888 -2.079 6.205 -1.328 -0.14 0.64 -0.75 0.1
1 9.86 986 4.267 -14.945 2.729 -61.096 -45.258 94.727 -1079.896 119.922 -3239.989 -3.521 5.258 -1.450 -0.14 0.64 -0.75 0.1
1 9.87 987 4.276 -12.220 1.255 49.957 -11.383 33.966 -1034.926 89.941 -3029.976 -3.755 2.505 -0.081 -0.13 0.65 -0.74 0.11
1 9.88 988 3.007 -10.693 1.891 21.759 6.805 14.191 -1034.926 89.941 -3029.976 -2.523 0.984 -0.649 -0.13 0.65 -0.74 0.11
1 9.89 989 1.686 -9.352 2.260 -7.355 32.898 12.177 -854.893 239.994 -3134.908 -1.223 -0.355 -0.994 -0.13 0.65 -0.74 0.11
1 9.90 990 0.455 -10.525 2.480 -38.147 31.830 12.360 -929.994 89.941 -3029.976 -0.004 0.817 -1.224 -0.13 0.65 -0.74 0.11
1 9.91 991 -0.713 -11.900 1.786 -63.111 8.484 4.181 -929.994 89.941 -3029.976 1.146 2.182 -0.591 -0.13 0.65 -0.74 0.11
1 9.92 992 -1.638 -12.656 1.786 -18.555 1.221 -33.020 -989.955 149.902 -3044.966 2.075 2.929 -0.678 -0.13 0.65 -0.74 0.11
1 9.93 993 -1.834 -12.005 2.275 9.186 -11.688 -31.036 -929.994 239.994 -2909.904 2.315 2.275 -1.208 -0.13 0.65 -0.74 0.11
1 9.94 994 -1.183 -10.104 2.543 0.519 -41.107 -11.475 -854.893 359.916 -2909.904 1.752 0.381 -1.455 -0.13 0.65 -0.74 0.11
1 9.95 995 -0.603 -9.826 2.452 -8.972 -49.347 -7.294 -854.893 359.916 -2909.904 1.189 0.104 -1.368 -0.14 0.65 -0.74 0.11
1 9.96 996 1.853 -10.056 2.921 -30.335 -62.653 4.120 -944.984 449.857 -2939.885 -1.259 0.332 -1.862 -0.14 0.65 -0.74 0.11
1 9.97 997 3.175 -9.951 3.218 -27.374 -53.528 17.273 -1034.926 209.863 -3134.908 -2.575 0.223 -2.195 -0.14 0.65 -0.73 0.11
1 9.98 998 3.726 -9.668 3.266 -21.393 -28.565 27.618 -1034.926 209.863 -3134.908 -3.147 -0.065 -2.284 -0.14 0.66 -0.73 0.12
1 9.99 999 2.571 -9.433 2.993 -28.168 9.338 33.569 -1079.896 119.922 -2909.904 -2.031 -0.305 -2.043 -0.14 0.66 -0.73 0.12
1 10.00 1000 0.986 -9.520 2.399 -35.431 19.623 33.020 -1079.896 209.863 -2984.855 -0.485 -0.224 -1.477 -0.14 0.66 -0.73 0.12
1 10.01 1001 -0.211 -10.118 1.633 -38.666 9.644 28.504 -1079.896 209.863 -2984.855 0.676 0.370 -0.743 -0.14 0.66 -0.73 0.12
1 10.02 1002 0.311 -10.056 1.781 -42.328 -20.416 17.883 -854.893 314.945 -2849.943 0.071 0.296 -0.990 -0.14 0.66 -0.73 0.12
1 10.03 1003 1.121 -9.620 1.954 -41.168 -27.435 6.287 -989.955 419.876 -2864.934 -0.759 -0.145 -1.218 -0.14 0.67 -0.72 0.12
1 10.04 1004 1.595 -9.817 1.642 -39.948 -27.893 -6.989 -749.961 389.896 -2954.875 -1.229 0.047 -0.958 -0.14 0.67 -0.72 0.12
1 10.05 1005 1.911 -10.798 1.188 -44.159 -27.863 -20.874 -749.961 389.896 -2954.875 -1.517 1.027 -0.556 -0.14 0.67 -0.72 0.12
1 10.06 1006 1.973 -11.732 1.264 -39.795 -19.836 -37.506 -794.932 494.978 -2759.852 -1.532 1.958 -0.697 -0.15 0.67 -0.72 0.12
1 10.07 1007 1.738 -11.483 1.441 13.123 -10.101 -47.058 -989.955 419.876 -2759.852 -1.234 1.710 -0.923 -0.15 0.67 -0.72 0.12
1 10.08 1008 1.690 -10.420 1.336 35.431 -15.289 -45.746 -989.955 419.876 -2759.852 -1.112 0.651 -0.812 -0.15 0.67 -0.72 0.12
1 10.09 1009 1.638 -8.897 1.039 29.816 -27.435 -52.429 -1064.906 449.857 -2639.930 -0.906 -0.855 -0.409 -0.16 0.67 -0.72 0.11
1 10.10 1010 1.662 -9.046 0.972 22.034 -32.593 -52.277 -1019.936 374.906 -2789.982 -0.839 -0.696 -0.298 -0.16 0.66 -0.72 0.11
1 10.11 1011 1.417 -9.496 1.082 13.367 -31.555 -41.901 -1199.968 329.935 -2789.982 -0.509 -0.237 -0.378 -0.17 0.66 -0.72 0.11
1 10.12 1012 1.470 -9.199 0.570 17.975 -29.450 -29.053 -1199.968 329.935 -2789.982 -0.495 -0.526 0.154 -0.17 0.66 -0.72 0.11
1 10.13 1013 1.954 -8.701 0.297 32.013 -33.325 -23.499 -1244.939 449.857 -2819.963 -0.929 -1.016 0.457 -0.17 0.66 -0.73 0.11
1 10.14 1014 2.437 -8.279 0.642 24.750 -31.281 -22.644 -1334.880 359.916 -2774.992 -1.366 -1.429 0.155 -0.18 0.65 -0.73 0.11
1 10.15 1015 2.476 -8.050 0.785 15.869 -19.226 -18.372 -1334.880 359.916 -2774.992 -1.365 -1.651 0.049 -0.18 0.65 -0.73 0.11
1 10.16 1016 2.035 -7.978 0.713 11.963 -3.510 -9.888 -1274.919 374.906 -2864.934 -0.868 -1.713 0.164 -0.18 0.65 -0.73 0.11
1 10.17 1017 1.762 -8.021 0.532 11.505 -0.916 -8.240 -1334.880 209.863 -2849.943 -0.579 -1.666 0.365 -0.18 0.65 -0.73 0.11
1 10.18 1018 1.417 -7.801 0.402 8.179 0.641 -6.744 -1394.991 299.955 -2894.914 -0.223 -1.883 0.510 -0.18 0.65 -0.73 0.11
1 10.19 1019 1.590 -7.686 0.374 7.935 -0.031 -7.477 -1394.991 299.955 -2894.914 -0.384 -1.996 0.553 -0.18 0.65 -0.73 0.11
1 10.20 1020 1.733 -7.686 0.464 5.615 0.793 -9.094 -1334.880 314.945 -2849.943 -0.515 -1.993 0.475 -0.18 0.65 -0.73 0.11
1 10.21 1021 1.944 -7.810 0.766 2.869 4.639 -8.942 -1394.991 254.984 -2714.881 -0.710 -1.865 0.184 -0.18 0.65 -0.73 0.11
1 10.22 1022 1.982 -7.848 0.704 -0.244 9.460 -7.965 -1394.991 254.984 -2714.881 -0.734 -1.824 0.253 -0.18 0.65 -0.73 0.11
1 10.23 1023 1.911 -7.868 0.383 -2.502 12.299 -9.125 -1439.962 239.994 -2804.973 -0.650 -1.803 0.578 -0.18 0.65 -0.73 0.11
1 10.24 1024 1.561 -7.820 0.330 -1.801 9.247 -9.277 -1439.962 209.863 -2699.891 -0.274 -1.847 0.633 -0.18 0.65 -0.73 0.11
1 10.25 1025 1.623 -7.858 0.225 -2.655 7.050 -6.744 -1499.923 224.854 -2894.914 -0.323 -1.807 0.740 -0.18 0.65 -0.73 0.11
1 10.26 1026 1.662 -8.174 0.105 -5.951 5.219 -3.601 -1499.923 224.854 -2894.914 -0.352 -1.490 0.857 -0.18 0.65 -0.73 0.11
1 10.27 1027 1.839 -8.548 -0.034 -8.209 5.554 -0.336 -1499.923 254.984 -2864.934 -0.525 -1.117 0.989 -0.18 0.65 -0.73 0.1
1 10.28 1028 1.824 -8.701 -0.105 -9.033 9.064 5.585 -1409.981 284.964 -2804.973 -0.511 -0.965 1.051 -0.18 0.65 -0.73 0.1
1 10.29 1029 1.705 -8.734 0.067 -8.514 10.712 10.254 -1409.981 284.964 -2804.973 -0.393 -0.933 0.862 -0.18 0.65 -0.73 0.1
1 10.30 1030 1.547 -8.907 -0.192 -10.559 11.414 14.832 -1559.884 209.863 -2879.924 -0.246 -0.763 1.109 -0.18 0.65 -0.73 0.1
1 10.31 1031 1.690 -9.003 -0.326 -11.322 6.897 24.994 -1349.871 179.883 -2864.934 -0.431 -0.676 1.205 -0.18 0.65 -0.73 0.1
1 10.32 1032 2.088 -9.055 -0.239 -9.277 5.890 29.755 -1334.880 164.893 -2729.872 -0.863 -0.630 1.097 -0.18 0.65 -0.73 0.11
1 10.33 1033 2.217 -8.696 -0.345 -9.399 9.308 32.044 -1334.880 164.893 -2729.872 -1.030 -0.996 1.184 -0.18 0.65 -0.73 0.11
1 10.34 1034 2.275 -8.806 -0.512 -11.017 13.672 32.318 -1304.900 284.964 -2909.904 -1.127 -0.892 1.333 -0.18 0.65 -0.73 0.11
1 10.35 1035 1.954 -8.945 -0.397 -14.984 16.510 31.647 -1259.929 359.916 -2669.911 -0.845 -0.759 1.195 -0.17 0.65 -0.73 0.11
1 10.36 1036 1.987 -9.132 0.283 -14.954 12.665 25.757 -1259.929 359.916 -2669.911 -0.917 -0.579 0.487 -0.17 0.66 -0.73 0.11
1 10.37 1037 2.002 -9.371 0.508 -11.566 6.073 19.898 -1274.919 254.984 -2864.934 -0.964 -0.345 0.238 -0.17 0.66 -0.73 0.11
1 10.38 1038 2.073 -10.185 0.699 -13.580 6.378 6.409 -1184.978 314.945 -2774.992 -1.071 0.462 0.009 -0.17 0.66 -0.72 0.11
1 10.39 1039 1.997 -10.372 0.642 -9.827 9.308 2.380 -1169.988 224.854 -2714.881 -0.993 0.648 0.052 -0.17 0.66 -0.72 0.11
1 10.40 1040 0.867 -10.635 0.522 3.448 20.722 0.153 -1169.988 224.854 -2714.881 0.144 0.913 0.173 -0.17 0.66 -0.72 0.11
1 10.41 1041 -0.115 -11.459 1.058 0.580 18.738 1.862 -1199.968 419.876 -2759.852 1.125 1.737 -0.354 -0.17 0.66 -0.72 0.11
