COL1	TIME	ACC_X	ACC_Y	ACC_Z	GYR_X	GYR_Y	GYR_Z	MAG_X	MAG_Y	MAG_Z	LACC_X	LACC_Y	LACC_Z	QUAT_X	QUAT_Y	QUAT_Z	QUAT_W
1 0.00 0 -0.599 -9.975 0.594 1.434 0.000 0.641 80.498 3480.283 -3009.589 -0.174 0.227 0.062 0.01 0.68 -0.73 0.04
1 0.01 1 -0.646 -9.826 0.632 0.763 0.336 0.824 95.488 3315.390 -3024.580 -0.126 0.079 0.026 0.01 0.68 -0.73 0.04
1 0.02 2 -0.848 -9.955 0.709 0.000 0.397 0.824 260.380 3330.380 -3009.589 0.076 0.208 -0.048 0.01 0.68 -0.73 0.04
1 0.03 3 -0.747 -9.769 0.570 -0.702 -0.092 0.610 260.380 3330.380 -3009.589 -0.023 0.021 0.091 0.01 0.68 -0.73 0.04
1 0.04 4 -0.929 -9.812 0.532 -0.183 -0.549 0.885 35.377 3285.260 -3159.492 0.158 0.065 0.130 0.01 0.68 -0.73 0.04
1 0.05 5 -0.781 -9.941 0.651 -0.153 -1.343 0.549 95.488 3225.299 -3144.501 0.009 0.194 0.009 0.01 0.68 -0.73 0.04
1 0.06 6 -0.766 -9.912 0.627 0.122 -1.678 0.488 95.488 3225.299 -3144.501 -0.006 0.165 0.033 0.01 0.68 -0.73 0.04
1 0.07 7 -0.728 -9.898 0.776 -0.031 -2.350 0.885 110.478 3360.361 -3054.560 -0.044 0.151 -0.116 0.01 0.68 -0.73 0.04
1 0.08 8 -0.632 -9.706 0.666 -0.427 -2.289 0.153 170.439 3225.299 -3144.501 -0.139 -0.041 -0.004 0.01 0.68 -0.73 0.04
1 0.09 9 -0.733 -9.745 0.690 -0.549 -2.075 0.732 5.396 3405.332 -3009.589 -0.038 -0.002 -0.028 0.01 0.68 -0.73 0.04
1 0.10 10 -0.646 -9.754 0.694 -0.122 -1.617 0.458 5.396 3405.332 -3009.589 -0.124 0.007 -0.033 0.01 0.68 -0.73 0.04
1 0.11 11 -0.632 -9.649 0.613 -1.556 -0.702 0.519 170.439 3315.390 -3099.531 -0.138 -0.098 0.049 0.01 0.68 -0.73 0.04
1 0.12 12 -0.728 -9.841 0.819 -2.319 -0.153 1.648 170.439 3270.270 -3099.531 -0.040 0.093 -0.158 0.01 0.68 -0.73 0.04
1 0.13 13 -0.747 -9.778 0.675 -2.075 -0.549 1.434 170.439 3270.270 -3099.531 -0.022 0.031 -0.016 0.01 0.68 -0.73 0.04
1 0.14 14 -0.757 -9.879 0.694 -1.343 -0.702 1.038 50.367 3270.270 -3279.563 -0.013 0.131 -0.036 0.01 0.68 -0.73 0.04
1 0.15 15 -0.690 -9.711 0.694 -1.923 -0.885 1.678 50.367 3270.270 -3279.563 -0.080 -0.036 -0.035 0.01 0.68 -0.73 0.04
1 0.16 16 -0.675 -9.888 0.785 -1.099 -1.251 1.221 125.468 3270.270 -3144.501 -0.094 0.141 -0.127 0.01 0.68 -0.73 0.04
1 0.17 17 -0.795 -9.960 0.694 -1.404 -1.526 1.190 125.468 3270.270 -3144.501 0.027 0.213 -0.035 0.01 0.68 -0.73 0.04
1 0.18 18 -0.613 -9.946 0.694 -0.580 -2.106 1.068 185.429 3330.380 -3234.593 -0.154 0.198 -0.034 0.01 0.68 -0.73 0.04
1 0.19 19 -0.814 -9.788 0.776 0.183 -1.953 1.007 20.387 3345.371 -3024.580 0.047 0.040 -0.115 0.01 0.68 -0.73 0.04
1 0.20 20 -0.752 -9.864 0.761 -0.031 -1.556 1.282 20.387 3345.371 -3024.580 -0.014 0.117 -0.100 0.01 0.68 -0.73 0.04
1 0.21 21 -0.785 -9.879 0.680 -0.671 -1.007 1.038 110.478 3255.279 -3084.541 0.020 0.131 -0.018 0.01 0.68 -0.73 0.04
1 0.22 22 -0.742 -9.898 0.766 -1.770 -1.251 1.282 110.478 3255.279 -3084.541 -0.023 0.150 -0.103 0.01 0.68 -0.73 0.04
1 0.23 23 -0.757 -9.979 0.637 -1.099 -1.160 1.129 50.367 3345.371 -3024.580 -0.008 0.232 0.027 0.01 0.68 -0.73 0.04
1 0.24 24 -0.771 -9.769 0.666 -1.251 -0.763 0.214 50.367 3345.371 -3024.580 0.006 0.021 -0.002 0.01 0.68 -0.73 0.04
1 0.25 25 -0.757 -9.903 0.881 -0.122 -0.214 0.732 215.410 3285.260 -3009.589 -0.008 0.155 -0.218 0.01 0.68 -0.73 0.04
1 0.26 26 -0.651 -9.912 0.733 0.519 -1.068 0.732 155.449 3330.380 -3159.492 -0.112 0.165 -0.068 0.01 0.68 -0.73 0.04
1 0.27 27 -0.546 -9.850 0.733 0.244 -0.702 0.519 155.449 3330.380 -3159.492 -0.217 0.103 -0.064 0.01 0.68 -0.73 0.04
1 0.28 28 -0.594 -9.855 0.656 -0.793 -0.183 1.007 80.498 3360.361 -3084.541 -0.168 0.108 0.014 0.01 0.68 -0.73 0.04
1 0.29 29 -0.670 -9.898 0.804 -1.129 -0.244 0.763 80.498 3360.361 -3084.541 -0.090 0.151 -0.134 0.01 0.68 -0.73 0.04
1 0.30 30 -0.599 -9.903 0.800 -0.854 0.488 0.885 110.478 3255.279 -2979.609 -0.161 0.155 -0.129 0.01 0.68 -0.73 0.04
1 0.31 31 -0.546 -9.936 0.670 -0.885 0.244 1.617 35.377 3360.361 -3264.573 -0.212 0.189 0.001 0.01 0.68 -0.73 0.04
1 0.32 32 -0.546 -9.850 0.704 -0.244 1.099 1.923 215.410 3285.260 -3054.560 -0.212 0.103 -0.032 0.01 0.68 -0.73 0.04
1 0.33 33 -0.551 -9.979 0.685 -0.977 1.373 1.953 80.498 3330.380 -3159.492 -0.208 0.232 -0.013 0.01 0.68 -0.73 0.04
1 0.34 34 -0.685 -9.831 0.694 -0.610 0.671 1.648 80.498 3330.380 -3159.492 -0.076 0.084 -0.022 0.01 0.68 -0.73 0.04
1 0.35 35 -0.685 -9.917 0.781 -0.580 0.916 1.495 110.478 3255.279 -2979.609 -0.077 0.170 -0.107 0.01 0.68 -0.73 0.04
1 0.36 36 -0.627 -9.922 0.757 -0.519 0.610 1.831 110.478 3255.279 -2979.609 -0.135 0.175 -0.082 0.01 0.68 -0.73 0.04
1 0.37 37 -0.804 -9.989 0.814 -1.434 0.366 1.038 95.488 3345.371 -3324.534 0.041 0.242 -0.140 0.01 0.68 -0.73 0.04
1 0.38 38 -0.680 -9.946 0.670 -0.916 0.397 0.641 170.439 3315.390 -3099.531 -0.084 0.199 0.003 0.01 0.68 -0.73 0.04
1 0.39 39 -0.718 -9.802 0.723 -0.275 1.526 1.099 50.367 3195.318 -3144.501 -0.047 0.055 -0.050 0.01 0.68 -0.73 0.04
1 0.40 40 -0.790 -9.874 0.690 0.031 1.678 0.854 185.429 3285.260 -3114.521 0.025 0.127 -0.015 0.01 0.68 -0.73 0.04
1 0.41 41 -0.694 -9.845 0.685 0.641 1.678 0.763 185.429 3285.260 -3114.521 -0.071 0.099 -0.010 0.01 0.68 -0.73 0.04
1 0.42 42 -0.670 -9.692 0.646 0.610 2.106 1.221 110.478 3330.380 -3114.521 -0.095 -0.054 0.033 0.01 0.68 -0.73 0.04
1 0.43 43 -0.661 -9.826 0.699 0.061 1.678 1.343 110.478 3330.380 -3114.521 -0.105 0.080 -0.019 0.01 0.68 -0.73 0.04
1 0.44 44 -0.570 -9.879 0.603 -0.580 1.434 0.336 95.488 3345.371 -3174.482 -0.196 0.133 0.078 0.01 0.68 -0.73 0.04
1 0.45 45 -0.646 -9.788 0.685 -0.641 0.610 0.000 185.429 3360.361 -3159.492 -0.118 0.041 -0.004 0.01 0.68 -0.73 0.04
1 0.46 46 -0.675 -9.836 0.680 -1.038 0.519 0.244 80.498 3285.260 -3114.521 -0.087 0.089 0.001 0.01 0.68 -0.73 0.04
1 0.47 47 -0.642 -9.730 0.551 -0.153 1.495 -0.122 110.478 3210.309 -3189.472 -0.120 -0.016 0.130 0.01 0.68 -0.73 0.04
1 0.48 48 -0.575 -9.721 0.570 -1.587 2.716 0.763 110.478 3210.309 -3189.472 -0.185 -0.026 0.111 0.01 0.68 -0.73 0.04
1 0.49 49 -0.613 -9.687 0.498 -3.906 2.716 1.343 170.439 3270.270 -3144.501 -0.146 -0.060 0.177 0.01 0.68 -0.73 0.04
1 0.50 50 -0.589 -9.855 0.575 -2.899 2.869 0.641 170.439 3270.270 -3144.501 -0.170 0.107 0.095 0.01 0.68 -0.73 0.04
1 0.51 51 -0.613 -9.884 0.536 -2.228 2.289 0.214 20.387 3150.348 -3069.550 -0.145 0.136 0.129 0.01 0.68 -0.73 0.04
1 0.52 52 -0.546 -9.927 0.532 -1.984 2.899 0.031 125.468 3345.371 -3069.550 -0.211 0.178 0.131 0.01 0.68 -0.73 0.04
1 0.53 53 -0.704 -9.826 0.618 -1.343 3.784 0.549 170.439 3315.390 -3144.501 -0.051 0.078 0.041 0.01 0.68 -0.73 0.04
1 0.54 54 -0.551 -9.802 0.589 -1.740 3.296 1.953 110.478 3360.361 -3084.541 -0.203 0.053 0.069 0.01 0.68 -0.73 0.04
1 0.55 55 -0.776 -10.008 0.546 -0.610 2.411 1.251 110.478 3360.361 -3084.541 0.021 0.259 0.110 0.02 0.68 -0.73 0.04
1 0.56 56 -0.670 -9.908 0.594 -0.397 0.702 2.045 110.478 3285.260 -3159.492 -0.086 0.159 0.059 0.02 0.68 -0.73 0.04
1 0.57 57 -0.742 -9.927 0.618 -0.366 0.793 1.740 110.478 3285.260 -3159.492 -0.015 0.178 0.036 0.02 0.68 -0.73 0.04
1 0.58 58 -0.699 -9.936 0.694 0.031 0.946 1.862 170.439 3390.341 -3099.531 -0.059 0.188 -0.041 0.02 0.68 -0.73 0.04
1 0.59 59 -0.656 -9.965 0.589 0.580 0.153 2.319 95.488 3270.270 -3099.531 -0.103 0.217 0.066 0.02 0.68 -0.73 0.04
1 0.60 60 -0.781 -9.826 0.704 0.244 -0.031 2.502 110.478 3285.260 -3009.589 0.019 0.078 -0.047 0.02 0.68 -0.73 0.04
1 0.61 61 -0.828 -9.893 0.670 -0.885 -0.244 2.228 50.367 3315.390 -3144.501 0.064 0.145 -0.012 0.02 0.68 -0.73 0.04
1 0.62 62 -0.886 -9.874 0.623 -2.197 -0.458 2.167 50.367 3315.390 -3144.501 0.118 0.126 0.036 0.02 0.68 -0.73 0.04
1 0.63 63 -0.948 -9.893 0.685 -2.075 -0.977 2.625 20.387 3465.292 -2919.498 0.177 0.146 -0.028 0.02 0.68 -0.73 0.04
1 0.64 64 -0.924 -9.932 0.599 -0.977 -1.556 2.350 20.387 3465.292 -2919.498 0.146 0.184 0.055 0.02 0.68 -0.73 0.04
1 0.65 65 -0.905 -9.836 0.608 -0.885 -2.472 3.082 185.429 3255.279 -3159.492 0.123 0.089 0.045 0.02 0.68 -0.73 0.04
1 0.66 66 -0.857 -9.817 0.824 -1.221 -2.747 2.960 80.498 3285.260 -3084.541 0.071 0.070 -0.171 0.02 0.68 -0.73 0.04
1 0.67 67 -0.809 -9.821 0.575 -1.373 -2.930 2.075 95.488 3315.390 -3099.531 0.020 0.075 0.079 0.02 0.68 -0.73 0.04
1 0.68 68 -0.718 -9.922 0.594 -2.411 -2.502 2.869 170.439 3270.270 -3144.501 -0.073 0.176 0.059 0.02 0.68 -0.73 0.04
1 0.69 69 -0.761 -9.979 0.579 -1.740 -1.862 3.418 170.439 3270.270 -3144.501 -0.031 0.233 0.071 0.02 0.68 -0.73 0.04
1 0.70 70 -0.642 -9.778 0.565 -0.916 -1.740 2.869 185.429 3255.279 -2979.609 -0.154 0.032 0.084 0.02 0.68 -0.73 0.04
1 0.71 71 -0.632 -9.797 0.675 0.000 -1.984 3.235 185.429 3255.279 -2979.609 -0.169 0.052 -0.026 0.02 0.68 -0.73 0.04
1 0.72 72 -0.623 -9.965 0.646 -0.671 -1.465 3.174 95.488 3420.322 -2994.599 -0.181 0.220 0.003 0.02 0.68 -0.73 0.04
1 0.73 73 -0.776 -9.850 0.532 -1.221 -1.556 3.540 170.439 3345.371 -3099.531 -0.031 0.105 0.118 0.02 0.68 -0.73 0.04
1 0.74 74 -0.876 -10.037 0.666 -1.190 -1.740 3.174 170.439 3345.371 -3099.531 0.066 0.292 -0.017 0.02 0.68 -0.73 0.04
1 0.75 75 -0.771 -9.817 0.584 0.092 -2.045 3.082 185.429 3285.260 -3114.521 -0.043 0.072 0.064 0.02 0.68 -0.73 0.04
1 0.76 76 -0.862 -9.860 0.685 0.427 -2.136 2.869 185.429 3285.260 -3114.521 0.045 0.115 -0.036 0.02 0.68 -0.73 0.04
1 0.77 77 -0.728 -9.735 0.608 0.244 -2.441 3.235 275.371 3345.371 -3144.501 -0.092 -0.009 0.043 0.02 0.68 -0.73 0.04
1 0.78 78 -0.843 -9.802 0.642 -1.282 -2.716 3.052 275.371 3345.371 -3144.501 0.015 0.059 0.013 0.02 0.68 -0.73 0.04
1 0.79 79 -0.709 -9.908 0.723 -2.350 -2.380 2.502 200.419 3225.299 -3174.482 -0.122 0.165 -0.070 0.02 0.68 -0.73 0.04
1 0.80 80 -0.848 -9.917 0.757 -1.770 -2.167 2.472 260.380 3330.380 -3009.589 0.014 0.174 -0.105 0.02 0.68 -0.73 0.04
1 0.81 81 -0.915 -9.936 0.632 -1.007 -1.953 3.296 260.380 3330.380 -3009.589 0.078 0.194 0.019 0.02 0.68 -0.73 0.04
1 0.82 82 -0.824 -9.860 0.752 -0.946 -1.709 2.838 155.449 3255.279 -3084.541 -0.016 0.118 -0.101 0.02 0.68 -0.73 0.04
1 0.83 83 -0.627 -9.893 0.733 -0.702 -1.312 3.143 155.449 3255.279 -3084.541 -0.216 0.151 -0.080 0.02 0.68 -0.73 0.04
1 0.84 84 -0.675 -9.797 0.742 -2.258 -0.732 3.204 170.439 3420.322 -3099.531 -0.172 0.056 -0.089 0.02 0.68 -0.73 0.04
1 0.85 85 -0.766 -9.750 0.795 -2.441 0.000 3.540 170.439 3420.322 -3099.531 -0.086 0.008 -0.144 0.02 0.68 -0.73 0.04
1 0.86 86 -0.752 -9.807 0.723 -2.289 0.275 3.418 125.468 3390.341 -3024.580 -0.104 0.066 -0.074 0.02 0.68 -0.73 0.04
1 0.87 87 -0.752 -9.812 0.828 -1.953 0.702 3.387 245.390 3390.341 -3144.501 -0.108 0.071 -0.181 0.02 0.68 -0.73 0.04
1 0.88 88 -0.713 -9.802 0.737 -1.587 0.763 3.937 245.390 3390.341 -3144.501 -0.149 0.062 -0.091 0.02 0.68 -0.73 0.04
1 0.89 89 -0.781 -9.740 0.690 -1.770 1.099 3.540 110.478 3330.380 -3189.472 -0.086 -0.000 -0.043 0.02 0.68 -0.73 0.04
1 0.90 90 -0.848 -9.764 0.776 -1.404 0.519 3.418 110.478 3330.380 -3189.472 -0.023 0.024 -0.130 0.02 0.68 -0.73 0.04
1 0.91 91 -0.881 -9.869 0.680 -2.075 0.793 3.479 80.498 3255.279 -3084.541 0.007 0.130 -0.035 0.02 0.68 -0.73 0.04
1 0.92 92 -0.761 -9.912 0.766 -1.404 0.427 3.082 80.498 3255.279 -3084.541 -0.121 0.173 -0.123 0.02 0.68 -0.73 0.05
1 0.93 93 -0.886 -9.927 0.728 -1.282 0.763 2.686 245.390 3390.341 -3099.531 0.001 0.188 -0.085 0.02 0.68 -0.73 0.05
1 0.94 94 -0.996 -9.860 0.766 -0.214 0.885 3.021 155.449 3285.260 -2979.609 0.107 0.121 -0.124 0.02 0.68 -0.73 0.05
1 0.95 95 -0.953 -9.855 0.776 -0.580 1.160 2.808 155.449 3285.260 -2979.609 0.060 0.117 -0.132 0.02 0.68 -0.73 0.05
1 0.96 96 -0.934 -9.922 0.800 -0.488 1.282 2.686 320.491 3345.371 -3144.501 0.038 0.184 -0.155 0.02 0.68 -0.73 0.05
1 0.97 97 -0.718 -9.884 0.742 -0.183 0.916 2.228 320.491 3345.371 -3144.501 -0.181 0.146 -0.096 0.02 0.68 -0.73 0.04
1 0.98 98 -0.982 -9.951 0.910 -0.519 1.648 2.808 110.478 3330.380 -3084.541 0.079 0.214 -0.261 0.02 0.68 -0.73 0.04
1 0.99 99 -0.848 -9.855 0.761 -0.214 1.404 2.686 110.478 3330.380 -3084.541 -0.057 0.118 -0.112 0.02 0.68 -0.73 0.04
1 1.00 100 -0.919 -9.903 0.718 -0.153 1.587 3.693 155.449 3285.260 -3264.573 0.007 0.167 -0.064 0.02 0.68 -0.73 0.04
1 1.01 101 -0.924 -9.941 0.661 -0.793 1.801 3.540 50.367 3420.322 -2994.599 0.007 0.206 -0.006 0.02 0.68 -0.73 0.05
1 1.02 102 -0.948 -9.927 0.857 -0.122 1.862 2.686 50.367 3420.322 -2994.599 0.026 0.192 -0.202 0.02 0.68 -0.73 0.05
1 1.03 103 -0.905 -9.984 0.776 0.305 1.984 3.723 185.429 3435.312 -3189.472 -0.021 0.250 -0.118 0.02 0.68 -0.73 0.05
1 1.04 104 -0.924 -9.869 0.704 2.533 1.160 3.082 155.449 3285.260 -3054.560 -0.006 0.136 -0.044 0.02 0.68 -0.73 0.05
1 1.05 105 -0.982 -9.821 0.627 3.876 1.678 2.472 245.390 3345.371 -3174.482 0.049 0.089 0.037 0.02 0.68 -0.73 0.05
1 1.06 106 -0.915 -9.740 0.709 4.364 2.075 2.380 245.390 3345.371 -3174.482 -0.021 0.008 -0.038 0.02 0.68 -0.73 0.05
1 1.07 107 -1.001 -9.759 0.661 2.930 2.441 2.228 200.419 3345.371 -3024.580 0.060 0.028 0.024 0.02 0.68 -0.73 0.05
1 1.08 108 -0.891 -9.740 0.699 2.014 2.991 2.289 290.511 3435.312 -3054.560 -0.053 0.010 -0.010 0.02 0.68 -0.73 0.04
1 1.09 109 -0.838 -9.572 0.761 0.763 2.441 2.045 290.511 3435.312 -3054.560 -0.108 -0.157 -0.069 0.02 0.68 -0.73 0.04
1 1.10 110 -0.982 -9.797 0.761 0.916 2.869 2.594 275.371 3315.390 -3069.550 0.034 0.068 -0.066 0.02 0.68 -0.73 0.04
1 1.11 111 -0.857 -9.932 0.733 1.648 2.441 2.228 170.439 3315.390 -3069.550 -0.094 0.203 -0.035 0.02 0.68 -0.73 0.04
1 1.12 112 -0.900 -9.850 0.704 1.953 2.655 1.282 260.380 3180.328 -3159.492 -0.053 0.122 -0.004 0.03 0.68 -0.73 0.04
1 1.13 113 -0.872 -9.845 0.666 2.319 2.563 0.305 260.380 3180.328 -3159.492 -0.083 0.117 0.037 0.03 0.68 -0.73 0.04
1 1.14 114 -0.967 -9.821 0.651 2.136 2.747 -0.031 125.468 3315.390 -3174.482 0.012 0.094 0.056 0.03 0.68 -0.73 0.04
1 1.15 115 -0.852 -9.778 0.785 3.296 2.319 -0.885 335.481 3210.309 -3009.589 -0.101 0.051 -0.070 0.03 0.68 -0.73 0.04
1 1.16 116 -1.053 -9.807 0.728 3.143 2.167 -1.465 335.481 3210.309 -3009.589 0.103 0.080 -0.007 0.03 0.68 -0.73 0.04
1 1.17 117 -1.144 -9.769 0.599 3.571 0.610 -1.373 215.410 3330.380 -3114.521 0.196 0.042 0.129 0.03 0.68 -0.73 0.04
1 1.18 118 -1.188 -9.692 0.680 1.984 0.702 -1.678 200.419 3315.390 -3144.501 0.241 -0.035 0.052 0.03 0.68 -0.73 0.04
1 1.19 119 -1.030 -9.778 0.690 -0.061 -0.763 -1.801 260.380 3285.260 -3234.593 0.085 0.052 0.046 0.03 0.68 -0.73 0.04
1 1.20 120 -0.991 -9.817 0.733 0.336 -1.312 -1.923 260.380 3285.260 -3234.593 0.050 0.090 0.003 0.03 0.68 -0.73 0.04
1 1.21 121 -0.891 -9.850 0.599 0.641 -1.099 -1.556 215.410 3285.260 -3159.492 -0.048 0.123 0.138 0.03 0.68 -0.73 0.04
1 1.22 122 -0.972 -9.955 0.694 2.380 -0.763 -1.129 185.429 3330.380 -3054.560 0.041 0.228 0.048 0.03 0.68 -0.73 0.04
1 1.23 123 -0.958 -9.845 0.690 2.625 -0.549 -1.282 185.429 3330.380 -3054.560 0.029 0.118 0.057 0.03 0.68 -0.73 0.04
1 1.24 124 -1.015 -9.860 0.675 1.648 -1.373 -1.343 215.410 3330.380 -3114.521 0.089 0.132 0.075 0.03 0.68 -0.73 0.04
1 1.25 125 -0.943 -9.788 0.618 1.709 -2.014 -1.038 155.449 3285.260 -3159.492 0.020 0.061 0.136 0.03 0.68 -0.73 0.04
1 1.26 126 -0.728 -9.735 0.608 1.129 -2.686 -1.221 185.429 3360.361 -3189.472 -0.193 0.008 0.149 0.02 0.68 -0.73 0.04
1 1.27 127 -0.656 -9.711 0.570 0.763 -1.953 0.031 185.429 3360.361 -3189.472 -0.262 -0.016 0.189 0.02 0.68 -0.73 0.04
1 1.28 128 -0.579 -9.706 0.690 -1.038 -0.427 -0.214 215.410 3330.380 -3189.472 -0.336 -0.021 0.071 0.02 0.68 -0.73 0.04
1 1.29 129 -0.613 -9.831 0.666 -2.136 1.862 0.488 125.468 3315.390 -3069.550 -0.297 0.103 0.091 0.02 0.68 -0.73 0.04
1 1.30 130 -0.809 -9.807 0.603 -1.587 2.716 1.038 125.468 3315.390 -3069.550 -0.099 0.078 0.150 0.02 0.68 -0.73 0.04
1 1.31 131 -0.977 -9.769 0.733 -1.282 2.899 1.282 110.478 3255.279 -3189.472 0.070 0.040 0.019 0.02 0.68 -0.73 0.04
1 1.32 132 -0.929 -9.754 0.675 -0.519 2.380 1.160 275.371 3315.390 -3069.550 0.021 0.025 0.076 0.02 0.68 -0.73 0.04
1 1.33 133 -0.943 -9.721 0.627 -0.366 0.122 1.007 245.390 3390.341 -3024.580 0.035 -0.008 0.123 0.02 0.68 -0.73 0.04
1 1.34 134 -0.804 -9.802 0.690 -0.854 -0.793 0.061 245.390 3390.341 -3024.580 -0.105 0.073 0.061 0.02 0.68 -0.73 0.04
1 1.35 135 -0.905 -9.716 0.752 -1.709 -0.793 -0.244 215.410 3330.380 -3084.541 -0.005 -0.013 -0.002 0.02 0.68 -0.73 0.04
1 1.36 136 -0.828 -9.745 0.781 -2.899 -0.061 0.305 155.449 3285.260 -2979.609 -0.079 0.015 -0.034 0.02 0.68 -0.73 0.04
1 1.37 137 -0.948 -9.869 0.852 -2.899 0.732 -0.153 155.449 3285.260 -2979.609 0.042 0.140 -0.109 0.02 0.68 -0.73 0.04
1 1.38 138 -1.039 -9.979 0.728 -2.228 0.153 -0.763 170.439 3195.318 -3174.482 0.135 0.249 0.014 0.02 0.68 -0.73 0.04
1 1.39 139 -1.063 -9.912 0.761 -1.862 -0.214 -0.183 215.410 3405.332 -3084.541 0.160 0.182 -0.021 0.02 0.68 -0.73 0.04
1 1.40 140 -0.895 -9.769 0.690 -2.380 -0.336 -1.251 245.390 3225.299 -3219.603 -0.007 0.038 0.049 0.02 0.68 -0.73 0.04
1 1.41 141 -0.852 -9.831 0.881 -2.899 -1.312 -0.824 245.390 3225.299 -3219.603 -0.049 0.100 -0.145 0.02 0.68 -0.73 0.04
1 1.42 142 -0.848 -9.773 0.555 -2.014 -1.221 -1.099 320.491 3270.270 -3069.550 -0.051 0.042 0.178 0.02 0.68 -0.73 0.04
1 1.43 143 -0.809 -9.903 0.857 -1.160 -1.007 -1.434 245.390 3195.318 -3099.531 -0.087 0.171 -0.126 0.02 0.68 -0.73 0.04
1 1.44 144 -0.809 -9.908 0.737 -1.007 -0.732 -1.373 245.390 3195.318 -3099.531 -0.079 0.175 -0.007 0.02 0.68 -0.73 0.04
1 1.45 145 -0.781 -9.888 0.766 -0.641 -1.099 -1.373 260.380 3285.260 -3114.521 -0.104 0.156 -0.036 0.02 0.68 -0.73 0.04
1 1.46 146 -0.781 -9.893 0.857 0.000 -0.854 -1.953 290.511 3285.260 -3009.589 -0.100 0.160 -0.126 0.02 0.68 -0.73 0.04
1 1.47 147 -0.891 -9.970 0.795 -0.183 -1.678 -1.678 290.511 3285.260 -3009.589 0.015 0.237 -0.062 0.02 0.68 -0.73 0.04
1 1.48 148 -0.876 -9.874 0.857 0.793 -2.716 -1.892 275.371 3315.390 -3099.531 0.004 0.141 -0.123 0.02 0.68 -0.73 0.04
1 1.49 149 -0.867 -9.869 0.939 0.305 -2.380 -2.655 155.449 3285.260 -3054.560 -0.001 0.136 -0.201 0.02 0.68 -0.73 0.04
1 1.50 150 -0.819 -9.730 0.943 0.183 -2.014 -2.533 245.390 3315.390 -3069.550 -0.045 -0.003 -0.203 0.02 0.68 -0.73 0.04
1 1.51 151 -0.785 -9.783 0.795 0.214 -1.923 -2.258 245.390 3315.390 -3069.550 -0.069 0.049 -0.050 0.02 0.68 -0.73 0.04
1 1.52 152 -1.001 -9.697 0.953 -0.183 -1.434 -1.343 275.371 3195.318 -3069.550 0.151 -0.038 -0.205 0.02 0.68 -0.73 0.04
1 1.53 153 -0.800 -9.831 0.819 -0.336 -0.336 -1.465 170.439 3225.299 -3219.603 -0.047 0.096 -0.069 0.02 0.68 -0.73 0.04
1 1.54 154 -0.804 -9.841 0.766 -0.702 -0.031 -0.610 170.439 3225.299 -3219.603 -0.039 0.106 -0.015 0.02 0.68 -0.73 0.04
1 1.55 155 -0.852 -10.056 0.747 -1.190 0.153 -0.519 155.449 3360.361 -3084.541 0.011 0.321 0.004 0.02 0.68 -0.73 0.04
1 1.56 156 -0.781 -10.008 0.891 -1.129 0.366 -0.061 260.380 3180.328 -3189.472 -0.060 0.273 -0.140 0.02 0.68 -0.73 0.04
1 1.57 157 -0.785 -9.927 0.852 0.275 -0.366 -0.153 185.429 3180.328 -3189.472 -0.054 0.192 -0.102 0.02 0.68 -0.73 0.04
1 1.58 158 -0.694 -9.932 0.680 0.793 -0.031 -0.183 185.429 3180.328 -3189.472 -0.143 0.196 0.071 0.02 0.68 -0.73 0.04
1 1.59 159 -0.761 -9.903 0.819 0.580 0.061 0.061 320.491 3315.390 -3144.501 -0.072 0.168 -0.062 0.02 0.68 -0.73 0.04
1 1.60 160 -0.819 -9.812 0.795 0.061 0.610 0.305 290.511 3210.309 -3114.521 -0.013 0.077 -0.036 0.02 0.68 -0.73 0.04
1 1.61 161 -0.733 -9.864 0.800 -0.366 0.641 -0.488 290.511 3210.309 -3114.521 -0.098 0.129 -0.039 0.02 0.68 -0.73 0.04
1 1.62 162 -0.618 -9.922 0.776 0.122 0.275 0.244 110.478 3285.260 -3114.521 -0.211 0.187 -0.014 0.02 0.68 -0.73 0.04
1 1.63 163 -0.656 -9.970 0.891 0.916 0.549 0.397 185.429 3135.357 -3114.521 -0.171 0.235 -0.127 0.02 0.68 -0.73 0.04
1 1.64 164 -0.785 -9.879 0.881 0.763 0.977 0.519 125.468 3270.270 -3099.531 -0.040 0.144 -0.114 0.02 0.68 -0.73 0.04
1 1.65 165 -0.737 -9.812 0.718 0.885 2.075 0.854 125.468 3270.270 -3099.531 -0.087 0.077 0.051 0.02 0.68 -0.73 0.04
1 1.66 166 -0.814 -9.797 0.886 1.495 1.801 0.702 200.419 3315.390 -3099.531 -0.010 0.063 -0.111 0.02 0.68 -0.73 0.04
1 1.67 167 -0.781 -9.979 0.704 1.678 1.160 0.641 170.439 3270.270 -3174.482 -0.043 0.245 0.075 0.02 0.68 -0.73 0.04
1 1.68 168 -0.800 -9.812 0.766 1.007 1.007 -0.061 170.439 3270.270 -3174.482 -0.023 0.078 0.016 0.02 0.68 -0.73 0.04
1 1.69 169 -0.637 -10.042 0.943 0.458 0.977 -0.305 200.419 3195.318 -3249.583 -0.184 0.308 -0.159 0.02 0.68 -0.73 0.04
1 1.70 170 -0.752 -9.884 0.785 0.763 1.343 0.275 170.439 3195.318 -3069.550 -0.067 0.150 0.001 0.02 0.68 -0.73 0.04
1 1.71 171 -0.713 -9.841 0.862 1.770 1.587 -0.671 125.468 3390.341 -3099.531 -0.105 0.107 -0.074 0.02 0.68 -0.73 0.04
1 1.72 172 -0.781 -9.730 0.881 2.411 1.251 -0.366 125.468 3390.341 -3099.531 -0.036 -0.003 -0.090 0.02 0.68 -0.73 0.04
1 1.73 173 -0.742 -9.735 0.838 2.075 0.916 0.458 110.478 3360.361 -3084.541 -0.071 0.002 -0.036 0.02 0.68 -0.73 0.04
1 1.74 174 -0.781 -9.716 0.929 0.671 0.977 0.122 155.449 3255.279 -3189.472 -0.032 -0.017 -0.123 0.02 0.68 -0.73 0.04
1 1.75 175 -0.718 -9.860 0.800 0.702 0.519 0.610 155.449 3255.279 -3189.472 -0.093 0.127 0.009 0.02 0.68 -0.73 0.04
1 1.76 176 -0.771 -9.778 0.838 0.336 -0.092 -0.519 290.511 3255.279 -3114.521 -0.040 0.046 -0.028 0.02 0.68 -0.73 0.04
1 1.77 177 -0.771 -9.874 0.766 1.587 -1.068 -1.007 245.390 3345.371 -3099.531 -0.037 0.141 0.046 0.02 0.68 -0.73 0.04
1 1.78 178 -0.642 -9.869 0.953 1.984 -1.404 -1.892 260.380 3210.309 -3054.560 -0.164 0.136 -0.139 0.02 0.68 -0.74 0.04
1 1.79 179 -0.867 -9.716 0.795 2.563 -1.740 -2.106 260.380 3210.309 -3054.560 0.065 -0.017 0.023 0.02 0.68 -0.74 0.04
1 1.80 180 -0.872 -9.716 0.824 1.007 -3.296 -2.716 125.468 3270.270 -3024.580 0.079 -0.017 0.004 0.02 0.68 -0.74 0.03
1 1.81 181 -0.867 -9.821 0.953 1.007 -3.693 -2.563 350.472 3345.371 -3099.531 0.079 0.089 -0.122 0.02 0.68 -0.74 0.03
1 1.82 182 -0.737 -9.860 0.790 -0.214 -3.021 -2.289 350.472 3345.371 -3099.531 -0.045 0.127 0.043 0.02 0.68 -0.74 0.03
1 1.83 183 -0.623 -9.802 0.809 -0.153 -3.113 -1.801 245.390 3150.348 -3144.501 -0.155 0.069 0.025 0.02 0.68 -0.74 0.03
1 1.84 184 -0.680 -9.797 0.881 -0.305 -2.838 -1.984 185.429 3210.309 -3114.521 -0.092 0.064 -0.045 0.02 0.68 -0.74 0.03
1 1.85 185 -0.766 -9.769 0.824 0.305 -2.350 -0.946 170.439 3150.348 -3069.550 -0.001 0.035 0.013 0.02 0.68 -0.74 0.03
1 1.86 186 -0.532 -9.841 0.642 0.275 -1.648 -0.305 170.439 3150.348 -3069.550 -0.232 0.106 0.197 0.02 0.68 -0.74 0.03
1 1.87 187 -0.570 -9.965 0.752 -1.251 -1.221 0.763 320.491 3420.322 -3099.531 -0.191 0.231 0.088 0.02 0.68 -0.74 0.03
1 1.88 188 -0.512 -9.903 0.795 -3.448 -0.244 1.801 155.449 3285.260 -3114.521 -0.246 0.168 0.041 0.02 0.68 -0.74 0.03
1 1.89 189 -0.632 -10.013 0.723 -4.608 0.336 2.350 155.449 3285.260 -3114.521 -0.126 0.278 0.108 0.02 0.68 -0.74 0.03
1 1.90 190 -0.421 -10.133 0.757 -3.693 0.244 2.838 245.390 3225.299 -3069.550 -0.338 0.397 0.067 0.02 0.68 -0.74 0.03
1 1.91 191 -0.426 -10.022 0.733 -1.709 0.458 3.601 245.390 3225.299 -3069.550 -0.334 0.286 0.087 0.02 0.68 -0.74 0.03
1 1.92 192 -0.469 -9.879 0.690 2.441 1.831 3.448 185.429 3330.380 -3084.541 -0.293 0.143 0.129 0.02 0.68 -0.74 0.03
1 1.93 193 -0.618 -9.807 0.757 2.686 2.563 4.059 185.429 3330.380 -3084.541 -0.146 0.071 0.066 0.02 0.68 -0.74 0.03
1 1.94 194 -0.776 -9.817 0.718 0.549 2.411 3.876 95.488 3225.299 -3219.603 0.009 0.082 0.108 0.02 0.68 -0.74 0.03
1 1.95 195 -0.924 -9.893 0.848 -1.129 1.770 3.906 350.472 3315.390 -3174.482 0.148 0.159 -0.020 0.02 0.68 -0.74 0.03
1 1.96 196 -0.996 -9.922 0.943 0.183 0.061 3.754 350.472 3315.390 -3174.482 0.214 0.188 -0.117 0.02 0.68 -0.74 0.03
1 1.97 197 -0.838 -9.869 0.752 1.434 -1.251 3.052 155.449 3210.309 -3189.472 0.050 0.136 0.077 0.02 0.68 -0.74 0.03
1 1.98 198 -1.020 -9.716 0.690 3.021 -1.617 3.571 155.449 3210.309 -3189.472 0.227 -0.016 0.143 0.02 0.68 -0.74 0.03
1 1.99 199 -0.852 -9.750 0.804 1.648 -1.617 3.662 275.371 3270.270 -3099.531 0.054 0.018 0.033 0.02 0.68 -0.74 0.03
1 2.00 200 -1.039 -9.687 0.814 0.244 -2.197 3.723 275.371 3270.270 -3099.531 0.235 -0.043 0.027 0.02 0.68 -0.74 0.03
1 2.01 201 -1.030 -9.726 0.900 0.000 -2.258 3.693 215.410 3405.332 -3054.560 0.220 -0.004 -0.057 0.02 0.68 -0.74 0.03
1 2.02 202 -0.881 -9.793 0.900 0.763 -3.082 3.967 245.390 3345.371 -3219.603 0.066 0.063 -0.055 0.02 0.68 -0.74 0.04
1 2.03 203 -0.766 -9.697 0.852 1.801 -2.625 2.869 245.390 3345.371 -3219.603 -0.059 -0.031 -0.002 0.02 0.68 -0.74 0.04
1 2.04 204 -0.776 -9.663 0.852 2.289 -2.380 2.686 185.429 3210.309 -3114.521 -0.052 -0.064 0.003 0.02 0.68 -0.74 0.04
1 2.05 205 -0.713 -9.687 0.833 1.770 -1.282 2.411 185.429 3210.309 -3114.521 -0.117 -0.039 0.027 0.02 0.67 -0.74 0.04
1 2.06 206 -0.661 -9.726 0.895 0.549 -1.709 1.556 125.468 3195.318 -3219.603 -0.171 -0.001 -0.032 0.02 0.67 -0.74 0.04
1 2.07 207 -0.867 -9.908 0.996 0.458 -3.143 0.458 125.468 3195.318 -3219.603 0.035 0.181 -0.132 0.02 0.67 -0.74 0.04
1 2.08 208 -0.809 -9.965 0.939 1.129 -3.632 0.000 260.380 3330.380 -3159.492 -0.022 0.239 -0.072 0.02 0.67 -0.74 0.04
1 2.09 209 -0.781 -9.932 0.828 1.373 -3.906 0.519 110.478 3210.309 -3234.593 -0.049 0.205 0.041 0.02 0.67 -0.74 0.04
1 2.10 210 -0.637 -9.927 0.910 2.258 -3.143 0.000 110.478 3210.309 -3234.593 -0.189 0.201 -0.033 0.02 0.67 -0.74 0.04
1 2.11 211 -0.608 -9.869 0.771 1.770 -2.747 -0.183 245.390 3345.371 -3174.482 -0.214 0.144 0.111 0.02 0.67 -0.74 0.04
1 2.12 212 -0.584 -9.898 0.824 2.014 -1.678 -0.580 245.390 3345.371 -3174.482 -0.235 0.172 0.061 0.02 0.67 -0.74 0.04
1 2.13 213 -0.713 -9.817 0.733 1.709 -1.678 -0.732 320.491 3225.299 -3219.603 -0.102 0.091 0.156 0.02 0.67 -0.74 0.04
1 2.14 214 -0.881 -9.778 0.819 0.763 -1.709 -1.587 320.491 3345.371 -3174.482 0.069 0.053 0.072 0.02 0.67 -0.74 0.04
1 2.15 215 -0.781 -9.821 0.891 0.427 -2.075 -1.740 290.511 3255.279 -3054.560 -0.027 0.096 0.003 0.02 0.67 -0.74 0.04
1 2.16 216 -0.795 -9.855 0.776 0.946 -2.319 -1.099 245.390 3270.270 -3249.583 -0.010 0.129 0.119 0.02 0.67 -0.74 0.04
1 2.17 217 -0.551 -9.821 0.675 1.099 -1.587 -2.045 245.390 3270.270 -3249.583 -0.246 0.095 0.224 0.02 0.67 -0.74 0.04
1 2.18 218 -0.599 -9.850 0.776 0.244 -0.793 -1.404 260.380 3285.260 -3264.573 -0.193 0.124 0.124 0.02 0.67 -0.74 0.04
1 2.19 219 -0.613 -9.879 0.675 -0.092 0.092 -1.526 260.380 3285.260 -3264.573 -0.174 0.152 0.225 0.02 0.67 -0.74 0.04
1 2.20 220 -0.728 -9.759 0.690 0.885 -1.007 -1.526 200.419 3195.318 -3174.482 -0.055 0.032 0.210 0.02 0.67 -0.74 0.03
1 2.21 221 -0.728 -9.726 0.661 2.014 -1.892 -1.801 200.419 3120.367 -3144.501 -0.051 -0.002 0.240 0.02 0.67 -0.74 0.03
1 2.22 222 -0.680 -9.936 0.785 1.251 -1.923 -1.678 200.419 3150.348 -3099.531 -0.094 0.209 0.117 0.02 0.67 -0.74 0.03
1 2.23 223 -0.603 -9.807 0.814 1.770 -2.594 -2.228 215.410 3135.357 -3189.472 -0.166 0.079 0.091 0.02 0.67 -0.74 0.03
1 2.24 224 -0.694 -9.864 0.666 2.258 -3.296 -2.502 215.410 3135.357 -3189.472 -0.065 0.136 0.244 0.02 0.67 -0.74 0.03
1 2.25 225 -0.752 -9.946 0.776 2.838 -3.174 -2.960 260.380 3255.279 -3264.573 -0.002 0.218 0.137 0.02 0.67 -0.74 0.03
1 2.26 226 -0.733 -9.999 0.852 2.563 -4.211 -2.441 260.380 3255.279 -3264.573 -0.016 0.270 0.065 0.02 0.67 -0.74 0.03
1 2.27 227 -0.713 -9.951 0.785 2.472 -4.730 -2.502 155.449 3210.309 -3054.560 -0.030 0.223 0.137 0.02 0.67 -0.74 0.03
1 2.28 228 -0.713 -9.826 0.857 2.930 -5.402 -2.472 170.439 3225.299 -3174.482 -0.025 0.098 0.070 0.02 0.67 -0.74 0.03
1 2.29 229 -0.651 -9.678 0.876 2.960 -6.378 -1.282 155.449 3105.377 -2979.609 -0.081 -0.050 0.057 0.02 0.67 -0.74 0.03
1 2.30 230 -0.421 -9.826 0.833 2.258 -6.866 -0.488 185.429 3210.309 -3114.521 -0.307 0.098 0.106 0.02 0.67 -0.74 0.03
1 2.31 231 -0.431 -9.754 0.800 0.763 -7.050 1.099 185.429 3210.309 -3114.521 -0.293 0.027 0.144 0.02 0.67 -0.74 0.03
1 2.32 232 -0.268 -9.922 0.843 -2.045 -5.402 2.472 245.390 3195.318 -3279.563 -0.452 0.194 0.104 0.02 0.67 -0.74 0.03
1 2.33 233 -0.335 -9.946 0.919 -2.716 -4.791 3.448 245.390 3195.318 -3279.563 -0.384 0.218 0.025 0.02 0.67 -0.74 0.03
1 2.34 234 -0.402 -9.979 0.895 -1.495 -5.432 4.272 80.498 3285.260 -3264.573 -0.318 0.252 0.048 0.02 0.67 -0.74 0.04
1 2.35 235 -0.292 -9.893 0.848 0.549 -5.096 5.157 200.419 3390.341 -3144.501 -0.430 0.166 0.096 0.02 0.67 -0.74 0.04
1 2.36 236 -0.397 -9.783 0.843 -0.793 -4.028 7.629 185.429 3330.380 -3234.593 -0.329 0.056 0.103 0.02 0.67 -0.74 0.04
1 2.37 237 -0.326 -9.989 0.838 -2.625 -3.723 9.399 125.468 3315.390 -3219.603 -0.408 0.262 0.109 0.02 0.67 -0.74 0.04
1 2.38 238 -0.388 -10.027 0.953 -5.707 -3.448 10.712 125.468 3315.390 -3219.603 -0.354 0.301 -0.009 0.02 0.67 -0.74 0.04
1 2.39 239 -0.508 -10.123 0.905 -6.287 -3.204 13.092 200.419 3270.270 -3174.482 -0.260 0.397 0.025 0.02 0.67 -0.74 0.04
1 2.40 240 -0.488 -10.061 0.833 -4.822 -2.106 14.008 200.419 3270.270 -3174.482 -0.295 0.336 0.089 0.02 0.67 -0.74 0.04
1 2.41 241 -0.474 -10.037 0.872 -2.441 -1.068 15.381 35.377 3255.279 -3339.524 -0.327 0.313 0.045 0.02 0.67 -0.74 0.04
1 2.42 242 -0.469 -9.864 1.039 -1.617 0.610 17.212 170.439 3195.318 -3249.583 -0.351 0.142 -0.125 0.02 0.67 -0.74 0.04
1 2.43 243 -0.512 -9.908 1.077 -2.991 4.028 18.280 200.419 3195.318 -3219.603 -0.330 0.187 -0.164 0.02 0.67 -0.74 0.04
1 2.44 244 -0.378 -9.812 0.838 -2.747 6.073 18.921 155.449 3330.380 -3264.573 -0.487 0.093 0.073 0.02 0.67 -0.74 0.04
1 2.45 245 -0.627 -9.874 0.795 -2.991 8.057 19.867 155.449 3330.380 -3264.573 -0.264 0.157 0.113 0.02 0.67 -0.74 0.04
1 2.46 246 -0.560 -9.773 0.757 -2.563 9.888 20.111 170.439 3120.367 -3219.603 -0.356 0.058 0.146 0.02 0.67 -0.74 0.04
1 2.47 247 -0.656 -9.769 0.757 -0.977 12.573 21.179 170.439 3120.367 -3219.603 -0.317 0.058 0.138 0.03 0.67 -0.74 0.04
1 2.48 248 -0.699 -9.802 0.876 -0.122 14.099 21.668 170.439 3150.348 -3219.603 -0.304 0.094 0.015 0.03 0.67 -0.74 0.04
1 2.49 249 -0.809 -9.596 0.771 -0.397 15.533 20.660 215.410 3135.357 -3234.593 -0.224 -0.108 0.118 0.03 0.67 -0.74 0.04
1 2.50 250 -0.809 -9.663 0.790 -1.099 16.510 20.813 485.384 3195.318 -3249.583 -0.254 -0.038 0.096 0.03 0.67 -0.74 0.05
1 2.51 251 -1.111 -9.544 0.737 0.549 17.853 19.836 335.481 3135.357 -3159.492 0.018 -0.155 0.145 0.03 0.67 -0.74 0.05
1 2.52 252 -1.049 -9.582 0.417 1.709 18.433 19.257 335.481 3135.357 -3159.492 -0.074 -0.114 0.463 0.04 0.67 -0.74 0.05
1 2.53 253 -1.216 -9.448 0.259 2.960 18.524 17.761 290.511 3060.406 -3054.560 0.064 -0.244 0.619 0.04 0.67 -0.74 0.05
1 2.54 254 -1.446 -9.433 0.043 4.089 17.273 16.480 290.511 3060.406 -3054.560 0.236 -0.252 0.831 0.04 0.67 -0.74 0.05
1 2.55 255 -1.781 -9.544 -0.096 4.944 15.869 15.656 410.433 3150.348 -3069.550 0.544 -0.139 0.968 0.04 0.67 -0.74 0.05
1 2.56 256 -1.954 -9.788 -0.148 5.035 12.756 13.123 380.452 3225.299 -3174.482 0.689 0.109 1.020 0.05 0.67 -0.74 0.05
1 2.57 257 -2.265 -9.869 -0.177 3.143 10.162 9.277 380.452 3225.299 -3174.482 0.976 0.193 1.046 0.05 0.67 -0.74 0.05
1 2.58 258 -2.485 -9.879 -0.201 3.357 5.676 2.563 410.433 3225.299 -3069.550 1.177 0.205 1.066 0.05 0.67 -0.74 0.05
1 2.59 259 -2.576 -9.754 -0.283 8.057 2.686 0.427 410.433 3225.299 -3069.550 1.254 0.082 1.143 0.05 0.67 -0.74 0.05
1 2.60 260 -2.500 -9.582 -0.311 10.651 -0.732 1.923 335.481 3285.260 -3054.560 1.168 -0.089 1.173 0.05 0.67 -0.74 0.05
1 2.61 261 -2.361 -9.448 -0.120 7.263 -3.601 4.395 335.481 3285.260 -3054.560 1.004 -0.218 0.996 0.05 0.67 -0.74 0.05
1 2.62 262 -2.174 -9.568 -0.077 1.465 -5.493 5.432 350.472 3225.299 -3099.531 0.804 -0.096 0.955 0.05 0.67 -0.74 0.05
1 2.63 263 -1.935 -9.754 0.024 -3.632 -7.690 4.761 410.433 3270.270 -3069.550 0.552 0.092 0.850 0.05 0.67 -0.74 0.05
1 2.64 264 -1.757 -9.999 0.139 -5.066 -10.284 3.784 410.433 3270.270 -3069.550 0.366 0.336 0.725 0.05 0.67 -0.74 0.05
1 2.65 265 -1.398 -10.391 0.043 0.122 -12.604 4.913 425.423 3135.357 -3159.492 0.001 0.729 0.812 0.05 0.67 -0.74 0.05
1 2.66 266 -1.197 -10.257 0.215 4.761 -11.871 5.188 425.423 3135.357 -3159.492 -0.205 0.595 0.636 0.05 0.67 -0.74 0.05
1 2.67 267 -1.144 -9.970 0.192 9.857 -10.681 4.669 515.364 3150.348 -3249.583 -0.262 0.309 0.663 0.05 0.67 -0.74 0.05
1 2.68 268 -1.049 -9.572 -0.038 11.658 -7.690 2.472 515.364 3150.348 -3249.583 -0.363 -0.085 0.918 0.05 0.67 -0.74 0.05
1 2.69 269 -0.876 -9.395 0.120 9.125 -7.782 0.092 380.452 3225.299 -3174.482 -0.533 -0.262 0.773 0.05 0.67 -0.74 0.05
1 2.70 270 -0.919 -9.275 0.077 7.416 -8.118 -0.763 515.364 3150.348 -3144.501 -0.485 -0.381 0.825 0.05 0.67 -0.74 0.05
1 2.71 271 -0.843 -9.333 0.034 5.646 -6.439 -1.221 515.364 3150.348 -3144.501 -0.555 -0.324 0.875 0.05 0.67 -0.74 0.05
1 2.72 272 -0.924 -9.275 0.019 3.448 -1.068 1.007 380.452 3150.348 -3144.501 -0.468 -0.382 0.893 0.05 0.67 -0.74 0.05
1 2.73 273 -1.015 -9.275 0.024 1.648 2.258 1.282 380.452 3150.348 -3144.501 -0.373 -0.383 0.888 0.05 0.67 -0.74 0.05
1 2.74 274 -1.111 -9.362 0.043 0.916 3.754 0.793 440.413 3270.270 -3249.583 -0.277 -0.297 0.867 0.05 0.67 -0.74 0.05
1 2.75 275 -0.996 -9.467 0.148 0.000 5.524 -0.092 440.413 3270.270 -3249.583 -0.390 -0.192 0.757 0.05 0.67 -0.74 0.05
1 2.76 276 -1.140 -9.510 0.034 1.740 7.294 -2.594 290.511 3105.377 -3264.573 -0.241 -0.151 0.861 0.05 0.67 -0.74 0.05
1 2.77 277 -1.058 -9.448 -0.024 3.693 8.606 -2.899 260.380 3210.309 -3189.472 -0.317 -0.214 0.914 0.05 0.67 -0.74 0.05
1 2.78 278 -1.336 -9.414 0.038 4.700 10.712 -3.662 260.380 3210.309 -3189.472 -0.033 -0.249 0.851 0.05 0.67 -0.74 0.05
1 2.79 279 -1.451 -9.366 -0.105 4.639 11.749 -3.815 425.423 3105.377 -3159.492 0.088 -0.298 0.994 0.05 0.67 -0.74 0.05
1 2.80 280 -1.475 -9.438 -0.038 0.610 11.292 -5.951 410.433 3195.318 -3174.482 0.117 -0.227 0.924 0.05 0.67 -0.74 0.05
1 2.81 281 -1.484 -9.472 -0.048 0.214 8.484 -7.172 395.442 3210.309 -3114.521 0.132 -0.195 0.928 0.05 0.67 -0.74 0.05
1 2.82 282 -1.595 -9.510 -0.148 -0.214 7.507 -7.629 395.442 3210.309 -3114.521 0.251 -0.158 1.021 0.05 0.67 -0.74 0.05
1 2.83 283 -1.499 -9.481 -0.038 -1.495 7.721 -6.226 485.384 3045.266 -3174.482 0.174 -0.191 0.895 0.05 0.67 -0.74 0.04
1 2.84 284 -1.408 -9.620 -0.163 -1.862 9.125 -5.676 410.433 3150.348 -3354.515 0.090 -0.054 1.009 0.05 0.67 -0.74 0.04
1 2.85 285 -1.393 -9.524 -0.201 -2.808 9.155 -5.432 410.433 3150.348 -3354.515 0.083 -0.151 1.036 0.05 0.67 -0.74 0.04
1 2.86 286 -1.326 -9.400 -0.297 -2.655 7.965 -5.432 575.475 3135.357 -3189.472 0.023 -0.278 1.119 0.05 0.67 -0.73 0.04
1 2.87 287 -1.461 -9.529 -0.436 -2.472 6.409 -4.395 335.481 3015.286 -3159.492 0.164 -0.151 1.246 0.05 0.68 -0.73 0.04
1 2.88 288 -1.441 -9.448 -0.498 -3.723 6.500 -4.089 395.442 3015.286 -3309.544 0.150 -0.234 1.297 0.05 0.68 -0.73 0.04
1 2.89 289 -1.528 -9.448 -0.484 -4.852 5.981 -3.845 395.442 3015.286 -3309.544 0.241 -0.236 1.268 0.05 0.68 -0.73 0.04
1 2.90 290 -1.523 -9.601 -0.359 -6.439 4.913 -2.533 395.442 3180.328 -3189.472 0.240 -0.084 1.127 0.05 0.68 -0.73 0.04
1 2.91 291 -1.585 -9.802 -0.287 -7.263 2.869 -1.617 335.481 3135.357 -3369.505 0.306 0.114 1.019 0.05 0.68 -0.73 0.04
1 2.92 292 -1.695 -9.860 -0.201 -7.294 0.763 -2.289 335.481 3135.357 -3369.505 0.418 0.170 0.915 0.05 0.68 -0.73 0.04
1 2.93 293 -1.494 -10.046 -0.287 -5.981 -0.305 -2.777 425.423 3105.377 -3054.560 0.218 0.355 0.984 0.05 0.68 -0.73 0.04
1 2.94 294 -1.532 -9.984 -0.230 -2.838 -0.061 -3.815 410.433 3225.299 -3144.501 0.260 0.291 0.912 0.05 0.68 -0.73 0.04
1 2.95 295 -1.681 -9.855 -0.278 2.594 1.373 -5.096 260.380 3180.328 -3264.573 0.414 0.161 0.951 0.05 0.68 -0.73 0.04
1 2.96 296 -1.480 -9.864 -0.378 4.669 0.427 -5.157 260.380 3180.328 -3264.573 0.219 0.169 1.048 0.05 0.68 -0.73 0.04
1 2.97 297 -1.374 -9.788 -0.364 3.937 -1.556 -4.700 275.371 3225.299 -3069.550 0.120 0.092 1.033 0.05 0.68 -0.73 0.04
1 2.98 298 -1.283 -9.730 -0.153 0.916 -2.136 -4.669 470.394 3060.406 -3159.492 0.042 0.032 0.819 0.05 0.68 -0.73 0.04
1 2.99 299 -1.053 -9.740 -0.201 -0.397 -1.099 -4.425 470.394 3060.406 -3159.492 -0.181 0.041 0.863 0.05 0.68 -0.73 0.04
1 3.00 300 -0.881 -9.783 -0.081 0.397 1.068 -3.357 440.413 3195.318 -3279.563 -0.345 0.082 0.738 0.05 0.68 -0.73 0.04
1 3.01 301 -0.728 -9.927 -0.086 2.930 3.204 -2.380 410.433 3195.318 -3099.531 -0.491 0.225 0.739 0.05 0.68 -0.73 0.04
1 3.02 302 -0.766 -9.788 -0.201 7.324 6.287 0.916 365.462 3210.309 -3234.593 -0.445 0.085 0.854 0.05 0.68 -0.73 0.04
1 3.03 303 -0.891 -10.090 -0.053 8.392 7.843 1.801 365.462 3210.309 -3234.593 -0.317 0.386 0.709 0.05 0.68 -0.73 0.04
1 3.04 304 -1.015 -10.075 0.057 9.460 7.813 3.418 335.481 3180.328 -3114.521 -0.192 0.372 0.604 0.05 0.68 -0.73 0.04
1 3.05 305 -1.331 -10.458 0.096 10.651 6.989 5.341 335.481 3255.279 -3309.544 0.117 0.758 0.584 0.05 0.68 -0.73 0.04
1 3.06 306 -1.652 -10.693 0.316 13.916 6.470 5.707 335.481 3255.279 -3309.544 0.430 0.994 0.375 0.05 0.68 -0.73 0.03
1 3.07 307 -1.824 -10.760 0.306 16.876 5.829 6.622 410.433 3045.266 -3219.603 0.593 1.064 0.405 0.05 0.68 -0.73 0.03
1 3.08 308 -2.073 -11.076 0.378 20.996 5.524 7.172 335.481 3135.357 -3084.541 0.832 1.383 0.359 0.05 0.68 -0.73 0.03
1 3.09 309 -2.399 -10.961 0.374 25.879 7.568 8.179 335.481 3060.406 -3114.521 1.148 1.272 0.397 0.05 0.68 -0.73 0.03
1 3.10 310 -2.514 -10.602 0.148 27.893 8.362 9.552 335.481 3060.406 -3114.521 1.251 0.917 0.659 0.06 0.68 -0.73 0.04
1 3.11 311 -2.773 -10.588 -0.010 27.466 7.446 9.735 290.511 3255.279 -3114.521 1.495 0.908 0.857 0.06 0.67 -0.74 0.04
1 3.12 312 -2.888 -10.827 -0.316 21.423 4.334 12.421 440.413 3195.318 -3219.603 1.579 1.159 1.242 0.06 0.67 -0.74 0.04
1 3.13 313 -2.801 -11.133 -0.498 13.886 2.197 14.343 440.413 3195.318 -3219.603 1.474 1.471 1.453 0.06 0.67 -0.74 0.04
1 3.14 314 -2.787 -12.254 -0.383 8.362 -0.488 17.426 545.495 3285.260 -3264.573 1.437 2.596 1.357 0.06 0.67 -0.74 0.04
1 3.15 315 -2.682 -12.972 -0.287 8.637 -3.052 17.548 350.472 3045.266 -3219.603 1.307 3.320 1.275 0.06 0.67 -0.74 0.04
1 3.16 316 -2.595 -12.862 -0.326 23.499 -3.235 12.177 365.462 3105.377 -3234.593 1.197 3.214 1.329 0.06 0.67 -0.74 0.04
1 3.17 317 -2.437 -12.580 -0.565 36.591 -2.930 9.552 365.462 3105.377 -3234.593 1.021 2.938 1.600 0.06 0.67 -0.74 0.04
1 3.18 318 -2.413 -12.153 -0.699 41.443 -3.723 7.172 410.433 3045.266 -3219.603 0.983 2.519 1.786 0.06 0.66 -0.74 0.04
1 3.19 319 -2.332 -11.627 -0.527 37.048 -3.723 3.937 560.485 3075.396 -3399.485 0.892 2.001 1.675 0.06 0.66 -0.75 0.04
1 3.20 320 -2.203 -11.464 -0.522 24.628 -4.608 0.488 560.485 3075.396 -3399.485 0.756 1.853 1.778 0.06 0.66 -0.75 0.04
1 3.21 321 -2.131 -11.469 -0.330 20.660 -7.843 0.275 395.442 2985.305 -3159.492 0.686 1.862 1.622 0.06 0.66 -0.75 0.04
1 3.22 322 -1.805 -11.493 -0.225 20.142 -8.179 -1.068 350.472 2925.344 -3324.534 0.363 1.890 1.549 0.06 0.65 -0.75 0.04
1 3.23 323 -1.590 -11.205 -0.163 25.665 -5.066 -1.190 349.272 2925.044 -3322.585 0.151 1.607 1.521 0.06 0.65 -0.75 0.04
1 3.24 324 -1.657 -10.511 -0.263 34.515 -1.312 -3.448 364.263 2834.953 -3487.628 0.222 0.918 1.664 0.06 0.65 -0.75 0.04
1 3.25 325 -1.748 -10.214 -0.062 32.349 -0.946 -5.341 424.374 2834.953 -3232.644 0.318 0.627 1.508 0.06 0.65 -0.76 0.04
1 3.26 326 -1.690 -10.090 0.211 25.086 -1.801 -8.545 424.374 2985.005 -3337.576 0.267 0.507 1.271 0.06 0.65 -0.76 0.04
1 3.27 327 -1.599 -10.061 0.498 16.022 -1.434 -13.825 424.374 2985.005 -3337.576 0.204 0.482 1.033 0.06 0.65 -0.76 0.04
1 3.28 328 -1.662 -10.013 0.742 16.571 0.793 -14.893 259.331 2910.054 -3337.576 0.287 0.434 0.804 0.06 0.65 -0.76 0.04
1 3.29 329 -1.595 -9.726 1.336 17.670 3.662 -14.252 349.272 2895.064 -3352.566 0.239 0.147 0.229 0.06 0.65 -0.76 0.04
1 3.30 330 -1.714 -9.448 1.844 15.900 3.754 -14.862 349.272 2895.064 -3352.566 0.378 -0.130 -0.255 0.06 0.64 -0.76 0.04
1 3.31 331 -1.676 -8.801 2.543 11.383 -3.662 -21.027 409.383 2849.943 -3277.615 0.360 -0.775 -0.932 0.06 0.64 -0.76 0.04
1 3.32 332 -1.350 -8.572 3.007 15.015 -9.583 -25.330 214.360 2760.002 -3412.677 0.062 -1.005 -1.374 0.06 0.64 -0.76 0.04
1 3.33 333 -1.130 -8.126 3.323 21.851 -14.923 -26.215 364.263 2760.002 -3442.657 -0.123 -1.450 -1.659 0.05 0.64 -0.76 0.04
1 3.34 334 -1.231 -7.848 3.730 24.994 -19.043 -23.193 364.263 2760.002 -3442.657 0.019 -1.725 -2.021 0.05 0.64 -0.77 0.03
1 3.35 335 -1.097 -7.279 4.334 25.604 -23.926 -16.296 214.360 2834.953 -3412.677 -0.039 -2.286 -2.527 0.05 0.64 -0.77 0.03
1 3.36 336 -1.063 -6.857 4.382 25.391 -30.304 -11.200 364.263 2864.934 -3442.657 -0.042 -2.703 -2.532 0.04 0.64 -0.77 0.03
1 3.37 337 -0.699 -6.651 4.377 25.421 -37.781 -6.073 364.263 2864.934 -3442.657 -0.381 -2.903 -2.484 0.04 0.63 -0.77 0.04
1 3.38 338 -0.441 -6.465 4.291 23.438 -40.955 -1.251 214.360 2760.002 -3487.628 -0.621 -3.083 -2.353 0.04 0.63 -0.77 0.04
1 3.39 339 0.268 -6.718 4.104 12.207 -33.020 6.439 379.253 2774.992 -3502.618 -1.318 -2.822 -2.126 0.04 0.63 -0.77 0.04
1 3.40 340 0.445 -7.125 3.965 -1.801 -19.348 7.538 154.250 2685.051 -3562.579 -1.492 -2.410 -1.959 0.04 0.63 -0.78 0.04
1 3.41 341 0.354 -7.844 3.946 -16.022 -5.249 7.690 154.250 2685.051 -3562.579 -1.404 -1.690 -1.932 0.04 0.63 -0.78 0.04
1 3.42 342 -0.144 -9.122 4.003 -22.339 12.238 10.162 154.250 2685.051 -3517.608 -0.924 -0.417 -2.029 0.04 0.63 -0.77 0.04
1 3.43 343 -0.843 -9.817 3.946 -16.785 12.665 10.559 94.289 2549.989 -3397.687 -0.236 0.275 -1.988 0.04 0.63 -0.77 0.04
1 3.44 344 -1.216 -10.099 4.022 -4.517 6.836 6.897 94.289 2549.989 -3397.687 0.124 0.558 -2.071 0.04 0.63 -0.77 0.04
1 3.45 345 -1.547 -10.257 4.022 6.256 -2.899 0.580 184.380 2639.930 -3487.628 0.446 0.716 -2.073 0.04 0.63 -0.77 0.04
1 3.46 346 -1.001 -9.941 3.759 11.475 -18.219 -5.737 244.341 2624.940 -3427.667 -0.096 0.403 -1.796 0.04 0.63 -0.77 0.04
1 3.47 347 -0.445 -9.644 3.721 9.979 -24.994 -5.524 124.269 2654.920 -3577.569 -0.639 0.109 -1.737 0.04 0.63 -0.77 0.04
1 3.48 348 0.206 -9.343 3.539 7.996 -30.579 -3.967 124.269 2654.920 -3577.569 -1.272 -0.188 -1.522 0.03 0.63 -0.78 0.04
1 3.49 349 0.838 -9.108 3.113 6.683 -35.736 -1.312 124.269 2700.041 -3532.599 -1.857 -0.416 -1.038 0.03 0.63 -0.78 0.05
1 3.50 350 1.240 -9.022 2.782 6.348 -34.851 -1.282 184.380 2715.031 -3487.628 -2.232 -0.499 -0.683 0.03 0.63 -0.78 0.05
1 3.51 351 1.188 -9.103 2.557 6.104 -32.868 -2.319 184.380 2715.031 -3487.628 -2.149 -0.416 -0.436 0.02 0.63 -0.78 0.05
1 3.52 352 0.843 -9.194 2.437 5.157 -28.839 -2.045 94.289 2579.969 -3502.618 -1.775 -0.324 -0.297 0.02 0.62 -0.78 0.05
1 3.53 353 0.168 -9.309 1.992 4.578 -24.628 1.312 214.360 2715.031 -3487.628 -1.074 -0.208 0.163 0.02 0.62 -0.78 0.05
1 3.54 354 -0.397 -9.323 1.853 5.554 -22.736 4.120 94.289 2505.018 -3532.599 -0.489 -0.193 0.314 0.02 0.62 -0.78 0.05
1 3.55 355 -0.924 -9.405 1.604 6.928 -23.193 5.890 94.139 2505.018 -3532.149 0.048 -0.110 0.574 0.02 0.62 -0.78 0.05
1 3.56 356 -1.111 -8.950 1.580 8.759 -26.886 6.165 169.090 2804.973 -3502.168 0.235 -0.559 0.622 0.01 0.62 -0.78 0.05
1 3.57 357 -1.049 -8.950 1.609 10.803 -30.151 5.096 94.139 2730.021 -3652.221 0.172 -0.556 0.608 0.01 0.62 -0.78 0.06
1 3.58 358 -0.441 -8.605 1.657 12.695 -31.372 3.662 94.139 2730.021 -3652.221 -0.434 -0.896 0.578 0.01 0.62 -0.78 0.06
1 3.59 359 0.345 -8.437 1.662 12.970 -29.663 3.082 4.047 2715.031 -3442.208 -1.212 -1.059 0.596 0.01 0.62 -0.78 0.06
1 3.60 360 0.848 -8.457 1.762 8.820 -19.196 2.258 -40.773 2639.930 -3667.211 -1.709 -1.035 0.519 0.01 0.62 -0.78 0.06
1 3.61 361 1.231 -8.634 1.556 4.547 -9.857 1.862 -85.744 2579.969 -3472.188 -2.088 -0.854 0.742 0.01 0.62 -0.78 0.06
1 3.62 362 1.250 -8.773 1.355 0.336 -2.411 2.075 -85.744 2579.969 -3472.188 -2.105 -0.713 0.954 0.01 0.62 -0.78 0.06
1 3.63 363 1.638 -8.931 1.049 -4.059 2.350 2.747 -205.666 2624.940 -3472.188 -2.479 -0.556 1.260 0 0.62 -0.78 0.06
1 3.64 364 1.772 -8.979 0.943 -7.263 4.211 4.242 19.188 2579.969 -3472.188 -2.588 -0.516 1.341 0 0.62 -0.78 0.06
1 3.65 365 1.992 -8.744 0.929 -7.385 5.463 5.096 19.188 2579.969 -3472.188 -2.798 -0.756 1.337 0 0.62 -0.78 0.06
1 3.66 366 1.939 -8.916 1.039 -8.392 8.575 7.538 4.047 2520.008 -3592.260 -2.735 -0.589 1.208 0 0.62 -0.78 0.06
1 3.67 367 1.815 -9.184 1.063 -11.200 14.038 10.529 4.047 2520.008 -3592.260 -2.606 -0.326 1.164 0 0.62 -0.78 0.06
1 3.68 368 0.982 -9.371 0.804 -16.876 26.856 9.735 34.178 2564.979 -3592.260 -1.774 -0.145 1.397 0 0.62 -0.78 0.06
1 3.69 369 0.177 -9.620 0.666 -19.165 32.318 8.575 34.178 2564.979 -3592.260 -0.977 0.097 1.503 0.01 0.62 -0.78 0.06
1 3.70 370 -0.436 -9.745 0.723 -18.799 33.844 10.315 -55.764 2654.920 -3472.188 -0.374 0.213 1.405 0.01 0.63 -0.78 0.06
1 3.71 371 -1.154 -9.687 0.666 -17.914 27.191 12.573 -55.764 2654.920 -3532.149 0.300 0.142 1.381 0.01 0.63 -0.78 0.05
1 3.72 372 -1.360 -9.644 0.690 -19.470 17.700 13.306 -55.764 2654.920 -3532.149 0.478 0.093 1.318 0.01 0.63 -0.77 0.05
1 3.73 373 -1.068 -9.807 0.814 -23.010 10.315 13.519 109.129 2639.930 -3442.208 0.160 0.250 1.154 0.02 0.63 -0.77 0.05
1 3.74 374 -0.800 -9.864 0.895 -26.795 5.249 14.404 109.129 2639.930 -3442.208 -0.132 0.300 1.029 0.02 0.63 -0.77 0.05
1 3.75 375 -0.512 -10.176 1.049 -29.236 8.118 18.097 109.129 2639.930 -3412.227 -0.442 0.605 0.828 0.02 0.64 -0.77 0.06
1 3.76 376 -0.872 -10.410 2.457 -28.870 12.238 19.959 109.129 2639.930 -3412.227 -0.107 0.832 -0.629 0.02 0.64 -0.77 0.06
1 3.77 377 -1.987 -12.029 3.520 -31.921 16.419 16.693 79.148 2715.031 -3442.208 0.980 2.445 -1.740 0.02 0.64 -0.77 0.06
1 3.78 378 -4.932 -14.859 4.994 -57.526 13.916 -2.258 79.148 2760.002 -3367.256 3.879 5.259 -3.329 0.02 0.64 -0.76 0.06
1 3.79 379 -6.805 -16.171 4.176 -48.157 -5.768 -20.081 79.148 2760.002 -3367.256 5.759 6.556 -2.594 0.02 0.65 -0.76 0.06
1 3.80 380 -5.655 -13.882 2.825 -11.658 -33.783 -23.224 94.139 2774.992 -3352.116 4.648 4.254 -1.301 0.02 0.65 -0.76 0.06
1 3.81 381 -3.117 -10.674 1.585 32.837 -53.620 -9.491 94.139 2774.992 -3352.116 2.150 1.043 -0.053 0.02 0.65 -0.76 0.06
1 3.82 382 -0.929 -8.983 0.685 45.166 -52.368 0.702 94.139 2804.973 -3322.136 -0.014 -0.639 0.913 0.01 0.65 -0.76 0.06
1 3.83 383 1.331 -8.945 0.642 -0.427 -24.078 13.977 94.139 2804.973 -3322.136 -2.270 -0.667 1.020 0.01 0.64 -0.76 0.06
1 3.84 384 1.738 -9.711 0.872 -46.112 2.930 22.492 -85.744 2804.973 -3472.188 -2.685 0.103 0.810 0.01 0.64 -0.76 0.06
1 3.85 385 1.647 -11.181 0.996 -81.726 24.719 27.618 -40.773 2715.031 -3367.256 -2.604 1.565 0.629 0.01 0.65 -0.76 0.06
1 3.86 386 1.508 -11.660 1.130 -67.719 26.398 24.201 -40.773 2715.031 -3367.256 -2.537 2.012 0.248 0.01 0.66 -0.75 0.06
1 3.87 387 1.729 -11.244 1.585 -23.621 17.456 9.460 4.047 2760.002 -3412.227 -2.791 1.587 -0.294 0.02 0.66 -0.75 0.06
1 3.88 388 2.040 -10.516 2.567 15.595 14.465 0.122 4.047 2760.002 -3412.227 -3.115 0.858 -1.296 0.02 0.66 -0.75 0.06
1 3.89 389 1.949 -10.027 3.864 38.391 19.989 -0.031 19.188 2895.064 -3217.204 -3.025 0.374 -2.562 0.02 0.66 -0.75 0.06
1 3.90 390 1.575 -9.199 5.114 36.102 42.694 -5.096 19.188 2895.064 -3217.204 -2.656 -0.446 -3.754 0.02 0.66 -0.75 0.06
1 3.91 391 -0.278 -8.806 4.870 22.461 58.380 -17.700 49.168 2774.992 -3352.116 -0.796 -0.830 -3.443 0.02 0.65 -0.75 0.06
1 3.92 392 -1.810 -8.998 3.769 13.702 62.470 -30.426 4.047 2789.982 -3412.227 0.760 -0.632 -2.283 0.02 0.65 -0.76 0.06
1 3.93 393 -4.358 -9.697 2.864 16.602 44.220 -40.924 4.047 2789.982 -3412.227 3.370 0.071 -1.311 0.03 0.65 -0.76 0.05
1 3.94 394 -5.679 -9.821 2.888 21.576 32.135 -42.633 169.090 2895.064 -3247.185 4.735 0.196 -1.308 0.03 0.65 -0.76 0.04
1 3.95 395 -6.244 -9.319 3.041 25.971 24.292 -38.361 169.090 2895.064 -3247.185 5.355 -0.307 -1.430 0.03 0.65 -0.76 0.04
1 3.96 396 -5.598 -8.624 3.065 23.346 10.071 -24.384 124.119 2895.064 -3352.116 4.756 -1.000 -1.418 0.03 0.64 -0.76 0.03
1 3.97 397 -3.778 -7.695 3.194 13.550 -11.810 -6.287 124.119 2895.064 -3352.116 2.947 -1.923 -1.509 0.03 0.64 -0.76 0.03
1 3.98 398 -0.972 -7.777 2.916 -20.233 -35.614 15.686 109.129 2760.002 -3262.175 0.121 -1.835 -1.203 0.03 0.64 -0.77 0.04
1 3.99 399 0.493 -8.538 2.907 -48.554 -34.424 22.095 169.090 2804.973 -3247.185 -1.354 -1.075 -1.208 0.03 0.64 -0.76 0.04
1 4.00 400 1.073 -10.109 2.911 -67.902 -6.165 24.750 169.090 2804.973 -3247.185 -1.972 0.476 -1.347 0.02 0.65 -0.76 0.04
1 4.01 401 0.560 -10.770 2.888 -49.652 16.632 25.299 109.129 2715.031 -3337.126 -1.479 1.126 -1.407 0.02 0.65 -0.76 0.04
1 4.02 402 -0.699 -10.578 2.634 -13.062 34.638 26.733 109.129 2715.031 -3337.126 -0.263 0.929 -1.216 0.03 0.65 -0.76 0.04
1 4.03 403 -2.145 -9.797 2.634 21.576 41.351 25.269 94.139 2730.021 -3322.136 1.138 0.152 -1.226 0.03 0.65 -0.75 0.04
1 4.04 404 -3.237 -8.145 2.188 41.138 36.041 22.492 95.188 2775.442 -3069.101 2.179 -1.489 -0.737 0.03 0.65 -0.76 0.04
1 4.05 405 -3.227 -7.264 1.772 32.013 27.374 21.057 95.188 2775.442 -3219.153 2.115 -2.354 -0.258 0.04 0.65 -0.76 0.04
1 4.06 406 -2.897 -6.881 1.619 11.261 18.433 19.501 185.129 2910.354 -3189.022 1.738 -2.723 -0.054 0.04 0.65 -0.76 0.04
1 4.07 407 -2.270 -7.212 1.556 -14.557 10.407 17.426 185.129 2910.354 -3189.022 1.076 -2.385 0.031 0.04 0.65 -0.76 0.04
1 4.08 408 -1.652 -8.131 1.686 -47.272 4.639 13.794 200.120 2775.442 -3144.052 0.406 -1.469 -0.160 0.04 0.65 -0.76 0.05
1 4.09 409 -1.006 -8.888 1.623 -53.223 3.998 11.139 200.120 2775.442 -3144.052 -0.261 -0.721 -0.171 0.05 0.65 -0.76 0.05
1 4.10 410 -0.690 -9.295 1.537 -43.244 5.676 9.186 170.139 2700.341 -3174.032 -0.591 -0.323 -0.159 0.05 0.65 -0.75 0.05
1 4.11 411 -0.704 -9.165 1.518 -5.920 13.702 7.690 200.120 2700.341 -3099.081 -0.588 -0.458 -0.193 0.05 0.66 -0.75 0.05
1 4.12 412 -0.900 -8.663 1.398 14.648 19.043 5.707 200.120 2775.442 -3144.052 -0.400 -0.962 -0.092 0.05 0.66 -0.75 0.05
1 4.13 413 -1.494 -8.160 1.331 23.438 23.193 3.113 95.188 2700.341 -3099.081 0.185 -1.462 -0.010 0.05 0.66 -0.75 0.05
1 4.14 414 -1.935 -7.786 1.226 17.334 24.567 2.441 95.188 2700.341 -3099.081 0.616 -1.830 0.125 0.05 0.65 -0.75 0.05
1 4.15 415 -2.500 -7.781 1.111 -3.693 19.898 -1.770 395.143 2685.351 -3084.091 1.168 -1.829 0.271 0.05 0.65 -0.75 0.04
1 4.16 416 -2.480 -7.997 0.924 -15.228 14.740 -5.920 395.143 2685.351 -3084.091 1.150 -1.615 0.445 0.05 0.65 -0.75 0.04
1 4.17 417 -2.571 -8.356 0.637 -20.294 8.026 -9.949 215.110 2790.432 -3159.042 1.249 -1.261 0.706 0.05 0.65 -0.75 0.04
1 4.18 418 -2.342 -8.528 0.364 -16.968 3.387 -14.710 350.172 2850.393 -3174.032 1.035 -1.095 0.949 0.05 0.66 -0.75 0.04
1 4.19 419 -2.040 -8.361 0.268 -5.829 1.465 -17.059 335.182 2865.383 -3054.110 0.751 -1.268 1.020 0.05 0.66 -0.75 0.04
1 4.20 420 -1.796 -8.208 0.316 -2.563 0.885 -17.151 215.110 2835.403 -3189.022 0.533 -1.426 0.962 0.05 0.66 -0.75 0.04
1 4.21 421 -1.566 -7.949 0.393 -6.836 2.686 -16.144 215.110 2835.403 -3189.022 0.329 -1.689 0.882 0.05 0.66 -0.75 0.04
1 4.22 422 -1.480 -8.006 0.479 -20.020 6.622 -16.907 185.129 2865.383 -3054.110 0.291 -1.641 0.769 0.05 0.66 -0.75 0.04
1 4.23 423 -1.389 -8.160 0.378 -26.184 8.575 -16.449 185.129 2865.383 -3054.110 0.225 -1.495 0.837 0.05 0.66 -0.75 0.04
1 4.24 424 -1.374 -8.572 0.316 -28.351 9.522 -13.886 245.090 2730.321 -3144.052 0.233 -1.091 0.858 0.05 0.66 -0.75 0.03
1 4.25 425 -1.413 -8.993 0.182 -25.574 8.575 -10.284 200.120 2895.364 -3174.032 0.290 -0.676 0.950 0.05 0.66 -0.75 0.03
1 4.26 426 -1.556 -9.481 0.321 -23.224 6.775 -7.996 80.198 2910.354 -3009.140 0.446 -0.194 0.772 0.05 0.66 -0.74 0.03
1 4.27 427 -1.896 -10.214 0.809 -20.874 3.815 -7.904 335.182 2910.354 -2979.159 0.793 0.533 0.244 0.05 0.67 -0.74 0.03
1 4.28 428 -1.863 -10.568 0.781 -19.623 1.678 -9.979 335.182 2910.354 -2979.159 0.767 0.883 0.238 0.05 0.67 -0.74 0.03
1 4.29 429 -1.925 -11.095 0.790 -16.754 0.000 -9.430 125.168 3000.445 -2889.068 0.838 1.406 0.197 0.05 0.67 -0.74 0.03
1 4.30 430 -1.920 -11.785 0.776 -11.658 -2.289 -6.714 125.168 3000.445 -2889.068 0.860 2.088 0.167 0.05 0.67 -0.74 0.03
1 4.31 431 -1.839 -11.928 0.852 -6.683 -0.885 -5.615 80.198 2790.432 -2979.159 0.789 2.229 0.076 0.04 0.67 -0.74 0.03
1 4.32 432 -1.973 -11.675 0.804 -1.068 2.258 -2.777 155.149 2940.334 -2979.159 0.932 1.974 0.116 0.04 0.67 -0.74 0.03
1 4.33 433 -2.222 -11.636 0.603 4.028 5.249 0.427 35.077 2985.455 -2829.107 1.184 1.935 0.319 0.04 0.67 -0.74 0.03
1 4.34 434 -2.442 -11.593 0.053 5.951 6.104 4.242 215.110 2835.403 -2874.078 1.402 1.893 0.876 0.04 0.67 -0.74 0.03
1 4.35 435 -2.500 -11.631 -0.321 3.387 4.242 4.608 215.110 2835.403 -2874.078 1.454 1.933 1.259 0.04 0.67 -0.74 0.03
1 4.36 436 -2.457 -12.015 -0.527 -0.061 1.709 4.700 185.129 2940.334 -2904.058 1.404 2.317 1.471 0.04 0.67 -0.74 0.03
1 4.37 437 -2.595 -12.771 -1.044 -2.594 -2.655 4.791 185.129 2940.334 -2904.058 1.531 3.075 1.989 0.05 0.67 -0.74 0.03
1 4.38 438 -2.514 -13.044 -1.302 -0.580 -5.615 4.425 260.081 2985.455 -3084.091 1.444 3.348 2.246 0.04 0.67 -0.74 0.03
1 4.39 439 -2.495 -13.049 -1.480 4.883 -9.735 2.777 155.149 2835.403 -3114.071 1.421 3.354 2.426 0.04 0.67 -0.74 0.03
1 4.40 440 -2.533 -12.766 -1.283 11.047 -14.191 1.740 170.139 2775.442 -3024.130 1.458 3.073 2.242 0.04 0.67 -0.74 0.03
1 4.41 441 -2.729 -12.867 -0.594 13.672 -15.961 1.617 245.090 2925.344 -2964.169 1.655 3.175 1.574 0.04 0.67 -0.74 0.03
1 4.42 442 -2.720 -13.058 0.421 1.251 -14.618 6.195 245.090 2925.344 -2964.169 1.645 3.369 0.582 0.04 0.67 -0.74 0.04
1 4.43 443 -2.519 -13.030 0.522 -7.385 -13.886 5.615 170.139 2925.344 -2919.048 1.439 3.342 0.491 0.04 0.67 -0.74 0.04
1 4.44 444 -1.896 -12.838 0.311 -1.404 -16.449 1.495 170.139 2925.344 -2919.048 0.808 3.151 0.691 0.04 0.67 -0.74 0.04
1 4.45 445 -1.389 -12.517 0.364 9.522 -15.930 -2.716 80.198 2985.455 -2979.159 0.303 2.830 0.645 0.04 0.67 -0.74 0.04
1 4.46 446 -1.130 -12.120 0.709 15.778 -13.458 -8.514 185.129 2910.354 -2904.058 0.053 2.434 0.320 0.04 0.67 -0.74 0.04
1 4.47 447 -1.034 -11.387 1.207 16.571 -11.444 -12.512 185.129 2910.354 -2904.058 -0.026 1.702 -0.150 0.04 0.67 -0.74 0.04
1 4.48 448 -1.168 -10.655 1.738 15.350 -10.651 -17.395 125.168 2970.315 -3069.101 0.132 0.970 -0.654 0.04 0.67 -0.74 0.04
1 4.49 449 -1.288 -9.764 2.131 16.419 -11.536 -19.714 125.168 2970.315 -3069.101 0.279 0.079 -1.021 0.03 0.67 -0.75 0.04
1 4.50 450 -1.432 -9.156 2.576 18.890 -13.001 -20.660 125.168 2925.344 -2964.169 0.453 -0.529 -1.437 0.03 0.66 -0.75 0.04
1 4.51 451 -1.417 -8.581 2.792 20.691 -15.656 -20.233 125.168 2925.344 -2964.169 0.470 -1.102 -1.615 0.03 0.66 -0.75 0.04
1 4.52 452 -1.489 -7.628 3.347 22.308 -20.020 -17.548 5.097 3015.436 -3009.140 0.599 -2.048 -2.076 0.03 0.66 -0.75 0.04
1 4.53 453 -1.451 -7.221 3.721 22.522 -22.156 -14.343 -9.744 2925.344 -2994.149 0.590 -2.453 -2.413 0.02 0.66 -0.75 0.04
1 4.54 454 -1.441 -6.670 3.998 24.292 -24.811 -11.810 -9.744 2925.344 -2994.149 0.607 -3.001 -2.653 0.02 0.66 -0.75 0.04
1 4.55 455 -1.240 -6.316 4.075 27.008 -29.266 -6.897 -9.744 2895.364 -3099.081 0.427 -3.351 -2.688 0.02 0.65 -0.75 0.04
1 4.56 456 -0.646 -5.646 3.879 28.900 -36.438 0.793 -9.744 2895.364 -3099.081 -0.151 -4.016 -2.445 0.02 0.65 -0.76 0.04
1 4.57 457 -0.201 -5.425 3.697 26.032 -36.621 7.202 155.149 2865.383 -3084.091 -0.587 -4.230 -2.215 0.02 0.65 -0.76 0.04
1 4.58 458 0.196 -5.483 3.386 17.761 -32.471 13.580 155.149 2865.383 -3084.091 -0.983 -4.165 -1.858 0.01 0.65 -0.76 0.05
1 4.59 459 0.728 -6.067 3.347 -11.719 -20.752 14.343 95.188 2895.364 -3024.130 -1.539 -3.572 -1.773 0.01 0.65 -0.76 0.05
1 4.60 460 0.828 -7.054 3.510 -34.607 -10.468 12.207 -69.705 2835.403 -3114.071 -1.656 -2.588 -1.959 0.01 0.65 -0.76 0.05
1 4.61 461 0.311 -8.461 3.486 -49.530 -0.336 10.956 -69.705 2835.403 -3114.071 -1.153 -1.187 -1.991 0.01 0.65 -0.76 0.05
1 4.62 462 -0.101 -9.941 3.429 -50.873 3.662 10.132 -54.714 2850.393 -2964.169 -0.753 0.283 -2.000 0.01 0.65 -0.76 0.05
1 4.63 463 -0.900 -11.540 3.749 -26.062 -5.432 6.561 -69.705 2760.452 -3114.071 0.040 1.875 -2.376 0.01 0.66 -0.75 0.05
1 4.64 464 -1.097 -11.751 3.912 -1.892 -13.886 2.350 20.087 2775.442 -3099.081 0.226 2.081 -2.584 0.01 0.66 -0.75 0.05
1 4.65 465 -0.986 -11.349 4.042 16.815 -18.768 -0.153 20.087 2775.442 -3099.081 0.114 1.677 -2.722 0.01 0.66 -0.75 0.06
1 4.66 466 -0.733 -10.511 3.903 23.438 -18.890 3.326 5.097 2910.354 -3009.140 -0.134 0.847 -2.524 0.01 0.66 -0.75 0.06
1 4.67 467 -0.239 -9.596 3.572 15.564 -17.883 10.468 -84.695 3045.416 -2994.149 -0.634 -0.062 -2.157 0.01 0.65 -0.75 0.06
1 4.68 468 0.144 -9.266 3.108 5.463 -17.822 12.238 -84.695 3045.416 -2994.149 -1.024 -0.386 -1.654 0.01 0.65 -0.76 0.06
1 4.69 469 0.354 -9.290 2.782 -1.984 -18.250 10.498 -84.695 2850.393 -2994.149 -1.241 -0.358 -1.307 0.01 0.65 -0.76 0.06
1 4.70 470 0.498 -9.673 2.457 -2.747 -16.022 5.096 -189.776 2940.334 -3054.110 -1.385 0.027 -0.971 0.01 0.65 -0.76 0.06
1 4.71 471 0.393 -9.831 2.327 0.549 -11.353 2.808 -54.714 2730.321 -2994.149 -1.274 0.186 -0.834 0 0.65 -0.76 0.06
1 4.72 472 0.091 -9.869 1.959 6.134 -6.165 2.899 -54.714 2730.321 -2994.149 -0.964 0.225 -0.456 0 0.65 -0.76 0.06
1 4.73 473 -0.306 -9.740 1.820 10.620 -1.953 2.289 -69.705 2790.432 -3054.110 -0.559 0.097 -0.303 0 0.65 -0.76 0.06
1 4.74 474 -0.766 -9.371 1.551 13.367 -1.770 -0.336 -144.656 2760.452 -3009.140 -0.092 -0.266 0.005 0 0.65 -0.76 0.06
1 4.75 475 -0.891 -9.266 1.456 11.200 -5.219 -3.479 -144.656 2760.452 -3009.140 0.037 -0.369 0.122 0 0.65 -0.76 0.06
1 4.76 476 -0.776 -9.252 1.264 7.233 -8.881 -5.188 -84.695 2850.393 -3024.130 -0.071 -0.381 0.330 0 0.65 -0.76 0.07
1 4.77 477 -0.575 -9.137 1.216 4.242 -12.054 -6.165 50.217 2730.321 -3279.114 -0.260 -0.495 0.388 0 0.65 -0.76 0.07
1 4.78 478 -0.043 -9.055 1.264 4.089 -12.939 -5.646 -69.705 2760.452 -3054.110 -0.777 -0.577 0.347 -0 0.65 -0.76 0.07
1 4.79 479 0.364 -9.022 1.379 5.524 -10.132 -4.150 -69.705 2760.452 -3054.110 -1.168 -0.610 0.239 -0 0.65 -0.76 0.07
1 4.80 480 0.618 -9.084 1.393 6.104 -6.531 -3.113 -114.675 2910.354 -3009.140 -1.406 -0.548 0.233 -0 0.65 -0.76 0.07
1 4.81 481 0.723 -8.993 1.212 7.080 -0.549 -0.946 -129.666 2805.422 -3024.130 -1.481 -0.638 0.434 -0 0.64 -0.76 0.06
1 4.82 482 0.713 -9.098 1.322 6.500 2.930 0.000 -129.666 2805.422 -3024.130 -1.460 -0.532 0.333 -0 0.64 -0.76 0.06
1 4.83 483 0.694 -9.156 1.346 5.493 4.578 1.282 -189.776 2865.383 -2979.159 -1.430 -0.474 0.318 -0.01 0.64 -0.76 0.06
1 4.84 484 0.800 -9.180 1.365 5.035 6.744 1.129 -84.695 2850.393 -3174.032 -1.527 -0.449 0.306 -0.01 0.64 -0.76 0.06
1 4.85 485 0.766 -9.223 1.144 6.592 6.470 1.038 -84.695 2925.344 -3174.032 -1.485 -0.406 0.533 -0.01 0.64 -0.76 0.06
1 4.86 486 0.986 -9.797 0.991 7.233 6.836 4.059 -84.695 2925.344 -3174.032 -1.698 0.170 0.694 -0 0.64 -0.76 0.06
1 4.87 487 0.948 -9.754 1.130 4.883 8.331 5.859 -39.724 2835.403 -3054.110 -1.654 0.127 0.562 -0 0.64 -0.76 0.06
1 4.88 488 1.082 -9.338 0.752 6.622 12.939 6.348 -204.767 2805.422 -3099.081 -1.784 -0.288 0.947 -0 0.64 -0.76 0.06
1 4.89 489 1.006 -9.055 0.603 8.850 16.419 7.690 -204.767 2805.422 -3099.081 -1.707 -0.570 1.100 -0 0.64 -0.76 0.06
1 4.90 490 0.733 -8.821 0.393 5.402 20.996 9.888 -189.776 2715.331 -3114.071 -1.437 -0.804 1.316 -0 0.64 -0.76 0.06
1 4.91 491 0.335 -9.050 0.225 -4.486 25.543 13.031 -129.666 2805.422 -3174.032 -1.050 -0.574 1.479 -0 0.64 -0.76 0.06
1 4.92 492 -0.283 -9.754 0.081 -19.501 31.738 15.930 -54.714 2775.442 -2919.048 -0.450 0.128 1.600 0 0.64 -0.76 0.06
1 4.93 493 -0.934 -9.970 0.034 -22.888 32.166 16.052 -54.714 2775.442 -2919.048 0.176 0.338 1.608 0 0.65 -0.76 0.06
1 4.94 494 -1.216 -10.257 -0.005 -21.118 28.778 15.900 -84.695 2850.393 -3174.032 0.431 0.620 1.599 0.01 0.65 -0.76 0.06
1 4.95 495 -1.542 -10.559 0.201 -16.296 24.841 16.846 -114.675 2940.334 -3189.022 0.725 0.916 1.347 0.01 0.65 -0.76 0.06
1 4.96 496 -1.834 -10.578 0.374 -13.306 17.761 20.050 -114.675 2940.334 -3189.022 0.947 0.930 1.101 0.01 0.65 -0.76 0.06
1 4.97 497 -1.963 -10.770 0.407 -13.214 13.886 21.668 -69.705 2835.403 -3114.071 1.036 1.121 1.038 0.01 0.65 -0.76 0.06
1 4.98 498 -1.834 -10.453 0.211 -14.710 11.475 21.912 95.188 2775.442 -3024.130 0.869 0.805 1.209 0.02 0.65 -0.75 0.06
1 4.99 499 -1.681 -10.468 0.110 -14.496 7.751 20.630 125.168 3000.445 -3024.130 0.679 0.819 1.282 0.02 0.65 -0.75 0.06
1 5.00 500 -1.403 -10.559 0.000 -11.932 3.723 17.731 125.168 3000.445 -3024.130 0.366 0.909 1.361 0.02 0.66 -0.75 0.06
1 5.01 501 -1.149 -10.473 -0.148 -12.146 2.228 17.731 125.168 2850.393 -3069.101 0.082 0.822 1.480 0.02 0.66 -0.75 0.06
1 5.02 502 -0.986 -10.358 -0.464 -12.878 2.075 18.280 125.168 2805.422 -2994.149 -0.108 0.707 1.768 0.02 0.66 -0.75 0.06
1 5.03 503 -0.642 -10.104 -0.579 -13.672 2.716 18.341 125.168 2805.422 -2994.149 -0.503 0.451 1.821 0.02 0.66 -0.75 0.06
1 5.04 504 -0.412 -10.018 0.010 -14.618 4.334 17.822 20.087 2850.393 -3144.052 -0.756 0.363 1.198 0.02 0.66 -0.75 0.06
1 5.05 505 -0.431 -10.396 2.524 -16.693 7.019 16.998 95.188 3000.445 -2964.169 -0.758 0.740 -1.349 0.02 0.66 -0.75 0.06
1 5.06 506 -1.575 -13.312 3.237 -21.607 15.167 9.399 95.188 3000.445 -2964.169 0.369 3.656 -2.082 0.03 0.66 -0.74 0.06
1 5.07 507 -4.334 -15.730 3.184 -56.641 15.533 -22.461 290.211 2985.455 -3054.110 3.118 6.070 -2.074 0.03 0.67 -0.74 0.06
1 5.08 508 -4.578 -14.998 1.987 -11.047 -20.416 -32.501 170.139 2895.364 -3024.130 3.386 5.325 -0.962 0.03 0.67 -0.74 0.06
1 5.09 509 -3.060 -12.809 2.150 38.788 -50.934 -32.166 125.168 2925.344 -3024.130 1.917 3.127 -1.159 0.02 0.67 -0.74 0.06
1 5.10 510 -0.254 -9.256 2.859 51.911 -44.068 -22.064 125.168 2925.344 -3024.130 -0.783 -0.423 -1.728 0.02 0.66 -0.74 0.06
1 5.11 511 0.374 -8.600 2.844 24.994 -16.419 -19.928 50.217 2970.315 -2994.149 -1.367 -1.073 -1.626 0.01 0.66 -0.75 0.06
1 5.12 512 0.536 -8.892 2.926 -13.825 7.599 -16.541 35.077 2940.334 -3054.110 -1.490 -0.780 -1.669 0.01 0.66 -0.75 0.06
1 5.13 513 0.728 -9.170 2.792 -37.537 16.480 -12.329 35.077 2940.334 -3054.110 -1.649 -0.508 -1.554 0.01 0.66 -0.75 0.06
1 5.14 514 1.025 -9.663 3.175 -37.537 16.968 -9.827 -9.744 2850.393 -3024.130 -1.920 -0.023 -1.984 0.01 0.66 -0.75 0.06
1 5.15 515 0.809 -10.090 3.874 -16.083 20.233 -10.223 35.077 2790.432 -2904.058 -1.678 0.396 -2.721 0.01 0.66 -0.75 0.06
1 5.16 516 0.225 -9.960 4.324 5.005 27.832 -11.658 -9.744 2925.344 -3024.130 -1.067 0.263 -3.186 0.01 0.66 -0.75 0.05
1 5.17 517 -0.771 -9.812 3.893 24.506 33.783 -13.306 -9.744 2925.344 -3024.130 -0.058 0.113 -2.757 0.01 0.66 -0.75 0.05
1 5.18 518 -1.829 -9.721 2.926 26.337 31.098 -17.578 50.217 3000.445 -2994.149 1.033 0.031 -1.692 0.01 0.66 -0.75 0.05
1 5.19 519 -2.145 -9.405 2.830 13.794 20.142 -20.355 5.097 3105.377 -2979.159 1.366 -0.280 -1.551 0.01 0.66 -0.75 0.04
1 5.20 520 -2.117 -9.611 2.720 2.350 8.545 -21.607 5.097 3105.377 -2979.159 1.355 -0.072 -1.414 0.01 0.66 -0.75 0.04
1 5.21 521 -2.208 -9.869 2.629 -4.334 2.960 -17.792 5.097 3060.406 -2874.078 1.466 0.187 -1.311 0.01 0.66 -0.75 0.04
1 5.22 522 -2.706 -10.080 2.303 -9.613 6.744 -3.815 20.087 3000.445 -3024.130 1.978 0.397 -0.982 0.01 0.66 -0.75 0.04
1 5.23 523 -2.969 -9.817 2.212 -10.040 9.430 7.599 20.087 2970.315 -2889.068 2.238 0.133 -0.896 0.01 0.66 -0.75 0.04
1 5.24 524 -2.888 -9.419 2.002 -6.622 6.805 17.578 20.087 2970.315 -2889.068 2.134 -0.264 -0.693 0.01 0.66 -0.75 0.04
1 5.25 525 -2.868 -8.509 2.030 0.153 -1.404 21.942 110.178 2940.334 -2874.078 2.027 -1.167 -0.725 0.02 0.66 -0.75 0.04
1 5.26 526 -2.605 -7.916 1.915 0.916 -4.334 21.607 20.087 3000.445 -2994.149 1.716 -1.755 -0.602 0.02 0.66 -0.75 0.05
1 5.27 527 -2.619 -7.595 1.935 1.678 -2.747 19.989 20.087 3000.445 -2994.149 1.692 -2.072 -0.614 0.02 0.66 -0.75 0.05
1 5.28 528 -2.562 -7.494 1.872 0.183 0.732 20.111 -39.724 2910.354 -2979.159 1.607 -2.169 -0.548 0.02 0.66 -0.75 0.05
1 5.29 529 -2.624 -7.508 1.820 -3.235 2.838 21.332 80.198 2985.455 -3054.110 1.640 -2.152 -0.496 0.02 0.66 -0.75 0.05
1 5.30 530 -2.610 -7.676 1.528 -11.566 0.244 23.407 -9.744 2925.344 -2994.149 1.593 -1.982 -0.210 0.02 0.66 -0.75 0.05
1 5.31 531 -2.366 -7.901 1.437 -16.541 -3.571 20.142 -9.744 2925.344 -2994.149 1.315 -1.755 -0.133 0.02 0.66 -0.75 0.05
1 5.32 532 -1.915 -8.447 1.374 -19.135 -9.369 14.160 80.198 2985.455 -2979.159 0.811 -1.209 -0.117 0.03 0.66 -0.75 0.06
1 5.33 533 -1.475 -8.806 1.389 -19.440 -11.536 11.475 155.149 2985.455 -2979.159 0.354 -0.851 -0.157 0.03 0.66 -0.75 0.06
1 5.34 534 -1.006 -9.141 1.441 -16.937 -11.200 9.827 155.149 2985.455 -2979.159 -0.134 -0.517 -0.233 0.03 0.66 -0.75 0.06
1 5.35 535 -0.824 -9.204 1.370 -12.054 -8.026 8.728 -54.714 2850.393 -2919.048 -0.328 -0.455 -0.179 0.03 0.66 -0.75 0.06
1 5.36 536 -0.666 -8.835 1.331 4.028 1.526 7.080 185.129 2910.354 -2874.078 -0.495 -0.824 -0.150 0.03 0.66 -0.75 0.06
1 5.37 537 -0.795 -8.461 1.192 13.062 7.416 4.547 110.178 3060.406 -2934.039 -0.373 -1.196 -0.007 0.03 0.66 -0.75 0.06
1 5.38 538 -1.135 -8.112 0.848 16.571 11.200 2.075 110.178 3060.406 -2934.039 -0.039 -1.543 0.356 0.03 0.66 -0.75 0.06
1 5.39 539 -1.413 -7.978 0.814 12.573 12.024 -1.495 110.178 3135.357 -2829.107 0.233 -1.673 0.412 0.03 0.66 -0.75 0.06
1 5.40 540 -1.609 -8.126 0.742 -3.021 7.874 -6.073 20.087 3120.367 -2919.048 0.434 -1.522 0.510 0.03 0.66 -0.75 0.06
1 5.41 541 -1.451 -8.346 0.608 -13.825 4.303 -8.850 20.087 3120.367 -2919.048 0.285 -1.304 0.635 0.03 0.66 -0.75 0.06
1 5.42 542 -1.322 -8.864 0.570 -19.379 1.465 -10.437 170.139 3075.396 -3069.101 0.170 -0.792 0.651 0.03 0.66 -0.75 0.06
1 5.43 543 -1.245 -9.189 0.761 -19.165 1.160 -12.329 80.198 2940.334 -2934.039 0.109 -0.472 0.429 0.03 0.66 -0.75 0.06
1 5.44 544 -1.312 -9.175 0.623 -7.507 2.045 -15.808 170.139 3150.348 -2964.169 0.194 -0.491 0.540 0.03 0.66 -0.75 0.06
1 5.45 545 -1.441 -8.912 0.445 1.404 2.472 -16.998 170.139 3150.348 -2964.169 0.345 -0.759 0.701 0.02 0.66 -0.75 0.06
1 5.46 546 -1.499 -8.619 0.445 5.066 1.465 -16.693 125.168 2970.315 -2919.048 0.425 -1.054 0.697 0.02 0.66 -0.75 0.06
1 5.47 547 -1.422 -8.385 0.575 -5.157 -1.068 -17.670 185.129 2985.455 -2979.159 0.398 -1.294 0.573 0.02 0.66 -0.75 0.05
1 5.48 548 -1.484 -8.466 0.508 -13.580 -0.824 -17.792 185.129 2985.455 -2979.159 0.487 -1.216 0.630 0.02 0.66 -0.75 0.05
1 5.49 549 -1.590 -8.404 0.498 -19.959 -0.061 -16.541 35.077 3135.357 -2934.039 0.619 -1.284 0.617 0.02 0.67 -0.74 0.05
1 5.50 550 -1.719 -8.624 0.546 -21.912 1.862 -15.259 35.077 3135.357 -2934.039 0.773 -1.069 0.540 0.02 0.67 -0.74 0.05
1 5.51 551 -1.954 -9.070 0.426 -20.630 2.808 -15.411 80.198 2940.334 -2874.078 1.031 -0.630 0.628 0.02 0.67 -0.74 0.05
1 5.52 552 -2.385 -9.381 0.522 -19.165 2.045 -16.541 80.198 2940.334 -2874.078 1.477 -0.324 0.498 0.02 0.67 -0.74 0.05
1 5.53 553 -2.476 -9.673 0.374 -17.029 -1.648 -17.883 155.449 3180.628 -2829.557 1.583 -0.036 0.615 0.02 0.67 -0.74 0.05
1 5.54 554 -2.548 -10.094 0.311 -12.878 -11.169 -17.639 -9.444 3120.517 -2844.547 1.686 0.377 0.624 0.02 0.67 -0.74 0.05
1 5.55 555 -2.198 -10.219 0.335 -11.963 -16.724 -15.198 -9.444 3120.517 -2844.547 1.352 0.498 0.579 0.02 0.67 -0.74 0.05
1 5.56 556 -1.686 -10.257 0.460 -11.841 -19.501 -11.108 -9.444 3150.647 -2844.547 0.853 0.534 0.435 0.01 0.67 -0.74 0.05
1 5.57 557 -1.231 -10.372 0.508 -12.024 -19.898 -6.836 -9.444 3150.647 -2844.547 0.409 0.646 0.370 0.01 0.67 -0.74 0.05
1 5.58 558 -0.886 -10.506 0.694 -10.651 -14.984 -2.808 -114.525 3105.527 -2904.508 0.073 0.778 0.166 0.01 0.68 -0.74 0.05
1 5.59 559 -0.929 -11.109 0.843 -5.707 -5.005 2.747 -114.525 3105.527 -2904.508 0.121 1.380 0.003 0.01 0.68 -0.74 0.05
1 5.60 560 -1.173 -11.564 0.867 -2.563 1.556 6.256 -69.405 3180.628 -2799.576 0.364 1.834 -0.030 0.01 0.68 -0.73 0.05
1 5.61 561 -1.475 -12.005 0.747 1.740 3.052 8.240 5.396 3180.628 -2754.605 0.658 2.275 0.086 0.01 0.68 -0.73 0.05
1 5.62 562 -2.059 -12.125 0.565 10.071 -0.885 7.141 5.396 3180.628 -2754.605 1.220 2.397 0.278 0.01 0.68 -0.74 0.05
1 5.63 563 -2.169 -12.106 0.359 15.137 -5.341 5.066 -54.415 3225.599 -2964.469 1.321 2.380 0.502 0.01 0.68 -0.74 0.05
1 5.64 564 -1.973 -11.962 0.105 17.944 -8.331 4.089 -54.415 3225.599 -2964.469 1.120 2.240 0.782 0.01 0.67 -0.74 0.05
1 5.65 565 -1.676 -11.727 0.005 16.754 -8.331 3.052 -54.415 3150.647 -2844.547 0.819 2.008 0.911 0.01 0.67 -0.74 0.05
1 5.66 566 -1.551 -11.919 -0.120 10.559 -5.493 4.425 -54.415 3150.647 -2844.547 0.692 2.202 1.062 0.01 0.67 -0.74 0.05
1 5.67 567 -1.767 -12.331 0.101 6.531 -0.580 6.775 -69.405 3210.608 -2874.527 0.903 2.616 0.861 0.01 0.67 -0.74 0.06
1 5.68 568 -1.872 -13.317 0.488 1.007 1.678 11.780 35.377 3135.507 -3054.560 1.000 3.605 0.486 0.01 0.67 -0.74 0.06
1 5.69 569 -1.647 -14.562 0.680 -4.578 3.326 24.139 35.377 3135.507 -3054.560 0.734 4.854 0.296 0.01 0.67 -0.74 0.06
1 5.70 570 -1.528 -14.466 0.172 6.714 2.502 24.658 35.377 3060.556 -2934.488 0.577 4.761 0.800 0.01 0.67 -0.74 0.06
1 5.71 571 -1.465 -13.518 0.206 26.184 7.965 14.923 35.377 3060.556 -2934.488 0.481 3.818 0.784 0.01 0.67 -0.74 0.06
1 5.72 572 -1.374 -12.580 -0.139 40.283 12.421 8.087 -39.424 3285.560 -2829.557 0.370 2.886 1.174 0.02 0.67 -0.74 0.06
1 5.73 573 -1.307 -11.813 -0.297 38.666 10.620 4.486 -39.424 3285.560 -2829.557 0.291 2.128 1.392 0.02 0.67 -0.74 0.06
1 5.74 574 -1.341 -11.368 0.029 21.362 7.507 -1.617 20.387 3120.517 -3024.580 0.319 1.689 1.121 0.02 0.66 -0.75 0.06
1 5.75 575 -1.556 -11.430 0.431 12.421 7.690 -2.716 50.367 3195.618 -2964.469 0.536 1.756 0.755 0.02 0.66 -0.75 0.06
1 5.76 576 -1.777 -10.889 1.097 11.719 7.904 -1.404 50.367 3195.618 -2964.469 0.762 1.219 0.127 0.02 0.66 -0.75 0.06
1 5.77 577 -2.002 -10.224 1.365 16.785 4.517 -3.082 125.318 3120.517 -3099.531 0.989 0.556 -0.122 0.02 0.66 -0.75 0.06
1 5.78 578 -2.097 -9.548 1.882 20.325 -2.258 -7.507 125.318 3120.517 -3099.531 1.088 -0.116 -0.612 0.02 0.66 -0.75 0.06
1 5.79 579 -2.179 -8.979 2.236 21.668 -9.522 -12.695 -54.415 3120.517 -2964.469 1.177 -0.682 -0.931 0.02 0.66 -0.75 0.06
1 5.80 580 -2.203 -8.169 3.189 26.856 -14.893 -13.489 5.396 3210.608 -2934.488 1.214 -1.487 -1.842 0.02 0.66 -0.75 0.06
1 5.81 581 -2.251 -7.633 3.788 30.396 -18.189 -8.728 110.328 3210.608 -3009.589 1.277 -2.017 -2.387 0.02 0.65 -0.75 0.06
1 5.82 582 -2.231 -6.982 4.046 30.548 -22.369 -4.852 20.387 3150.647 -3024.580 1.267 -2.660 -2.582 0.01 0.65 -0.76 0.06
1 5.83 583 -1.853 -6.292 4.324 31.799 -26.215 -2.838 20.387 3150.647 -3024.580 0.903 -3.343 -2.810 0.01 0.65 -0.76 0.06
1 5.84 584 -1.006 -5.569 4.367 33.325 -34.393 0.824 80.348 3135.507 -2934.488 0.077 -4.051 -2.747 0.01 0.65 -0.76 0.06
1 5.85 585 -0.335 -5.555 3.989 28.656 -35.004 4.822 80.348 3135.507 -2934.488 -0.586 -4.057 -2.314 0.01 0.64 -0.76 0.06
1 5.86 586 0.369 -5.674 3.630 16.968 -31.036 10.468 50.367 3225.599 -3219.603 -1.289 -3.929 -1.910 0.01 0.64 -0.76 0.07
1 5.87 587 0.804 -6.240 3.644 -3.479 -22.858 11.597 -9.444 3075.546 -3219.603 -1.733 -3.359 -1.901 0.01 0.64 -0.76 0.07
1 5.88 588 0.991 -8.011 3.740 -40.558 -2.075 9.644 35.377 2865.533 -3114.521 -1.931 -1.589 -2.008 0 0.64 -0.76 0.07
1 5.89 589 0.441 -9.534 3.850 -53.559 10.681 10.254 5.396 3060.556 -3189.472 -1.392 -0.073 -2.167 0 0.64 -0.76 0.07
1 5.90 590 -0.364 -11.047 3.730 -49.103 14.862 11.414 5.396 3060.556 -3189.472 -0.590 1.430 -2.106 0 0.65 -0.76 0.07
1 5.91 591 -1.441 -11.459 3.582 -7.996 -3.784 5.768 35.377 3105.527 -3054.560 0.457 1.826 -2.074 0.01 0.65 -0.76 0.07
1 5.92 592 -1.408 -10.655 3.630 24.078 -17.761 -2.258 35.377 3105.527 -3054.560 0.420 1.022 -2.119 0.01 0.65 -0.76 0.07
1 5.93 593 -1.259 -9.515 3.515 40.711 -24.414 -5.798 95.338 3120.517 -3144.501 0.282 -0.111 -1.956 0 0.65 -0.76 0.07
1 5.94 594 -1.001 -8.806 3.548 37.109 -24.384 -1.892 -54.415 3195.618 -3099.531 0.036 -0.808 -1.911 0 0.65 -0.76 0.07
1 5.95 595 -0.603 -8.222 3.194 8.331 -21.423 7.935 20.387 3120.517 -3069.550 -0.356 -1.381 -1.488 0 0.64 -0.76 0.07
1 5.96 596 -0.464 -8.366 2.888 -9.644 -22.858 11.231 -54.415 3045.566 -3069.550 -0.497 -1.230 -1.143 0 0.64 -0.76 0.07
1 5.97 597 -0.254 -8.739 2.586 -18.066 -24.536 7.843 -54.415 3045.566 -3069.550 -0.715 -0.855 -0.839 0 0.64 -0.76 0.08
1 5.98 598 -0.043 -9.184 2.208 -13.275 -21.301 4.211 -9.444 3150.647 -3174.482 -0.923 -0.415 -0.486 -0 0.64 -0.76 0.08
1 5.99 599 -0.101 -9.352 1.939 -3.265 -17.975 4.883 -9.444 3150.647 -3174.482 -0.859 -0.249 -0.225 -0 0.64 -0.76 0.08
1 6.00 600 -0.479 -9.242 1.465 4.456 -15.350 6.561 -55.164 3044.816 -3277.315 -0.477 -0.359 0.253 -0 0.64 -0.76 0.08
1 6.01 601 -0.532 -9.161 1.379 6.134 -13.702 8.301 -55.164 3044.816 -3067.452 -0.425 -0.438 0.351 -0.01 0.64 -0.76 0.08
1 6.02 602 -0.637 -8.993 1.322 1.831 -13.977 10.101 94.588 3194.869 -3172.383 -0.325 -0.603 0.418 -0.01 0.64 -0.76 0.08
1 6.03 603 -0.527 -8.749 0.881 -6.836 -15.137 11.627 -55.164 3119.917 -3217.354 -0.445 -0.846 0.860 -0.01 0.64 -0.76 0.08
1 6.04 604 -0.330 -8.816 0.838 -9.430 -17.304 12.054 -55.164 3119.917 -3217.354 -0.652 -0.780 0.895 -0.01 0.64 -0.76 0.09
1 6.05 605 -0.053 -9.031 0.939 -8.301 -18.555 11.993 -70.304 3209.859 -3082.442 -0.941 -0.565 0.782 -0.01 0.64 -0.76 0.09
1 6.06 606 0.402 -9.314 1.010 -2.350 -14.496 12.573 -70.304 3209.859 -3082.442 -1.409 -0.285 0.688 -0.01 0.64 -0.76 0.09
1 6.07 607 0.484 -9.184 1.183 2.533 -10.345 13.306 -160.246 3149.898 -3097.432 -1.496 -0.415 0.513 -0.01 0.64 -0.76 0.09
1 6.08 608 0.637 -8.940 1.058 4.913 -6.439 11.963 -40.174 3104.777 -3007.341 -1.655 -0.657 0.641 -0.01 0.64 -0.76 0.09
1 6.09 609 0.848 -8.500 0.934 6.165 -1.892 9.613 -70.304 3179.878 -3112.422 -1.869 -1.097 0.772 -0.01 0.64 -0.76 0.09
1 6.10 610 0.939 -8.351 0.613 4.272 0.854 9.552 -85.294 3149.898 -3067.452 -1.967 -1.243 1.101 -0.01 0.64 -0.76 0.09
1 6.11 611 0.804 -8.342 0.455 0.427 4.791 11.780 -85.294 3149.898 -3067.452 -1.846 -1.249 1.267 -0.01 0.64 -0.76 0.09
1 6.12 612 0.848 -8.141 0.335 -6.348 9.155 16.602 4.647 3104.777 -3082.442 -1.906 -1.448 1.389 -0.01 0.64 -0.76 0.09
1 6.13 613 0.876 -7.983 -0.024 -13.153 13.397 17.090 4.647 3104.777 -3082.442 -1.987 -1.605 1.725 -0.01 0.64 -0.76 0.09
1 6.14 614 1.111 -8.088 -0.546 -13.947 15.198 16.083 4.647 3134.908 -3157.393 -2.250 -1.500 2.225 -0 0.64 -0.76 0.09
1 6.15 615 1.173 -8.294 -0.421 -16.083 18.768 16.541 34.627 3059.807 -3082.442 -2.340 -1.294 2.078 -0 0.64 -0.76 0.09
1 6.16 616 0.919 -8.734 -0.306 -20.660 26.306 16.785 154.549 3104.777 -3157.393 -2.115 -0.855 1.936 -0 0.65 -0.76 0.09
1 6.17 617 0.479 -9.170 -0.230 -28.778 40.283 17.273 79.598 3134.908 -3082.442 -1.706 -0.422 1.822 0 0.65 -0.76 0.09
1 6.18 618 -0.512 -9.946 0.125 -29.816 45.868 16.846 79.598 3134.908 -3082.442 -0.735 0.347 1.408 0 0.65 -0.75 0.09
1 6.19 619 -1.235 -10.248 0.302 -24.994 44.281 15.381 34.627 3104.777 -3112.422 -0.037 0.642 1.169 0.01 0.65 -0.75 0.09
1 6.20 620 -1.992 -10.324 0.393 -12.726 29.724 12.146 34.627 3104.777 -3112.422 0.664 0.712 0.979 0.01 0.66 -0.75 0.09
1 6.21 621 -2.054 -10.128 0.340 -7.294 18.433 9.888 79.598 3179.878 -3082.442 0.701 0.515 1.003 0.02 0.66 -0.75 0.09
1 6.22 622 -1.777 -10.018 0.364 -5.371 10.162 8.606 94.588 3194.869 -3142.403 0.402 0.405 0.960 0.02 0.66 -0.75 0.09
1 6.23 623 -1.279 -9.869 0.034 -8.148 5.463 8.179 94.588 3194.869 -3142.403 -0.113 0.257 1.273 0.02 0.66 -0.75 0.09
1 6.24 624 -0.986 -10.319 -0.388 -15.198 7.690 9.277 79.598 3209.859 -3157.393 -0.417 0.706 1.672 0.02 0.66 -0.75 0.09
1 6.25 625 -1.149 -10.621 -0.627 -20.020 11.414 10.620 79.598 3209.859 -3157.393 -0.265 1.005 1.879 0.02 0.66 -0.75 0.09
1 6.26 626 -1.360 -10.956 -0.795 -22.583 14.160 11.231 274.621 3194.869 -3097.432 -0.067 1.337 2.005 0.02 0.66 -0.74 0.09
1 6.27 627 -1.619 -10.889 -0.953 -19.318 12.939 10.529 274.621 3194.869 -3097.432 0.175 1.267 2.121 0.02 0.66 -0.74 0.09
1 6.28 628 -1.690 -10.406 -1.140 -11.231 6.409 10.803 184.979 3105.077 -2873.028 0.212 0.782 2.252 0.02 0.67 -0.74 0.09
1 6.29 629 -1.269 -10.161 1.063 -9.277 3.845 15.015 184.979 3330.081 -3053.061 -0.227 0.537 0.016 0.02 0.67 -0.74 0.09
1 6.30 630 -1.829 -12.115 2.926 -14.771 11.322 19.226 184.979 3330.081 -3053.061 0.310 2.491 -1.869 0.03 0.67 -0.74 0.09
1 6.31 631 -4.267 -16.736 4.401 -48.584 36.194 -0.336 275.071 3315.090 -3023.081 2.721 7.113 -3.375 0.03 0.67 -0.74 0.09
1 6.32 632 -7.432 -17.521 2.840 -55.512 7.660 -39.642 275.071 3315.090 -3023.081 5.895 7.887 -1.915 0.03 0.67 -0.73 0.09
1 6.33 633 -5.876 -14.667 1.633 21.118 -50.232 -44.373 335.032 3285.110 -3053.061 4.390 5.015 -0.813 0.03 0.68 -0.73 0.08
1 6.34 634 -2.452 -11.119 2.136 60.272 -79.865 -35.797 335.032 3285.110 -3053.061 1.037 1.458 -1.303 0.02 0.68 -0.73 0.08
1 6.35 635 0.527 -9.443 2.246 28.839 -42.175 -20.233 275.071 3315.090 -2963.120 -1.820 -0.216 -1.215 0.01 0.67 -0.74 0.09
1 6.36 636 1.413 -9.673 2.231 -17.853 0.488 -7.355 184.979 3360.211 -3083.042 -2.663 0.012 -1.160 0.01 0.67 -0.74 0.09
1 6.37 637 1.757 -9.999 2.653 -46.662 30.335 0.214 184.979 3360.211 -3083.042 -2.983 0.331 -1.612 0.01 0.67 -0.74 0.08
1 6.38 638 1.891 -11.181 3.347 -57.465 44.739 2.686 110.028 3360.211 -3083.042 -3.102 1.505 -2.376 0.01 0.67 -0.74 0.08
1 6.39 639 1.001 -13.130 4.583 -45.166 46.753 0.641 320.042 3345.071 -2963.120 -2.221 3.446 -3.704 0.01 0.67 -0.73 0.08
1 6.40 640 0.326 -12.508 4.674 -14.069 42.572 -14.679 184.979 3285.110 -2903.009 -1.554 2.818 -3.876 0.01 0.68 -0.73 0.08
1 6.41 641 -0.388 -11.344 3.266 30.151 36.163 -34.393 184.979 3285.110 -2903.009 -0.830 1.650 -2.510 0.02 0.68 -0.73 0.07
1 6.42 642 -0.934 -9.936 2.270 69.000 30.335 -43.488 169.989 3420.172 -2917.999 -0.183 0.238 -1.413 0.02 0.68 -0.73 0.07
1 6.43 643 -1.379 -9.285 2.476 63.446 36.224 -33.386 50.067 3390.191 -2963.120 0.323 -0.410 -1.509 0.02 0.67 -0.74 0.06
1 6.44 644 -2.040 -9.012 2.322 38.574 37.628 -24.719 50.067 3390.191 -2963.120 1.023 -0.677 -1.263 0.02 0.67 -0.74 0.06
1 6.45 645 -2.610 -9.098 2.179 1.892 29.175 -20.172 169.989 3315.090 -2917.999 1.615 -0.588 -1.071 0.02 0.67 -0.74 0.06
1 6.46 646 -3.108 -9.390 1.815 -36.316 2.838 -14.740 335.032 3255.129 -3113.022 2.126 -0.298 -0.711 0.02 0.67 -0.74 0.05
1 6.47 647 -3.467 -10.003 1.829 -36.743 -10.620 -7.660 214.960 3405.182 -3083.042 2.493 0.310 -0.767 0.02 0.67 -0.74 0.05
1 6.48 648 -3.529 -9.735 2.011 -22.553 -13.397 2.319 214.960 3405.182 -3083.042 2.554 0.037 -0.997 0.02 0.67 -0.74 0.05
1 6.49 649 -3.424 -9.127 1.944 -0.397 -6.775 13.184 125.019 3345.071 -2993.100 2.434 -0.573 -0.961 0.02 0.67 -0.74 0.05
1 6.50 650 -3.702 -7.437 2.021 28.748 4.883 23.102 275.071 3495.123 -3068.051 2.633 -2.252 -1.004 0.02 0.67 -0.74 0.06
1 6.51 651 -3.840 -6.498 1.891 38.605 7.660 23.560 275.071 3495.123 -3068.051 2.726 -3.180 -0.824 0.02 0.67 -0.74 0.06
1 6.52 652 -3.845 -5.895 1.829 38.056 4.913 21.851 125.019 3345.071 -3068.051 2.696 -3.772 -0.703 0.03 0.66 -0.74 0.06
1 6.53 653 -3.505 -5.555 1.891 24.994 -0.214 22.095 154.999 3435.162 -3083.042 2.324 -4.102 -0.713 0.03 0.66 -0.75 0.06
1 6.54 654 -3.002 -6.091 1.777 -8.972 -6.470 21.942 350.022 3315.090 -3068.051 1.789 -3.558 -0.567 0.03 0.66 -0.75 0.06
1 6.55 655 -2.739 -6.723 1.666 -31.616 -9.796 19.562 350.022 3315.090 -3068.051 1.495 -2.922 -0.459 0.03 0.66 -0.75 0.06
1 6.56 656 -2.524 -7.614 1.604 -45.349 -10.681 15.961 290.061 3210.159 -3083.042 1.252 -2.032 -0.433 0.03 0.66 -0.75 0.06
1 6.57 657 -2.045 -9.103 1.489 -46.295 -12.604 12.878 275.071 3315.090 -2993.100 0.731 -0.552 -0.446 0.03 0.67 -0.74 0.07
1 6.58 658 -1.575 -9.807 1.628 -37.018 -12.207 11.414 275.071 3315.090 -2993.100 0.239 0.149 -0.643 0.03 0.67 -0.74 0.07
1 6.59 659 -0.986 -10.128 1.484 -24.109 -9.338 9.949 184.979 3330.081 -3083.042 -0.367 0.468 -0.542 0.03 0.67 -0.74 0.07
1 6.60 660 -0.804 -9.912 1.226 -9.399 -7.111 7.202 184.979 3255.129 -2978.110 -0.559 0.251 -0.306 0.03 0.67 -0.74 0.07
1 6.61 661 -0.388 -9.175 1.073 12.085 -6.073 1.099 259.931 3480.133 -2978.110 -0.979 -0.486 -0.156 0.03 0.67 -0.74 0.07
1 6.62 662 -0.383 -8.629 0.977 18.738 -5.585 -3.784 259.931 3480.133 -2978.110 -0.978 -1.031 -0.043 0.03 0.67 -0.74 0.07
1 6.63 663 -0.503 -8.174 0.982 16.480 -3.326 -7.660 275.071 3345.071 -3098.032 -0.845 -1.485 -0.018 0.03 0.67 -0.74 0.07
1 6.64 664 -0.886 -8.069 1.144 2.411 1.007 -11.963 244.940 3315.090 -3068.051 -0.435 -1.589 -0.136 0.03 0.67 -0.74 0.07
1 6.65 665 -1.068 -8.327 1.235 -7.416 2.686 -13.702 244.940 3315.090 -3068.051 -0.233 -1.333 -0.227 0.03 0.67 -0.74 0.07
1 6.66 666 -1.111 -8.586 1.073 -12.970 2.136 -15.747 259.931 3330.081 -2978.110 -0.168 -1.079 -0.077 0.03 0.67 -0.74 0.07
1 6.67 667 -1.336 -9.084 0.958 -12.634 0.854 -17.029 125.019 3390.191 -3023.081 0.081 -0.586 0.019 0.02 0.67 -0.74 0.07
1 6.68 668 -1.456 -9.094 0.752 -5.341 2.655 -18.005 290.061 3330.081 -3053.061 0.226 -0.581 0.209 0.02 0.67 -0.74 0.07
1 6.69 669 -1.762 -8.950 0.690 1.282 5.157 -16.937 290.061 3330.081 -3053.061 0.557 -0.729 0.262 0.02 0.67 -0.74 0.07
1 6.70 670 -1.853 -8.591 0.546 3.845 5.920 -15.900 244.940 3420.172 -2993.100 0.670 -1.091 0.405 0.02 0.67 -0.74 0.07
1 6.71 671 -1.997 -8.418 0.359 -0.427 4.272 -15.289 199.970 3315.090 -2917.999 0.832 -1.265 0.595 0.02 0.67 -0.74 0.06
1 6.72 672 -1.853 -8.366 0.297 -12.878 -0.031 -14.435 199.970 3315.090 -2917.999 0.734 -1.324 0.650 0.02 0.67 -0.74 0.06
1 6.73 673 -1.915 -8.763 0.484 -20.844 -2.075 -13.886 272.672 3567.226 -3137.456 0.819 -0.931 0.442 0.02 0.67 -0.74 0.06
1 6.74 674 -1.858 -9.433 0.623 -24.750 -3.632 -14.160 92.640 3462.145 -2987.404 0.780 -0.266 0.271 0.02 0.67 -0.74 0.06
1 6.75 675 -2.050 -9.999 0.785 -23.102 -4.303 -14.191 122.620 3462.145 -3017.384 0.987 0.294 0.071 0.02 0.68 -0.73 0.06
1 6.76 676 -2.198 -10.415 0.986 -11.231 -4.700 -13.336 122.620 3462.145 -3017.384 1.151 0.706 -0.162 0.02 0.68 -0.73 0.06
1 6.77 677 -2.227 -10.329 0.776 -1.495 -6.256 -12.756 122.620 3567.226 -2957.423 1.195 0.617 0.031 0.02 0.68 -0.73 0.06
1 6.78 678 -2.433 -10.343 0.608 6.622 -9.583 -10.590 197.721 3492.275 -2957.423 1.413 0.630 0.195 0.02 0.68 -0.73 0.06
1 6.79 679 -2.423 -10.281 0.747 6.805 -15.320 -7.050 197.721 3492.275 -2957.423 1.419 0.568 0.079 0.01 0.68 -0.73 0.06
1 6.80 680 -2.457 -10.382 0.895 1.404 -16.235 -4.730 2.698 3477.135 -3002.394 1.455 0.669 -0.059 0.01 0.68 -0.73 0.06
1 6.81 681 -2.476 -10.401 1.015 -4.028 -16.754 -3.540 17.688 3462.145 -2882.472 1.474 0.688 -0.176 0.01 0.68 -0.73 0.06
1 6.82 682 -2.409 -10.669 0.814 -4.334 -17.090 -1.251 17.688 3462.145 -2882.472 1.404 0.956 0.022 0.01 0.68 -0.73 0.06
1 6.83 683 -2.480 -10.655 0.608 1.862 -17.426 2.197 2.698 3402.184 -3077.345 1.480 0.942 0.226 0.01 0.68 -0.73 0.06
1 6.84 684 -2.351 -10.530 0.541 7.050 -18.494 4.852 2.698 3432.164 -3047.365 1.351 0.817 0.298 0.01 0.68 -0.73 0.07
1 6.85 685 -2.227 -10.406 0.364 8.881 -19.013 5.127 77.649 3552.236 -3047.365 1.223 0.694 0.487 0.01 0.68 -0.73 0.07
1 6.86 686 -1.676 -10.511 0.062 4.669 -20.386 8.148 77.649 3552.236 -3047.365 0.648 0.804 0.814 0.01 0.67 -0.73 0.07
1 6.87 687 -1.575 -11.042 -0.101 1.007 -21.027 9.277 2.698 3597.207 -3002.394 0.534 1.338 0.981 0.01 0.67 -0.73 0.07
1 6.88 688 -1.389 -11.684 -0.034 -2.594 -20.264 10.040 2.698 3597.207 -3107.476 0.336 1.981 0.918 0.01 0.67 -0.73 0.07
1 6.89 689 -1.197 -12.302 0.053 -1.465 -17.700 9.003 2.698 3597.207 -3107.476 0.134 2.600 0.833 0.01 0.67 -0.73 0.07
1 6.90 690 -1.298 -12.536 0.048 9.125 -12.329 7.935 77.649 3552.236 -3152.446 0.224 2.836 0.841 0 0.67 -0.73 0.08
1 6.91 691 -1.144 -12.120 -0.244 21.210 -11.902 5.981 77.649 3477.135 -3077.345 0.062 2.422 1.146 0 0.67 -0.73 0.08
1 6.92 692 -1.221 -11.655 -0.105 30.945 -11.780 7.080 2.698 3627.187 -3107.476 0.131 1.961 1.038 0 0.67 -0.74 0.08
1 6.93 693 -1.403 -11.737 0.239 33.051 -8.820 13.245 2.698 3627.187 -3107.476 0.306 2.048 0.739 0 0.67 -0.74 0.08
1 6.94 694 -1.465 -11.775 0.747 19.898 0.549 18.372 92.640 3462.145 -3062.355 0.330 2.101 0.327 0.01 0.67 -0.74 0.08
1 6.95 695 -1.642 -11.823 0.316 13.184 3.448 15.991 2.698 3552.236 -3107.476 0.481 2.155 0.785 0.01 0.67 -0.74 0.08
1 6.96 696 -1.470 -11.885 -0.038 15.900 2.258 11.658 2.698 3552.236 -3107.476 0.287 2.222 1.159 0.01 0.67 -0.74 0.08
1 6.97 697 -1.240 -11.675 -0.024 23.773 2.777 7.599 32.679 3552.236 -3227.397 0.042 2.016 1.172 0.01 0.66 -0.74 0.08
1 6.98 698 -0.819 -10.837 0.302 30.182 8.606 1.099 47.669 3417.174 -3092.335 -0.388 1.184 0.885 0.01 0.66 -0.74 0.08
1 6.99 699 -0.551 -10.535 0.326 25.940 12.146 -1.190 32.679 3552.236 -3302.349 -0.660 0.888 0.906 0.01 0.66 -0.75 0.08
1 7.00 700 -0.575 -10.501 0.503 17.700 16.815 -2.747 32.679 3552.236 -3302.349 -0.634 0.859 0.764 0.01 0.66 -0.75 0.08
1 7.01 701 -0.718 -10.425 0.527 10.559 24.506 -6.989 167.591 3492.275 -3167.437 -0.475 0.785 0.770 0.01 0.66 -0.75 0.08
1 7.02 702 -0.737 -10.214 0.608 13.672 25.665 -9.583 17.688 3492.275 -3347.469 -0.445 0.573 0.695 0.01 0.66 -0.75 0.08
1 7.03 703 -0.929 -9.764 0.891 19.226 25.208 -10.315 17.688 3492.275 -3347.469 -0.239 0.123 0.425 0.01 0.66 -0.75 0.08
1 7.04 704 -1.106 -9.098 1.322 22.339 23.377 -11.810 77.649 3357.213 -3332.479 -0.049 -0.541 0.018 0.01 0.66 -0.75 0.07
1 7.05 705 -1.212 -8.399 1.513 21.851 18.005 -15.350 32.679 3282.262 -3332.479 0.071 -1.237 -0.144 0.01 0.66 -0.75 0.07
1 7.06 706 -1.633 -7.901 2.126 17.059 12.787 -19.562 107.630 3357.213 -3302.349 0.509 -1.733 -0.726 0.01 0.65 -0.75 0.07
1 7.07 707 -1.638 -7.705 2.686 13.428 7.538 -22.522 107.630 3357.213 -3302.349 0.539 -1.928 -1.260 0.01 0.65 -0.75 0.07
1 7.08 708 -1.997 -7.283 3.477 9.155 -4.395 -22.522 32.679 3402.184 -3302.349 0.965 -2.351 -2.012 0.01 0.65 -0.76 0.07
1 7.09 709 -1.853 -6.848 4.027 8.209 -13.977 -20.294 77.649 3477.135 -3407.430 0.855 -2.788 -2.547 0.01 0.65 -0.76 0.06
1 7.10 710 -1.408 -6.747 4.276 10.071 -23.193 -17.578 77.649 3477.135 -3407.430 0.444 -2.890 -2.780 0.01 0.65 -0.76 0.06
1 7.11 711 -0.972 -6.345 4.473 15.808 -30.121 -13.306 -12.142 3342.223 -3497.372 0.039 -3.292 -2.955 0.01 0.65 -0.76 0.06
1 7.12 712 -0.263 -6.072 4.080 20.569 -33.386 -5.798 89.492 3339.075 -3564.228 -0.644 -3.562 -2.531 0.01 0.65 -0.76 0.07
1 7.13 713 -0.029 -6.340 3.821 14.343 -26.611 2.197 44.521 3264.124 -3309.244 -0.859 -3.290 -2.236 0 0.65 -0.76 0.07
1 7.14 714 0.177 -6.963 3.826 -2.930 -18.768 8.881 44.521 3264.124 -3309.244 -1.057 -2.663 -2.211 0 0.65 -0.76 0.07
1 7.15 715 0.196 -8.337 3.807 -31.098 -6.409 13.153 -60.261 3489.127 -3564.228 -1.081 -1.287 -2.185 0 0.65 -0.76 0.07
1 7.16 716 -0.972 -11.502 3.951 -68.085 11.108 23.285 -45.271 3354.065 -3429.316 0.053 1.866 -2.420 0 0.65 -0.76 0.07
1 7.17 717 -1.877 -13.197 3.663 -65.369 10.559 28.412 -45.271 3354.065 -3429.316 0.920 3.549 -2.236 0 0.65 -0.75 0.07
1 7.18 718 -2.380 -13.437 3.515 -29.938 -2.289 24.628 29.531 3354.065 -3399.335 1.379 3.781 -2.174 0 0.66 -0.75 0.07
1 7.19 719 -2.370 -12.024 3.510 19.379 -16.846 12.573 14.541 3309.094 -3339.375 1.340 2.368 -2.192 0 0.66 -0.75 0.07
1 7.20 720 -1.484 -9.592 3.591 52.033 -24.933 4.242 44.521 3384.195 -3234.293 0.443 -0.057 -2.227 0 0.66 -0.75 0.08
1 7.21 721 -1.226 -8.653 3.208 38.239 -24.475 11.353 44.521 3384.195 -3234.293 0.184 -0.984 -1.764 0 0.65 -0.75 0.08
1 7.22 722 -0.977 -8.179 3.017 11.261 -26.093 14.252 74.501 3399.186 -3324.234 -0.075 -1.444 -1.488 0 0.65 -0.76 0.08
1 7.23 723 -0.546 -8.739 2.337 -23.621 -32.532 7.843 14.541 3264.124 -3309.244 -0.530 -0.875 -0.771 0 0.65 -0.76 0.08
1 7.24 724 -0.326 -9.304 2.011 -28.137 -35.858 2.167 14.541 3264.124 -3309.244 -0.748 -0.314 -0.469 -0 0.65 -0.76 0.09
1 7.25 725 0.244 -10.013 1.829 -16.510 -37.506 -2.808 29.531 3324.084 -3294.254 -1.305 0.389 -0.314 -0 0.65 -0.75 0.09
1 7.26 726 0.445 -10.200 1.891 -0.061 -35.797 -5.890 29.531 3324.084 -3294.254 -1.482 0.572 -0.386 -0.01 0.65 -0.75 0.09
1 7.27 727 0.484 -10.027 1.949 16.968 -25.574 -4.639 -90.391 3219.153 -3339.375 -1.492 0.399 -0.429 -0.01 0.65 -0.75 0.09
1 7.28 728 0.201 -9.529 1.815 17.700 -19.104 -1.770 -90.391 3219.153 -3339.375 -1.184 -0.097 -0.264 -0.01 0.65 -0.76 0.09
1 7.29 729 0.115 -9.386 1.777 12.726 -15.472 -1.495 29.531 3279.114 -3249.283 -1.078 -0.237 -0.192 -0.01 0.65 -0.76 0.09
1 7.30 730 0.148 -9.572 1.499 3.784 -18.127 -2.655 -0.300 3354.065 -3354.365 -1.079 -0.046 0.130 -0.01 0.65 -0.76 0.09
1 7.31 731 0.364 -9.697 1.537 1.526 -22.003 -4.700 -0.300 3354.065 -3354.365 -1.277 0.078 0.099 -0.02 0.65 -0.76 0.09
1 7.32 732 0.666 -9.692 1.432 2.319 -23.804 -6.531 -225.303 3474.137 -3324.234 -1.555 0.072 0.210 -0.02 0.64 -0.76 0.09
1 7.33 733 0.781 -9.668 1.355 6.531 -22.766 -6.989 -225.303 3474.137 -3324.234 -1.642 0.046 0.294 -0.02 0.64 -0.76 0.09
1 7.34 734 1.034 -9.333 1.154 14.648 -18.341 -3.174 -45.271 3399.186 -3549.238 -1.868 -0.289 0.510 -0.02 0.64 -0.76 0.09
1 7.35 735 1.053 -9.060 1.025 17.975 -14.710 -2.655 -45.271 3399.186 -3549.238 -1.865 -0.560 0.660 -0.02 0.64 -0.76 0.09
1 7.36 736 0.924 -8.998 1.010 17.761 -10.498 -2.655 -120.372 3399.186 -3399.335 -1.713 -0.620 0.700 -0.03 0.64 -0.76 0.09
1 7.37 737 0.804 -8.854 1.073 13.794 -3.998 -2.106 -90.391 3459.146 -3384.345 -1.571 -0.760 0.663 -0.03 0.64 -0.76 0.09
1 7.38 738 0.512 -8.844 0.800 4.822 4.517 1.221 -90.391 3459.146 -3384.345 -1.250 -0.767 0.965 -0.03 0.64 -0.76 0.09
1 7.39 739 0.464 -9.017 0.575 0.397 7.660 3.082 -165.342 3339.075 -3459.296 -1.196 -0.595 1.191 -0.03 0.64 -0.76 0.09
1 7.40 740 0.306 -9.132 0.474 -3.174 11.200 4.913 -165.342 3339.075 -3459.296 -1.036 -0.482 1.284 -0.03 0.64 -0.76 0.09
1 7.41 741 0.474 -9.237 0.168 -5.402 13.580 8.575 -255.284 3354.065 -3399.335 -1.206 -0.379 1.575 -0.03 0.64 -0.76 0.09
1 7.42 742 0.508 -8.902 0.158 -2.380 18.127 14.313 -255.284 3354.065 -3399.335 -1.248 -0.717 1.566 -0.03 0.64 -0.76 0.09
1 7.43 743 0.426 -8.615 0.057 -1.251 21.057 17.456 -195.323 3354.065 -3429.316 -1.182 -1.006 1.651 -0.02 0.64 -0.76 0.09
1 7.44 744 0.560 -8.562 0.096 -3.632 24.994 21.301 -60.261 3459.146 -3489.277 -1.377 -1.056 1.598 -0.02 0.64 -0.76 0.09
1 7.45 745 0.450 -8.734 0.029 -9.155 29.205 23.285 -60.261 3459.146 -3489.277 -1.307 -0.883 1.651 -0.02 0.64 -0.76 0.09
1 7.46 746 0.148 -9.127 -0.043 -21.729 35.248 22.492 104.482 3474.137 -3474.287 -1.048 -0.491 1.696 -0.01 0.64 -0.76 0.09
1 7.47 747 -0.455 -9.400 -0.101 -27.496 36.133 20.020 104.482 3474.137 -3474.287 -0.478 -0.223 1.703 -0.01 0.65 -0.76 0.09
1 7.48 748 -1.188 -9.812 0.148 -24.445 27.374 16.937 -90.391 3384.195 -3489.277 0.223 0.183 1.396 -0.01 0.65 -0.76 0.09
1 7.49 749 -1.451 -10.286 -0.014 -18.982 18.341 17.029 -90.391 3384.195 -3489.277 0.456 0.651 1.506 -0.01 0.65 -0.75 0.08
1 7.50 750 -1.585 -10.492 0.201 -15.900 11.108 17.548 -90.391 3384.195 -3519.257 0.559 0.854 1.249 -0 0.65 -0.75 0.08
1 7.51 751 -1.480 -10.698 0.292 -17.853 7.172 18.951 -60.261 3339.075 -3459.296 0.422 1.058 1.122 -0 0.65 -0.75 0.08
1 7.52 752 -1.484 -10.889 0.067 -18.829 6.897 17.639 -60.261 3339.075 -3459.296 0.367 1.247 1.283 0 0.66 -0.75 0.09
1 7.53 753 -1.599 -10.980 -0.034 -14.923 9.552 16.296 119.472 3534.098 -3414.326 0.455 1.338 1.357 0 0.66 -0.75 0.09
1 7.54 754 -1.757 -10.520 -0.330 -7.782 12.390 15.076 119.472 3534.098 -3414.326 0.588 0.878 1.633 0 0.66 -0.75 0.09
1 7.55 755 -1.978 -10.157 -0.412 -2.014 12.207 14.893 74.501 3594.059 -3219.303 0.783 0.515 1.698 0 0.66 -0.75 0.09
1 7.56 756 -1.906 -9.568 -0.819 0.732 8.698 15.411 29.531 3549.088 -3354.365 0.683 -0.072 2.090 0.01 0.66 -0.75 0.09
1 7.57 757 -1.202 -9.366 -1.087 -3.387 4.242 14.893 89.492 3489.127 -3384.345 -0.049 -0.272 2.345 0.01 0.66 -0.75 0.09
1 7.58 758 -0.694 -9.180 -0.474 -9.460 2.136 15.778 179.583 3549.088 -3399.335 -0.583 -0.457 1.713 0.01 0.66 -0.75 0.09
1 7.59 759 -0.369 -9.778 1.978 -17.212 3.540 17.029 179.583 3549.088 -3399.335 -0.931 0.141 -0.767 0.01 0.66 -0.74 0.09
1 7.60 760 -2.318 -15.194 3.797 -42.450 25.940 7.965 44.521 3534.098 -3309.244 0.977 5.554 -2.652 0.01 0.66 -0.74 0.09
1 7.61 761 -4.358 -17.885 4.156 -78.095 31.403 -17.914 44.521 3534.098 -3309.244 3.011 8.236 -3.097 0.01 0.67 -0.74 0.09
1 7.62 762 -5.052 -17.608 2.701 -33.905 -9.399 -32.501 269.524 3459.146 -3339.375 3.735 7.943 -1.751 0.01 0.67 -0.74 0.09
1 7.63 763 -3.352 -14.241 2.528 36.957 -52.460 -35.156 164.593 3669.160 -3384.345 2.090 4.568 -1.596 0.01 0.67 -0.74 0.09
1 7.64 764 -0.402 -9.472 3.050 75.043 -50.293 -22.797 179.583 3474.137 -3249.283 -0.801 -0.201 -2.033 0.01 0.67 -0.74 0.09
1 7.65 765 0.450 -8.461 2.993 46.692 -13.916 -16.541 44.521 3639.179 -3234.293 -1.606 -1.203 -1.853 0 0.66 -0.74 0.09
1 7.66 766 0.699 -8.093 2.543 1.129 17.670 -9.338 44.521 3639.179 -3234.293 -1.816 -1.564 -1.301 -0 0.66 -0.75 0.09
1 7.67 767 0.551 -8.983 2.667 -44.983 33.264 -1.465 89.492 3459.146 -3264.273 -1.646 -0.678 -1.443 0 0.66 -0.75 0.08
1 7.68 768 0.546 -10.310 3.333 -53.803 34.515 1.556 89.492 3459.146 -3264.273 -1.633 0.640 -2.173 0 0.66 -0.74 0.08
1 7.69 769 -0.148 -11.397 3.898 -44.525 36.377 0.732 104.482 3519.107 -3354.365 -0.940 1.718 -2.814 0 0.67 -0.74 0.08
1 7.70 770 -0.895 -11.804 3.898 -18.463 38.452 -3.174 104.482 3429.166 -3294.254 -0.199 2.119 -2.877 0.01 0.67 -0.74 0.08
1 7.71 771 -1.537 -10.827 2.562 31.769 34.241 -12.238 149.603 3624.189 -3249.283 0.445 1.140 -1.561 0.01 0.67 -0.74 0.08
1 7.72 772 -1.642 -9.879 2.337 47.547 29.236 -16.174 119.472 3669.160 -3339.375 0.563 0.193 -1.305 0.01 0.67 -0.74 0.07
1 7.73 773 -2.016 -9.386 2.437 40.070 27.008 -12.451 119.472 3669.160 -3339.375 0.953 -0.294 -1.338 0.01 0.67 -0.74 0.07
1 7.74 774 -2.457 -8.998 2.045 8.423 17.914 -12.634 89.492 3564.078 -3234.293 1.412 -0.670 -0.830 0.01 0.66 -0.75 0.07
1 7.75 775 -2.921 -9.366 1.791 -17.212 6.866 -9.552 89.492 3564.078 -3234.293 1.881 -0.301 -0.569 0.01 0.66 -0.75 0.07
1 7.76 776 -3.074 -9.659 1.762 -32.044 -5.829 -2.350 104.482 3474.137 -3249.283 2.031 -0.012 -0.568 0.01 0.66 -0.75 0.07
1 7.77 777 -2.729 -9.649 1.987 -32.349 -15.259 5.157 74.501 3654.169 -3294.254 1.674 -0.026 -0.836 0.01 0.66 -0.74 0.07
1 7.78 778 -2.457 -9.371 2.241 -17.822 -15.869 14.343 164.593 3564.078 -3264.273 1.382 -0.306 -1.126 0.01 0.67 -0.74 0.07
1 7.79 779 -2.610 -8.801 2.093 -4.364 -7.965 18.646 74.501 3624.189 -3174.332 1.508 -0.875 -0.998 0.01 0.67 -0.74 0.07
1 7.80 780 -2.916 -8.232 2.174 9.735 -1.129 21.118 74.501 3624.189 -3174.332 1.780 -1.441 -1.079 0.01 0.67 -0.74 0.07
1 7.81 781 -3.189 -7.283 1.987 20.508 2.686 22.400 104.482 3624.189 -3099.231 1.965 -2.372 -0.838 0.02 0.66 -0.74 0.08
1 7.82 782 -3.342 -7.010 1.796 17.273 0.763 23.590 102.833 3620.891 -3093.834 2.085 -2.637 -0.616 0.02 0.66 -0.74 0.08
1 7.83 783 -3.117 -6.948 1.772 6.897 -3.448 23.316 27.882 3650.872 -3213.906 1.826 -2.691 -0.568 0.02 0.66 -0.75 0.08
1 7.84 784 -2.955 -7.116 1.695 -6.287 -7.172 21.423 27.882 3680.852 -3243.887 1.630 -2.518 -0.484 0.02 0.66 -0.75 0.08
1 7.85 785 -2.619 -7.489 1.633 -18.524 -9.827 17.883 102.833 3545.790 -3288.857 1.267 -2.142 -0.434 0.02 0.66 -0.74 0.08
1 7.86 786 -2.399 -8.500 1.571 -31.525 -12.878 13.977 87.843 3605.901 -3153.945 1.024 -1.132 -0.400 0.02 0.66 -0.74 0.08
1 7.87 787 -1.853 -9.003 1.628 -31.525 -13.336 12.451 87.843 3605.901 -3153.945 0.460 -0.632 -0.498 0.02 0.66 -0.74 0.08
1 7.88 788 -1.422 -9.165 1.599 -23.865 -12.482 13.245 117.823 3635.881 -3198.916 -0.013 -0.471 -0.539 0.02 0.67 -0.74 0.09
1 7.89 789 -1.053 -8.983 1.585 -10.162 -8.484 12.146 117.823 3635.881 -3198.916 -0.397 -0.652 -0.538 0.02 0.67 -0.74 0.09
1 7.90 790 -0.623 -8.485 1.370 11.108 -0.488 8.453 117.823 3605.901 -3303.848 -0.838 -1.148 -0.315 0.02 0.67 -0.74 0.09
1 7.91 791 -0.493 -8.030 1.341 19.379 3.815 5.676 162.944 3635.881 -3198.916 -0.976 -1.599 -0.263 0.02 0.67 -0.74 0.09
1 7.92 792 -0.503 -7.844 1.197 17.059 7.141 1.801 162.944 3605.901 -3123.815 -0.973 -1.781 -0.090 0.02 0.67 -0.74 0.09
1 7.93 793 -0.771 -7.882 1.326 -1.617 10.864 -3.357 177.934 3545.790 -3213.906 -0.707 -1.740 -0.198 0.02 0.66 -0.74 0.09
1 7.94 794 -0.872 -8.165 1.245 -14.923 12.512 -5.768 177.934 3545.790 -3213.906 -0.605 -1.458 -0.115 0.02 0.66 -0.74 0.09
1 7.95 795 -0.991 -8.639 1.346 -22.949 13.062 -7.904 162.944 3605.901 -3198.916 -0.479 -0.987 -0.235 0.02 0.67 -0.74 0.09
1 7.96 796 -1.360 -9.453 1.326 -18.951 14.069 -9.033 162.944 3605.901 -3198.916 -0.087 -0.184 -0.285 0.02 0.67 -0.74 0.09
1 7.97 797 -1.575 -9.678 1.164 -11.932 16.205 -8.545 162.944 3530.800 -3258.877 0.141 0.037 -0.148 0.02 0.67 -0.74 0.09
1 7.98 798 -1.801 -9.726 1.274 -3.937 19.135 -9.796 177.934 3590.911 -3288.857 0.377 0.081 -0.274 0.02 0.67 -0.74 0.08
1 7.99 799 -2.102 -9.663 1.092 0.824 19.684 -10.162 177.934 3590.911 -3288.857 0.689 0.017 -0.097 0.02 0.67 -0.74 0.08
1 8.00 800 -2.399 -9.228 0.857 2.350 15.991 -14.435 177.934 3650.872 -3168.936 0.996 -0.420 0.137 0.02 0.67 -0.74 0.08
1 8.01 801 -2.284 -8.720 0.733 2.380 11.505 -17.273 177.934 3650.872 -3168.936 0.893 -0.930 0.262 0.02 0.67 -0.74 0.08
1 8.02 802 -2.184 -8.509 0.685 1.038 7.538 -17.731 177.934 3620.891 -3093.834 0.809 -1.143 0.311 0.02 0.67 -0.74 0.08
1 8.03 803 -1.968 -8.275 0.546 -5.463 3.723 -16.052 177.934 3620.891 -3093.834 0.636 -1.383 0.447 0.02 0.67 -0.74 0.08
1 8.04 804 -1.738 -8.337 0.426 -12.482 3.540 -15.686 207.915 3545.790 -3063.854 0.429 -1.325 0.557 0.02 0.67 -0.74 0.07
1 8.05 805 -1.427 -8.576 0.450 -19.836 2.350 -14.282 117.823 3605.901 -3123.815 0.141 -1.091 0.511 0.02 0.67 -0.74 0.07
1 8.06 806 -1.494 -9.060 0.316 -24.811 0.824 -15.015 117.823 3605.901 -3123.815 0.230 -0.614 0.614 0.02 0.67 -0.74 0.07
1 8.07 807 -1.561 -9.596 0.560 -22.034 1.068 -15.015 87.843 3665.862 -3048.864 0.318 -0.084 0.330 0.02 0.67 -0.73 0.07
1 8.08 808 -1.820 -9.860 0.627 -14.557 2.960 -12.756 87.843 3665.862 -3048.864 0.598 0.174 0.226 0.02 0.68 -0.73 0.07
1 8.09 809 -2.040 -10.094 0.522 -7.568 4.639 -9.888 117.823 3710.833 -3003.893 0.835 0.404 0.306 0.02 0.68 -0.73 0.07
1 8.10 810 -2.155 -10.008 0.508 -2.563 4.517 -8.240 117.823 3710.833 -3003.893 0.962 0.315 0.305 0.02 0.68 -0.73 0.07
1 8.11 811 -2.361 -10.104 0.560 -1.129 2.594 -8.545 162.944 3530.800 -2973.913 1.179 0.409 0.242 0.02 0.68 -0.73 0.07
1 8.12 812 -2.385 -10.315 0.623 -3.693 2.197 -9.064 -61.910 3665.862 -2973.913 1.208 0.618 0.175 0.02 0.68 -0.73 0.07
1 8.13 813 -2.322 -10.549 0.575 -5.859 1.495 -8.270 -61.910 3665.862 -2973.913 1.152 0.852 0.215 0.02 0.68 -0.73 0.07
1 8.14 814 -2.078 -10.808 0.532 -6.012 1.770 -8.759 42.872 3740.813 -3048.864 0.917 1.108 0.249 0.02 0.68 -0.73 0.07
1 8.15 815 -1.887 -11.143 0.330 -2.869 1.770 -8.667 42.872 3740.813 -3048.864 0.739 1.441 0.442 0.02 0.68 -0.73 0.07
1 8.16 816 -1.671 -11.186 0.081 -0.732 1.312 -9.155 72.853 3650.872 -2913.952 0.537 1.482 0.687 0.02 0.68 -0.73 0.07
1 8.17 817 -1.413 -11.478 -0.187 0.153 0.671 -7.416 72.853 3650.872 -2913.952 0.293 1.773 0.953 0.02 0.68 -0.73 0.07
1 8.18 818 -1.408 -12.106 -0.249 -0.061 2.380 -4.211 27.882 3590.911 -2913.952 0.310 2.398 1.018 0.01 0.68 -0.73 0.07
1 8.19 819 -1.738 -12.402 -0.187 -0.427 6.256 -1.495 102.833 3755.803 -3033.874 0.646 2.694 0.956 0.01 0.68 -0.73 0.07
1 8.20 820 -1.959 -12.604 -0.474 1.831 8.545 -0.977 102.833 3755.803 -3033.874 0.868 2.895 1.243 0.01 0.68 -0.73 0.07
1 8.21 821 -2.361 -12.225 -0.781 6.500 6.805 -3.540 72.853 3650.872 -2913.952 1.273 2.517 1.553 0.02 0.68 -0.73 0.07
1 8.22 822 -2.279 -11.665 -1.192 12.177 -3.815 -7.111 102.833 3845.895 -2988.903 1.198 1.956 1.977 0.02 0.68 -0.73 0.07
1 8.23 823 -2.332 -11.454 -1.111 7.507 -8.637 -8.270 12.892 3785.784 -3123.815 1.262 1.746 1.915 0.01 0.68 -0.73 0.06
1 8.24 824 -1.968 -11.646 -0.589 -0.885 -8.423 -5.676 12.892 3785.784 -3123.815 0.912 1.937 1.409 0.01 0.68 -0.73 0.06
1 8.25 825 -1.753 -12.158 0.000 -13.336 -1.068 -0.610 117.823 3530.800 -3123.815 0.714 2.448 0.815 0.01 0.68 -0.73 0.07
1 8.26 826 -1.619 -12.287 -0.024 -13.519 3.693 0.000 117.823 3665.862 -2898.812 0.581 2.575 0.819 0.01 0.68 -0.73 0.06
1 8.27 827 -1.551 -12.412 -0.306 -5.280 5.707 -0.732 117.823 3665.862 -2898.812 0.515 2.698 1.085 0.01 0.68 -0.73 0.06
1 8.28 828 -1.240 -12.110 -0.086 6.531 6.531 -3.418 -77.050 3545.790 -3093.834 0.206 2.396 0.861 0.01 0.68 -0.73 0.06
1 8.29 829 -1.197 -11.665 0.244 14.923 9.583 -7.050 72.853 3845.895 -2883.821 0.169 1.951 0.544 0.01 0.68 -0.73 0.06
1 8.30 830 -1.413 -10.870 0.436 18.494 14.893 -8.820 -77.050 3845.895 -2988.903 0.396 1.157 0.375 0.01 0.68 -0.73 0.06
1 8.31 831 -1.772 -10.190 0.551 19.653 15.259 -9.003 -77.050 3845.895 -2988.903 0.767 0.478 0.286 0.01 0.68 -0.73 0.06
1 8.32 832 -2.198 -9.692 0.900 20.752 11.902 -9.552 -46.919 3725.823 -3033.874 1.209 -0.017 -0.010 0.01 0.67 -0.74 0.06
1 8.33 833 -2.370 -9.003 1.283 20.325 8.850 -10.468 102.833 3680.852 -2958.922 1.386 -0.704 -0.362 0.01 0.67 -0.74 0.06
1 8.34 834 -2.361 -8.270 2.102 16.296 -3.387 -11.719 102.833 3680.852 -2958.922 1.381 -1.434 -1.148 0.01 0.67 -0.74 0.06
1 8.35 835 -1.844 -7.987 2.787 8.240 -13.001 -11.627 -61.910 3665.862 -2898.812 0.871 -1.714 -1.802 0.01 0.67 -0.74 0.06
1 8.36 836 -1.528 -7.887 3.256 -0.458 -22.064 -12.390 -77.050 3620.891 -2958.922 0.576 -1.816 -2.259 0.01 0.67 -0.74 0.06
1 8.37 837 -0.737 -7.700 4.013 6.348 -27.100 -11.017 -1.949 3650.872 -2988.903 -0.191 -2.004 -3.013 0.01 0.67 -0.74 0.06
1 8.38 838 -0.316 -7.518 4.147 23.071 -22.522 -3.784 -1.949 3650.872 -2988.903 -0.590 -2.188 -3.137 0.01 0.67 -0.74 0.06
1 8.39 839 -0.417 -7.255 4.204 32.837 -17.334 7.813 -61.910 3635.881 -3048.864 -0.476 -2.449 -3.162 0.01 0.67 -0.74 0.06
1 8.40 840 -1.001 -6.766 4.089 33.875 -6.409 20.447 -1.949 3755.803 -3063.854 0.085 -2.923 -2.941 0 0.66 -0.74 0.06
1 8.41 841 -1.188 -6.661 3.975 25.269 -1.404 23.773 -1.949 3755.803 -3063.854 0.241 -3.019 -2.776 0.01 0.66 -0.75 0.07
1 8.42 842 -1.221 -6.747 3.572 10.437 -2.716 23.865 12.892 3665.862 -3078.844 0.240 -2.926 -2.341 0.01 0.66 -0.75 0.07
1 8.43 843 -0.666 -7.135 3.371 -4.089 -10.742 20.355 -61.910 3605.901 -3153.945 -0.349 -2.533 -2.128 0.01 0.66 -0.75 0.07
1 8.44 844 0.239 -8.643 3.472 -23.407 -15.472 14.465 -122.021 3650.872 -3063.854 -1.279 -1.023 -2.237 0.01 0.66 -0.75 0.07
1 8.45 845 0.589 -9.869 3.462 -30.121 -8.514 11.963 -122.021 3650.872 -3063.854 -1.647 0.202 -2.255 0.01 0.66 -0.75 0.07
1 8.46 846 0.737 -11.253 3.702 -28.870 0.946 8.606 -1.949 3545.790 -3168.936 -1.801 1.583 -2.516 0.01 0.66 -0.74 0.07
1 8.47 847 0.034 -11.746 3.654 -9.674 7.782 1.068 -16.939 3605.901 -3198.916 -1.112 2.071 -2.534 0.01 0.67 -0.74 0.08
1 8.48 848 -0.469 -11.603 3.371 10.864 4.028 -4.150 -16.939 3605.901 -3198.916 -0.609 1.926 -2.259 0.01 0.67 -0.74 0.07
1 8.49 849 -0.867 -10.698 3.304 24.994 -2.991 -4.669 -16.939 3665.862 -3078.844 -0.204 1.023 -2.169 0.01 0.66 -0.74 0.07
1 8.50 850 -0.690 -10.161 3.280 27.680 -7.721 0.031 -61.910 3530.800 -3003.893 -0.374 0.491 -2.103 0.01 0.66 -0.74 0.07
1 8.51 851 -0.460 -9.582 3.170 11.871 -12.482 7.446 -46.919 3650.872 -3033.874 -0.602 -0.083 -1.945 0.01 0.66 -0.75 0.08
1 8.52 852 0.273 -9.314 2.749 1.312 -14.771 8.179 -46.919 3650.872 -3033.874 -1.338 -0.346 -1.483 0.01 0.66 -0.75 0.08
1 8.53 853 0.766 -9.515 2.303 -3.754 -15.991 5.066 12.892 3530.800 -3078.844 -1.833 -0.141 -1.016 0 0.66 -0.75 0.08
1 8.54 854 0.919 -9.773 2.145 -2.350 -14.160 1.831 -16.939 3485.829 -3078.844 -1.980 0.118 -0.847 0 0.66 -0.75 0.08
1 8.55 855 0.651 -10.061 1.652 7.141 -3.479 1.617 -16.939 3485.829 -3078.844 -1.682 0.405 -0.336 0 0.66 -0.75 0.08
1 8.56 856 0.321 -9.903 1.465 11.200 3.876 2.563 27.882 3470.839 -3093.834 -1.340 0.248 -0.132 0 0.66 -0.75 0.08
1 8.57 857 -0.120 -9.773 1.355 10.315 5.341 3.326 -92.040 3410.878 -3123.815 -0.893 0.120 -0.004 0 0.66 -0.75 0.08
1 8.58 858 -0.656 -9.582 1.015 6.256 3.815 3.510 -61.910 3605.901 -3078.844 -0.354 -0.070 0.351 0 0.66 -0.75 0.08
1 8.59 859 -0.910 -9.553 0.747 -2.655 -2.136 6.256 -61.910 3605.901 -3078.844 -0.102 -0.097 0.625 0 0.66 -0.75 0.08
1 8.60 860 -0.757 -9.433 0.661 -5.188 -5.005 4.761 72.853 3515.810 -2958.922 -0.261 -0.217 0.708 0 0.66 -0.75 0.08
1 8.61 861 -0.618 -9.285 0.733 -5.371 -6.256 3.601 -226.952 3515.810 -3093.834 -0.406 -0.366 0.627 0 0.66 -0.75 0.08
1 8.62 862 -0.215 -8.969 0.948 -2.441 -4.272 5.493 -226.952 3515.810 -3093.834 -0.812 -0.684 0.392 -0 0.66 -0.75 0.08
1 8.63 863 -0.182 -9.079 1.063 -0.732 -2.289 5.798 -152.001 3425.868 -3093.834 -0.848 -0.575 0.273 -0 0.66 -0.75 0.08
1 8.64 864 -0.182 -9.022 1.030 0.702 0.610 6.348 -46.919 3545.790 -3063.854 -0.850 -0.632 0.305 -0 0.66 -0.75 0.08
1 8.65 865 -0.120 -8.935 1.039 2.869 3.815 6.836 -46.919 3545.790 -3063.854 -0.914 -0.718 0.297 -0 0.66 -0.75 0.08
1 8.66 866 0.182 -9.007 1.058 3.571 7.751 7.721 -77.050 3545.790 -3138.955 -1.220 -0.645 0.282 -0 0.66 -0.75 0.08
1 8.67 867 0.397 -9.079 0.876 4.272 9.308 8.667 -46.919 3650.872 -3138.955 -1.440 -0.572 0.468 0 0.66 -0.75 0.08
1 8.68 868 0.579 -8.868 0.833 5.280 11.383 9.003 -77.050 3650.872 -3063.854 -1.626 -0.782 0.516 0 0.66 -0.75 0.08
1 8.69 869 0.924 -8.586 0.374 8.423 18.005 10.345 -77.050 3650.872 -3063.854 -1.986 -1.061 0.988 0 0.66 -0.75 0.08
1 8.70 870 1.097 -8.337 0.254 8.423 21.973 11.231 -46.919 3320.787 -3168.936 -2.178 -1.306 1.119 0 0.66 -0.75 0.08
1 8.71 871 0.977 -8.279 0.101 5.493 24.292 11.475 72.853 3545.790 -3288.857 -2.079 -1.360 1.280 0.01 0.66 -0.75 0.08
1 8.72 872 1.221 -8.188 -0.019 1.465 27.588 12.482 72.853 3545.790 -3288.857 -2.345 -1.448 1.404 0.01 0.66 -0.75 0.08
1 8.73 873 1.010 -8.404 -0.010 -6.805 33.142 15.900 -16.939 3485.829 -3198.916 -2.159 -1.230 1.390 0.01 0.66 -0.75 0.08
1 8.74 874 0.675 -8.720 -0.057 -11.841 40.131 18.311 102.833 3425.868 -3168.936 -1.852 -0.912 1.426 0.01 0.66 -0.75 0.08
1 8.75 875 0.187 -8.734 -0.364 -14.130 46.265 18.097 42.872 3380.897 -3003.893 -1.397 -0.897 1.711 0.02 0.66 -0.75 0.08
1 8.76 876 -0.627 -8.868 -0.249 -11.963 48.615 17.273 42.872 3380.897 -3003.893 -0.655 -0.761 1.539 0.02 0.66 -0.75 0.07
1 8.77 877 -0.728 -8.873 -0.077 -10.773 48.004 16.815 87.843 3485.829 -3123.815 -0.586 -0.756 1.336 0.03 0.66 -0.75 0.07
1 8.78 878 -1.508 -9.448 0.369 -10.468 40.527 18.219 237.895 3410.878 -2973.913 0.164 -0.181 0.859 0.03 0.66 -0.75 0.07
1 8.79 879 -1.978 -9.601 0.436 -12.726 31.983 18.341 237.895 3410.878 -2973.913 0.599 -0.027 0.762 0.03 0.66 -0.75 0.07
1 8.80 880 -2.097 -10.018 0.417 -16.266 22.827 16.815 177.934 3395.888 -3168.936 0.684 0.391 0.750 0.03 0.66 -0.74 0.07
1 8.81 881 -2.260 -10.468 0.512 -16.693 11.749 13.062 252.885 3425.868 -3063.854 0.816 0.841 0.621 0.04 0.66 -0.74 0.07
1 8.82 882 -2.131 -10.822 0.450 -12.726 7.874 10.681 237.895 3455.849 -3003.893 0.659 1.196 0.651 0.04 0.67 -0.74 0.07
1 8.83 883 -2.155 -11.023 0.249 -8.026 7.446 10.193 237.895 3455.849 -3003.893 0.663 1.398 0.828 0.04 0.67 -0.74 0.07
1 8.84 884 -2.035 -10.880 -0.077 -0.366 8.820 13.519 192.924 3455.849 -2973.913 0.512 1.257 1.133 0.04 0.67 -0.74 0.07
1 8.85 885 -2.002 -10.679 -0.536 1.373 8.423 15.808 192.924 3455.849 -2943.932 0.457 1.059 1.592 0.04 0.67 -0.74 0.07
1 8.86 886 -1.686 -10.444 -0.642 1.373 5.859 16.144 192.924 3455.849 -2943.932 0.117 0.828 1.698 0.04 0.67 -0.74 0.07
1 8.87 887 -1.336 -10.276 -0.881 -0.488 3.357 15.289 372.807 3410.878 -3078.844 -0.257 0.663 1.926 0.04 0.67 -0.74 0.07
1 8.88 888 -0.857 -10.300 -0.953 -7.172 0.854 17.670 282.866 3320.787 -2958.922 -0.756 0.689 1.981 0.04 0.67 -0.74 0.07
1 8.89 889 -0.632 -11.052 1.159 -13.001 2.411 19.257 312.846 3530.800 -3048.864 -1.001 1.441 -0.155 0.04 0.67 -0.74 0.08
1 8.90 890 -1.216 -13.844 2.083 -17.609 12.756 15.717 312.846 3530.800 -3048.864 -0.437 4.234 -1.108 0.05 0.67 -0.74 0.08
1 8.91 891 -4.209 -16.683 3.280 -51.392 27.527 -21.393 237.895 3455.849 -2973.913 2.527 7.070 -2.390 0.05 0.67 -0.73 0.08
1 8.92 892 -5.445 -16.722 2.117 -15.503 2.716 -35.553 327.836 3395.888 -3063.854 3.799 7.096 -1.298 0.05 0.68 -0.73 0.07
1 8.93 893 -4.827 -14.869 1.609 34.363 -32.013 -33.997 327.836 3395.888 -3063.854 3.237 5.233 -0.791 0.04 0.68 -0.73 0.07
1 8.94 894 -2.950 -11.876 2.083 56.763 -47.028 -22.583 252.885 3620.891 -2958.922 1.412 2.238 -1.193 0.04 0.67 -0.74 0.07
1 8.95 895 -0.986 -10.607 1.690 24.841 -23.346 -9.827 252.885 3470.839 -3063.854 -0.515 0.972 -0.707 0.04 0.67 -0.74 0.07
1 8.96 896 -0.292 -10.607 1.508 -14.099 -0.854 -0.153 192.924 3410.878 -3003.893 -1.185 0.975 -0.466 0.04 0.67 -0.74 0.07
1 8.97 897 0.263 -10.947 1.508 -36.652 14.191 6.317 192.924 3410.878 -3003.893 -1.730 1.313 -0.466 0.03 0.67 -0.74 0.07
1 8.98 898 0.694 -11.579 1.868 -38.452 24.414 7.385 147.804 3590.911 -3033.874 -2.164 1.941 -0.873 0.03 0.67 -0.74 0.07
1 8.99 899 1.049 -12.201 3.170 -20.722 33.569 11.658 147.804 3395.888 -2988.903 -2.548 2.557 -2.291 0.04 0.67 -0.73 0.07
1 9.00 900 0.895 -11.698 3.553 1.129 34.515 8.362 147.804 3395.888 -2988.903 -2.416 2.054 -2.704 0.04 0.67 -0.73 0.07
1 9.01 901 0.479 -10.540 3.515 23.071 35.248 -7.874 162.944 3455.849 -3048.864 -2.010 0.898 -2.662 0.04 0.67 -0.73 0.07
1 9.02 902 0.201 -9.534 3.424 41.168 36.682 -25.421 207.915 3545.790 -3063.854 -1.717 -0.107 -2.537 0.04 0.67 -0.74 0.07
1 9.03 903 -0.608 -8.634 3.223 52.399 40.375 -35.950 177.934 3395.888 -3093.834 -0.858 -1.008 -2.260 0.04 0.67 -0.74 0.06
1 9.04 904 -1.212 -8.131 2.639 48.309 45.044 -35.217 177.934 3395.888 -3093.834 -0.199 -1.510 -1.589 0.04 0.67 -0.74 0.06
1 9.05 905 -2.040 -7.968 2.246 35.736 44.953 -30.762 282.866 3350.917 -3063.854 0.680 -1.671 -1.114 0.04 0.66 -0.74 0.06
1 9.06 906 -2.744 -7.968 2.107 14.587 33.203 -23.193 357.817 3395.888 -3063.854 1.457 -1.671 -0.896 0.05 0.66 -0.75 0.05
1 9.07 907 -3.237 -8.160 2.212 0.732 21.484 -18.280 357.817 3395.888 -3063.854 1.978 -1.482 -0.990 0.05 0.66 -0.75 0.04
1 9.08 908 -3.702 -8.586 2.193 -10.223 16.022 -12.177 162.944 3455.849 -3123.815 2.448 -1.056 -0.969 0.05 0.66 -0.75 0.04
1 9.09 909 -3.979 -8.677 2.073 -14.893 16.174 -5.035 162.944 3455.849 -3123.815 2.721 -0.966 -0.861 0.05 0.66 -0.75 0.04
1 9.10 910 -4.425 -8.505 1.844 -7.538 14.618 8.820 267.875 3410.878 -3153.945 3.148 -1.138 -0.648 0.05 0.66 -0.75 0.04
1 9.11 911 -4.315 -8.117 1.820 1.465 9.857 16.693 267.875 3410.878 -3153.945 3.003 -1.522 -0.633 0.05 0.66 -0.75 0.04
1 9.12 912 -4.180 -7.777 2.040 5.066 5.615 20.813 147.804 3320.787 -3063.854 2.822 -1.856 -0.850 0.05 0.66 -0.75 0.04
1 9.13 913 -3.567 -7.269 2.275 -1.129 1.709 24.628 117.823 3410.878 -3123.815 2.111 -2.346 -1.064 0.06 0.66 -0.75 0.05
1 9.14 914 -3.366 -7.283 2.327 -9.583 1.404 24.628 117.823 3410.878 -3123.815 1.874 -2.327 -1.121 0.06 0.66 -0.75 0.05
1 9.15 915 -3.122 -7.437 2.121 -15.656 0.946 23.468 72.853 3350.917 -3138.955 1.594 -2.170 -0.931 0.06 0.66 -0.75 0.05
1 9.16 916 -3.031 -7.643 2.040 -18.707 -0.458 20.874 72.853 3350.917 -3138.955 1.470 -1.962 -0.874 0.06 0.66 -0.75 0.05
1 9.17 917 -2.758 -8.433 1.930 -16.815 -5.737 16.724 192.924 3260.826 -3123.815 1.168 -1.170 -0.790 0.06 0.66 -0.75 0.06
1 9.18 918 -2.753 -8.806 1.815 -13.184 -7.019 15.106 192.924 3260.826 -3123.815 1.133 -0.794 -0.695 0.06 0.66 -0.74 0.06
1 9.19 919 -2.586 -9.184 1.762 -12.878 -7.416 13.977 282.866 3350.917 -3093.834 0.935 -0.412 -0.654 0.06 0.66 -0.74 0.06
1 9.20 920 -2.423 -9.204 1.647 -12.848 -6.805 12.543 327.836 3245.835 -2883.821 0.720 -0.386 -0.561 0.06 0.66 -0.74 0.06
1 9.21 921 -2.433 -9.170 1.623 -10.162 -7.233 11.627 327.836 3245.835 -2883.821 0.707 -0.416 -0.546 0.06 0.66 -0.74 0.06
1 9.22 922 -2.179 -8.964 1.346 -2.045 -10.132 8.575 372.807 3335.927 -3153.945 0.434 -0.619 -0.270 0.06 0.66 -0.74 0.07
1 9.23 923 -2.188 -8.773 1.355 1.160 -12.482 5.707 372.807 3335.927 -3153.945 0.430 -0.808 -0.274 0.06 0.66 -0.74 0.07
1 9.24 924 -1.992 -8.725 1.350 -0.214 -14.435 3.937 372.657 3335.777 -3003.593 0.225 -0.853 -0.261 0.06 0.66 -0.74 0.07
1 9.25 925 -1.872 -8.859 1.441 -8.270 -12.909 2.716 372.657 3335.777 -3003.593 0.100 -0.717 -0.346 0.06 0.66 -0.74 0.07
1 9.26 926 -1.968 -9.041 1.480 -11.993 -10.407 1.282 267.726 3335.777 -3048.564 0.192 -0.535 -0.387 0.06 0.66 -0.74 0.07
1 9.27 927 -2.150 -9.079 1.480 -12.939 -7.690 -0.702 192.774 3410.878 -3003.593 0.373 -0.497 -0.396 0.06 0.66 -0.74 0.07
1 9.28 928 -2.500 -9.314 1.341 -9.064 -6.805 -3.326 192.774 3410.878 -3003.593 0.725 -0.266 -0.279 0.06 0.67 -0.74 0.07
1 9.29 929 -2.428 -9.405 1.331 -4.791 -8.240 -4.364 282.716 3350.767 -3138.505 0.656 -0.176 -0.276 0.06 0.67 -0.74 0.07
1 9.30 930 -2.634 -9.366 1.393 -2.747 -10.834 -4.425 282.716 3350.767 -3138.505 0.865 -0.215 -0.338 0.06 0.67 -0.74 0.07
1 9.31 931 -2.715 -9.362 1.322 -3.479 -12.421 -4.974 357.667 3395.738 -2913.502 0.949 -0.220 -0.264 0.05 0.67 -0.74 0.07
1 9.32 932 -2.677 -9.117 1.413 -4.974 -14.954 -5.371 282.716 3275.816 -2988.603 0.913 -0.464 -0.354 0.05 0.67 -0.74 0.08
1 9.33 933 -2.586 -9.242 1.288 -5.432 -16.846 -6.134 162.794 3335.777 -2973.613 0.827 -0.341 -0.229 0.05 0.67 -0.74 0.08
1 9.34 934 -2.600 -9.199 1.173 -4.578 -18.555 -7.202 192.774 3410.878 -3153.496 0.846 -0.385 -0.115 0.05 0.67 -0.74 0.08
1 9.35 935 -2.471 -9.036 1.188 -1.862 -20.691 -10.010 192.774 3410.878 -3153.496 0.734 -0.550 -0.127 0.05 0.67 -0.74 0.08
1 9.36 936 -2.289 -8.998 1.154 -1.129 -21.057 -10.376 252.735 3320.787 -2988.603 0.566 -0.591 -0.089 0.05 0.67 -0.74 0.08
1 9.37 937 -2.184 -8.749 0.991 -1.923 -21.454 -10.407 252.735 3320.787 -2988.603 0.474 -0.841 0.080 0.04 0.67 -0.74 0.08
1 9.38 938 -2.059 -8.988 0.910 -4.456 -22.461 -9.949 87.693 3260.826 -3048.564 0.365 -0.604 0.165 0.04 0.67 -0.74 0.08
1 9.39 939 -2.198 -8.888 0.498 -8.026 -23.682 -9.491 27.732 3275.816 -2883.521 0.519 -0.708 0.576 0.04 0.67 -0.74 0.08
1 9.40 940 -2.097 -9.184 0.498 -9.613 -25.665 -8.942 192.774 3410.878 -3078.544 0.433 -0.414 0.569 0.04 0.67 -0.74 0.08
1 9.41 941 -2.126 -9.304 0.555 -8.514 -26.856 -9.247 72.703 3350.767 -3033.574 0.476 -0.298 0.501 0.04 0.67 -0.74 0.09
1 9.42 942 -2.255 -9.343 0.541 -7.111 -26.306 -9.216 72.703 3350.767 -3033.574 0.619 -0.263 0.505 0.03 0.67 -0.74 0.09
1 9.43 943 -2.107 -9.352 0.905 -6.470 -28.259 -7.965 102.683 3395.738 -3063.554 0.497 -0.259 0.129 0.03 0.67 -0.74 0.09
1 9.44 944 -1.992 -9.309 0.977 -5.707 -29.968 -7.385 102.683 3395.738 -3063.554 0.395 -0.305 0.055 0.03 0.67 -0.74 0.09
1 9.45 945 -1.959 -9.184 0.795 -3.662 -31.433 -8.179 252.735 3395.738 -3033.574 0.375 -0.432 0.237 0.03 0.67 -0.74 0.09
1 9.46 946 -1.781 -9.323 0.656 -2.319 -31.342 -7.477 -17.089 3455.849 -3078.544 0.212 -0.295 0.378 0.02 0.67 -0.74 0.09
1 9.47 947 -1.801 -9.572 0.522 -5.371 -30.914 -5.371 -17.988 3528.551 -2999.996 0.245 -0.048 0.515 0.02 0.67 -0.74 0.09
1 9.48 948 -1.834 -9.711 0.546 -9.583 -31.983 -5.432 -92.939 3333.678 -2999.996 0.291 0.089 0.489 0.02 0.67 -0.74 0.1
1 9.49 949 -1.820 -9.955 0.522 -11.414 -33.417 -7.080 -92.939 3333.678 -2999.996 0.287 0.331 0.505 0.02 0.67 -0.74 0.1
1 9.50 950 -1.767 -10.271 0.685 -8.606 -33.447 -9.857 11.842 3258.577 -2999.996 0.265 0.640 0.320 0.01 0.67 -0.74 0.1
1 9.51 951 -1.753 -10.382 0.943 -4.791 -33.112 -10.254 11.842 3258.577 -2999.996 0.270 0.746 0.056 0.01 0.67 -0.74 0.1
1 9.52 952 -1.705 -10.329 0.809 -2.686 -31.006 -9.064 -62.959 3528.551 -3150.048 0.241 0.691 0.191 0.01 0.67 -0.73 0.1
1 9.53 953 -1.700 -10.252 0.757 -1.648 -30.243 -7.019 -47.969 3393.639 -2985.005 0.254 0.612 0.246 0 0.67 -0.73 0.11
1 9.54 954 -2.093 -10.171 0.292 -0.824 -28.839 -6.928 11.842 3378.649 -3119.917 0.661 0.528 0.714 0 0.67 -0.73 0.11
1 9.55 955 -1.949 -10.257 0.057 -2.655 -28.839 -7.904 -123.070 3423.620 -3134.908 0.530 0.613 0.951 0 0.67 -0.73 0.11
1 9.56 956 -2.030 -10.339 0.144 -6.195 -29.938 -9.705 -123.070 3423.620 -3134.908 0.624 0.692 0.863 -0 0.67 -0.73 0.11
1 9.57 957 -1.839 -10.501 0.053 -8.942 -32.227 -13.794 -168.041 3453.600 -3119.917 0.467 0.848 0.934 -0.01 0.67 -0.73 0.11
1 9.58 958 -1.604 -10.430 0.412 -7.080 -30.792 -16.144 -168.041 3453.600 -3119.917 0.256 0.772 0.563 -0.01 0.67 -0.73 0.11
1 9.59 959 -1.590 -10.755 0.781 -3.662 -29.083 -14.465 -123.070 3423.620 -2955.025 0.269 1.093 0.187 -0.01 0.67 -0.73 0.11
1 9.60 960 -1.432 -11.004 1.101 -4.944 -26.581 -10.681 -242.992 3378.649 -3074.947 0.136 1.338 -0.134 -0.01 0.67 -0.73 0.11
1 9.61 961 -1.528 -11.047 1.144 -8.148 -23.132 -9.888 -153.050 3318.538 -3165.038 0.251 1.379 -0.180 -0.02 0.67 -0.73 0.11
1 9.62 962 -1.810 -10.951 1.149 -4.822 -23.071 -11.261 -242.992 3303.548 -3119.917 0.552 1.280 -0.191 -0.02 0.67 -0.73 0.12
1 9.63 963 -1.925 -10.602 0.953 0.458 -24.078 -12.054 -242.992 3303.548 -3119.917 0.688 0.927 0.001 -0.02 0.67 -0.73 0.12
1 9.64 964 -2.231 -10.334 0.804 2.167 -30.151 -15.808 -378.054 3243.587 -3165.038 1.041 0.655 0.164 -0.02 0.67 -0.73 0.12
1 9.65 965 -2.294 -10.487 0.718 -4.150 -37.018 -19.714 -378.054 3243.587 -3165.038 1.126 0.806 0.256 -0.03 0.67 -0.73 0.12
1 9.66 966 -2.356 -10.367 1.149 -10.040 -42.481 -24.872 -302.953 3318.538 -3029.976 1.218 0.682 -0.178 -0.03 0.67 -0.73 0.12
1 9.67 967 -2.212 -10.501 1.772 -13.001 -47.730 -26.215 -317.943 3453.600 -3150.048 1.111 0.811 -0.808 -0.03 0.67 -0.73 0.12
1 9.68 968 -1.982 -10.377 2.246 -12.512 -54.566 -23.682 -527.806 3421.071 -3086.489 0.924 0.681 -1.291 -0.04 0.67 -0.73 0.12
1 9.69 969 -1.772 -10.319 2.816 -10.590 -58.777 -23.102 -467.845 3376.101 -3116.470 0.758 0.618 -1.871 -0.04 0.67 -0.73 0.12
1 9.70 970 -1.887 -10.401 3.381 -6.866 -60.333 -22.003 -467.845 3376.101 -3116.470 0.917 0.694 -2.442 -0.05 0.67 -0.73 0.12
1 9.71 971 -2.284 -10.430 3.697 2.014 -58.747 -17.914 -542.796 3331.130 -3041.519 1.357 0.719 -2.760 -0.05 0.67 -0.73 0.13
1 9.72 972 -2.974 -9.793 3.874 15.045 -63.080 -5.707 -542.796 3331.130 -3041.519 2.112 0.079 -2.906 -0.06 0.67 -0.73 0.13
1 9.73 973 -3.012 -8.926 3.529 20.783 -70.923 0.488 -542.796 3256.029 -3146.450 2.167 -0.786 -2.528 -0.06 0.67 -0.73 0.13
1 9.74 974 -2.437 -7.920 3.520 24.170 -78.766 3.448 -617.897 3406.081 -3071.499 1.586 -1.784 -2.455 -0.07 0.66 -0.73 0.14
1 9.75 975 -1.422 -7.293 3.199 27.985 -87.982 4.334 -617.897 3406.081 -3071.499 0.567 -2.403 -2.064 -0.07 0.66 -0.73 0.14
1 9.76 976 0.498 -7.317 2.940 20.447 -89.661 12.543 -632.888 3391.091 -3161.440 -1.344 -2.374 -1.752 -0.07 0.66 -0.73 0.15
1 9.77 977 1.724 -7.585 2.562 4.028 -81.146 19.287 -632.888 3391.091 -3161.440 -2.568 -2.100 -1.326 -0.08 0.66 -0.73 0.15
1 9.78 978 2.552 -8.193 2.519 -16.205 -67.200 23.407 -812.920 3346.120 -3161.440 -3.406 -1.488 -1.258 -0.08 0.65 -0.73 0.16
1 9.79 979 2.758 -9.491 2.136 -40.009 -43.121 22.675 -812.920 3346.120 -3161.440 -3.629 -0.192 -0.906 -0.09 0.66 -0.73 0.17
1 9.80 980 2.543 -10.793 2.050 -44.281 -33.661 15.259 -827.911 3376.101 -3146.450 -3.409 1.104 -0.867 -0.09 0.66 -0.73 0.17
1 9.81 981 1.997 -11.550 2.121 -35.767 -32.257 4.181 -857.891 3346.120 -3056.509 -2.862 1.854 -0.994 -0.09 0.66 -0.73 0.17
1 9.82 982 1.494 -11.857 2.322 -16.419 -38.086 -4.913 -857.891 3346.120 -3056.509 -2.355 2.155 -1.236 -0.1 0.66 -0.73 0.17
1 9.83 983 0.929 -11.526 2.466 5.676 -50.629 -10.345 -872.881 3301.000 -2996.548 -1.772 1.822 -1.391 -0.1 0.66 -0.72 0.17
1 9.84 984 0.895 -10.827 2.275 6.226 -58.258 -9.827 -872.881 3301.000 -2996.548 -1.714 1.122 -1.187 -0.1 0.66 -0.72 0.18
1 9.85 985 1.159 -10.449 2.251 0.427 -63.904 -11.078 -947.833 3301.000 -3116.470 -1.953 0.744 -1.145 -0.11 0.66 -0.72 0.18
1 9.86 986 1.532 -10.176 2.212 -6.531 -68.054 -10.101 -946.933 3298.301 -3113.322 -2.299 0.470 -1.095 -0.11 0.66 -0.72 0.18
1 9.87 987 1.963 -10.353 1.882 -10.345 -70.832 -6.836 -976.914 3403.383 -2963.270 -2.644 0.642 -0.754 -0.12 0.65 -0.72 0.19
1 9.88 988 1.882 -10.453 1.820 -9.613 -70.404 -3.967 -961.923 3463.344 -2948.279 -2.520 0.740 -0.692 -0.12 0.65 -0.72 0.19
1 9.89 989 1.628 -10.611 1.686 -8.728 -69.000 -0.458 -961.923 3463.344 -2948.279 -2.229 0.895 -0.559 -0.13 0.65 -0.72 0.19
1 9.90 990 1.226 -10.631 1.499 -5.524 -66.681 3.662 -1096.835 3373.402 -3068.351 -1.815 0.913 -0.376 -0.13 0.65 -0.72 0.19
1 9.91 991 0.129 -10.401 1.456 -0.793 -64.820 9.644 -1096.835 3373.402 -3068.351 -0.713 0.683 -0.333 -0.14 0.65 -0.72 0.2
1 9.92 992 -0.436 -10.152 1.255 -1.312 -67.291 13.336 -1231.897 3373.402 -2963.270 -0.139 0.434 -0.125 -0.14 0.65 -0.72 0.2
1 9.93 993 -0.790 -9.855 1.082 -4.150 -72.357 16.327 -1231.897 3373.402 -2963.270 0.214 0.138 0.054 -0.14 0.65 -0.72 0.2
1 9.94 994 -0.924 -9.515 0.876 -10.162 -82.978 19.959 -1066.855 3388.393 -2978.260 0.325 -0.200 0.260 -0.15 0.65 -0.72 0.21
1 9.95 995 -0.804 -9.237 0.948 -13.611 -89.325 21.362 -1201.917 3328.282 -2933.289 0.188 -0.478 0.179 -0.15 0.65 -0.71 0.22
1 9.96 996 -0.364 -9.089 1.039 -16.449 -95.459 23.163 -1201.917 3328.282 -2933.289 -0.270 -0.627 0.076 -0.16 0.65 -0.71 0.22
1 9.97 997 -0.187 -9.050 1.020 -18.433 -99.640 25.726 -1276.868 3403.383 -2963.270 -0.464 -0.666 0.080 -0.16 0.65 -0.71 0.23
1 9.98 998 0.091 -9.055 1.149 -19.806 -102.936 31.616 -1306.849 3403.383 -2813.217 -0.761 -0.662 -0.066 -0.17 0.65 -0.71 0.23
1 9.99 999 0.072 -8.902 1.044 -19.592 -102.661 35.309 -1231.897 3523.305 -2783.237 -0.765 -0.815 0.022 -0.17 0.65 -0.7 0.24
1 10.00 1000 -0.134 -8.821 1.049 -19.409 -101.960 37.689 -1231.897 3523.305 -2783.237 -0.587 -0.896 0.001 -0.17 0.64 -0.7 0.25
1 10.01 1001 -0.551 -8.615 0.857 -17.700 -101.837 41.351 -1306.849 3478.334 -2933.289 -0.242 -1.100 0.164 -0.18 0.64 -0.7 0.26
1 10.02 1002 -0.747 -8.481 0.685 -17.029 -103.974 43.518 -1426.920 3403.383 -2783.237 -0.089 -1.231 0.324 -0.19 0.64 -0.69 0.27
1 10.03 1003 -0.781 -8.538 0.565 -18.036 -106.842 47.424 -1424.672 3399.935 -2780.838 -0.105 -1.171 0.434 -0.19 0.64 -0.69 0.27
1 10.04 1004 -0.570 -8.533 0.488 -19.959 -107.392 52.551 -1499.623 3399.935 -2675.907 -0.372 -1.171 0.499 -0.19 0.64 -0.69 0.28
1 10.05 1005 -0.201 -8.888 0.431 -20.538 -103.546 58.563 -1439.662 3505.017 -2765.848 -0.803 -0.812 0.544 -0.2 0.64 -0.68 0.29
1 10.06 1006 0.010 -9.242 0.565 -22.827 -99.823 62.622 -1424.672 3399.935 -2525.854 -1.083 -0.451 0.397 -0.2 0.64 -0.68 0.3
1 10.07 1007 0.215 -9.481 0.637 -24.048 -94.910 64.423 -1424.672 3399.935 -2525.854 -1.359 -0.206 0.308 -0.2 0.64 -0.68 0.3
