COL1	TIME	ACC_X	ACC_Y	ACC_Z	GYR_X	GYR_Y	GYR_Z	MAG_X	MAG_Y	MAG_Z	LACC_X	LACC_Y	LACC_Z	QUAT_X	QUAT_Y	QUAT_Z	QUAT_W
1 0.00 0 0.067 -9.687 2.131 -0.671 -1.129 0.977 231.149 2998.347 -3218.253 -0.115 0.128 0.028 -0.03 -0.62 0.78 0.04
1 0.01 1 -0.134 -9.711 2.059 -1.068 -0.824 0.671 306.101 3223.350 -3413.126 0.086 0.152 0.099 -0.03 -0.62 0.78 0.04
1 0.02 2 -0.057 -9.769 2.150 -0.610 -0.519 0.519 141.208 3088.288 -3173.133 0.010 0.209 0.008 -0.03 -0.62 0.78 0.03
1 0.03 3 -0.019 -9.687 2.208 -1.312 -0.885 0.488 231.149 2923.246 -3218.253 -0.029 0.128 -0.050 -0.03 -0.62 0.78 0.03
1 0.04 4 0.101 -9.625 2.121 -0.671 -0.275 1.099 231.149 2923.246 -3218.253 -0.149 0.065 0.035 -0.03 -0.62 0.78 0.03
1 0.05 5 0.005 -9.697 2.246 -1.251 -0.641 1.160 276.120 3088.288 -3278.214 -0.053 0.137 -0.089 -0.03 -0.62 0.78 0.03
1 0.06 6 0.034 -9.611 2.107 -0.977 -0.824 0.946 336.231 3148.249 -3263.224 -0.082 0.051 0.050 -0.03 -0.62 0.78 0.03
1 0.07 7 -0.067 -9.682 2.140 -1.221 -0.854 0.885 336.231 3148.249 -3263.224 0.019 0.123 0.016 -0.03 -0.62 0.78 0.04
1 0.08 8 -0.110 -9.668 2.064 -1.465 -0.854 1.038 261.130 3043.317 -3188.123 0.062 0.108 0.092 -0.03 -0.62 0.78 0.04
1 0.09 9 -0.144 -9.630 2.145 -1.038 -1.068 0.671 246.140 3133.259 -3203.263 0.095 0.070 0.011 -0.03 -0.62 0.78 0.04
1 0.10 10 -0.072 -9.644 2.227 -0.732 -0.916 1.282 306.101 3193.220 -3293.205 0.022 0.084 -0.071 -0.03 -0.62 0.78 0.04
1 0.11 11 -0.125 -9.639 2.102 -0.641 -1.251 1.465 306.101 3193.220 -3293.205 0.075 0.080 0.054 -0.03 -0.62 0.78 0.04
1 0.12 12 -0.096 -9.587 2.102 -0.488 -1.343 1.343 336.231 3148.249 -3263.224 0.046 0.027 0.054 -0.03 -0.62 0.78 0.04
1 0.13 13 -0.043 -9.682 2.169 -0.763 -2.075 1.190 156.198 3073.298 -3218.253 -0.008 0.123 -0.014 -0.03 -0.62 0.78 0.04
1 0.14 14 0.005 -9.577 2.222 -0.641 -1.495 1.282 156.198 3073.298 -3218.253 -0.056 0.017 -0.067 -0.03 -0.62 0.78 0.04
1 0.15 15 0.105 -9.783 2.078 -0.427 -2.045 1.617 321.091 3283.311 -3203.263 -0.156 0.223 0.077 -0.03 -0.62 0.78 0.04
1 0.16 16 -0.101 -9.687 2.203 -0.214 -1.373 1.007 321.091 3163.239 -3203.263 0.050 0.127 -0.048 -0.03 -0.62 0.78 0.04
1 0.17 17 0.048 -9.716 2.140 -0.793 -1.404 1.801 261.130 3118.269 -3218.253 -0.099 0.156 0.014 -0.03 -0.62 0.78 0.04
1 0.18 18 -0.187 -9.740 2.169 -1.434 -0.946 1.190 261.130 3118.269 -3218.253 0.137 0.180 -0.015 -0.03 -0.62 0.78 0.04
1 0.19 19 -0.120 -9.759 2.164 -1.068 -1.068 1.465 171.188 3133.259 -3203.263 0.070 0.199 -0.011 -0.03 -0.62 0.78 0.04
1 0.20 20 -0.029 -9.654 2.255 -0.427 -1.190 1.465 156.198 3043.317 -3263.224 -0.021 0.093 -0.102 -0.03 -0.62 0.78 0.04
1 0.21 21 0.053 -9.721 2.193 -0.763 -1.343 0.946 156.198 3043.317 -3263.224 -0.103 0.160 -0.040 -0.03 -0.62 0.78 0.03
1 0.22 22 0.019 -9.678 2.102 0.031 -0.763 1.221 231.149 3043.317 -3263.224 -0.069 0.117 0.051 -0.03 -0.62 0.78 0.03
1 0.23 23 -0.010 -9.783 2.246 0.336 -0.122 0.610 201.169 3058.308 -3278.214 -0.040 0.223 -0.092 -0.03 -0.62 0.78 0.03
1 0.24 24 -0.048 -9.606 2.093 0.580 -0.031 1.129 381.202 3043.317 -3188.123 -0.001 0.046 0.063 -0.03 -0.62 0.78 0.04
1 0.25 25 -0.010 -9.750 2.150 -0.122 -0.153 0.854 381.202 3043.317 -3188.123 -0.039 0.190 0.007 -0.03 -0.62 0.78 0.04
1 0.26 26 -0.077 -9.663 2.102 -0.031 -0.366 1.434 201.169 3013.337 -3098.182 0.028 0.104 0.054 -0.03 -0.62 0.78 0.04
1 0.27 27 -0.086 -9.582 2.126 0.244 -0.061 1.221 171.188 3163.239 -3353.166 0.038 0.022 0.031 -0.03 -0.62 0.78 0.04
1 0.28 28 -0.091 -9.697 2.222 0.336 -1.373 0.580 171.188 3163.239 -3353.166 0.042 0.137 -0.065 -0.03 -0.62 0.78 0.04
1 0.29 29 -0.105 -9.673 2.164 0.641 -1.251 1.343 246.140 2983.207 -3278.214 0.056 0.113 -0.008 -0.03 -0.62 0.78 0.04
1 0.30 30 -0.038 -9.635 2.026 1.404 -0.366 0.916 276.120 3163.239 -3278.214 -0.011 0.075 0.133 -0.03 -0.62 0.78 0.04
1 0.31 31 -0.105 -9.730 2.227 2.136 0.031 0.641 276.120 3163.239 -3278.214 0.056 0.172 -0.065 -0.03 -0.62 0.78 0.04
1 0.32 32 0.043 -9.750 2.126 3.448 -0.427 0.244 141.208 2983.207 -3203.263 -0.093 0.192 0.040 -0.03 -0.62 0.78 0.03
1 0.33 33 0.053 -9.807 2.107 3.052 -0.458 0.732 276.120 3163.239 -3173.133 -0.102 0.251 0.064 -0.03 -0.62 0.78 0.03
1 0.34 34 0.005 -9.831 2.184 3.906 -0.488 1.373 306.101 3118.269 -3263.224 -0.054 0.276 -0.007 -0.03 -0.62 0.78 0.04
1 0.35 35 -0.172 -9.740 2.040 3.632 -0.458 1.007 306.101 3118.269 -3263.224 0.124 0.186 0.142 -0.03 -0.62 0.78 0.04
1 0.36 36 0.062 -9.649 2.131 3.265 -1.190 1.251 96.087 3088.288 -3278.214 -0.111 0.098 0.063 -0.03 -0.62 0.78 0.03
1 0.37 37 -0.172 -9.515 2.107 2.380 -0.519 0.610 261.130 3073.298 -3413.126 0.124 -0.035 0.092 -0.03 -0.62 0.78 0.03
1 0.38 38 -0.034 -9.544 2.064 1.556 -1.343 1.282 261.130 3073.298 -3413.126 -0.014 -0.005 0.139 -0.03 -0.62 0.78 0.03
1 0.39 39 -0.048 -9.582 2.021 1.617 -1.099 1.617 276.120 3013.337 -3203.263 0.000 0.034 0.185 -0.03 -0.62 0.78 0.03
1 0.40 40 -0.067 -9.553 2.054 1.282 -0.793 1.862 351.221 3013.337 -3353.166 0.019 0.005 0.154 -0.03 -0.62 0.78 0.04
1 0.41 41 -0.019 -9.620 2.342 1.801 -1.251 2.258 261.130 3193.220 -3218.253 -0.031 0.073 -0.130 -0.03 -0.62 0.78 0.04
1 0.42 42 -0.081 -9.759 2.150 1.221 -1.129 1.404 261.130 3193.220 -3218.253 0.030 0.213 0.064 -0.03 -0.62 0.78 0.03
1 0.43 43 -0.072 -9.654 2.188 1.343 -0.977 1.434 186.179 3148.249 -3218.253 0.020 0.109 0.032 -0.03 -0.62 0.78 0.03
1 0.44 44 0.019 -9.606 2.284 0.916 -1.160 1.770 276.120 3013.337 -3248.234 -0.072 0.061 -0.061 -0.03 -0.62 0.78 0.03
1 0.45 45 0.019 -9.515 2.164 1.007 -0.580 1.801 276.120 3013.337 -3248.234 -0.072 -0.029 0.062 -0.03 -0.62 0.78 0.03
1 0.46 46 -0.053 -9.553 2.184 0.854 -1.068 1.617 321.091 3133.259 -3248.234 -0.001 0.010 0.045 -0.03 -0.62 0.78 0.03
1 0.47 47 -0.096 -9.673 2.112 1.068 -0.458 1.740 231.149 3148.249 -3218.253 0.040 0.130 0.119 -0.03 -0.62 0.78 0.03
1 0.48 48 -0.010 -9.730 2.073 1.770 -0.427 1.312 321.091 3283.311 -3203.263 -0.047 0.188 0.160 -0.03 -0.62 0.78 0.03
1 0.49 49 0.072 -9.687 2.193 2.106 -0.854 1.282 321.091 3283.311 -3203.263 -0.129 0.146 0.042 -0.03 -0.62 0.78 0.03
1 0.50 50 0.158 -9.735 2.265 1.465 -0.275 1.343 156.198 3073.298 -3218.253 -0.215 0.195 -0.023 -0.03 -0.62 0.78 0.03
1 0.51 51 0.019 -9.644 2.222 1.099 -0.214 1.312 156.198 3148.249 -3158.143 -0.076 0.105 0.022 -0.03 -0.62 0.78 0.03
1 0.52 52 -0.139 -9.611 2.294 0.214 -0.275 1.190 156.198 3148.249 -3158.143 0.082 0.072 -0.048 -0.03 -0.62 0.78 0.03
1 0.53 53 -0.091 -9.601 2.332 -0.122 -0.153 1.160 276.120 3253.331 -3278.214 0.034 0.062 -0.085 -0.03 -0.62 0.78 0.03
1 0.54 54 -0.053 -9.630 2.231 -0.824 -0.885 1.526 276.120 3013.337 -3248.234 -0.005 0.091 0.016 -0.03 -0.62 0.78 0.03
1 0.55 55 -0.086 -9.659 2.294 -1.038 -0.732 1.678 261.130 3118.269 -3158.143 0.028 0.120 -0.047 -0.03 -0.62 0.78 0.03
1 0.56 56 -0.005 -9.706 2.246 -0.488 -0.458 1.404 261.130 3118.269 -3158.143 -0.053 0.168 0.001 -0.03 -0.62 0.78 0.03
1 0.57 57 -0.029 -9.697 2.193 0.031 -0.549 1.892 261.130 2953.226 -3338.175 -0.029 0.158 0.054 -0.03 -0.62 0.78 0.03
1 0.58 58 0.043 -9.678 2.294 0.793 -1.556 1.068 261.130 3073.298 -3368.156 -0.101 0.139 -0.045 -0.03 -0.62 0.78 0.03
1 0.59 59 0.053 -9.596 2.303 0.366 -1.282 0.671 261.130 3073.298 -3368.156 -0.110 0.058 -0.054 -0.03 -0.62 0.78 0.03
1 0.60 60 0.019 -9.615 2.351 0.275 -0.427 1.343 276.120 3013.337 -3248.234 -0.077 0.077 -0.102 -0.03 -0.62 0.78 0.03
1 0.61 61 -0.101 -9.548 2.222 -0.183 -0.092 1.190 276.120 3013.337 -3278.214 0.043 0.010 0.028 -0.03 -0.62 0.78 0.03
1 0.62 62 -0.029 -9.572 2.299 -0.214 -0.580 0.153 111.228 3118.269 -3338.175 -0.028 0.034 -0.049 -0.03 -0.62 0.78 0.03
1 0.63 63 -0.086 -9.668 2.289 -0.641 0.427 1.068 111.228 3118.269 -3338.175 0.029 0.130 -0.040 -0.03 -0.62 0.78 0.03
1 0.64 64 -0.043 -9.496 2.346 -1.465 -0.183 1.373 306.101 3043.317 -3413.126 -0.014 -0.043 -0.097 -0.03 -0.62 0.78 0.03
1 0.65 65 -0.014 -9.596 2.270 -1.556 0.031 1.251 201.169 3058.308 -3248.234 -0.043 0.058 -0.021 -0.03 -0.62 0.78 0.03
1 0.66 66 -0.067 -9.687 2.246 -1.373 -0.763 1.160 201.169 3058.308 -3248.234 0.010 0.149 0.002 -0.03 -0.62 0.78 0.03
1 0.67 67 -0.019 -9.649 2.246 -1.526 -0.427 0.824 171.188 3088.288 -3278.214 -0.038 0.110 0.002 -0.03 -0.62 0.78 0.03
1 0.68 68 -0.115 -9.625 2.299 -0.702 -0.977 1.617 246.140 3088.288 -3278.214 0.058 0.086 -0.052 -0.03 -0.62 0.78 0.03
1 0.69 69 -0.053 -9.639 2.241 -1.892 -0.885 1.251 201.169 3088.288 -3383.146 -0.005 0.101 0.006 -0.03 -0.62 0.78 0.03
1 0.70 70 -0.192 -9.625 2.294 -2.045 -0.763 1.099 201.169 3088.288 -3383.146 0.133 0.086 -0.048 -0.03 -0.62 0.78 0.03
1 0.71 71 -0.024 -9.687 2.193 -1.190 -1.526 1.282 156.198 3148.249 -3158.143 -0.034 0.148 0.053 -0.03 -0.62 0.78 0.03
1 0.72 72 -0.057 -9.592 2.260 -0.977 -1.617 1.068 246.140 3058.308 -3383.146 -0.001 0.053 -0.014 -0.03 -0.62 0.78 0.03
1 0.73 73 -0.077 -9.750 2.351 -0.366 -1.068 0.793 246.140 3058.308 -3383.146 0.018 0.211 -0.105 -0.03 -0.62 0.78 0.03
1 0.74 74 -0.034 -9.577 2.193 -0.732 -1.221 0.763 246.140 3013.337 -3098.182 -0.025 0.038 0.052 -0.03 -0.62 0.78 0.03
1 0.75 75 -0.005 -9.773 2.241 -0.702 -1.404 1.404 246.140 3013.337 -3098.182 -0.054 0.234 0.004 -0.03 -0.62 0.78 0.03
1 0.76 76 -0.043 -9.544 2.299 -0.122 -1.129 0.793 171.188 3013.337 -3203.263 -0.015 0.005 -0.053 -0.03 -0.62 0.78 0.03
1 0.77 77 -0.053 -9.692 2.313 -0.397 -0.793 1.465 171.188 3013.337 -3203.263 -0.005 0.153 -0.067 -0.03 -0.62 0.78 0.03
1 0.78 78 -0.096 -9.611 2.361 -0.824 -0.336 0.946 276.120 3058.308 -3203.263 0.038 0.072 -0.115 -0.03 -0.62 0.78 0.03
1 0.79 79 -0.077 -9.615 2.265 -1.312 -0.519 1.160 231.149 2998.347 -3218.253 0.019 0.077 -0.019 -0.03 -0.62 0.78 0.03
1 0.80 80 -0.034 -9.692 2.322 -1.526 -0.916 1.434 231.149 2998.347 -3218.253 -0.024 0.153 -0.075 -0.03 -0.62 0.78 0.03
1 0.81 81 -0.110 -9.702 2.428 -1.831 -1.221 1.892 186.179 3148.249 -3443.257 0.052 0.163 -0.180 -0.03 -0.62 0.78 0.03
1 0.82 82 -0.053 -9.673 2.366 -1.495 -1.465 1.373 186.179 3148.249 -3443.257 -0.006 0.134 -0.118 -0.03 -0.62 0.78 0.03
1 0.83 83 0.139 -9.577 2.389 -1.343 -2.136 1.862 261.130 3118.269 -3218.253 -0.198 0.039 -0.142 -0.03 -0.62 0.78 0.03
1 0.84 84 0.120 -9.587 2.409 -2.838 -1.617 0.946 261.130 3118.269 -3218.253 -0.179 0.048 -0.160 -0.03 -0.62 0.78 0.03
1 0.85 85 0.062 -9.462 2.356 -3.754 -0.671 0.916 276.120 3208.210 -3173.133 -0.121 -0.077 -0.110 -0.03 -0.62 0.78 0.03
1 0.86 86 0.067 -9.668 2.346 -3.204 0.641 1.190 231.149 3193.220 -3218.253 -0.124 0.129 -0.103 -0.03 -0.62 0.78 0.03
1 0.87 87 0.153 -9.721 2.303 -3.082 1.160 0.366 231.149 3193.220 -3218.253 -0.210 0.180 -0.066 -0.03 -0.62 0.78 0.03
1 0.88 88 0.091 -9.635 2.260 -3.723 0.702 -0.885 246.140 3133.259 -3353.166 -0.146 0.093 -0.026 -0.03 -0.62 0.78 0.03
1 0.89 89 0.350 -9.721 2.275 -3.723 -0.824 -2.197 246.140 3133.259 -3353.166 -0.402 0.178 -0.045 -0.03 -0.62 0.78 0.03
1 0.90 90 0.560 -9.726 2.346 -3.387 -0.732 -2.350 186.179 3148.249 -3263.224 -0.606 0.182 -0.121 -0.03 -0.62 0.78 0.03
1 0.91 91 0.594 -9.783 2.495 -0.610 2.716 -4.425 231.149 3073.298 -3338.175 -0.629 0.238 -0.272 -0.03 -0.62 0.78 0.04
1 0.92 92 0.326 -9.773 2.409 1.373 3.937 -6.134 306.101 3148.249 -3083.191 -0.350 0.229 -0.185 -0.03 -0.62 0.78 0.04
1 0.93 93 0.244 -9.932 2.519 2.441 3.418 -8.270 171.188 3013.337 -3278.214 -0.255 0.388 -0.291 -0.03 -0.62 0.78 0.04
1 0.94 94 0.144 -9.941 2.461 2.777 0.610 -9.125 171.188 3013.337 -3278.214 -0.125 0.400 -0.222 -0.03 -0.62 0.78 0.04
1 0.95 95 0.072 -9.932 2.471 3.326 -0.366 -8.606 201.169 3208.210 -3248.234 -0.038 0.393 -0.224 -0.03 -0.62 0.78 0.04
1 0.96 96 0.263 -9.778 2.504 4.700 -0.702 -6.958 201.169 3208.210 -3248.234 -0.216 0.241 -0.251 -0.03 -0.62 0.78 0.04
1 0.97 97 0.148 -9.596 2.485 5.341 -1.129 -6.989 276.120 3133.259 -3203.263 -0.088 0.061 -0.222 -0.03 -0.62 0.78 0.04
1 0.98 98 0.125 -9.687 2.346 2.777 -3.082 -4.150 261.130 3073.298 -3158.143 -0.052 0.155 -0.073 -0.03 -0.62 0.78 0.04
1 0.99 99 0.737 -9.252 2.284 3.418 -8.057 -0.977 246.140 3058.308 -3383.146 -0.659 -0.280 -0.006 -0.03 -0.62 0.78 0.04
1 1.00 100 0.824 -9.127 2.279 2.411 -5.981 0.854 306.101 3073.298 -3293.205 -0.737 -0.403 0.003 -0.03 -0.62 0.78 0.04
1 1.01 101 0.680 -9.156 2.222 1.129 -1.221 2.472 306.101 3073.298 -3293.205 -0.585 -0.373 0.066 -0.03 -0.62 0.78 0.04
1 1.02 102 0.575 -9.070 2.093 -1.740 4.059 5.524 246.140 2983.207 -3278.214 -0.476 -0.458 0.200 -0.03 -0.62 0.78 0.04
1 1.03 103 0.594 -9.218 1.963 -2.777 4.303 6.928 246.140 2983.207 -3278.214 -0.500 -0.310 0.327 -0.03 -0.62 0.78 0.04
1 1.04 104 0.752 -9.256 1.748 -1.953 1.251 7.538 321.091 3133.259 -3323.185 -0.664 -0.273 0.538 -0.03 -0.62 0.78 0.04
1 1.05 105 0.733 -9.232 1.686 0.397 -0.458 8.637 156.198 3148.249 -3263.224 -0.651 -0.298 0.596 -0.03 -0.62 0.78 0.04
1 1.06 106 1.149 -9.175 1.791 3.815 5.859 10.529 261.130 2998.347 -3188.123 -1.075 -0.356 0.491 -0.03 -0.62 0.78 0.04
1 1.07 107 0.886 -9.371 1.915 1.251 12.421 10.712 276.120 3163.239 -3353.166 -0.820 -0.158 0.369 -0.03 -0.62 0.78 0.04
1 1.08 108 0.848 -9.572 1.786 -3.448 16.510 9.979 276.120 3163.239 -3353.166 -0.792 0.043 0.500 -0.03 -0.62 0.78 0.04
1 1.09 109 0.397 -9.860 1.743 -7.629 15.472 10.193 201.169 3163.239 -3248.234 -0.367 0.326 0.528 -0.03 -0.62 0.78 0.04
1 1.10 110 0.287 -9.912 1.623 -5.280 12.787 8.026 201.169 3163.239 -3248.234 -0.271 0.376 0.634 -0.03 -0.62 0.78 0.04
1 1.11 111 0.388 -10.046 1.638 -2.838 11.658 4.883 276.120 3088.288 -3173.133 -0.383 0.508 0.610 -0.03 -0.62 0.78 0.04
1 1.12 112 0.369 -10.281 1.767 -4.303 11.627 5.646 156.198 3073.298 -3188.123 -0.371 0.740 0.473 -0.03 -0.62 0.78 0.04
1 1.13 113 0.235 -10.152 1.882 -7.233 11.261 4.913 261.130 3193.220 -3338.175 -0.246 0.609 0.347 -0.03 -0.62 0.78 0.04
1 1.14 114 0.201 -10.176 1.863 -8.881 8.728 3.815 351.221 2908.255 -3383.146 -0.220 0.630 0.353 -0.04 -0.62 0.78 0.04
1 1.15 115 0.153 -10.152 1.757 -7.263 7.721 3.021 351.221 2908.255 -3383.146 -0.178 0.602 0.444 -0.04 -0.62 0.78 0.04
1 1.16 116 0.067 -10.171 1.724 -6.409 6.714 1.678 351.221 2983.207 -3278.214 -0.100 0.615 0.451 -0.04 -0.62 0.78 0.04
1 1.17 117 -0.024 -10.061 1.882 -6.195 7.111 2.380 351.221 2983.207 -3278.214 -0.011 0.503 0.281 -0.04 -0.62 0.78 0.04
1 1.18 118 -0.129 -10.094 1.824 -5.280 4.761 2.075 246.140 3058.308 -3323.185 0.090 0.534 0.328 -0.04 -0.62 0.78 0.04
1 1.19 119 -0.211 -10.022 2.006 -4.425 2.808 2.930 351.221 3133.259 -3428.267 0.167 0.460 0.136 -0.04 -0.62 0.78 0.05
1 1.20 120 -0.283 -9.773 1.920 -2.258 1.770 4.608 441.163 3118.269 -3218.253 0.233 0.209 0.215 -0.04 -0.62 0.78 0.05
1 1.21 121 -0.340 -9.625 1.982 -2.289 1.190 4.852 396.192 3058.308 -3248.234 0.283 0.060 0.148 -0.04 -0.62 0.78 0.05
1 1.22 122 -0.546 -9.606 1.930 -3.082 -0.610 7.050 396.192 3058.308 -3248.234 0.481 0.040 0.197 -0.04 -0.62 0.78 0.05
1 1.23 123 -0.340 -9.639 1.930 -3.448 -0.214 7.965 321.091 3133.259 -3278.214 0.265 0.072 0.192 -0.04 -0.62 0.78 0.04
1 1.24 124 -0.464 -9.596 1.848 -3.204 1.160 7.599 321.091 3133.259 -3278.214 0.363 0.027 0.264 -0.04 -0.62 0.78 0.04
1 1.25 125 -0.412 -9.467 1.968 -3.845 -2.472 8.362 471.143 3058.308 -3248.234 0.298 -0.103 0.139 -0.04 -0.63 0.78 0.04
1 1.26 126 -0.311 -9.414 1.925 -3.662 -3.784 8.331 306.101 3118.269 -3263.224 0.184 -0.157 0.178 -0.04 -0.63 0.78 0.04
1 1.27 127 -0.402 -9.568 1.935 -2.441 -2.655 6.805 306.101 3043.317 -3158.143 0.264 -0.004 0.163 -0.04 -0.63 0.78 0.04
1 1.28 128 -0.460 -9.764 1.982 -1.190 -2.228 5.249 381.202 3073.298 -3413.126 0.312 0.191 0.112 -0.04 -0.63 0.78 0.04
1 1.29 129 -0.306 -9.740 1.944 -1.068 -2.106 5.157 381.202 3073.298 -3413.126 0.151 0.167 0.148 -0.04 -0.63 0.78 0.04
1 1.30 130 -0.421 -9.764 1.872 -1.526 -2.472 3.723 201.169 3058.308 -3323.185 0.258 0.191 0.219 -0.04 -0.63 0.78 0.04
1 1.31 131 -0.488 -9.663 1.911 0.610 -1.923 1.404 201.169 3058.308 -3323.185 0.316 0.090 0.177 -0.04 -0.63 0.78 0.04
1 1.32 132 -0.599 -9.788 1.906 2.869 -2.106 -0.122 426.172 3058.308 -3323.185 0.425 0.215 0.184 -0.04 -0.63 0.78 0.04
1 1.33 133 -0.666 -9.783 1.868 4.181 -1.801 0.122 411.182 2953.226 -3188.123 0.491 0.211 0.226 -0.04 -0.63 0.78 0.04
1 1.34 134 -0.781 -9.879 1.767 5.890 -3.357 0.458 411.182 2953.226 -3188.123 0.604 0.308 0.332 -0.04 -0.63 0.78 0.04
1 1.35 135 -0.733 -9.936 1.801 6.744 -5.371 2.441 246.140 3133.259 -3173.133 0.554 0.367 0.306 -0.04 -0.63 0.78 0.04
1 1.36 136 -0.670 -9.912 1.690 7.751 -6.042 3.967 246.140 3133.259 -3173.133 0.487 0.345 0.424 -0.04 -0.62 0.78 0.04
1 1.37 137 -0.608 -10.032 1.810 6.165 -6.287 4.700 396.192 3088.288 -3203.263 0.419 0.467 0.315 -0.04 -0.62 0.78 0.04
1 1.38 138 -0.651 -10.066 1.949 5.249 -7.599 9.125 396.192 3088.288 -3203.263 0.445 0.504 0.190 -0.04 -0.62 0.78 0.04
1 1.39 139 -0.637 -9.975 1.935 4.272 -6.775 10.559 321.091 3163.239 -3383.146 0.418 0.415 0.210 -0.04 -0.62 0.78 0.04
1 1.40 140 -0.570 -9.989 1.939 3.265 -3.998 12.451 276.120 3088.288 -3278.214 0.336 0.431 0.210 -0.04 -0.62 0.78 0.04
1 1.41 141 -0.690 -9.922 1.805 2.655 -2.258 12.543 276.120 3088.288 -3278.214 0.437 0.365 0.348 -0.04 -0.62 0.78 0.03
1 1.42 142 -0.886 -9.903 1.834 1.251 -4.272 13.336 306.101 3193.220 -3263.224 0.614 0.347 0.322 -0.04 -0.62 0.78 0.03
1 1.43 143 -0.862 -9.596 1.695 1.129 -4.334 14.008 306.101 3193.220 -3263.224 0.569 0.041 0.461 -0.05 -0.62 0.78 0.03
1 1.44 144 -0.891 -9.505 1.724 0.824 -3.662 14.648 486.133 3298.301 -3218.253 0.577 -0.050 0.431 -0.05 -0.62 0.78 0.03
1 1.45 145 -1.015 -9.429 1.451 0.488 -0.549 13.641 486.133 3298.301 -3218.253 0.679 -0.126 0.703 -0.05 -0.62 0.78 0.03
1 1.46 146 -0.972 -9.386 1.346 -1.221 -0.397 13.214 426.172 3208.210 -3278.214 0.589 -0.168 0.803 -0.05 -0.62 0.78 0.03
1 1.47 147 -1.101 -9.553 1.307 -1.465 -2.289 14.465 351.221 3013.337 -3353.166 0.697 -0.001 0.835 -0.05 -0.62 0.78 0.03
1 1.48 148 -1.192 -9.438 1.264 -1.068 -4.456 14.526 351.221 3013.337 -3353.166 0.764 -0.117 0.871 -0.05 -0.62 0.78 0.03
1 1.49 149 -1.183 -9.453 1.379 0.244 -5.829 12.970 471.143 2983.207 -3203.263 0.730 -0.102 0.751 -0.05 -0.62 0.78 0.03
1 1.50 150 -1.427 -9.946 1.322 0.397 -7.080 14.862 471.143 2983.207 -3203.263 0.953 0.391 0.805 -0.05 -0.62 0.78 0.02
1 1.51 151 -1.432 -9.999 1.547 -0.031 -10.468 16.968 351.221 3013.337 -3068.201 0.934 0.444 0.577 -0.05 -0.62 0.78 0.02
1 1.52 152 -1.350 -9.912 1.441 0.916 -11.658 16.571 351.221 3013.337 -3068.201 0.826 0.359 0.679 -0.05 -0.62 0.78 0.02
1 1.53 153 -1.427 -9.869 1.499 2.686 -13.519 17.090 426.172 3133.259 -3323.185 0.852 0.318 0.618 -0.05 -0.62 0.78 0.02
1 1.54 154 -1.508 -9.735 1.528 2.594 -15.167 18.066 486.133 3118.269 -3218.253 0.908 0.186 0.590 -0.05 -0.62 0.78 0.02
1 1.55 155 -1.379 -9.706 1.523 1.373 -16.968 18.463 486.133 3118.269 -3218.253 0.751 0.159 0.597 -0.05 -0.62 0.78 0.01
1 1.56 156 -1.374 -9.630 1.461 -0.610 -18.585 17.487 516.114 3118.269 -3263.224 0.720 0.084 0.659 -0.05 -0.62 0.78 0.01
1 1.57 157 -1.283 -9.769 1.413 -4.089 -19.043 18.433 516.114 3118.269 -3263.224 0.606 0.224 0.703 -0.05 -0.62 0.78 0.01
1 1.58 158 -1.030 -9.706 1.499 -4.913 -18.738 18.005 411.182 2998.347 -3083.191 0.329 0.161 0.609 -0.05 -0.62 0.78 0.01
1 1.59 159 -0.728 -9.668 1.566 -5.737 -18.524 18.433 411.182 2998.347 -3083.191 0.005 0.123 0.532 -0.05 -0.62 0.78 0.01
1 1.60 160 -0.713 -9.520 1.551 -5.676 -15.900 17.212 351.221 3058.308 -3248.234 -0.050 -0.027 0.528 -0.05 -0.63 0.78 0
1 1.61 161 -0.565 -9.735 1.542 -4.578 -14.496 16.052 396.192 3013.337 -3278.214 -0.216 0.188 0.528 -0.05 -0.63 0.78 0
1 1.62 162 -0.464 -9.663 1.499 -2.594 -13.519 15.991 396.192 3013.337 -3278.214 -0.333 0.116 0.564 0.05 0.63 -0.78 0
1 1.63 163 -0.426 -9.654 1.360 0.183 -11.536 15.167 396.192 3208.210 -3248.234 -0.387 0.107 0.698 0.05 0.63 -0.78 0
1 1.64 164 -0.541 -9.697 1.547 0.427 -8.881 14.191 381.202 3148.249 -3263.224 -0.286 0.151 0.510 0.05 0.63 -0.78 0
1 1.65 165 -0.575 -9.697 1.614 2.930 -6.805 12.726 381.202 3148.249 -3338.175 -0.267 0.152 0.441 0.05 0.63 -0.78 0.01
1 1.66 166 -0.608 -9.611 1.700 3.876 -6.134 12.024 381.202 3148.249 -3338.175 -0.246 0.067 0.356 0.05 0.63 -0.78 0.01
1 1.67 167 -0.895 -9.630 1.532 3.326 -5.188 10.864 486.133 3118.269 -3263.224 0.028 0.088 0.528 0.05 0.63 -0.78 0.01
1 1.68 168 -0.919 -9.625 1.508 3.143 -5.280 9.460 426.172 3133.259 -3278.214 0.027 0.087 0.557 0.05 0.63 -0.78 0.01
1 1.69 169 -0.919 -9.625 1.532 4.486 -3.784 9.003 426.172 3133.259 -3278.214 0.016 0.088 0.535 0.05 0.63 -0.78 0.01
1 1.70 170 -1.106 -9.486 1.489 3.296 -2.991 8.301 486.133 2953.226 -3218.253 0.191 -0.049 0.582 0.05 0.63 -0.78 0.01
1 1.71 171 -1.106 -9.553 1.355 2.716 -1.984 8.820 381.202 2953.226 -3083.191 0.180 0.020 0.718 0.05 0.63 -0.78 0.01
1 1.72 172 -1.039 -9.596 1.216 4.791 -0.977 8.575 396.192 2938.236 -3203.263 0.100 0.064 0.857 0.05 0.63 -0.78 0.01
1 1.73 173 -1.006 -9.635 1.355 6.622 0.488 9.125 396.192 2938.236 -3203.263 0.054 0.104 0.720 0.05 0.63 -0.78 0.01
1 1.74 174 -1.116 -9.448 1.494 7.507 1.312 7.965 381.202 3148.249 -3263.224 0.151 -0.080 0.586 0.05 0.63 -0.78 0.01
1 1.75 175 -1.121 -9.467 1.384 6.531 2.594 6.653 411.182 3118.269 -3293.205 0.133 -0.056 0.709 0.05 0.62 -0.78 0.01
1 1.76 176 -1.255 -9.429 1.317 7.050 2.411 5.615 411.182 3118.269 -3293.205 0.257 -0.092 0.781 0.05 0.62 -0.78 0.01
1 1.77 177 -1.427 -9.520 1.422 7.263 2.930 6.226 576.225 2983.207 -3353.166 0.419 0.001 0.681 0.06 0.62 -0.78 0.01
1 1.78 178 -1.590 -9.611 1.255 6.958 3.235 5.768 486.133 2953.226 -3293.205 0.570 0.095 0.855 0.06 0.62 -0.78 0.01
1 1.79 179 -1.666 -9.730 1.097 6.744 0.977 6.439 471.143 3013.337 -3203.263 0.634 0.217 1.017 0.06 0.62 -0.78 0.01
1 1.80 180 -1.767 -9.759 1.097 7.721 0.275 6.439 471.143 3013.337 -3203.263 0.721 0.248 1.021 0.06 0.62 -0.78 0.01
1 1.81 181 -1.762 -9.884 1.092 7.416 -0.641 6.317 486.133 3118.269 -3188.123 0.703 0.375 1.030 0.06 0.62 -0.78 0.01
1 1.82 182 -1.796 -9.793 1.144 7.294 -2.014 5.310 321.091 3013.337 -3353.166 0.711 0.289 0.985 0.06 0.62 -0.78 0.02
1 1.83 183 -1.801 -9.903 1.010 7.233 -2.380 4.730 321.091 3013.337 -3353.166 0.705 0.401 1.123 0.06 0.62 -0.78 0.02
1 1.84 184 -1.930 -9.793 1.053 6.165 -2.686 3.754 396.192 3013.337 -3278.214 0.824 0.292 1.083 0.06 0.62 -0.78 0.02
1 1.85 185 -2.054 -9.927 1.063 5.402 -2.655 2.686 651.176 3058.308 -3203.263 0.939 0.428 1.074 0.06 0.62 -0.78 0.02
1 1.86 186 -2.313 -9.917 0.948 5.920 -4.120 0.092 396.941 3059.057 -3429.166 1.190 0.419 1.190 0.06 0.62 -0.78 0.02
1 1.87 187 -2.615 -10.013 0.838 5.737 -6.683 -1.953 396.941 3059.057 -3429.166 1.486 0.516 1.301 0.06 0.62 -0.78 0.02
1 1.88 188 -2.586 -10.128 0.776 3.571 -9.125 -4.181 471.893 3059.057 -3279.264 1.454 0.631 1.363 0.06 0.62 -0.78 0.02
1 1.89 189 -2.720 -10.171 0.848 1.465 -12.329 -4.913 396.941 3089.038 -3354.215 1.586 0.674 1.290 0.06 0.62 -0.78 0.02
1 1.90 190 -2.873 -10.219 0.661 -2.289 -17.304 -5.524 396.941 3089.038 -3354.215 1.742 0.719 1.463 0.06 0.62 -0.78 0.02
1 1.91 191 -2.816 -10.152 0.570 -3.998 -21.332 -4.761 426.922 2984.106 -3324.234 1.687 0.649 1.543 0.06 0.62 -0.78 0.02
1 1.92 192 -2.830 -10.133 0.546 -5.951 -25.513 -5.219 501.873 2984.106 -3279.264 1.704 0.627 1.554 0.06 0.62 -0.78 0.02
1 1.93 193 -2.806 -10.166 0.479 -7.629 -30.274 -3.510 351.821 3014.086 -3384.195 1.684 0.656 1.605 0.05 0.63 -0.78 0.02
1 1.94 194 -2.050 -10.056 0.484 -9.430 -37.354 -2.655 351.821 3014.086 -3384.195 0.932 0.542 1.582 0.05 0.63 -0.78 0.03
1 1.95 195 -1.652 -9.955 0.412 -10.254 -39.276 -2.594 381.951 2954.125 -3264.273 0.541 0.436 1.634 0.05 0.63 -0.78 0.03
1 1.96 196 -1.192 -9.960 0.378 -11.383 -37.445 -1.831 381.951 2879.024 -3294.254 0.093 0.435 1.648 0.05 0.63 -0.78 0.03
1 1.97 197 -0.776 -9.831 0.402 -11.505 -30.029 -3.693 381.951 2879.024 -3294.254 -0.297 0.294 1.580 0.04 0.63 -0.77 0.03
1 1.98 198 -0.713 -9.955 1.451 -11.597 -24.719 -4.791 381.951 2954.125 -3264.273 -0.341 0.411 0.507 0.04 0.63 -0.77 0.03
1 1.99 199 -0.608 -11.076 1.346 -8.240 -30.029 -0.946 336.831 3074.047 -3189.172 -0.429 1.526 0.594 0.04 0.63 -0.77 0.03
1 2.00 200 -0.182 -12.460 2.361 -12.604 -39.032 14.496 201.319 3013.337 -3532.898 -0.846 2.908 -0.428 0.04 0.63 -0.77 0.04
1 2.01 201 0.919 -12.604 3.146 -16.541 -22.308 19.806 201.319 3013.337 -3532.898 -1.960 3.049 -1.230 0.04 0.63 -0.77 0.04
1 2.02 202 1.212 -12.422 2.174 -12.909 -4.211 20.844 276.420 2863.285 -3247.934 -2.273 2.865 -0.279 0.04 0.63 -0.77 0.04
1 2.03 203 1.125 -11.038 2.069 -6.134 9.796 10.803 201.319 2938.386 -3247.934 -2.213 1.481 -0.191 0.04 0.63 -0.77 0.04
1 2.04 204 0.316 -10.233 2.140 5.859 28.870 -3.326 201.319 2938.386 -3247.934 -1.433 0.677 -0.275 0.04 0.64 -0.77 0.04
1 2.05 205 -0.297 -10.166 2.385 -2.533 34.332 -6.470 276.420 2983.356 -3202.963 -0.808 0.610 -0.516 0.04 0.63 -0.77 0.04
1 2.06 206 -0.819 -10.123 2.591 -12.909 40.772 -11.292 231.299 2998.347 -3217.954 -0.277 0.563 -0.733 0.04 0.64 -0.77 0.04
1 2.07 207 -1.149 -10.176 2.691 -16.480 46.509 -18.921 231.299 2998.347 -3217.954 0.067 0.610 -0.856 0.04 0.64 -0.77 0.04
1 2.08 208 -2.198 -10.243 2.509 -18.524 43.884 -29.114 202.668 2985.155 -3130.710 1.134 0.670 -0.700 0.04 0.64 -0.77 0.03
1 2.09 209 -2.734 -9.702 2.634 -20.660 32.684 -31.036 307.750 2955.025 -3220.652 1.695 0.121 -0.852 0.04 0.64 -0.77 0.03
1 2.10 210 -2.696 -9.050 2.811 -19.531 20.264 -29.633 262.629 3120.067 -3190.671 1.684 -0.538 -1.058 0.05 0.64 -0.77 0.03
1 2.11 211 -2.327 -8.399 3.156 -18.524 8.637 -27.283 262.629 3120.067 -3190.671 1.342 -1.197 -1.428 0.05 0.64 -0.77 0.02
1 2.12 212 -2.169 -7.671 3.180 -9.064 -3.082 -20.325 232.648 3045.116 -3160.691 1.236 -1.935 -1.478 0.04 0.64 -0.77 0.02
1 2.13 213 -1.820 -7.259 2.950 1.251 -13.489 -17.365 322.740 3135.058 -3130.710 0.912 -2.349 -1.249 0.04 0.64 -0.77 0.02
1 2.14 214 -1.030 -7.006 2.935 13.245 -24.689 -11.932 322.740 3135.058 -3130.710 0.152 -2.604 -1.226 0.04 0.64 -0.77 0.02
1 2.15 215 -0.172 -6.948 2.878 22.858 -30.457 -5.585 322.740 3015.136 -3130.710 -0.681 -2.659 -1.140 0.04 0.64 -0.77 0.02
1 2.16 216 0.785 -7.327 2.883 18.677 -24.628 6.287 187.678 3000.146 -3115.720 -1.623 -2.274 -1.105 0.04 0.64 -0.77 0.02
1 2.17 217 1.216 -8.064 2.682 1.190 -15.320 12.451 142.707 3015.136 -3070.750 -2.053 -1.530 -0.868 0.04 0.64 -0.77 0.02
1 2.18 218 1.733 -9.362 3.223 -12.329 -0.702 13.306 142.707 3015.136 -3070.750 -2.581 -0.229 -1.397 0.04 0.64 -0.77 0.02
1 2.19 219 1.226 -11.090 2.921 -4.486 22.675 8.179 202.668 3135.058 -3130.710 -2.091 1.497 -1.113 0.04 0.64 -0.77 0.03
1 2.20 220 0.474 -10.961 2.677 8.179 21.576 0.397 202.668 2985.155 -3130.710 -1.354 1.369 -0.873 0.04 0.64 -0.77 0.02
1 2.21 221 -0.019 -9.955 2.849 15.656 16.388 -4.486 202.668 2985.155 -3130.710 -0.864 0.366 -1.032 0.04 0.64 -0.77 0.02
1 2.22 222 -0.469 -8.734 2.773 15.045 13.672 -11.719 262.629 3045.116 -3115.720 -0.404 -0.851 -0.929 0.04 0.64 -0.77 0.02
1 2.23 223 -1.264 -8.672 2.476 -5.524 12.024 -16.449 307.750 2955.025 -3160.691 0.411 -0.910 -0.608 0.04 0.63 -0.77 0.02
1 2.24 224 -1.298 -9.199 1.796 -14.374 6.165 -16.113 232.648 2880.074 -3160.691 0.466 -0.385 0.076 0.04 0.63 -0.77 0.02
1 2.25 225 -1.154 -9.515 1.537 -11.017 -3.296 -15.747 232.648 2880.074 -3160.691 0.342 -0.073 0.319 0.04 0.64 -0.77 0.02
1 2.26 226 -0.168 -9.194 1.614 2.777 -14.862 -17.395 277.619 2985.155 -3070.750 -0.597 -0.402 0.221 0.04 0.64 -0.77 0.02
1 2.27 227 0.340 -8.969 1.930 1.617 -14.221 -18.402 262.629 3045.116 -3085.740 -1.071 -0.629 -0.089 0.03 0.64 -0.77 0.02
1 2.28 228 0.407 -8.955 1.963 -6.866 -7.172 -19.226 262.629 3045.116 -3085.740 -1.098 -0.646 -0.120 0.03 0.64 -0.77 0.02
1 2.29 229 0.359 -9.366 1.801 -16.235 -0.580 -20.599 262.629 2805.123 -3190.671 -1.011 -0.239 0.032 0.03 0.64 -0.77 0.01
1 2.30 230 -0.158 -9.888 1.518 -13.977 -1.251 -20.172 157.697 3000.146 -3160.691 -0.454 0.276 0.292 0.03 0.64 -0.77 0.01
1 2.31 231 -0.316 -9.932 1.484 -6.989 -5.829 -18.158 172.688 3165.038 -3205.662 -0.260 0.313 0.302 0.03 0.64 -0.77 0.01
1 2.32 232 -0.081 -9.692 1.408 -0.916 -10.407 -17.670 172.688 3165.038 -3205.662 -0.462 0.069 0.365 0.03 0.64 -0.77 0.01
1 2.33 233 0.215 -9.357 1.379 2.563 -13.092 -15.839 157.697 2925.044 -3085.740 -0.727 -0.269 0.390 0.03 0.64 -0.77 0.01
1 2.34 234 0.627 -9.295 1.432 4.364 -11.353 -12.543 22.635 2940.035 -3070.750 -1.076 -0.332 0.346 0.02 0.64 -0.77 0.01
1 2.35 235 0.915 -8.964 1.183 3.204 -6.287 -11.627 22.635 2940.035 -3070.750 -1.334 -0.663 0.600 0.02 0.64 -0.77 0.01
1 2.36 236 0.919 -9.046 1.250 2.930 -2.319 -12.421 22.635 2940.035 -3100.730 -1.309 -0.582 0.536 0.02 0.64 -0.77 0.01
1 2.37 237 1.111 -9.132 1.202 1.465 0.549 -12.268 112.727 3120.067 -3040.619 -1.471 -0.497 0.585 0.02 0.64 -0.77 0.01
1 2.38 238 0.953 -8.959 1.025 3.265 2.991 -12.207 7.645 3045.116 -3040.619 -1.284 -0.671 0.762 0.02 0.64 -0.77 0.01
1 2.39 239 0.943 -8.912 1.006 4.669 5.554 -11.231 7.645 3045.116 -3040.619 -1.246 -0.719 0.781 0.02 0.64 -0.77 0.01
1 2.40 240 1.140 -8.806 0.809 1.495 8.209 -10.254 7.645 3000.146 -2980.658 -1.391 -0.826 0.981 0.01 0.64 -0.77 0
1 2.41 241 1.135 -8.897 0.728 -0.122 9.399 -10.101 -52.166 2835.103 -3175.681 -1.363 -0.736 1.059 0.01 0.64 -0.77 0
1 2.42 242 1.240 -8.433 0.637 -4.669 10.040 -6.012 -52.166 2835.103 -3175.681 -1.452 -1.202 1.144 0.01 0.64 -0.77 0
1 2.43 243 1.384 -8.107 0.584 -10.376 10.254 -3.021 -127.117 3060.106 -3070.750 -1.590 -1.529 1.189 -0.01 -0.64 0.77 0
1 2.44 244 1.542 -8.006 0.441 -19.989 12.024 -0.397 187.678 3045.116 -3115.720 -1.746 -1.633 1.315 -0.01 -0.64 0.77 0
1 2.45 245 2.030 -8.476 0.354 -33.539 20.844 1.617 97.736 2940.035 -3070.750 -2.236 -1.169 1.369 -0.01 -0.64 0.77 0
1 2.46 246 2.212 -8.998 0.215 -37.354 31.952 2.411 97.736 2940.035 -3070.750 -2.424 -0.655 1.462 -0.02 -0.64 0.77 0
1 2.47 247 2.294 -9.544 0.215 -35.034 42.297 1.862 22.635 3015.136 -3175.681 -2.505 -0.119 1.403 -0.02 -0.65 0.76 0
1 2.48 248 2.356 -10.616 0.579 -25.574 52.307 0.671 -127.117 3165.038 -3025.629 -2.552 0.934 0.922 -0.02 -0.65 0.76 0.01
1 2.49 249 2.073 -10.937 0.675 -22.705 57.312 -1.740 -127.117 3165.038 -3025.629 -2.272 1.249 0.785 -0.02 -0.65 0.76 0.01
1 2.50 250 1.743 -11.469 0.891 -24.017 60.456 -3.387 82.746 3045.116 -2980.658 -1.949 1.775 0.534 -0.03 -0.65 0.76 0.01
1 2.51 251 1.317 -11.617 0.809 -23.438 63.996 -6.928 82.746 3045.116 -2980.658 -1.529 1.918 0.579 -0.03 -0.65 0.76 0.02
1 2.52 252 0.297 -11.579 0.699 -21.027 64.881 -7.874 82.746 3000.146 -3010.639 -0.510 1.875 0.654 -0.03 -0.66 0.75 0.02
1 2.53 253 -0.532 -11.651 0.388 -18.219 59.357 -10.254 82.746 3000.146 -3010.639 0.318 1.942 0.932 -0.04 -0.66 0.75 0.02
1 2.54 254 -0.895 -11.464 0.048 -14.191 48.126 -9.644 172.688 3060.106 -2920.697 0.686 1.751 1.243 -0.04 -0.66 0.75 0.03
1 2.55 255 -0.948 -10.923 -0.555 -4.120 28.107 -7.538 277.619 3090.087 -3100.730 0.751 1.205 1.809 -0.04 -0.66 0.75 0.03
1 2.56 256 -0.804 -10.722 -0.642 1.160 18.158 -2.869 277.619 3090.087 -3100.730 0.614 1.004 1.892 -0.04 -0.66 0.75 0.04
1 2.57 257 -0.488 -10.386 -0.718 2.411 13.489 1.923 232.648 3045.116 -2830.756 0.296 0.668 1.964 -0.05 -0.66 0.75 0.04
1 2.58 258 -0.206 -10.252 -0.287 -5.585 14.618 5.798 232.648 3045.116 -2830.756 0.005 0.532 1.521 -0.05 -0.66 0.75 0.04
1 2.59 259 -0.077 -10.947 1.480 -17.273 22.705 7.477 262.629 3300.100 -2905.707 -0.136 1.224 -0.272 -0.05 -0.66 0.75 0.04
1 2.60 260 -0.455 -13.216 1.944 -26.733 39.765 -29.144 262.629 3300.100 -2905.707 0.233 3.490 -0.764 -0.05 -0.66 0.75 0.04
1 2.61 261 -2.155 -14.629 2.615 -40.192 20.416 -38.635 232.648 3045.116 -2755.655 1.959 4.898 -1.469 -0.05 -0.66 0.75 0.04
1 2.62 262 -2.385 -14.998 1.556 -29.175 -2.167 -39.337 262.629 3150.048 -2935.688 2.242 5.260 -0.468 -0.05 -0.66 0.74 0.04
1 2.63 263 -1.614 -14.394 0.718 -6.226 -27.374 -39.185 262.629 3150.048 -2935.688 1.599 4.647 0.296 -0.04 -0.67 0.74 0.05
1 2.64 264 -1.188 -12.848 1.623 7.385 -39.703 -21.545 337.730 3150.048 -2785.635 1.231 3.100 -0.612 -0.04 -0.67 0.74 0.05
1 2.65 265 -0.393 -11.722 1.968 4.669 -46.570 -17.334 337.730 3150.048 -2785.635 0.473 1.976 -0.944 -0.04 -0.67 0.74 0.05
1 2.66 266 0.436 -11.148 2.615 -8.087 -56.336 -7.416 39.274 3122.316 -2758.503 -0.323 1.402 -1.587 -0.03 -0.67 0.74 0.05
1 2.67 267 1.259 -10.109 3.390 -18.433 -52.185 17.578 39.274 3122.316 -2758.503 -1.132 0.362 -2.378 -0.03 -0.67 0.74 0.04
1 2.68 268 1.762 -9.659 3.371 -23.163 -38.086 18.494 204.167 3137.456 -2743.513 -1.646 -0.091 -2.384 -0.03 -0.67 0.74 0.04
1 2.69 269 1.901 -9.888 3.606 -27.741 -27.130 13.367 99.235 3212.407 -2848.594 -1.797 0.137 -2.634 -0.03 -0.67 0.74 0.04
1 2.70 270 1.666 -9.510 4.568 -17.517 -15.717 11.505 99.235 3212.407 -2848.594 -1.565 -0.245 -3.633 -0.02 -0.67 0.74 0.03
1 2.71 271 1.279 -9.036 4.578 -1.526 -3.296 10.864 -20.537 3152.446 -2683.552 -1.179 -0.718 -3.636 -0.02 -0.67 0.74 0.03
1 2.72 272 0.656 -8.356 4.295 14.557 8.637 4.334 -20.537 3152.446 -2683.552 -0.559 -1.395 -3.320 -0.02 -0.67 0.74 0.03
1 2.73 273 -0.005 -7.839 3.697 24.689 19.196 -3.510 84.245 3122.316 -2653.571 0.104 -1.906 -2.668 -0.02 -0.67 0.74 0.03
1 2.74 274 -1.087 -7.532 2.729 23.560 19.226 -11.108 24.284 3257.378 -2743.513 1.191 -2.207 -1.648 -0.02 -0.67 0.74 0.03
1 2.75 275 -1.307 -7.638 2.255 16.846 5.219 -14.954 9.294 3047.365 -2728.522 1.425 -2.097 -1.135 -0.02 -0.67 0.75 0.04
1 2.76 276 -1.087 -8.390 2.318 6.409 -9.552 -16.754 234.297 3227.397 -2788.633 1.226 -1.342 -1.168 -0.02 -0.66 0.75 0.04
1 2.77 277 -0.536 -9.319 2.658 -0.549 -15.472 -15.045 234.297 3227.397 -2788.633 0.726 -0.409 -1.485 -0.02 -0.66 0.75 0.04
1 2.78 278 -0.311 -9.659 2.696 4.486 -11.536 -13.550 9.294 3077.345 -2728.522 0.521 -0.067 -1.511 -0.02 -0.66 0.75 0.04
1 2.79 279 -0.369 -9.577 2.758 11.139 -4.456 -10.071 9.294 3077.345 -2728.522 0.596 -0.146 -1.552 -0.02 -0.66 0.75 0.04
1 2.80 280 -0.670 -9.558 2.485 11.597 1.801 -6.653 39.274 3152.446 -2788.633 0.910 -0.161 -1.249 -0.02 -0.66 0.75 0.04
1 2.81 281 -1.097 -9.582 2.394 3.906 3.937 1.648 24.284 3212.407 -2698.542 1.338 -0.133 -1.132 -0.02 -0.66 0.75 0.04
1 2.82 282 -1.815 -9.022 1.757 -1.007 -4.395 13.306 -50.667 3137.456 -2743.513 2.041 -0.692 -0.481 -0.02 -0.66 0.75 0.04
1 2.83 283 -1.959 -8.610 1.676 1.038 -14.801 16.663 -65.657 3272.368 -2728.522 2.155 -1.104 -0.393 -0.02 -0.66 0.75 0.04
1 2.84 284 -1.896 -8.557 1.724 -0.244 -26.672 24.567 -65.657 3272.368 -2728.522 2.017 -1.156 -0.428 -0.02 -0.66 0.75 0.03
1 2.85 285 -1.925 -8.476 1.729 -1.770 -31.036 26.856 -50.667 3092.335 -2773.643 1.999 -1.237 -0.430 -0.02 -0.66 0.75 0.03
1 2.86 286 -1.518 -8.754 1.652 -9.491 -39.002 29.633 -50.667 3092.335 -2773.643 1.544 -0.960 -0.356 -0.02 -0.66 0.75 0.02
1 2.87 287 -0.958 -8.912 1.642 -12.329 -42.664 32.440 39.274 3272.368 -2758.503 0.936 -0.804 -0.357 -0.02 -0.66 0.75 0.02
1 2.88 288 -0.522 -9.170 1.676 -12.360 -44.373 32.715 84.245 3002.394 -2728.522 0.453 -0.547 -0.404 -0.02 -0.66 0.75 0.02
1 2.89 289 0.235 -9.338 1.824 -4.791 -40.497 32.532 -65.657 3152.446 -2758.503 -0.347 -0.380 -0.565 -0.02 -0.66 0.75 0.01
1 2.90 290 0.570 -9.165 2.050 1.831 -32.074 31.067 -50.667 3167.437 -2698.542 -0.722 -0.553 -0.793 -0.02 -0.66 0.75 0.01
1 2.91 291 0.666 -9.151 1.801 8.972 -21.759 27.283 -50.667 3167.437 -2698.542 -0.854 -0.565 -0.537 -0.02 -0.66 0.75 0
1 2.92 292 0.364 -9.003 1.652 18.799 -12.604 23.346 -5.546 3017.384 -2668.562 -0.608 -0.706 -0.342 0.02 0.66 -0.75 0
1 2.93 293 0.029 -9.046 1.575 22.156 -10.620 21.057 -5.546 3017.384 -2668.562 -0.298 -0.658 -0.230 0.02 0.66 -0.75 0
1 2.94 294 -0.263 -9.007 1.786 23.865 -10.895 20.569 -20.537 3152.446 -2758.503 -0.030 -0.690 -0.402 0.02 0.66 -0.76 0
1 2.95 295 -0.326 -8.777 1.820 24.475 -11.963 19.013 84.245 3077.345 -2728.522 0.007 -0.913 -0.395 0.02 0.65 -0.76 0.01
1 2.96 296 -0.589 -9.050 1.729 26.184 -15.442 16.998 24.284 3062.355 -2668.562 0.246 -0.633 -0.262 0.02 0.65 -0.76 0.01
1 2.97 297 -0.713 -8.993 1.456 25.604 -14.771 14.313 -50.667 3092.335 -2818.614 0.348 -0.683 0.056 0.02 0.65 -0.76 0.01
1 2.98 298 -0.939 -9.046 1.274 24.994 -13.306 11.017 -50.667 3092.335 -2818.614 0.554 -0.623 0.280 0.02 0.65 -0.76 0.01
1 2.99 299 -1.317 -9.314 1.307 23.071 -11.841 9.003 -20.537 3077.345 -2728.522 0.900 -0.341 0.320 0.02 0.65 -0.76 0.01
1 3.00 300 -1.212 -9.046 1.053 19.470 -13.519 8.820 -20.537 3077.345 -2728.522 0.779 -0.603 0.607 0.02 0.64 -0.76 0.02
1 3.01 301 -1.312 -8.734 0.843 14.038 -13.397 7.416 -20.537 3122.316 -2833.604 0.866 -0.909 0.843 0.02 0.64 -0.77 0.02
1 3.02 302 -1.389 -8.595 0.891 9.003 -13.062 5.554 24.284 3062.355 -2848.594 0.930 -1.045 0.811 0.02 0.64 -0.77 0.02
1 3.03 303 -1.494 -8.653 0.431 5.005 -14.557 4.456 -65.657 2957.423 -2788.633 1.029 -0.985 1.283 0.01 0.64 -0.77 0.02
1 3.04 304 -1.523 -8.710 0.488 -3.601 -19.074 1.740 9.294 3047.365 -2788.633 1.057 -0.926 1.232 0.01 0.64 -0.77 0.02
1 3.05 305 -1.528 -8.744 0.469 -9.338 -21.576 0.061 9.294 3047.365 -2788.633 1.060 -0.893 1.246 0.01 0.64 -0.77 0.02
1 3.06 306 -1.604 -8.840 0.306 -11.200 -23.346 -2.228 69.255 2987.404 -2848.594 1.138 -0.800 1.397 0.01 0.64 -0.77 0.02
1 3.07 307 -1.614 -9.702 -0.067 -6.714 -23.529 -4.517 69.255 2987.404 -2848.594 1.153 0.054 1.727 0.01 0.64 -0.76 0.03
1 3.08 308 -1.820 -10.133 -0.010 -5.188 -26.642 -5.035 -140.608 2957.423 -2833.604 1.364 0.482 1.651 0.01 0.65 -0.76 0.03
1 3.09 309 -1.858 -10.434 0.019 -4.578 -35.767 -5.371 -65.657 2957.423 -2863.584 1.408 0.780 1.605 0.01 0.65 -0.76 0.03
1 3.10 310 -1.604 -10.698 0.383 -4.913 -46.356 -5.188 -63.559 2810.819 -2794.479 1.163 1.041 1.225 0 0.65 -0.76 0.03
1 3.11 311 -1.149 -11.042 0.943 -6.714 -49.378 -3.113 -153.500 3095.783 -2824.460 0.723 1.383 0.655 0 0.65 -0.76 0.03
1 3.12 312 -0.891 -11.153 1.049 -9.674 -43.427 0.427 -153.500 3095.783 -2824.460 0.483 1.492 0.545 -0 0.65 -0.76 0.04
1 3.13 313 -0.876 -11.153 0.958 -12.604 -39.185 4.852 -168.490 3005.842 -2839.450 0.482 1.490 0.627 -0.01 0.65 -0.76 0.04
1 3.14 314 -0.800 -11.162 0.642 -18.250 -31.464 10.345 -168.490 3005.842 -2839.450 0.409 1.493 0.908 -0.01 0.65 -0.76 0.04
1 3.15 315 -0.666 -10.918 0.225 -20.020 -28.015 8.881 -333.533 2945.881 -2674.558 0.269 1.245 1.300 -0.01 0.65 -0.76 0.04
1 3.16 316 -0.508 -10.444 -0.436 -24.078 -27.954 7.172 -408.484 3020.832 -2569.476 0.106 0.767 1.932 -0.01 0.65 -0.76 0.05
1 3.17 317 -0.263 -10.113 -1.087 -27.680 -29.694 3.754 -408.484 3020.832 -2569.476 -0.142 0.429 2.534 -0.01 0.65 -0.76 0.05
1 3.18 318 0.278 -10.252 0.555 -29.633 -26.886 -1.801 -213.611 2960.871 -2659.567 -0.678 0.560 0.835 -0.02 0.65 -0.75 0.05
1 3.19 319 0.287 -11.833 -0.158 -19.867 -30.640 -0.244 -213.611 2960.871 -2659.567 -0.676 2.131 1.490 -0.02 0.66 -0.75 0.05
1 3.20 320 1.470 -14.447 3.184 5.432 -27.771 27.008 -333.533 3020.832 -2674.558 -1.844 4.740 -1.892 -0.02 0.66 -0.75 0.05
1 3.21 321 2.457 -15.098 2.854 0.977 12.238 45.960 -333.533 3020.832 -2674.558 -2.908 5.395 -1.556 -0.02 0.66 -0.75 0.06
1 3.22 322 1.944 -14.529 1.719 -7.813 23.529 54.047 -168.490 3200.865 -2659.567 -2.470 4.829 -0.421 -0.02 0.66 -0.75 0.06
1 3.23 323 2.006 -12.632 2.567 -8.575 39.093 41.046 -258.582 3065.803 -2674.558 -2.615 2.936 -1.284 -0.01 0.66 -0.75 0.06
1 3.24 324 1.307 -11.550 2.485 13.184 51.422 25.482 -258.582 3065.803 -2674.558 -1.977 1.856 -1.211 -0.01 0.66 -0.75 0.06
1 3.25 325 0.330 -10.755 3.065 15.778 61.096 23.865 -213.611 3080.793 -2584.466 -1.046 1.067 -1.771 -0 0.66 -0.75 0.06
1 3.26 326 -0.790 -9.486 3.759 -1.617 76.966 8.759 -213.611 3080.793 -2584.466 0.029 -0.196 -2.452 -0 0.66 -0.75 0.06
1 3.27 327 -1.939 -9.457 3.457 -21.027 77.454 -3.357 -93.539 3125.914 -2689.548 1.149 -0.222 -2.148 0 0.66 -0.75 0.06
1 3.28 328 -3.922 -9.568 2.562 -41.565 60.730 -12.543 -93.539 3125.914 -2689.548 3.105 -0.118 -1.309 0.01 0.66 -0.75 0.05
1 3.29 329 -4.109 -9.285 2.610 -40.466 46.173 -14.984 -168.490 3050.812 -2734.519 3.282 -0.406 -1.413 0.02 0.66 -0.75 0.05
1 3.30 330 -3.869 -8.437 2.524 -13.123 -6.226 -11.566 26.233 3065.803 -2629.587 3.038 -1.258 -1.363 0.02 0.66 -0.75 0.05
1 3.31 331 -2.974 -7.374 2.615 17.944 -24.567 -4.425 26.233 3065.803 -2629.587 2.135 -2.320 -1.450 0.02 0.66 -0.75 0.05
1 3.32 332 -1.853 -6.613 3.046 49.133 -27.863 2.411 -123.520 3020.832 -2629.587 1.014 -3.075 -1.831 0.01 0.66 -0.75 0.05
1 3.33 333 -0.718 -5.722 2.883 58.289 -17.334 11.200 -152.001 3218.853 -2573.673 -0.120 -3.955 -1.584 0.01 0.66 -0.75 0.05
1 3.34 334 -0.364 -6.211 2.706 36.224 -10.010 11.383 -152.001 3068.951 -2603.654 -0.485 -3.453 -1.314 0.01 0.65 -0.75 0.05
1 3.35 335 -0.072 -7.240 2.217 -3.052 -5.280 9.460 -152.001 3068.951 -2603.654 -0.790 -2.412 -0.760 0.01 0.65 -0.76 0.05
1 3.36 336 1.178 -11.287 3.108 -41.168 -4.730 8.881 -61.910 3083.941 -2738.566 -2.063 1.632 -1.680 0.01 0.65 -0.75 0.06
1 3.37 337 1.657 -13.015 2.706 3.662 9.460 4.791 -122.021 3023.980 -2708.585 -2.548 3.355 -1.321 0.01 0.66 -0.75 0.06
1 3.38 338 1.595 -11.971 2.931 46.631 7.477 -4.059 -122.021 3023.980 -2708.585 -2.491 2.314 -1.524 0.01 0.65 -0.75 0.06
1 3.39 339 1.662 -9.654 3.189 64.575 5.188 -14.160 -91.890 3008.990 -2738.566 -2.548 0.008 -1.703 0.01 0.65 -0.76 0.06
1 3.40 340 1.355 -7.269 2.792 34.088 13.306 -24.689 -61.910 3053.960 -2588.664 -2.207 -2.364 -1.207 0.01 0.65 -0.76 0.05
1 3.41 341 1.049 -7.082 2.485 0.397 19.348 -27.710 -91.890 3128.912 -2663.615 -1.859 -2.543 -0.832 0.01 0.64 -0.76 0.05
1 3.42 342 0.776 -7.465 1.978 -23.651 21.118 -28.351 -91.890 3128.912 -2663.615 -1.549 -2.161 -0.313 0.01 0.64 -0.76 0.05
1 3.43 343 0.972 -8.294 1.642 -28.351 18.189 -30.396 -1.949 2994.000 -2753.556 -1.669 -1.351 -0.051 0.01 0.65 -0.76 0.04
1 3.44 344 1.039 -8.873 1.796 -15.198 20.935 -32.868 -122.021 3023.980 -2858.638 -1.694 -0.781 -0.242 0.01 0.65 -0.76 0.04
1 3.45 345 0.910 -9.074 1.705 -6.256 25.665 -35.523 -122.021 3023.980 -2858.638 -1.513 -0.586 -0.169 0.01 0.65 -0.76 0.04
1 3.46 346 0.656 -9.266 1.642 -8.698 30.182 -34.393 -122.021 2918.898 -2708.585 -1.200 -0.399 -0.116 0.01 0.65 -0.76 0.04
1 3.47 347 0.326 -9.496 1.523 -13.794 32.349 -33.783 -76.900 3023.980 -2633.634 -0.816 -0.174 -0.010 0.01 0.65 -0.76 0.03
1 3.48 348 -0.302 -9.850 0.929 -14.191 24.201 -29.877 -91.890 3083.941 -2738.566 -0.139 0.174 0.562 0.01 0.65 -0.76 0.03
1 3.49 349 -0.493 -9.515 0.603 -4.822 13.245 -25.238 -91.890 3083.941 -2738.566 0.096 -0.167 0.863 0.01 0.65 -0.76 0.02
1 3.50 350 -0.172 -9.232 0.733 4.974 4.059 -21.240 -46.919 2948.879 -2633.634 -0.187 -0.453 0.719 0 0.65 -0.76 0.02
1 3.51 351 0.249 -8.725 0.800 9.613 0.793 -14.862 -137.011 3008.990 -2543.693 -0.546 -0.961 0.661 0 0.65 -0.76 0.02
1 3.52 352 0.685 -8.663 0.977 4.852 4.120 -10.712 -137.011 3008.990 -2543.693 -0.959 -1.022 0.496 0 0.65 -0.76 0.02
1 3.53 353 0.843 -8.950 0.814 -1.740 8.423 -6.195 -166.991 3083.941 -2618.644 -1.102 -0.734 0.665 0 0.65 -0.76 0.02
1 3.54 354 1.164 -9.438 0.867 -6.622 10.193 -1.862 -122.021 3143.902 -2678.605 -1.412 -0.247 0.606 0 0.65 -0.76 0.02
1 3.55 355 1.556 -9.788 0.651 -4.517 9.216 6.592 -122.021 3068.951 -2678.605 -1.795 0.100 0.808 0 0.65 -0.76 0.02
1 3.56 356 1.762 -9.773 0.690 -3.754 11.444 11.200 -122.021 3068.951 -2678.605 -1.998 0.084 0.758 0 0.65 -0.76 0.02
1 3.57 357 1.738 -9.716 0.450 -8.301 18.372 14.008 -166.991 3083.941 -2663.615 -1.976 0.025 0.986 0 0.65 -0.76 0.02
1 3.58 358 2.026 -9.673 0.211 -19.196 31.464 14.740 -166.991 2888.918 -2543.693 -2.281 -0.024 1.182 0 0.65 -0.76 0.01
1 3.59 359 1.877 -9.908 0.086 -24.170 39.124 14.618 -166.991 2888.918 -2543.693 -2.145 0.205 1.267 0.01 0.66 -0.75 0.01
1 3.60 360 1.810 -9.668 -0.134 -28.534 44.251 14.862 -122.021 3023.980 -2633.634 -2.090 -0.040 1.440 0.01 0.66 -0.75 0.01
1 3.61 361 2.002 -9.678 -0.306 -32.806 48.432 13.611 -166.991 3083.941 -2588.664 -2.295 -0.038 1.557 0.01 0.66 -0.75 0.01
1 3.62 362 1.901 -9.821 -0.163 -24.597 60.761 13.855 -61.910 3203.863 -2693.595 -2.207 0.099 1.353 0.01 0.66 -0.75 0.01
1 3.63 363 1.619 -9.831 0.024 -17.365 67.383 11.475 -61.910 3203.863 -2693.595 -1.937 0.103 1.115 0.02 0.66 -0.75 0.01
1 3.64 364 1.063 -10.176 0.244 -16.632 69.885 9.522 -16.939 3083.941 -2588.664 -1.394 0.443 0.855 0.02 0.67 -0.75 0
1 3.65 365 -0.254 -10.142 0.230 -21.759 60.822 9.674 -46.919 3068.951 -2633.634 -0.107 0.403 0.794 -0.03 -0.67 0.74 0
1 3.66 366 -0.967 -10.137 -0.306 -10.925 47.821 4.578 -46.919 3068.951 -2633.634 0.590 0.395 1.293 -0.03 -0.67 0.74 0.01
1 3.67 367 -1.417 -10.094 -0.445 -0.122 39.093 3.815 -46.919 3068.951 -2528.553 1.025 0.350 1.410 -0.03 -0.67 0.74 0.01
1 3.68 368 -1.915 -10.018 -0.761 7.263 36.286 2.472 42.872 3233.993 -2618.644 1.507 0.273 1.718 -0.04 -0.67 0.74 0.01
1 3.69 369 -2.399 -9.668 -1.010 8.026 32.959 2.838 87.843 3308.944 -2588.664 1.972 -0.076 1.965 -0.04 -0.67 0.74 0.01
1 3.70 370 -2.557 -9.108 -1.642 1.007 19.775 5.280 87.843 3308.944 -2588.664 2.109 -0.636 2.592 -0.04 -0.67 0.74 0.01
1 3.71 371 -1.925 -8.935 0.287 -8.759 11.047 14.557 177.934 3263.974 -2573.673 1.455 -0.808 0.648 -0.04 -0.67 0.74 0.01
1 3.72 372 -1.121 -10.410 1.882 20.142 32.532 17.029 207.915 3023.980 -2528.553 0.574 0.667 -0.981 -0.05 -0.67 0.74 0.01
1 3.73 373 -1.489 -11.555 2.835 34.210 51.209 1.526 207.915 3023.980 -2528.553 0.943 1.812 -1.934 -0.05 -0.67 0.74 0.01
1 3.74 374 -5.100 -15.180 4.118 -2.869 23.743 -47.363 316.294 3088.438 -2414.327 4.559 5.444 -3.134 -0.05 -0.67 0.74 0.02
1 3.75 375 -4.956 -17.330 3.060 -42.236 -17.548 -79.712 361.265 3073.448 -2579.220 4.499 7.588 -2.098 -0.05 -0.67 0.74 0.02
1 3.76 376 -3.204 -16.937 2.677 -28.717 -67.749 -69.336 211.362 3178.529 -2459.298 2.873 7.184 -1.777 -0.04 -0.67 0.74 0.02
1 3.77 377 -0.187 -11.253 2.902 33.661 -100.647 -14.648 211.362 3178.529 -2459.298 -0.041 1.495 -2.021 -0.04 -0.67 0.74 0.02
1 3.78 378 0.560 -7.801 3.548 27.130 -91.278 7.935 -13.491 3133.409 -2594.360 -0.737 -1.954 -2.622 -0.03 -0.67 0.74 0.02
1 3.79 379 2.069 -6.761 4.195 0.763 -72.754 6.683 91.291 3088.438 -2489.278 -2.235 -2.988 -3.211 -0.02 -0.67 0.74 0.01
1 3.80 380 3.347 -8.126 4.971 -48.615 -14.374 -11.292 91.291 3088.438 -2489.278 -3.503 -1.625 -4.006 -0.02 -0.67 0.74 0.01
1 3.81 381 2.662 -10.257 4.405 -56.854 15.259 -20.325 46.320 3133.409 -2519.259 -2.768 0.501 -3.488 -0.01 -0.67 0.74 0.01
1 3.82 382 1.767 -11.756 3.874 -28.717 14.160 -18.463 -163.543 3238.490 -2624.340 -1.831 1.994 -3.018 -0.01 -0.68 0.74 0.01
1 3.83 383 1.140 -12.441 3.682 5.127 0.031 -21.393 -162.044 3241.188 -2627.938 -1.175 2.676 -2.854 -0.01 -0.68 0.74 0.01
1 3.84 384 0.062 -11.153 3.812 12.390 1.740 -17.029 -57.113 3316.140 -2552.837 -0.064 1.389 -2.968 -0.01 -0.68 0.74 0.01
1 3.85 385 -0.814 -9.850 3.534 3.906 4.150 -10.803 2.698 3106.126 -2462.896 0.841 0.088 -2.668 -0.01 -0.68 0.74 0.01
1 3.86 386 -0.986 -9.122 3.127 1.831 -0.458 -7.416 2.698 3106.126 -2402.935 1.033 -0.638 -2.251 -0.01 -0.67 0.74 0.01
1 3.87 387 -0.670 -9.055 2.662 1.404 -9.186 -7.050 2.698 3106.126 -2402.935 0.729 -0.701 -1.740 -0.01 -0.67 0.74 0.01
1 3.88 388 -0.345 -9.223 2.480 -2.899 -10.620 -5.219 -72.103 3226.198 -2537.847 0.409 -0.532 -1.542 -0.01 -0.67 0.74 0.01
1 3.89 389 -0.072 -9.352 2.677 -7.904 -7.629 -0.031 -117.074 3301.149 -2462.896 0.141 -0.402 -1.732 -0.01 -0.67 0.74 0.01
1 3.90 390 -0.172 -9.577 2.888 -6.744 -0.702 5.005 -117.074 3301.149 -2462.896 0.239 -0.177 -1.941 -0.01 -0.67 0.74 0.01
1 3.91 391 -0.675 -9.481 2.619 -2.625 8.789 9.857 -12.142 3166.087 -2522.856 0.733 -0.272 -1.665 -0.01 -0.67 0.74 0.01
1 3.92 392 -1.848 -8.811 2.179 3.601 13.092 11.780 -87.093 3211.208 -2597.958 1.886 -0.941 -1.212 -0.01 -0.67 0.74 0.01
1 3.93 393 -2.538 -8.102 1.733 2.167 5.554 8.453 -72.103 3151.097 -2582.967 2.549 -1.648 -0.750 -0.01 -0.67 0.74 0.01
1 3.94 394 -2.763 -7.963 1.480 0.214 -8.362 6.348 -72.103 3151.097 -2582.967 2.753 -1.786 -0.486 -0.01 -0.67 0.74 0.01
1 3.95 395 -2.600 -8.356 1.695 -2.045 -26.093 10.101 -42.123 3346.120 -2432.915 2.575 -1.393 -0.700 -0.01 -0.67 0.74 0.01
1 3.96 396 -2.222 -8.825 1.657 -3.418 -33.692 12.787 -57.113 3241.188 -2522.856 2.167 -0.923 -0.658 -0.01 -0.67 0.74 0.01
1 3.97 397 -1.992 -8.935 1.590 -4.730 -40.100 17.853 -57.113 3241.188 -2522.856 1.906 -0.813 -0.590 -0.01 -0.67 0.74 0
1 3.98 398 -1.470 -9.180 1.729 -2.075 -45.166 22.949 -132.064 3316.140 -2552.837 1.348 -0.568 -0.728 0.01 0.67 -0.74 0
1 3.99 399 -1.135 -9.252 1.801 4.181 -48.248 25.299 -117.074 3301.149 -2462.896 0.975 -0.495 -0.793 0.01 0.67 -0.74 0
1 4.00 400 -0.843 -9.132 1.551 8.362 -47.211 24.170 -192.175 3346.120 -2432.915 0.646 -0.613 -0.531 0.01 0.67 -0.74 0.01
1 4.01 401 -0.718 -8.907 1.480 12.299 -45.105 23.743 -192.175 3346.120 -2432.915 0.488 -0.835 -0.440 0 0.67 -0.74 0.01
1 4.02 402 -0.493 -8.524 1.125 15.808 -44.434 20.416 -162.044 3211.208 -2627.938 0.202 -1.211 -0.034 0 0.67 -0.75 0.02
1 4.03 403 -0.340 -8.246 1.049 16.998 -45.441 16.510 -162.044 3361.110 -2597.958 0.028 -1.485 0.070 -0 0.67 -0.75 0.02
1 4.04 404 0.005 -8.294 1.178 17.487 -45.380 13.519 -162.044 3361.110 -2597.958 -0.331 -1.433 -0.029 -0 0.66 -0.75 0.03
1 4.05 405 0.302 -8.466 1.336 16.144 -43.610 10.986 -147.054 3181.078 -2582.967 -0.638 -1.257 -0.159 -0 0.66 -0.75 0.03
1 4.06 406 0.053 -8.868 1.480 15.778 -34.210 6.531 -192.175 3151.097 -2687.899 -0.395 -0.851 -0.275 -0.01 0.66 -0.75 0.03
1 4.07 407 -0.402 -9.026 1.188 16.785 -28.107 3.967 -297.106 3346.120 -2762.850 0.057 -0.690 0.044 -0.01 0.66 -0.75 0.04
1 4.08 408 -0.843 -9.132 1.025 17.975 -26.917 0.702 -297.106 3346.120 -2762.850 0.500 -0.581 0.236 -0.01 0.66 -0.75 0.04
1 4.09 409 -1.508 -8.974 0.694 15.289 -30.701 -1.465 -192.175 3106.126 -2537.847 1.172 -0.732 0.620 -0.01 0.66 -0.75 0.04
1 4.10 410 -1.499 -8.811 0.536 9.216 -33.569 -1.312 -297.106 3271.169 -2642.928 1.164 -0.892 0.798 -0.01 0.66 -0.75 0.04
1 4.11 411 -1.537 -8.595 0.330 3.754 -37.720 -2.228 -297.106 3271.169 -2642.928 1.204 -1.106 1.014 -0.02 0.66 -0.75 0.05
1 4.12 412 -1.417 -8.600 0.158 -2.350 -41.504 -2.350 -72.103 3301.149 -2582.967 1.092 -1.101 1.190 -0.02 0.66 -0.75 0.05
1 4.13 413 -1.441 -8.615 0.029 -13.763 -45.899 -3.784 -192.175 3301.149 -2612.948 1.130 -1.088 1.316 -0.02 0.66 -0.75 0.05
1 4.14 414 -1.532 -8.993 -0.115 -20.355 -48.889 -7.019 -297.106 3271.169 -2717.879 1.236 -0.712 1.446 -0.02 0.66 -0.75 0.05
1 4.15 415 -1.614 -9.745 -0.431 -21.149 -49.530 -11.871 -297.106 3271.169 -2717.879 1.329 0.035 1.727 -0.03 0.66 -0.75 0.05
1 4.16 416 -1.714 -10.736 -0.230 -14.099 -56.183 -16.480 -162.044 3136.107 -2627.938 1.469 1.015 1.449 -0.03 0.66 -0.75 0.06
1 4.17 417 -1.690 -10.798 -0.158 -9.979 -59.387 -17.242 -297.106 3181.078 -2642.928 1.477 1.074 1.357 -0.04 0.66 -0.75 0.06
1 4.18 418 -0.881 -11.263 0.101 -2.228 -70.130 -12.512 -297.106 3181.078 -2642.928 0.704 1.537 1.092 -0.04 0.66 -0.75 0.06
1 4.19 419 -0.144 -10.971 0.014 4.608 -72.907 -6.531 -297.106 3301.149 -2687.899 -0.003 1.245 1.181 -0.05 0.66 -0.75 0.06
1 4.20 420 0.651 -10.664 0.364 5.615 -62.744 -0.031 -492.129 3211.208 -2702.889 -0.775 0.939 0.842 -0.05 0.66 -0.75 0.07
1 4.21 421 1.408 -10.329 0.651 0.336 -50.842 2.319 -462.149 3241.188 -2417.925 -1.513 0.605 0.563 -0.06 0.66 -0.75 0.07
1 4.22 422 1.657 -10.377 0.311 -6.409 -39.795 3.845 -462.149 3241.188 -2417.925 -1.745 0.653 0.903 -0.06 0.66 -0.75 0.07
1 4.23 423 1.839 -10.339 -0.225 -16.754 -28.504 5.249 -462.149 3241.188 -2492.876 -1.911 0.613 1.429 -0.06 0.66 -0.75 0.08
1 4.24 424 1.422 -10.099 -0.656 -20.813 -12.970 4.120 -567.081 3391.091 -2552.837 -1.470 0.365 1.793 -0.07 0.66 -0.74 0.08
1 4.25 425 1.173 -10.487 1.082 -18.127 -3.876 0.885 -566.631 3392.890 -2555.235 -1.212 0.748 0.011 -0.07 0.66 -0.74 0.08
1 4.26 426 0.306 -12.575 -0.776 7.507 -9.338 -2.197 -446.559 3227.997 -2465.294 -0.332 2.833 1.846 -0.07 0.66 -0.74 0.08
1 4.27 427 1.729 -14.936 2.466 15.381 -30.090 27.161 -446.559 3227.997 -2465.294 -1.755 5.197 -1.374 -0.07 0.66 -0.74 0.08
1 4.28 428 3.256 -15.970 3.735 -11.139 17.181 52.338 -581.621 3227.997 -2690.297 -3.328 6.233 -2.626 -0.07 0.66 -0.74 0.08
1 4.29 429 2.610 -14.663 2.509 -27.954 27.741 66.376 -581.621 3227.997 -2690.297 -2.755 4.926 -1.410 -0.07 0.66 -0.74 0.08
1 4.30 430 2.169 -12.944 2.806 -3.113 43.427 55.054 -326.637 3272.968 -2435.313 -2.413 3.204 -1.743 -0.06 0.66 -0.74 0.09
1 4.31 431 0.589 -11.244 3.390 33.814 58.411 48.035 -536.650 3137.906 -2555.235 -1.009 1.512 -2.313 -0.05 0.67 -0.74 0.09
1 4.32 432 -0.321 -9.587 3.845 24.872 68.756 34.363 -536.650 3137.906 -2555.235 -0.177 -0.136 -2.722 -0.04 0.66 -0.74 0.09
1 4.33 433 -1.700 -8.859 3.524 -1.556 72.724 21.637 -386.598 3317.938 -2555.235 1.147 -0.857 -2.367 -0.04 0.66 -0.74 0.09
1 4.34 434 -2.701 -9.050 3.223 -34.485 69.855 12.360 -386.598 3317.938 -2555.235 2.102 -0.663 -2.067 -0.03 0.66 -0.74 0.08
1 4.35 435 -3.812 -8.821 3.055 -49.042 35.980 3.387 -221.556 3347.919 -2615.346 3.172 -0.896 -1.948 -0.03 0.67 -0.74 0.08
1 4.36 436 -3.658 -8.576 3.041 -29.144 0.549 3.326 -221.556 3347.919 -2615.346 2.983 -1.144 -1.997 -0.03 0.67 -0.74 0.08
1 4.37 437 -2.811 -8.069 3.175 -2.747 -18.646 7.538 -311.647 3242.987 -2630.336 2.106 -1.654 -2.168 -0.03 0.67 -0.74 0.08
1 4.38 438 -2.212 -7.236 3.137 18.280 -21.118 11.078 -296.657 3377.899 -2585.366 1.481 -2.485 -2.125 -0.03 0.67 -0.74 0.08
1 4.39 439 -1.207 -6.632 2.902 32.471 -16.113 18.921 -296.657 3377.899 -2585.366 0.437 -3.077 -1.813 -0.03 0.67 -0.74 0.09
1 4.40 440 -0.843 -6.728 2.418 24.292 -14.130 20.447 -296.657 3453.000 -2540.245 0.048 -2.973 -1.280 -0.03 0.66 -0.74 0.09
1 4.41 441 -0.378 -7.173 2.514 4.059 -10.925 17.914 -296.657 3453.000 -2540.245 -0.443 -2.522 -1.343 -0.03 0.66 -0.74 0.09
1 4.42 442 -0.125 -8.313 2.457 -16.419 -7.019 13.062 -281.667 3392.890 -2555.235 -0.718 -1.380 -1.286 -0.03 0.66 -0.74 0.09
1 4.43 443 0.766 -10.578 2.629 12.573 5.981 6.256 -281.667 3392.890 -2555.235 -1.624 0.884 -1.480 -0.03 0.66 -0.74 0.09
1 4.44 444 1.451 -10.947 2.797 41.382 -2.594 1.556 -114.975 3276.116 -2439.361 -2.309 1.255 -1.625 -0.03 0.66 -0.74 0.09
1 4.45 445 2.088 -10.185 3.050 56.122 -7.050 -3.815 -204.917 3366.207 -2499.472 -2.949 0.500 -1.828 -0.02 0.66 -0.74 0.09
1 4.46 446 3.122 -8.572 3.524 39.795 7.690 -15.106 -204.917 3366.207 -2499.472 -3.950 -1.094 -2.133 -0.03 0.65 -0.75 0.09
1 4.47 447 3.175 -7.954 3.275 19.348 26.733 -20.905 -144.956 3501.119 -2619.394 -3.951 -1.706 -1.817 -0.03 0.65 -0.75 0.09
1 4.48 448 2.797 -7.935 2.686 4.028 38.178 -23.163 -144.956 3501.119 -2619.394 -3.517 -1.724 -1.191 -0.03 0.65 -0.75 0.09
1 4.49 449 2.380 -7.973 2.097 -5.341 43.152 -20.783 -249.887 3231.145 -2589.413 -3.049 -1.687 -0.592 -0.03 0.65 -0.75 0.08
1 4.50 450 2.136 -8.543 1.805 -10.895 43.091 -23.621 -204.917 3321.236 -2679.354 -2.783 -1.121 -0.312 -0.03 0.65 -0.75 0.08
1 4.51 451 1.911 -8.888 1.796 -17.334 48.859 -26.001 -249.887 3351.217 -2694.345 -2.532 -0.781 -0.319 -0.02 0.65 -0.75 0.08
1 4.52 452 1.408 -9.477 1.710 -23.682 57.160 -27.985 -369.959 3186.174 -2844.397 -1.981 -0.198 -0.256 -0.02 0.65 -0.75 0.07
1 4.53 453 0.397 -10.018 1.221 -27.283 64.697 -28.107 -369.209 3187.823 -2846.945 -0.882 0.327 0.157 -0.02 0.66 -0.75 0.06
1 4.54 454 -0.263 -10.377 1.020 -20.630 62.378 -28.809 -204.167 3322.735 -2561.981 -0.183 0.679 0.316 -0.02 0.66 -0.75 0.06
1 4.55 455 -0.848 -10.382 1.092 -11.810 51.758 -26.581 -204.167 3322.735 -2561.981 0.435 0.677 0.212 -0.02 0.66 -0.75 0.05
1 4.56 456 -0.977 -9.821 0.838 -3.937 39.673 -22.247 -249.288 3457.797 -2697.043 0.591 0.114 0.447 -0.02 0.66 -0.75 0.05
1 4.57 457 -0.728 -9.601 1.044 0.366 28.748 -14.557 -279.268 3487.778 -2682.053 0.363 -0.109 0.233 -0.02 0.66 -0.75 0.05
1 4.58 458 -0.364 -9.261 0.991 -0.580 27.435 -10.407 81.397 3533.948 -2653.271 0.015 -0.449 0.283 -0.02 0.66 -0.75 0.04
1 4.59 459 -0.024 -9.280 0.929 -3.693 29.633 -6.287 -188.427 3383.896 -2623.291 -0.314 -0.431 0.344 -0.01 0.66 -0.75 0.04
1 4.60 460 0.397 -9.783 0.986 -3.418 35.614 1.556 -188.427 3383.896 -2623.291 -0.727 0.070 0.272 -0.01 0.66 -0.75 0.04
1 4.61 461 0.268 -9.989 1.039 -3.082 37.720 3.967 -128.466 3443.856 -2713.232 -0.603 0.275 0.213 -0.01 0.66 -0.75 0.04
1 4.62 462 0.268 -9.539 0.646 -0.061 35.919 11.108 -128.466 3443.856 -2713.232 -0.616 -0.175 0.599 -0.01 0.66 -0.75 0.04
1 4.63 463 0.488 -9.462 0.728 -0.061 31.647 13.428 -8.544 3398.886 -2563.330 -0.855 -0.252 0.514 -0 0.66 -0.75 0.03
1 4.64 464 0.785 -9.165 0.699 -5.341 33.081 11.810 -128.466 3398.886 -2713.232 -1.170 -0.549 0.538 -0 0.66 -0.75 0.03
1 4.65 465 0.953 -9.280 0.374 -11.139 38.361 9.857 -53.515 3368.905 -2563.330 -1.353 -0.434 0.853 -0 0.66 -0.75 0.03
1 4.66 466 1.039 -9.405 0.168 -16.480 45.319 8.362 -53.515 3398.886 -2563.330 -1.450 -0.312 1.039 0 0.66 -0.75 0.03
1 4.67 467 0.905 -9.702 -0.244 -19.318 49.988 8.423 -53.515 3398.886 -2563.330 -1.326 -0.018 1.420 0 0.66 -0.75 0.03
1 4.68 468 0.661 -9.472 -0.374 -18.890 54.749 10.254 156.348 3503.967 -2653.271 -1.103 -0.257 1.470 0.01 0.67 -0.75 0.02
1 4.69 469 0.603 -9.357 -0.445 -15.717 57.800 10.162 156.348 3503.967 -2653.271 -1.059 -0.375 1.503 0.01 0.67 -0.74 0.02
1 4.70 470 0.388 -9.472 -0.397 -16.083 59.387 12.970 36.276 3383.896 -2623.291 -0.861 -0.264 1.417 0.02 0.67 -0.74 0.02
1 4.71 471 0.129 -9.515 -0.158 -15.503 58.716 15.564 21.286 3488.977 -2533.200 -0.624 -0.223 1.140 0.02 0.67 -0.74 0.02
1 4.72 472 -0.350 -9.989 0.053 -7.019 47.486 13.489 6.296 3458.847 -2653.271 -0.170 0.249 0.895 0.02 0.67 -0.74 0.01
1 4.73 473 -0.680 -10.147 0.192 -1.190 34.119 10.925 261.280 3458.847 -2593.311 0.137 0.406 0.732 0.03 0.67 -0.74 0.01
1 4.74 474 -0.790 -10.248 0.196 4.303 22.827 10.284 261.280 3458.847 -2593.311 0.228 0.506 0.714 0.03 0.67 -0.74 0.01
1 4.75 475 -1.197 -10.214 0.005 8.362 25.391 10.803 246.290 3488.977 -2608.301 0.598 0.475 0.908 0.03 0.67 -0.74 0.01
1 4.76 476 -1.810 -10.133 -0.474 8.240 33.417 10.773 246.290 3488.977 -2608.301 1.188 0.396 1.391 0.04 0.67 -0.74 0.01
1 4.77 477 -2.500 -10.042 -0.953 4.974 34.973 8.850 276.420 3518.958 -2638.281 1.850 0.306 1.869 0.04 0.67 -0.74 0.01
1 4.78 478 -2.907 -9.812 -1.350 0.977 22.675 7.202 261.280 3458.847 -2593.311 2.228 0.078 2.258 0.04 0.67 -0.74 0.01
1 4.79 479 -2.040 -9.486 -1.250 -5.219 0.885 13.611 366.361 3458.847 -2623.291 1.333 -0.248 2.139 0.04 0.67 -0.74 0.01
1 4.80 480 -1.144 -9.927 1.082 -11.475 -7.477 17.639 366.361 3503.967 -2773.193 0.406 0.193 -0.217 0.04 0.67 -0.74 0.01
1 4.81 481 -0.067 -10.827 0.187 8.240 -7.355 14.557 366.361 3503.967 -2773.193 -0.703 1.093 0.653 0.05 0.67 -0.74 0.01
1 4.82 482 -0.239 -12.398 1.915 31.281 19.836 -0.122 246.290 3488.977 -2788.184 -0.554 2.666 -1.072 0.05 0.67 -0.74 0.01
1 4.83 483 -3.749 -13.533 1.997 3.632 21.149 -16.754 246.290 3488.977 -2788.184 2.959 3.808 -1.079 0.05 0.67 -0.74 0.01
1 4.84 484 -3.749 -13.681 1.580 -24.445 -11.414 -37.750 396.342 3368.905 -2638.281 2.990 3.953 -0.670 0.05 0.67 -0.74 0.01
1 4.85 485 -2.749 -13.719 1.805 -19.409 -46.936 -64.514 246.290 3518.958 -2713.232 2.061 3.983 -0.930 0.04 0.67 -0.74 0
1 4.86 486 -1.087 -12.881 1.944 2.625 -64.331 -63.477 411.332 3458.847 -2803.324 0.507 3.136 -1.083 0.04 0.67 -0.74 0
1 4.87 487 -0.019 -10.118 3.103 7.507 -65.216 -23.285 246.290 3563.928 -2788.184 -0.463 0.369 -2.226 0.03 0.67 -0.74 0
1 4.88 488 1.197 -8.418 3.687 -4.608 -62.317 -7.874 246.290 3563.928 -2788.184 -1.623 -1.331 -2.791 0.03 0.67 -0.74 0
1 4.89 489 2.509 -8.193 4.425 -21.210 -51.483 -10.742 111.377 3578.918 -2848.294 -2.905 -1.556 -3.507 0.02 0.67 -0.74 0.01
1 4.90 490 2.859 -8.969 4.894 -38.971 -10.925 -23.224 111.377 3578.918 -2848.294 -3.163 -0.785 -3.992 0.01 0.67 -0.74 0.01
1 4.91 491 2.121 -9.754 4.372 -25.391 11.078 -23.895 126.368 3563.928 -2713.232 -2.364 -0.003 -3.493 0.01 0.67 -0.74 0.01
1 4.92 492 0.967 -10.291 3.821 1.648 12.390 -20.172 111.377 3458.847 -2728.223 -1.176 0.530 -2.969 0.01 0.68 -0.74 0
1 4.93 493 0.249 -10.310 3.529 23.804 2.289 -16.357 111.377 3458.847 -2728.223 -0.428 0.550 -2.664 0.01 0.68 -0.74 0
1 4.94 494 -0.412 -9.965 3.247 22.919 2.686 -10.864 111.377 3698.840 -2653.271 0.256 0.208 -2.342 0.01 0.67 -0.74 0
1 4.95 495 -0.800 -9.692 2.983 10.345 3.601 -12.604 111.377 3698.840 -2653.271 0.661 -0.061 -2.031 0.01 0.67 -0.74 0
1 4.96 496 -1.077 -9.596 2.787 2.136 -1.648 -11.169 96.387 3518.958 -2713.232 0.954 -0.153 -1.797 0.01 0.67 -0.74 0
1 4.97 497 -0.469 -9.687 2.457 3.418 -10.986 -8.301 96.387 3518.958 -2713.232 0.372 -0.058 -1.429 -0.01 -0.67 0.74 0
1 4.98 498 -0.062 -9.510 2.260 2.106 -7.446 -5.035 -53.515 3488.977 -2938.236 -0.025 -0.234 -1.216 -0.01 -0.67 0.74 0
1 4.99 499 -0.077 -9.529 2.466 -0.946 0.641 0.916 171.338 3518.958 -2818.314 -0.003 -0.213 -1.409 -0.01 -0.67 0.74 0
1 5.00 500 -0.589 -9.338 2.514 -6.317 7.416 7.294 171.338 3518.958 -2818.314 0.506 -0.404 -1.449 -0.01 -0.67 0.74 0
1 5.01 501 -1.499 -9.165 2.174 -14.099 9.125 12.360 111.377 3503.967 -2593.311 1.401 -0.576 -1.108 -0.01 -0.67 0.74 0
1 5.02 502 -2.217 -9.074 2.021 -13.123 3.876 16.327 111.377 3503.967 -2593.311 2.096 -0.668 -0.964 -0.01 -0.67 0.74 0
1 5.03 503 -2.548 -8.897 1.686 -9.583 -6.256 14.069 51.417 3518.958 -2683.252 2.391 -0.846 -0.639 0.01 0.67 -0.74 0
1 5.04 504 -3.084 -8.873 1.599 -6.561 -22.400 13.977 51.417 3518.958 -2683.252 2.857 -0.869 -0.564 0.01 0.67 -0.74 0
1 5.05 505 -2.969 -8.888 1.537 -6.805 -26.886 15.137 51.417 3593.909 -2863.285 2.704 -0.854 -0.505 0.01 0.67 -0.74 0.01
1 5.06 506 -2.629 -8.983 1.604 -11.688 -40.985 21.668 6.296 3533.948 -2653.271 2.324 -0.758 -0.579 0.01 0.67 -0.74 0.01
1 5.07 507 -2.222 -9.122 1.475 -13.001 -50.324 24.567 6.296 3533.948 -2653.271 1.873 -0.619 -0.460 0.01 0.67 -0.74 0.01
1 5.08 508 -1.422 -9.141 1.446 -8.759 -57.800 26.428 171.338 3638.879 -2758.203 1.029 -0.599 -0.443 0.01 0.67 -0.74 0.02
1 5.09 509 -0.910 -9.089 1.413 -2.930 -58.258 26.123 171.338 3638.879 -2758.203 0.476 -0.651 -0.416 0.01 0.67 -0.74 0.02
1 5.10 510 -0.752 -9.084 1.293 4.822 -56.061 24.872 81.397 3608.899 -2698.242 0.282 -0.654 -0.295 0.01 0.67 -0.74 0.03
1 5.11 511 -0.670 -9.007 1.331 10.712 -52.521 24.384 81.397 3608.899 -2698.242 0.169 -0.727 -0.320 0 0.67 -0.74 0.03
1 5.12 512 -0.594 -8.993 1.307 12.756 -47.424 20.142 -53.515 3668.860 -2758.203 0.038 -0.734 -0.247 0 0.67 -0.74 0.04
1 5.13 513 -0.532 -8.921 1.283 11.780 -44.769 17.456 21.286 3638.879 -2683.252 -0.044 -0.801 -0.197 -0 0.67 -0.74 0.04
1 5.14 514 -0.718 -8.821 1.164 11.810 -41.870 13.886 21.286 3638.879 -2683.252 0.127 -0.898 -0.052 -0 0.67 -0.74 0.05
1 5.15 515 -0.838 -8.969 1.001 12.604 -41.565 9.522 -53.515 3488.977 -2713.232 0.235 -0.746 0.135 -0 0.66 -0.75 0.05
1 5.16 516 -0.881 -9.103 0.934 16.907 -45.319 3.021 -8.544 3668.860 -2788.184 0.273 -0.609 0.227 -0.01 0.66 -0.75 0.05
1 5.17 517 -0.852 -9.108 0.910 16.205 -47.608 0.702 -38.525 3653.870 -2773.193 0.245 -0.601 0.281 -0.01 0.66 -0.75 0.06
1 5.18 518 -0.718 -9.180 0.809 14.313 -48.401 -2.380 -38.525 3653.870 -2773.193 0.117 -0.526 0.409 -0.01 0.66 -0.75 0.06
1 5.19 519 -0.546 -8.557 0.474 8.728 -50.781 -5.371 21.286 3638.879 -2818.314 -0.028 -1.144 0.790 -0.02 0.66 -0.75 0.06
1 5.20 520 -0.316 -8.471 0.249 3.174 -54.108 -8.759 -113.476 3653.870 -2698.242 -0.237 -1.229 1.031 -0.02 0.66 -0.75 0.07
1 5.21 521 -0.297 -8.414 0.192 -2.808 -53.894 -9.369 -113.476 3653.870 -2698.242 -0.231 -1.287 1.097 -0.02 0.66 -0.75 0.07
1 5.22 522 -0.311 -8.423 0.062 -7.782 -49.500 -9.094 -128.466 3518.958 -2683.252 -0.190 -1.279 1.225 -0.03 0.66 -0.75 0.07
1 5.23 523 -0.661 -8.892 0.029 -15.259 -38.483 -10.040 -248.538 3608.899 -2878.275 0.184 -0.812 1.250 -0.03 0.66 -0.75 0.07
1 5.24 524 -0.790 -9.218 -0.110 -18.890 -31.860 -12.329 -218.558 3698.840 -2803.324 0.337 -0.490 1.372 -0.03 0.66 -0.75 0.07
1 5.25 525 -1.389 -9.812 -0.393 -21.607 -32.013 -16.357 -218.558 3698.840 -2803.324 0.958 0.099 1.622 -0.04 0.66 -0.75 0.07
1 5.26 526 -1.585 -10.276 -0.656 -20.050 -40.039 -19.592 -83.496 3518.958 -2788.184 1.180 0.557 1.848 -0.04 0.66 -0.75 0.07
1 5.27 527 -1.422 -10.865 -0.642 -9.979 -60.425 -20.142 -218.558 3698.840 -2698.242 1.077 1.136 1.761 -0.04 0.66 -0.74 0.08
1 5.28 528 -0.761 -11.081 -0.335 -5.066 -69.702 -17.578 -218.558 3698.840 -2698.242 0.457 1.349 1.446 -0.05 0.66 -0.74 0.08
1 5.29 529 -0.168 -11.368 0.407 -1.343 -68.085 -12.482 -278.519 3668.860 -2713.232 -0.099 1.635 0.702 -0.05 0.66 -0.74 0.08
1 5.30 530 0.407 -11.234 0.522 3.601 -60.211 -8.789 -323.639 3653.570 -2772.744 -0.644 1.500 0.590 -0.06 0.66 -0.74 0.08
1 5.31 531 0.876 -10.487 0.412 3.510 -46.662 -6.378 -443.711 3608.599 -2952.776 -1.090 0.754 0.710 -0.06 0.66 -0.74 0.09
1 5.32 532 1.082 -10.262 -0.024 -1.251 -39.948 -4.334 -443.711 3608.599 -2952.776 -1.276 0.529 1.156 -0.07 0.66 -0.74 0.09
1 5.33 533 1.293 -9.941 -0.144 -8.057 -33.508 -3.235 -383.600 3668.560 -2637.682 -1.462 0.208 1.271 -0.07 0.66 -0.74 0.09
1 5.34 534 1.403 -9.687 -0.292 -12.390 -17.242 1.678 -443.711 3608.599 -2877.675 -1.532 -0.052 1.378 -0.07 0.66 -0.74 0.09
1 5.35 535 1.192 -9.850 0.302 -17.151 -5.341 1.862 -443.711 3608.599 -2877.675 -1.309 0.108 0.755 -0.07 0.66 -0.74 0.09
1 5.36 536 0.905 -10.707 0.776 -13.855 3.479 -1.221 -683.705 3593.459 -2787.734 -1.011 0.961 0.248 -0.07 0.66 -0.74 0.09
1 5.37 537 0.029 -13.030 0.158 11.047 -6.256 5.829 -443.711 3653.570 -2727.773 -0.124 3.283 0.855 -0.07 0.67 -0.74 0.09
1 5.38 538 2.203 -15.860 3.333 2.289 -8.209 42.481 -443.711 3533.498 -2697.792 -2.314 6.115 -2.299 -0.07 0.66 -0.74 0.09
1 5.39 539 2.533 -16.123 2.739 -8.698 18.250 50.507 -443.711 3533.498 -2697.792 -2.696 6.380 -1.694 -0.07 0.66 -0.74 0.09
1 5.40 540 2.102 -14.926 2.648 -12.238 23.499 58.350 -473.691 3578.469 -2697.792 -2.339 5.184 -1.613 -0.07 0.67 -0.74 0.1
1 5.41 541 1.619 -11.775 3.108 22.858 46.906 49.286 -578.623 3728.521 -2802.724 -2.032 2.037 -2.090 -0.06 0.67 -0.74 0.1
1 5.42 542 0.776 -9.955 3.438 32.227 60.974 36.957 -578.623 3728.521 -2802.724 -1.265 0.225 -2.381 -0.06 0.67 -0.74 0.1
1 5.43 543 -0.584 -8.734 3.328 14.008 72.846 23.224 -518.662 3728.521 -2772.744 0.041 -0.988 -2.223 -0.05 0.66 -0.74 0.1
1 5.44 544 -1.786 -8.500 3.089 -16.602 75.379 13.123 -398.590 3728.521 -2847.695 1.203 -1.218 -1.962 -0.05 0.66 -0.74 0.1
1 5.45 545 -3.189 -8.663 2.921 -44.434 71.778 5.524 -323.639 3728.521 -2802.724 2.571 -1.056 -1.820 -0.04 0.66 -0.74 0.09
1 5.46 546 -4.693 -8.801 2.356 -50.018 41.443 -1.495 -323.639 3728.521 -2802.724 4.041 -0.922 -1.317 -0.04 0.67 -0.74 0.09
1 5.47 547 -4.808 -8.734 2.548 -26.276 8.545 -4.517 -188.577 3728.521 -2847.695 4.124 -0.994 -1.578 -0.03 0.67 -0.74 0.09
1 5.48 548 -3.433 -7.863 2.600 22.095 -22.980 2.747 -218.708 3728.521 -2652.672 2.699 -1.864 -1.657 -0.03 0.67 -0.73 0.09
1 5.49 549 -2.907 -7.403 2.662 45.380 -31.281 7.568 -218.708 3728.521 -2652.672 2.148 -2.316 -1.659 -0.03 0.67 -0.74 0.09
1 5.50 550 -1.159 -6.508 2.399 53.803 -35.065 14.893 -218.708 3728.521 -2697.792 0.393 -3.202 -1.318 -0.03 0.67 -0.74 0.1
1 5.51 551 -0.215 -6.359 2.404 42.664 -34.943 21.118 -188.577 3773.492 -2847.695 -0.568 -3.340 -1.239 -0.03 0.66 -0.74 0.1
1 5.52 552 0.536 -7.734 2.399 -0.427 -21.973 22.736 -203.717 3668.560 -2817.714 -1.345 -1.956 -1.174 -0.03 0.66 -0.74 0.1
1 5.53 553 1.302 -10.051 3.002 -20.630 -6.561 22.400 -203.717 3668.560 -2817.714 -2.138 0.366 -1.762 -0.03 0.66 -0.74 0.1
1 5.54 554 1.336 -11.689 2.270 0.183 5.310 21.118 -188.577 3608.599 -2622.691 -2.201 2.003 -1.055 -0.03 0.66 -0.74 0.11
1 5.55 555 1.441 -11.876 2.457 27.680 1.648 14.771 -188.577 3728.521 -2907.656 -2.330 2.192 -1.242 -0.03 0.66 -0.74 0.11
1 5.56 556 1.820 -9.529 3.251 45.990 2.075 0.763 -188.577 3728.521 -2907.656 -2.742 -0.139 -1.941 -0.03 0.66 -0.75 0.11
1 5.57 557 1.978 -8.423 3.299 32.959 10.651 -11.749 -83.646 3638.580 -2937.786 -2.885 -1.236 -1.916 -0.03 0.65 -0.75 0.11
1 5.58 558 1.829 -7.959 2.725 11.322 20.294 -16.327 -113.626 3653.570 -2877.675 -2.698 -1.696 -1.285 -0.03 0.65 -0.75 0.1
1 5.59 559 1.652 -8.069 2.270 -5.524 23.895 -16.724 -233.698 3743.511 -3012.737 -2.500 -1.587 -0.823 -0.03 0.65 -0.75 0.1
1 5.60 560 1.518 -8.730 1.877 -17.731 24.170 -16.052 -233.698 3743.511 -3012.737 -2.344 -0.930 -0.444 -0.03 0.65 -0.75 0.1
1 5.61 561 1.427 -8.873 1.513 -19.165 23.163 -19.959 -158.597 3668.560 -2967.767 -2.224 -0.792 -0.104 -0.03 0.65 -0.75 0.1
1 5.62 562 1.446 -9.247 1.451 -16.541 25.726 -28.504 -293.659 3653.570 -2907.656 -2.203 -0.426 -0.068 -0.03 0.65 -0.75 0.1
1 5.63 563 1.116 -9.606 1.446 -17.426 39.398 -31.769 -293.659 3653.570 -2907.656 -1.766 -0.081 -0.114 -0.03 0.66 -0.75 0.09
1 5.64 564 0.474 -9.845 1.130 -18.585 46.234 -32.410 -218.708 3608.599 -3027.728 -1.070 0.151 0.174 -0.03 0.66 -0.75 0.08
1 5.65 565 0.005 -10.003 0.986 -19.684 45.899 -32.044 -278.668 3638.580 -2712.783 -0.551 0.302 0.285 -0.03 0.66 -0.75 0.08
1 5.66 566 -0.704 -10.157 0.862 -16.113 38.483 -31.250 -278.668 3638.580 -2712.783 0.202 0.448 0.377 -0.03 0.66 -0.75 0.07
1 5.67 567 -0.895 -9.682 0.522 -4.242 22.827 -25.208 -218.708 3833.453 -2952.776 0.433 -0.031 0.690 -0.03 0.66 -0.75 0.07
1 5.68 568 -0.809 -9.328 0.512 4.120 15.900 -20.722 -218.708 3653.570 -2907.656 0.379 -0.389 0.685 -0.03 0.66 -0.75 0.07
1 5.69 569 -0.508 -8.945 0.579 7.660 12.878 -16.052 -203.717 3818.462 -2862.685 0.105 -0.773 0.616 -0.03 0.66 -0.75 0.07
1 5.70 570 -0.101 -8.835 0.594 2.716 14.221 -9.766 -203.717 3818.462 -2862.685 -0.263 -0.883 0.614 -0.03 0.66 -0.75 0.06
1 5.71 571 0.273 -8.888 0.800 -0.793 16.724 -5.188 -188.577 3773.492 -2952.776 -0.624 -0.831 0.409 -0.03 0.66 -0.75 0.06
1 5.72 572 0.651 -9.275 0.785 -1.190 17.944 -0.610 -203.717 3788.482 -2937.786 -0.993 -0.444 0.418 -0.03 0.66 -0.75 0.06
1 5.73 573 1.015 -9.501 0.685 2.411 18.311 1.465 -203.717 3788.482 -2937.786 -1.353 -0.220 0.516 -0.03 0.66 -0.75 0.06
1 5.74 574 1.130 -9.659 0.752 6.134 17.914 4.517 -113.626 3908.554 -2907.656 -1.464 -0.062 0.451 -0.03 0.66 -0.75 0.06
1 5.75 575 1.499 -9.228 0.804 3.632 19.409 6.012 -233.698 3668.560 -2892.666 -1.832 -0.492 0.405 -0.03 0.66 -0.75 0.06
1 5.76 576 1.523 -8.926 0.670 -2.167 24.078 6.226 -128.616 3848.593 -2787.734 -1.855 -0.793 0.544 -0.03 0.66 -0.75 0.06
1 5.77 577 1.710 -8.979 0.460 -9.430 32.562 6.592 -128.616 3848.593 -2787.734 -2.041 -0.741 0.751 -0.03 0.66 -0.75 0.05
1 5.78 578 1.465 -9.323 0.129 -15.015 46.753 9.430 -248.688 3728.521 -2982.757 -1.799 -0.401 1.041 -0.02 0.66 -0.75 0.05
1 5.79 579 1.341 -9.563 -0.177 -12.939 53.497 11.566 -218.708 3833.453 -2877.675 -1.683 -0.165 1.318 -0.02 0.66 -0.75 0.05
1 5.80 580 1.087 -10.032 -0.244 -6.165 56.671 13.702 -218.708 3833.453 -2877.675 -1.442 0.302 1.356 -0.02 0.67 -0.74 0.05
1 5.81 581 1.068 -10.386 -0.105 2.014 56.793 14.404 -113.626 3833.453 -2952.776 -1.441 0.655 1.198 -0.01 0.67 -0.74 0.04
1 5.82 582 0.862 -10.559 0.407 6.287 51.178 11.505 -203.717 3788.482 -2937.786 -1.254 0.827 0.679 -0.01 0.67 -0.74 0.04
1 5.83 583 0.642 -10.626 0.479 2.502 48.584 9.216 6.146 3773.492 -2847.695 -1.047 0.895 0.607 -0.01 0.67 -0.74 0.04
1 5.84 584 0.206 -10.664 0.498 -1.617 48.432 6.714 6.146 3773.492 -2847.695 -0.623 0.933 0.585 -0 0.67 -0.74 0.04
1 5.85 585 -0.637 -10.621 0.230 -7.233 49.622 8.453 -8.694 3788.482 -2892.666 0.197 0.888 0.830 0 0.67 -0.74 0.03
1 5.86 586 -1.283 -10.458 -0.077 -5.371 49.286 9.460 -113.626 3863.583 -2847.695 0.824 0.724 1.117 0.01 0.67 -0.74 0.03
1 5.87 587 -1.930 -10.420 -0.321 0.397 45.288 9.705 -113.626 3863.583 -2847.695 1.445 0.686 1.344 0.01 0.67 -0.74 0.03
1 5.88 588 -2.346 -10.329 -0.656 5.432 36.774 8.637 -83.646 3818.462 -2892.666 1.832 0.595 1.670 0.01 0.67 -0.74 0.03
1 5.89 589 -2.533 -10.276 -0.915 5.463 23.468 9.552 184.830 3801.523 -2845.446 1.989 0.544 1.924 0.01 0.67 -0.74 0.03
1 5.90 590 -1.786 -9.711 -1.451 -1.831 -0.183 15.808 154.849 3861.484 -3025.479 1.211 -0.021 2.452 0.02 0.67 -0.74 0.03
1 5.91 591 -0.919 -9.563 -1.461 -9.705 -6.897 18.707 154.849 3861.484 -3025.479 0.310 -0.169 2.445 0.02 0.67 -0.74 0.03
1 5.92 592 -0.220 -10.315 0.431 -21.210 -7.690 21.545 244.791 3711.582 -2860.437 -0.451 0.581 0.485 0.02 0.67 -0.74 0.03
1 5.93 593 0.852 -10.928 0.508 -4.669 -0.793 14.771 79.748 3771.543 -2845.446 -1.550 1.192 0.376 0.02 0.67 -0.74 0.03
1 5.94 594 0.527 -12.374 1.556 13.580 22.003 1.678 79.748 3771.543 -2845.446 -1.236 2.639 -0.673 0.02 0.67 -0.74 0.03
1 5.95 595 -1.676 -13.413 2.097 5.280 29.846 -5.280 244.791 3666.461 -2935.538 0.964 3.680 -1.197 0.02 0.67 -0.74 0.03
1 5.96 596 -2.351 -14.026 1.025 -6.500 6.042 -26.306 199.820 3891.465 -2815.466 1.649 4.293 -0.124 0.02 0.67 -0.74 0.03
1 5.97 597 -2.016 -13.714 1.475 6.714 -20.233 -37.689 259.781 3861.484 -2980.508 1.347 3.978 -0.585 0.02 0.67 -0.74 0.03
1 5.98 598 -1.082 -12.881 2.471 19.745 -37.354 -47.150 259.781 3861.484 -2980.508 0.469 3.142 -1.574 0.02 0.67 -0.74 0.02
1 5.99 599 -0.656 -11.799 2.868 17.304 -38.208 -34.271 184.830 3861.484 -2980.508 0.117 2.058 -1.942 0.02 0.67 -0.74 0.02
1 6.00 600 -0.091 -9.366 3.275 1.556 -47.180 -5.157 169.839 3921.595 -2965.518 -0.350 -0.375 -2.299 0.01 0.67 -0.74 0.02
1 6.01 601 0.833 -8.481 3.582 -12.054 -47.363 -0.061 169.839 3921.595 -2965.518 -1.260 -1.259 -2.587 0.01 0.67 -0.74 0.03
1 6.02 602 1.690 -8.409 4.190 -26.245 -34.119 -5.707 124.719 3816.514 -3010.489 -2.100 -1.332 -3.195 0 0.67 -0.74 0.03
1 6.03 603 1.599 -8.825 4.372 -34.973 -12.024 -10.651 4.797 3861.484 -2905.407 -1.978 -0.918 -3.395 -0 0.67 -0.74 0.03
1 6.04 604 0.618 -9.113 3.663 -10.407 7.629 -12.390 -84.995 3846.494 -3010.489 -0.962 -0.635 -2.709 -0 0.67 -0.74 0.03
1 6.05 605 0.101 -9.098 3.443 14.374 4.425 -12.970 -84.995 3846.494 -3010.489 -0.415 -0.650 -2.488 -0 0.67 -0.74 0.03
1 6.06 606 -0.326 -8.749 3.146 25.421 -3.571 -12.665 19.787 3921.595 -2965.518 0.036 -0.997 -2.158 -0 0.67 -0.74 0.03
1 6.07 607 -0.517 -8.701 2.806 14.008 -2.258 -15.259 -40.024 3936.585 -2875.427 0.274 -1.035 -1.713 -0.01 0.67 -0.75 0.02
1 6.08 608 -0.555 -9.026 2.485 1.190 0.610 -16.052 -40.024 3936.585 -2875.427 0.335 -0.706 -1.361 -0.01 0.67 -0.75 0.02
1 6.09 609 -0.685 -9.299 2.112 -2.411 -0.916 -14.496 94.738 3846.494 -2935.538 0.486 -0.432 -0.976 -0.01 0.66 -0.75 0.02
1 6.10 610 -0.575 -9.864 2.121 -0.397 -3.967 -13.184 94.738 3846.494 -2935.538 0.396 0.133 -0.979 -0.01 0.66 -0.75 0.02
1 6.11 611 -0.503 -9.836 2.131 1.587 -5.066 -10.620 -130.115 3816.514 -2785.485 0.342 0.105 -0.979 -0.01 0.66 -0.75 0.02
1 6.12 612 -0.728 -9.726 2.231 -3.601 -0.824 -5.402 -130.115 3816.514 -2785.485 0.583 -0.004 -1.068 -0.01 0.66 -0.75 0.02
1 6.13 613 -1.030 -9.462 2.050 -9.399 2.472 4.150 -84.995 3816.514 -2890.417 0.893 -0.267 -0.881 -0.01 0.66 -0.75 0.02
1 6.14 614 -1.863 -9.343 1.925 -10.437 1.831 13.214 -70.004 3906.455 -2980.508 1.700 -0.388 -0.769 -0.01 0.66 -0.75 0.02
1 6.15 615 -2.270 -8.940 1.705 -7.538 -5.310 14.740 -70.004 3906.455 -2980.508 2.076 -0.790 -0.556 -0.01 0.66 -0.75 0.02
1 6.16 616 -2.619 -8.538 1.518 -8.270 -15.991 16.052 -55.014 3846.494 -2860.437 2.391 -1.192 -0.374 -0.01 0.66 -0.75 0.02
1 6.17 617 -2.725 -8.236 1.461 -11.475 -25.543 18.768 -55.014 3846.494 -2860.437 2.459 -1.494 -0.324 -0.01 0.66 -0.75 0.03
1 6.18 618 -2.686 -8.188 1.346 -18.250 -32.715 21.271 4.797 3906.455 -2950.528 2.388 -1.543 -0.225 -0.01 0.67 -0.75 0.03
1 6.19 619 -2.500 -8.763 1.322 -23.773 -43.518 28.290 4.797 3906.455 -2950.528 2.175 -0.970 -0.227 -0.01 0.67 -0.74 0.03
1 6.20 620 -2.021 -9.113 1.283 -22.919 -52.185 29.724 -160.096 3996.546 -2785.485 1.646 -0.622 -0.217 -0.01 0.67 -0.74 0.04
1 6.21 621 -1.461 -9.309 1.350 -17.639 -56.183 32.471 -40.024 3936.585 -2770.495 1.036 -0.427 -0.312 -0.01 0.67 -0.74 0.04
1 6.22 622 -0.757 -9.156 1.202 -10.071 -54.932 29.785 -40.024 3936.585 -2770.495 0.239 -0.579 -0.198 -0.01 0.67 -0.74 0.05
1 6.23 623 -0.623 -9.070 1.197 -5.310 -48.523 28.046 -130.115 3966.566 -2890.417 0.068 -0.664 -0.199 -0.01 0.67 -0.74 0.06
1 6.24 624 -0.374 -9.036 1.231 -2.472 -40.985 25.391 -130.115 3966.566 -2890.417 -0.214 -0.695 -0.232 -0.01 0.67 -0.74 0.06
1 6.25 625 -0.441 -8.974 0.963 1.251 -33.814 24.841 -145.105 3906.455 -2845.446 -0.176 -0.755 0.041 -0.01 0.67 -0.74 0.06
1 6.26 626 -0.503 -9.132 1.087 0.916 -31.372 19.806 -145.105 3906.455 -2845.446 -0.142 -0.595 -0.076 -0.02 0.67 -0.74 0.07
1 6.27 627 -0.618 -9.266 1.039 1.892 -31.494 17.792 -221.406 3903.907 -2842.448 -0.051 -0.458 -0.022 -0.02 0.67 -0.74 0.07
1 6.28 628 -0.603 -9.496 0.867 3.510 -32.562 13.367 -131.464 3963.868 -2782.337 -0.087 -0.226 0.157 -0.02 0.67 -0.74 0.07
1 6.29 629 -0.575 -9.462 0.637 8.789 -34.393 8.698 -131.464 3963.868 -2782.337 -0.139 -0.256 0.409 -0.02 0.67 -0.74 0.08
1 6.30 630 -0.594 -9.592 0.828 12.238 -34.699 7.050 -41.523 3933.887 -2722.376 -0.124 -0.124 0.234 -0.02 0.67 -0.74 0.08
1 6.31 631 -0.670 -9.529 0.579 13.611 -34.180 4.334 -41.523 3933.887 -2722.376 -0.050 -0.184 0.505 -0.02 0.67 -0.74 0.08
1 6.32 632 -0.781 -9.501 0.713 12.573 -33.539 2.167 -236.546 3918.897 -2857.438 0.062 -0.210 0.393 -0.03 0.67 -0.74 0.08
1 6.33 633 -0.824 -9.252 0.541 10.284 -33.600 0.153 -236.546 3918.897 -2857.438 0.110 -0.457 0.585 -0.03 0.66 -0.74 0.08
1 6.34 634 -0.924 -8.715 0.421 3.540 -31.433 -0.305 -116.474 3933.887 -2692.396 0.216 -0.992 0.720 -0.03 0.66 -0.74 0.09
1 6.35 635 -1.116 -8.404 0.125 -1.190 -28.412 -0.397 -236.546 3963.868 -2782.337 0.414 -1.303 1.024 -0.03 0.66 -0.74 0.09
1 6.36 636 -1.235 -8.533 -0.091 -7.599 -23.865 -2.197 -236.546 3963.868 -2782.337 0.548 -1.175 1.241 -0.03 0.66 -0.74 0.09
1 6.37 637 -1.585 -8.624 -0.259 -11.108 -20.508 -5.768 -296.507 3933.887 -2767.347 0.907 -1.085 1.400 -0.04 0.66 -0.74 0.09
1 6.38 638 -1.891 -9.070 -0.340 -14.221 -19.440 -10.345 -296.507 3933.887 -2767.347 1.229 -0.643 1.467 -0.04 0.66 -0.74 0.09
1 6.39 639 -2.346 -9.472 -0.330 -17.059 -22.156 -14.618 -236.546 4068.799 -2707.386 1.696 -0.245 1.428 -0.04 0.67 -0.74 0.09
1 6.40 640 -2.480 -10.516 -0.350 -16.449 -36.041 -19.898 -236.546 3918.897 -2782.337 1.847 0.794 1.413 -0.04 0.67 -0.74 0.09
1 6.41 641 -2.380 -11.124 -0.211 -9.583 -44.373 -18.890 -206.416 3813.815 -2782.337 1.769 1.397 1.241 -0.04 0.67 -0.74 0.09
1 6.42 642 -2.021 -11.684 -0.038 -3.204 -49.927 -15.808 -206.416 4038.819 -2632.435 1.446 1.954 1.057 -0.05 0.67 -0.74 0.1
1 6.43 643 -1.571 -11.967 0.359 -1.953 -48.981 -10.742 -206.416 4038.819 -2632.435 1.030 2.235 0.658 -0.05 0.67 -0.74 0.1
1 6.44 644 -0.867 -11.335 0.441 -2.289 -46.692 -4.730 -356.468 4113.770 -2707.386 0.373 1.600 0.581 -0.06 0.67 -0.74 0.1
1 6.45 645 -0.599 -11.019 0.120 -6.866 -46.295 -3.235 -356.468 4113.770 -2707.386 0.119 1.284 0.902 -0.06 0.67 -0.74 0.1
1 6.46 646 -0.125 -10.722 -0.441 -11.322 -46.723 -1.465 -356.468 3963.868 -2707.386 -0.342 0.985 1.454 -0.06 0.67 -0.74 0.11
1 6.47 647 0.120 -10.209 -0.723 -9.674 -45.197 -0.793 -416.429 3993.848 -2677.406 -0.573 0.470 1.714 -0.07 0.67 -0.73 0.11
1 6.48 648 0.469 -9.644 -0.637 -10.132 -33.661 -3.326 -476.540 4053.809 -2542.344 -0.909 -0.098 1.605 -0.07 0.67 -0.73 0.11
1 6.49 649 0.589 -9.740 0.479 -15.167 -22.797 -8.057 -521.510 4053.809 -2692.396 -1.012 -0.005 0.464 -0.07 0.67 -0.73 0.11
1 6.50 650 -0.072 -11.220 -0.316 -4.181 -23.743 -7.477 -521.510 4053.809 -2692.396 -0.330 1.471 1.233 -0.07 0.67 -0.73 0.11
1 6.51 651 1.939 -13.896 3.295 3.265 -20.294 27.710 -476.540 3903.907 -2692.396 -2.325 4.146 -2.384 -0.08 0.67 -0.73 0.11
1 6.52 652 1.959 -14.821 2.404 -12.756 -2.441 36.652 -476.540 3903.907 -2692.396 -2.387 5.072 -1.493 -0.08 0.67 -0.73 0.12
1 6.53 653 1.724 -15.161 1.733 -19.898 4.822 50.293 -446.409 4098.780 -2542.344 -2.211 5.413 -0.844 -0.07 0.67 -0.73 0.12
1 6.54 654 1.336 -13.916 2.389 -5.096 19.714 53.772 -476.540 4128.910 -2587.464 -1.901 4.170 -1.527 -0.07 0.67 -0.73 0.12
1 6.55 655 0.354 -12.034 3.352 24.994 42.786 47.333 -611.452 3918.897 -2557.334 -1.000 2.293 -2.488 -0.07 0.67 -0.73 0.12
1 6.56 656 -0.479 -10.310 3.453 21.271 49.133 35.889 -296.507 4023.829 -2467.393 -0.243 0.577 -2.558 -0.06 0.67 -0.73 0.12
1 6.57 657 -1.652 -9.534 3.065 -3.052 42.938 20.996 -296.507 4023.829 -2467.393 0.866 -0.190 -2.140 -0.06 0.67 -0.73 0.12
1 6.58 658 -2.519 -9.299 2.667 -37.933 22.522 9.766 -296.507 4023.829 -2722.376 1.658 -0.420 -1.755 -0.05 0.67 -0.73 0.12
1 6.59 659 -3.127 -8.902 2.552 -39.917 0.305 8.270 -296.507 4023.829 -2722.376 2.238 -0.819 -1.687 -0.05 0.67 -0.73 0.12
1 6.60 660 -2.763 -8.557 2.370 -24.475 -23.499 6.958 -281.517 4038.819 -2707.386 1.848 -1.165 -1.544 -0.05 0.67 -0.73 0.12
1 6.61 661 -2.198 -7.863 2.399 -2.533 -38.269 8.972 -251.536 3933.887 -2647.425 1.261 -1.858 -1.583 -0.05 0.68 -0.73 0.12
1 6.62 662 -1.336 -7.437 2.399 16.388 -39.002 9.735 -311.497 3918.897 -2602.455 0.385 -2.281 -1.567 -0.05 0.67 -0.73 0.13
1 6.63 663 -0.364 -6.833 2.643 32.288 -24.872 16.052 -191.425 4023.829 -2617.445 -0.597 -2.881 -1.774 -0.05 0.67 -0.73 0.13
1 6.64 664 -0.062 -6.900 2.586 24.719 -16.296 18.402 -191.425 4023.829 -2617.445 -0.916 -2.807 -1.664 -0.05 0.67 -0.73 0.13
1 6.65 665 0.053 -7.599 2.409 4.730 -9.155 17.304 -371.458 4173.881 -2512.363 -1.054 -2.101 -1.442 -0.05 0.67 -0.73 0.13
1 6.66 666 0.426 -10.401 2.294 -5.157 8.545 13.641 -371.458 4173.881 -2512.363 -1.472 0.706 -1.321 -0.05 0.67 -0.73 0.14
1 6.67 667 0.584 -11.789 1.810 13.153 11.383 9.583 -251.536 4098.780 -2617.445 -1.638 2.096 -0.829 -0.05 0.67 -0.73 0.14
1 6.68 668 0.709 -11.703 2.040 36.194 1.953 4.456 -386.448 3993.848 -2527.354 -1.775 2.014 -1.031 -0.05 0.67 -0.73 0.14
1 6.69 669 1.212 -10.425 2.701 50.965 -3.204 -0.549 -281.517 3993.848 -2557.334 -2.282 0.742 -1.630 -0.05 0.67 -0.73 0.14
1 6.70 670 1.733 -8.639 2.806 42.084 2.197 -15.167 -311.497 3993.848 -2677.406 -2.796 -1.036 -1.658 -0.05 0.66 -0.73 0.14
1 6.71 671 2.069 -8.260 2.346 25.635 10.864 -19.501 -311.497 3993.848 -2677.406 -3.092 -1.408 -1.118 -0.05 0.66 -0.74 0.14
1 6.72 672 2.131 -8.275 1.820 8.942 16.357 -21.942 -236.546 3993.848 -2632.435 -3.106 -1.392 -0.534 -0.05 0.66 -0.74 0.14
1 6.73 673 2.370 -8.734 1.523 -5.035 22.461 -23.560 -236.546 3993.848 -2632.435 -3.263 -0.937 -0.214 -0.05 0.66 -0.74 0.13
1 6.74 674 2.413 -8.844 1.657 -6.287 28.565 -25.604 -416.429 3918.897 -2752.357 -3.251 -0.833 -0.356 -0.05 0.66 -0.74 0.13
1 6.75 675 2.198 -9.079 1.484 -9.827 37.537 -28.442 -356.468 3843.796 -2677.406 -2.977 -0.604 -0.193 -0.06 0.66 -0.74 0.12
1 6.76 676 1.494 -9.242 1.532 -14.648 48.584 -30.579 -386.448 3843.796 -2557.334 -2.215 -0.448 -0.258 -0.06 0.66 -0.74 0.12
1 6.77 677 0.541 -9.357 1.101 -21.393 55.817 -30.274 -356.468 3918.897 -2602.455 -1.208 -0.340 0.147 -0.06 0.66 -0.74 0.11
1 6.78 678 -0.570 -9.692 0.699 -25.757 56.153 -32.074 -356.468 3918.897 -2602.455 -0.050 -0.013 0.511 -0.05 0.66 -0.74 0.11
1 6.79 679 -1.379 -9.879 0.417 -20.630 46.448 -30.304 -356.468 3963.868 -2527.354 0.803 0.166 0.749 -0.05 0.66 -0.74 0.1
1 6.80 680 -1.757 -9.395 0.546 -3.052 25.086 -24.201 -356.468 3963.868 -2527.354 1.247 -0.329 0.555 -0.05 0.66 -0.74 0.1
1 6.81 681 -1.446 -9.065 0.474 8.026 14.160 -19.409 -356.468 3888.767 -2602.455 0.958 -0.662 0.621 -0.05 0.66 -0.74 0.09
1 6.82 682 -0.900 -8.519 0.809 14.130 8.911 -14.893 -281.517 3843.796 -2632.435 0.431 -1.207 0.297 -0.05 0.66 -0.74 0.09
1 6.83 683 -0.484 -8.409 0.967 11.963 10.468 -10.010 -281.517 3843.796 -2632.435 0.032 -1.316 0.160 -0.05 0.66 -0.74 0.09
1 6.84 684 -0.072 -8.849 0.934 -1.129 15.717 -4.700 -491.530 3918.897 -2527.354 -0.367 -0.874 0.208 -0.05 0.66 -0.74 0.09
1 6.85 685 0.029 -9.299 0.766 -5.005 16.785 -1.678 -491.530 3918.897 -2527.354 -0.460 -0.424 0.377 -0.05 0.66 -0.74 0.09
1 6.86 686 0.206 -9.659 0.637 -2.411 14.648 1.007 -371.458 3903.907 -2722.376 -0.632 -0.066 0.498 -0.05 0.66 -0.74 0.09
1 6.87 687 0.254 -9.730 0.402 1.312 11.139 3.723 -371.458 3903.907 -2722.376 -0.679 0.005 0.726 -0.05 0.66 -0.74 0.09
1 6.88 688 0.661 -9.639 0.479 4.150 11.536 6.958 -401.438 3828.806 -2542.344 -1.088 -0.086 0.648 -0.05 0.66 -0.74 0.09
1 6.89 689 0.709 -9.433 0.412 2.441 14.679 8.331 -401.438 3858.786 -2617.445 -1.140 -0.292 0.717 -0.05 0.66 -0.74 0.09
1 6.90 690 0.718 -9.491 0.220 -2.106 20.722 8.759 -401.438 3858.786 -2617.445 -1.156 -0.234 0.905 -0.05 0.66 -0.74 0.09
1 6.91 691 0.761 -9.596 0.005 -8.972 26.154 8.972 -446.409 3858.786 -2722.376 -1.206 -0.130 1.108 -0.05 0.66 -0.74 0.09
1 6.92 692 0.666 -9.668 -0.235 -12.146 30.945 10.254 -446.409 3858.786 -2722.376 -1.118 -0.061 1.324 -0.04 0.67 -0.74 0.08
1 6.93 693 0.694 -9.606 -0.369 -9.735 29.266 9.338 -371.458 4023.829 -2542.344 -1.158 -0.125 1.430 -0.04 0.67 -0.74 0.08
1 6.94 694 0.977 -9.817 -0.115 -5.310 25.299 10.040 -371.458 4023.829 -2542.344 -1.450 0.083 1.150 -0.04 0.67 -0.74 0.08
1 6.95 695 1.188 -10.228 0.129 -0.061 24.323 9.766 -236.546 3888.767 -2632.435 -1.676 0.492 0.872 -0.04 0.67 -0.74 0.08
1 6.96 696 1.188 -10.487 0.431 -0.275 26.367 9.308 -296.507 3828.806 -2692.396 -1.680 0.750 0.563 -0.04 0.67 -0.74 0.08
1 6.97 697 0.934 -10.674 0.417 -1.648 28.473 9.583 -296.507 3828.806 -2692.396 -1.430 0.936 0.571 -0.04 0.67 -0.74 0.08
1 6.98 698 0.551 -10.674 0.364 -3.845 28.442 9.613 -281.517 3843.796 -2527.354 -1.053 0.936 0.614 -0.03 0.67 -0.74 0.08
1 6.99 699 -0.158 -10.568 -0.053 -5.981 29.205 9.857 -206.416 3888.767 -2557.334 -0.353 0.829 1.018 -0.03 0.67 -0.74 0.07
1 7.00 700 -0.757 -10.482 -0.225 -4.425 31.952 9.460 -116.474 3828.806 -2542.344 0.233 0.742 1.175 -0.03 0.67 -0.74 0.07
1 7.01 701 -1.470 -10.310 -0.781 -0.336 30.731 9.094 -116.474 3828.806 -2542.344 0.930 0.569 1.714 -0.03 0.67 -0.74 0.07
1 7.02 702 -2.026 -9.960 -1.279 5.188 14.008 10.010 -251.536 3858.786 -2587.464 1.442 0.220 2.188 -0.02 0.67 -0.74 0.07
1 7.03 703 -1.690 -9.678 -1.326 4.364 -1.099 11.688 -206.416 3888.767 -2422.422 1.080 -0.062 2.228 -0.02 0.67 -0.74 0.07
1 7.04 704 -0.982 -9.505 -0.929 -1.434 -9.277 15.930 -206.565 3888.617 -2422.122 0.346 -0.233 1.820 -0.02 0.67 -0.73 0.07
1 7.05 705 -0.455 -9.874 0.350 -9.766 -7.355 20.813 -131.614 3963.568 -2497.073 -0.208 0.136 0.523 -0.02 0.67 -0.73 0.07
1 7.06 706 0.091 -10.631 0.441 0.916 5.951 16.571 -86.644 3813.516 -2602.005 -0.782 0.892 0.414 -0.02 0.68 -0.73 0.08
1 7.07 707 -1.671 -13.078 1.920 25.482 39.429 -2.777 -161.595 3843.496 -2602.005 0.965 3.341 -1.059 -0.02 0.68 -0.73 0.08
1 7.08 708 -3.386 -13.901 1.834 14.008 24.109 -15.015 -161.595 3843.496 -2602.005 2.675 4.168 -0.940 -0.02 0.67 -0.73 0.07
1 7.09 709 -3.295 -13.968 1.609 1.221 -1.373 -31.921 -86.644 3783.535 -2602.005 2.599 4.236 -0.690 -0.02 0.67 -0.74 0.07
1 7.10 710 -2.552 -13.542 1.767 1.678 -37.598 -63.996 -191.575 3768.545 -2587.015 1.980 3.803 -0.840 -0.02 0.67 -0.74 0.07
1 7.11 711 -1.494 -12.287 2.093 9.094 -53.497 -57.099 -191.575 3768.545 -2587.015 1.024 2.544 -1.156 -0.03 0.67 -0.74 0.07
1 7.12 712 -0.704 -10.602 2.275 4.456 -57.404 -35.797 -161.595 3738.564 -2557.034 0.322 0.856 -1.320 -0.03 0.67 -0.74 0.07
1 7.13 713 0.321 -9.352 2.686 -9.338 -55.237 -14.435 -221.556 3798.525 -2587.015 -0.648 -0.395 -1.726 -0.04 0.67 -0.74 0.07
1 7.14 714 1.911 -8.897 3.429 -32.501 -46.295 -4.364 -146.604 3648.473 -2647.125 -2.209 -0.851 -2.471 -0.04 0.67 -0.74 0.07
1 7.15 715 2.562 -8.983 4.075 -44.953 -34.515 -8.057 -146.604 3648.473 -2647.125 -2.834 -0.768 -3.141 -0.05 0.67 -0.74 0.07
1 7.16 716 2.615 -9.208 4.453 -44.861 -18.189 -8.911 -386.598 3708.584 -2527.054 -2.851 -0.548 -3.559 -0.05 0.67 -0.74 0.07
1 7.17 717 1.992 -9.237 4.319 -16.174 2.319 -8.331 -281.667 3888.617 -2422.122 -2.153 -0.526 -3.487 -0.05 0.67 -0.73 0.07
1 7.18 718 1.140 -8.792 3.884 4.974 10.681 -9.064 -281.667 3888.617 -2422.122 -1.270 -0.971 -3.039 -0.05 0.67 -0.73 0.07
1 7.19 719 0.359 -8.294 3.544 16.754 15.442 -11.444 -221.556 3828.506 -2587.015 -0.463 -1.466 -2.662 -0.05 0.67 -0.74 0.07
1 7.20 720 -0.522 -8.236 3.275 20.569 20.660 -15.900 -536.650 3783.535 -2497.073 0.440 -1.519 -2.344 -0.05 0.67 -0.74 0.07
1 7.21 721 -0.977 -8.495 2.873 17.365 19.348 -19.104 -386.598 3738.564 -2422.122 0.917 -1.256 -1.892 -0.05 0.67 -0.74 0.06
1 7.22 722 -1.144 -9.309 2.528 6.866 7.660 -23.407 -386.598 3738.564 -2422.122 1.109 -0.438 -1.514 -0.05 0.67 -0.74 0.06
1 7.23 723 -0.690 -9.692 2.356 2.014 0.122 -21.118 -476.689 3798.525 -2616.995 0.681 -0.052 -1.314 -0.05 0.67 -0.74 0.06
1 7.24 724 -0.283 -9.299 2.696 6.653 -3.021 -13.428 -401.588 3768.545 -2542.044 0.324 -0.441 -1.622 -0.06 0.66 -0.74 0.06
1 7.25 725 -0.182 -9.089 2.868 10.407 1.740 -5.371 -401.588 3768.545 -2542.044 0.239 -0.649 -1.769 -0.06 0.66 -0.74 0.06
1 7.26 726 -0.259 -8.969 2.916 7.965 8.148 5.737 -371.608 3768.545 -2542.044 0.318 -0.766 -1.787 -0.06 0.66 -0.74 0.06
1 7.27 727 -0.541 -8.754 2.706 -1.007 15.991 9.491 -536.650 3708.584 -2527.054 0.587 -0.978 -1.553 -0.05 0.66 -0.75 0.06
1 7.28 728 -1.844 -9.419 2.275 -12.787 23.285 10.010 -446.559 3828.506 -2647.125 1.869 -0.312 -1.114 -0.05 0.66 -0.75 0.06
1 7.29 729 -2.509 -9.745 1.915 -9.277 18.097 7.477 -446.559 3828.506 -2647.125 2.507 0.013 -0.761 -0.05 0.66 -0.75 0.06
1 7.30 730 -2.935 -9.769 1.743 -3.784 8.179 7.965 -401.588 3798.525 -2647.125 2.904 0.036 -0.595 -0.05 0.66 -0.75 0.06
1 7.31 731 -3.213 -9.477 1.676 -0.397 -5.219 8.545 -521.660 3693.594 -2616.995 3.150 -0.256 -0.529 -0.05 0.66 -0.75 0.06
1 7.32 732 -2.629 -9.486 1.537 -6.134 -26.917 13.794 -521.660 3693.594 -2616.995 2.497 -0.245 -0.384 -0.05 0.66 -0.74 0.06
1 7.33 733 -1.906 -9.486 1.690 -10.345 -37.201 16.052 -446.559 3858.486 -2542.044 1.739 -0.245 -0.543 -0.05 0.66 -0.74 0.07
1 7.34 734 -1.178 -9.472 1.633 -9.186 -40.131 20.355 -386.598 3738.564 -2497.073 0.979 -0.260 -0.495 -0.05 0.66 -0.74 0.07
1 7.35 735 -0.642 -9.472 1.628 -7.751 -35.584 22.614 -416.579 3813.516 -2452.103 0.411 -0.260 -0.497 -0.05 0.66 -0.74 0.07
1 7.36 736 -0.474 -9.472 1.494 -5.707 -25.421 21.301 -416.579 3813.516 -2452.103 0.212 -0.260 -0.368 -0.05 0.66 -0.74 0.08
1 7.37 737 -0.718 -9.362 1.465 -5.493 -21.698 19.989 -521.660 3723.574 -2587.015 0.427 -0.369 -0.341 -0.05 0.66 -0.74 0.08
1 7.38 738 -0.929 -9.352 1.413 -4.822 -21.851 17.792 -536.650 3813.516 -2497.073 0.611 -0.378 -0.292 -0.05 0.66 -0.74 0.08
1 7.39 739 -1.049 -9.357 1.389 -1.648 -25.818 16.022 -536.650 3813.516 -2497.073 0.680 -0.372 -0.272 -0.05 0.66 -0.74 0.09
1 7.40 740 -0.939 -9.400 1.365 2.686 -27.069 12.970 -446.559 3693.594 -2437.112 0.548 -0.328 -0.244 -0.05 0.66 -0.74 0.09
1 7.41 741 -0.737 -9.615 1.432 7.874 -26.245 11.993 -521.660 3768.545 -2406.982 0.329 -0.110 -0.301 -0.05 0.66 -0.74 0.09
1 7.42 742 -0.752 -9.390 1.446 12.756 -25.360 8.453 -521.660 3768.545 -2406.982 0.330 -0.333 -0.296 -0.05 0.66 -0.74 0.09
1 7.43 743 -0.996 -9.443 1.331 12.970 -23.377 7.202 -476.689 3693.594 -2406.982 0.565 -0.277 -0.156 -0.06 0.66 -0.74 0.1
1 7.44 744 -1.053 -9.050 1.231 12.116 -23.804 6.134 -416.579 3663.613 -2527.054 0.614 -0.666 -0.031 -0.06 0.66 -0.74 0.1
1 7.45 745 -1.121 -8.701 1.302 10.376 -26.001 3.632 -551.641 3693.594 -2542.044 0.673 -1.012 -0.080 -0.06 0.66 -0.74 0.1
1 7.46 746 -1.216 -8.227 0.919 1.343 -29.297 1.038 -551.641 3693.594 -2542.044 0.764 -1.482 0.336 -0.06 0.66 -0.74 0.1
1 7.47 747 -0.963 -8.179 0.843 -8.331 -30.823 0.366 -446.559 3693.594 -2616.995 0.516 -1.530 0.415 -0.06 0.66 -0.74 0.1
1 7.48 748 -1.049 -8.145 0.661 -14.557 -30.121 -1.648 -401.588 3723.574 -2616.995 0.609 -1.565 0.585 -0.06 0.66 -0.74 0.11
1 7.49 749 -1.010 -8.265 0.527 -16.449 -27.832 -2.655 -401.588 3723.574 -2616.995 0.580 -1.448 0.699 -0.07 0.66 -0.74 0.11
1 7.50 750 -1.068 -8.715 0.374 -13.611 -24.628 -5.585 -551.641 3768.545 -2587.015 0.650 -1.001 0.831 -0.07 0.66 -0.74 0.11
1 7.51 751 -1.173 -9.357 0.378 -6.805 -20.844 -9.888 -521.660 3798.525 -2616.995 0.770 -0.362 0.811 -0.07 0.66 -0.74 0.11
1 7.52 752 -1.259 -9.884 0.335 -4.456 -22.766 -12.848 -551.641 3768.545 -2722.077 0.869 0.162 0.840 -0.07 0.66 -0.74 0.11
1 7.53 753 -1.121 -10.109 0.158 -3.418 -27.771 -14.404 -551.641 3768.545 -2722.077 0.748 0.385 1.007 -0.07 0.66 -0.74 0.11
1 7.54 754 -0.522 -10.367 0.536 -0.214 -35.004 -14.954 -626.892 3902.408 -2510.864 0.194 0.640 0.611 -0.08 0.66 -0.74 0.11
1 7.55 755 -0.316 -10.300 0.819 3.571 -33.417 -16.052 -551.940 3797.476 -2645.776 0.015 0.572 0.326 -0.08 0.66 -0.74 0.11
1 7.56 756 -0.306 -10.506 1.053 8.148 -27.405 -16.449 -551.940 3797.476 -2645.776 0.037 0.778 0.097 -0.08 0.66 -0.74 0.11
1 7.57 757 -0.225 -10.439 1.077 8.118 -20.905 -17.670 -701.993 3647.424 -2585.815 -0.014 0.711 0.086 -0.09 0.66 -0.74 0.11
1 7.58 758 -0.383 -10.420 1.034 2.563 -14.374 -18.158 -776.944 3647.424 -2540.845 0.175 0.693 0.140 -0.09 0.66 -0.74 0.11
1 7.59 759 -0.527 -10.540 0.900 -2.045 -13.794 -17.670 -731.973 3647.424 -2585.815 0.349 0.813 0.281 -0.09 0.66 -0.74 0.11
1 7.60 760 -0.350 -10.458 0.776 -3.967 -14.832 -15.839 -731.973 3647.424 -2585.815 0.201 0.731 0.404 -0.09 0.66 -0.74 0.11
1 7.61 761 -0.010 -10.003 0.905 -3.296 -15.533 -11.353 -821.915 3587.463 -2495.874 -0.092 0.273 0.260 -0.09 0.66 -0.74 0.11
1 7.62 762 0.283 -9.817 0.670 -3.540 -14.221 -8.209 -731.973 3692.544 -2405.783 -0.364 0.086 0.489 -0.1 0.66 -0.74 0.11
1 7.63 763 0.393 -9.577 0.196 -1.465 -11.536 -6.622 -731.973 3692.544 -2405.783 -0.456 -0.155 0.956 -0.1 0.66 -0.74 0.11
1 7.64 764 0.412 -9.338 -0.220 2.014 -7.690 -7.263 -701.993 3722.525 -2510.864 -0.459 -0.395 1.367 -0.1 0.66 -0.74 0.11
1 7.65 765 0.345 -9.678 -0.642 4.303 0.336 -10.101 -821.915 3557.482 -2525.854 -0.374 -0.055 1.785 -0.1 0.66 -0.74 0.11
1 7.66 766 -0.340 -9.745 -0.752 0.885 14.252 -13.367 -716.983 3662.414 -2525.854 0.330 0.011 1.891 -0.1 0.66 -0.74 0.11
1 7.67 767 -0.493 -10.195 0.201 -6.561 19.440 -16.785 -716.983 3662.414 -2525.854 0.502 0.460 0.928 -0.1 0.66 -0.74 0.11
1 7.68 768 -1.168 -12.120 -0.182 11.505 12.421 -12.604 -806.924 3572.473 -2540.845 1.216 2.382 1.284 -0.1 0.66 -0.74 0.11
1 7.69 769 0.086 -13.034 1.772 7.568 -1.282 8.057 -821.915 3632.434 -2555.835 -0.028 3.299 -0.649 -0.1 0.66 -0.74 0.11
1 7.70 770 0.977 -13.274 3.170 -9.583 13.306 18.982 -821.915 3632.434 -2555.835 -0.934 3.539 -2.044 -0.1 0.66 -0.74 0.11
1 7.71 771 0.383 -13.025 2.035 -16.968 24.719 27.618 -731.973 3722.525 -2510.864 -0.374 3.288 -0.924 -0.1 0.66 -0.74 0.11
1 7.72 772 0.278 -12.340 2.021 -12.787 24.384 40.955 -941.986 3632.434 -2450.903 -0.317 2.600 -0.937 -0.1 0.66 -0.74 0.11
1 7.73 773 0.019 -11.967 2.069 3.998 31.159 42.053 -761.954 3662.414 -2555.835 -0.121 2.225 -1.008 -0.09 0.66 -0.74 0.11
1 7.74 774 -0.120 -10.918 2.064 -3.845 33.356 41.840 -761.954 3662.414 -2555.835 -0.047 1.177 -1.001 -0.09 0.66 -0.74 0.11
1 7.75 775 -0.254 -10.233 1.834 -22.522 37.872 31.159 -656.872 3572.473 -2510.864 0.019 0.494 -0.772 -0.09 0.66 -0.74 0.11
1 7.76 776 -0.555 -10.353 1.767 -34.607 44.556 16.235 -791.934 3737.515 -2600.806 0.227 0.609 -0.770 -0.08 0.67 -0.73 0.11
1 7.77 777 -0.939 -10.252 2.208 -32.806 52.490 10.834 -791.934 3737.515 -2600.806 0.581 0.505 -1.258 -0.08 0.67 -0.73 0.11
1 7.78 778 -1.283 -9.606 2.394 -25.696 57.404 7.721 -821.915 3662.414 -2630.786 0.900 -0.144 -1.485 -0.07 0.67 -0.73 0.11
1 7.79 779 -1.566 -9.266 2.605 -13.672 52.551 0.031 -611.901 3737.515 -2495.874 1.161 -0.486 -1.722 -0.07 0.67 -0.73 0.11
1 7.80 780 -2.117 -8.725 2.859 -7.599 40.772 -0.854 -491.979 3707.535 -2675.907 1.698 -1.028 -1.989 -0.07 0.67 -0.73 0.1
1 7.81 781 -2.107 -8.136 2.864 -1.770 23.316 -0.153 -491.979 3707.535 -2675.907 1.674 -1.616 -1.996 -0.06 0.67 -0.73 0.1
1 7.82 782 -1.350 -7.609 2.993 5.096 6.256 1.892 -551.940 3692.544 -2435.763 0.902 -2.141 -2.116 -0.06 0.67 -0.73 0.1
1 7.83 783 0.268 -7.231 2.806 19.043 -5.249 12.573 -761.954 3662.414 -2495.874 -0.733 -2.516 -1.895 -0.06 0.67 -0.73 0.1
1 7.84 784 1.384 -7.461 2.715 23.621 -2.106 12.756 -761.954 3662.414 -2495.874 -1.866 -2.282 -1.772 -0.06 0.67 -0.73 0.1
1 7.85 785 2.198 -8.074 2.715 25.787 11.993 17.212 -566.931 3587.463 -2525.854 -2.700 -1.664 -1.734 -0.06 0.67 -0.73 0.1
1 7.86 786 2.442 -8.935 2.552 24.231 26.215 19.440 -566.931 3587.463 -2525.854 -2.971 -0.797 -1.533 -0.06 0.67 -0.74 0.1
1 7.87 787 2.342 -10.410 2.658 21.149 45.288 19.806 -536.950 3707.535 -2450.903 -2.882 0.684 -1.592 -0.06 0.67 -0.74 0.1
1 7.88 788 2.155 -10.659 2.749 17.395 55.237 15.900 -536.950 3707.535 -2450.903 -2.709 0.938 -1.641 -0.05 0.66 -0.74 0.1
1 7.89 789 1.786 -10.324 2.701 13.306 63.873 10.345 -476.989 3602.453 -2645.776 -2.374 0.608 -1.569 -0.05 0.66 -0.74 0.1
1 7.90 790 1.221 -9.433 2.275 10.437 70.893 -2.258 -566.931 3632.434 -2525.854 -1.844 -0.277 -1.107 -0.04 0.66 -0.74 0.1
1 7.91 791 0.771 -9.424 2.160 4.639 72.693 -7.629 -566.931 3632.434 -2525.854 -1.386 -0.285 -0.976 -0.04 0.66 -0.74 0.09
1 7.92 792 0.488 -9.826 2.088 -3.571 74.341 -11.078 -461.849 3662.414 -2705.887 -1.092 0.117 -0.898 -0.04 0.66 -0.74 0.09
1 7.93 793 0.781 -10.008 1.781 -7.263 73.426 -12.909 -461.849 3662.414 -2705.887 -1.370 0.298 -0.598 -0.03 0.66 -0.74 0.08
1 7.94 794 1.053 -10.453 1.710 -2.869 71.594 -15.228 -296.957 3692.544 -2765.848 -1.624 0.741 -0.536 -0.03 0.66 -0.74 0.08
1 7.95 795 1.839 -10.252 1.767 4.150 75.867 -17.822 -222.005 3692.245 -2720.428 -2.386 0.538 -0.597 -0.03 0.66 -0.74 0.07
1 7.96 796 1.834 -9.946 1.561 2.838 84.778 -22.949 -522.110 3692.245 -2795.379 -2.352 0.230 -0.389 -0.03 0.66 -0.75 0.07
1 7.97 797 1.647 -9.874 1.470 -3.174 95.703 -24.536 -192.025 3602.153 -2585.366 -2.128 0.157 -0.295 -0.02 0.66 -0.75 0.06
1 7.98 798 1.154 -9.788 1.168 -12.085 106.934 -25.238 -192.025 3602.153 -2585.366 -1.562 0.065 -0.013 -0.02 0.66 -0.75 0.05
1 7.99 799 0.752 -9.754 0.967 -12.268 107.483 -25.360 -282.116 3557.183 -2780.389 -1.128 0.027 0.164 -0.01 0.66 -0.75 0.04
1 8.00 800 0.551 -9.764 0.953 -8.331 105.713 -25.330 -282.116 3557.183 -2780.389 -0.898 0.033 0.157 -0.01 0.67 -0.75 0.03
1 8.01 801 0.469 -9.726 0.891 -4.486 103.913 -24.017 -117.074 3647.124 -2765.398 -0.789 -0.008 0.203 -0 0.67 -0.74 0.03
1 8.02 802 0.623 -9.615 0.991 1.404 104.157 -18.280 -117.074 3647.124 -2765.398 -0.918 -0.120 0.092 0 0.67 -0.74 0.02
1 8.03 803 1.020 -9.577 0.948 5.707 103.577 -16.754 -87.093 3662.114 -2810.369 -1.295 -0.159 0.131 0.01 0.67 -0.74 0.01
1 8.04 804 1.226 -9.577 1.135 10.345 106.507 -15.564 -72.103 3767.196 -2765.398 -1.484 -0.159 -0.053 0.01 0.67 -0.75 0.01
1 8.05 805 1.422 -9.611 1.106 13.245 116.852 -14.343 -72.103 3767.196 -2765.398 -1.647 -0.124 0.003 -0.02 -0.67 0.75 0.01
1 8.06 806 1.087 -9.706 0.867 13.214 125.275 -14.130 -117.074 3572.173 -2645.327 -1.298 -0.026 0.259 -0.03 -0.66 0.75 0.01
1 8.07 807 0.757 -9.845 1.006 13.977 130.066 -13.275 -117.074 3572.173 -2645.327 -0.957 0.114 0.136 -0.03 -0.66 0.75 0.02
1 8.08 808 0.675 -9.841 0.718 15.900 132.996 -12.695 122.770 3557.183 -2855.340 -0.870 0.111 0.440 -0.04 -0.66 0.75 0.03
1 8.09 809 0.230 -10.104 0.737 17.395 134.064 -12.695 122.770 3557.183 -2855.340 -0.422 0.377 0.439 -0.04 -0.66 0.75 0.03
1 8.10 810 0.168 -10.070 0.790 20.813 134.430 -10.834 122.770 3482.231 -2675.457 -0.360 0.346 0.407 -0.05 -0.66 0.75 0.04
1 8.11 811 0.182 -9.778 0.608 23.499 133.851 -8.972 152.750 3572.173 -2765.398 -0.378 0.057 0.612 -0.06 -0.66 0.75 0.05
1 8.12 812 0.297 -9.615 0.642 25.787 134.125 -8.209 152.750 3572.173 -2765.398 -0.500 -0.103 0.605 -0.06 -0.66 0.75 0.06
1 8.13 813 0.273 -9.472 0.431 19.287 134.980 -5.981 363.063 3602.453 -2690.747 -0.496 -0.239 0.872 -0.08 -0.65 0.75 0.07
1 8.14 814 0.402 -9.663 0.383 12.024 135.010 -5.524 363.063 3602.453 -2690.747 -0.638 -0.045 0.936 -0.08 -0.65 0.75 0.08
1 8.15 815 0.503 -10.018 0.249 8.026 134.766 -4.028 393.044 3437.561 -2675.757 -0.752 0.311 1.075 -0.09 -0.65 0.75 0.09
1 8.16 816 0.661 -10.324 0.374 11.108 136.780 -2.655 453.005 3512.512 -2705.737 -0.926 0.618 0.950 -0.1 -0.65 0.75 0.09
1 8.17 817 0.690 -10.621 0.546 15.595 142.456 -3.540 393.044 3482.531 -2930.741 -0.970 0.915 0.780 -0.11 -0.65 0.75 0.1
1 8.18 818 0.431 -10.425 0.546 19.959 146.424 -3.876 588.067 3377.450 -2795.679 -0.726 0.721 0.789 -0.11 -0.65 0.75 0.11
1 8.19 819 0.249 -10.161 0.646 23.560 145.783 -4.852 588.067 3377.450 -2795.679 -0.560 0.460 0.704 -0.12 -0.65 0.75 0.11
1 8.20 820 0.081 -9.845 0.613 26.032 141.724 -7.294 798.380 3527.802 -2720.877 -0.427 0.151 0.783 -0.14 -0.64 0.74 0.13
1 8.21 821 0.144 -9.673 0.737 22.949 138.825 -8.850 798.380 3527.802 -2720.877 -0.504 -0.017 0.684 -0.14 -0.64 0.74 0.14
1 8.22 822 0.182 -9.620 0.541 17.914 137.757 -10.071 828.360 3452.701 -2840.949 -0.554 -0.066 0.900 -0.15 -0.64 0.74 0.14
1 8.23 823 0.455 -9.639 0.469 12.848 136.811 -9.766 813.370 3587.763 -2705.887 -0.837 -0.045 0.984 -0.16 -0.63 0.74 0.15
1 8.24 824 0.584 -10.061 0.431 5.981 137.513 -11.627 993.253 3317.789 -2750.858 -0.975 0.378 1.026 -0.16 -0.63 0.74 0.16
1 8.25 825 0.718 -10.051 0.187 7.233 138.794 -12.848 1068.354 3362.759 -2810.969 -1.114 0.367 1.265 -0.17 -0.63 0.74 0.17
1 8.26 826 0.699 -10.042 0.043 10.895 136.994 -11.871 1068.354 3362.759 -2810.969 -1.098 0.357 1.403 -0.18 -0.63 0.74 0.17
1 8.27 827 1.245 -9.764 0.038 18.646 139.100 -9.918 1249.886 3364.108 -2557.334 -1.651 0.080 1.409 -0.19 -0.62 0.73 0.19
1 8.28 828 1.384 -9.817 0.168 19.074 144.043 -7.050 1249.886 3364.108 -2557.334 -1.795 0.134 1.290 -0.2 -0.62 0.73 0.2
1 8.29 829 1.461 -10.070 0.383 12.604 153.779 -5.310 1204.915 3454.200 -2692.396 -1.881 0.390 1.082 -0.2 -0.62 0.73 0.2
1 8.30 830 1.183 -10.430 0.608 4.791 165.284 -4.761 1369.808 3364.108 -2602.305 -1.615 0.749 0.855 -0.21 -0.62 0.73 0.21
1 8.31 831 -0.091 -10.995 0.642 6.439 179.535 -5.127 1384.948 3424.219 -2692.396 -0.358 1.313 0.810 -0.22 -0.61 0.72 0.22
1 8.32 832 -0.967 -11.258 1.020 14.893 183.625 -7.874 1579.821 3289.157 -2677.406 0.490 1.577 0.424 -0.23 -0.61 0.72 0.23
1 8.33 833 -1.695 -11.708 1.413 25.299 183.808 -11.902 1579.821 3289.157 -2677.406 1.189 2.029 0.037 -0.24 -0.61 0.72 0.24
1 8.34 834 -2.926 -12.398 2.097 36.102 168.763 -19.531 1624.941 3319.138 -2527.354 2.379 2.729 -0.594 -0.26 -0.6 0.71 0.26
1 8.35 835 -3.041 -12.259 2.533 41.077 151.276 -23.316 1624.941 3319.138 -2527.354 2.487 2.597 -0.987 -0.26 -0.59 0.71 0.27
1 8.36 836 -2.806 -12.163 3.036 46.478 136.078 -26.123 1684.902 3379.249 -2542.344 2.253 2.510 -1.438 -0.27 -0.59 0.71 0.28
1 8.37 837 -2.059 -11.631 3.477 51.270 134.705 -24.780 1864.935 3349.118 -2467.243 1.512 1.988 -1.818 -0.27 -0.58 0.71 0.28
1 8.38 838 -1.848 -10.702 3.548 53.711 150.422 -21.271 1819.814 3109.125 -2287.360 1.302 1.071 -1.823 -0.28 -0.58 0.71 0.29
1 8.39 839 -2.222 -10.300 3.462 50.629 158.112 -21.210 1894.916 3349.118 -2542.344 1.669 0.682 -1.669 -0.28 -0.57 0.71 0.3
1 8.40 840 -2.524 -9.673 3.069 47.211 159.119 -22.736 1894.916 3349.118 -2542.344 1.958 0.067 -1.212 -0.29 -0.57 0.71 0.31
1 8.41 841 -2.461 -9.414 2.548 45.960 149.781 -23.377 1984.857 3289.157 -2302.350 1.884 -0.179 -0.633 -0.3 -0.56 0.7 0.32
1 8.42 842 -1.781 -8.983 2.284 38.971 140.015 -23.560 1984.857 3289.157 -2302.350 1.159 -0.583 -0.251 -0.31 -0.55 0.7 0.34
1 8.43 843 -1.255 -8.773 2.045 33.661 140.595 -21.149 2044.818 3109.125 -2407.282 0.613 -0.783 0.034 -0.31 -0.54 0.7 0.34
1 8.44 844 -0.728 -8.639 1.844 29.175 142.121 -19.409 2059.808 3169.235 -2242.239 0.067 -0.908 0.271 -0.32 -0.54 0.7 0.35
1 8.45 845 -0.326 -8.437 1.638 29.846 143.799 -21.088 2092.337 3110.923 -2258.878 -0.354 -1.101 0.505 -0.33 -0.53 0.69 0.36
1 8.46 846 0.460 -8.064 1.815 36.469 148.224 -26.398 2182.278 3065.953 -2378.950 -1.154 -1.467 0.359 -0.33 -0.53 0.69 0.37
1 8.47 847 0.785 -7.844 1.959 39.368 155.060 -30.304 2182.278 3065.953 -2378.950 -1.491 -1.678 0.252 -0.34 -0.52 0.69 0.37
1 8.48 848 0.766 -7.379 1.590 44.342 170.991 -37.903 2257.379 3065.953 -2243.888 -1.486 -2.121 0.706 -0.35 -0.51 0.68 0.39
1 8.49 849 0.575 -7.418 1.480 43.457 176.850 -40.161 2257.379 3065.953 -2243.888 -1.299 -2.071 0.862 -0.35 -0.51 0.68 0.4
1 8.50 850 -0.230 -7.963 0.737 41.992 191.865 -47.028 2227.249 3110.923 -2108.976 -0.497 -1.514 1.648 -0.36 -0.5 0.67 0.41
1 8.51 851 -1.135 -8.854 0.383 38.483 194.489 -50.263 2347.321 3186.024 -2078.846 0.408 -0.613 2.042 -0.37 -0.49 0.67 0.42
1 8.52 852 -1.791 -9.893 0.244 45.715 187.287 -52.368 2513.263 3171.634 -1944.383 1.065 0.433 2.210 -0.37 -0.49 0.66 0.43
1 8.53 853 -2.480 -10.841 0.508 53.528 178.406 -57.312 2528.253 3231.595 -1899.413 1.755 1.391 1.982 -0.38 -0.48 0.66 0.44
1 8.54 854 -2.998 -10.731 0.924 48.432 172.547 -61.463 2528.253 3231.595 -1899.413 2.284 1.293 1.615 -0.38 -0.47 0.65 0.45
1 8.55 855 -2.935 -10.037 0.795 40.619 163.331 -62.988 2498.272 3306.696 -1749.360 2.243 0.611 1.798 -0.39 -0.47 0.65 0.46
1 8.56 856 -2.706 -9.228 0.848 33.386 147.339 -60.791 2498.272 3306.696 -1749.360 2.040 -0.182 1.807 -0.4 -0.45 0.63 0.48
1 8.57 857 -2.169 -8.926 0.723 27.466 143.372 -61.646 2618.344 3171.634 -1734.370 1.516 -0.480 1.950 -0.4 -0.45 0.63 0.49
1 8.58 858 -1.772 -8.969 0.761 20.874 143.799 -61.890 2528.253 3426.618 -1674.409 1.137 -0.435 1.923 -0.41 -0.44 0.62 0.5
1 8.59 859 -1.844 -9.175 0.828 13.031 146.271 -58.838 2528.253 3426.618 -1674.409 1.229 -0.230 1.858 -0.41 -0.44 0.62 0.51
1 8.60 860 -1.896 -9.520 0.848 7.629 149.384 -55.145 2560.182 3353.016 -1465.146 1.297 0.112 1.831 -0.42 -0.44 0.61 0.51
1 8.61 861 -2.313 -9.773 0.948 7.172 149.598 -53.223 2560.182 3353.016 -1465.146 1.723 0.361 1.717 -0.42 -0.43 0.6 0.52
1 8.62 862 -2.777 -9.759 1.015 8.331 147.034 -50.751 2695.094 3397.986 -1435.165 2.194 0.342 1.635 -0.43 -0.43 0.6 0.53
1 8.63 863 -3.017 -9.682 0.881 9.033 141.419 -50.598 2695.094 3397.986 -1435.165 2.435 0.262 1.756 -0.43 -0.42 0.59 0.53
1 8.64 864 -2.610 -9.098 1.082 8.881 132.965 -52.796 2635.133 3457.947 -1465.146 2.030 -0.329 1.532 -0.44 -0.41 0.58 0.55
1 8.65 865 -2.605 -8.859 1.331 7.538 130.555 -53.955 2620.143 3368.006 -1255.132 2.033 -0.571 1.274 -0.45 -0.41 0.57 0.55
1 8.66 866 -2.591 -8.950 1.508 5.280 129.364 -53.192 2620.143 3368.006 -1255.132 2.030 -0.483 1.088 -0.45 -0.41 0.57 0.56
1 8.67 867 -2.562 -9.161 1.628 2.594 127.686 -50.202 2695.094 3518.058 -1330.233 2.010 -0.276 0.958 -0.45 -0.4 0.56 0.56
1 8.68 868 -2.677 -9.611 1.633 0.122 126.740 -49.530 2591.062 3488.827 -1120.520 2.132 0.170 0.941 -0.46 -0.4 0.55 0.57
1 8.69 869 -3.137 -10.113 1.628 1.190 125.061 -48.615 2561.082 3578.769 -1090.540 2.599 0.669 0.931 -0.46 -0.39 0.55 0.57
1 8.70 870 -3.534 -10.535 1.657 1.770 120.758 -46.539 2561.082 3578.769 -1090.540 3.002 1.086 0.888 -0.47 -0.39 0.54 0.58
1 8.71 871 -4.037 -10.635 1.801 1.373 107.849 -43.610 2636.183 3533.798 -1030.579 3.539 1.180 0.728 -0.47 -0.38 0.53 0.59
1 8.72 872 -4.022 -10.410 1.887 0.244 99.121 -42.877 2561.082 3533.798 -910.507 3.547 0.953 0.637 -0.48 -0.38 0.52 0.59
1 8.73 873 -3.845 -10.123 2.241 -1.343 91.339 -41.626 2561.082 3533.798 -910.507 3.395 0.663 0.276 -0.48 -0.38 0.52 0.6
1 8.74 874 -3.682 -9.702 2.356 -3.998 86.975 -38.544 2531.101 3728.821 -910.507 3.258 0.238 0.154 -0.48 -0.37 0.51 0.6
1 8.75 875 -3.414 -9.534 2.533 -8.575 82.489 -34.882 2592.261 3594.658 -685.803 3.001 0.067 -0.036 -0.48 -0.37 0.51 0.61
1 8.76 876 -3.247 -9.577 2.457 -12.085 79.254 -32.959 2592.261 3594.658 -685.803 2.830 0.106 0.025 -0.49 -0.37 0.51 0.61
1 8.77 877 -2.955 -9.534 2.346 -15.503 74.494 -28.809 2592.261 3594.658 -685.803 2.534 0.058 0.115 -0.49 -0.37 0.5 0.61
1 8.78 878 -2.548 -9.208 2.188 -17.120 65.796 -23.560 2502.170 3729.720 -670.813 2.117 -0.281 0.219 -0.5 -0.36 0.49 0.62
1 8.79 879 -2.212 -9.156 2.145 -16.815 62.103 -22.675 2592.261 3639.629 -685.803 1.776 -0.341 0.233 -0.5 -0.36 0.49 0.62
1 8.80 880 -1.848 -9.156 2.337 -16.602 61.859 -20.874 2592.261 3639.629 -685.803 1.410 -0.348 0.013 -0.5 -0.36 0.49 0.62
1 8.81 881 -1.666 -8.931 2.385 -16.296 64.942 -19.592 2547.141 3639.629 -505.771 1.225 -0.580 -0.062 -0.5 -0.36 0.48 0.62
1 8.82 882 -1.451 -9.007 2.366 -11.322 67.780 -22.095 2637.232 3774.691 -595.862 1.005 -0.509 -0.068 -0.51 -0.35 0.48 0.62
1 8.83 883 -1.216 -9.486 2.571 -8.087 61.035 -29.480 2367.258 3789.681 -475.790 0.769 -0.035 -0.295 -0.51 -0.35 0.48 0.62
1 8.84 884 -1.058 -10.022 2.945 -8.331 54.260 -33.020 2367.258 3789.681 -475.790 0.623 0.497 -0.682 -0.51 -0.35 0.47 0.63
1 8.85 885 -0.474 -10.477 2.988 -9.094 50.476 -38.880 2457.199 3774.691 -310.748 0.062 0.948 -0.737 -0.51 -0.35 0.47 0.63
1 8.86 886 0.163 -10.932 3.204 -5.768 53.101 -44.525 2442.209 3819.662 -325.888 -0.494 1.395 -0.976 -0.51 -0.35 0.46 0.63
1 8.87 887 0.340 -10.765 3.424 -1.678 62.103 -47.180 2442.209 3819.662 -325.888 -0.622 1.223 -1.205 -0.52 -0.35 0.46 0.64
1 8.88 888 -0.388 -10.544 3.271 4.181 70.465 -48.645 2397.238 3789.681 -325.888 0.154 1.001 -1.053 -0.52 -0.35 0.45 0.64
1 8.89 889 -0.953 -9.908 3.017 7.813 72.205 -48.248 2397.688 3820.111 -220.956 0.768 0.365 -0.793 -0.52 -0.35 0.45 0.64
1 8.90 890 -1.465 -8.940 2.356 5.798 63.477 -44.403 2157.694 3775.141 -235.946 1.323 -0.599 -0.116 -0.52 -0.34 0.44 0.65
1 8.91 891 -1.384 -8.342 1.882 4.822 52.399 -38.818 2157.694 3775.141 -235.946 1.277 -1.195 0.370 -0.52 -0.34 0.44 0.65
1 8.92 892 -0.441 -7.566 1.614 12.726 38.849 -27.649 2352.717 3835.102 -235.946 0.400 -1.967 0.658 -0.52 -0.34 0.43 0.65
1 8.93 893 0.215 -7.576 1.528 16.388 36.591 -24.292 2367.708 3820.111 -115.875 -0.231 -1.952 0.766 -0.52 -0.34 0.43 0.66
1 8.94 894 1.647 -7.676 1.422 20.874 40.650 -14.465 2367.708 3820.111 -115.875 -1.646 -1.844 0.903 -0.52 -0.34 0.43 0.66
1 8.95 895 2.557 -7.901 1.413 13.336 49.896 -8.667 2232.795 3835.102 -205.966 -2.551 -1.612 0.942 -0.52 -0.33 0.43 0.66
1 8.96 896 3.366 -9.046 1.202 -0.153 65.216 -3.876 2187.675 3970.164 -40.923 -3.368 -0.463 1.170 -0.52 -0.33 0.42 0.66
1 8.97 897 3.735 -10.377 0.943 -22.583 94.849 3.387 2217.805 3925.193 -190.976 -3.734 0.865 1.416 -0.52 -0.33 0.42 0.67
1 8.98 898 3.975 -12.465 1.144 -26.733 112.885 2.716 2217.805 3925.193 -190.976 -3.994 2.945 1.183 -0.52 -0.33 0.42 0.67
1 8.99 899 2.964 -12.532 1.619 -12.848 119.873 -4.700 2307.747 3940.183 -160.845 -3.025 3.003 0.670 -0.53 -0.32 0.41 0.67
1 9.00 900 1.647 -11.454 1.729 10.681 109.009 -17.395 2217.805 4000.144 -70.904 -1.769 1.920 0.534 -0.54 -0.31 0.4 0.67
1 9.01 901 1.322 -10.425 1.944 13.153 99.335 -25.482 2217.805 4000.144 -70.904 -1.450 0.895 0.336 -0.54 -0.31 0.4 0.68
1 9.02 902 1.192 -9.946 1.992 5.646 99.243 -26.978 2127.714 3910.203 -100.884 -1.310 0.419 0.303 -0.54 -0.3 0.39 0.68
1 9.03 903 1.312 -9.706 1.935 -7.050 103.943 -26.642 2052.763 3985.154 -25.933 -1.414 0.179 0.360 -0.54 -0.3 0.39 0.68
1 9.04 904 1.221 -9.908 1.604 -14.343 103.546 -26.154 2112.724 4000.144 33.878 -1.310 0.376 0.673 -0.54 -0.3 0.38 0.69
1 9.05 905 1.417 -10.104 1.518 -9.949 100.281 -26.856 2112.724 4000.144 33.878 -1.494 0.566 0.734 -0.55 -0.29 0.37 0.69
1 9.06 906 1.508 -9.999 1.523 -5.188 102.387 -28.565 2038.522 4000.894 183.930 -1.570 0.456 0.706 -0.55 -0.29 0.37 0.69
1 9.07 907 1.398 -9.955 1.561 -4.181 108.155 -30.792 2158.444 4030.874 228.901 -1.441 0.409 0.653 -0.55 -0.29 0.36 0.69
1 9.08 908 1.006 -9.692 1.063 -10.895 114.045 -33.753 2158.444 4030.874 228.901 -1.004 0.139 1.125 -0.56 -0.28 0.35 0.7
1 9.09 909 0.742 -9.371 1.111 -16.174 114.899 -30.579 2098.483 3985.903 303.852 -0.721 -0.187 1.052 -0.56 -0.27 0.34 0.7
1 9.10 910 0.426 -9.352 1.221 -19.623 116.272 -28.076 1978.411 4105.825 303.852 -0.391 -0.213 0.911 -0.56 -0.27 0.33 0.7
1 9.11 911 0.014 -9.323 1.389 -21.454 116.303 -24.292 1993.401 4000.894 468.895 0.027 -0.249 0.710 -0.57 -0.27 0.33 0.71
1 9.12 912 -0.493 -9.137 1.446 -20.508 108.857 -21.973 1993.401 4000.894 468.895 0.535 -0.444 0.617 -0.57 -0.26 0.32 0.71
1 9.13 913 -0.536 -9.132 1.647 -19.623 101.960 -19.074 1903.460 3910.802 528.855 0.575 -0.455 0.384 -0.57 -0.26 0.32 0.71
1 9.14 914 -0.536 -9.184 1.815 -17.609 96.375 -17.761 1723.427 4030.874 738.869 0.570 -0.409 0.186 -0.58 -0.25 0.31 0.71
1 9.15 915 -0.211 -8.955 2.054 -15.106 89.569 -13.306 1724.626 4032.223 739.019 0.230 -0.649 -0.102 -0.58 -0.25 0.3 0.71
1 9.16 916 -0.029 -8.935 2.097 -11.353 85.205 -10.620 1859.539 4122.165 573.976 0.039 -0.672 -0.162 -0.59 -0.24 0.29 0.72
1 9.17 917 0.464 -8.701 1.954 -7.904 79.407 -7.721 1934.640 3927.142 648.927 -0.464 -0.909 -0.030 -0.59 -0.24 0.29 0.72
1 9.18 918 0.996 -8.686 1.690 -3.937 75.440 -8.698 1769.597 4062.204 783.989 -1.003 -0.924 0.226 -0.59 -0.23 0.29 0.72
1 9.19 919 1.777 -8.979 1.724 -3.815 83.039 -4.669 1769.597 4062.204 783.989 -1.788 -0.633 0.188 -0.59 -0.23 0.28 0.72
1 9.20 920 1.930 -9.343 1.982 -4.089 91.828 -3.937 1769.597 3987.252 919.051 -1.946 -0.270 -0.075 -0.59 -0.23 0.28 0.72
1 9.21 921 1.891 -9.697 2.035 -4.608 100.678 -5.127 1739.617 3972.112 903.911 -1.912 0.083 -0.132 -0.59 -0.22 0.27 0.72
1 9.22 922 1.140 -9.836 2.208 -13.855 112.702 -3.082 1739.617 3972.112 903.911 -1.175 0.219 -0.319 -0.6 -0.21 0.26 0.73
1 9.23 923 0.297 -9.989 1.891 -20.752 117.127 -2.380 1634.535 4122.165 1083.944 -0.349 0.369 -0.024 -0.6 -0.21 0.26 0.73
1 9.24 924 -0.393 -10.099 2.045 -25.574 114.045 -0.793 1769.597 3987.252 813.970 0.316 0.473 -0.209 -0.6 -0.2 0.25 0.73
1 9.25 925 -1.025 -10.233 2.418 -28.778 105.683 -4.028 1769.597 3987.252 813.970 0.919 0.600 -0.622 -0.61 -0.2 0.25 0.73
1 9.26 926 -1.662 -11.052 3.204 -31.586 96.100 -10.284 1649.525 4032.223 919.051 1.531 1.412 -1.448 -0.61 -0.19 0.24 0.73
1 9.27 927 -2.428 -11.732 2.964 -29.663 87.586 -16.541 1634.535 4047.213 1053.963 2.286 2.083 -1.255 -0.61 -0.19 0.24 0.73
1 9.28 928 -2.883 -11.789 2.720 -19.440 73.578 -19.531 1499.623 3987.252 1098.934 2.741 2.133 -1.057 -0.62 -0.19 0.23 0.73
1 9.29 929 -3.285 -10.693 2.619 7.996 55.329 -15.259 1499.623 3987.252 1098.934 3.166 1.029 -0.998 -0.62 -0.18 0.22 0.73
1 9.30 930 -3.371 -9.548 2.701 16.663 50.934 -10.559 1454.652 4077.194 1128.915 3.260 -0.113 -1.063 -0.62 -0.18 0.22 0.73
1 9.31 931 -3.467 -8.629 2.524 15.686 46.478 -6.226 1334.581 4002.243 1263.977 3.346 -1.027 -0.856 -0.62 -0.17 0.22 0.73
1 9.32 932 -3.457 -8.045 2.591 10.345 37.811 -3.937 1335.780 4003.892 1264.426 3.310 -1.606 -0.894 -0.62 -0.17 0.21 0.74
1 9.33 933 -3.390 -8.227 2.581 4.608 26.337 -2.136 1485.832 4048.862 1309.397 3.214 -1.420 -0.863 -0.62 -0.17 0.21 0.74
1 9.34 934 -2.911 -8.624 2.370 -0.153 7.843 -3.387 1455.852 4078.843 1384.348 2.709 -1.019 -0.638 -0.62 -0.17 0.21 0.74
1 9.35 935 -2.289 -8.615 2.030 1.007 -3.448 -5.829 1380.750 4048.862 1234.446 2.068 -1.027 -0.289 -0.62 -0.16 0.21 0.74
1 9.36 936 -0.986 -8.830 1.566 0.732 -15.625 -10.284 1380.750 4048.862 1234.446 0.755 -0.809 0.188 -0.62 -0.16 0.21 0.74
1 9.37 937 -0.517 -8.854 1.413 0.031 -18.250 -12.238 1365.760 4108.823 1324.387 0.301 -0.785 0.343 -0.62 -0.17 0.22 0.74
1 9.38 938 0.541 -9.084 1.686 -4.089 -13.550 -12.421 1425.871 4138.804 1174.335 -0.733 -0.556 0.068 -0.62 -0.17 0.22 0.74
1 9.39 939 1.006 -9.347 1.609 -5.096 -0.183 -9.583 1425.871 4138.804 1174.335 -1.171 -0.294 0.139 -0.62 -0.17 0.22 0.74
1 9.40 940 1.044 -9.941 1.365 -4.028 15.564 -6.622 1320.790 4033.872 1429.319 -1.188 0.298 0.377 -0.62 -0.17 0.21 0.74
1 9.41 941 0.723 -10.573 1.121 -6.317 33.936 1.587 1455.852 4048.862 1414.329 -0.853 0.929 0.613 -0.62 -0.17 0.21 0.74
1 9.42 942 0.484 -11.071 0.986 -5.585 41.992 4.944 1365.760 4063.853 1219.306 -0.612 1.424 0.734 -0.62 -0.17 0.21 0.74
1 9.43 943 0.302 -11.473 1.293 -0.885 51.972 6.500 1365.760 4063.853 1219.306 -0.443 1.825 0.416 -0.62 -0.17 0.21 0.74
1 9.44 944 -0.766 -11.708 1.216 7.507 51.788 8.514 1455.852 4243.885 1414.329 0.582 2.060 0.494 -0.62 -0.16 0.2 0.74
1 9.45 945 -1.073 -11.646 1.264 10.559 41.535 9.705 1305.799 4123.813 1444.309 0.863 2.001 0.458 -0.62 -0.16 0.2 0.74
1 9.46 946 -0.905 -11.311 1.149 14.221 30.701 7.263 1305.799 4123.813 1444.309 0.673 1.669 0.590 -0.62 -0.15 0.2 0.74
1 9.47 947 -0.680 -10.928 1.168 15.930 28.046 6.775 1260.829 4123.813 1264.426 0.431 1.290 0.592 -0.62 -0.15 0.2 0.74
1 9.48 948 -0.259 -9.855 1.039 16.541 32.227 6.409 1380.750 3973.911 1384.348 -0.007 0.223 0.746 -0.62 -0.15 0.2 0.74
1 9.49 949 -0.201 -9.438 0.934 11.902 42.328 5.798 1365.760 3988.901 1399.338 -0.083 -0.190 0.870 -0.62 -0.15 0.2 0.74
1 9.50 950 -0.742 -9.386 0.804 6.470 51.941 7.751 1365.760 3988.901 1399.338 0.440 -0.240 1.012 -0.62 -0.14 0.2 0.74
1 9.51 951 -1.360 -9.644 0.608 1.404 57.160 11.932 1320.790 4063.853 1219.306 1.001 0.021 1.207 -0.62 -0.14 0.19 0.75
1 9.52 952 -1.753 -9.984 0.670 2.991 53.406 13.672 1380.750 4078.843 1189.325 1.354 0.361 1.137 -0.62 -0.13 0.19 0.75
1 9.53 953 -1.930 -10.200 0.733 8.392 47.699 14.526 1380.750 4078.843 1189.325 1.487 0.577 1.070 -0.63 -0.13 0.19 0.75
1 9.54 954 -2.121 -10.008 0.656 10.620 44.464 14.404 1365.760 4063.853 1279.417 1.634 0.388 1.149 -0.63 -0.13 0.19 0.75
1 9.55 955 -2.294 -9.922 0.661 11.475 41.504 13.519 1305.799 4078.843 1309.397 1.763 0.305 1.149 -0.63 -0.12 0.19 0.75
1 9.56 956 -2.562 -10.123 0.848 12.024 36.163 14.740 1230.848 4078.843 1384.348 1.987 0.510 0.968 -0.63 -0.12 0.19 0.75
1 9.57 957 -2.801 -10.305 0.963 13.275 29.877 14.343 1230.848 4078.843 1384.348 2.183 0.696 0.859 -0.63 -0.12 0.19 0.75
1 9.58 958 -2.830 -10.113 1.025 12.848 20.783 13.367 1245.838 4183.774 1429.319 2.168 0.509 0.806 -0.63 -0.11 0.19 0.75
1 9.59 959 -2.586 -9.735 1.135 10.712 12.177 12.421 1290.809 4138.804 1354.368 1.845 0.140 0.716 -0.63 -0.11 0.19 0.75
1 9.60 960 -2.299 -9.735 1.087 5.859 9.094 11.688 1290.809 4138.804 1354.368 1.524 0.144 0.771 -0.63 -0.11 0.19 0.75
1 9.61 961 -2.140 -9.639 1.097 4.517 6.134 12.634 1395.891 4213.905 1249.436 1.336 0.051 0.763 -0.63 -0.1 0.19 0.75
1 9.62 962 -2.035 -9.548 1.168 5.066 3.235 13.275 1320.790 4108.823 1279.417 1.201 -0.037 0.693 -0.63 -0.1 0.19 0.75
1 9.63 963 -1.786 -9.481 0.948 6.165 1.038 12.787 1230.848 4123.813 1414.329 0.924 -0.101 0.916 -0.63 -0.1 0.19 0.75
1 9.64 964 -1.738 -9.414 0.915 6.165 0.916 14.252 1230.848 4123.813 1414.329 0.850 -0.165 0.953 -0.63 -0.1 0.19 0.75
1 9.65 965 -1.710 -9.410 0.776 5.554 0.305 14.923 1305.799 4123.813 1339.377 0.795 -0.167 1.095 -0.63 -0.1 0.19 0.75
1 9.66 966 -1.379 -9.558 0.728 6.378 0.488 14.038 1155.747 4003.892 1309.397 0.412 -0.012 1.147 -0.63 -0.1 0.19 0.75
1 9.67 967 -1.149 -9.501 0.790 7.019 1.923 13.031 1155.747 4003.892 1309.397 0.160 -0.067 1.088 -0.63 -0.1 0.19 0.75
1 9.68 968 -1.092 -9.568 0.670 6.256 4.028 11.597 1410.881 4078.843 1384.348 0.083 0.003 1.210 -0.63 -0.1 0.2 0.75
1 9.69 969 -0.958 -9.319 0.517 6.470 6.195 9.918 1410.881 4078.843 1384.348 -0.068 -0.244 1.365 -0.63 -0.09 0.2 0.75
1 9.70 970 -1.178 -9.098 0.431 5.737 8.881 9.064 1335.780 4048.862 1264.426 0.137 -0.463 1.451 -0.63 -0.09 0.2 0.75
1 9.71 971 -1.269 -8.998 0.215 2.441 10.254 9.155 1335.780 4048.862 1264.426 0.213 -0.562 1.665 -0.63 -0.09 0.2 0.75
1 9.72 972 -1.197 -9.175 0.244 0.122 10.376 9.888 1410.881 4003.892 1264.426 0.125 -0.384 1.630 -0.63 -0.09 0.2 0.75
1 9.73 973 -1.058 -9.161 0.350 -1.740 12.024 10.803 1320.790 3988.901 1279.417 -0.050 -0.399 1.500 -0.63 -0.09 0.2 0.75
1 9.74 974 -1.240 -9.079 0.450 -2.106 14.069 10.864 1320.790 3988.901 1279.417 0.114 -0.481 1.385 -0.63 -0.09 0.2 0.75
1 9.75 975 -1.341 -9.007 0.670 -2.533 17.273 10.651 1290.809 4108.823 1219.306 0.195 -0.553 1.151 -0.63 -0.09 0.19 0.74
1 9.76 976 -1.484 -8.940 0.790 -3.143 19.959 8.850 1290.809 4108.823 1219.306 0.317 -0.621 1.017 -0.63 -0.09 0.19 0.74
1 9.77 977 -1.949 -8.830 0.709 -9.674 18.951 4.944 1410.881 4048.862 1309.397 0.763 -0.731 1.083 -0.63 -0.08 0.19 0.74
1 9.78 978 -1.925 -8.883 1.173 -14.587 14.740 2.808 1410.881 4048.862 1309.397 0.722 -0.681 0.597 -0.63 -0.08 0.19 0.74
1 9.79 979 -1.920 -8.993 1.542 -14.496 11.108 -0.183 1500.822 4063.853 1279.417 0.702 -0.574 0.200 -0.64 -0.08 0.19 0.74
1 9.80 980 -2.126 -9.314 2.519 -20.386 11.597 4.700 1425.871 4033.872 1279.417 0.888 -0.259 -0.829 -0.64 -0.08 0.19 0.74
1 9.81 981 -2.045 -10.262 3.314 -20.996 10.254 7.111 1425.871 4033.872 1279.417 0.790 0.687 -1.647 -0.64 -0.08 0.19 0.74
1 9.82 982 -1.504 -12.096 3.232 -20.935 -0.122 20.691 1365.760 3943.781 1249.436 0.229 2.518 -1.598 -0.64 -0.08 0.19 0.74
1 9.83 983 -0.498 -12.613 3.017 -15.076 1.068 26.611 1365.760 3943.781 1249.436 -0.809 3.034 -1.411 -0.64 -0.08 0.19 0.74
1 9.84 984 -0.053 -12.192 2.830 -1.160 17.883 22.675 1260.829 3898.810 1444.309 -1.293 2.616 -1.242 -0.64 -0.08 0.19 0.74
1 9.85 985 -0.804 -10.674 2.902 14.893 45.105 5.493 1260.829 3898.810 1444.309 -0.575 1.102 -1.314 -0.64 -0.07 0.19 0.74
1 9.86 986 -1.628 -10.137 3.113 16.022 53.986 -0.977 1395.891 4063.853 1279.417 0.228 0.571 -1.514 -0.64 -0.07 0.19 0.74
1 9.87 987 -2.289 -9.855 2.926 4.944 54.871 -6.470 1410.881 4003.892 1414.329 0.877 0.292 -1.313 -0.64 -0.07 0.19 0.74
1 9.88 988 -2.983 -10.722 2.442 -22.308 50.903 -22.919 1410.881 4003.892 1414.329 1.565 1.159 -0.833 -0.64 -0.06 0.18 0.74
1 9.89 989 -3.644 -11.560 2.346 -29.633 45.715 -32.135 1260.829 4153.794 1339.377 2.252 1.986 -0.784 -0.65 -0.06 0.18 0.74
1 9.90 990 -4.195 -11.564 2.279 -20.996 36.804 -37.476 1260.829 4153.794 1339.377 2.843 1.977 -0.767 -0.65 -0.06 0.18 0.74
1 9.91 991 -4.171 -10.784 2.337 -7.202 20.813 -42.267 1305.799 4048.862 1234.446 2.870 1.184 -0.856 -0.65 -0.06 0.17 0.74
1 9.92 992 -3.606 -9.553 2.428 0.885 -3.387 -44.464 1260.829 4048.862 1339.377 2.366 -0.056 -0.956 -0.65 -0.06 0.17 0.74
1 9.93 993 -3.189 -8.835 2.504 -1.587 -18.524 -43.335 1305.799 3973.911 1414.329 2.017 -0.782 -1.031 -0.65 -0.06 0.17 0.74
1 9.94 994 -2.294 -8.356 2.490 -5.066 -30.182 -40.192 1170.887 4063.853 1399.338 1.173 -1.266 -1.007 -0.65 -0.07 0.16 0.74
1 9.95 995 -1.073 -7.877 2.557 -2.808 -36.987 -32.288 1170.887 4063.853 1399.338 0.064 -1.755 -1.063 -0.65 -0.07 0.16 0.74
1 9.96 996 -0.278 -7.647 2.428 4.211 -34.668 -25.696 1140.757 4033.872 1354.368 -0.675 -1.990 -0.929 -0.65 -0.08 0.16 0.74
