COL1	TIME	ACC_X	ACC_Y	ACC_Z	GYR_X	GYR_Y	GYR_Z	MAG_X	MAG_Y	MAG_Z	LACC_X	LACC_Y	LACC_Z	QUAT_X	QUAT_Y	QUAT_Z	QUAT_W
1 0.00 0 0.570 -8.902 4.219 -0.214 1.434 0.641 -260.980 2212.409 -3813.216 -0.173 0.032 -0.071 -0.03 0.54 -0.84 0
1 0.01 1 0.388 -8.912 4.315 -0.336 1.221 0.641 -260.980 2212.409 -3813.216 0.009 0.042 -0.166 -0.03 0.54 -0.84 0
1 0.02 2 0.412 -9.003 4.243 0.122 0.671 -0.122 -275.970 2197.418 -3828.206 -0.015 0.134 -0.092 -0.03 0.54 -0.84 0
1 0.03 3 0.374 -8.983 4.252 -0.580 0.916 0.366 -275.970 2197.418 -3828.206 0.023 0.115 -0.100 -0.03 0.54 -0.84 0
1 0.04 4 0.364 -8.926 4.219 -0.763 1.160 0.214 -231.000 2197.418 -3828.206 0.032 0.058 -0.066 -0.03 0.54 -0.84 0
1 0.05 5 0.503 -9.022 4.415 -0.305 1.190 0.397 -216.009 2257.379 -3813.216 -0.107 0.154 -0.262 -0.03 0.54 -0.84 0
1 0.06 6 0.383 -8.964 4.353 -0.519 1.556 0.793 -216.009 2257.379 -3813.216 0.013 0.097 -0.198 -0.03 0.54 -0.84 0
1 0.07 7 0.393 -8.916 4.214 -0.305 1.129 0.885 -290.960 2137.308 -3948.128 0.002 0.050 -0.058 -0.03 0.54 -0.84 0
1 0.08 8 0.474 -8.878 4.247 -0.305 1.495 0.854 -290.960 2137.308 -3948.128 -0.079 0.012 -0.090 -0.03 0.54 -0.84 0
1 0.09 9 0.407 -8.816 4.257 -1.068 1.343 0.336 -351.071 2122.317 -3798.226 -0.014 -0.049 -0.097 -0.03 0.54 -0.84 0
1 0.10 10 0.479 -8.868 4.348 -0.183 1.434 0.854 -351.071 2122.317 -3798.226 -0.086 0.004 -0.187 -0.03 0.54 -0.84 0
1 0.11 11 0.374 -8.983 4.271 -1.038 1.221 0.214 -171.039 2047.366 -3828.206 0.018 0.120 -0.110 -0.03 0.54 -0.84 0
1 0.12 12 0.345 -8.873 4.257 -0.488 1.434 0.153 -186.029 2062.356 -3888.167 0.047 0.010 -0.095 -0.03 0.54 -0.84 0
1 0.13 13 0.397 -8.892 4.271 -0.183 1.343 0.549 -186.029 2062.356 -3888.167 -0.006 0.029 -0.108 -0.03 0.54 -0.84 0
1 0.14 14 0.321 -8.940 4.276 -0.488 1.160 -0.061 -216.009 2017.386 -3813.216 0.069 0.078 -0.112 -0.03 0.54 -0.84 0
1 0.15 15 0.345 -8.912 4.243 -0.519 0.519 0.854 -216.009 2017.386 -3813.216 0.045 0.050 -0.077 -0.03 0.54 -0.84 0
1 0.16 16 0.340 -8.940 4.276 -0.427 0.946 0.366 -335.931 2092.337 -3738.265 0.048 0.079 -0.109 -0.03 0.54 -0.84 0
1 0.17 17 0.326 -8.840 4.267 -0.427 0.519 -0.061 -335.931 2092.337 -3738.265 0.063 -0.021 -0.099 -0.03 0.54 -0.84 0
1 0.18 18 0.536 -8.979 4.190 -1.038 0.519 0.458 -366.062 2062.356 -3738.265 -0.149 0.118 -0.021 -0.03 0.54 -0.84 0
1 0.19 19 0.455 -8.907 4.238 -0.610 0.702 0.275 -216.009 2212.409 -3918.147 -0.067 0.046 -0.069 -0.03 0.54 -0.84 0
1 0.20 20 0.508 -8.859 4.247 -1.038 0.031 0.671 -216.009 2212.409 -3918.147 -0.120 -0.002 -0.078 -0.03 0.54 -0.84 0
1 0.21 21 0.517 -8.955 4.343 -0.671 -0.244 1.556 -260.980 2212.409 -3813.216 -0.129 0.094 -0.174 -0.03 0.54 -0.84 0
1 0.22 22 0.412 -8.950 4.257 -0.305 0.519 0.610 -260.980 2212.409 -3813.216 -0.024 0.090 -0.087 -0.03 0.54 -0.84 0
1 0.23 23 0.374 -8.935 4.329 -0.183 -0.031 0.763 -171.039 2047.366 -3903.157 0.015 0.076 -0.158 -0.03 0.54 -0.84 0
1 0.24 24 0.326 -8.830 4.291 -1.068 -0.061 0.641 -216.009 2092.337 -3633.183 0.063 -0.029 -0.119 -0.03 0.54 -0.84 0
1 0.25 25 0.407 -8.859 4.281 -0.580 -0.275 1.434 -186.029 2137.308 -3708.134 -0.019 0.000 -0.108 -0.03 0.54 -0.84 0
1 0.26 26 0.397 -8.888 4.171 -1.129 -0.092 0.732 -335.931 2137.308 -3738.265 -0.010 0.029 0.002 -0.03 0.54 -0.84 0
1 0.27 27 0.383 -8.935 4.252 -0.916 -0.549 1.617 -335.931 2137.308 -3738.265 0.005 0.077 -0.079 -0.03 0.54 -0.84 0
1 0.28 28 0.364 -8.945 4.233 -0.427 -0.244 1.465 -290.960 2017.386 -3843.196 0.024 0.087 -0.060 -0.03 0.54 -0.84 0
1 0.29 29 0.359 -8.993 4.243 -0.183 -0.549 1.282 -290.960 2017.386 -3843.196 0.028 0.134 -0.069 -0.03 0.54 -0.84 0
1 0.30 30 0.388 -8.964 4.286 -0.916 -0.427 1.160 -260.980 2017.386 -3768.245 -0.001 0.106 -0.112 -0.03 0.54 -0.84 0
1 0.31 31 0.378 -8.878 4.204 -0.610 -1.068 1.282 -35.977 2092.337 -3843.196 0.009 0.020 -0.030 -0.03 0.54 -0.84 0
1 0.32 32 0.378 -8.864 4.219 -0.610 -0.702 1.221 -260.980 2137.308 -3843.196 0.009 0.006 -0.044 -0.03 0.54 -0.84 0
1 0.33 33 0.354 -8.840 4.252 -0.702 -0.946 1.160 -260.980 2092.337 -3768.245 0.033 -0.018 -0.078 -0.03 0.54 -0.84 0
1 0.34 34 0.306 -9.012 4.281 -0.763 -1.343 1.160 -260.980 2092.337 -3768.245 0.081 0.154 -0.106 -0.03 0.54 -0.84 0
1 0.35 35 0.388 -9.065 4.281 -0.732 -1.617 0.641 -126.068 2077.347 -3978.258 -0.001 0.207 -0.106 -0.03 0.54 -0.84 0
1 0.36 36 0.402 -9.007 4.214 0.305 -0.763 1.129 -126.068 2077.347 -3978.258 -0.016 0.150 -0.039 -0.03 0.54 -0.84 0
1 0.37 37 0.335 -9.055 4.415 0.671 -0.977 0.946 -260.980 2137.308 -3768.245 0.051 0.197 -0.240 -0.03 0.54 -0.84 0
1 0.38 38 0.421 -8.912 4.228 0.275 -1.282 0.824 -231.000 2047.366 -3798.226 -0.035 0.054 -0.053 -0.03 0.54 -0.84 0
1 0.39 39 0.450 -8.955 4.262 -0.397 -1.251 1.068 -216.009 1987.405 -3813.216 -0.063 0.097 -0.086 -0.03 0.54 -0.84 0
1 0.40 40 0.441 -8.907 4.291 -0.519 -0.946 1.617 -186.029 2137.308 -3813.216 -0.053 0.049 -0.115 -0.03 0.54 -0.84 0
1 0.41 41 0.469 -8.969 4.228 -0.488 -1.312 1.862 -186.029 2137.308 -3813.216 -0.082 0.112 -0.052 -0.03 0.54 -0.84 0
1 0.42 42 0.374 -8.964 4.271 -0.488 -1.129 1.526 -351.071 2002.396 -3828.206 0.015 0.107 -0.095 -0.03 0.54 -0.84 0
1 0.43 43 0.268 -8.902 4.319 -0.732 -1.831 1.312 -351.071 2002.396 -3828.206 0.120 0.045 -0.142 -0.03 0.54 -0.84 0
1 0.44 44 0.460 -8.950 4.257 -0.793 -1.343 1.038 -126.068 2047.366 -3933.138 -0.072 0.094 -0.079 -0.03 0.53 -0.84 0
1 0.45 45 0.321 -8.897 4.238 -1.007 -1.434 1.587 -305.951 2197.418 -3828.206 0.067 0.041 -0.059 -0.03 0.53 -0.84 0
1 0.46 46 0.249 -8.821 4.209 -0.916 -1.343 1.343 -381.052 2047.366 -3798.226 0.138 -0.035 -0.030 -0.03 0.53 -0.84 0
1 0.47 47 0.374 -9.022 4.276 -1.038 -2.228 1.099 -186.029 2017.386 -3813.216 0.013 0.166 -0.097 -0.03 0.53 -0.84 0
1 0.48 48 0.364 -8.921 4.276 -1.129 -1.495 0.793 -186.029 2017.386 -3813.216 0.022 0.065 -0.097 -0.03 0.53 -0.84 0
1 0.49 49 0.417 -8.993 4.310 -1.617 -1.312 1.953 -141.058 2092.337 -3918.147 -0.031 0.138 -0.130 -0.03 0.53 -0.84 0
1 0.50 50 0.479 -8.868 4.209 -1.648 -1.373 1.068 -141.058 2092.337 -3918.147 -0.094 0.012 -0.030 -0.03 0.53 -0.84 0
1 0.51 51 0.407 -8.998 4.185 -0.977 -2.167 1.099 -201.019 1957.425 -3858.187 -0.022 0.142 -0.006 -0.03 0.53 -0.84 0
1 0.52 52 0.402 -8.816 4.334 -0.671 -1.312 1.892 -231.000 2047.366 -3798.226 -0.017 -0.040 -0.155 -0.03 0.53 -0.84 0
1 0.53 53 0.421 -9.026 4.156 -1.404 -0.702 1.740 -35.977 2137.308 -3813.216 -0.036 0.171 0.023 -0.03 0.53 -0.84 0
1 0.54 54 0.215 -8.878 4.200 -1.709 -1.190 1.556 -201.019 2197.418 -3798.226 0.171 0.022 -0.021 -0.03 0.53 -0.84 0
1 0.55 55 0.350 -8.878 4.137 -1.038 -1.007 0.793 -201.019 2197.418 -3798.226 0.036 0.022 0.042 -0.03 0.53 -0.84 0
1 0.56 56 0.393 -8.993 4.262 -1.404 -1.251 0.854 -201.019 2002.396 -3903.157 -0.007 0.137 -0.083 -0.03 0.53 -0.84 0
1 0.57 57 0.441 -8.897 4.195 -1.221 -0.458 0.366 -201.019 2002.396 -3903.157 -0.055 0.041 -0.016 -0.03 0.53 -0.84 0
1 0.58 58 0.474 -8.979 4.204 -1.404 -0.885 0.549 -290.960 2212.409 -3813.216 -0.088 0.123 -0.025 -0.03 0.53 -0.84 0
1 0.59 59 0.517 -8.945 4.257 -1.495 -0.549 1.404 -216.009 2167.288 -3918.147 -0.131 0.089 -0.077 -0.03 0.53 -0.84 0
1 0.60 60 0.311 -8.830 4.161 -1.160 -0.854 0.824 -381.052 1927.294 -3903.157 0.077 -0.025 0.018 -0.03 0.53 -0.84 0
1 0.61 61 0.417 -8.935 4.391 -1.923 -0.397 0.885 -171.039 2077.347 -3798.226 -0.029 0.080 -0.212 -0.03 0.53 -0.84 0
1 0.62 62 0.493 -9.007 4.233 -1.801 -0.549 0.580 -171.039 2077.347 -3798.226 -0.106 0.151 -0.054 -0.03 0.53 -0.84 0
1 0.63 63 0.335 -8.854 4.319 -1.251 -0.366 0.793 -351.071 2272.370 -3933.138 0.054 -0.002 -0.141 -0.03 0.53 -0.84 0
1 0.64 64 0.426 -8.739 4.271 -1.068 -0.763 1.282 -351.071 2272.370 -3933.138 -0.038 -0.117 -0.093 -0.03 0.53 -0.84 0
1 0.65 65 0.374 -9.007 4.305 -0.793 -0.366 0.519 -275.970 2152.298 -3678.154 0.015 0.152 -0.126 -0.03 0.53 -0.84 0
1 0.66 66 0.374 -8.912 4.247 -1.068 -0.488 0.824 -171.039 2047.366 -3648.173 0.016 0.056 -0.068 -0.03 0.53 -0.84 0
1 0.67 67 0.354 -8.749 4.291 -1.770 -0.702 0.732 -171.039 2047.366 -3648.173 0.035 -0.106 -0.110 -0.03 0.53 -0.84 0
1 0.68 68 0.445 -8.916 4.224 -1.221 -0.275 0.214 -216.009 2062.356 -3888.167 -0.056 0.061 -0.043 -0.03 0.53 -0.84 0
1 0.69 69 0.407 -8.888 4.156 -1.801 0.000 0.397 -216.009 2062.356 -3888.167 -0.018 0.033 0.024 -0.03 0.53 -0.84 0
1 0.70 70 0.397 -8.878 4.209 -2.014 -0.519 1.160 -201.019 2152.298 -3828.206 -0.008 0.023 -0.029 -0.03 0.53 -0.84 0
1 0.71 71 0.436 -8.945 4.348 -1.953 -0.641 1.190 -201.019 2152.298 -3828.206 -0.047 0.089 -0.169 -0.03 0.53 -0.84 0
1 0.72 72 0.340 -8.926 4.382 -2.197 -0.214 0.519 -201.019 2047.366 -3798.226 0.048 0.070 -0.203 -0.03 0.53 -0.84 0
1 0.73 73 0.426 -8.964 4.382 -1.770 -0.641 0.916 -216.009 2017.386 -3843.196 -0.037 0.108 -0.204 -0.03 0.54 -0.84 0
1 0.74 74 0.249 -8.950 4.118 -1.251 0.000 0.458 -216.009 2017.386 -3843.196 0.139 0.093 0.059 -0.03 0.54 -0.84 0
1 0.75 75 0.321 -8.897 4.195 -1.678 -0.793 0.977 -201.019 2002.396 -3828.206 0.067 0.041 -0.017 -0.03 0.53 -0.84 0
1 0.76 76 0.512 -8.959 4.247 -1.617 -1.099 1.373 -201.019 2002.396 -3828.206 -0.125 0.103 -0.069 -0.03 0.53 -0.84 0
1 0.77 77 0.460 -8.950 4.286 -0.244 -1.251 0.885 -216.009 2092.337 -3888.167 -0.072 0.094 -0.107 -0.03 0.53 -0.84 0
1 0.78 78 0.321 -9.079 4.252 -1.160 -1.007 1.404 -216.009 2092.337 -3888.167 0.067 0.223 -0.073 -0.03 0.53 -0.84 0
1 0.79 79 0.364 -9.017 4.185 -1.984 -1.221 1.068 -201.019 2152.298 -3903.157 0.024 0.161 -0.006 -0.03 0.53 -0.84 0
1 0.80 80 0.311 -9.012 4.252 -1.373 -1.007 1.282 -231.000 2152.298 -3753.255 0.076 0.156 -0.075 -0.03 0.53 -0.84 0
1 0.81 81 0.340 -8.921 4.171 -0.732 -1.648 1.221 -231.000 2152.298 -3753.255 0.048 0.064 0.006 -0.03 0.54 -0.84 0
1 0.82 82 0.441 -8.969 4.228 0.031 -1.007 2.106 -126.068 1882.324 -3798.226 -0.053 0.112 -0.051 -0.03 0.54 -0.84 0
1 0.83 83 0.488 -8.873 4.276 -1.556 -1.495 1.923 -260.980 2212.409 -3768.245 -0.100 0.017 -0.099 -0.03 0.54 -0.84 0
1 0.84 84 0.330 -8.897 4.219 -1.373 -1.434 1.465 -201.019 2122.317 -3828.206 0.058 0.040 -0.042 -0.03 0.54 -0.84 0
1 0.85 85 0.412 -8.840 4.195 -1.038 -0.854 1.221 -201.019 2122.317 -3828.206 -0.024 -0.017 -0.017 -0.03 0.53 -0.84 0
1 0.86 86 0.326 -8.931 4.310 -1.801 -0.641 1.678 -110.928 2167.288 -3918.147 0.063 0.074 -0.132 -0.03 0.53 -0.84 0
1 0.87 87 0.340 -8.892 4.228 -1.709 -1.038 1.373 -275.970 2002.396 -4008.239 0.047 0.036 -0.050 -0.03 0.53 -0.84 0
1 0.88 88 0.350 -8.974 4.262 -1.862 -1.709 0.977 -275.970 2002.396 -4008.239 0.038 0.117 -0.084 -0.03 0.53 -0.84 0
1 0.89 89 0.311 -8.974 4.291 -1.678 -1.099 1.190 -110.928 2167.288 -3888.167 0.076 0.117 -0.113 -0.03 0.54 -0.84 0
1 0.90 90 0.479 -8.907 4.113 -2.106 -1.465 1.068 -231.000 2122.317 -3753.255 -0.092 0.049 0.062 -0.03 0.54 -0.84 0
1 0.91 91 0.397 -8.983 4.180 -2.167 -1.160 0.671 -275.970 2152.298 -3828.206 -0.010 0.125 -0.007 -0.03 0.54 -0.84 0
1 0.92 92 0.402 -8.916 4.190 -2.655 -1.495 0.763 -275.970 2152.298 -3828.206 -0.014 0.057 -0.019 -0.03 0.54 -0.84 0
1 0.93 93 0.441 -8.964 4.209 -2.228 -1.160 1.282 -290.960 2062.356 -3888.167 -0.052 0.104 -0.040 -0.03 0.54 -0.84 0
1 0.94 94 0.311 -8.940 4.185 -1.892 -1.251 1.251 -171.039 2122.317 -3798.226 0.078 0.080 -0.017 -0.03 0.54 -0.84 0
1 0.95 95 0.316 -8.959 4.147 -1.465 -1.404 1.709 -171.039 2122.317 -3798.226 0.073 0.098 0.021 -0.03 0.54 -0.84 0
1 0.96 96 0.378 -8.993 4.180 -1.495 -1.343 1.312 -381.052 2227.399 -3858.187 0.011 0.132 -0.012 -0.03 0.54 -0.84 0
1 0.97 97 0.417 -8.859 4.200 -1.617 -1.373 0.885 -290.960 2137.308 -3888.167 -0.028 -0.003 -0.033 -0.03 0.54 -0.84 0
1 0.98 98 0.359 -8.959 4.224 -1.617 -1.190 0.732 -171.039 2077.347 -3933.138 0.030 0.098 -0.057 -0.03 0.54 -0.84 0
1 0.99 99 0.450 -9.017 4.271 -1.892 -0.916 1.038 -171.039 2077.347 -3933.138 -0.061 0.155 -0.105 -0.03 0.54 -0.84 0
1 1.00 100 0.460 -8.916 4.247 -1.740 -1.251 1.068 -275.970 2152.298 -3828.206 -0.071 0.055 -0.081 -0.03 0.54 -0.84 0
1 1.01 101 0.532 -8.868 4.281 -0.885 -1.282 1.068 -141.058 2062.356 -3738.265 -0.142 0.007 -0.114 -0.03 0.54 -0.84 0
1 1.02 102 0.445 -8.868 4.233 -1.007 -1.495 1.038 -141.058 2062.356 -3738.265 -0.055 0.007 -0.066 -0.03 0.54 -0.84 0
1 1.03 103 0.330 -8.959 4.171 -2.045 -0.824 0.854 -216.009 2167.288 -3843.196 0.060 0.098 -0.003 -0.03 0.54 -0.84 0
1 1.04 104 0.498 -8.998 4.099 -2.350 -0.641 0.977 -260.980 2062.356 -3708.134 -0.107 0.136 0.068 -0.03 0.54 -0.84 0
1 1.05 105 0.460 -9.017 4.343 -2.655 -0.793 0.854 -231.000 2152.298 -3828.206 -0.069 0.154 -0.179 -0.03 0.54 -0.84 0
1 1.06 106 0.388 -8.993 4.137 -2.319 -0.793 1.251 -231.000 2152.298 -3828.206 0.004 0.129 0.024 -0.03 0.54 -0.84 0
1 1.07 107 0.417 -9.046 4.257 -2.106 -0.824 0.763 -201.019 2272.370 -3858.187 -0.025 0.181 -0.098 -0.03 0.54 -0.84 0
1 1.08 108 0.383 -9.012 4.243 -1.434 -1.221 1.221 -216.009 2092.337 -3843.196 0.009 0.147 -0.084 -0.03 0.54 -0.84 0
1 1.09 109 0.431 -9.007 4.300 -1.038 -1.099 1.099 -216.009 2092.337 -3843.196 -0.039 0.142 -0.142 -0.03 0.54 -0.84 0
1 1.10 110 0.464 -8.921 4.247 -1.190 -0.854 1.190 -305.951 2122.317 -3858.187 -0.073 0.056 -0.089 -0.03 0.54 -0.84 0
1 1.11 111 0.383 -8.998 4.276 -1.709 -1.251 1.282 -110.928 2212.409 -3768.245 0.009 0.133 -0.117 -0.03 0.54 -0.84 0
1 1.12 112 0.340 -8.916 4.214 -1.709 -1.892 1.251 -260.980 2212.409 -3738.265 0.052 0.051 -0.055 -0.03 0.54 -0.84 0
1 1.13 113 0.311 -8.969 4.099 -1.129 -1.343 0.916 -260.980 2212.409 -3738.265 0.080 0.104 0.060 -0.03 0.54 -0.84 0
1 1.14 114 0.441 -8.969 4.343 -0.763 -1.587 1.099 -201.019 2152.298 -3858.187 -0.050 0.104 -0.185 -0.03 0.54 -0.84 0
1 1.15 115 0.388 -8.998 4.133 -1.129 -1.526 1.678 -201.019 2197.418 -3858.187 0.003 0.132 0.026 -0.03 0.54 -0.84 0
1 1.16 116 0.431 -8.964 4.247 -1.862 -2.319 1.343 -201.019 2197.418 -3858.187 -0.041 0.099 -0.089 -0.03 0.54 -0.84 0
1 1.17 117 0.388 -9.017 4.133 -1.892 -2.441 1.678 -260.980 2092.337 -3948.128 0.003 0.151 0.024 -0.03 0.54 -0.84 0
1 1.18 118 0.306 -8.940 4.180 -0.977 -1.862 1.709 -335.931 2257.379 -3768.245 0.084 0.074 -0.024 -0.03 0.54 -0.84 0
1 1.19 119 0.345 -8.969 4.310 -1.709 -2.136 1.587 -126.068 2077.347 -3828.206 0.046 0.102 -0.155 -0.03 0.54 -0.84 0
1 1.20 120 0.388 -9.017 4.176 -0.916 -2.045 2.106 -126.068 2077.347 -3828.206 0.002 0.149 -0.022 -0.03 0.54 -0.84 0
1 1.21 121 0.345 -9.017 4.123 -0.702 -2.228 1.984 -95.938 2272.370 -3828.206 0.044 0.149 0.030 -0.03 0.54 -0.84 0
1 1.22 122 0.450 -8.940 4.166 -0.610 -2.106 2.075 -201.019 2122.317 -3798.226 -0.062 0.072 -0.013 -0.03 0.54 -0.84 0
1 1.23 123 0.508 -8.912 4.171 -0.488 -2.686 1.892 -201.019 2122.317 -3798.226 -0.120 0.043 -0.018 -0.03 0.54 -0.84 0
1 1.24 124 0.407 -8.797 4.209 -1.282 -2.747 2.472 -201.019 2272.370 -3903.157 -0.019 -0.072 -0.056 -0.03 0.54 -0.84 0
1 1.25 125 0.354 -8.806 4.291 -1.404 -2.197 1.678 -65.957 2287.360 -3888.167 0.033 -0.062 -0.138 -0.03 0.54 -0.84 0
1 1.26 126 0.397 -8.955 4.324 -1.312 -2.045 2.228 -65.957 2287.360 -3888.167 -0.011 0.086 -0.172 -0.03 0.54 -0.84 0
1 1.27 127 0.508 -9.026 4.295 -1.190 -2.167 1.984 -260.980 2167.288 -3738.265 -0.122 0.158 -0.144 -0.03 0.54 -0.84 0
1 1.28 128 0.417 -8.969 4.310 -1.465 -2.380 2.228 -35.977 2287.360 -3948.128 -0.031 0.100 -0.159 -0.03 0.54 -0.84 0
1 1.29 129 0.455 -9.026 4.209 -1.343 -1.831 2.197 -275.970 2122.317 -3753.255 -0.070 0.157 -0.059 -0.03 0.54 -0.84 0
1 1.30 130 0.407 -8.897 4.185 -1.953 -2.075 1.678 -275.970 2122.317 -3753.255 -0.023 0.027 -0.036 -0.03 0.54 -0.84 0
1 1.31 131 0.407 -8.912 4.247 -0.824 -1.617 1.465 -335.931 2092.337 -3768.245 -0.023 0.041 -0.100 -0.03 0.54 -0.84 0
1 1.32 132 0.441 -9.026 4.238 -1.740 -1.953 2.075 -216.009 2017.386 -3843.196 -0.056 0.156 -0.090 -0.03 0.54 -0.84 0
1 1.33 133 0.431 -8.921 4.286 -1.617 -1.953 1.678 -216.009 2017.386 -3843.196 -0.047 0.050 -0.140 -0.03 0.54 -0.84 0
1 1.34 134 0.469 -8.964 4.257 -1.343 -1.648 1.556 -275.970 2122.317 -3858.187 -0.084 0.093 -0.111 -0.03 0.54 -0.84 0
1 1.35 135 0.388 -8.974 4.180 -1.068 -1.709 0.916 -351.071 2122.317 -3858.187 -0.003 0.102 -0.035 -0.03 0.54 -0.84 0
1 1.36 136 0.436 -9.103 4.310 -0.916 -1.373 1.495 -186.029 2167.288 -3843.196 -0.050 0.231 -0.164 -0.03 0.54 -0.84 0
1 1.37 137 0.402 -9.050 4.252 -1.465 -1.129 0.763 -186.029 2167.288 -3843.196 -0.017 0.179 -0.106 -0.03 0.54 -0.84 0
1 1.38 138 0.321 -9.146 4.147 -0.702 -1.556 1.343 -231.000 2152.298 -3723.125 0.064 0.275 -0.001 -0.03 0.54 -0.84 0
1 1.39 139 0.388 -9.022 4.238 -0.092 -1.007 1.007 -186.029 2137.308 -3738.265 -0.004 0.150 -0.093 -0.03 0.54 -0.84 0
1 1.40 140 0.460 -9.007 4.070 0.580 -1.221 1.129 -186.029 2137.308 -3738.265 -0.076 0.135 0.074 -0.03 0.54 -0.84 0
1 1.41 141 0.460 -8.955 4.190 -0.122 -0.946 1.221 -275.970 2122.317 -3798.226 -0.075 0.082 -0.045 -0.03 0.54 -0.84 0
1 1.42 142 0.484 -8.998 4.228 -0.977 -1.434 1.007 -335.931 1987.405 -3813.216 -0.099 0.125 -0.084 -0.03 0.54 -0.84 0
1 1.43 143 0.488 -9.055 4.219 -0.854 -1.373 1.343 -171.039 2197.418 -3678.154 -0.104 0.183 -0.075 -0.03 0.54 -0.84 0
1 1.44 144 0.426 -9.012 4.171 -0.214 -1.068 0.824 -171.039 2197.418 -3678.154 -0.041 0.140 -0.027 -0.03 0.54 -0.84 0
1 1.45 145 0.421 -8.993 4.152 -0.641 -0.732 1.190 -201.019 2302.350 -3933.138 -0.037 0.121 -0.007 -0.03 0.54 -0.84 0
1 1.46 146 0.254 -9.003 4.300 -1.556 0.214 1.617 -110.928 2287.360 -3813.216 0.131 0.130 -0.156 -0.03 0.54 -0.84 0
1 1.47 147 0.479 -8.945 4.324 -1.984 0.732 1.984 -110.928 2287.360 -3813.216 -0.095 0.073 -0.180 -0.03 0.54 -0.84 0
1 1.48 148 0.407 -9.060 4.377 -1.587 0.885 1.862 -231.000 1957.425 -3723.125 -0.027 0.187 -0.234 -0.03 0.54 -0.84 0
1 1.49 149 0.335 -8.864 4.286 -1.312 1.495 1.648 -95.938 2197.418 -3828.206 0.043 -0.010 -0.143 -0.03 0.54 -0.84 0
1 1.50 150 0.517 -8.897 4.233 -0.824 1.984 2.258 -231.000 2077.347 -3828.206 -0.142 0.024 -0.090 -0.03 0.54 -0.84 0
1 1.51 151 0.374 -9.060 4.233 -1.709 2.716 1.892 -231.000 2077.347 -3828.206 -0.001 0.187 -0.089 -0.03 0.54 -0.84 0
1 1.52 152 0.412 -8.998 4.185 -2.838 2.716 1.343 -351.071 2197.418 -3723.125 -0.043 0.124 -0.043 -0.02 0.54 -0.84 0
1 1.53 153 0.316 -8.964 4.267 -3.204 3.326 2.075 -186.029 2137.308 -3888.167 0.050 0.089 -0.127 -0.02 0.54 -0.84 0
1 1.54 154 0.215 -9.055 4.104 -2.289 3.693 1.007 -186.029 2137.308 -3888.167 0.147 0.178 0.033 -0.02 0.54 -0.84 0
1 1.55 155 0.225 -9.017 4.243 -0.610 4.425 0.671 -171.039 2122.317 -3753.255 0.133 0.139 -0.109 -0.02 0.54 -0.84 0
1 1.56 156 0.005 -8.912 4.123 0.031 3.723 -0.305 -216.009 2287.360 -3708.134 0.346 0.034 0.012 -0.02 0.54 -0.84 0
1 1.57 157 0.192 -8.840 4.056 -0.366 3.296 0.244 -171.039 2197.418 -3753.255 0.156 -0.038 0.080 -0.02 0.54 -0.84 0
1 1.58 158 0.182 -8.849 3.984 -1.526 3.235 -0.427 -171.039 2197.418 -3753.255 0.162 -0.028 0.152 -0.02 0.54 -0.84 0
1 1.59 159 0.034 -8.892 4.075 -2.258 2.533 1.068 -216.009 2257.379 -3768.245 0.308 0.014 0.059 -0.02 0.54 -0.84 0
1 1.60 160 -0.010 -8.998 4.257 -3.204 1.862 1.434 -216.009 2167.288 -3843.196 0.347 0.117 -0.126 -0.02 0.54 -0.84 0
1 1.61 161 -0.010 -9.007 4.228 -2.960 1.282 1.923 -216.009 2167.288 -3843.196 0.342 0.125 -0.101 -0.02 0.54 -0.84 0
1 1.62 162 0.005 -8.883 4.233 -2.289 1.038 1.923 -275.970 2227.399 -3798.226 0.322 -0.001 -0.108 -0.02 0.54 -0.84 0
1 1.63 163 0.057 -8.873 4.238 -1.556 0.275 2.136 -186.029 2062.356 -3708.134 0.260 -0.012 -0.115 -0.02 0.54 -0.84 0
1 1.64 164 -0.010 -8.844 4.238 -2.228 1.495 1.404 -141.058 2212.409 -3813.216 0.322 -0.041 -0.116 -0.02 0.54 -0.84 0
1 1.65 165 -0.019 -8.935 4.224 -2.686 0.641 2.197 -141.058 2212.409 -3813.216 0.328 0.049 -0.103 -0.02 0.54 -0.84 0
1 1.66 166 0.081 -9.065 4.219 -3.418 0.488 1.648 -290.960 2092.337 -3768.245 0.223 0.177 -0.100 -0.02 0.54 -0.84 0
1 1.67 167 0.148 -9.012 4.147 -3.235 0.916 1.831 -275.970 2227.399 -3858.187 0.152 0.123 -0.031 -0.02 0.54 -0.84 0
1 1.68 168 0.125 -9.113 4.109 0.092 1.007 0.885 -275.970 2227.399 -3858.187 0.172 0.222 0.004 -0.02 0.54 -0.84 0
1 1.69 169 0.148 -9.079 4.233 1.526 1.129 0.610 -260.980 2137.308 -3813.216 0.146 0.189 -0.121 -0.02 0.54 -0.84 0
1 1.70 170 0.225 -8.892 4.195 1.587 0.732 0.366 -260.980 2137.308 -3813.216 0.067 0.003 -0.081 -0.02 0.54 -0.84 0
1 1.71 171 0.187 -8.974 4.195 -0.397 0.793 -0.122 -186.029 2137.308 -3708.134 0.104 0.087 -0.075 -0.02 0.54 -0.84 0
1 1.72 172 0.225 -9.036 4.046 -0.793 1.648 -0.824 -186.029 2137.308 -3708.134 0.065 0.149 0.074 -0.02 0.54 -0.84 0
1 1.73 173 0.297 -9.098 4.238 -1.007 2.014 -0.763 -260.980 2212.409 -3738.265 -0.006 0.211 -0.118 -0.02 0.54 -0.84 0
1 1.74 174 0.340 -9.161 4.099 -0.061 1.709 -0.793 -201.019 2077.347 -3903.157 -0.049 0.274 0.021 -0.02 0.54 -0.84 0
1 1.75 175 0.359 -9.074 4.085 1.678 2.441 -0.671 -201.019 2077.347 -3903.157 -0.066 0.188 0.036 -0.02 0.54 -0.84 0
1 1.76 176 0.364 -9.026 4.085 2.319 2.380 -0.977 -351.071 2122.317 -3798.226 -0.071 0.141 0.039 -0.02 0.54 -0.84 0
1 1.77 177 0.306 -8.916 4.113 1.617 2.991 -0.641 -351.071 2122.317 -3798.226 -0.012 0.032 0.013 -0.02 0.54 -0.84 0
1 1.78 178 0.215 -8.969 4.176 -0.671 3.418 -0.549 -186.029 2137.308 -3768.245 0.079 0.087 -0.044 -0.02 0.54 -0.84 0
1 1.79 179 0.263 -9.108 4.051 -2.075 4.578 -0.214 -186.029 2137.308 -3768.245 0.031 0.226 0.079 -0.02 0.54 -0.84 0
1 1.80 180 0.249 -9.189 4.113 -3.082 5.066 -0.183 -171.039 2152.298 -3798.226 0.043 0.306 0.014 -0.02 0.54 -0.84 0
1 1.81 181 0.110 -9.089 4.061 -2.625 5.493 -0.275 -231.000 2077.347 -3753.255 0.179 0.203 0.064 -0.02 0.54 -0.84 0
1 1.82 182 0.115 -9.165 4.133 -2.014 5.219 -0.641 -231.000 2077.347 -3753.255 0.170 0.279 -0.011 -0.02 0.54 -0.84 0
1 1.83 183 0.048 -9.117 4.109 -1.190 5.066 -1.221 -290.960 2287.360 -3918.147 0.234 0.229 0.010 -0.02 0.54 -0.84 0
1 1.84 184 0.153 -9.084 4.051 -0.763 4.761 -1.129 -290.960 2287.360 -3918.147 0.128 0.195 0.066 -0.02 0.54 -0.84 0
1 1.85 185 -0.081 -8.959 4.123 -0.488 3.448 -1.038 -351.071 2197.418 -3828.206 0.358 0.070 -0.006 -0.02 0.54 -0.84 0
1 1.86 186 -0.096 -8.931 4.042 -0.549 2.777 -1.526 -351.071 2197.418 -3828.206 0.370 0.042 0.075 -0.02 0.54 -0.84 0
1 1.87 187 -0.062 -8.859 4.118 -1.862 1.373 -1.770 -260.980 2167.288 -3663.164 0.335 -0.031 -0.002 -0.02 0.54 -0.84 0
1 1.88 188 -0.192 -9.117 4.027 -2.869 0.641 -2.258 -260.980 2062.356 -3738.265 0.464 0.227 0.087 -0.02 0.54 -0.84 0
1 1.89 189 -0.125 -9.141 4.190 -2.655 -1.556 -2.441 -260.980 2062.356 -3738.265 0.398 0.250 -0.079 -0.02 0.54 -0.84 0
1 1.90 190 -0.024 -9.161 4.094 -0.092 -2.075 -2.502 -186.029 2092.337 -3768.245 0.299 0.268 0.015 -0.02 0.54 -0.84 0
1 1.91 191 0.014 -9.094 4.209 0.488 -2.716 -1.770 -186.029 2092.337 -3768.245 0.263 0.201 -0.100 -0.02 0.54 -0.84 0
1 1.92 192 0.096 -9.089 4.147 1.190 -3.265 -1.251 -110.928 2017.386 -3948.128 0.186 0.197 -0.036 -0.02 0.54 -0.84 0
1 1.93 193 0.196 -9.012 4.219 1.282 -3.326 -0.092 -110.928 2017.386 -3948.128 0.088 0.121 -0.106 -0.02 0.54 -0.84 0
1 1.94 194 0.148 -8.897 4.238 2.502 -2.289 1.099 -216.009 2212.409 -3708.134 0.137 0.008 -0.122 -0.02 0.54 -0.84 0
1 1.95 195 0.038 -8.926 4.156 2.625 -2.106 0.854 -171.039 2152.298 -3678.154 0.247 0.039 -0.036 -0.02 0.54 -0.84 0
1 1.96 196 0.081 -8.835 4.080 2.563 -3.174 0.671 -171.039 2152.298 -3678.154 0.204 -0.050 0.045 -0.02 0.54 -0.84 0
1 1.97 197 0.029 -8.801 4.109 1.587 -4.517 -0.946 -216.009 2212.409 -3948.128 0.257 -0.081 0.021 -0.02 0.54 -0.84 0
1 1.98 198 -0.005 -8.955 4.056 1.099 -5.646 -2.808 -216.009 2212.409 -3948.128 0.294 0.073 0.077 -0.02 0.54 -0.84 0
1 1.99 199 0.053 -9.060 4.099 0.977 -7.538 -2.258 8.844 2062.356 -3888.167 0.241 0.180 0.036 -0.02 0.54 -0.84 0
1 2.00 200 0.225 -9.017 4.161 2.136 -8.972 -2.686 -216.009 2257.379 -3738.265 0.083 0.139 -0.023 -0.02 0.54 -0.84 0
1 2.01 201 0.235 -8.912 4.176 2.777 -8.789 -1.495 38.825 2092.337 -3918.147 0.082 0.035 -0.034 -0.02 0.54 -0.84 0
1 2.02 202 0.249 -8.888 4.200 1.892 -8.514 -1.068 -216.009 2092.337 -3768.245 0.074 0.013 -0.054 -0.02 0.54 -0.84 0
1 2.03 203 0.297 -8.912 4.180 1.495 -8.392 0.336 -216.009 2092.337 -3768.245 0.033 0.039 -0.032 -0.02 0.54 -0.84 0
1 2.04 204 0.254 -8.830 4.061 -0.275 -8.453 1.282 -260.980 2092.337 -3738.265 0.081 -0.041 0.090 -0.02 0.54 -0.84 0
1 2.05 205 0.211 -8.811 4.224 -0.397 -8.850 1.343 -260.980 2092.337 -3738.265 0.128 -0.060 -0.072 -0.02 0.54 -0.84 0
1 2.06 206 0.158 -8.888 4.147 -0.977 -9.247 0.641 -50.967 2047.366 -3753.255 0.185 0.017 0.004 -0.02 0.54 -0.84 0
1 2.07 207 0.192 -8.840 4.286 -1.434 -10.712 1.465 -141.058 2092.337 -3813.216 0.160 -0.032 -0.137 -0.02 0.54 -0.84 0
1 2.08 208 0.129 -8.787 4.190 -2.563 -11.169 0.580 -381.052 2122.317 -3903.157 0.227 -0.085 -0.043 -0.02 0.54 -0.84 0
1 2.09 209 0.326 -8.873 4.180 -3.632 -11.231 0.824 -305.951 2077.347 -3753.255 0.036 -0.000 -0.036 -0.02 0.54 -0.84 0
1 2.10 210 0.383 -8.787 4.209 -4.883 -11.749 1.282 -305.951 2077.347 -3753.255 -0.015 -0.088 -0.069 -0.03 0.54 -0.84 0
1 2.11 211 0.469 -8.849 4.257 -5.463 -11.475 0.671 -216.009 2017.386 -3768.245 -0.095 -0.028 -0.124 -0.03 0.54 -0.84 0.01
1 2.12 212 0.359 -8.950 4.224 -4.639 -11.627 1.251 -216.009 2017.386 -3768.245 0.023 0.069 -0.097 -0.03 0.54 -0.84 0.01
1 2.13 213 0.426 -8.801 4.271 -4.211 -11.871 -0.031 -216.009 2137.308 -3843.196 -0.037 -0.082 -0.150 -0.03 0.54 -0.84 0.01
1 2.14 214 0.402 -8.844 4.271 -4.608 -12.451 -0.031 -231.000 2122.317 -4008.239 -0.006 -0.040 -0.155 -0.03 0.54 -0.84 0.01
1 2.15 215 0.484 -8.974 4.281 -4.822 -15.381 -1.282 -201.019 2122.317 -3828.206 -0.067 0.085 -0.175 -0.03 0.54 -0.84 0.01
1 2.16 216 0.560 -8.979 4.271 -5.127 -16.144 -0.610 -305.951 2077.347 -3648.173 -0.131 0.088 -0.172 -0.03 0.54 -0.84 0.01
1 2.17 217 0.618 -9.050 4.429 -4.486 -16.754 0.488 -305.951 2077.347 -3648.173 -0.176 0.157 -0.336 -0.03 0.54 -0.84 0.01
1 2.18 218 0.584 -9.170 4.386 -3.662 -17.639 0.183 -366.062 2017.386 -3708.134 -0.131 0.276 -0.297 -0.03 0.54 -0.84 0.01
1 2.19 219 0.570 -9.524 4.453 -4.150 -19.592 0.793 -366.062 2017.386 -3708.134 -0.104 0.629 -0.368 -0.03 0.54 -0.84 0.01
1 2.20 220 0.555 -9.510 4.415 -3.021 -22.766 0.671 -335.931 2212.409 -3738.265 -0.077 0.613 -0.334 -0.04 0.54 -0.84 0.01
1 2.21 221 0.757 -9.663 4.554 -1.160 -25.024 -0.183 -335.931 2137.308 -3708.134 -0.264 0.765 -0.478 -0.04 0.54 -0.84 0.01
1 2.22 222 0.694 -9.563 4.468 3.510 -25.635 -0.183 -396.042 2137.308 -3843.196 -0.166 0.666 -0.393 -0.04 0.54 -0.84 0.01
1 2.23 223 0.613 -9.194 4.329 5.402 -23.743 0.610 -351.071 2122.317 -3798.226 -0.067 0.300 -0.249 -0.04 0.54 -0.84 0.01
1 2.24 224 0.479 -8.902 4.051 5.371 -22.339 1.404 -351.071 2122.317 -3798.226 0.082 0.012 0.036 -0.04 0.54 -0.84 0.01
1 2.25 225 0.417 -8.754 4.032 3.235 -23.560 1.068 -441.013 2167.288 -3738.265 0.156 -0.133 0.061 -0.04 0.54 -0.84 0.02
1 2.26 226 0.340 -8.715 3.816 1.099 -24.292 1.129 -441.013 2167.288 -3738.265 0.246 -0.169 0.278 -0.05 0.54 -0.84 0.02
1 2.27 227 0.479 -8.758 3.754 0.183 -25.513 1.434 -351.071 2077.347 -3753.255 0.120 -0.125 0.340 -0.05 0.54 -0.84 0.02
1 2.28 228 0.608 -8.931 3.548 1.160 -26.611 1.923 -381.052 2197.418 -3723.125 0.004 0.046 0.542 -0.05 0.54 -0.84 0.02
1 2.29 229 1.006 -8.840 3.429 5.005 -25.848 3.052 -545.944 2017.386 -3738.265 -0.364 -0.044 0.659 -0.05 0.54 -0.84 0.02
1 2.30 230 1.250 -8.969 3.347 5.035 -25.269 4.517 -441.013 2017.386 -3738.265 -0.594 0.087 0.742 -0.05 0.54 -0.84 0.02
1 2.31 231 1.566 -9.036 3.357 3.021 -24.445 5.890 -441.013 2017.386 -3738.265 -0.896 0.155 0.733 -0.06 0.54 -0.84 0.02
1 2.32 232 1.700 -9.089 3.405 1.343 -23.438 5.402 -515.964 2212.409 -3843.196 -1.015 0.208 0.681 -0.06 0.54 -0.84 0.02
1 2.33 233 2.073 -9.266 3.285 0.183 -21.393 4.181 -515.964 2212.409 -3843.196 -1.372 0.383 0.795 -0.06 0.54 -0.84 0.03
1 2.34 234 2.428 -9.319 3.381 2.228 -14.526 2.991 -515.964 2062.356 -3768.245 -1.709 0.435 0.693 -0.06 0.54 -0.84 0.03
1 2.35 235 2.318 -9.151 3.424 2.960 -7.965 1.648 -456.003 2077.347 -3903.157 -1.580 0.267 0.646 -0.06 0.54 -0.84 0.03
1 2.36 236 1.959 -8.964 3.304 -0.854 -1.007 -0.183 -456.003 2077.347 -3858.187 -1.190 0.081 0.762 -0.06 0.54 -0.84 0.03
1 2.37 237 1.786 -9.050 3.366 -3.204 1.068 -1.862 -530.954 2122.317 -3678.154 -1.007 0.165 0.692 -0.06 0.54 -0.84 0.03
1 2.38 238 1.125 -9.065 3.304 -7.996 3.113 -4.730 -530.954 2122.317 -3678.154 -0.335 0.175 0.743 -0.06 0.54 -0.84 0.02
1 2.39 239 0.982 -9.290 3.098 -9.857 3.326 -7.507 -530.954 2077.347 -3753.255 -0.182 0.394 0.934 -0.06 0.54 -0.84 0.02
1 2.40 240 0.728 -9.438 3.103 -8.026 2.411 -8.728 -530.954 2077.347 -3753.255 0.084 0.535 0.912 -0.06 0.54 -0.84 0.02
1 2.41 241 0.757 -9.520 3.132 -3.296 1.190 -8.087 -396.042 2167.288 -3843.196 0.066 0.611 0.867 -0.06 0.54 -0.84 0.02
1 2.42 242 0.512 -9.410 2.993 -1.465 0.305 -8.240 -530.954 2152.298 -3903.157 0.319 0.496 0.995 -0.06 0.54 -0.84 0.02
1 2.43 243 0.565 -9.117 3.055 -2.777 -0.641 -6.561 -530.954 2152.298 -3903.157 0.276 0.201 0.924 -0.06 0.54 -0.84 0.02
1 2.44 244 0.670 -9.180 2.978 -5.951 -2.045 -6.287 -636.036 2152.298 -3828.206 0.187 0.255 0.979 -0.06 0.54 -0.84 0.02
1 2.45 245 0.919 -9.280 3.031 -7.019 -2.106 -5.432 -636.036 2152.298 -3828.206 -0.053 0.350 0.912 -0.07 0.54 -0.84 0.02
1 2.46 246 1.188 -9.156 3.017 -6.989 -1.251 -4.700 -666.016 2167.288 -3888.167 -0.311 0.220 0.911 -0.07 0.54 -0.84 0.02
1 2.47 247 1.235 -9.275 3.026 -6.989 0.305 -4.272 -666.016 2167.288 -3888.167 -0.350 0.334 0.886 -0.07 0.54 -0.84 0.02
1 2.48 248 1.255 -9.275 2.978 -7.416 3.693 -3.967 -681.006 2152.298 -3798.226 -0.361 0.328 0.918 -0.07 0.54 -0.84 0.02
1 2.49 249 1.192 -9.395 3.065 -6.714 5.493 -4.089 -666.016 2287.360 -3843.196 -0.291 0.442 0.816 -0.07 0.55 -0.84 0.02
1 2.50 250 1.212 -9.323 3.146 -4.578 6.653 -2.228 -666.016 2287.360 -3843.196 -0.304 0.364 0.720 -0.07 0.55 -0.83 0.02
1 2.51 251 1.202 -9.352 3.117 -1.556 9.247 -0.854 -575.925 2122.317 -3723.125 -0.293 0.385 0.729 -0.07 0.55 -0.83 0.02
1 2.52 252 1.025 -9.122 3.113 -0.153 10.223 0.000 -575.925 2122.317 -3723.125 -0.118 0.152 0.728 -0.07 0.55 -0.83 0.02
1 2.53 253 1.168 -9.218 3.218 -0.397 11.810 0.793 -545.944 2137.308 -3708.134 -0.266 0.246 0.620 -0.06 0.55 -0.83 0.01
1 2.54 254 1.226 -9.184 3.213 0.214 13.245 1.068 -545.944 2137.308 -3708.134 -0.329 0.211 0.622 -0.06 0.55 -0.83 0.01
1 2.55 255 1.283 -9.122 3.223 1.160 14.374 1.465 -591.065 2062.356 -3738.265 -0.393 0.147 0.610 -0.06 0.55 -0.83 0.01
1 2.56 256 1.044 -9.170 3.232 3.693 15.808 2.380 -530.954 2152.298 -3753.255 -0.162 0.194 0.600 -0.06 0.55 -0.83 0.01
1 2.57 257 1.092 -9.055 3.160 4.578 15.778 2.441 -530.954 2152.298 -3753.255 -0.220 0.079 0.674 -0.06 0.55 -0.83 0.01
1 2.58 258 0.886 -8.964 3.156 4.913 15.839 2.228 -636.036 2152.298 -3753.255 -0.024 -0.011 0.684 -0.06 0.55 -0.83 0.01
1 2.59 259 0.838 -8.912 3.122 3.906 14.923 2.960 -515.964 1942.435 -3708.134 0.003 -0.061 0.727 -0.06 0.55 -0.83 0.01
1 2.60 260 0.670 -8.998 3.199 3.754 14.618 3.326 -456.003 2002.396 -3903.157 0.159 0.025 0.655 -0.06 0.55 -0.83 0.01
1 2.61 261 0.675 -9.031 3.309 3.204 15.076 3.662 -456.003 2002.396 -3903.157 0.141 0.059 0.548 -0.06 0.55 -0.83 0.01
1 2.62 262 0.891 -8.979 3.371 2.960 14.862 5.463 -606.055 2197.418 -3723.125 -0.088 0.007 0.489 -0.06 0.55 -0.83 0.01
1 2.63 263 0.646 -8.974 3.419 1.343 15.076 7.996 -381.052 2152.298 -3753.255 0.140 0.002 0.444 -0.05 0.55 -0.83 0.01
1 2.64 264 0.685 -9.003 3.453 1.587 14.710 9.064 -381.052 2152.298 -3753.255 0.084 0.030 0.412 -0.05 0.55 -0.83 0.01
1 2.65 265 0.637 -8.955 3.381 1.801 13.702 10.956 -530.954 2047.366 -3903.157 0.110 -0.019 0.486 -0.05 0.55 -0.83 0.01
1 2.66 266 0.584 -8.730 3.318 2.655 11.505 12.817 -575.925 2077.347 -3723.125 0.118 -0.246 0.553 -0.05 0.55 -0.84 0.01
1 2.67 267 0.555 -8.691 3.467 1.587 9.064 13.031 -381.052 2077.347 -3828.206 0.122 -0.285 0.407 -0.05 0.55 -0.84 0.01
1 2.68 268 0.680 -8.816 3.419 -1.282 7.233 13.184 -381.052 2077.347 -3828.206 -0.025 -0.162 0.456 -0.05 0.55 -0.84 0.01
1 2.69 269 0.742 -8.950 3.582 -4.150 6.470 13.092 -260.980 2212.409 -3813.216 -0.109 -0.031 0.289 -0.05 0.55 -0.84 0.01
1 2.70 270 0.785 -9.012 3.548 -5.219 4.486 12.543 -456.003 2152.298 -3753.255 -0.172 0.027 0.316 -0.04 0.55 -0.83 0.01
1 2.71 271 1.001 -9.261 3.409 -4.120 4.028 11.932 -456.003 2152.298 -3753.255 -0.405 0.272 0.447 -0.04 0.55 -0.83 0.01
1 2.72 272 1.010 -9.347 3.390 -0.732 5.005 11.444 -396.042 2137.308 -3813.216 -0.431 0.353 0.458 -0.04 0.55 -0.83 0.01
1 2.73 273 1.068 -9.338 3.395 3.662 7.080 10.559 -275.970 2122.317 -3753.255 -0.517 0.340 0.449 -0.04 0.55 -0.83 0.01
1 2.74 274 0.991 -9.515 3.395 3.540 6.897 8.667 -305.951 2122.317 -3798.226 -0.454 0.518 0.453 -0.04 0.55 -0.83 0.01
1 2.75 275 0.934 -9.520 3.462 1.617 6.836 6.653 -305.951 2122.317 -3798.226 -0.407 0.523 0.387 -0.04 0.55 -0.83 0.01
1 2.76 276 1.068 -9.836 3.500 2.167 7.202 5.005 -351.071 2047.366 -3723.125 -0.550 0.838 0.349 -0.04 0.55 -0.83 0.01
1 2.77 277 1.106 -9.874 3.500 5.615 8.728 4.547 -351.071 2152.298 -3903.157 -0.595 0.877 0.350 -0.04 0.55 -0.83 0.01
1 2.78 278 1.063 -9.922 3.567 12.421 8.820 3.021 -351.071 2152.298 -3903.157 -0.558 0.927 0.290 -0.04 0.55 -0.83 0.01
1 2.79 279 1.250 -9.754 3.505 14.801 9.125 1.770 -335.931 2092.337 -3738.265 -0.749 0.765 0.365 -0.04 0.55 -0.84 0.01
1 2.80 280 1.389 -9.750 3.558 14.191 8.789 -0.763 -366.062 2017.386 -3738.265 -0.891 0.775 0.347 -0.04 0.55 -0.84 0.01
1 2.81 281 1.590 -9.797 3.591 13.886 8.575 -1.343 -216.009 2062.356 -3843.196 -1.088 0.830 0.330 -0.04 0.55 -0.84 0.01
1 2.82 282 1.580 -9.788 3.558 12.299 9.460 -3.815 -216.009 2062.356 -3843.196 -1.071 0.828 0.378 -0.04 0.55 -0.84 0.01
1 2.83 283 1.642 -9.802 3.510 12.909 10.956 -5.157 -305.951 2197.418 -3753.255 -1.125 0.849 0.441 -0.04 0.55 -0.84 0.01
1 2.84 284 1.738 -9.716 3.366 12.604 12.207 -6.958 -305.951 2047.366 -3828.206 -1.210 0.770 0.599 -0.04 0.54 -0.84 0.01
1 2.85 285 1.614 -9.826 3.381 8.392 12.421 -9.125 -305.951 2047.366 -3828.206 -1.073 0.886 0.597 -0.04 0.54 -0.84 0
1 2.86 286 1.642 -9.960 3.309 4.486 11.475 -11.231 -335.931 2092.337 -3663.164 -1.087 1.025 0.677 -0.04 0.54 -0.84 0
1 2.87 287 1.647 -10.300 3.376 1.495 10.895 -13.123 -275.970 1927.294 -3723.125 -1.076 1.367 0.613 -0.04 0.54 -0.84 0
1 2.88 288 1.322 -10.535 3.563 5.219 10.681 -15.228 -426.022 2047.366 -3798.226 -0.717 1.605 0.429 0.04 -0.54 0.84 0
1 2.89 289 1.063 -10.497 3.831 9.094 10.223 -14.893 -426.022 2047.366 -3798.226 -0.444 1.573 0.172 0.04 -0.54 0.84 0
1 2.90 290 0.781 -10.267 4.142 9.552 8.270 -17.090 -275.970 1957.425 -3723.125 -0.146 1.351 -0.124 0.04 -0.54 0.84 0
1 2.91 291 0.359 -10.362 4.267 1.923 4.059 -21.149 -275.970 1882.324 -3753.255 0.297 1.454 -0.236 0.04 -0.54 0.84 0.01
1 2.92 292 -0.005 -10.568 4.382 -7.935 -4.761 -23.407 -275.970 1882.324 -3753.255 0.690 1.662 -0.350 0.04 -0.54 0.84 0.01
1 2.93 293 -0.402 -10.353 4.334 -1.312 -7.904 -22.888 -290.960 2062.356 -3768.245 1.122 1.445 -0.311 0.04 -0.54 0.84 0.01
1 2.94 294 -0.527 -10.362 4.372 3.662 -12.848 -23.682 -335.931 1987.405 -3918.147 1.283 1.456 -0.354 0.04 -0.54 0.84 0.01
1 2.95 295 -0.206 -9.759 4.070 0.916 -24.048 -18.982 -305.951 1957.425 -3828.206 1.045 0.863 -0.047 0.04 -0.54 0.84 0.01
1 2.96 296 0.072 -9.285 3.764 -3.723 -25.299 -16.022 -305.951 1957.425 -3828.206 0.799 0.390 0.256 0.05 -0.54 0.84 0.01
1 2.97 297 0.642 -9.309 3.936 -15.503 -21.088 -15.717 -335.931 2062.356 -3813.216 0.259 0.411 0.071 0.05 -0.54 0.84 0.01
1 2.98 298 0.972 -9.453 3.591 -24.750 -12.939 -11.322 -305.951 2047.366 -3903.157 -0.042 0.545 0.388 0.05 -0.54 0.84 0.01
1 2.99 299 1.106 -10.003 3.333 -24.872 -9.674 -6.409 -305.951 2047.366 -3903.157 -0.156 1.081 0.607 0.05 -0.54 0.84 0.01
1 3.00 300 1.513 -10.118 3.635 -9.308 -12.695 1.129 -396.042 1912.304 -3768.245 -0.549 1.181 0.268 0.05 -0.55 0.84 0.01
1 3.01 301 1.935 -9.764 4.089 -2.136 -12.054 3.174 -381.052 2002.396 -3798.226 -0.962 0.818 -0.208 0.05 -0.55 0.84 0.01
1 3.02 302 2.045 -9.520 4.324 -1.190 -6.897 3.784 -381.052 2002.396 -3798.226 -1.068 0.572 -0.448 0.05 -0.55 0.84 0.01
1 3.03 303 2.136 -9.089 4.573 -4.120 1.282 3.723 -396.042 2017.386 -3663.164 -1.147 0.141 -0.701 0.05 -0.55 0.84 0.01
1 3.04 304 2.160 -8.902 4.678 -1.099 6.287 2.625 -500.974 2002.396 -3798.226 -1.168 -0.046 -0.807 0.05 -0.55 0.84 0.01
1 3.05 305 1.868 -8.663 5.100 4.059 10.742 1.770 -470.993 1987.405 -3768.245 -0.874 -0.282 -1.221 0.05 -0.55 0.84 0.01
1 3.06 306 1.738 -8.509 5.373 8.545 13.763 1.831 -470.993 1987.405 -3768.245 -0.746 -0.428 -1.476 0.05 -0.55 0.84 0.01
1 3.07 307 1.561 -7.863 5.861 9.399 16.815 2.350 -305.951 2002.396 -3678.154 -0.574 -1.064 -1.940 0.05 -0.55 0.84 0.01
1 3.08 308 1.168 -7.346 5.967 9.491 18.494 -0.519 -456.003 1957.425 -3723.125 -0.190 -1.569 -2.015 0.05 -0.54 0.84 0.01
1 3.09 309 1.063 -6.795 6.096 11.841 22.553 -3.571 -456.003 1957.425 -3723.125 -0.091 -2.106 -2.112 0.05 -0.54 0.84 0.02
1 3.10 310 0.402 -6.287 5.813 14.801 32.806 -7.294 -351.071 1957.425 -3678.154 0.556 -2.579 -1.750 0.05 -0.54 0.84 0.02
1 3.11 311 -0.115 -5.933 5.742 15.656 36.743 -12.451 -396.042 1987.405 -3768.245 1.064 -2.918 -1.642 0.04 -0.54 0.84 0.02
1 3.12 312 -0.527 -6.101 5.799 13.062 36.957 -18.127 -366.062 1987.405 -3768.245 1.471 -2.738 -1.672 0.04 -0.54 0.84 0.02
1 3.13 313 -0.991 -6.829 5.521 3.479 35.156 -24.201 -366.062 1987.405 -3768.245 1.940 -2.000 -1.373 0.04 -0.54 0.84 0.03
1 3.14 314 -1.092 -8.083 5.603 -12.116 32.044 -26.611 -500.974 2077.347 -3648.173 2.047 -0.738 -1.441 0.04 -0.53 0.84 0.03
1 3.15 315 -1.068 -10.037 5.090 -17.059 26.611 -25.574 -441.013 2017.386 -3813.216 2.025 1.215 -0.931 0.04 -0.54 0.84 0.03
1 3.16 316 -0.814 -10.396 4.889 3.998 23.621 -19.196 -441.013 2017.386 -3813.216 1.774 1.568 -0.744 0.04 -0.54 0.84 0.03
1 3.17 317 -0.239 -9.314 5.258 32.044 19.867 -13.641 -366.062 1942.435 -3768.245 1.222 0.505 -1.076 0.04 -0.53 0.84 0.04
1 3.18 318 0.316 -8.931 5.311 25.726 20.447 -7.294 -260.980 1912.304 -3738.265 0.666 0.146 -1.079 0.03 -0.53 0.85 0.04
1 3.19 319 0.785 -9.089 5.124 8.118 22.095 -0.610 -366.062 2092.337 -3708.134 0.185 0.322 -0.853 0.03 -0.53 0.85 0.04
1 3.20 320 1.255 -9.285 5.076 -0.427 22.461 5.157 -366.062 2092.337 -3708.134 -0.301 0.524 -0.790 0.03 -0.53 0.85 0.04
1 3.21 321 1.441 -9.639 5.176 6.042 26.032 10.529 -305.951 2047.366 -3753.255 -0.511 0.880 -0.882 0.03 -0.53 0.85 0.04
1 3.22 322 0.680 -9.127 5.215 23.132 36.804 12.146 -335.931 1837.353 -3888.167 0.218 0.372 -0.903 0.03 -0.53 0.85 0.04
1 3.23 323 -0.163 -8.682 4.779 29.114 38.788 9.979 -335.931 1837.353 -3888.167 1.021 -0.060 -0.433 0.03 -0.53 0.85 0.04
1 3.24 324 -1.068 -8.232 4.664 28.290 31.983 6.287 -260.980 1792.382 -3738.265 1.841 -0.470 -0.222 0.02 -0.52 0.85 0.04
1 3.25 325 -1.293 -8.265 4.549 26.093 28.351 5.371 -366.062 1867.333 -3708.134 2.026 -0.417 -0.064 0.02 -0.52 0.85 0.04
1 3.26 326 -1.499 -8.179 4.396 20.660 17.151 4.211 -186.029 1837.353 -3708.134 2.197 -0.487 0.126 0.02 -0.52 0.85 0.04
1 3.27 327 -1.192 -8.270 4.501 20.386 10.529 6.042 -186.029 1837.353 -3708.134 1.858 -0.383 0.051 0.01 -0.52 0.85 0.04
1 3.28 328 -0.886 -8.332 4.439 20.111 6.134 7.141 -171.039 1927.294 -3828.206 1.523 -0.307 0.143 0.01 -0.52 0.86 0.04
1 3.29 329 -0.302 -8.308 4.382 17.120 4.700 9.644 -186.029 1867.333 -3708.134 0.913 -0.318 0.229 0.01 -0.51 0.86 0.04
1 3.30 330 -0.105 -8.595 4.453 15.717 6.378 10.712 -186.029 1867.333 -3708.134 0.693 -0.019 0.182 0.01 -0.51 0.86 0.04
1 3.31 331 -0.101 -8.538 4.477 17.883 7.538 11.200 -110.928 1792.382 -3813.216 0.665 -0.066 0.180 0.01 -0.51 0.86 0.04
1 3.32 332 -0.388 -8.097 4.276 26.886 8.026 10.254 -141.058 1792.382 -3738.265 0.904 -0.481 0.434 0.01 -0.51 0.86 0.04
1 3.33 333 -0.704 -7.868 4.046 25.848 8.270 9.918 -216.009 1867.333 -3843.196 1.196 -0.692 0.700 0.01 -0.51 0.86 0.04
1 3.34 334 -0.953 -7.384 3.749 18.463 4.700 10.284 -216.009 1867.333 -3843.196 1.419 -1.160 1.028 0 -0.51 0.86 0.04
1 3.35 335 -0.996 -7.470 3.453 7.996 -1.587 9.338 -186.029 1837.353 -3843.196 1.448 -1.062 1.347 0 -0.51 0.86 0.04
1 3.36 336 -0.824 -7.844 3.098 -10.437 -13.123 11.444 -260.980 1747.412 -3888.167 1.266 -0.685 1.708 0 -0.5 0.86 0.04
1 3.37 337 -0.637 -7.916 2.931 -15.381 -20.386 11.780 -260.980 1747.412 -3888.167 1.074 -0.619 1.866 0 -0.51 0.86 0.04
1 3.38 338 -0.407 -8.006 2.868 -15.167 -25.848 12.787 -201.019 1702.291 -3858.187 0.843 -0.539 1.909 0.01 -0.51 0.86 0.03
1 3.39 339 -0.096 -7.791 3.046 -12.299 -26.001 15.137 -95.938 1702.291 -3903.157 0.536 -0.777 1.692 0.01 -0.51 0.86 0.03
1 3.40 340 -0.182 -8.045 3.266 -13.092 -23.163 15.625 -35.977 1792.382 -3738.265 0.621 -0.532 1.454 0.01 -0.51 0.86 0.03
1 3.41 341 -0.302 -8.093 3.405 -16.235 -21.149 14.740 -35.977 1792.382 -3738.265 0.737 -0.495 1.297 0.01 -0.51 0.86 0.03
1 3.42 342 -0.450 -8.279 3.405 -16.541 -22.980 13.001 -95.938 1732.421 -3798.226 0.883 -0.320 1.275 0.01 -0.51 0.86 0.02
1 3.43 343 -0.417 -8.299 3.299 -14.404 -25.971 10.071 -305.951 1852.343 -3678.154 0.847 -0.315 1.355 0.01 -0.51 0.86 0.02
1 3.44 344 -0.278 -8.385 3.242 -6.500 -30.365 6.012 -305.951 1852.343 -3678.154 0.709 -0.242 1.388 0.01 -0.51 0.86 0.02
1 3.45 345 -0.225 -8.514 3.314 -4.059 -33.234 2.838 -216.009 1717.431 -3813.216 0.663 -0.122 1.298 0.01 -0.51 0.86 0.02
1 3.46 346 -0.263 -8.437 4.008 -6.195 -33.264 1.007 -216.009 1717.431 -3813.216 0.715 -0.206 0.588 0.02 -0.51 0.86 0.02
1 3.47 347 0.220 -9.352 6.867 -21.973 -21.851 3.998 -141.058 1717.431 -3738.265 0.265 0.693 -2.304 0.02 -0.52 0.86 0.01
1 3.48 348 0.464 -10.985 8.136 -40.161 -9.888 12.726 -141.058 1717.431 -3738.265 0.025 2.308 -3.606 0.02 -0.52 0.85 0.01
1 3.49 349 0.493 -12.374 7.374 -47.882 -9.399 15.686 -260.980 1717.431 -3888.167 -0.017 3.666 -2.903 0.02 -0.52 0.85 0.01
1 3.50 350 0.302 -12.048 6.014 -15.228 -16.937 7.813 -366.062 1837.353 -3738.265 0.164 3.311 -1.600 0.02 -0.52 0.85 0.01
1 3.51 351 0.795 -9.381 5.823 42.969 -21.179 -2.258 -366.062 1837.353 -3738.265 -0.323 0.643 -1.412 0.02 -0.52 0.85 0.01
1 3.52 352 1.082 -8.021 6.307 20.691 -21.118 4.486 -231.000 1807.373 -3858.187 -0.593 -0.691 -1.846 0.02 -0.52 0.85 0.01
1 3.53 353 1.149 -7.844 6.158 -34.729 -24.445 11.383 -231.000 1807.373 -3858.187 -0.647 -0.845 -1.653 0.03 -0.52 0.85 0.01
1 3.54 354 0.699 -9.812 5.473 -77.271 -29.968 -3.967 -530.954 1807.373 -3858.187 -0.172 1.077 -1.061 0.03 -0.52 0.85 0.01
1 3.55 355 0.345 -11.272 5.291 -53.467 -29.022 -13.519 -530.954 1807.373 -3858.187 0.213 2.492 -0.975 0.03 -0.53 0.85 0
1 3.56 356 -0.034 -11.066 5.449 -15.961 -25.635 -15.472 -275.970 1777.392 -3828.206 0.630 2.259 -1.194 0.03 -0.53 0.85 0
1 3.57 357 -0.560 -9.941 5.488 3.662 -25.971 -12.817 -456.003 1927.294 -3648.173 1.194 1.129 -1.247 0.04 -0.53 0.85 0
1 3.58 358 -1.073 -8.552 5.100 -8.759 -32.410 -11.627 -456.003 1927.294 -3648.173 1.742 -0.255 -0.856 0.04 -0.53 0.85 0
1 3.59 359 -0.958 -8.083 4.932 -21.057 -40.589 -13.794 -335.931 1867.333 -3708.134 1.658 -0.725 -0.694 0.04 -0.53 0.85 0
1 3.60 360 -0.474 -7.810 4.808 -21.851 -45.197 -15.106 -335.931 1867.333 -3708.134 1.205 -1.006 -0.591 0.04 -0.53 0.85 0
1 3.61 361 -0.005 -7.317 5.085 -1.282 -43.427 -16.052 -426.022 2047.366 -3678.154 0.816 -1.513 -0.913 0.05 -0.53 0.84 0
1 3.62 362 0.043 -6.958 5.239 15.869 -39.826 -14.160 -426.022 2047.366 -3678.154 0.811 -1.864 -1.057 -0.05 0.53 -0.84 0
1 3.63 363 0.397 -6.637 5.057 23.773 -38.483 -10.193 -621.045 1987.405 -3663.164 0.501 -2.171 -0.855 -0.06 0.53 -0.85 0
1 3.64 364 0.795 -6.316 4.937 21.179 -40.802 -6.073 -710.987 1957.425 -3678.154 0.142 -2.474 -0.707 -0.06 0.53 -0.85 0
1 3.65 365 1.326 -6.498 4.832 10.407 -42.999 -0.122 -712.036 1954.876 -3681.002 -0.355 -2.279 -0.581 -0.06 0.53 -0.85 0
1 3.66 366 2.155 -7.039 4.813 -7.446 -34.882 10.864 -636.935 1924.896 -3546.090 -1.158 -1.732 -0.557 -0.06 0.53 -0.85 0.01
1 3.67 367 2.686 -7.394 4.496 -10.040 -28.290 15.839 -636.935 1924.896 -3546.090 -1.677 -1.382 -0.252 -0.07 0.53 -0.85 0.01
1 3.68 368 3.050 -7.973 4.635 1.343 -19.989 20.660 -636.935 1849.945 -3651.021 -2.037 -0.812 -0.413 -0.07 0.53 -0.85 0.01
1 3.69 369 3.285 -8.021 4.726 3.235 -17.578 20.905 -636.935 1849.945 -3651.021 -2.271 -0.762 -0.499 -0.07 0.53 -0.85 0.01
1 3.70 370 3.433 -7.777 4.856 6.378 -9.552 19.745 -697.046 1864.935 -3591.061 -2.421 -1.000 -0.615 -0.07 0.53 -0.85 0.02
1 3.71 371 3.486 -7.839 4.659 -0.397 -6.989 11.108 -636.935 1879.925 -3546.090 -2.473 -0.932 -0.406 -0.07 0.53 -0.85 0.02
1 3.72 372 3.113 -8.026 4.463 -8.362 -3.448 3.143 -636.935 1879.925 -3546.090 -2.088 -0.743 -0.208 -0.07 0.53 -0.85 0.02
1 3.73 373 2.370 -8.615 4.238 -10.803 5.920 -3.784 -532.003 1954.876 -3681.002 -1.329 -0.156 0.008 -0.07 0.53 -0.85 0.02
1 3.74 374 1.815 -9.031 4.425 -6.287 8.392 -4.334 -532.003 1954.876 -3681.002 -0.759 0.256 -0.192 -0.07 0.53 -0.85 0.02
1 3.75 375 1.370 -9.323 4.319 -6.622 7.446 -4.608 -742.017 1939.886 -3515.959 -0.304 0.546 -0.094 -0.07 0.53 -0.85 0.01
1 3.76 376 0.632 -9.716 4.386 -10.223 7.080 -3.540 -681.906 1849.945 -3651.021 0.443 0.931 -0.179 -0.07 0.53 -0.85 0.01
1 3.77 377 0.546 -9.486 4.156 -5.890 8.057 -1.495 -681.906 1954.876 -3606.051 0.528 0.695 0.040 -0.07 0.53 -0.84 0.01
1 3.78 378 0.335 -9.084 3.888 3.357 4.883 -0.549 -636.935 1924.896 -3651.021 0.732 0.290 0.304 -0.07 0.53 -0.84 0.01
1 3.79 379 0.618 -8.595 4.042 10.742 -0.885 0.549 -636.935 1924.896 -3651.021 0.442 -0.196 0.157 -0.07 0.53 -0.85 0.01
1 3.80 380 1.121 -8.035 4.156 8.240 -11.566 0.092 -771.997 1909.906 -3515.959 -0.062 -0.749 0.057 -0.07 0.53 -0.85 0.01
1 3.81 381 1.532 -7.997 4.214 -2.380 -15.656 -0.977 -771.997 1909.906 -3515.959 -0.468 -0.781 0.012 -0.07 0.53 -0.85 0.01
1 3.82 382 1.949 -8.222 4.027 -11.993 -16.937 -2.289 -771.997 1834.805 -3636.031 -0.872 -0.554 0.200 -0.07 0.53 -0.85 0.01
1 3.83 383 2.054 -8.706 4.085 -15.564 -10.407 -1.343 -771.997 1864.935 -3591.061 -0.937 -0.082 0.107 -0.08 0.53 -0.84 0.01
1 3.84 384 1.724 -8.797 3.927 -12.085 -5.829 0.977 -532.003 1849.945 -3500.969 -0.592 0.001 0.244 -0.08 0.53 -0.84 0.01
1 3.85 385 1.484 -8.706 3.807 -8.179 -5.493 1.923 -846.948 2014.837 -3591.061 -0.345 -0.097 0.347 -0.08 0.53 -0.84 0.01
1 3.86 386 1.097 -8.543 3.730 -7.294 -8.026 2.838 -846.948 2014.837 -3591.061 0.047 -0.265 0.411 -0.08 0.53 -0.84 0.01
1 3.87 387 0.862 -8.476 3.726 -7.660 -11.169 3.479 -906.909 1879.925 -3546.090 0.284 -0.337 0.404 -0.08 0.53 -0.84 0.02
1 3.88 388 1.039 -8.624 3.534 -10.162 -12.054 4.913 -906.909 1879.925 -3546.090 0.109 -0.195 0.582 -0.08 0.53 -0.84 0.02
1 3.89 389 1.231 -8.763 3.587 -10.712 -11.169 7.111 -801.978 1909.906 -3636.031 -0.082 -0.064 0.513 -0.08 0.53 -0.84 0.02
1 3.90 390 1.504 -8.725 3.702 -7.477 -9.247 8.179 -771.997 1939.886 -3636.031 -0.356 -0.110 0.381 -0.08 0.53 -0.84 0.02
1 3.91 391 1.877 -8.931 3.754 0.397 -4.181 10.040 -742.017 1834.805 -3636.031 -0.734 0.085 0.305 -0.08 0.53 -0.84 0.02
1 3.92 392 1.944 -8.821 3.773 4.578 0.336 11.475 -681.906 1954.876 -3576.070 -0.808 -0.027 0.286 -0.08 0.53 -0.84 0.02
1 3.93 393 2.078 -8.629 3.745 7.935 3.845 12.085 -681.906 1954.876 -3576.070 -0.951 -0.217 0.320 -0.08 0.53 -0.84 0.02
1 3.94 394 2.117 -8.466 3.730 9.369 9.064 12.207 -786.987 2074.948 -3470.989 -1.001 -0.375 0.346 -0.08 0.53 -0.84 0.02
1 3.95 395 2.140 -8.232 3.726 10.620 17.334 11.627 -786.987 2074.948 -3470.989 -1.039 -0.605 0.366 -0.08 0.53 -0.84 0.02
1 3.96 396 1.939 -8.193 3.711 8.453 22.156 11.322 -922.049 1939.886 -3515.959 -0.855 -0.637 0.398 -0.08 0.53 -0.84 0.02
1 3.97 397 1.853 -8.289 3.654 4.547 24.719 11.353 -952.030 1864.935 -3591.061 -0.788 -0.537 0.471 -0.08 0.53 -0.84 0.02
1 3.98 398 1.777 -8.208 3.702 -1.373 27.161 10.681 -712.036 2044.818 -3546.090 -0.758 -0.616 0.439 -0.07 0.53 -0.84 0.02
1 3.99 399 1.748 -8.198 3.726 -2.747 27.985 11.169 -636.935 2044.818 -3651.021 -0.754 -0.628 0.417 -0.07 0.53 -0.84 0.02
1 4.00 400 1.671 -8.174 3.754 -3.174 29.297 9.705 -636.935 2044.818 -3651.021 -0.702 -0.654 0.389 -0.07 0.53 -0.84 0.02
1 4.01 401 1.690 -8.471 3.826 -6.928 29.816 7.843 -801.978 2014.837 -3561.080 -0.746 -0.361 0.315 -0.07 0.53 -0.84 0.02
1 4.02 402 1.729 -8.811 3.936 -12.329 29.724 6.470 -801.978 2014.837 -3561.080 -0.807 -0.026 0.198 -0.07 0.53 -0.84 0.02
1 4.03 403 1.719 -9.582 4.032 -14.557 28.168 3.937 -606.955 1999.847 -3470.989 -0.817 0.736 0.089 -0.07 0.53 -0.84 0.02
1 4.04 404 1.657 -10.013 4.022 -9.918 28.809 2.869 -591.964 1939.886 -3561.080 -0.772 1.158 0.081 -0.06 0.54 -0.84 0.02
1 4.05 405 1.719 -10.018 4.051 2.838 30.579 1.251 -621.945 1864.935 -3515.959 -0.871 1.152 0.038 -0.06 0.54 -0.84 0.01
1 4.06 406 1.642 -9.764 3.970 9.094 31.220 0.519 -576.974 1774.844 -3426.018 -0.814 0.902 0.131 -0.06 0.54 -0.84 0.01
1 4.07 407 1.274 -9.419 3.960 8.392 30.945 -0.824 -576.974 1774.844 -3426.018 -0.462 0.563 0.156 -0.06 0.54 -0.84 0.01
1 4.08 408 1.101 -9.438 3.893 3.448 29.511 -2.716 -576.974 1924.896 -3470.989 -0.303 0.586 0.235 -0.05 0.54 -0.84 0.01
1 4.09 409 0.939 -9.606 3.826 -1.526 26.489 -5.127 -576.974 1924.896 -3470.989 -0.151 0.755 0.306 -0.05 0.54 -0.84 0.01
1 4.10 410 0.579 -10.295 3.611 -3.693 24.109 -8.087 -621.945 1939.886 -3710.982 0.202 1.442 0.518 -0.05 0.54 -0.84 0.01
1 4.11 411 0.378 -10.463 3.668 0.183 22.064 -9.491 -517.013 1939.886 -3561.080 0.398 1.607 0.457 -0.05 0.54 -0.84 0.01
1 4.12 412 0.335 -10.736 3.582 9.094 15.778 -9.613 -636.935 1999.847 -3651.021 0.442 1.886 0.555 -0.05 0.54 -0.84 0
1 4.13 413 0.369 -10.741 3.831 11.963 14.343 -9.583 -591.964 1939.886 -3561.080 0.412 1.899 0.323 -0.05 0.53 -0.84 0
1 4.14 414 0.565 -10.386 3.534 19.501 13.092 -6.805 -591.964 1939.886 -3561.080 0.220 1.557 0.644 -0.05 0.53 -0.84 0
1 4.15 415 0.809 -9.994 3.429 22.949 14.221 -5.829 -532.003 1999.847 -3576.070 -0.024 1.178 0.780 -0.05 0.53 -0.85 0
1 4.16 416 0.943 -9.730 3.299 22.766 14.954 -4.852 -532.003 1999.847 -3576.070 -0.159 0.927 0.935 0.05 -0.53 0.85 0
1 4.17 417 1.245 -9.572 3.491 14.252 12.360 -4.761 -472.042 1864.935 -3485.979 -0.462 0.781 0.768 0.05 -0.53 0.85 0
1 4.18 418 1.317 -9.850 3.793 6.256 9.827 -5.676 -456.902 1879.925 -3606.051 -0.533 1.066 0.482 0.05 -0.53 0.85 0
1 4.19 419 1.178 -9.922 4.631 -2.502 6.256 -7.996 -456.902 1879.925 -3606.051 -0.390 1.142 -0.350 0.05 -0.53 0.85 0
1 4.20 420 1.073 -10.971 5.076 -23.438 -7.874 -16.937 -441.912 1909.906 -3561.080 -0.258 2.184 -0.814 0.05 -0.53 0.85 0
1 4.21 421 1.370 -11.248 4.822 -29.205 -12.604 -18.890 -441.912 1909.906 -3561.080 -0.524 2.447 -0.596 0.05 -0.53 0.85 0.01
1 4.22 422 1.068 -10.439 5.028 -8.850 -12.085 -18.066 -351.971 1804.824 -3426.018 -0.188 1.624 -0.837 0.05 -0.53 0.84 0.01
1 4.23 423 0.436 -9.898 4.980 -6.378 -13.977 -20.630 -351.971 1804.824 -3426.018 0.477 1.083 -0.797 0.05 -0.53 0.84 0.01
1 4.24 424 1.015 -9.702 4.224 -47.974 -20.264 -19.653 -636.935 1879.925 -3426.018 -0.063 0.881 -0.060 0.05 -0.53 0.84 0.01
1 4.25 425 1.283 -10.080 3.855 -51.636 -15.869 -16.174 -441.912 1909.906 -3515.959 -0.291 1.237 0.250 0.05 -0.54 0.84 0.01
1 4.26 426 1.202 -10.942 3.850 -44.556 -9.613 -12.543 -441.912 1909.906 -3515.959 -0.175 2.068 0.180 0.06 -0.54 0.84 0.01
1 4.27 427 1.326 -10.779 4.506 -26.978 -4.334 -2.228 -532.003 1924.896 -3500.969 -0.259 1.859 -0.590 0.06 -0.54 0.84 0.01
1 4.28 428 1.518 -9.960 4.889 -12.939 -1.678 -0.763 -532.003 1924.896 -3500.969 -0.445 1.028 -1.004 0.06 -0.55 0.84 0.01
1 4.29 429 1.666 -9.151 5.277 -6.714 3.754 0.458 -621.945 1939.886 -3485.979 -0.592 0.213 -1.405 0.06 -0.55 0.84 0.01
1 4.30 430 1.719 -8.744 5.574 -11.658 6.317 0.977 -621.945 1939.886 -3485.979 -0.645 -0.196 -1.706 0.06 -0.55 0.83 0.01
1 4.31 431 1.609 -8.385 5.722 -16.357 8.057 -0.183 -576.974 1954.876 -3576.070 -0.535 -0.558 -1.860 0.06 -0.55 0.83 0.01
1 4.32 432 1.370 -7.916 5.871 -8.850 13.641 -1.465 -681.906 1954.876 -3426.018 -0.295 -1.030 -2.015 0.06 -0.55 0.83 0.01
1 4.33 433 1.288 -7.451 5.761 2.441 17.792 -2.350 -681.906 1954.876 -3426.018 -0.215 -1.493 -1.902 0.06 -0.55 0.83 0.01
1 4.34 434 0.852 -7.264 6.048 11.780 22.369 -4.578 -517.013 2089.938 -3561.080 0.217 -1.672 -2.170 0.06 -0.55 0.84 0.01
1 4.35 435 0.345 -6.603 5.981 19.379 29.114 -11.932 -606.955 2194.870 -3426.018 0.713 -2.299 -2.022 0.05 -0.54 0.84 0.02
1 4.36 436 -0.053 -6.781 5.713 19.440 31.769 -17.822 -591.964 1984.857 -3381.047 1.108 -2.098 -1.702 0.05 -0.54 0.84 0.02
1 4.37 437 -0.383 -7.274 5.248 15.503 27.008 -22.217 -591.964 1984.857 -3381.047 1.439 -1.583 -1.188 0.05 -0.54 0.84 0.02
1 4.38 438 -0.421 -8.102 4.851 6.928 21.271 -21.332 -472.042 2014.837 -3381.047 1.488 -0.740 -0.761 0.05 -0.54 0.84 0.02
1 4.39 439 -0.642 -8.974 4.779 5.005 18.189 -17.059 -381.951 1954.876 -3470.989 1.712 0.142 -0.669 0.05 -0.54 0.84 0.02
1 4.40 440 -0.766 -9.165 4.856 12.360 14.771 -15.686 -381.951 1954.876 -3470.989 1.837 0.341 -0.731 0.05 -0.54 0.84 0.03
1 4.41 441 -0.163 -9.213 5.191 21.179 8.179 -13.001 -546.994 1939.886 -3515.959 1.232 0.398 -1.044 0.05 -0.53 0.84 0.03
1 4.42 442 1.082 -8.835 5.176 16.235 9.735 -2.686 -621.945 1864.935 -3455.999 -0.015 0.053 -0.961 0.05 -0.53 0.85 0.03
1 4.43 443 1.393 -9.094 5.033 8.698 12.604 4.974 -426.922 1999.847 -3366.057 -0.333 0.324 -0.789 0.05 -0.53 0.85 0.03
1 4.44 444 1.844 -8.940 4.923 4.395 15.137 12.085 -426.922 1999.847 -3366.057 -0.799 0.177 -0.661 0.05 -0.53 0.85 0.03
1 4.45 445 1.537 -8.849 5.033 5.981 22.064 15.717 -472.042 2014.837 -3485.979 -0.516 0.090 -0.758 0.04 -0.53 0.85 0.03
1 4.46 446 0.872 -8.959 4.889 11.353 28.351 16.632 -502.023 1924.896 -3245.985 0.117 0.206 -0.595 0.04 -0.53 0.85 0.03
1 4.47 447 -0.469 -8.840 4.736 19.745 29.175 13.611 -506.970 1909.906 -3262.625 1.417 0.094 -0.416 0.04 -0.53 0.85 0.03
1 4.48 448 -1.250 -8.648 4.635 22.217 25.208 9.888 -521.960 1729.873 -3352.566 2.152 -0.085 -0.282 0.04 -0.53 0.85 0.03
1 4.49 449 -1.872 -8.835 4.439 22.614 16.846 6.378 -432.019 1909.906 -3487.628 2.691 0.129 -0.014 0.03 -0.52 0.85 0.03
1 4.50 450 -2.097 -8.686 4.267 22.278 9.155 6.836 -582.071 1939.886 -3517.608 2.878 -0.005 0.192 0.03 -0.52 0.85 0.03
1 4.51 451 -1.772 -8.236 3.960 24.658 0.702 8.820 -582.071 1939.886 -3517.608 2.517 -0.442 0.531 0.03 -0.52 0.85 0.03
1 4.52 452 -1.441 -8.074 3.740 24.139 -5.768 12.390 -432.019 1789.984 -3442.657 2.156 -0.590 0.784 0.03 -0.52 0.85 0.02
1 4.53 453 -0.824 -8.030 3.802 16.022 -9.857 16.541 -402.038 1924.896 -3472.638 1.509 -0.621 0.750 0.03 -0.52 0.86 0.02
1 4.54 454 -0.283 -8.318 3.606 2.716 -14.404 20.111 -402.038 1924.896 -3472.638 0.941 -0.328 0.962 0.03 -0.52 0.86 0.02
1 4.55 455 0.034 -8.605 3.668 2.228 -14.496 22.553 -476.989 1819.964 -3532.599 0.601 -0.041 0.902 0.03 -0.52 0.86 0.02
1 4.56 456 -0.043 -8.663 3.793 8.850 -9.979 23.132 -342.077 1774.994 -3502.618 0.628 0.013 0.777 0.03 -0.52 0.86 0.01
1 4.57 457 -0.177 -8.519 3.855 11.200 -7.996 22.522 -387.048 1834.955 -3487.628 0.735 -0.128 0.723 0.03 -0.52 0.86 0.01
1 4.58 458 -0.455 -8.337 3.730 12.726 -10.101 21.393 -387.048 1834.955 -3487.628 0.984 -0.306 0.859 0.03 -0.51 0.86 0.01
1 4.59 459 -0.699 -8.165 3.654 11.749 -12.421 19.409 -521.960 1699.893 -3532.599 1.203 -0.473 0.948 0.03 -0.51 0.86 0.01
1 4.60 460 -0.943 -8.155 3.467 5.951 -15.747 20.203 -461.999 1714.883 -3412.677 1.423 -0.479 1.144 0.03 -0.51 0.86 0
1 4.61 461 -1.044 -7.676 3.017 2.380 -26.276 19.531 -461.999 1714.883 -3412.677 1.500 -0.959 1.595 0.03 -0.51 0.86 0
1 4.62 462 -0.814 -7.494 2.792 0.702 -33.081 20.569 -372.058 1699.893 -3607.700 1.256 -1.142 1.820 -0.03 0.51 -0.86 0
1 4.63 463 -0.642 -7.571 2.706 -5.096 -36.865 21.240 -447.009 1774.994 -3652.670 1.080 -1.065 1.907 -0.03 0.51 -0.86 0
1 4.64 464 -0.464 -7.954 2.749 -19.775 -42.236 22.430 -342.077 1849.945 -3532.599 0.900 -0.695 1.839 -0.03 0.51 -0.86 0.01
1 4.65 465 -0.287 -8.232 2.849 -22.980 -47.241 21.759 -342.077 1849.945 -3532.599 0.724 -0.433 1.708 -0.03 0.52 -0.86 0.01
1 4.66 466 -0.129 -8.356 3.089 -17.517 -50.690 19.074 -461.999 1864.935 -3592.560 0.572 -0.325 1.437 -0.04 0.52 -0.85 0.02
1 4.67 467 -0.029 -8.275 3.089 -8.301 -52.368 14.343 -432.019 1864.935 -3562.579 0.482 -0.420 1.410 -0.04 0.52 -0.85 0.02
1 4.68 468 0.230 -8.064 3.342 1.770 -51.361 7.568 -432.019 1864.935 -3562.579 0.239 -0.639 1.139 -0.04 0.52 -0.85 0.02
1 4.69 469 0.359 -7.781 3.366 2.869 -51.941 2.716 -521.960 1774.994 -3607.700 0.133 -0.923 1.110 -0.04 0.52 -0.85 0.03
1 4.70 470 0.374 -7.796 4.377 -2.350 -52.246 -1.678 -357.067 2059.958 -3517.608 0.149 -0.906 0.100 -0.05 0.52 -0.85 0.03
1 4.71 471 1.738 -9.467 10.588 -27.405 -29.114 1.465 -447.009 1774.994 -3502.618 -1.143 0.762 -6.126 -0.05 0.52 -0.85 0.03
1 4.72 472 2.964 -14.112 9.754 -72.174 -10.162 21.149 -447.009 1774.994 -3502.618 -2.361 5.382 -5.343 -0.06 0.52 -0.85 0.03
1 4.73 473 2.097 -14.835 5.330 -75.104 -30.151 18.860 -461.999 1939.886 -3592.560 -1.515 6.049 -1.028 -0.06 0.53 -0.85 0.03
1 4.74 474 2.624 -11.775 5.090 33.295 -24.201 4.334 -536.950 2029.978 -3592.560 -2.040 2.955 -0.860 -0.06 0.53 -0.85 0.04
1 4.75 475 2.643 -8.801 6.096 107.300 -9.735 2.014 -536.950 2029.978 -3592.560 -2.049 0.020 -1.787 -0.06 0.53 -0.85 0.04
1 4.76 476 2.605 -6.546 6.503 4.822 -15.472 22.034 -791.934 1909.906 -3487.628 -2.011 -2.167 -2.056 -0.06 0.52 -0.85 0.04
1 4.77 477 2.322 -6.680 6.168 -85.480 -18.738 17.914 -597.061 1894.916 -3472.638 -1.729 -2.002 -1.661 -0.06 0.52 -0.85 0.04
1 4.78 478 0.512 -10.530 4.693 -100.556 -2.960 1.556 -687.002 1834.955 -3442.657 0.090 1.746 -0.390 -0.06 0.53 -0.85 0.04
1 4.79 479 -0.168 -11.698 4.511 -79.468 -1.099 -4.425 -687.002 1834.955 -3442.657 0.776 2.858 -0.327 -0.06 0.53 -0.84 0.04
1 4.80 480 -1.188 -11.914 5.153 -2.197 -13.672 -16.296 -672.012 1849.945 -3472.638 1.815 3.050 -1.019 -0.06 0.53 -0.84 0.04
1 4.81 481 -1.403 -10.659 5.756 14.343 -25.269 -20.660 -701.993 2119.919 -3352.566 2.066 1.801 -1.618 -0.07 0.53 -0.84 0.04
1 4.82 482 -1.398 -9.539 5.473 4.669 -32.684 -19.653 -701.993 2119.919 -3352.566 2.108 0.691 -1.320 -0.07 0.53 -0.84 0.04
1 4.83 483 -1.216 -8.567 4.827 -5.157 -47.302 -14.526 -716.983 1939.886 -3412.677 1.974 -0.278 -0.675 -0.07 0.53 -0.84 0.04
1 4.84 484 -0.713 -8.107 4.726 2.747 -55.512 -12.634 -791.934 1939.886 -3337.576 1.505 -0.737 -0.579 -0.07 0.53 -0.84 0.04
1 4.85 485 -0.086 -7.580 4.784 18.250 -56.641 -11.871 -791.934 1939.886 -3337.576 0.916 -1.260 -0.637 -0.08 0.53 -0.84 0.04
1 4.86 486 0.383 -6.503 4.626 35.767 -46.784 -6.104 -791.934 2104.929 -3412.677 0.532 -2.303 -0.423 -0.09 0.53 -0.84 0.05
1 4.87 487 0.694 -5.933 4.549 35.492 -40.344 -0.031 -867.035 1939.886 -3307.595 0.257 -2.847 -0.302 -0.09 0.52 -0.85 0.05
1 4.88 488 1.077 -6.010 4.492 22.705 -35.309 8.484 -926.996 1969.867 -3502.618 -0.102 -2.749 -0.205 -0.09 0.52 -0.85 0.05
1 4.89 489 1.274 -6.407 4.592 2.502 -31.403 17.487 -929.395 1965.370 -3507.865 -0.289 -2.341 -0.286 -0.09 0.52 -0.85 0.05
1 4.90 490 1.681 -7.269 4.473 -14.404 -25.299 26.093 -779.342 1695.396 -3327.832 -0.702 -1.483 -0.173 -0.09 0.52 -0.85 0.06
1 4.91 491 1.973 -8.500 4.358 -9.522 -21.423 30.731 -929.395 1965.370 -3477.884 -1.014 -0.266 -0.082 -0.09 0.52 -0.85 0.06
1 4.92 492 2.131 -8.715 4.233 3.235 -20.447 29.572 -929.395 1965.370 -3477.884 -1.191 -0.060 0.027 -0.09 0.52 -0.84 0.06
1 4.93 493 2.720 -8.222 4.008 21.576 -17.151 21.118 -839.303 1980.510 -3522.855 -1.807 -0.549 0.267 -0.1 0.52 -0.84 0.07
1 4.94 494 2.768 -7.738 4.281 23.041 -9.644 16.419 -1019.336 1905.409 -3342.822 -1.857 -1.019 0.023 -0.1 0.52 -0.85 0.07
1 4.95 495 2.452 -7.178 4.152 12.665 0.031 14.771 -1034.326 2145.402 -3402.783 -1.543 -1.564 0.182 -0.1 0.52 -0.85 0.07
1 4.96 496 2.179 -7.173 4.080 2.197 3.296 9.644 -1034.326 2145.402 -3402.783 -1.280 -1.562 0.270 -0.1 0.52 -0.85 0.07
1 4.97 497 2.011 -6.972 3.946 -2.045 1.343 5.371 -974.365 1935.389 -3417.923 -1.125 -1.764 0.406 -0.1 0.52 -0.85 0.07
1 4.98 498 2.409 -7.810 4.065 -5.859 -4.669 1.984 -929.395 1845.448 -3477.884 -1.528 -0.928 0.283 -0.1 0.52 -0.85 0.07
1 4.99 499 2.801 -8.203 4.156 -14.099 -3.906 0.702 -929.395 1845.448 -3477.884 -1.920 -0.538 0.187 -0.1 0.52 -0.85 0.07
1 5.00 500 3.108 -8.701 4.190 -16.663 0.549 -0.824 -869.284 2025.480 -3387.793 -2.194 -0.056 0.115 -0.1 0.52 -0.85 0.07
1 5.01 501 3.146 -8.548 4.176 -13.763 2.167 -1.770 -839.303 1830.458 -3447.904 -2.214 -0.217 0.109 -0.1 0.52 -0.84 0.07
1 5.02 502 3.055 -8.270 4.061 -1.434 9.033 -5.005 -959.375 1995.500 -3402.783 -2.105 -0.496 0.216 -0.1 0.52 -0.84 0.07
1 5.03 503 2.744 -8.284 3.936 -4.303 12.543 -4.211 -959.375 1995.500 -3402.783 -1.776 -0.480 0.340 -0.1 0.52 -0.84 0.07
1 5.04 504 2.356 -8.481 3.907 -16.388 15.137 -3.632 -929.395 2070.451 -3402.783 -1.377 -0.286 0.361 -0.1 0.52 -0.84 0.07
1 5.05 505 1.935 -9.122 3.845 -33.600 16.419 -5.249 -869.284 1905.409 -3267.871 -0.948 0.344 0.398 -0.1 0.52 -0.84 0.07
1 5.06 506 1.599 -9.620 3.548 -32.929 17.059 -5.707 -869.284 1905.409 -3267.871 -0.607 0.823 0.653 -0.1 0.52 -0.84 0.06
1 5.07 507 1.001 -9.726 3.433 -20.630 18.463 -4.120 -809.323 1995.500 -3357.812 -0.005 0.906 0.721 -0.1 0.53 -0.84 0.06
1 5.08 508 0.340 -9.113 3.338 -4.486 20.874 -0.397 -869.284 2130.412 -3417.923 0.645 0.267 0.765 -0.1 0.53 -0.84 0.06
1 5.09 509 -0.230 -8.864 3.165 -5.768 20.874 2.747 -974.365 2100.432 -3417.923 1.198 0.013 0.930 -0.1 0.53 -0.84 0.06
1 5.10 510 -0.546 -8.691 3.098 -12.207 18.494 4.669 -974.365 2100.432 -3417.923 1.490 -0.167 0.985 -0.09 0.53 -0.84 0.06
1 5.11 511 -0.512 -8.634 3.165 -16.419 14.191 5.920 -839.303 1980.510 -3387.793 1.429 -0.237 0.898 -0.09 0.53 -0.84 0.06
1 5.12 512 -0.101 -8.232 3.069 -11.597 8.698 6.226 -869.284 2025.480 -3447.904 0.992 -0.652 0.970 -0.09 0.53 -0.84 0.06
1 5.13 513 0.235 -8.409 3.098 -9.094 7.111 6.042 -869.284 2025.480 -3447.904 0.635 -0.486 0.922 -0.09 0.54 -0.84 0.06
1 5.14 514 0.862 -8.433 3.299 -11.780 7.782 5.829 -884.424 2040.471 -3327.832 -0.007 -0.469 0.709 -0.09 0.54 -0.84 0.06
1 5.15 515 1.298 -8.883 3.309 -16.541 11.902 6.531 -854.293 2115.422 -3222.900 -0.470 -0.038 0.662 -0.09 0.54 -0.84 0.06
1 5.16 516 1.547 -9.036 3.386 -15.595 15.381 7.019 -914.404 2055.461 -3312.842 -0.732 0.103 0.561 -0.09 0.54 -0.84 0.06
1 5.17 517 1.848 -9.022 3.280 -9.125 18.250 8.179 -914.404 2055.461 -3312.842 -1.047 0.078 0.646 -0.09 0.54 -0.83 0.06
1 5.18 518 1.959 -8.811 3.223 -1.953 21.179 9.216 -869.284 2205.513 -3447.904 -1.172 -0.139 0.692 -0.09 0.54 -0.83 0.06
1 5.19 519 2.255 -8.399 3.175 3.204 23.590 8.331 -779.342 2070.451 -3327.832 -1.484 -0.553 0.738 -0.08 0.54 -0.83 0.06
1 5.20 520 2.385 -8.289 3.266 3.113 28.168 6.805 -779.342 2070.451 -3327.832 -1.627 -0.662 0.652 -0.08 0.54 -0.83 0.06
1 5.21 521 2.375 -8.442 3.491 -5.219 33.661 6.622 -974.365 2055.461 -3312.842 -1.630 -0.507 0.433 -0.08 0.54 -0.83 0.06
1 5.22 522 2.102 -8.983 3.726 -15.167 38.880 5.005 -779.342 2070.451 -3357.812 -1.388 0.025 0.184 -0.08 0.54 -0.83 0.05
1 5.23 523 1.997 -9.180 3.840 -14.893 39.765 4.547 -764.352 2100.432 -3387.793 -1.301 0.213 0.052 -0.08 0.54 -0.83 0.05
1 5.24 524 1.350 -9.630 3.927 -7.538 41.443 1.678 -764.352 2100.432 -3387.793 -0.674 0.655 -0.048 -0.07 0.54 -0.83 0.05
1 5.25 525 0.876 -9.558 3.927 0.000 42.481 -0.061 -479.987 2143.753 -3585.064 -0.220 0.580 -0.052 -0.07 0.55 -0.83 0.05
1 5.26 526 0.431 -9.510 3.807 3.754 41.382 -2.045 -779.942 2068.652 -3329.931 0.205 0.533 0.072 -0.07 0.55 -0.83 0.05
1 5.27 527 -0.144 -9.548 3.860 0.000 34.332 -6.256 -779.942 2068.652 -3329.931 0.759 0.573 0.027 -0.07 0.55 -0.83 0.04
1 5.28 528 -0.196 -9.635 3.864 -3.326 26.123 -9.644 -630.040 2068.652 -3329.931 0.795 0.660 0.026 -0.06 0.55 -0.83 0.04
1 5.29 529 -0.254 -9.764 3.855 -2.777 19.196 -11.688 -630.040 2068.652 -3329.931 0.843 0.787 0.033 -0.06 0.55 -0.83 0.04
1 5.30 530 0.163 -10.228 3.917 0.977 9.552 -15.472 -675.010 2113.623 -3329.931 0.430 1.250 -0.033 -0.06 0.55 -0.83 0.04
1 5.31 531 0.383 -10.109 3.812 2.502 5.524 -15.167 -675.010 2113.623 -3329.931 0.224 1.133 0.075 -0.06 0.55 -0.83 0.04
1 5.32 532 0.790 -10.315 3.745 2.716 4.120 -13.458 -509.968 2023.682 -3269.970 -0.165 1.342 0.147 -0.06 0.55 -0.83 0.04
1 5.33 533 0.872 -10.525 3.716 1.923 2.991 -11.078 -464.997 2053.662 -3314.940 -0.231 1.556 0.181 -0.06 0.55 -0.84 0.04
1 5.34 534 1.197 -10.884 3.548 -0.732 1.373 -9.186 -464.997 2053.662 -3314.940 -0.543 1.918 0.352 -0.06 0.55 -0.84 0.03
1 5.35 535 1.566 -11.646 3.658 0.732 2.319 -5.859 -709.338 2104.779 -3190.521 -0.899 2.680 0.242 -0.06 0.55 -0.84 0.03
1 5.36 536 1.461 -11.373 3.529 7.904 4.852 -2.533 -709.338 2104.779 -3190.521 -0.786 2.408 0.372 -0.06 0.54 -0.84 0.03
1 5.37 537 1.283 -10.765 3.069 20.722 8.759 -0.854 -529.305 2029.828 -3370.554 -0.608 1.814 0.863 -0.06 0.54 -0.84 0.03
1 5.38 538 1.058 -10.181 3.026 22.858 10.193 -1.556 -529.305 2029.828 -3370.554 -0.387 1.243 0.938 -0.06 0.54 -0.84 0.03
1 5.39 539 1.044 -9.917 2.993 19.074 8.942 -2.502 -604.406 2059.808 -3295.603 -0.374 0.992 0.999 -0.06 0.54 -0.84 0.03
1 5.40 540 0.986 -9.994 3.405 12.146 5.707 -4.486 -619.396 1969.867 -3280.613 -0.314 1.076 0.603 -0.06 0.54 -0.84 0.03
1 5.41 541 0.670 -10.037 4.463 -0.977 -0.305 -8.392 -619.396 1969.867 -3280.613 0.009 1.123 -0.448 -0.06 0.54 -0.84 0.03
1 5.42 542 0.656 -11.320 4.607 -27.466 -16.235 -18.555 -484.334 1954.876 -3265.623 0.040 2.404 -0.600 -0.06 0.54 -0.84 0.03
1 5.43 543 1.154 -10.971 4.315 -20.996 -17.090 -20.172 -484.334 1954.876 -3265.623 -0.426 2.042 -0.340 -0.06 0.54 -0.84 0.03
1 5.44 544 0.924 -9.721 4.252 9.735 -10.010 -20.142 -649.377 2089.789 -3205.512 -0.120 0.782 -0.316 -0.07 0.54 -0.84 0.03
1 5.45 545 0.541 -9.386 4.338 6.256 -8.820 -20.508 -649.377 2089.789 -3205.512 0.298 0.455 -0.391 -0.07 0.54 -0.84 0.03
1 5.46 546 0.153 -9.778 4.559 -36.591 -14.679 -23.285 -604.406 2029.828 -3295.603 0.719 0.845 -0.625 -0.07 0.54 -0.84 0.03
1 5.47 547 0.766 -10.937 4.338 -64.026 -22.003 -24.292 -724.328 2044.818 -3325.583 0.147 1.981 -0.467 -0.07 0.55 -0.83 0.03
1 5.48 548 1.384 -11.560 4.195 -50.018 -22.919 -20.111 -724.328 2044.818 -3325.583 -0.424 2.570 -0.413 -0.08 0.55 -0.83 0.03
1 5.49 549 1.848 -9.970 4.860 5.768 -5.585 -4.242 -619.396 2164.890 -3325.583 -0.852 0.960 -1.136 -0.08 0.55 -0.83 0.02
1 5.50 550 1.695 -8.476 5.090 15.717 3.296 1.984 -619.396 2164.890 -3325.583 -0.684 -0.534 -1.369 -0.08 0.55 -0.83 0.02
1 5.51 551 1.259 -7.164 5.224 -0.732 5.707 0.793 -724.328 2194.870 -3280.613 -0.247 -1.835 -1.477 -0.08 0.55 -0.83 0.02
1 5.52 552 0.814 -6.852 4.980 -30.823 -4.944 -3.540 -604.406 2224.851 -3340.574 0.201 -2.144 -1.230 -0.08 0.55 -0.83 0.02
1 5.53 553 0.934 -6.919 5.033 -37.323 -11.993 -5.829 -724.328 2089.789 -3355.564 0.092 -2.095 -1.328 -0.08 0.55 -0.83 0.02
1 5.54 554 1.044 -7.245 5.272 -31.189 -10.071 -5.951 -769.449 2239.841 -3280.613 -0.002 -1.789 -1.619 -0.08 0.55 -0.83 0.02
1 5.55 555 1.077 -7.528 5.550 -19.104 0.183 -5.737 -769.449 2239.841 -3280.613 -0.021 -1.514 -1.922 -0.08 0.56 -0.83 0.02
1 5.56 556 0.670 -7.695 5.564 -0.641 15.381 -9.094 -634.387 2224.851 -3295.603 0.394 -1.347 -1.939 -0.08 0.56 -0.83 0.02
1 5.57 557 0.187 -7.552 5.085 7.843 17.426 -13.977 -634.387 2224.851 -3295.603 0.882 -1.484 -1.444 -0.08 0.55 -0.83 0.02
1 5.58 558 0.024 -7.738 4.707 12.085 14.221 -16.815 -814.419 2224.851 -3190.521 1.050 -1.285 -1.038 -0.08 0.55 -0.83 0.02
1 5.59 559 -0.297 -8.275 4.564 8.637 8.148 -19.043 -814.419 2299.802 -3265.623 1.391 -0.722 -0.834 -0.08 0.55 -0.83 0.02
1 5.60 560 -0.498 -8.974 4.640 3.387 8.972 -18.219 -784.439 2299.802 -3265.623 1.604 -0.012 -0.890 -0.08 0.55 -0.83 0.02
1 5.61 561 -0.484 -9.462 4.506 2.319 4.486 -15.717 -799.429 2314.792 -3400.535 1.599 0.483 -0.743 -0.08 0.55 -0.83 0.02
1 5.62 562 -0.057 -9.596 4.616 10.864 -1.190 -12.024 -799.429 2314.792 -3400.535 1.180 0.622 -0.842 -0.08 0.55 -0.83 0.01
1 5.63 563 0.704 -9.735 5.038 18.402 -4.547 -5.951 -679.357 2254.831 -3295.603 0.424 0.771 -1.241 -0.08 0.55 -0.83 0.01
1 5.64 564 1.623 -9.520 5.018 12.054 2.594 4.334 -679.357 2254.831 -3295.603 -0.489 0.568 -1.194 -0.08 0.55 -0.83 0.01
1 5.65 565 1.705 -9.199 4.956 8.728 7.996 10.284 -769.449 2269.821 -3430.515 -0.574 0.256 -1.111 -0.08 0.55 -0.83 0.01
1 5.66 566 1.312 -8.830 4.817 17.212 15.778 12.970 -784.439 2224.851 -3340.574 -0.213 -0.098 -0.929 -0.08 0.54 -0.84 0.02
1 5.67 567 1.159 -8.840 4.769 20.447 17.120 12.573 -754.309 2299.802 -3265.623 -0.085 -0.076 -0.845 -0.08 0.54 -0.84 0.02
1 5.68 568 0.144 -8.758 4.678 25.238 18.982 8.820 -634.387 2134.909 -3235.492 0.904 -0.142 -0.713 -0.07 0.54 -0.84 0.02
1 5.69 569 -0.378 -8.643 4.410 25.055 17.334 7.965 -634.387 2134.909 -3235.492 1.398 -0.240 -0.400 -0.07 0.54 -0.84 0.02
1 5.70 570 -0.560 -8.682 4.243 24.384 13.001 8.179 -694.348 2194.870 -3355.564 1.551 -0.187 -0.191 -0.07 0.54 -0.84 0.02
1 5.71 571 -0.690 -8.686 4.343 23.316 8.789 8.301 -694.348 2194.870 -3355.564 1.650 -0.168 -0.254 -0.07 0.54 -0.84 0.02
1 5.72 572 -0.527 -8.619 4.147 21.454 5.920 9.155 -679.357 2134.909 -3340.574 1.459 -0.221 -0.022 -0.07 0.53 -0.84 0.02
1 5.73 573 -0.417 -8.758 3.845 18.341 3.754 11.078 -559.436 2254.831 -3340.574 1.321 -0.069 0.314 -0.07 0.53 -0.84 0.02
1 5.74 574 -0.378 -8.710 3.773 14.740 1.190 18.158 -709.338 2059.808 -3340.574 1.226 -0.099 0.435 -0.06 0.53 -0.85 0.02
1 5.75 575 -0.326 -8.500 3.486 13.336 1.709 20.325 -679.357 2059.808 -3445.505 1.139 -0.304 0.741 -0.06 0.53 -0.85 0.02
1 5.76 576 -0.326 -8.710 3.457 10.651 0.244 19.775 -679.357 2059.808 -3445.505 1.103 -0.089 0.785 -0.06 0.53 -0.85 0.02
1 5.77 577 -0.441 -8.576 3.496 9.003 -1.984 19.043 -529.305 2179.880 -3490.476 1.185 -0.221 0.757 -0.06 0.53 -0.85 0.03
1 5.78 578 -0.632 -8.715 3.500 9.613 -3.174 18.707 -529.305 2179.880 -3490.476 1.345 -0.081 0.762 -0.06 0.53 -0.85 0.03
1 5.79 579 -0.833 -9.012 3.381 6.744 -8.301 19.898 -709.338 2104.779 -3490.476 1.515 0.218 0.891 -0.06 0.53 -0.85 0.03
1 5.80 580 -0.809 -9.405 3.175 3.662 -11.658 21.698 -544.445 2089.789 -3460.496 1.459 0.611 1.102 -0.06 0.53 -0.85 0.03
1 5.81 581 -0.905 -9.189 3.065 8.728 -19.165 22.278 -679.357 2224.851 -3445.505 1.492 0.390 1.209 -0.06 0.53 -0.85 0.04
1 5.82 582 -0.733 -8.437 2.940 17.334 -25.269 20.813 -469.344 2014.837 -3325.583 1.294 -0.361 1.340 -0.06 0.53 -0.85 0.04
1 5.83 583 -0.541 -8.117 2.888 18.921 -28.595 19.562 -469.344 2014.837 -3325.583 1.084 -0.675 1.408 -0.06 0.53 -0.85 0.04
1 5.84 584 -0.536 -8.002 2.864 10.956 -29.175 20.538 -724.328 2089.789 -3460.496 1.072 -0.780 1.454 -0.06 0.53 -0.85 0.04
1 5.85 585 -0.814 -8.241 3.031 -2.289 -29.541 22.919 -724.328 2089.789 -3460.496 1.341 -0.537 1.295 -0.06 0.53 -0.85 0.05
1 5.86 586 -0.843 -8.801 3.156 -9.552 -36.377 21.515 -619.396 2164.890 -3400.535 1.360 0.019 1.162 -0.06 0.53 -0.85 0.05
1 5.87 587 -0.613 -8.959 3.022 -1.312 -45.838 17.761 -709.338 2104.779 -3370.554 1.114 0.166 1.275 -0.06 0.53 -0.85 0.05
1 5.88 588 -0.551 -8.701 2.792 14.191 -55.481 11.871 -724.328 2119.919 -3400.535 1.051 -0.100 1.489 -0.07 0.53 -0.85 0.06
1 5.89 589 -0.455 -8.639 2.643 16.937 -56.275 10.193 -634.387 2059.808 -3445.505 0.970 -0.158 1.647 -0.07 0.53 -0.85 0.06
1 5.90 590 -0.378 -8.481 2.658 15.533 -62.622 4.364 -634.387 2059.808 -3445.505 0.918 -0.309 1.642 -0.07 0.52 -0.85 0.07
1 5.91 591 -0.484 -8.380 2.720 11.932 -68.878 0.061 -724.328 2119.919 -3280.613 1.055 -0.405 1.586 -0.08 0.52 -0.85 0.07
1 5.92 592 -0.235 -8.289 5.665 6.989 -71.900 -7.782 -724.328 2119.919 -3280.613 0.852 -0.491 -1.355 -0.08 0.52 -0.85 0.07
1 5.93 593 1.614 -12.010 13.274 -4.364 -30.823 -4.700 -814.419 2059.808 -3445.505 -0.944 3.236 -8.960 -0.09 0.52 -0.85 0.07
1 5.94 594 1.216 -17.263 8.859 -72.693 -29.968 29.938 -709.338 2254.831 -3490.476 -0.507 8.490 -4.549 -0.09 0.52 -0.85 0.07
1 5.95 595 2.035 -14.600 5.263 -25.696 -81.452 15.747 -709.338 2254.831 -3490.476 -1.338 5.790 -1.028 -0.09 0.53 -0.84 0.08
1 5.96 596 3.438 -8.988 6.019 139.222 -75.928 3.052 -934.341 2134.909 -3415.525 -2.674 0.195 -1.762 -0.1 0.52 -0.84 0.08
1 5.97 597 2.959 -7.925 8.217 77.851 -44.434 15.991 -934.341 2134.909 -3415.525 -2.157 -0.780 -3.787 -0.1 0.51 -0.85 0.09
1 5.98 598 1.686 -7.676 6.110 -53.742 -41.840 17.578 -919.351 1969.867 -3325.583 -0.879 -1.001 -1.627 -0.1 0.51 -0.85 0.09
1 5.99 599 1.058 -8.437 4.348 -91.278 -66.376 9.125 -919.351 1969.867 -3325.583 -0.234 -0.285 0.042 -0.11 0.51 -0.85 0.09
1 6.00 600 0.508 -9.247 3.860 -19.348 -54.199 10.345 -859.390 2029.828 -3445.505 0.352 0.470 0.416 -0.11 0.52 -0.84 0.1
1 6.01 601 0.508 -8.461 3.778 15.045 -50.232 7.416 -1039.423 2104.779 -3370.554 0.375 -0.338 0.444 -0.12 0.52 -0.84 0.1
1 6.02 602 0.599 -7.614 4.099 15.350 -57.190 2.350 -1039.423 2104.779 -3370.554 0.303 -1.183 0.125 -0.12 0.52 -0.84 0.1
1 6.03 603 1.623 -7.006 4.310 -3.204 -65.369 -0.885 -1039.423 2134.909 -3265.623 -0.650 -1.776 -0.071 -0.13 0.52 -0.84 0.11
1 6.04 604 2.117 -6.680 4.171 -6.775 -59.540 0.671 -1039.423 2134.909 -3265.623 -1.099 -2.104 0.053 -0.13 0.52 -0.84 0.11
1 6.05 605 2.605 -6.374 4.037 3.967 -46.570 3.998 -1099.384 2164.890 -3280.613 -1.552 -2.414 0.172 -0.13 0.52 -0.84 0.11
1 6.06 606 2.768 -5.847 4.200 22.644 -30.304 5.737 -1099.384 2164.890 -3280.613 -1.693 -2.935 0.015 -0.14 0.52 -0.84 0.11
1 6.07 607 2.983 -5.258 4.544 37.293 -14.648 8.759 -1117.222 2176.132 -3270.270 -1.899 -3.507 -0.297 -0.14 0.51 -0.84 0.12
1 6.08 608 2.801 -4.712 5.062 30.701 -0.336 13.214 -1282.265 2086.191 -3210.309 -1.721 -4.029 -0.763 -0.14 0.51 -0.84 0.12
1 6.09 609 2.739 -5.004 5.311 4.211 3.357 12.817 -1282.265 2086.191 -3210.309 -1.674 -3.715 -0.966 -0.14 0.51 -0.84 0.12
1 6.10 610 2.619 -7.437 4.884 -54.291 10.437 12.207 -1267.274 1981.109 -3270.270 -1.593 -1.295 -0.554 -0.14 0.51 -0.84 0.12
1 6.11 611 2.538 -8.682 4.358 -67.139 14.191 12.604 -1267.274 1981.109 -3270.270 -1.529 -0.088 -0.102 -0.13 0.51 -0.84 0.12
1 6.12 612 2.284 -11.191 3.515 -43.091 18.280 13.275 -1117.222 2221.103 -3375.351 -1.291 2.376 0.651 -0.13 0.52 -0.84 0.12
1 6.13 613 2.040 -10.166 4.094 8.392 12.756 14.923 -1117.222 2221.103 -3375.351 -1.076 1.331 0.034 -0.13 0.52 -0.83 0.12
1 6.14 614 2.437 -8.418 4.544 37.171 2.686 13.733 -1177.183 2161.142 -3360.361 -1.498 -0.407 -0.389 -0.13 0.52 -0.84 0.12
1 6.15 615 2.514 -6.302 4.305 10.925 13.092 14.252 -1207.164 2191.123 -3255.279 -1.585 -2.500 -0.097 -0.13 0.52 -0.84 0.12
1 6.16 616 1.863 -6.340 4.013 -22.949 32.288 11.017 -1207.164 2191.123 -3255.279 -0.953 -2.449 0.225 -0.13 0.52 -0.84 0.12
1 6.17 617 0.781 -7.681 3.793 -50.781 39.642 8.148 -1282.265 2041.070 -3150.348 0.097 -1.119 0.430 -0.13 0.52 -0.84 0.12
1 6.18 618 0.431 -10.434 3.898 -51.972 27.649 1.007 -1027.281 2086.191 -3180.328 0.381 1.567 0.195 -0.12 0.53 -0.83 0.12
1 6.19 619 0.747 -10.817 3.802 -18.585 17.090 -1.801 -1192.173 2296.204 -3420.322 0.049 1.922 0.233 -0.12 0.53 -0.83 0.12
1 6.20 620 1.322 -9.668 3.716 14.862 9.613 -3.204 -1192.173 2296.204 -3420.322 -0.532 0.768 0.310 -0.12 0.53 -0.83 0.12
1 6.21 621 1.920 -8.524 3.884 26.672 2.289 -6.317 -1057.261 2311.194 -3255.279 -1.127 -0.364 0.169 -0.12 0.53 -0.83 0.11
1 6.22 622 2.490 -7.738 4.247 13.947 2.502 -5.463 -1102.232 2311.194 -3330.230 -1.681 -1.133 -0.162 -0.12 0.53 -0.83 0.11
1 6.23 623 2.907 -7.576 4.377 -26.245 14.526 -4.272 -1102.232 2311.194 -3330.230 -2.081 -1.287 -0.276 -0.12 0.53 -0.83 0.11
1 6.24 624 2.916 -8.308 4.075 -42.603 23.621 -7.660 -1132.212 2161.142 -3255.279 -2.077 -0.562 0.006 -0.12 0.53 -0.83 0.11
1 6.25 625 2.150 -9.486 3.979 -34.058 32.196 -12.665 -1117.222 2101.181 -3300.250 -1.286 0.574 0.004 -0.12 0.53 -0.83 0.11
1 6.26 626 1.523 -9.697 3.936 -16.815 36.530 -13.275 -1087.242 2251.083 -3375.351 -0.651 0.769 0.010 -0.12 0.53 -0.83 0.11
1 6.27 627 1.025 -9.352 3.802 -2.625 37.537 -13.611 -1087.242 2251.083 -3375.351 -0.150 0.418 0.130 -0.12 0.53 -0.83 0.1
1 6.28 628 0.680 -8.825 3.797 2.899 36.987 -13.245 -1177.183 2266.074 -3210.309 0.194 -0.107 0.138 -0.12 0.53 -0.83 0.1
1 6.29 629 0.431 -8.461 3.591 0.244 35.462 -12.116 -1012.141 2176.132 -3345.221 0.438 -0.468 0.352 -0.12 0.53 -0.83 0.1
1 6.30 630 0.340 -8.318 3.649 -6.836 30.396 -10.437 -1012.141 2176.132 -3345.221 0.523 -0.611 0.298 -0.11 0.53 -0.83 0.1
1 6.31 631 0.374 -8.414 3.706 -9.491 28.504 -8.820 -967.170 2296.204 -3240.289 0.483 -0.517 0.237 -0.11 0.53 -0.83 0.09
1 6.32 632 0.412 -8.519 3.453 -11.261 29.083 -6.165 -862.238 2326.185 -3240.289 0.430 -0.421 0.474 -0.11 0.54 -0.83 0.09
1 6.33 633 0.374 -8.591 3.563 -10.803 29.450 -5.310 -952.180 2386.146 -3510.263 0.456 -0.355 0.352 -0.11 0.54 -0.83 0.09
1 6.34 634 0.297 -8.471 3.438 -8.637 27.771 -1.404 -952.180 2386.146 -3510.263 0.517 -0.480 0.468 -0.11 0.54 -0.83 0.09
1 6.35 635 0.464 -8.437 3.491 -7.721 26.032 0.092 -892.219 2251.083 -3375.351 0.331 -0.519 0.406 -0.1 0.54 -0.83 0.09
1 6.36 636 0.479 -8.615 3.462 -7.935 23.743 0.916 -967.170 2251.083 -3420.322 0.300 -0.347 0.428 -0.1 0.54 -0.83 0.08
1 6.37 637 1.197 -8.720 3.491 -7.507 22.247 1.892 -967.170 2251.083 -3420.322 -0.435 -0.246 0.390 -0.1 0.54 -0.83 0.08
1 6.38 638 1.504 -8.883 3.544 -5.341 23.407 2.625 -922.199 2341.175 -3330.230 -0.754 -0.088 0.330 -0.1 0.54 -0.83 0.08
1 6.39 639 1.848 -8.859 3.563 -3.052 26.337 4.395 -862.238 2131.162 -3300.250 -1.112 -0.116 0.304 -0.1 0.54 -0.83 0.08
1 6.40 640 1.954 -8.907 3.338 0.854 31.952 7.904 -877.229 2341.175 -3330.230 -1.247 -0.071 0.528 -0.1 0.54 -0.83 0.08
1 6.41 641 1.896 -8.801 3.472 -2.014 35.889 9.186 -877.229 2341.175 -3330.230 -1.209 -0.177 0.396 -0.09 0.54 -0.83 0.08
1 6.42 642 1.657 -8.979 3.453 -4.272 40.833 9.277 -847.248 2266.074 -3360.361 -0.994 -0.002 0.414 -0.09 0.54 -0.83 0.08
1 6.43 643 1.475 -9.132 3.429 -4.364 45.654 9.552 -982.160 2266.074 -3435.312 -0.841 0.148 0.434 -0.09 0.54 -0.83 0.08
1 6.44 644 1.087 -9.601 3.663 -0.183 44.800 8.392 -982.160 2266.074 -3435.312 -0.486 0.613 0.196 -0.09 0.54 -0.83 0.08
1 6.45 645 0.881 -9.505 3.812 5.524 41.443 7.782 -847.248 2341.175 -3435.312 -0.313 0.515 0.047 -0.08 0.54 -0.83 0.07
1 6.46 646 0.833 -9.194 3.764 9.979 39.246 6.592 -652.225 2161.142 -3405.332 -0.296 0.205 0.103 -0.08 0.54 -0.83 0.07
1 6.47 647 0.589 -9.017 3.749 8.057 38.391 4.089 -608.903 2322.437 -3379.698 -0.109 0.038 0.148 -0.07 0.54 -0.83 0.07
1 6.48 648 0.192 -8.993 3.716 1.984 36.865 1.312 -608.903 2322.437 -3379.698 0.263 0.018 0.193 -0.07 0.54 -0.83 0.07
1 6.49 649 0.105 -9.352 3.591 -4.242 32.868 -1.953 -698.845 2307.447 -3289.757 0.327 0.377 0.320 -0.07 0.54 -0.83 0.07
1 6.50 650 0.029 -9.745 3.615 -4.242 27.649 -6.653 -608.903 2322.437 -3349.718 0.388 0.766 0.289 -0.07 0.54 -0.83 0.07
1 6.51 651 -0.101 -9.850 3.654 0.580 24.139 -9.155 -608.903 2322.437 -3349.718 0.509 0.869 0.246 -0.07 0.54 -0.83 0.06
1 6.52 652 -0.086 -9.927 3.654 10.925 21.179 -11.627 -683.854 2292.457 -3529.750 0.491 0.946 0.248 -0.07 0.54 -0.83 0.06
1 6.53 653 0.019 -9.888 3.826 13.336 17.700 -11.963 -563.933 2322.437 -3349.718 0.385 0.913 0.087 -0.06 0.54 -0.83 0.06
1 6.54 654 0.072 -10.157 3.673 14.191 12.238 -10.925 -728.825 2307.447 -3469.790 0.339 1.196 0.274 -0.06 0.54 -0.84 0.06
1 6.55 655 0.436 -10.305 3.563 16.266 8.148 -9.766 -728.825 2307.447 -3469.790 -0.018 1.353 0.404 -0.06 0.54 -0.84 0.06
1 6.56 656 0.646 -10.334 3.534 20.111 8.209 -8.606 -533.802 2247.486 -3559.731 -0.220 1.392 0.454 -0.06 0.54 -0.84 0.06
1 6.57 657 0.867 -10.233 3.505 24.475 9.857 -6.500 -473.841 2232.496 -3334.728 -0.434 1.305 0.513 -0.06 0.54 -0.84 0.06
1 6.58 658 1.144 -9.946 3.453 25.086 9.430 -5.737 -473.841 2232.496 -3334.728 -0.709 1.035 0.602 -0.06 0.54 -0.84 0.06
1 6.59 659 1.135 -9.979 3.381 18.066 7.233 -6.348 -563.933 2292.457 -3424.669 -0.692 1.081 0.701 -0.06 0.54 -0.84 0.05
1 6.60 660 0.948 -10.315 3.089 11.231 4.150 -8.575 -593.913 2232.496 -3469.790 -0.496 1.426 1.014 -0.06 0.54 -0.84 0.05
1 6.61 661 0.963 -10.310 2.907 8.575 2.258 -9.308 -593.913 2232.496 -3469.790 -0.500 1.429 1.211 -0.06 0.53 -0.84 0.05
1 6.62 662 0.771 -9.960 3.879 13.336 -1.251 -13.031 -563.933 2097.434 -3604.702 -0.280 1.092 0.263 -0.06 0.53 -0.84 0.05
1 6.63 663 0.302 -9.845 4.932 7.599 -10.345 -17.059 -443.861 2187.525 -3589.711 0.212 0.984 -0.779 -0.06 0.53 -0.84 0.05
1 6.64 664 0.350 -10.880 5.349 -22.064 -26.032 -28.656 -623.894 2112.424 -3439.659 0.201 2.021 -1.193 -0.06 0.53 -0.84 0.05
1 6.65 665 0.867 -11.789 5.243 -48.828 -30.701 -32.471 -623.894 2112.424 -3439.659 -0.256 2.915 -1.132 -0.07 0.53 -0.84 0.05
1 6.66 666 0.843 -11.430 5.119 -33.692 -25.452 -30.182 -398.890 2232.496 -3334.728 -0.169 2.530 -1.073 -0.07 0.54 -0.84 0.05
1 6.67 667 -0.158 -11.215 4.875 -9.674 -17.731 -30.518 -638.884 2172.535 -3499.770 0.888 2.301 -0.868 -0.07 0.54 -0.84 0.05
1 6.68 668 -0.215 -11.588 4.439 -24.048 -25.086 -31.952 -638.884 2172.535 -3499.770 0.998 2.672 -0.448 -0.08 0.54 -0.84 0.04
1 6.69 669 1.020 -11.033 4.310 -26.184 -41.992 -22.797 -713.835 2217.505 -3559.731 -0.118 2.094 -0.395 -0.08 0.54 -0.84 0.04
1 6.70 670 1.456 -9.951 4.578 -6.683 -34.149 -16.022 -533.802 2247.486 -3424.669 -0.499 1.003 -0.697 -0.09 0.54 -0.83 0.04
1 6.71 671 1.523 -9.103 4.765 2.197 -20.569 -6.012 -773.796 2337.427 -3544.741 -0.527 0.156 -0.892 -0.09 0.54 -0.83 0.04
1 6.72 672 1.384 -8.193 4.765 -7.935 -14.252 0.336 -773.796 2337.427 -3544.741 -0.368 -0.750 -0.888 -0.09 0.54 -0.83 0.04
1 6.73 673 1.360 -7.571 5.062 -26.093 -15.839 3.174 -818.917 2247.486 -3424.669 -0.333 -1.376 -1.195 -0.09 0.54 -0.83 0.04
1 6.74 674 1.547 -7.686 5.507 -49.835 -20.599 0.519 -818.917 2367.408 -3559.731 -0.510 -1.274 -1.675 -0.09 0.54 -0.83 0.04
1 6.75 675 1.528 -8.121 5.689 -49.225 -18.311 0.061 -818.917 2367.408 -3559.731 -0.476 -0.860 -1.910 -0.09 0.55 -0.83 0.04
1 6.76 676 1.647 -8.088 5.837 -25.543 -7.996 -2.563 -848.897 2157.544 -3364.708 -0.567 -0.930 -2.156 -0.1 0.55 -0.83 0.04
1 6.77 677 1.595 -7.877 6.048 -14.710 -5.005 -3.906 -893.868 2367.408 -3349.718 -0.501 -1.144 -2.378 -0.1 0.55 -0.83 0.04
1 6.78 678 1.231 -7.231 6.172 14.160 10.101 -9.705 -803.926 2262.476 -3439.659 -0.125 -1.780 -2.482 -0.1 0.55 -0.83 0.04
1 6.79 679 1.068 -6.900 5.904 25.452 15.350 -16.083 -803.926 2262.476 -3439.659 0.049 -2.090 -2.166 -0.1 0.55 -0.83 0.04
1 6.80 680 0.757 -7.259 5.521 25.787 14.069 -20.599 -878.877 2427.519 -3409.679 0.377 -1.703 -1.723 -0.1 0.54 -0.83 0.04
1 6.81 681 0.666 -7.925 4.741 11.932 7.996 -20.783 -878.877 2382.398 -3364.708 0.489 -1.012 -0.889 -0.1 0.54 -0.83 0.04
1 6.82 682 0.488 -8.619 4.803 4.150 8.545 -20.813 -878.877 2382.398 -3364.708 0.688 -0.300 -0.917 -0.1 0.54 -0.83 0.04
1 6.83 683 0.158 -9.280 4.798 4.761 10.040 -20.905 -863.887 2442.509 -3499.770 1.040 0.372 -0.893 -0.1 0.54 -0.84 0.04
1 6.84 684 0.728 -9.735 5.071 13.825 -0.824 -19.653 -863.887 2442.509 -3529.750 0.504 0.847 -1.131 -0.1 0.54 -0.84 0.03
1 6.85 685 1.441 -9.951 5.215 13.855 0.580 -12.573 -863.887 2442.509 -3349.718 -0.183 1.076 -1.254 -0.1 0.54 -0.84 0.03
1 6.86 686 2.040 -9.596 4.918 8.179 9.003 -4.456 -863.887 2442.509 -3349.718 -0.768 0.732 -0.938 -0.1 0.54 -0.84 0.03
1 6.87 687 2.179 -9.309 5.023 2.655 14.343 3.632 -773.796 2307.447 -3514.760 -0.910 0.449 -1.032 -0.1 0.54 -0.84 0.03
1 6.88 688 1.724 -9.199 4.966 5.524 24.170 7.660 -1028.930 2262.476 -3544.741 -0.470 0.340 -0.967 -0.1 0.54 -0.84 0.03
1 6.89 689 0.972 -8.916 4.942 15.289 29.755 5.432 -1028.930 2262.476 -3544.741 0.264 0.063 -0.926 -0.09 0.53 -0.84 0.03
1 6.90 690 0.508 -8.663 4.784 24.292 32.379 3.571 -728.825 2232.496 -3589.711 0.704 -0.181 -0.739 -0.09 0.53 -0.84 0.03
1 6.91 691 -0.196 -8.725 4.664 23.773 29.389 1.404 -758.806 2397.538 -3634.682 1.351 -0.086 -0.531 -0.09 0.53 -0.84 0.03
1 6.92 692 -0.579 -8.730 4.434 18.372 24.414 0.336 -758.806 2367.408 -3634.682 1.706 -0.066 -0.262 -0.08 0.53 -0.84 0.03
1 6.93 693 -0.618 -8.720 4.176 21.332 17.304 2.502 -758.806 2367.408 -3634.682 1.718 -0.063 0.030 -0.08 0.53 -0.84 0.03
1 6.94 694 -0.498 -8.308 4.003 27.618 11.780 4.639 -788.936 2397.538 -3529.750 1.571 -0.461 0.237 -0.08 0.53 -0.85 0.03
1 6.95 695 -0.077 -7.863 3.845 24.933 10.162 8.911 -773.796 2187.525 -3589.711 1.125 -0.890 0.436 -0.08 0.52 -0.85 0.03
1 6.96 696 0.249 -7.667 3.505 16.388 8.728 12.787 -773.796 2187.525 -3589.711 0.773 -1.071 0.814 -0.08 0.52 -0.85 0.03
1 6.97 697 0.560 -7.796 3.256 5.890 7.355 17.548 -803.926 2307.447 -3649.672 0.440 -0.930 1.090 -0.08 0.52 -0.85 0.03
1 6.98 698 0.752 -7.987 2.907 -1.862 9.247 21.729 -758.806 2172.535 -3709.783 0.191 -0.737 1.457 -0.07 0.52 -0.85 0.03
1 6.99 699 0.675 -8.131 2.993 -4.303 12.238 23.071 -728.825 2337.427 -3619.692 0.231 -0.598 1.370 -0.07 0.52 -0.85 0.03
1 7.00 700 0.148 -8.773 2.782 -8.575 16.632 23.438 -728.825 2337.427 -3619.692 0.714 0.035 1.570 -0.07 0.52 -0.85 0.03
1 7.01 701 -0.350 -8.801 2.897 -5.035 15.289 22.949 -608.903 2172.535 -3604.702 1.167 0.051 1.439 -0.07 0.52 -0.85 0.03
1 7.02 702 -0.747 -8.639 2.854 0.916 11.566 21.790 -653.874 2187.525 -3544.741 1.518 -0.121 1.471 -0.07 0.52 -0.85 0.03
1 7.03 703 -1.240 -8.327 2.806 3.693 4.974 18.951 -653.874 2187.525 -3544.741 1.966 -0.439 1.515 -0.07 0.52 -0.85 0.04
1 7.04 704 -1.341 -8.088 2.729 -0.458 -0.946 18.463 -683.854 2247.486 -3604.702 2.025 -0.682 1.590 -0.06 0.52 -0.85 0.04
1 7.05 705 -1.451 -8.050 2.615 -6.592 -9.094 18.250 -683.854 2247.486 -3604.702 2.104 -0.724 1.703 -0.06 0.53 -0.85 0.04
1 7.06 706 -1.159 -8.035 2.519 -11.719 -20.813 17.853 -713.835 2322.437 -3679.803 1.779 -0.750 1.779 -0.06 0.53 -0.85 0.04
1 7.07 707 -1.034 -8.174 2.701 -12.146 -24.719 18.738 -713.835 2322.437 -3679.803 1.646 -0.620 1.580 -0.06 0.53 -0.85 0.04
1 7.08 708 -0.943 -8.505 2.998 -13.245 -26.672 19.684 -533.802 2292.457 -3499.770 1.546 -0.300 1.264 -0.06 0.53 -0.85 0.05
1 7.09 709 -0.924 -8.821 2.931 -13.641 -29.877 19.165 -713.835 2172.535 -3784.734 1.513 0.004 1.308 -0.07 0.53 -0.84 0.05
1 7.10 710 -0.924 -9.103 2.916 -10.742 -37.415 15.289 -713.835 2172.535 -3784.734 1.498 0.273 1.296 -0.07 0.53 -0.84 0.05
1 7.11 711 -0.532 -9.084 3.362 -0.916 -48.004 7.385 -608.903 2292.457 -3499.770 1.102 0.243 0.827 -0.07 0.53 -0.84 0.05
1 7.12 712 -0.235 -9.141 5.531 1.862 -47.638 2.197 -608.903 2292.457 -3499.770 0.814 0.294 -1.356 -0.07 0.53 -0.84 0.06
1 7.13 713 0.584 -10.271 10.559 -11.139 -22.492 2.777 -653.874 2262.476 -3589.711 0.036 1.424 -6.390 -0.08 0.53 -0.84 0.06
1 7.14 714 0.838 -14.222 9.113 -50.995 -12.939 19.592 -653.874 2262.476 -3589.711 -0.214 5.362 -4.971 -0.08 0.53 -0.84 0.06
1 7.15 715 0.752 -14.481 6.115 -44.251 -39.063 27.222 -803.926 2232.496 -3694.793 -0.148 5.583 -2.051 -0.08 0.54 -0.84 0.06
1 7.16 716 2.303 -12.192 5.440 46.631 -54.749 18.311 -608.903 2367.408 -3559.731 -1.705 3.278 -1.411 -0.08 0.54 -0.84 0.07
1 7.17 717 2.739 -9.146 6.110 90.607 -50.446 18.860 -608.903 2367.408 -3559.731 -2.131 0.271 -1.999 -0.08 0.53 -0.84 0.07
1 7.18 718 2.308 -7.566 6.536 -4.578 -32.501 27.435 -773.796 2307.447 -3649.672 -1.696 -1.257 -2.316 -0.08 0.53 -0.84 0.07
1 7.19 719 1.824 -8.452 5.234 -76.325 -37.567 21.301 -773.796 2307.447 -3649.672 -1.217 -0.356 -0.981 -0.08 0.53 -0.84 0.08
1 7.20 720 0.192 -10.813 4.386 -60.364 -32.806 2.838 -758.806 2217.505 -3634.682 0.438 1.920 -0.316 -0.09 0.53 -0.84 0.08
1 7.21 721 -0.431 -11.019 4.405 -8.637 -31.738 0.702 -758.806 2217.505 -3634.682 1.079 2.097 -0.402 -0.09 0.54 -0.84 0.08
1 7.22 722 -1.063 -9.999 4.803 17.883 -43.152 -2.197 -1013.939 2292.457 -3559.731 1.732 1.078 -0.801 -0.09 0.54 -0.84 0.08
1 7.23 723 -0.512 -8.979 4.722 12.939 -57.709 -7.355 -863.887 2292.457 -3679.803 1.216 0.070 -0.699 -0.1 0.53 -0.84 0.08
1 7.24 724 0.249 -8.256 4.597 3.540 -62.714 -8.820 -863.887 2292.457 -3679.803 0.492 -0.644 -0.562 -0.1 0.53 -0.84 0.09
1 7.25 725 0.867 -7.518 4.156 11.322 -56.366 -4.761 -863.887 2547.440 -3559.731 -0.080 -1.376 -0.118 -0.1 0.53 -0.84 0.09
1 7.26 726 1.168 -6.891 4.109 27.069 -49.256 -1.312 -863.887 2547.440 -3559.731 -0.337 -1.996 -0.062 -0.11 0.53 -0.84 0.09
1 7.27 727 1.551 -6.101 4.362 40.314 -41.809 1.617 -863.887 2172.535 -3559.731 -0.685 -2.771 -0.290 -0.11 0.53 -0.84 0.09
1 7.28 728 1.863 -5.138 4.769 38.147 -29.083 5.920 -923.848 2337.427 -3589.711 -0.951 -3.682 -0.597 -0.12 0.52 -0.84 0.1
1 7.29 729 1.978 -5.215 5.138 21.942 -18.494 9.583 -968.819 2517.460 -3559.731 -1.056 -3.584 -0.922 -0.12 0.52 -0.84 0.1
1 7.30 730 2.073 -5.804 5.191 -1.434 -6.378 15.411 -968.819 2367.408 -3679.803 -1.157 -2.985 -0.953 -0.12 0.52 -0.84 0.1
1 7.31 731 1.954 -6.819 4.808 -26.611 -2.777 19.592 -968.819 2367.408 -3679.803 -1.056 -1.977 -0.580 -0.12 0.52 -0.84 0.1
1 7.32 732 2.308 -8.672 3.793 -36.713 -11.261 19.135 -1130.713 2311.344 -3614.595 -1.434 -0.146 0.394 -0.12 0.52 -0.84 0.1
1 7.33 733 2.859 -9.247 3.836 -16.357 -16.724 17.822 -1130.713 2311.344 -3614.595 -1.995 0.406 0.303 -0.12 0.52 -0.84 0.1
1 7.34 734 3.323 -8.557 4.142 14.465 -14.526 18.341 -1055.762 2236.243 -3539.494 -2.462 -0.300 -0.037 -0.12 0.53 -0.84 0.1
1 7.35 735 3.338 -7.106 4.592 29.266 -3.784 21.545 -1040.772 2296.204 -3704.537 -2.475 -1.730 -0.443 -0.12 0.52 -0.84 0.11
1 7.36 736 2.888 -6.216 4.611 10.407 3.601 18.799 -935.690 2221.253 -3599.605 -2.032 -2.602 -0.421 -0.12 0.52 -0.84 0.11
1 7.37 737 2.294 -6.532 4.405 -18.829 11.414 13.702 -1085.743 2176.282 -3554.484 -1.465 -2.286 -0.210 -0.12 0.52 -0.84 0.11
1 7.38 738 1.801 -7.681 4.089 -34.760 17.334 11.688 -1085.743 2176.282 -3554.484 -0.996 -1.153 0.076 -0.12 0.52 -0.84 0.11
1 7.39 739 1.499 -8.873 4.032 -31.860 20.966 8.698 -1085.743 2371.305 -3629.585 -0.717 0.017 0.090 -0.12 0.53 -0.84 0.11
1 7.40 740 0.996 -9.932 4.022 -9.583 15.595 7.629 -1085.743 2371.305 -3629.585 -0.231 1.057 0.064 -0.11 0.53 -0.83 0.11
1 7.41 741 0.752 -9.668 4.080 3.723 10.284 6.744 -1040.772 2401.286 -3524.504 -0.005 0.784 -0.012 -0.11 0.53 -0.83 0.11
1 7.42 742 1.326 -8.505 4.027 12.360 2.716 4.822 -1040.772 2521.208 -3629.585 -0.604 -0.376 0.055 -0.11 0.53 -0.83 0.11
1 7.43 743 1.575 -8.270 4.042 9.308 0.549 3.387 -845.749 2431.266 -3539.494 -0.856 -0.602 0.058 -0.11 0.53 -0.84 0.11
1 7.44 744 1.662 -8.054 4.065 -1.862 2.411 4.425 -875.729 2341.325 -3539.494 -0.939 -0.812 0.046 -0.11 0.53 -0.84 0.11
1 7.45 745 1.580 -8.078 4.003 -15.411 5.188 4.608 -875.729 2341.325 -3539.494 -0.858 -0.790 0.104 -0.11 0.53 -0.84 0.11
1 7.46 746 1.470 -8.514 3.898 -26.459 4.852 1.587 -935.690 2326.334 -3599.605 -0.748 -0.365 0.187 -0.11 0.53 -0.84 0.11
1 7.47 747 1.116 -9.252 3.955 -27.283 4.700 -2.106 -935.690 2326.334 -3599.605 -0.391 0.357 0.094 -0.11 0.53 -0.83 0.1
1 7.48 748 0.910 -9.352 3.903 -18.433 6.866 -3.204 -1055.762 2506.217 -3509.514 -0.180 0.441 0.109 -0.11 0.53 -0.83 0.1
1 7.49 749 0.565 -9.280 3.984 -10.376 8.881 -2.838 -980.811 2431.266 -3584.615 0.168 0.356 -0.001 -0.11 0.53 -0.83 0.1
1 7.50 750 0.134 -9.295 3.797 -5.005 9.277 -1.801 -935.690 2446.256 -3599.605 0.597 0.360 0.163 -0.11 0.53 -0.83 0.1
1 7.51 751 0.187 -8.950 3.625 -4.395 6.104 -0.854 -935.690 2401.286 -3449.553 0.537 0.012 0.329 -0.11 0.53 -0.83 0.1
1 7.52 752 0.206 -8.892 3.572 -2.869 1.740 -0.488 -935.690 2401.286 -3449.553 0.513 -0.048 0.376 -0.11 0.54 -0.83 0.1
1 7.53 753 0.306 -8.552 3.687 -0.977 0.977 0.671 -1040.772 2446.256 -3674.556 0.409 -0.390 0.257 -0.11 0.54 -0.83 0.1
1 7.54 754 0.517 -8.327 3.749 -3.418 0.671 -0.244 -1040.772 2446.256 -3674.556 0.195 -0.616 0.194 -0.11 0.54 -0.83 0.1
1 7.55 755 0.876 -8.672 3.649 -7.599 0.397 -0.641 -1025.782 2506.217 -3539.494 -0.166 -0.273 0.291 -0.11 0.54 -0.83 0.1
1 7.56 756 1.068 -8.816 3.539 -8.514 1.892 -0.244 -935.690 2446.256 -3524.504 -0.357 -0.133 0.392 -0.11 0.54 -0.83 0.1
1 7.57 757 1.528 -9.050 3.366 -3.510 5.585 0.031 -1025.782 2431.266 -3614.595 -0.812 0.092 0.543 -0.11 0.54 -0.83 0.1
1 7.58 758 1.638 -9.055 3.275 1.617 8.453 0.793 -860.739 2401.286 -3629.585 -0.920 0.095 0.629 -0.11 0.54 -0.83 0.1
1 7.59 759 2.112 -8.892 3.409 6.195 11.810 -0.580 -860.739 2401.286 -3629.585 -1.392 -0.067 0.496 -0.11 0.54 -0.83 0.1
1 7.60 760 2.337 -9.003 3.529 10.376 15.198 -1.709 -1010.792 2476.237 -3674.556 -1.613 0.048 0.385 -0.11 0.54 -0.83 0.1
1 7.61 761 2.442 -9.089 3.668 10.376 21.668 -0.519 -1010.792 2476.237 -3674.556 -1.714 0.140 0.260 -0.11 0.54 -0.83 0.1
1 7.62 762 2.672 -9.410 3.826 10.376 31.586 1.129 -965.671 2371.305 -3599.605 -1.944 0.468 0.118 -0.11 0.54 -0.83 0.1
1 7.63 763 2.691 -9.462 3.788 12.177 37.964 3.510 -935.690 2296.204 -3629.585 -1.966 0.527 0.172 -0.11 0.54 -0.83 0.09
1 7.64 764 2.567 -9.347 3.941 17.761 43.152 6.744 -815.769 2401.286 -3599.605 -1.868 0.428 0.059 -0.1 0.53 -0.83 0.09
1 7.65 765 2.452 -9.184 3.845 22.797 44.495 7.294 -875.729 2386.295 -3614.595 -1.775 0.277 0.184 -0.1 0.53 -0.84 0.09
1 7.66 766 1.973 -8.682 3.936 24.750 46.387 8.026 -875.729 2386.295 -3614.595 -1.320 -0.212 0.128 -0.1 0.53 -0.84 0.09
1 7.67 767 1.657 -8.342 4.022 22.492 47.730 7.477 -815.769 2296.204 -3779.488 -1.033 -0.536 0.080 -0.09 0.53 -0.84 0.09
1 7.68 768 1.302 -8.054 3.884 17.120 45.929 5.554 -815.769 2296.204 -3779.488 -0.709 -0.810 0.254 -0.09 0.53 -0.84 0.08
1 7.69 769 0.977 -7.973 3.965 7.263 39.215 1.953 -708.139 2375.952 -3743.211 -0.412 -0.880 0.199 -0.09 0.53 -0.84 0.08
1 7.70 770 0.704 -8.050 4.070 1.007 33.386 -1.404 -918.152 2241.040 -3758.202 -0.163 -0.797 0.111 -0.08 0.53 -0.84 0.08
1 7.71 771 0.637 -8.399 4.228 -4.883 27.924 -4.120 -918.152 2241.040 -3758.202 -0.114 -0.444 -0.038 -0.08 0.53 -0.84 0.08
1 7.72 772 0.790 -9.161 4.238 -11.536 24.506 -7.294 -633.188 2406.083 -3743.211 -0.284 0.312 -0.056 -0.08 0.53 -0.84 0.08
1 7.73 773 0.599 -9.587 4.219 -11.139 25.208 -8.362 -633.188 2406.083 -3743.211 -0.096 0.732 -0.050 -0.08 0.53 -0.84 0.07
1 7.74 774 0.560 -10.008 3.884 -5.920 25.360 -8.606 -618.197 2390.942 -3758.202 -0.061 1.147 0.273 -0.08 0.53 -0.84 0.07
1 7.75 775 0.493 -10.113 3.773 1.709 27.100 -8.270 -618.197 2390.942 -3758.202 0.002 1.249 0.376 -0.07 0.53 -0.84 0.07
1 7.76 776 0.239 -10.185 3.606 9.796 27.161 -7.965 -438.165 2241.040 -3713.231 0.250 1.323 0.548 -0.07 0.53 -0.84 0.07
1 7.77 777 0.292 -10.386 3.486 10.010 25.024 -8.209 -513.266 2390.942 -3638.130 0.192 1.528 0.677 -0.07 0.53 -0.84 0.07
1 7.78 778 0.292 -10.482 3.429 8.789 21.240 -8.209 -513.266 2390.942 -3638.130 0.186 1.629 0.748 -0.07 0.53 -0.84 0.07
1 7.79 779 0.627 -10.602 3.189 9.949 15.595 -8.331 -603.207 2301.001 -3743.211 -0.151 1.763 1.015 -0.07 0.53 -0.84 0.06
1 7.80 780 0.560 -10.511 2.978 11.993 14.374 -8.637 -603.207 2301.001 -3743.211 -0.081 1.679 1.242 -0.07 0.53 -0.84 0.06
1 7.81 781 0.819 -10.224 2.710 15.106 14.130 -7.477 -558.236 2256.030 -3848.143 -0.336 1.402 1.530 -0.07 0.53 -0.84 0.06
1 7.82 782 0.718 -10.056 2.888 14.130 12.817 -8.118 -558.236 2256.030 -3848.143 -0.232 1.239 1.363 -0.07 0.53 -0.84 0.06
1 7.83 783 0.843 -9.869 3.271 6.134 9.705 -8.942 -528.256 2256.030 -3803.172 -0.351 1.055 0.986 -0.07 0.53 -0.84 0.06
1 7.84 784 0.431 -10.391 5.133 -14.069 -0.549 -13.397 -528.256 2330.981 -3698.091 0.071 1.576 -0.881 -0.07 0.53 -0.84 0.06
1 7.85 785 0.484 -11.756 5.100 -36.347 -11.932 -24.506 -528.256 2330.981 -3698.091 0.034 2.935 -0.861 -0.07 0.53 -0.84 0.06
1 7.86 786 0.742 -11.564 4.985 -18.921 -11.047 -25.665 -543.246 2315.991 -3863.133 -0.142 2.703 -0.842 -0.07 0.53 -0.84 0.05
1 7.87 787 0.350 -10.990 4.990 12.817 -8.392 -25.879 -543.246 2315.991 -3863.133 0.292 2.126 -0.859 -0.07 0.53 -0.84 0.05
1 7.88 788 -0.278 -10.171 4.927 -4.639 -15.350 -29.419 -468.145 2315.991 -3863.133 0.963 1.318 -0.782 -0.07 0.53 -0.84 0.05
1 7.89 789 0.153 -10.013 4.602 -40.558 -25.879 -26.123 -468.145 2315.991 -3863.133 0.584 1.154 -0.477 -0.07 0.53 -0.84 0.05
1 7.90 790 0.905 -10.109 4.362 -49.317 -30.335 -20.477 -603.207 2375.952 -3773.192 -0.117 1.225 -0.300 -0.08 0.54 -0.84 0.05
1 7.91 791 1.331 -10.209 4.401 -35.828 -18.189 -8.057 -693.148 2390.942 -3758.202 -0.498 1.299 -0.407 -0.08 0.54 -0.84 0.05
1 7.92 792 1.197 -9.544 4.506 -24.933 -10.559 -0.458 -693.148 2390.942 -3758.202 -0.335 0.611 -0.568 -0.08 0.54 -0.84 0.05
1 7.93 793 1.125 -8.811 4.956 -20.203 -9.491 0.702 -588.217 2436.063 -3758.202 -0.253 -0.137 -1.056 -0.08 0.54 -0.83 0.05
1 7.94 794 1.322 -8.193 5.449 -30.853 -14.099 -4.395 -618.197 2466.043 -3758.202 -0.431 -0.774 -1.598 -0.08 0.54 -0.83 0.05
1 7.95 795 1.446 -7.997 5.689 -39.368 -15.320 -7.324 -633.188 2330.981 -3668.110 -0.536 -0.983 -1.872 -0.09 0.55 -0.83 0.05
1 7.96 796 1.393 -7.777 5.727 -36.499 -7.599 -8.392 -633.188 2330.981 -3668.110 -0.461 -1.219 -1.952 -0.09 0.55 -0.83 0.04
1 7.97 797 1.039 -7.858 5.842 -20.783 6.317 -7.477 -678.158 2330.981 -3743.211 -0.088 -1.148 -2.096 -0.09 0.55 -0.83 0.04
1 7.98 798 0.646 -7.681 6.096 3.113 19.470 -10.407 -648.178 2540.995 -3713.231 0.312 -1.326 -2.354 -0.09 0.55 -0.83 0.04
1 7.99 799 -0.158 -7.288 5.856 12.238 20.935 -16.388 -648.178 2540.995 -3713.231 1.119 -1.709 -2.094 -0.09 0.55 -0.83 0.04
1 8.00 800 -0.393 -7.461 5.215 13.641 15.961 -20.630 -693.148 2466.043 -3713.231 1.358 -1.521 -1.414 -0.09 0.55 -0.83 0.04
1 8.01 801 -0.709 -8.203 4.559 5.005 10.895 -20.844 -543.246 2511.014 -3833.153 1.697 -0.746 -0.689 -0.08 0.54 -0.83 0.04
1 8.02 802 -1.010 -8.811 4.358 0.793 10.132 -19.959 -768.250 2585.965 -3683.101 2.010 -0.130 -0.472 -0.08 0.54 -0.83 0.03
1 8.03 803 -1.178 -9.156 4.247 1.923 5.402 -17.578 -768.250 2585.965 -3683.101 2.185 0.219 -0.354 -0.08 0.54 -0.84 0.03
1 8.04 804 -1.245 -9.539 4.554 7.568 -4.211 -15.869 -633.188 2481.034 -3743.211 2.258 0.607 -0.652 -0.08 0.54 -0.84 0.03
1 8.05 805 -0.383 -9.697 5.028 13.275 -11.444 -12.299 -693.148 2466.043 -3713.231 1.403 0.772 -1.110 -0.08 0.54 -0.84 0.03
1 8.06 806 0.929 -9.821 5.038 9.155 -8.179 -0.824 -693.148 2466.043 -3713.231 0.112 0.907 -1.101 -0.08 0.54 -0.84 0.03
1 8.07 807 1.250 -9.716 4.722 3.479 -6.287 6.928 -693.148 2466.043 -3833.153 -0.198 0.810 -0.771 -0.08 0.54 -0.84 0.03
1 8.08 808 1.427 -9.098 4.597 7.111 -0.641 15.686 -723.279 2540.995 -3713.231 -0.391 0.196 -0.632 -0.08 0.54 -0.84 0.03
1 8.09 809 1.283 -9.113 4.669 15.656 4.211 16.846 -783.240 2526.004 -3803.172 -0.266 0.216 -0.687 -0.08 0.54 -0.84 0.03
1 8.10 810 0.445 -8.849 4.765 21.881 9.155 14.374 -783.240 2526.004 -3803.172 0.548 -0.037 -0.753 -0.08 0.54 -0.84 0.03
1 8.11 811 -0.077 -8.600 4.602 24.597 9.766 11.017 -678.158 2406.083 -3773.192 1.043 -0.271 -0.552 -0.08 0.54 -0.84 0.03
1 8.12 812 -0.608 -8.667 4.664 24.414 7.721 9.003 -768.250 2436.063 -3788.182 1.548 -0.188 -0.573 -0.08 0.53 -0.84 0.04
1 8.13 813 -0.862 -8.528 4.310 21.423 2.350 6.744 -768.250 2436.063 -3788.182 1.777 -0.312 -0.180 -0.08 0.53 -0.84 0.04
1 8.14 814 -0.781 -8.471 4.276 23.071 -1.251 8.148 -633.188 2406.083 -3803.172 1.673 -0.355 -0.111 -0.08 0.53 -0.84 0.04
1 8.15 815 -0.718 -8.461 4.291 23.560 -4.242 10.498 -678.158 2555.985 -3698.091 1.587 -0.351 -0.091 -0.08 0.53 -0.84 0.04
1 8.16 816 -0.354 -8.136 4.195 18.494 -8.087 14.740 -753.259 2481.034 -3803.172 1.178 -0.650 0.069 -0.07 0.53 -0.85 0.04
1 8.17 817 -0.311 -8.212 3.869 13.886 -8.545 16.388 -753.259 2481.034 -3803.172 1.112 -0.563 0.419 -0.07 0.53 -0.85 0.04
1 8.18 818 -0.062 -8.294 3.931 9.003 -9.522 19.714 -633.188 2256.030 -3923.094 0.838 -0.476 0.374 -0.07 0.52 -0.85 0.04
1 8.19 819 -0.043 -8.452 3.845 4.425 -10.040 22.888 -693.148 2345.972 -3788.182 0.792 -0.315 0.470 -0.07 0.52 -0.85 0.05
1 8.20 820 -0.115 -8.696 3.735 5.768 -9.277 24.231 -693.148 2345.972 -3788.182 0.835 -0.071 0.584 -0.07 0.52 -0.85 0.05
1 8.21 821 -0.201 -8.634 3.673 8.484 -10.223 24.689 -723.279 2271.021 -3968.215 0.890 -0.134 0.650 -0.07 0.52 -0.85 0.05
1 8.22 822 -0.364 -8.481 3.572 9.277 -12.299 24.841 -708.139 2375.952 -3773.192 1.021 -0.286 0.758 -0.07 0.52 -0.85 0.05
1 8.23 823 -0.412 -8.452 3.524 4.669 -15.045 25.482 -603.207 2451.053 -3923.094 1.007 -0.312 0.820 -0.07 0.52 -0.85 0.06
1 8.24 824 -0.555 -8.294 3.371 1.892 -16.998 25.086 -603.207 2451.053 -3923.094 1.121 -0.472 0.974 -0.07 0.52 -0.85 0.06
1 8.25 825 -0.546 -8.117 3.261 1.465 -22.095 23.987 -693.148 2315.991 -3938.084 1.083 -0.652 1.082 -0.07 0.52 -0.85 0.06
1 8.26 826 -0.330 -7.963 3.146 0.671 -26.520 23.438 -708.139 2330.981 -3953.225 0.852 -0.806 1.197 -0.07 0.52 -0.85 0.06
1 8.27 827 -0.153 -8.169 2.988 -2.533 -28.992 23.590 -708.139 2330.981 -3953.225 0.662 -0.602 1.354 -0.07 0.52 -0.85 0.07
1 8.28 828 -0.081 -8.509 2.868 -8.911 -32.227 23.926 -813.220 2375.952 -3848.143 0.578 -0.265 1.467 -0.07 0.52 -0.85 0.07
1 8.29 829 0.206 -8.835 2.983 -9.033 -36.469 21.088 -558.236 2406.083 -3953.225 0.278 0.052 1.337 -0.07 0.52 -0.85 0.07
1 8.30 830 0.378 -8.883 3.170 -1.099 -41.077 18.463 -753.259 2375.952 -4058.156 0.096 0.080 1.110 -0.08 0.53 -0.84 0.08
1 8.31 831 0.579 -8.667 3.366 5.798 -41.016 14.740 -753.259 2375.952 -4058.156 -0.102 -0.140 0.906 -0.08 0.53 -0.84 0.08
1 8.32 832 0.618 -8.318 3.318 10.345 -41.321 10.529 -678.158 2375.952 -3878.124 -0.131 -0.488 0.955 -0.08 0.52 -0.84 0.08
1 8.33 833 0.546 -8.150 3.232 11.322 -42.877 5.341 -768.250 2390.942 -4013.186 -0.042 -0.651 1.049 -0.08 0.52 -0.84 0.08
1 8.34 834 0.565 -8.006 3.285 8.148 -45.227 0.641 -768.250 2390.942 -4013.186 -0.036 -0.788 1.006 -0.09 0.52 -0.84 0.09
1 8.35 835 0.776 -8.279 7.025 -6.134 -40.863 -5.920 -843.201 2540.995 -3833.153 -0.215 -0.510 -2.727 -0.09 0.52 -0.84 0.09
1 8.36 836 1.743 -10.468 9.912 -21.027 -22.369 -2.014 -708.139 2600.956 -3953.225 -1.147 1.679 -5.618 -0.09 0.52 -0.84 0.09
1 8.37 837 1.868 -13.786 8.160 -54.901 -12.360 9.796 -708.139 2600.956 -3953.225 -1.247 4.987 -3.890 -0.09 0.52 -0.84 0.09
1 8.38 838 1.815 -12.934 5.368 5.890 -31.799 3.204 -873.181 2390.942 -4013.186 -1.187 4.075 -1.225 -0.1 0.53 -0.84 0.09
1 8.39 839 2.016 -10.406 5.349 73.517 -26.459 4.364 -768.250 2511.014 -3863.133 -1.373 1.564 -1.172 -0.1 0.53 -0.84 0.09
1 8.40 840 1.192 -8.921 6.393 56.214 -24.780 6.683 -888.171 2406.083 -3878.124 -0.538 0.128 -2.116 -0.1 0.52 -0.84 0.09
1 8.41 841 1.293 -8.715 6.378 -19.898 -28.412 13.001 -888.171 2406.083 -3878.124 -0.633 -0.053 -2.052 -0.1 0.52 -0.84 0.1
1 8.42 842 0.790 -9.970 4.664 -64.667 -38.696 5.737 -888.171 2526.004 -3953.225 -0.127 1.177 -0.389 -0.1 0.52 -0.84 0.1
1 8.43 843 0.110 -10.645 4.329 -24.750 -34.729 1.038 -1023.233 2511.014 -3833.153 0.568 1.809 -0.146 -0.1 0.53 -0.84 0.1
1 8.44 844 -0.426 -9.711 4.396 15.717 -30.884 2.716 -1023.233 2511.014 -3833.153 1.126 0.852 -0.266 -0.11 0.53 -0.84 0.1
1 8.45 845 -0.503 -8.481 4.592 15.717 -40.741 0.275 -933.142 2481.034 -3923.094 1.230 -0.360 -0.425 -0.11 0.52 -0.84 0.1
1 8.46 846 -0.254 -7.853 4.377 -3.601 -50.141 -0.916 -1023.233 2511.014 -3893.114 0.999 -0.979 -0.196 -0.11 0.52 -0.84 0.1
1 8.47 847 0.306 -7.973 4.358 -12.207 -54.352 -1.770 -1098.185 2540.995 -3968.215 0.467 -0.862 -0.187 -0.11 0.52 -0.84 0.11
1 8.48 848 0.852 -7.920 4.214 -3.387 -50.263 -0.366 -1098.185 2540.995 -3968.215 -0.046 -0.919 -0.060 -0.12 0.52 -0.84 0.11
1 8.49 849 1.049 -7.441 4.013 16.480 -41.535 3.265 -1083.194 2481.034 -3953.225 -0.212 -1.395 0.142 -0.12 0.52 -0.84 0.11
1 8.50 850 1.283 -6.302 4.027 42.297 -30.548 8.453 -1158.146 2526.004 -3878.124 -0.426 -2.520 0.154 -0.12 0.52 -0.84 0.11
1 8.51 851 1.408 -5.665 4.109 41.107 -25.879 10.498 -1149.601 2534.699 -3864.932 -0.540 -3.132 0.123 -0.12 0.52 -0.84 0.11
1 8.52 852 1.801 -5.449 4.468 15.350 -16.968 13.977 -1269.673 2519.708 -3879.922 -0.928 -3.300 -0.141 -0.13 0.51 -0.84 0.12
1 8.53 853 1.796 -6.062 4.516 -9.766 -7.690 16.419 -1164.591 2474.738 -3699.890 -0.933 -2.683 -0.178 -0.13 0.51 -0.84 0.12
1 8.54 854 1.939 -7.441 4.401 -28.870 -2.655 19.104 -1239.692 2474.738 -3954.874 -1.095 -1.315 -0.083 -0.13 0.51 -0.84 0.12
1 8.55 855 2.097 -9.137 4.171 -37.109 -1.678 22.430 -1239.692 2474.738 -3954.874 -1.273 0.358 0.107 -0.13 0.52 -0.84 0.12
1 8.56 856 2.313 -10.430 3.893 -28.839 -4.700 22.217 -1269.673 2594.660 -3849.942 -1.507 1.626 0.336 -0.13 0.52 -0.84 0.12
1 8.57 857 2.605 -9.558 3.917 10.162 -4.211 20.142 -1164.591 2549.689 -3744.860 -1.825 0.737 0.281 -0.13 0.52 -0.84 0.12
1 8.58 858 2.720 -8.303 4.032 30.182 1.526 18.036 -1164.591 2549.689 -3744.860 -1.964 -0.518 0.170 -0.12 0.52 -0.84 0.13
1 8.59 859 2.222 -7.188 4.118 23.590 8.209 13.428 -1044.669 2474.738 -3849.942 -1.476 -1.618 0.118 -0.12 0.52 -0.84 0.13
1 8.60 860 1.408 -7.054 4.247 -13.092 16.327 5.188 -1164.591 2519.708 -3954.874 -0.690 -1.731 0.038 -0.12 0.52 -0.84 0.13
1 8.61 861 1.173 -7.829 3.907 -31.372 16.724 0.458 -1029.679 2489.728 -3789.981 -0.471 -0.967 0.355 -0.12 0.52 -0.84 0.13
1 8.62 862 1.053 -9.199 3.831 -35.004 12.756 -2.838 -1029.679 2489.728 -3789.981 -0.358 0.382 0.390 -0.12 0.52 -0.84 0.13
1 8.63 863 1.173 -9.807 3.936 -23.071 8.179 -6.928 -1149.601 2339.676 -3939.883 -0.476 0.969 0.240 -0.12 0.52 -0.84 0.12
1 8.64 864 1.671 -9.290 3.821 7.141 1.923 -10.742 -1104.630 2489.728 -3789.981 -0.964 0.440 0.329 -0.12 0.52 -0.83 0.12
1 8.65 865 2.006 -8.610 3.884 16.632 0.488 -13.397 -1104.630 2489.728 -3789.981 -1.282 -0.238 0.267 -0.12 0.52 -0.83 0.12
1 8.66 866 2.313 -8.380 3.979 9.766 2.991 -11.108 -924.598 2534.699 -3909.903 -1.562 -0.457 0.190 -0.12 0.52 -0.84 0.12
1 8.67 867 2.466 -8.169 3.840 -17.456 9.552 -8.270 -1119.621 2519.708 -3849.942 -1.670 -0.657 0.344 -0.12 0.52 -0.84 0.12
1 8.68 868 2.251 -8.591 4.037 -30.609 13.428 -9.003 -1074.650 2564.679 -3864.932 -1.436 -0.246 0.120 -0.12 0.52 -0.84 0.12
1 8.69 869 1.829 -8.888 4.037 -33.112 15.320 -10.712 -1074.650 2564.679 -3864.932 -0.998 0.033 0.079 -0.12 0.52 -0.83 0.11
1 8.70 870 1.504 -9.247 4.027 -25.238 18.768 -12.543 -1149.601 2339.676 -3969.864 -0.658 0.375 0.048 -0.12 0.53 -0.83 0.11
1 8.71 871 0.781 -9.180 3.759 -13.947 21.149 -11.719 -1119.621 2519.708 -3924.893 0.076 0.296 0.288 -0.12 0.53 -0.83 0.11
1 8.72 872 0.163 -8.816 3.668 -4.150 20.752 -8.850 -1119.621 2519.708 -3924.893 0.697 -0.074 0.365 -0.12 0.53 -0.83 0.11
1 8.73 873 0.182 -8.658 3.601 -3.693 14.893 -6.500 -1344.624 2549.689 -3924.893 0.675 -0.235 0.428 -0.12 0.53 -0.83 0.11
1 8.74 874 0.364 -8.380 3.601 -3.052 7.507 -0.427 -1044.669 2549.689 -4029.975 0.483 -0.517 0.420 -0.12 0.53 -0.83 0.11
1 8.75 875 0.546 -8.332 3.749 -3.479 7.446 1.038 -1149.601 2489.728 -3864.932 0.293 -0.567 0.268 -0.12 0.53 -0.83 0.1
1 8.76 876 0.814 -8.198 3.635 -5.951 7.172 3.479 -1149.601 2489.728 -3864.932 0.016 -0.704 0.379 -0.12 0.53 -0.83 0.1
1 8.77 877 0.915 -8.519 3.860 -9.430 8.606 5.310 -1179.731 2564.679 -3969.864 -0.094 -0.387 0.146 -0.12 0.53 -0.83 0.1
1 8.78 878 1.020 -8.452 3.812 -12.024 9.796 5.829 -1029.679 2609.650 -3939.883 -0.211 -0.461 0.182 -0.12 0.53 -0.83 0.1
1 8.79 879 1.312 -8.686 3.735 -7.935 12.543 7.263 -1029.679 2609.650 -3939.883 -0.515 -0.233 0.246 -0.12 0.53 -0.83 0.1
1 8.80 880 1.437 -8.883 3.749 -2.502 14.801 9.460 -924.598 2564.679 -3969.864 -0.652 -0.042 0.221 -0.11 0.53 -0.83 0.1
1 8.81 881 1.604 -8.653 3.759 0.946 17.731 10.223 -924.598 2564.679 -3969.864 -0.835 -0.275 0.208 -0.11 0.53 -0.83 0.1
1 8.82 882 1.724 -8.533 3.548 3.143 21.912 11.322 -954.728 2609.650 -3864.932 -0.992 -0.395 0.425 -0.11 0.53 -0.83 0.1
1 8.83 883 1.944 -8.346 3.448 3.601 25.299 11.169 -954.728 2609.650 -3864.932 -1.233 -0.581 0.532 -0.11 0.53 -0.83 0.1
1 8.84 884 1.676 -8.332 3.457 2.594 29.175 10.925 -1044.669 2519.708 -3879.922 -0.986 -0.594 0.529 -0.11 0.53 -0.83 0.1
1 8.85 885 1.642 -8.246 3.663 1.343 33.478 9.308 -909.607 2594.660 -3819.961 -0.976 -0.680 0.328 -0.1 0.53 -0.83 0.1
1 8.86 886 1.437 -8.404 3.611 -1.434 37.781 7.202 -909.607 2594.660 -3819.961 -0.795 -0.521 0.385 -0.1 0.53 -0.83 0.1
1 8.87 887 1.212 -8.629 3.596 -0.763 37.781 5.737 -999.699 2564.679 -3909.903 -0.595 -0.297 0.402 -0.1 0.53 -0.83 0.1
1 8.88 888 0.967 -9.003 3.558 0.153 37.323 4.456 -999.699 2564.679 -3909.903 -0.376 0.076 0.442 -0.1 0.54 -0.83 0.1
1 8.89 889 0.594 -9.208 3.668 0.763 34.577 0.549 -849.646 2609.650 -3969.864 -0.049 0.280 0.336 -0.09 0.54 -0.83 0.09
1 8.90 890 0.321 -9.304 3.682 2.502 31.616 -1.434 -849.646 2609.650 -3969.864 0.206 0.376 0.324 -0.09 0.54 -0.83 0.09
1 8.91 891 0.407 -9.285 3.807 4.028 27.588 -4.059 -864.637 2549.689 -3999.994 0.104 0.358 0.204 -0.09 0.54 -0.83 0.09
1 8.92 892 0.364 -9.208 3.951 5.554 23.712 -6.409 -774.695 2564.679 -3969.864 0.137 0.284 0.067 -0.09 0.54 -0.83 0.09
1 8.93 893 0.278 -9.237 3.711 4.486 20.142 -9.064 -774.695 2564.679 -3969.864 0.218 0.316 0.315 -0.09 0.54 -0.84 0.09
1 8.94 894 0.249 -9.309 3.812 1.282 17.395 -11.200 -804.676 2564.679 -3909.903 0.247 0.390 0.219 -0.09 0.54 -0.84 0.09
1 8.95 895 0.335 -9.438 3.769 0.916 15.198 -12.390 -804.676 2564.679 -3909.903 0.164 0.521 0.265 -0.08 0.54 -0.84 0.08
1 8.96 896 0.263 -9.323 3.692 0.977 10.345 -14.130 -789.686 2594.660 -4074.945 0.241 0.407 0.342 -0.08 0.54 -0.84 0.08
1 8.97 897 0.498 -9.529 3.740 -1.526 3.937 -14.984 -739.768 2661.666 -3823.859 0.033 0.613 0.293 -0.08 0.54 -0.84 0.08
1 8.98 898 0.699 -9.826 3.635 -2.472 3.021 -13.855 -799.729 2661.666 -3898.960 -0.150 0.909 0.393 -0.08 0.54 -0.84 0.08
1 8.99 899 0.781 -9.979 3.390 -1.678 4.181 -12.909 -784.739 2556.584 -4018.882 -0.214 1.060 0.631 -0.08 0.54 -0.84 0.08
1 9.00 900 0.776 -10.022 3.204 0.977 4.456 -13.153 -784.739 2556.584 -4018.882 -0.192 1.101 0.810 -0.08 0.54 -0.84 0.08
1 9.01 901 0.934 -10.295 3.060 2.106 3.845 -12.909 -784.739 2631.536 -3943.931 -0.334 1.373 0.949 -0.08 0.54 -0.84 0.08
1 9.02 902 1.269 -10.506 2.978 -0.031 3.174 -10.864 -784.739 2631.536 -3943.931 -0.652 1.585 1.030 -0.09 0.54 -0.84 0.07
1 9.03 903 1.437 -10.554 3.137 -1.160 3.906 -6.897 -784.739 2601.555 -4063.853 -0.804 1.633 0.869 -0.09 0.54 -0.84 0.07
1 9.04 904 1.326 -10.659 4.530 -8.698 5.890 -7.019 -874.680 2616.545 -4033.872 -0.679 1.738 -0.527 -0.09 0.54 -0.84 0.07
1 9.05 905 0.891 -11.588 5.081 -22.858 -2.747 -15.350 -799.729 2616.545 -4003.892 -0.233 2.661 -1.092 -0.09 0.54 -0.84 0.07
1 9.06 906 1.068 -12.575 5.205 -45.654 -11.078 -25.574 -799.729 2541.594 -3853.839 -0.381 3.632 -1.256 -0.09 0.54 -0.83 0.07
1 9.07 907 1.087 -11.919 4.889 -23.041 -11.871 -26.245 -799.729 2541.594 -3853.839 -0.357 2.953 -1.000 -0.09 0.54 -0.83 0.07
1 9.08 908 0.057 -10.611 5.502 9.583 -5.890 -29.511 -754.758 2751.607 -4063.853 0.715 1.642 -1.630 -0.09 0.54 -0.83 0.07
1 9.09 909 0.019 -10.841 5.358 -22.705 -12.573 -34.180 -754.758 2751.607 -4063.853 0.798 1.882 -1.473 -0.09 0.54 -0.83 0.06
1 9.10 910 0.661 -11.019 4.813 -49.683 -25.269 -33.264 -799.729 2496.624 -3898.960 0.208 2.056 -0.945 -0.09 0.54 -0.83 0.06
1 9.11 911 1.710 -10.568 4.291 -21.698 -22.644 -20.233 -919.801 2736.617 -3898.960 -0.724 1.565 -0.549 -0.1 0.55 -0.83 0.06
1 9.12 912 1.791 -9.343 4.190 1.892 -9.369 -9.735 -904.661 2751.607 -3838.849 -0.770 0.334 -0.470 -0.1 0.55 -0.83 0.06
1 9.13 913 1.551 -8.270 4.592 2.258 -1.740 -3.387 -1024.732 2766.598 -3928.940 -0.512 -0.735 -0.867 -0.1 0.55 -0.83 0.06
1 9.14 914 1.547 -7.724 5.100 -17.456 -1.923 -1.770 -1024.732 2766.598 -3928.940 -0.497 -1.278 -1.371 -0.1 0.55 -0.83 0.06
1 9.15 915 1.987 -7.920 5.301 -43.671 -5.371 -2.869 -904.661 2676.656 -3808.869 -0.928 -1.089 -1.593 -0.1 0.55 -0.83 0.06
1 9.16 916 2.059 -8.830 5.172 -59.052 -0.732 -2.502 -904.661 2676.656 -3808.869 -0.985 -0.200 -1.518 -0.1 0.55 -0.83 0.06
1 9.17 917 1.920 -9.017 4.961 -40.863 6.989 -0.153 -904.661 2601.555 -3838.849 -0.834 -0.039 -1.377 -0.1 0.55 -0.82 0.06
1 9.18 918 1.398 -8.150 5.181 0.458 14.587 -1.099 -1099.684 2811.568 -3928.940 -0.305 -0.931 -1.664 -0.1 0.56 -0.82 0.05
1 9.19 919 1.025 -7.528 5.454 13.855 17.609 -2.441 -919.801 2766.598 -3643.826 0.066 -1.545 -1.914 -0.1 0.56 -0.82 0.05
1 9.20 920 0.910 -6.915 5.622 13.977 18.463 -8.698 -919.801 2886.520 -3823.859 0.178 -2.143 -2.042 -0.1 0.55 -0.82 0.05
1 9.21 921 0.536 -6.948 5.311 5.341 18.280 -14.526 -919.801 2886.520 -3823.859 0.556 -2.093 -1.691 -0.1 0.55 -0.83 0.05
1 9.22 922 0.182 -7.259 4.745 -3.571 18.799 -17.944 -994.752 2841.549 -3778.888 0.921 -1.774 -1.109 -0.1 0.55 -0.83 0.05
1 9.23 923 -0.402 -8.457 4.544 -7.446 17.120 -21.912 -994.752 2841.549 -3778.888 1.522 -0.576 -0.911 -0.1 0.55 -0.83 0.05
1 9.24 924 -0.627 -9.400 4.592 0.732 15.228 -25.787 -904.661 2901.660 -3808.869 1.759 0.370 -0.956 -0.1 0.55 -0.83 0.04
1 9.25 925 -0.584 -10.401 4.554 9.857 12.207 -27.222 -1009.742 2826.559 -3763.898 1.731 1.377 -0.908 -0.1 0.55 -0.83 0.04
1 9.26 926 0.057 -10.616 4.415 18.005 3.662 -22.034 -949.781 2916.650 -3748.908 1.145 1.616 -0.729 -0.1 0.55 -0.83 0.04
1 9.27 927 0.642 -10.056 4.535 18.951 0.732 -13.397 -874.680 2736.617 -3853.839 0.589 1.071 -0.821 -0.1 0.55 -0.83 0.04
1 9.28 928 1.456 -9.773 4.899 14.771 0.183 -4.425 -874.680 2736.617 -3853.839 -0.210 0.801 -1.159 -0.1 0.55 -0.83 0.04
1 9.29 929 1.992 -9.999 4.975 5.096 4.761 1.740 -1009.742 2751.607 -3838.849 -0.741 1.035 -1.217 -0.1 0.55 -0.83 0.04
1 9.30 930 1.647 -9.831 4.937 16.815 16.815 6.256 -1009.742 2751.607 -3838.849 -0.403 0.870 -1.170 -0.1 0.55 -0.83 0.04
1 9.31 931 1.302 -9.548 4.942 30.548 19.806 7.416 -904.661 2751.607 -3868.830 -0.074 0.594 -1.153 -0.1 0.54 -0.83 0.04
1 9.32 932 0.819 -9.108 4.865 36.957 23.529 8.972 -1024.732 2736.617 -3898.960 0.390 0.169 -1.034 -0.1 0.54 -0.83 0.04
1 9.33 933 0.081 -8.734 4.640 33.722 23.407 11.200 -919.801 2841.549 -3898.960 1.071 -0.160 -0.691 -0.09 0.54 -0.84 0.04
1 9.34 934 -0.431 -8.586 4.468 30.945 22.125 12.421 -934.791 2751.607 -3808.869 1.546 -0.289 -0.464 -0.09 0.54 -0.84 0.04
1 9.35 935 -0.603 -8.471 4.315 29.877 19.592 12.665 -934.791 2751.607 -3808.869 1.678 -0.386 -0.260 -0.09 0.53 -0.84 0.04
1 9.36 936 -0.570 -8.414 4.267 28.870 16.754 12.665 -799.729 2661.666 -3853.839 1.605 -0.426 -0.164 -0.09 0.53 -0.84 0.04
1 9.37 937 -0.632 -8.500 4.262 25.482 14.099 13.397 -799.729 2661.666 -3853.839 1.628 -0.324 -0.115 -0.08 0.53 -0.84 0.04
1 9.38 938 -0.278 -8.519 4.319 19.348 13.306 20.783 -934.791 2706.637 -3808.869 1.234 -0.291 -0.134 -0.08 0.53 -0.84 0.04
1 9.39 939 -0.335 -8.337 3.984 17.792 11.871 24.201 -859.690 2631.536 -3868.830 1.247 -0.462 0.233 -0.08 0.53 -0.84 0.04
1 9.40 940 -0.211 -8.308 3.884 17.120 9.491 24.139 -919.801 2691.646 -4003.892 1.026 -0.475 0.387 -0.08 0.53 -0.85 0.04
1 9.41 941 -0.196 -8.361 3.682 16.541 9.460 23.407 -934.791 2556.584 -3943.931 0.967 -0.414 0.612 -0.07 0.52 -0.85 0.04
1 9.42 942 -0.374 -8.485 3.500 15.839 9.155 23.377 -934.791 2556.584 -3943.931 1.100 -0.283 0.816 -0.07 0.52 -0.85 0.05
1 9.43 943 -0.464 -8.567 3.424 14.771 5.463 23.834 -799.729 2571.575 -3823.859 1.148 -0.195 0.912 -0.07 0.52 -0.85 0.05
1 9.44 944 -0.599 -8.370 3.213 13.763 0.641 23.621 -799.729 2571.575 -3823.859 1.240 -0.387 1.139 -0.07 0.52 -0.85 0.05
1 9.45 945 -0.824 -8.394 2.978 8.972 -8.789 25.360 -754.758 2676.656 -4018.882 1.425 -0.359 1.387 -0.07 0.52 -0.85 0.05
1 9.46 946 -0.852 -8.447 2.801 5.188 -13.245 26.276 -784.739 2601.555 -3943.931 1.417 -0.305 1.572 -0.07 0.52 -0.85 0.05
1 9.47 947 -0.891 -8.490 2.773 3.937 -17.517 26.795 -784.739 2601.555 -3943.931 1.419 -0.264 1.601 -0.07 0.52 -0.85 0.06
1 9.48 948 -0.699 -8.744 2.777 7.782 -22.766 25.055 -709.788 2706.637 -4063.853 1.163 -0.016 1.591 -0.07 0.52 -0.85 0.06
1 9.49 949 -0.857 -8.706 2.844 9.735 -24.902 24.414 -709.788 2706.637 -4063.853 1.295 -0.056 1.525 -0.07 0.52 -0.85 0.06
1 9.50 950 -1.087 -8.758 3.022 10.620 -26.886 23.529 -844.700 2691.646 -4033.872 1.501 -0.002 1.351 -0.07 0.52 -0.85 0.07
1 9.51 951 -0.838 -8.519 2.892 12.360 -32.898 22.003 -844.700 2691.646 -4033.872 1.230 -0.240 1.486 -0.07 0.52 -0.85 0.07
1 9.52 952 -0.555 -8.303 3.065 15.900 -44.556 21.027 -754.758 2676.656 -3988.901 0.933 -0.452 1.321 -0.07 0.52 -0.85 0.07
1 9.53 953 -0.340 -8.011 3.127 15.411 -49.622 21.545 -844.700 2616.545 -4078.843 0.710 -0.739 1.271 -0.07 0.52 -0.85 0.08
1 9.54 954 -0.129 -8.083 3.256 12.329 -53.589 20.935 -844.700 2616.545 -4078.843 0.500 -0.659 1.157 -0.07 0.52 -0.85 0.08
1 9.55 955 0.134 -8.169 3.113 7.935 -61.737 16.541 -829.709 2406.532 -3868.830 0.259 -0.558 1.328 -0.08 0.52 -0.85 0.09
1 9.56 956 0.503 -8.179 3.017 8.972 -67.261 11.536 -829.709 2406.532 -3868.830 -0.087 -0.544 1.431 -0.08 0.52 -0.85 0.09
1 9.57 957 0.536 -8.308 3.117 11.932 -70.648 6.226 -1024.732 2571.575 -3958.921 -0.086 -0.408 1.340 -0.09 0.52 -0.85 0.1
1 9.58 958 0.809 -8.179 6.489 11.383 -67.963 0.580 -1024.732 2571.575 -3958.921 -0.316 -0.532 -2.026 -0.09 0.51 -0.85 0.1
1 9.59 959 2.303 -9.706 10.985 3.601 -44.495 -1.617 -949.781 2466.643 -3898.960 -1.764 1.005 -6.509 -0.09 0.51 -0.85 0.1
1 9.60 960 2.255 -14.936 6.584 -59.448 -33.325 13.489 -949.781 2466.643 -3958.921 -1.693 6.232 -2.114 -0.1 0.51 -0.85 0.1
1 9.61 961 2.816 -12.991 5.014 5.127 -53.406 -1.587 -949.781 2466.643 -3958.921 -2.254 4.254 -0.612 -0.1 0.52 -0.84 0.1
1 9.62 962 3.419 -8.313 6.771 122.284 -32.349 -0.671 -1092.788 2504.119 -3888.167 -2.789 -0.378 -2.286 -0.1 0.51 -0.85 0.11
1 9.63 963 3.127 -7.671 7.734 51.117 -24.170 16.480 -1092.788 2504.119 -3888.167 -2.480 -0.941 -3.102 -0.1 0.5 -0.85 0.11
1 9.64 964 2.413 -7.288 5.895 -57.129 -31.738 12.207 -942.736 2399.187 -3993.249 -1.771 -1.310 -1.237 -0.11 0.5 -0.85 0.11
1 9.65 965 2.016 -8.093 4.659 -82.672 -35.187 2.808 -942.736 2399.187 -3993.249 -1.346 -0.546 -0.081 -0.11 0.5 -0.85 0.11
1 9.66 966 1.192 -9.520 4.243 -46.600 -18.799 -0.214 -1002.697 2534.099 -3858.187 -0.492 0.832 0.238 -0.11 0.51 -0.85 0.11
1 9.67 967 -0.306 -9.826 4.702 -4.944 -12.177 -7.385 -1257.681 2639.181 -4158.141 1.026 1.113 -0.274 -0.11 0.51 -0.84 0.11
1 9.68 968 -0.800 -9.031 4.544 -6.928 -25.299 -11.414 -1257.681 2639.181 -4158.141 1.536 0.313 -0.130 -0.11 0.51 -0.84 0.11
1 9.69 969 -0.321 -8.500 4.496 -15.656 -38.422 -16.083 -1227.700 2564.229 -3753.255 1.082 -0.221 -0.091 -0.12 0.51 -0.84 0.11
1 9.70 970 0.259 -8.174 4.233 -9.430 -37.048 -16.876 -1227.700 2534.099 -3828.206 0.579 -0.562 0.128 -0.12 0.51 -0.84 0.12
1 9.71 971 0.455 -7.753 4.080 7.507 -27.924 -13.947 -1242.690 2504.119 -3918.147 0.423 -0.984 0.272 -0.12 0.51 -0.84 0.12
1 9.72 972 0.584 -7.054 3.960 24.078 -21.240 -9.644 -1242.690 2504.119 -3918.147 0.328 -1.673 0.406 -0.13 0.51 -0.84 0.12
1 9.73 973 0.757 -6.058 4.008 34.485 -16.388 -5.676 -1302.801 2564.229 -3903.157 0.181 -2.648 0.393 -0.13 0.51 -0.84 0.12
1 9.74 974 0.848 -5.325 4.530 29.755 -7.965 -1.923 -1257.681 2609.200 -3858.187 0.109 -3.356 -0.083 -0.13 0.51 -0.84 0.12
1 9.75 975 1.116 -5.100 4.822 12.939 -0.977 4.547 -1257.681 2609.200 -3858.187 -0.148 -3.558 -0.333 -0.13 0.5 -0.85 0.12
1 9.76 976 1.135 -5.718 4.717 -9.033 3.784 10.468 -1332.782 2639.181 -3903.157 -0.168 -2.928 -0.204 -0.13 0.5 -0.85 0.12
1 9.77 977 1.638 -7.872 4.597 -36.621 5.035 20.996 -1332.782 2489.128 -3858.187 -0.708 -0.795 -0.119 -0.13 0.51 -0.85 0.12
1 9.78 978 2.227 -9.314 4.405 -39.520 -0.458 24.353 -1302.801 2369.207 -3978.258 -1.325 0.619 0.024 -0.13 0.51 -0.84 0.12
1 9.79 979 3.022 -9.979 4.492 -24.414 -1.099 26.306 -1302.801 2369.207 -3978.258 -2.143 1.257 -0.112 -0.13 0.51 -0.84 0.12
1 9.80 980 3.122 -9.592 4.602 -3.479 7.599 27.100 -1347.772 2669.161 -3768.245 -2.279 0.853 -0.246 -0.13 0.51 -0.84 0.12
1 9.81 981 2.892 -8.323 4.635 13.428 17.761 25.452 -1152.749 2534.099 -3798.226 -2.092 -0.417 -0.275 -0.12 0.51 -0.84 0.13
1 9.82 982 2.021 -6.848 4.382 8.575 26.978 19.104 -1152.749 2534.099 -3798.226 -1.248 -1.882 0.003 -0.12 0.51 -0.84 0.13
1 9.83 983 1.197 -6.670 4.511 -10.284 29.205 15.106 -1167.739 2474.138 -3813.216 -0.455 -2.050 -0.102 -0.12 0.51 -0.84 0.13
1 9.84 984 0.479 -7.829 4.171 -34.241 25.726 10.040 -1242.690 2624.190 -3888.167 0.188 -0.913 0.206 -0.12 0.51 -0.84 0.12
1 9.85 985 0.120 -9.132 4.099 -40.863 18.860 10.254 -1302.801 2609.200 -3678.154 0.518 0.365 0.234 -0.12 0.52 -0.84 0.12
1 9.86 986 0.479 -9.941 4.046 -36.316 9.033 9.125 -1302.801 2609.200 -3678.154 0.132 1.146 0.233 -0.11 0.52 -0.84 0.12
1 9.87 987 0.895 -9.912 3.912 -20.142 4.242 9.216 -1137.759 2504.119 -3738.265 -0.303 1.093 0.320 -0.11 0.52 -0.84 0.12
1 9.88 988 1.322 -9.189 4.166 -2.411 0.793 6.317 -1167.739 2579.220 -3843.196 -0.741 0.359 0.044 -0.11 0.52 -0.84 0.12
1 9.89 989 1.877 -8.064 4.094 2.960 0.854 4.303 -1167.739 2579.220 -3843.196 -1.299 -0.767 0.115 -0.11 0.52 -0.84 0.13
1 9.90 990 2.011 -7.820 4.420 -8.453 6.775 4.425 -1332.782 2684.151 -3798.226 -1.431 -1.008 -0.204 -0.11 0.52 -0.84 0.13
1 9.91 991 1.973 -8.112 4.262 -26.184 11.963 2.258 -1107.778 2684.151 -3603.203 -1.391 -0.717 -0.049 -0.11 0.52 -0.84 0.13
1 9.92 992 1.714 -8.749 4.180 -37.018 17.120 -3.418 -1242.690 2699.142 -3738.265 -1.128 -0.111 -0.034 -0.11 0.52 -0.83 0.12
1 9.93 993 1.350 -9.299 4.204 -27.130 18.646 -6.165 -1242.690 2699.142 -3738.265 -0.759 0.419 -0.102 -0.11 0.53 -0.83 0.12
1 9.94 994 1.053 -9.577 3.970 -13.001 20.966 -7.904 -1062.808 2549.089 -3843.196 -0.458 0.683 0.103 -0.11 0.53 -0.83 0.12
1 9.95 995 0.575 -9.304 3.936 -3.754 21.881 -8.545 -1137.759 2669.161 -3738.265 0.024 0.404 0.122 -0.11 0.53 -0.83 0.12
1 9.96 996 0.283 -8.935 3.855 -1.801 18.341 -7.141 -1137.759 2669.161 -3738.265 0.315 0.034 0.201 -0.11 0.53 -0.83 0.12
1 9.97 997 0.321 -8.686 3.884 -3.296 14.374 -5.920 -1137.759 2669.161 -3843.196 0.275 -0.215 0.172 -0.11 0.53 -0.83 0.12
1 9.98 998 0.397 -8.576 3.912 -4.150 13.184 -3.571 -1017.687 2744.112 -3768.245 0.196 -0.327 0.140 -0.11 0.53 -0.83 0.12
1 9.99 999 0.766 -8.495 3.879 -4.761 13.580 1.038 -1092.788 2669.161 -3768.245 -0.184 -0.412 0.166 -0.11 0.53 -0.83 0.11
1 10.00 1000 0.766 -8.294 3.893 -6.073 15.747 2.838 -1092.788 2669.161 -3768.245 -0.192 -0.616 0.147 -0.11 0.53 -0.83 0.11
1 10.01 1001 0.781 -8.251 3.927 -9.125 17.120 4.181 -1107.778 2759.103 -3828.206 -0.219 -0.663 0.107 -0.11 0.53 -0.83 0.11
