COL1	TIME	ACC_X	ACC_Y	ACC_Z	GYR_X	GYR_Y	GYR_Z	MAG_X	MAG_Y	MAG_Z	LACC_X	LACC_Y	LACC_Z	QUAT_X	QUAT_Y	QUAT_Z	QUAT_W
1 0.00 0 -0.019 -8.902 4.061 0.122 -0.946 1.556 -1167.290 2272.520 -4422.119 0.087 -0.049 -0.071 -0.1 0.54 -0.83 0.15
1 0.01 1 0.148 -8.825 4.051 0.397 -0.916 0.946 -1167.290 2272.520 -4422.119 -0.081 -0.125 -0.060 -0.1 0.54 -0.83 0.15
1 0.02 2 0.096 -8.902 3.989 0.000 -1.190 1.129 -1137.309 2422.572 -4242.086 -0.029 -0.048 0.003 -0.1 0.54 -0.83 0.15
1 0.03 3 0.077 -8.916 4.089 0.610 -1.373 1.343 -1137.309 2422.572 -4242.086 -0.010 -0.033 -0.097 -0.1 0.54 -0.83 0.15
1 0.04 4 0.067 -8.945 4.094 0.366 -0.885 1.343 -1182.280 2437.562 -4437.109 0.000 -0.004 -0.101 -0.1 0.54 -0.83 0.15
1 0.05 5 0.172 -9.070 3.917 0.854 -1.526 1.617 -1182.280 2362.461 -4302.047 -0.105 0.121 0.077 -0.1 0.54 -0.83 0.15
1 0.06 6 0.139 -9.017 3.984 1.251 -1.251 1.251 -1272.371 2347.471 -4497.070 -0.071 0.068 0.010 -0.1 0.54 -0.83 0.15
1 0.07 7 0.081 -8.888 4.056 0.702 -1.373 1.556 -1152.299 2317.490 -4482.080 -0.013 -0.061 -0.062 -0.1 0.54 -0.83 0.15
1 0.08 8 -0.005 -8.926 3.912 0.031 -1.373 1.892 -1152.299 2317.490 -4482.080 0.073 -0.023 0.082 -0.1 0.54 -0.83 0.15
1 0.09 9 0.187 -8.969 4.056 0.458 -1.251 2.106 -1107.329 2242.539 -4302.047 -0.119 0.020 -0.061 -0.1 0.54 -0.83 0.15
1 0.10 10 0.120 -8.888 4.056 0.763 -1.373 2.319 -1107.329 2242.539 -4302.047 -0.051 -0.061 -0.061 -0.1 0.54 -0.83 0.15
1 0.11 11 0.125 -8.921 3.979 1.099 -1.282 2.289 -1257.381 2242.539 -4332.028 -0.055 -0.027 0.016 -0.1 0.54 -0.83 0.15
1 0.12 12 0.105 -8.931 4.042 0.427 -0.824 2.350 -1182.280 2437.562 -4332.028 -0.036 -0.018 -0.046 -0.1 0.54 -0.83 0.15
1 0.13 13 0.067 -8.883 4.003 0.549 -1.434 2.716 -1047.368 2317.490 -4257.077 0.002 -0.065 -0.008 -0.1 0.54 -0.83 0.15
1 0.14 14 0.038 -8.883 4.046 0.244 -1.251 1.984 -1092.338 2452.552 -4392.139 0.031 -0.065 -0.051 -0.1 0.54 -0.83 0.15
1 0.15 15 0.034 -8.916 3.927 0.336 -0.854 1.953 -1092.338 2452.552 -4392.139 0.036 -0.032 0.070 -0.1 0.54 -0.83 0.15
1 0.16 16 0.034 -8.974 3.979 0.977 -2.045 2.533 -1167.290 2377.601 -4392.139 0.035 0.026 0.017 -0.1 0.54 -0.83 0.15
1 0.17 17 0.139 -8.902 4.032 0.793 -1.678 2.106 -1167.290 2377.601 -4392.139 -0.070 -0.045 -0.035 -0.1 0.54 -0.83 0.15
1 0.18 18 0.043 -8.926 4.089 0.702 -1.221 2.106 -867.335 2317.490 -4377.148 0.026 -0.021 -0.092 -0.1 0.54 -0.83 0.15
1 0.19 19 0.086 -8.825 3.898 0.336 -1.312 1.831 -1182.280 2167.588 -4122.015 -0.017 -0.122 0.100 -0.1 0.54 -0.83 0.15
1 0.20 20 0.034 -8.955 4.142 1.007 -1.160 1.587 -1047.368 2287.510 -4257.077 0.035 0.008 -0.144 -0.1 0.54 -0.83 0.15
1 0.21 21 0.010 -8.931 4.061 1.221 -1.129 1.801 -1107.329 2137.458 -4302.047 0.059 -0.016 -0.063 -0.1 0.54 -0.83 0.15
1 0.22 22 0.168 -8.892 4.018 0.427 -1.373 1.892 -1107.329 2137.458 -4302.047 -0.099 -0.054 -0.019 -0.1 0.54 -0.83 0.15
1 0.23 23 0.096 -8.830 4.065 0.366 -0.854 1.465 -1107.329 2317.490 -4407.129 -0.026 -0.116 -0.066 -0.1 0.54 -0.83 0.15
1 0.24 24 -0.024 -8.921 4.113 0.488 -1.770 1.831 -1107.329 2317.490 -4407.129 0.093 -0.025 -0.113 -0.1 0.54 -0.83 0.15
1 0.25 25 0.096 -8.892 4.046 0.671 -1.587 2.014 -1092.338 2302.500 -4392.139 -0.027 -0.054 -0.046 -0.1 0.54 -0.83 0.14
1 0.26 26 0.072 -8.888 4.037 0.549 -0.671 1.831 -1197.270 2227.549 -4242.086 -0.003 -0.058 -0.036 -0.1 0.54 -0.83 0.15
1 0.27 27 0.067 -8.916 4.204 0.519 -1.434 1.617 -1167.290 2302.500 -4497.070 0.002 -0.029 -0.203 -0.1 0.53 -0.83 0.15
1 0.28 28 0.115 -8.907 4.003 0.214 -0.061 1.556 -1182.280 2317.490 -4377.148 -0.045 -0.039 -0.002 -0.1 0.53 -0.83 0.15
1 0.29 29 0.105 -8.849 4.085 -0.061 -0.885 0.885 -1182.280 2317.490 -4377.148 -0.036 -0.096 -0.082 -0.1 0.53 -0.83 0.15
1 0.30 30 0.110 -8.873 4.118 0.702 -0.916 1.038 -1002.247 2362.461 -4407.129 -0.040 -0.071 -0.115 -0.1 0.53 -0.83 0.14
1 0.31 31 0.105 -8.912 4.094 0.397 -0.793 1.617 -1002.247 2362.461 -4407.129 -0.035 -0.033 -0.090 -0.1 0.53 -0.83 0.14
1 0.32 32 0.077 -8.892 4.080 0.214 -0.366 1.526 -1107.329 2287.510 -4197.116 -0.007 -0.052 -0.075 -0.1 0.53 -0.83 0.14
1 0.33 33 0.005 -8.825 4.013 0.549 -0.946 1.648 -1077.348 2287.510 -4377.148 0.065 -0.118 -0.007 -0.1 0.53 -0.83 0.14
1 0.34 34 0.048 -8.945 4.133 0.214 -0.366 1.282 -1047.368 2287.510 -4407.129 0.022 0.001 -0.127 -0.1 0.53 -0.83 0.14
1 0.35 35 0.067 -8.935 3.989 0.366 -0.854 1.373 -1107.329 2362.461 -4257.077 0.002 -0.008 0.017 -0.1 0.53 -0.83 0.14
1 0.36 36 0.048 -8.921 4.195 -0.214 -0.885 1.709 -1107.329 2362.461 -4257.077 0.021 -0.022 -0.188 -0.1 0.53 -0.83 0.14
1 0.37 37 0.062 -8.950 3.960 0.488 -0.641 2.075 -957.276 2347.471 -4392.139 0.007 0.007 0.047 -0.1 0.53 -0.83 0.14
1 0.38 38 0.091 -8.916 4.051 -0.031 -0.488 1.770 -957.276 2347.471 -4392.139 -0.021 -0.027 -0.044 -0.1 0.53 -0.83 0.14
1 0.39 39 0.062 -8.964 4.027 -0.031 -0.977 2.136 -1227.250 2437.562 -4332.028 0.008 0.021 -0.020 -0.1 0.53 -0.83 0.14
1 0.40 40 0.158 -8.907 4.022 0.397 -0.275 1.160 -1092.338 2347.471 -4527.051 -0.088 -0.036 -0.015 -0.1 0.53 -0.83 0.14
1 0.41 41 0.038 -8.902 4.051 -0.336 -0.702 1.343 -1002.247 2317.490 -4542.041 0.033 -0.041 -0.043 -0.1 0.53 -0.83 0.14
1 0.42 42 0.048 -8.892 4.109 0.702 -1.404 1.129 -1062.358 2302.500 -4317.038 0.023 -0.050 -0.100 -0.1 0.53 -0.83 0.14
1 0.43 43 0.019 -8.950 4.080 0.397 -0.458 1.587 -1062.358 2302.500 -4317.038 0.052 0.008 -0.071 -0.1 0.53 -0.83 0.14
1 0.44 44 0.014 -8.892 3.979 0.122 -0.916 1.495 -1107.329 2212.559 -4512.061 0.057 -0.050 0.030 -0.1 0.53 -0.83 0.14
1 0.45 45 -0.005 -8.935 4.046 -0.366 -0.824 1.556 -1107.329 2212.559 -4512.061 0.076 -0.006 -0.037 -0.1 0.53 -0.83 0.14
1 0.46 46 0.081 -8.950 4.013 0.336 -1.038 1.556 -1152.299 2287.510 -4302.047 -0.011 0.008 -0.003 -0.1 0.53 -0.83 0.14
1 0.47 47 0.067 -8.955 4.046 0.275 -0.549 2.106 -1107.329 2287.510 -4257.077 0.004 0.013 -0.036 -0.1 0.53 -0.83 0.14
1 0.48 48 0.024 -8.897 4.085 0.000 -0.977 1.343 -1167.290 2422.572 -4422.119 0.047 -0.044 -0.074 -0.1 0.53 -0.83 0.14
1 0.49 49 0.024 -8.897 3.994 0.641 -0.488 2.167 -1137.309 2527.503 -4422.119 0.046 -0.044 0.017 -0.1 0.53 -0.83 0.14
1 0.50 50 0.115 -8.859 4.156 0.519 -0.824 1.984 -1137.309 2527.503 -4422.119 -0.045 -0.082 -0.146 -0.1 0.53 -0.83 0.14
1 0.51 51 -0.014 -8.849 4.013 0.397 -0.946 1.678 -1092.338 2422.572 -4422.119 0.085 -0.092 -0.001 -0.1 0.53 -0.83 0.14
1 0.52 52 0.125 -8.821 3.979 0.183 -1.038 1.831 -1092.338 2422.572 -4422.119 -0.054 -0.120 0.033 -0.1 0.53 -0.83 0.14
1 0.53 53 0.043 -9.007 4.013 0.031 -1.099 1.923 -1227.250 2242.539 -4257.077 0.028 0.067 -0.000 -0.1 0.53 -0.83 0.14
1 0.54 54 0.019 -8.926 4.085 -0.092 -0.946 2.136 -1137.309 2572.474 -4422.119 0.052 -0.014 -0.072 -0.1 0.53 -0.83 0.14
1 0.55 55 0.081 -8.864 3.898 -0.183 -0.702 1.617 -1137.309 2572.474 -4422.119 -0.011 -0.077 0.115 -0.1 0.53 -0.83 0.14
1 0.56 56 0.077 -8.825 4.070 0.214 -0.946 1.526 -1017.387 2227.549 -4242.086 -0.006 -0.115 -0.057 -0.1 0.53 -0.83 0.14
1 0.57 57 0.139 -8.916 4.075 0.275 -1.251 1.862 -1017.387 2227.549 -4242.086 -0.068 -0.024 -0.062 -0.1 0.53 -0.83 0.14
1 0.58 58 0.115 -8.940 4.061 0.214 -1.404 1.617 -1152.299 2362.461 -4332.028 -0.044 0.000 -0.047 -0.1 0.53 -0.83 0.14
1 0.59 59 0.034 -9.012 3.965 0.061 -1.282 2.289 -1152.299 2362.461 -4332.028 0.038 0.073 0.050 -0.1 0.53 -0.83 0.14
1 0.60 60 0.038 -8.998 4.018 0.031 -0.946 1.862 -1062.358 2272.520 -4347.018 0.033 0.058 -0.003 -0.1 0.53 -0.83 0.14
1 0.61 61 0.057 -8.959 3.970 0.000 -0.702 2.197 -1017.387 2302.500 -4287.057 0.014 0.020 0.045 -0.1 0.53 -0.83 0.14
1 0.62 62 0.077 -8.912 4.080 0.031 -0.763 2.228 -1017.387 2302.500 -4287.057 -0.006 -0.028 -0.065 -0.1 0.53 -0.83 0.14
1 0.63 63 0.010 -8.912 4.008 0.244 -0.763 2.289 -1152.299 2212.559 -4302.047 0.062 -0.028 0.007 -0.1 0.53 -0.83 0.14
1 0.64 64 0.038 -8.945 4.080 -0.366 -0.031 2.106 -1152.299 2212.559 -4302.047 0.033 0.006 -0.065 -0.1 0.53 -0.83 0.14
1 0.65 65 0.014 -8.912 4.113 -0.549 -0.610 2.014 -1107.329 2167.588 -4377.148 0.057 -0.028 -0.099 -0.1 0.53 -0.83 0.14
1 0.66 66 0.172 -8.983 4.008 -0.031 -1.099 1.556 -1107.329 2167.588 -4377.148 -0.102 0.044 0.008 -0.1 0.53 -0.83 0.14
1 0.67 67 -0.005 -8.921 4.042 0.214 -1.160 1.282 -1107.329 2287.510 -4332.028 0.075 -0.018 -0.026 -0.1 0.53 -0.83 0.14
1 0.68 68 0.048 -8.912 3.989 0.519 -1.190 1.221 -1182.280 2392.591 -4332.028 0.022 -0.027 0.028 -0.1 0.53 -0.83 0.14
1 0.69 69 0.134 -8.931 3.984 0.031 -0.793 1.404 -1182.280 2392.591 -4332.028 -0.064 -0.008 0.033 -0.1 0.53 -0.83 0.14
1 0.70 70 0.043 -8.873 4.046 0.244 -0.977 0.824 -1077.348 2242.539 -4302.047 0.027 -0.066 -0.030 -0.1 0.53 -0.83 0.14
1 0.71 71 0.101 -8.935 4.032 0.336 -1.495 1.404 -1077.348 2242.539 -4302.047 -0.031 -0.003 -0.015 -0.1 0.53 -0.83 0.14
1 0.72 72 0.110 -8.959 4.089 0.000 -1.190 1.434 -1167.290 2347.471 -4347.018 -0.041 0.021 -0.072 -0.1 0.53 -0.83 0.14
1 0.73 73 -0.077 -8.931 4.075 0.153 -0.885 1.434 -1167.290 2347.471 -4347.018 0.146 -0.007 -0.057 -0.1 0.53 -0.83 0.14
1 0.74 74 -0.086 -8.835 4.022 -0.610 -0.977 1.831 -1077.348 2437.562 -4257.077 0.154 -0.103 -0.003 -0.1 0.53 -0.83 0.14
1 0.75 75 0.086 -8.950 4.061 0.275 -1.740 1.617 -1107.329 2242.539 -4302.047 -0.019 0.012 -0.041 -0.1 0.53 -0.83 0.14
1 0.76 76 0.120 -8.940 4.065 -0.275 -1.495 1.740 -1107.329 2242.539 -4302.047 -0.053 0.003 -0.045 -0.1 0.53 -0.83 0.14
1 0.77 77 0.081 -8.883 4.109 -0.427 -1.801 1.160 -987.257 2197.568 -4392.139 -0.015 -0.054 -0.088 -0.1 0.53 -0.83 0.14
1 0.78 78 0.153 -8.878 4.180 -0.763 -1.556 1.801 -1002.247 2287.510 -4407.129 -0.087 -0.059 -0.160 -0.1 0.53 -0.83 0.14
1 0.79 79 0.148 -8.940 3.922 0.183 -1.404 1.923 -1107.329 2287.510 -4302.047 -0.083 0.003 0.099 -0.1 0.53 -0.83 0.14
1 0.80 80 0.062 -8.974 4.042 0.153 -1.495 1.740 -1107.329 2287.510 -4302.047 0.004 0.037 -0.020 -0.1 0.53 -0.83 0.14
1 0.81 81 0.105 -8.868 4.003 0.519 -1.343 1.953 -1092.338 2422.572 -4467.090 -0.039 -0.068 0.018 -0.1 0.53 -0.83 0.14
1 0.82 82 0.014 -9.036 4.003 0.122 -1.465 1.953 -1047.368 2212.559 -4377.148 0.052 0.100 0.019 -0.1 0.53 -0.83 0.14
1 0.83 83 0.019 -8.902 4.109 -0.092 -1.465 1.892 -1047.368 2212.559 -4377.148 0.047 -0.035 -0.087 -0.1 0.53 -0.83 0.14
1 0.84 84 0.029 -8.955 3.984 0.427 -0.763 2.258 -1167.290 2452.552 -4242.086 0.038 0.018 0.038 -0.1 0.53 -0.83 0.14
1 0.85 85 0.067 -8.988 4.056 -0.183 -1.251 1.404 -1062.358 2422.572 -4287.057 -0.001 0.052 -0.034 -0.1 0.53 -0.83 0.14
1 0.86 86 0.005 -8.902 4.037 -0.153 -0.977 1.678 -987.257 2272.520 -4242.086 0.061 -0.035 -0.015 -0.1 0.53 -0.83 0.14
1 0.87 87 0.182 -8.878 4.046 -0.610 -0.763 1.617 -987.257 2272.520 -4242.086 -0.116 -0.059 -0.025 -0.1 0.53 -0.83 0.14
1 0.88 88 0.110 -8.964 4.070 0.031 -1.495 1.862 -927.296 2242.539 -4302.047 -0.043 0.028 -0.049 -0.1 0.53 -0.83 0.14
1 0.89 89 0.148 -8.902 4.070 -0.580 -1.495 2.075 -1092.338 2302.500 -4242.086 -0.081 -0.034 -0.048 -0.1 0.53 -0.83 0.14
1 0.90 90 0.086 -8.907 4.065 -0.336 -1.556 2.136 -1092.338 2302.500 -4242.086 -0.019 -0.030 -0.043 -0.1 0.53 -0.83 0.14
1 0.91 91 0.034 -8.945 4.032 -0.549 -0.732 1.434 -1002.247 2137.458 -4227.096 0.034 0.009 -0.010 -0.1 0.53 -0.83 0.14
1 0.92 92 0.019 -8.983 3.941 -0.214 -1.221 1.221 -1002.247 2392.591 -4332.028 0.049 0.047 0.081 -0.1 0.53 -0.83 0.14
1 0.93 93 0.163 -9.017 4.075 0.336 -0.763 1.160 -1062.358 2302.500 -4347.018 -0.095 0.081 -0.053 -0.1 0.53 -0.83 0.14
1 0.94 94 0.105 -8.921 4.085 0.092 -0.580 1.617 -1062.358 2302.500 -4347.018 -0.038 -0.015 -0.063 -0.1 0.53 -0.83 0.14
1 0.95 95 0.019 -8.931 4.032 -0.061 -0.610 1.434 -1002.247 2287.510 -4257.077 0.049 -0.006 -0.010 -0.1 0.53 -0.83 0.14
1 0.96 96 0.067 -8.940 3.994 -0.214 -1.038 1.709 -1077.348 2287.510 -4302.047 0.001 0.004 0.029 -0.1 0.53 -0.83 0.14
1 0.97 97 0.000 -8.878 4.013 -0.366 -0.366 1.740 -1077.348 2287.510 -4302.047 0.068 -0.058 0.010 -0.1 0.53 -0.83 0.14
1 0.98 98 0.110 -8.811 3.970 -0.031 -1.190 1.343 -1197.270 2377.601 -4317.038 -0.042 -0.125 0.053 -0.1 0.53 -0.83 0.14
1 0.99 99 -0.043 -8.859 4.080 -0.214 -0.580 1.282 -1152.299 2362.461 -4377.148 0.111 -0.077 -0.057 -0.1 0.53 -0.83 0.14
1 1.00 100 0.105 -8.945 4.209 -0.214 -0.458 1.587 -1227.250 2242.539 -4227.096 -0.037 0.009 -0.186 -0.1 0.53 -0.83 0.14
1 1.01 101 0.053 -8.868 3.927 -0.305 -0.977 1.556 -1227.250 2242.539 -4227.096 0.015 -0.067 0.096 -0.1 0.53 -0.83 0.14
1 1.02 102 0.043 -8.955 3.955 0.092 -0.580 1.678 -822.364 2242.539 -4407.129 0.025 0.019 0.068 -0.1 0.53 -0.83 0.14
1 1.03 103 0.096 -9.089 3.994 -0.153 -0.610 1.617 -1197.270 2452.552 -4317.038 -0.028 0.153 0.029 -0.1 0.53 -0.83 0.14
1 1.04 104 0.019 -8.816 4.152 -0.031 -0.702 2.136 -1197.270 2452.552 -4317.038 0.049 -0.120 -0.129 -0.1 0.53 -0.83 0.14
1 1.05 105 0.043 -8.859 4.013 -0.610 -0.885 1.373 -1197.270 2272.520 -4347.018 0.025 -0.077 0.011 -0.1 0.53 -0.83 0.14
1 1.06 106 0.134 -8.854 4.027 -0.488 -1.282 1.343 -1062.358 2197.568 -4287.057 -0.066 -0.082 -0.003 -0.1 0.53 -0.83 0.14
1 1.07 107 0.048 -8.959 4.075 0.305 -0.214 1.648 -1152.299 2362.461 -4377.148 0.020 0.024 -0.051 -0.1 0.53 -0.83 0.14
1 1.08 108 0.101 -8.983 3.970 0.092 -0.549 1.526 -1152.299 2362.461 -4377.148 -0.032 0.048 0.055 -0.1 0.53 -0.83 0.14
1 1.09 109 0.000 -8.931 3.931 -0.214 -0.610 1.190 -1137.309 2347.471 -4287.057 0.068 -0.004 0.093 -0.1 0.53 -0.83 0.14
1 1.10 110 -0.034 -8.945 4.042 0.031 -0.458 1.404 -1257.381 2317.490 -4197.116 0.101 0.009 -0.018 -0.1 0.53 -0.83 0.14
1 1.11 111 0.129 -9.046 4.046 -1.038 -0.885 1.404 -1257.381 2317.490 -4197.116 -0.062 0.110 -0.023 -0.1 0.53 -0.83 0.14
1 1.12 112 0.038 -8.864 3.927 -0.092 -0.702 1.740 -1092.338 2227.549 -4347.018 0.030 -0.072 0.097 -0.1 0.53 -0.83 0.14
1 1.13 113 0.125 -8.979 4.065 0.458 -0.885 1.862 -1152.299 2287.510 -4332.028 -0.056 0.043 -0.042 -0.1 0.53 -0.83 0.14
1 1.14 114 0.110 -8.830 4.046 -0.824 -0.793 1.862 -1047.368 2242.539 -4332.028 -0.042 -0.106 -0.023 -0.1 0.53 -0.83 0.14
1 1.15 115 0.081 -8.955 4.085 -0.671 -0.824 2.106 -1047.368 2242.539 -4332.028 -0.013 0.019 -0.062 -0.1 0.53 -0.83 0.14
1 1.16 116 0.053 -8.950 4.089 0.214 -0.763 1.923 -1077.348 2242.539 -4332.028 0.016 0.014 -0.066 -0.1 0.53 -0.83 0.14
1 1.17 117 -0.043 -8.921 4.037 -0.244 -1.007 1.495 -1227.250 2362.461 -4302.047 0.112 -0.015 -0.013 -0.1 0.53 -0.83 0.14
1 1.18 118 0.043 -9.022 4.056 -0.275 -1.007 1.770 -1227.250 2362.461 -4302.047 0.025 0.086 -0.032 -0.1 0.53 -0.83 0.14
1 1.19 119 0.038 -8.950 4.080 0.000 -0.977 1.678 -1182.280 2362.461 -4407.129 0.030 0.014 -0.057 -0.1 0.53 -0.83 0.14
1 1.20 120 0.211 -8.998 4.027 -0.671 -0.885 0.824 -1137.309 2377.601 -4212.106 -0.143 0.062 -0.004 -0.1 0.53 -0.83 0.14
1 1.21 121 0.029 -8.988 3.951 -0.519 -1.190 1.556 -1152.299 2392.591 -4332.028 0.040 0.052 0.073 -0.1 0.53 -0.83 0.14
1 1.22 122 -0.024 -9.079 3.994 -0.275 -0.885 0.763 -1152.299 2392.591 -4332.028 0.092 0.143 0.029 -0.1 0.53 -0.83 0.14
1 1.23 123 0.129 -8.859 4.080 0.336 -1.038 1.038 -1242.391 2272.520 -4182.125 -0.062 -0.077 -0.057 -0.1 0.53 -0.83 0.14
1 1.24 124 0.048 -8.945 3.998 0.031 -1.068 1.373 -1167.290 2452.552 -4317.038 0.019 0.009 0.024 -0.1 0.53 -0.83 0.14
1 1.25 125 0.105 -8.902 4.065 0.183 -0.732 1.038 -1167.290 2452.552 -4317.038 -0.038 -0.034 -0.043 -0.1 0.53 -0.83 0.14
1 1.26 126 0.067 -8.955 4.013 -0.305 -0.977 1.312 -1062.358 2227.549 -4392.139 0.001 0.019 0.010 -0.1 0.53 -0.83 0.14
1 1.27 127 0.158 -8.916 3.907 0.183 -0.458 0.732 -972.267 2392.591 -4377.148 -0.090 -0.020 0.115 -0.1 0.53 -0.83 0.14
1 1.28 128 0.120 -8.955 3.970 -0.397 -0.275 0.702 -1197.270 2302.500 -4242.086 -0.051 0.018 0.053 -0.1 0.53 -0.83 0.14
1 1.29 129 0.086 -8.964 4.008 0.641 -0.183 0.946 -1197.270 2302.500 -4242.086 -0.017 0.028 0.014 -0.1 0.53 -0.83 0.14
1 1.30 130 0.019 -8.916 3.917 -0.366 0.397 0.671 -1077.348 2362.461 -4437.109 0.051 -0.020 0.105 -0.1 0.53 -0.83 0.14
1 1.31 131 -0.005 -8.859 3.970 0.275 -0.122 0.641 -1077.348 2437.562 -4257.077 0.075 -0.078 0.051 -0.1 0.53 -0.83 0.14
1 1.32 132 0.120 -8.988 4.070 -0.397 -0.305 0.702 -1077.348 2437.562 -4257.077 -0.049 0.051 -0.050 -0.1 0.53 -0.83 0.14
1 1.33 133 0.105 -8.931 4.003 0.183 -0.549 0.641 -987.257 2347.471 -4317.038 -0.034 -0.007 0.017 -0.1 0.53 -0.83 0.14
1 1.34 134 0.038 -8.864 3.917 -0.305 -0.153 1.099 -1092.338 2377.601 -4212.106 0.033 -0.074 0.103 -0.1 0.53 -0.83 0.14
1 1.35 135 0.086 -8.897 3.927 1.129 -0.275 0.824 -1092.338 2377.601 -4212.106 -0.015 -0.040 0.093 -0.1 0.53 -0.83 0.14
1 1.36 136 0.053 -8.993 4.051 0.610 -0.183 1.160 -1107.329 2437.562 -4332.028 0.019 0.056 -0.031 -0.1 0.53 -0.83 0.14
1 1.37 137 0.048 -8.926 4.032 0.488 -0.366 1.617 -1047.368 2212.559 -4332.028 0.023 -0.011 -0.011 -0.1 0.53 -0.83 0.14
1 1.38 138 -0.101 -8.931 4.061 0.183 0.122 1.617 -1077.348 2242.539 -4377.148 0.171 -0.006 -0.040 -0.1 0.53 -0.83 0.14
1 1.39 139 0.067 -8.969 3.893 0.366 0.000 2.411 -1077.348 2242.539 -4377.148 0.003 0.032 0.127 -0.1 0.53 -0.83 0.14
1 1.40 140 -0.034 -8.979 4.051 0.275 -0.214 1.343 -1182.280 2287.510 -4377.148 0.103 0.041 -0.031 -0.1 0.53 -0.83 0.14
1 1.41 141 0.034 -8.945 4.037 0.519 -0.763 1.587 -1107.329 2317.490 -4152.145 0.036 0.008 -0.016 -0.1 0.53 -0.83 0.14
1 1.42 142 0.062 -8.950 4.065 0.214 -0.153 1.923 -1107.329 2317.490 -4152.145 0.007 0.013 -0.045 -0.1 0.53 -0.83 0.14
1 1.43 143 0.034 -8.974 3.917 0.214 -0.031 2.197 -1047.368 2317.490 -4437.109 0.035 0.037 0.103 -0.1 0.53 -0.83 0.14
1 1.44 144 0.153 -8.907 3.998 1.038 -0.122 2.136 -1107.329 2317.490 -4197.116 -0.084 -0.031 0.021 -0.1 0.53 -0.83 0.14
1 1.45 145 -0.053 -8.873 4.094 1.251 -0.641 1.831 -1047.368 2362.461 -4302.047 0.121 -0.064 -0.074 -0.1 0.53 -0.83 0.14
1 1.46 146 0.120 -8.844 3.922 0.366 -0.275 1.434 -1047.368 2362.461 -4302.047 -0.052 -0.093 0.098 -0.1 0.53 -0.83 0.14
1 1.47 147 0.158 -8.916 4.089 0.244 -0.702 1.556 -1137.309 2347.471 -4422.119 -0.091 -0.020 -0.067 -0.1 0.53 -0.83 0.14
1 1.48 148 0.010 -9.031 4.037 0.153 -0.275 1.099 -1197.270 2302.500 -4242.086 0.058 0.095 -0.014 -0.1 0.53 -0.83 0.14
1 1.49 149 0.196 -8.897 4.042 0.458 0.092 1.099 -1197.270 2302.500 -4242.086 -0.129 -0.039 -0.020 -0.1 0.53 -0.83 0.14
1 1.50 150 0.129 -8.955 3.965 0.610 -0.763 1.617 -1047.368 2287.510 -4377.148 -0.062 0.018 0.057 -0.1 0.53 -0.83 0.14
1 1.51 151 0.163 -9.065 3.946 0.763 -0.336 1.099 -1062.358 2302.500 -4242.086 -0.094 0.129 0.076 -0.1 0.53 -0.83 0.14
1 1.52 152 0.057 -9.113 3.994 -0.244 0.427 1.190 -1017.387 2422.572 -4287.057 0.011 0.176 0.029 -0.1 0.53 -0.83 0.14
1 1.53 153 0.129 -8.931 3.955 0.092 0.061 1.282 -1017.387 2422.572 -4287.057 -0.060 -0.006 0.066 -0.1 0.53 -0.83 0.14
1 1.54 154 0.029 -8.983 3.975 0.183 -0.031 1.495 -1077.348 2242.539 -4332.028 0.041 0.047 0.047 -0.1 0.53 -0.83 0.14
1 1.55 155 0.163 -8.969 4.022 0.031 -0.092 1.556 -1062.358 2302.500 -4347.018 -0.093 0.032 -0.001 -0.1 0.53 -0.83 0.14
1 1.56 156 0.081 -8.964 3.975 0.244 0.427 1.434 -1062.358 2302.500 -4347.018 -0.011 0.027 0.046 -0.1 0.53 -0.83 0.14
1 1.57 157 0.000 -9.036 4.089 0.488 0.824 1.617 -987.257 2227.549 -4347.018 0.070 0.099 -0.069 -0.1 0.53 -0.83 0.14
1 1.58 158 0.125 -8.993 3.960 0.427 -0.092 1.801 -987.257 2152.598 -4347.018 -0.056 0.056 0.061 -0.1 0.53 -0.83 0.14
1 1.59 159 0.177 -8.892 3.946 -0.183 -0.122 1.923 -1197.270 2377.601 -4392.139 -0.109 -0.044 0.076 -0.1 0.53 -0.83 0.14
1 1.60 160 0.115 -8.902 3.998 0.763 0.000 1.404 -1197.270 2377.601 -4392.139 -0.047 -0.035 0.023 -0.1 0.53 -0.83 0.14
1 1.61 161 0.014 -8.950 3.941 0.366 0.000 1.404 -1047.368 2242.539 -4302.047 0.055 0.013 0.080 -0.1 0.53 -0.83 0.14
1 1.62 162 -0.048 -8.983 4.065 1.282 -0.305 2.045 -1197.270 2302.500 -4317.038 0.115 0.047 -0.044 -0.1 0.53 -0.83 0.14
1 1.63 163 0.072 -8.926 3.936 0.763 0.244 2.197 -1197.270 2302.500 -4317.038 -0.005 -0.011 0.085 -0.1 0.53 -0.83 0.14
1 1.64 164 0.057 -8.959 4.003 0.702 -0.183 1.465 -1002.247 2392.591 -4332.028 0.009 0.023 0.018 -0.1 0.53 -0.83 0.14
1 1.65 165 0.187 -8.935 3.998 0.824 -0.305 1.465 -1152.299 2392.591 -4302.047 -0.120 -0.001 0.023 -0.1 0.53 -0.83 0.14
1 1.66 166 -0.062 -8.859 3.998 0.702 0.519 1.923 -1107.329 2317.490 -4332.028 0.129 -0.078 0.023 -0.1 0.53 -0.83 0.14
1 1.67 167 0.043 -8.878 4.075 0.977 -0.458 1.770 -1107.329 2317.490 -4332.028 0.024 -0.058 -0.053 -0.1 0.53 -0.83 0.14
1 1.68 168 0.010 -8.935 3.998 0.031 -0.580 0.977 -1227.250 2317.490 -4257.077 0.056 -0.001 0.024 -0.1 0.53 -0.83 0.14
1 1.69 169 0.086 -8.935 3.970 0.793 -1.221 1.465 -1047.368 2467.542 -4302.047 -0.021 -0.001 0.053 -0.1 0.53 -0.83 0.14
1 1.70 170 0.077 -8.959 4.061 0.092 -0.458 1.404 -1047.368 2467.542 -4302.047 -0.011 0.023 -0.039 -0.1 0.53 -0.83 0.14
1 1.71 171 0.062 -8.801 3.946 0.610 -1.007 1.312 -1062.358 2227.549 -4392.139 0.003 -0.135 0.076 -0.1 0.53 -0.83 0.14
1 1.72 172 0.062 -8.897 4.046 0.244 -0.641 1.862 -1107.329 2317.490 -4332.028 0.003 -0.039 -0.024 -0.1 0.53 -0.83 0.14
1 1.73 173 0.067 -9.003 3.917 0.336 -1.495 2.075 -1017.387 2302.500 -4317.038 -0.002 0.066 0.105 -0.1 0.53 -0.83 0.14
1 1.74 174 0.101 -8.959 3.951 0.488 -0.092 1.434 -1017.387 2302.500 -4317.038 -0.035 0.023 0.072 -0.1 0.53 -0.83 0.14
1 1.75 175 0.144 -8.950 4.013 0.854 -0.793 1.526 -1062.358 2197.568 -4347.018 -0.078 0.014 0.010 -0.1 0.53 -0.83 0.14
1 1.76 176 0.000 -9.007 4.003 -0.122 -0.549 1.678 -1092.338 2422.572 -4287.057 0.066 0.071 0.019 -0.1 0.53 -0.83 0.14
1 1.77 177 0.029 -8.940 4.128 0.336 -1.495 1.617 -1092.338 2422.572 -4287.057 0.037 0.004 -0.106 -0.1 0.53 -0.83 0.14
1 1.78 178 0.024 -8.964 4.032 0.305 -0.946 1.678 -1017.387 2422.572 -4317.038 0.042 0.028 -0.010 -0.1 0.53 -0.83 0.14
1 1.79 179 0.096 -8.993 4.156 -0.061 -0.092 1.526 -1002.247 2392.591 -4302.047 -0.030 0.057 -0.135 -0.1 0.53 -0.83 0.14
1 1.80 180 0.192 -8.926 3.998 0.549 -0.275 2.045 -987.257 2347.471 -4317.038 -0.126 -0.010 0.024 -0.1 0.53 -0.83 0.14
1 1.81 181 0.220 -8.888 4.042 0.519 0.061 2.258 -987.257 2347.471 -4317.038 -0.154 -0.048 -0.019 -0.1 0.53 -0.83 0.14
1 1.82 182 0.115 -8.935 4.018 0.458 0.244 1.770 -1137.309 2302.500 -4287.057 -0.048 -0.001 0.005 -0.1 0.53 -0.83 0.14
1 1.83 183 0.139 -8.969 4.113 0.458 0.336 1.953 -1152.299 2287.510 -4257.077 -0.072 0.033 -0.091 -0.1 0.53 -0.83 0.14
1 1.84 184 0.067 -8.921 4.089 0.183 0.671 1.801 -1152.299 2287.510 -4257.077 0.000 -0.015 -0.067 -0.1 0.53 -0.83 0.14
1 1.85 185 -0.043 -8.998 3.989 0.000 0.488 1.556 -987.257 2227.549 -4347.018 0.110 0.062 0.034 -0.1 0.53 -0.83 0.14
1 1.86 186 0.024 -8.964 4.128 0.732 0.214 1.495 -987.257 2227.549 -4347.018 0.042 0.028 -0.106 -0.1 0.53 -0.83 0.14
1 1.87 187 0.148 -8.955 3.955 0.854 0.488 1.862 -1047.368 2287.510 -4257.077 -0.083 0.018 0.067 -0.1 0.53 -0.83 0.14
1 1.88 188 0.000 -8.864 4.065 1.099 0.549 1.343 -1047.368 2287.510 -4257.077 0.064 -0.073 -0.043 -0.09 0.53 -0.83 0.14
1 1.89 189 0.081 -8.931 3.960 0.824 0.336 1.251 -1017.387 2347.471 -4422.119 -0.017 -0.005 0.064 -0.09 0.53 -0.83 0.14
1 1.90 190 0.134 -8.907 4.075 0.763 0.092 1.648 -1092.338 2272.520 -4317.038 -0.071 -0.029 -0.052 -0.09 0.53 -0.83 0.14
1 1.91 191 0.034 -8.931 4.070 1.740 -0.244 1.160 -1092.338 2272.520 -4317.038 0.030 -0.005 -0.047 -0.09 0.53 -0.83 0.14
1 1.92 192 0.144 -8.921 3.979 1.190 -0.458 1.099 -1092.338 2377.601 -4317.038 -0.080 -0.014 0.045 -0.09 0.53 -0.83 0.14
1 1.93 193 0.067 -8.888 3.994 0.824 -0.092 1.404 -1092.338 2377.601 -4317.038 -0.003 -0.048 0.031 -0.09 0.53 -0.83 0.14
1 1.94 194 0.048 -8.792 4.018 -0.183 -0.702 1.068 -1167.290 2422.572 -4347.018 0.016 -0.143 0.007 -0.09 0.53 -0.83 0.14
1 1.95 195 0.005 -8.830 4.128 0.031 -0.458 0.763 -1167.290 2422.572 -4347.018 0.060 -0.105 -0.103 -0.09 0.53 -0.83 0.14
1 1.96 196 0.091 -8.955 4.109 0.244 0.031 0.977 -1077.348 2287.510 -4302.047 -0.026 0.020 -0.083 -0.09 0.53 -0.83 0.14
1 1.97 197 0.086 -8.897 4.046 1.312 -0.549 0.366 -972.267 2242.539 -4227.096 -0.021 -0.037 -0.020 -0.09 0.53 -0.83 0.14
1 1.98 198 0.043 -8.950 4.037 0.702 -0.824 1.099 -972.267 2242.539 -4227.096 0.023 0.016 -0.010 -0.09 0.53 -0.83 0.14
1 1.99 199 0.019 -8.921 4.037 0.427 0.092 0.702 -1062.358 2377.601 -4287.057 0.047 -0.013 -0.010 -0.09 0.53 -0.83 0.14
1 2.00 200 -0.086 -8.926 3.955 -0.275 -0.275 0.519 -1062.358 2377.601 -4287.057 0.152 -0.008 0.072 -0.09 0.53 -0.83 0.14
1 2.01 201 0.024 -8.955 3.994 0.488 -0.671 0.458 -1077.348 2287.510 -4197.116 0.042 0.021 0.034 -0.09 0.53 -0.83 0.14
1 2.02 202 0.043 -9.031 3.955 1.282 -0.641 0.519 -1077.348 2287.510 -4197.116 0.022 0.097 0.072 -0.09 0.53 -0.83 0.14
1 2.03 203 -0.019 -8.811 3.998 0.580 -0.061 1.038 -1077.348 2317.490 -4197.116 0.085 -0.123 0.030 -0.09 0.53 -0.83 0.14
1 2.04 204 0.029 -8.964 3.975 1.007 -0.488 1.282 -882.325 2272.520 -4392.139 0.037 0.031 0.053 -0.09 0.53 -0.83 0.14
1 2.05 205 0.105 -8.926 4.089 0.397 0.061 2.045 -882.325 2272.520 -4392.139 -0.040 -0.008 -0.062 -0.09 0.53 -0.83 0.14
1 2.06 206 0.038 -9.026 3.955 0.336 -0.244 1.587 -1092.338 2347.471 -4242.086 0.027 0.093 0.073 -0.09 0.53 -0.83 0.14
1 2.07 207 0.067 -9.060 4.008 -0.122 0.153 2.197 -1092.338 2347.471 -4242.086 -0.002 0.126 0.020 -0.09 0.53 -0.83 0.14
1 2.08 208 0.043 -8.830 4.056 0.488 0.580 2.045 -972.267 2317.490 -4332.028 0.021 -0.104 -0.029 -0.09 0.53 -0.83 0.14
1 2.09 209 -0.024 -8.969 4.152 -0.244 0.549 2.533 -972.267 2317.490 -4332.028 0.087 0.035 -0.125 -0.09 0.53 -0.83 0.14
1 2.10 210 0.057 -8.907 4.003 0.092 0.793 2.228 -1092.338 2347.471 -4347.018 0.004 -0.027 0.024 -0.09 0.53 -0.83 0.14
1 2.11 211 0.067 -8.892 4.065 0.427 0.671 1.678 -1152.299 2212.559 -4257.077 -0.007 -0.042 -0.038 -0.09 0.53 -0.83 0.14
1 2.12 212 0.196 -8.892 3.975 0.824 0.305 1.495 -1152.299 2212.559 -4257.077 -0.138 -0.042 0.053 -0.09 0.53 -0.83 0.14
1 2.13 213 0.010 -8.945 3.989 0.092 0.580 1.190 -1077.348 2467.542 -4257.077 0.050 0.011 0.038 -0.09 0.53 -0.83 0.14
1 2.14 214 0.034 -8.916 4.056 -0.580 0.549 1.587 -1077.348 2467.542 -4257.077 0.026 -0.018 -0.029 -0.09 0.53 -0.83 0.14
1 2.15 215 0.086 -8.979 4.018 -0.366 0.549 1.068 -1242.391 2377.601 -4242.086 -0.028 0.044 0.008 -0.09 0.53 -0.83 0.14
1 2.16 216 0.091 -8.801 4.166 -0.122 0.763 0.519 -1152.299 2242.539 -4227.096 -0.032 -0.134 -0.141 -0.09 0.53 -0.83 0.14
1 2.17 217 0.192 -8.868 3.970 0.153 1.373 0.671 -1092.338 2302.500 -4317.038 -0.132 -0.067 0.054 -0.09 0.53 -0.83 0.14
1 2.18 218 0.144 -8.864 3.917 -0.153 1.495 0.671 -1152.299 2392.591 -4377.148 -0.084 -0.072 0.107 -0.09 0.53 -0.83 0.14
1 2.19 219 0.177 -8.811 3.994 -0.092 1.160 0.885 -1152.299 2392.591 -4377.148 -0.116 -0.125 0.029 -0.09 0.53 -0.83 0.14
1 2.20 220 0.125 -8.931 4.003 -0.244 1.282 2.014 -1137.309 2272.520 -4392.139 -0.064 -0.006 0.019 -0.09 0.53 -0.83 0.14
1 2.21 221 0.187 -8.950 3.994 -0.031 1.648 1.038 -1137.309 2272.520 -4392.139 -0.126 0.013 0.027 -0.09 0.53 -0.83 0.14
1 2.22 222 0.067 -9.098 4.075 0.000 2.014 1.526 -1167.290 2347.471 -4287.057 -0.007 0.161 -0.055 -0.09 0.53 -0.83 0.14
1 2.23 223 0.024 -9.055 3.984 0.000 1.923 0.824 -1107.329 2167.588 -4257.077 0.035 0.118 0.036 -0.09 0.53 -0.83 0.14
1 2.24 224 0.192 -8.964 3.975 0.122 1.892 0.977 -1152.299 2362.461 -4302.047 -0.134 0.027 0.045 -0.09 0.53 -0.83 0.14
1 2.25 225 0.010 -8.983 4.003 0.702 1.434 1.587 -957.276 2227.549 -4212.106 0.047 0.046 0.016 -0.09 0.53 -0.83 0.14
1 2.26 226 0.105 -9.050 4.018 1.190 1.526 1.709 -957.276 2227.549 -4212.106 -0.048 0.112 0.001 -0.09 0.54 -0.83 0.14
1 2.27 227 0.053 -8.868 3.927 1.190 1.770 1.923 -1077.348 2212.559 -4437.109 0.001 -0.069 0.093 -0.09 0.54 -0.83 0.14
1 2.28 228 0.048 -8.888 4.008 1.312 1.709 1.831 -1077.348 2212.559 -4437.109 0.004 -0.049 0.013 -0.09 0.54 -0.83 0.14
1 2.29 229 0.038 -8.926 3.912 1.434 1.129 1.434 -1062.358 2302.500 -4347.018 0.011 -0.011 0.110 -0.09 0.54 -0.83 0.14
1 2.30 230 0.010 -8.854 3.936 1.709 0.885 2.106 -987.257 2302.500 -4287.057 0.039 -0.082 0.086 -0.09 0.54 -0.83 0.14
1 2.31 231 0.101 -8.912 3.979 1.343 0.671 2.106 -927.296 2212.559 -4227.096 -0.055 -0.024 0.045 -0.09 0.53 -0.83 0.14
1 2.32 232 0.110 -8.998 4.013 1.740 0.549 2.045 -1002.247 2317.490 -4377.148 -0.066 0.063 0.012 -0.09 0.53 -0.83 0.14
1 2.33 233 0.072 -8.835 4.018 0.977 0.824 1.953 -1002.247 2317.490 -4377.148 -0.029 -0.100 0.009 -0.09 0.53 -0.83 0.14
1 2.34 234 -0.053 -8.902 4.065 0.885 0.214 1.465 -1107.329 2167.588 -4332.028 0.094 -0.032 -0.038 -0.09 0.53 -0.83 0.14
1 2.35 235 0.014 -8.892 3.955 1.221 0.458 1.251 -1107.329 2167.588 -4332.028 0.027 -0.041 0.073 -0.09 0.53 -0.83 0.14
1 2.36 236 0.110 -8.868 3.946 1.648 0.305 1.617 -1017.387 2197.568 -4242.086 -0.070 -0.065 0.083 -0.09 0.53 -0.83 0.14
1 2.37 237 0.038 -9.003 3.936 1.617 0.214 1.587 -1017.387 2197.568 -4287.057 0.001 0.070 0.094 -0.09 0.53 -0.83 0.14
1 2.38 238 0.096 -8.935 4.137 1.160 0.305 1.587 -972.267 2287.510 -4377.148 -0.057 0.003 -0.107 -0.09 0.53 -0.83 0.14
1 2.39 239 0.187 -8.801 4.089 1.068 0.336 1.923 -957.276 2422.572 -4287.057 -0.148 -0.131 -0.057 -0.09 0.53 -0.83 0.14
1 2.40 240 -0.010 -8.892 3.922 1.221 0.366 1.495 -957.276 2422.572 -4287.057 0.048 -0.039 0.111 -0.09 0.53 -0.83 0.14
1 2.41 241 0.148 -8.821 3.989 1.099 0.061 1.678 -972.267 2392.591 -4377.148 -0.110 -0.111 0.045 -0.09 0.53 -0.83 0.14
1 2.42 242 0.115 -8.897 3.951 0.702 -0.092 1.404 -972.267 2392.591 -4377.148 -0.076 -0.034 0.083 -0.09 0.53 -0.83 0.14
1 2.43 243 0.187 -8.825 4.037 0.549 0.244 1.129 -927.296 2287.510 -4332.028 -0.147 -0.106 -0.003 -0.09 0.53 -0.83 0.14
1 2.44 244 0.062 -8.873 4.075 0.336 0.427 1.007 -1017.387 2272.520 -4317.038 -0.022 -0.058 -0.042 -0.09 0.53 -0.83 0.14
1 2.45 245 0.182 -8.873 4.046 0.916 0.183 1.709 -1047.368 2392.591 -4407.129 -0.142 -0.058 -0.012 -0.09 0.53 -0.83 0.14
1 2.46 246 0.010 -8.811 4.027 0.916 0.580 1.373 -1077.348 2512.513 -4377.148 0.031 -0.120 0.007 -0.09 0.53 -0.83 0.14
1 2.47 247 0.019 -8.892 4.037 0.488 1.129 1.801 -1077.348 2512.513 -4377.148 0.021 -0.039 -0.003 -0.09 0.53 -0.83 0.14
1 2.48 248 0.034 -8.921 3.975 0.549 1.190 1.526 -1017.387 2347.471 -4212.106 0.004 -0.009 0.061 -0.09 0.53 -0.83 0.14
1 2.49 249 0.043 -8.816 4.027 -0.183 1.831 -0.275 -1017.387 2347.471 -4212.106 -0.006 -0.115 0.008 -0.09 0.53 -0.83 0.14
1 2.50 250 0.053 -8.979 4.037 -0.519 2.747 1.831 -1107.329 2167.588 -4332.028 -0.015 0.048 -0.002 -0.09 0.53 -0.83 0.14
1 2.51 251 -0.019 -8.969 4.018 0.488 1.892 1.587 -1077.348 2287.510 -4092.034 0.055 0.038 0.016 -0.09 0.53 -0.83 0.14
1 2.52 252 0.125 -8.969 4.042 1.221 1.831 1.007 -1017.387 2347.471 -4287.057 -0.090 0.038 -0.008 -0.09 0.53 -0.83 0.14
1 2.53 253 0.077 -9.012 3.994 0.244 2.899 1.648 -1092.338 2302.500 -4242.086 -0.043 0.081 0.040 -0.09 0.53 -0.83 0.14
1 2.54 254 0.244 -8.907 3.970 -0.031 3.418 0.946 -1092.338 2302.500 -4242.086 -0.212 -0.024 0.064 -0.09 0.53 -0.83 0.14
1 2.55 255 0.158 -8.912 3.955 0.458 4.181 1.770 -1017.387 2347.471 -4392.139 -0.127 -0.020 0.079 -0.09 0.53 -0.83 0.14
1 2.56 256 0.134 -9.089 4.022 0.092 3.723 0.458 -1017.387 2347.471 -4392.139 -0.105 0.158 0.012 -0.09 0.53 -0.83 0.14
1 2.57 257 0.038 -8.907 3.979 0.488 4.120 0.763 -1017.387 2227.549 -4392.139 -0.010 -0.024 0.055 -0.09 0.54 -0.83 0.14
1 2.58 258 0.014 -8.797 4.037 0.549 4.303 0.519 -882.325 2377.601 -4392.139 0.012 -0.134 -0.002 -0.09 0.54 -0.83 0.13
1 2.59 259 0.024 -8.945 4.008 0.763 4.913 0.458 -972.267 2362.461 -4227.096 0.002 0.015 0.028 -0.09 0.54 -0.83 0.13
1 2.60 260 -0.091 -8.916 4.022 0.549 4.211 0.854 -1017.387 2347.471 -4287.057 0.115 -0.014 0.014 -0.09 0.54 -0.83 0.13
1 2.61 261 0.029 -8.964 4.056 0.702 4.883 0.793 -1017.387 2347.471 -4287.057 -0.007 0.034 -0.020 -0.09 0.54 -0.83 0.13
1 2.62 262 -0.081 -8.873 4.061 1.099 5.035 0.854 -1017.387 2347.471 -4242.086 0.100 -0.057 -0.024 -0.09 0.54 -0.83 0.13
1 2.63 263 0.057 -8.912 4.042 1.678 4.913 0.519 -1017.387 2347.471 -4242.086 -0.044 -0.017 -0.002 -0.09 0.54 -0.83 0.13
1 2.64 264 0.043 -8.921 4.051 1.373 5.646 0.488 -1017.387 2227.549 -4287.057 -0.032 -0.007 -0.010 -0.09 0.54 -0.83 0.13
1 2.65 265 0.043 -8.873 4.056 1.282 5.157 0.214 -957.276 2272.520 -4347.018 -0.034 -0.054 -0.014 -0.09 0.54 -0.83 0.13
1 2.66 266 0.010 -8.849 4.070 1.556 5.219 0.763 -957.276 2272.520 -4347.018 -0.002 -0.077 -0.026 -0.09 0.54 -0.83 0.13
1 2.67 267 -0.005 -8.959 3.898 0.641 6.531 0.885 -1002.247 2212.559 -4332.028 0.011 0.033 0.147 -0.09 0.54 -0.83 0.13
1 2.68 268 0.077 -8.830 3.984 0.214 6.195 0.153 -1002.247 2212.559 -4332.028 -0.073 -0.096 0.062 -0.08 0.54 -0.83 0.13
1 2.69 269 0.057 -8.912 4.099 0.610 6.195 -0.092 -837.354 2347.471 -4392.139 -0.057 -0.015 -0.054 -0.08 0.54 -0.83 0.13
1 2.70 270 0.048 -9.036 4.065 0.854 6.317 -0.183 -837.354 2347.471 -4392.139 -0.050 0.110 -0.019 -0.08 0.54 -0.83 0.13
1 2.71 271 -0.034 -8.888 4.018 0.092 6.195 -0.366 -987.257 2197.568 -4242.086 0.030 -0.038 0.028 -0.08 0.54 -0.83 0.13
1 2.72 272 -0.081 -8.892 4.137 0.183 6.500 -0.244 -927.296 2317.490 -4377.148 0.077 -0.033 -0.091 -0.08 0.54 -0.83 0.13
1 2.73 273 -0.057 -8.849 4.085 1.404 7.050 0.244 -927.296 2317.490 -4377.148 0.050 -0.076 -0.038 -0.08 0.54 -0.83 0.13
1 2.74 274 -0.048 -8.835 4.118 0.000 7.904 0.183 -837.354 2347.471 -4287.057 0.038 -0.090 -0.069 -0.08 0.54 -0.83 0.13
1 2.75 275 0.038 -8.739 4.042 -0.061 8.514 0.427 -837.354 2347.471 -4287.057 -0.051 -0.185 0.008 -0.08 0.54 -0.83 0.13
1 2.76 276 0.134 -8.830 4.113 0.031 9.705 -1.434 -1017.387 2377.601 -4392.139 -0.151 -0.094 -0.064 -0.08 0.54 -0.83 0.13
1 2.77 277 -0.081 -8.677 4.113 -0.275 10.040 -0.244 -1017.387 2377.601 -4392.139 0.063 -0.247 -0.064 -0.08 0.54 -0.83 0.13
1 2.78 278 0.091 -8.658 4.195 -0.580 10.986 -2.228 -1017.387 2347.471 -4347.018 -0.116 -0.266 -0.145 -0.08 0.54 -0.83 0.13
1 2.79 279 -0.120 -8.816 4.156 -0.671 11.322 -3.052 -972.267 2242.539 -4257.077 0.094 -0.108 -0.106 -0.08 0.54 -0.83 0.13
1 2.80 280 0.010 -8.710 4.204 -0.824 12.054 -3.174 -972.267 2242.539 -4257.077 -0.037 -0.213 -0.154 -0.08 0.54 -0.83 0.12
1 2.81 281 0.000 -8.782 4.070 -1.495 12.543 -3.021 -777.394 2272.520 -4287.057 -0.029 -0.142 -0.020 -0.08 0.54 -0.83 0.12
1 2.82 282 -0.005 -8.835 4.204 -0.916 12.299 -5.615 -777.394 2272.520 -4287.057 -0.025 -0.090 -0.156 -0.08 0.54 -0.83 0.12
1 2.83 283 0.101 -8.677 4.190 -1.190 12.939 -5.371 -927.296 2287.510 -4257.077 -0.129 -0.248 -0.142 -0.08 0.54 -0.83 0.12
1 2.84 284 -0.091 -8.710 4.061 -1.190 13.397 -5.157 -927.296 2287.510 -4257.077 0.063 -0.215 -0.013 -0.08 0.54 -0.83 0.12
1 2.85 285 -0.129 -8.725 4.075 -1.556 12.543 -5.280 -957.276 2272.520 -4242.086 0.103 -0.201 -0.030 -0.07 0.54 -0.83 0.12
1 2.86 286 -0.134 -8.763 4.113 -1.740 12.756 -6.805 -972.267 2242.539 -4332.028 0.110 -0.164 -0.070 -0.07 0.54 -0.83 0.12
1 2.87 287 -0.215 -8.816 4.113 -2.411 13.214 -6.226 -972.267 2242.539 -4332.028 0.194 -0.112 -0.072 -0.07 0.54 -0.83 0.12
1 2.88 288 -0.062 -8.725 3.975 -2.747 12.268 -6.500 -927.296 2467.542 -4152.145 0.043 -0.204 0.064 -0.07 0.54 -0.83 0.12
1 2.89 289 0.038 -8.787 3.941 -3.601 12.146 -7.141 -927.296 2467.542 -4152.145 -0.055 -0.144 0.094 -0.07 0.54 -0.83 0.11
1 2.90 290 -0.062 -8.777 4.176 -3.601 11.841 -5.096 -912.306 2377.601 -4317.038 0.050 -0.156 -0.146 -0.07 0.54 -0.83 0.11
1 2.91 291 -0.081 -8.931 4.137 -4.608 12.695 -5.554 -912.306 2377.601 -4317.038 0.070 -0.005 -0.112 -0.07 0.54 -0.83 0.11
1 2.92 292 0.120 -9.041 3.975 -3.265 13.214 -4.425 -777.394 2197.568 -4317.038 -0.130 0.101 0.040 -0.07 0.54 -0.83 0.11
1 2.93 293 0.010 -9.084 3.975 -0.488 13.275 -5.737 -867.335 2287.510 -4377.148 -0.019 0.142 0.036 -0.07 0.54 -0.83 0.11
1 2.94 294 0.220 -8.672 4.003 -0.977 13.153 -5.127 -867.335 2287.510 -4377.148 -0.228 -0.270 0.006 -0.07 0.54 -0.83 0.11
1 2.95 295 0.072 -8.959 3.931 -2.747 13.672 -4.852 -867.335 2362.461 -4122.015 -0.077 0.016 0.076 -0.07 0.54 -0.83 0.11
1 2.96 296 -0.215 -8.988 3.946 -4.608 13.641 -3.693 -777.394 2347.471 -4287.057 0.211 0.043 0.057 -0.07 0.54 -0.83 0.11
1 2.97 297 -0.177 -9.113 3.754 -2.625 12.451 -3.571 -732.273 2272.520 -4347.018 0.171 0.164 0.241 -0.07 0.54 -0.83 0.11
1 2.98 298 -0.206 -9.156 3.773 -0.946 11.810 -4.578 -732.273 2272.520 -4347.018 0.197 0.205 0.216 -0.07 0.54 -0.83 0.11
1 2.99 299 -0.283 -9.223 3.788 0.275 11.627 -3.571 -972.267 2317.490 -4302.047 0.269 0.269 0.195 -0.07 0.54 -0.83 0.1
1 3.00 300 -0.354 -9.156 3.635 -2.167 10.834 -3.265 -792.384 2362.461 -4197.116 0.338 0.200 0.344 -0.07 0.54 -0.83 0.1
1 3.01 301 -0.508 -9.247 3.601 -2.502 11.047 -3.265 -792.384 2362.461 -4197.116 0.488 0.288 0.371 -0.07 0.54 -0.83 0.1
1 3.02 302 -0.335 -9.309 3.577 -0.549 11.169 -2.625 -747.263 2392.591 -4407.129 0.311 0.347 0.388 -0.06 0.54 -0.83 0.1
1 3.03 303 -0.479 -9.103 3.472 2.319 10.681 -1.862 -777.394 2347.471 -4212.106 0.451 0.139 0.490 -0.06 0.54 -0.83 0.1
1 3.04 304 -0.474 -9.012 3.352 0.183 10.315 -3.296 -657.322 2272.520 -4347.018 0.440 0.048 0.608 -0.06 0.54 -0.83 0.1
1 3.05 305 -0.484 -9.046 3.309 -1.587 8.728 -3.143 -657.322 2272.520 -4347.018 0.446 0.080 0.648 -0.06 0.54 -0.83 0.1
1 3.06 306 -0.536 -9.175 3.261 -1.801 6.470 -1.587 -702.292 2227.549 -4212.106 0.496 0.207 0.690 -0.06 0.54 -0.83 0.1
1 3.07 307 -0.493 -9.242 3.127 -2.319 5.035 -1.007 -807.374 2377.601 -4287.057 0.446 0.267 0.808 -0.06 0.54 -0.83 0.1
1 3.08 308 -0.599 -9.275 3.117 -1.831 2.563 -1.221 -807.374 2377.601 -4287.057 0.550 0.296 0.808 -0.06 0.54 -0.83 0.1
1 3.09 309 -0.589 -9.256 3.156 -3.174 1.343 -0.122 -747.263 2287.510 -4197.116 0.538 0.273 0.761 -0.06 0.54 -0.83 0.1
1 3.10 310 -0.560 -9.343 3.175 -5.829 0.519 0.427 -912.306 2227.549 -4182.125 0.506 0.355 0.731 -0.06 0.54 -0.83 0.1
1 3.11 311 -0.469 -9.620 3.232 -5.005 -0.275 2.319 -822.364 2392.591 -4197.116 0.412 0.626 0.660 -0.06 0.55 -0.83 0.1
1 3.12 312 -0.464 -9.687 3.333 -4.517 0.305 3.815 -822.364 2392.591 -4197.116 0.402 0.688 0.546 -0.06 0.55 -0.83 0.1
1 3.13 313 -0.311 -9.668 3.299 -2.625 0.519 4.761 -822.364 2467.542 -4227.096 0.242 0.664 0.568 -0.06 0.55 -0.83 0.1
1 3.14 314 -0.125 -9.486 3.338 0.122 1.678 6.073 -837.354 2302.500 -4212.106 0.038 0.475 0.513 -0.06 0.55 -0.83 0.1
1 3.15 315 -0.249 -9.280 3.175 1.068 1.129 6.042 -837.354 2302.500 -4212.106 0.154 0.267 0.671 -0.06 0.55 -0.83 0.1
1 3.16 316 -0.115 -9.237 3.275 -0.275 0.977 6.012 -777.394 2377.601 -4182.125 0.013 0.222 0.566 -0.06 0.55 -0.83 0.1
1 3.17 317 -0.034 -9.252 3.247 -1.678 2.167 5.920 -807.374 2377.601 -4182.125 -0.076 0.234 0.589 -0.06 0.55 -0.83 0.1
1 3.18 318 -0.192 -9.275 3.160 -1.282 1.526 6.866 -717.283 2437.562 -4302.047 0.074 0.255 0.667 -0.06 0.55 -0.83 0.1
1 3.19 319 -0.187 -9.285 3.122 -1.007 0.702 6.287 -717.283 2437.562 -4302.047 0.061 0.262 0.699 -0.06 0.55 -0.83 0.1
1 3.20 320 -0.201 -9.252 3.084 0.610 -0.549 5.524 -867.335 2242.539 -4227.096 0.067 0.225 0.730 -0.06 0.55 -0.83 0.1
1 3.21 321 -0.034 -9.122 3.146 1.190 -2.380 4.791 -717.283 2362.461 -4152.145 -0.112 0.092 0.658 -0.06 0.55 -0.83 0.1
1 3.22 322 -0.335 -9.046 2.974 -1.190 -3.174 4.608 -717.283 2362.461 -4152.145 0.185 0.014 0.827 -0.06 0.55 -0.83 0.1
1 3.23 323 -0.450 -9.218 3.026 -1.862 -4.211 3.479 -897.315 2287.510 -4152.145 0.297 0.183 0.767 -0.06 0.55 -0.83 0.1
1 3.24 324 -0.364 -9.170 2.978 -1.343 -5.829 2.625 -777.394 2347.471 -4287.057 0.210 0.132 0.806 -0.06 0.55 -0.83 0.1
1 3.25 325 -0.445 -9.189 3.113 0.458 -7.843 1.984 -792.384 2362.461 -4302.047 0.291 0.148 0.665 -0.06 0.55 -0.83 0.1
1 3.26 326 -0.469 -9.089 3.069 1.038 -8.667 1.556 -792.384 2362.461 -4302.047 0.316 0.045 0.703 -0.06 0.55 -0.83 0.11
1 3.27 327 -0.441 -9.127 2.955 0.885 -8.911 1.373 -627.341 2422.572 -4107.024 0.289 0.082 0.814 -0.06 0.55 -0.83 0.11
1 3.28 328 -0.488 -9.371 3.012 1.465 -10.834 1.770 -732.273 2272.520 -4182.125 0.342 0.323 0.749 -0.06 0.55 -0.82 0.11
1 3.29 329 -0.474 -9.127 2.931 1.740 -12.299 0.702 -732.273 2272.520 -4182.125 0.333 0.077 0.827 -0.06 0.55 -0.82 0.11
1 3.30 330 -0.431 -9.184 2.926 2.228 -13.245 1.099 -732.273 2347.471 -4062.054 0.295 0.133 0.828 -0.06 0.55 -0.82 0.11
1 3.31 331 -0.426 -9.199 2.916 2.899 -14.221 0.824 -822.364 2317.490 -4332.028 0.296 0.146 0.835 -0.06 0.55 -0.82 0.11
1 3.32 332 -0.651 -9.165 2.926 3.967 -15.900 0.793 -687.302 2242.539 -4257.077 0.527 0.112 0.824 -0.07 0.55 -0.82 0.11
1 3.33 333 -0.517 -9.237 2.878 2.899 -17.029 0.885 -687.302 2242.539 -4257.077 0.399 0.183 0.871 -0.07 0.55 -0.82 0.11
1 3.34 334 -0.508 -9.170 2.983 2.197 -18.524 0.702 -627.341 2377.601 -4242.086 0.397 0.116 0.764 -0.07 0.55 -0.82 0.11
1 3.35 335 -0.527 -9.228 2.983 2.533 -19.318 0.885 -882.325 2377.601 -4242.086 0.424 0.172 0.762 -0.07 0.55 -0.82 0.11
1 3.36 336 -0.335 -9.256 2.911 3.296 -20.996 1.526 -882.325 2377.601 -4242.086 0.250 0.198 0.828 -0.07 0.55 -0.82 0.11
1 3.37 337 -0.474 -9.228 2.926 3.876 -21.668 1.587 -792.384 2437.562 -4257.077 0.397 0.169 0.813 -0.07 0.55 -0.82 0.11
1 3.38 338 -0.407 -9.161 2.911 3.052 -20.569 2.686 -747.263 2392.591 -4122.015 0.339 0.102 0.826 -0.07 0.55 -0.82 0.11
1 3.39 339 -0.335 -9.261 3.036 2.930 -20.599 2.930 -897.315 2317.490 -4257.077 0.275 0.201 0.700 -0.07 0.55 -0.82 0.12
1 3.40 340 -0.211 -9.376 3.218 2.350 -16.449 4.883 -897.315 2317.490 -4257.077 0.156 0.315 0.516 -0.07 0.55 -0.82 0.12
1 3.41 341 -0.105 -9.390 3.141 2.533 -13.550 5.951 -927.296 2242.539 -4197.116 0.054 0.329 0.591 -0.08 0.55 -0.82 0.12
1 3.42 342 -0.048 -9.347 3.117 5.890 -11.627 5.920 -837.354 2347.471 -4137.155 -0.003 0.285 0.613 -0.08 0.55 -0.82 0.12
1 3.43 343 0.019 -9.266 3.261 6.653 -8.850 6.531 -837.354 2347.471 -4137.155 -0.070 0.207 0.476 -0.08 0.55 -0.82 0.12
1 3.44 344 0.129 -9.175 3.318 4.181 -6.714 5.798 -897.315 2287.510 -4227.096 -0.182 0.118 0.424 -0.08 0.55 -0.82 0.12
1 3.45 345 0.326 -9.252 3.347 2.380 -4.517 7.141 -897.315 2287.510 -4302.047 -0.380 0.195 0.397 -0.08 0.55 -0.82 0.12
1 3.46 346 0.297 -9.400 3.395 2.380 -3.479 7.751 -897.315 2287.510 -4302.047 -0.355 0.343 0.348 -0.08 0.55 -0.82 0.12
1 3.47 347 0.005 -9.429 3.160 4.883 -1.526 8.667 -912.306 2302.500 -4317.038 -0.067 0.372 0.583 -0.08 0.55 -0.82 0.12
1 3.48 348 -0.125 -9.127 3.022 3.845 0.214 8.942 -657.322 2302.500 -4182.125 0.055 0.071 0.724 -0.08 0.55 -0.82 0.12
1 3.49 349 -0.192 -9.323 2.964 1.190 1.221 9.705 -987.257 2197.568 -4212.106 0.112 0.268 0.782 -0.08 0.55 -0.82 0.12
1 3.50 350 -0.393 -9.381 2.840 -2.686 0.427 10.529 -987.257 2197.568 -4212.106 0.287 0.321 0.895 -0.08 0.55 -0.82 0.12
1 3.51 351 -0.646 -9.491 2.682 1.312 -0.946 11.322 -1017.387 2197.568 -4317.038 0.526 0.428 1.045 -0.08 0.55 -0.82 0.12
1 3.52 352 -0.771 -9.410 2.734 4.425 -1.923 11.597 -912.306 2527.503 -4137.155 0.634 0.345 0.987 -0.08 0.55 -0.82 0.12
1 3.53 353 -0.929 -9.204 2.686 5.096 -2.411 11.108 -912.306 2527.503 -4137.155 0.774 0.138 1.033 -0.07 0.55 -0.82 0.13
1 3.54 354 -1.111 -9.122 2.615 2.747 -4.456 11.719 -957.276 2272.520 -4242.086 0.938 0.057 1.104 -0.07 0.55 -0.82 0.13
1 3.55 355 -1.202 -9.070 2.461 0.458 -3.845 14.374 -882.325 2377.601 -4287.057 1.011 0.003 1.254 -0.07 0.55 -0.82 0.13
1 3.56 356 -1.283 -8.912 2.729 2.289 -4.639 13.611 -897.315 2287.510 -4197.116 1.070 -0.157 0.980 -0.07 0.55 -0.82 0.13
1 3.57 357 -1.417 -9.180 2.859 3.326 -3.693 15.900 -897.315 2287.510 -4197.116 1.181 0.109 0.843 -0.07 0.55 -0.82 0.13
1 3.58 358 -1.212 -9.280 5.109 -4.791 3.571 19.379 -882.325 2347.471 -4182.125 0.920 0.208 -1.414 -0.07 0.55 -0.82 0.13
1 3.59 359 -0.623 -10.013 5.636 -17.181 14.069 27.710 -897.315 2362.461 -4257.077 0.292 0.940 -1.948 -0.07 0.55 -0.82 0.13
1 3.60 360 -0.417 -11.138 4.564 -21.271 20.447 36.621 -897.315 2362.461 -4257.077 0.038 2.056 -0.902 -0.07 0.56 -0.82 0.13
1 3.61 361 0.704 -10.674 4.362 2.655 24.201 39.429 -987.257 2227.549 -4212.106 -1.146 1.583 -0.730 -0.07 0.56 -0.82 0.14
1 3.62 362 1.250 -9.831 4.516 15.656 21.240 35.065 -777.394 2272.520 -4137.155 -1.758 0.741 -0.889 -0.06 0.56 -0.82 0.14
1 3.63 363 1.298 -9.204 4.219 10.071 22.400 32.135 -882.325 2302.500 -4137.155 -1.868 0.124 -0.575 -0.06 0.56 -0.82 0.14
1 3.64 364 1.212 -9.223 4.214 -3.357 24.231 28.198 -882.325 2302.500 -4137.155 -1.831 0.153 -0.554 -0.06 0.56 -0.82 0.14
1 3.65 365 0.187 -9.735 3.716 -14.862 24.567 26.123 -717.283 2392.591 -4257.077 -0.881 0.665 -0.070 -0.05 0.56 -0.82 0.14
1 3.66 366 -0.795 -10.022 3.457 -11.108 21.545 22.064 -717.283 2242.539 -4197.116 0.064 0.946 0.165 -0.05 0.56 -0.82 0.14
1 3.67 367 -1.676 -9.989 3.256 -3.723 17.334 15.686 -717.283 2242.539 -4197.116 0.909 0.908 0.348 -0.05 0.56 -0.81 0.14
1 3.68 368 -2.217 -9.692 3.304 -5.768 7.782 8.667 -597.361 2197.568 -4137.155 1.419 0.610 0.289 -0.05 0.56 -0.81 0.14
1 3.69 369 -2.236 -9.395 3.213 -10.529 2.106 2.014 -717.283 2242.539 -4197.116 1.413 0.311 0.369 -0.05 0.56 -0.81 0.14
1 3.70 370 -2.404 -9.505 3.184 -13.092 -1.343 -2.960 -642.332 2212.559 -4122.015 1.564 0.415 0.379 -0.05 0.56 -0.81 0.14
1 3.71 371 -2.251 -9.419 3.318 -9.674 -5.859 -7.019 -642.332 2212.559 -4122.015 1.403 0.321 0.223 -0.05 0.56 -0.81 0.14
1 3.72 372 -1.959 -9.065 3.534 -5.463 -12.817 -11.261 -717.283 2317.490 -4092.034 1.122 -0.046 -0.022 -0.05 0.56 -0.81 0.14
1 3.73 373 -1.547 -8.912 3.596 -8.148 -15.106 -12.543 -597.361 2377.601 -4182.125 0.727 -0.204 -0.092 -0.05 0.56 -0.81 0.14
1 3.74 374 -1.020 -9.108 3.874 -11.383 -18.799 -9.369 -597.361 2377.601 -4182.125 0.220 -0.013 -0.380 -0.05 0.57 -0.81 0.14
1 3.75 375 -0.685 -9.026 3.826 -12.787 -21.912 -5.432 -792.384 2512.513 -4197.116 -0.094 -0.101 -0.344 -0.05 0.57 -0.81 0.14
1 3.76 376 -0.172 -8.998 4.156 -7.721 -20.722 0.000 -717.283 2392.591 -4047.063 -0.586 -0.136 -0.687 -0.05 0.57 -0.81 0.14
1 3.77 377 -0.201 -8.792 4.190 -2.014 -19.989 1.953 -702.292 2422.572 -4002.093 -0.541 -0.346 -0.727 -0.05 0.57 -0.81 0.14
1 3.78 378 -0.120 -8.351 4.276 -1.373 -18.799 1.831 -702.292 2422.572 -4002.093 -0.607 -0.787 -0.811 -0.06 0.57 -0.81 0.15
1 3.79 379 -0.273 -8.021 4.425 -5.035 -17.700 5.951 -807.374 2302.500 -4062.054 -0.433 -1.115 -0.949 -0.06 0.57 -0.81 0.15
1 3.80 380 -0.125 -7.983 4.501 -8.637 -16.663 6.317 -972.267 2362.461 -4197.116 -0.576 -1.153 -1.025 -0.06 0.56 -0.81 0.15
1 3.81 381 -0.148 -7.992 4.516 -11.688 -13.855 8.423 -972.267 2362.461 -4197.116 -0.547 -1.145 -1.042 -0.06 0.56 -0.81 0.15
1 3.82 382 -0.158 -8.174 4.607 -13.886 -12.543 7.996 -702.292 2377.601 -4002.093 -0.536 -0.965 -1.138 -0.06 0.57 -0.81 0.15
1 3.83 383 -0.215 -8.404 4.583 -6.531 -12.573 10.101 -747.263 2287.510 -4092.034 -0.478 -0.738 -1.121 -0.06 0.57 -0.81 0.15
1 3.84 384 -0.239 -8.236 4.856 -4.608 -11.292 10.956 -687.302 2392.591 -4017.083 -0.457 -0.905 -1.394 -0.06 0.57 -0.81 0.15
1 3.85 385 -0.010 -8.361 4.803 -4.883 -10.376 11.566 -687.302 2392.591 -4017.083 -0.690 -0.779 -1.338 -0.06 0.57 -0.81 0.15
1 3.86 386 0.086 -8.399 4.702 -7.446 -9.735 10.620 -702.292 2377.601 -4002.093 -0.790 -0.739 -1.232 -0.06 0.56 -0.81 0.15
1 3.87 387 0.182 -8.332 4.525 -4.822 -7.813 10.498 -837.354 2422.572 -4062.054 -0.891 -0.804 -1.052 -0.06 0.56 -0.81 0.16
1 3.88 388 0.192 -8.131 4.291 -3.448 -5.768 10.132 -837.354 2422.572 -4062.054 -0.903 -1.004 -0.813 -0.06 0.56 -0.81 0.16
1 3.89 389 -0.120 -8.136 4.171 -5.035 -3.357 8.545 -897.315 2437.562 -4152.145 -0.594 -0.997 -0.690 -0.06 0.56 -0.81 0.16
1 3.90 390 -0.120 -8.346 4.113 -7.965 -3.143 6.744 -897.315 2317.490 -4047.063 -0.597 -0.787 -0.633 -0.06 0.56 -0.81 0.16
1 3.91 391 -0.388 -8.667 3.888 -13.489 -3.479 3.326 -912.306 2452.552 -4062.054 -0.330 -0.468 -0.414 -0.07 0.56 -0.81 0.16
1 3.92 392 -0.101 -8.883 3.955 -15.900 -3.540 0.305 -912.306 2452.552 -4062.054 -0.616 -0.257 -0.493 -0.07 0.56 -0.81 0.16
1 3.93 393 -0.297 -9.089 3.874 -13.916 -3.906 -0.214 -958.026 2453.452 -3954.874 -0.414 -0.059 -0.430 -0.07 0.57 -0.81 0.16
1 3.94 394 -0.230 -9.247 3.898 -10.742 -5.219 -1.953 -988.006 2453.452 -4134.906 -0.463 0.087 -0.484 -0.07 0.57 -0.81 0.16
1 3.95 395 -0.522 -9.266 3.975 -11.231 -7.477 -2.838 -988.006 2453.452 -4134.906 -0.160 0.101 -0.573 -0.07 0.57 -0.81 0.16
1 3.96 396 -0.488 -9.414 3.931 -11.902 -9.308 -3.479 -958.026 2423.471 -3999.844 -0.181 0.243 -0.542 -0.07 0.57 -0.8 0.16
1 3.97 397 -0.287 -9.352 3.917 -10.681 -10.620 -4.852 -958.026 2423.471 -3999.844 -0.368 0.175 -0.541 -0.07 0.57 -0.8 0.16
1 3.98 398 -0.206 -9.472 3.840 -6.287 -13.763 -4.089 -883.075 2453.452 -4059.805 -0.432 0.290 -0.475 -0.07 0.57 -0.8 0.16
1 3.99 399 -0.230 -9.247 3.611 -4.303 -15.533 -4.242 -883.075 2453.452 -4059.805 -0.391 0.062 -0.251 -0.07 0.57 -0.8 0.16
1 4.00 400 -0.268 -8.964 3.639 -2.960 -15.595 -4.059 -883.075 2423.471 -4029.825 -0.333 -0.224 -0.283 -0.07 0.57 -0.8 0.16
1 4.01 401 -0.096 -9.103 3.424 -2.563 -15.839 -4.822 -868.084 2393.491 -4044.815 -0.469 -0.088 -0.070 -0.08 0.57 -0.8 0.16
1 4.02 402 -0.043 -8.888 3.491 -2.655 -15.961 -3.998 -868.084 2393.491 -4044.815 -0.502 -0.305 -0.140 -0.08 0.57 -0.8 0.16
1 4.03 403 0.206 -8.940 3.453 -2.197 -14.832 -5.493 -883.075 2498.422 -4029.825 -0.732 -0.254 -0.103 -0.08 0.57 -0.8 0.16
1 4.04 404 0.125 -9.050 3.582 -1.495 -14.984 -5.493 -883.075 2498.422 -4029.825 -0.629 -0.146 -0.234 -0.08 0.57 -0.8 0.16
1 4.05 405 0.292 -9.003 3.472 -2.319 -12.848 -6.592 -1153.049 2438.461 -4089.786 -0.774 -0.195 -0.124 -0.08 0.57 -0.8 0.16
1 4.06 406 0.393 -9.122 3.467 -1.770 -11.414 -6.989 -1153.049 2438.461 -4089.786 -0.851 -0.077 -0.120 -0.08 0.57 -0.8 0.16
1 4.07 407 0.287 -8.998 3.448 -0.641 -8.148 -6.897 -973.016 2468.442 -4089.786 -0.723 -0.203 -0.101 -0.09 0.57 -0.8 0.16
1 4.08 408 0.326 -9.065 3.424 -0.244 -6.439 -7.538 -1048.117 2363.510 -4014.834 -0.719 -0.137 -0.076 -0.09 0.57 -0.8 0.16
1 4.09 409 0.263 -9.022 3.510 -0.793 -2.411 -6.836 -1048.117 2363.510 -4014.834 -0.637 -0.181 -0.163 -0.09 0.57 -0.8 0.16
1 4.10 410 0.129 -9.113 3.424 -0.305 -1.343 -6.653 -1002.997 2438.461 -4044.815 -0.485 -0.091 -0.076 -0.09 0.57 -0.8 0.16
1 4.11 411 0.057 -9.108 3.433 0.549 -0.061 -6.348 -1002.997 2438.461 -4044.815 -0.399 -0.096 -0.086 -0.09 0.57 -0.8 0.16
1 4.12 412 0.134 -9.122 3.419 1.617 3.021 -5.249 -1017.987 2378.500 -4029.825 -0.463 -0.082 -0.070 -0.09 0.57 -0.8 0.16
1 4.13 413 0.101 -9.041 3.357 1.282 6.226 -5.157 -1017.987 2378.500 -4029.825 -0.418 -0.163 -0.005 -0.09 0.57 -0.8 0.16
1 4.14 414 0.000 -9.017 3.261 1.007 8.118 -4.730 -1017.987 2423.471 -4134.906 -0.308 -0.186 0.093 -0.09 0.57 -0.8 0.16
1 4.15 415 0.196 -8.964 3.266 0.793 9.430 -6.317 -1078.098 2513.413 -3864.782 -0.496 -0.239 0.089 -0.09 0.57 -0.8 0.15
1 4.16 416 0.297 -8.964 3.079 0.763 9.613 -6.775 -1078.098 2513.413 -3864.782 -0.580 -0.239 0.277 -0.09 0.57 -0.8 0.15
1 4.17 417 0.397 -8.921 2.911 0.916 12.024 -7.385 -1048.117 2543.393 -4119.766 -0.670 -0.282 0.444 -0.09 0.57 -0.81 0.15
1 4.18 418 0.345 -8.892 2.945 2.319 15.167 -7.965 -1048.117 2543.393 -4119.766 -0.607 -0.312 0.409 -0.09 0.57 -0.81 0.15
1 4.19 419 0.292 -8.883 2.696 1.190 16.571 -7.172 -1108.078 2438.461 -3864.782 -0.546 -0.322 0.658 -0.09 0.57 -0.81 0.15
1 4.20 420 0.479 -8.744 2.777 -1.831 21.240 -8.270 -1108.078 2438.461 -3864.782 -0.725 -0.462 0.572 -0.09 0.57 -0.81 0.15
1 4.21 421 0.431 -8.821 2.782 -2.319 24.109 -5.981 -1017.987 2303.399 -3924.893 -0.669 -0.388 0.562 -0.09 0.57 -0.81 0.15
1 4.22 422 0.402 -8.912 2.715 -4.059 26.062 -7.263 -988.006 2303.399 -3954.874 -0.636 -0.300 0.622 -0.09 0.57 -0.81 0.15
1 4.23 423 0.637 -8.773 2.691 -3.784 31.525 -8.026 -988.006 2303.399 -3954.874 -0.866 -0.447 0.623 -0.09 0.57 -0.81 0.14
1 4.24 424 0.455 -9.165 2.677 -4.730 32.013 -6.348 -1093.088 2498.422 -4059.805 -0.682 -0.059 0.625 -0.08 0.57 -0.81 0.14
1 4.25 425 0.426 -9.323 2.729 -6.683 32.898 -7.690 -1093.088 2498.422 -4059.805 -0.653 0.094 0.559 -0.08 0.57 -0.81 0.14
1 4.26 426 0.464 -9.491 2.878 -5.890 33.386 -10.071 -1093.088 2423.471 -3954.874 -0.689 0.257 0.396 -0.08 0.57 -0.81 0.14
1 4.27 427 0.378 -9.611 3.022 -0.854 32.135 -11.383 -883.075 2528.403 -4104.776 -0.597 0.372 0.240 -0.08 0.57 -0.81 0.13
1 4.28 428 0.120 -9.639 3.261 1.221 29.907 -11.505 -898.065 2393.491 -3939.883 -0.332 0.398 -0.006 -0.08 0.57 -0.81 0.13
1 4.29 429 0.144 -9.649 3.467 2.655 23.132 -13.641 -1017.987 2498.422 -3894.913 -0.349 0.407 -0.215 -0.08 0.57 -0.81 0.13
1 4.30 430 -0.158 -9.898 3.280 8.698 18.799 -9.003 -1017.987 2498.422 -3894.913 -0.028 0.659 -0.019 -0.08 0.57 -0.81 0.12
1 4.31 431 -0.364 -9.620 3.362 9.155 17.151 -11.566 -988.006 2498.422 -4059.805 0.185 0.386 -0.086 -0.08 0.57 -0.81 0.12
1 4.32 432 -0.713 -9.596 3.443 8.942 14.648 -9.735 -988.006 2498.422 -4059.805 0.543 0.366 -0.155 -0.08 0.57 -0.81 0.12
1 4.33 433 -0.776 -9.539 3.304 10.376 9.491 -7.263 -898.065 2513.413 -3969.864 0.610 0.313 -0.004 -0.08 0.57 -0.81 0.12
1 4.34 434 -0.776 -9.285 3.194 13.092 6.287 -4.089 -868.084 2468.442 -3969.864 0.612 0.064 0.120 -0.07 0.57 -0.81 0.12
1 4.35 435 -0.685 -9.424 3.060 11.292 7.568 -2.472 -913.055 2453.452 -3999.844 0.521 0.208 0.269 -0.07 0.57 -0.81 0.12
1 4.36 436 -0.733 -9.424 2.787 7.721 7.599 1.160 -823.114 2363.510 -3939.883 0.567 0.214 0.557 -0.07 0.57 -0.81 0.12
1 4.37 437 -0.316 -9.615 2.543 3.662 6.592 3.906 -823.114 2363.510 -3939.883 0.143 0.408 0.809 -0.07 0.57 -0.81 0.12
1 4.38 438 0.005 -9.817 2.476 -0.061 6.500 6.378 -868.084 2438.461 -4014.834 -0.197 0.608 0.873 -0.07 0.57 -0.81 0.12
1 4.39 439 0.225 -9.912 2.514 0.153 8.484 7.782 -868.084 2438.461 -4014.834 -0.428 0.702 0.828 -0.07 0.57 -0.81 0.12
1 4.40 440 0.522 -10.056 2.658 0.427 8.392 7.813 -1002.997 2393.491 -3939.883 -0.735 0.843 0.677 -0.07 0.57 -0.81 0.12
1 4.41 441 0.393 -10.525 4.535 -3.235 -0.610 1.678 -913.055 2453.452 -3849.792 -0.613 1.310 -1.207 -0.07 0.57 -0.81 0.12
1 4.42 442 0.445 -11.258 3.778 -11.231 -13.702 -8.484 -808.124 2423.471 -4104.776 -0.666 2.041 -0.456 -0.07 0.57 -0.81 0.12
1 4.43 443 0.991 -11.263 2.299 -3.296 -10.925 -12.085 -838.104 2453.452 -3954.874 -1.196 2.040 1.010 -0.07 0.57 -0.81 0.12
1 4.44 444 0.804 -10.707 2.782 17.242 0.549 -10.468 -838.104 2453.452 -3954.874 -0.966 1.487 0.534 -0.07 0.57 -0.81 0.12
1 4.45 445 0.220 -10.228 3.199 16.266 3.540 -13.825 -883.075 2348.520 -3954.874 -0.364 1.016 0.141 -0.07 0.57 -0.81 0.12
1 4.46 446 0.043 -9.845 2.322 6.470 -7.202 -19.836 -883.075 2348.520 -3954.874 -0.158 0.636 1.026 -0.07 0.57 -0.81 0.12
1 4.47 447 0.517 -9.582 2.452 9.277 -8.118 -19.440 -913.055 2378.500 -3849.792 -0.598 0.373 0.899 -0.08 0.57 -0.81 0.12
1 4.48 448 0.670 -9.467 3.079 12.878 -3.174 -18.341 -898.065 2243.438 -3834.802 -0.716 0.261 0.280 -0.08 0.57 -0.81 0.12
1 4.49 449 0.464 -9.453 3.620 7.050 -5.615 -18.005 -868.084 2318.390 -3909.903 -0.477 0.252 -0.246 -0.08 0.57 -0.81 0.11
1 4.50 450 0.115 -9.654 3.520 0.977 -13.123 -21.729 -958.026 2423.471 -3894.913 -0.093 0.457 -0.134 -0.08 0.57 -0.81 0.11
1 4.51 451 0.469 -9.754 3.477 1.740 -12.848 -21.515 -958.026 2423.471 -3894.913 -0.409 0.559 -0.087 -0.08 0.57 -0.81 0.11
1 4.52 452 0.225 -9.524 3.505 8.514 -8.484 -18.738 -1048.117 2288.409 -3939.883 -0.085 0.333 -0.110 -0.09 0.57 -0.81 0.11
1 4.53 453 -0.177 -9.137 3.453 11.017 -6.439 -17.334 -1048.117 2288.409 -3939.883 0.350 -0.050 -0.045 -0.09 0.56 -0.81 0.11
1 4.54 454 -0.508 -8.835 3.395 8.057 -5.493 -14.923 -1017.987 2348.520 -3954.874 0.708 -0.346 0.027 -0.09 0.56 -0.81 0.11
1 4.55 455 -0.795 -8.543 3.323 1.801 -6.165 -12.909 -913.055 2498.422 -3894.913 1.015 -0.634 0.108 -0.09 0.56 -0.81 0.11
1 4.56 456 -0.570 -8.528 3.539 -2.014 -7.416 -12.024 -973.016 2363.510 -3939.883 0.806 -0.648 -0.106 -0.09 0.56 -0.81 0.11
1 4.57 457 -0.239 -8.682 3.812 0.793 -7.202 -11.169 -1078.098 2318.390 -3969.864 0.491 -0.495 -0.381 -0.09 0.56 -0.81 0.11
1 4.58 458 -0.177 -8.433 3.917 3.662 -5.371 -9.064 -1078.098 2318.390 -3969.864 0.445 -0.742 -0.484 -0.09 0.56 -0.81 0.11
1 4.59 459 -0.062 -8.198 4.094 6.683 -4.547 -7.050 -1048.117 2393.491 -3909.903 0.356 -0.968 -0.640 -0.09 0.56 -0.82 0.11
1 4.60 460 0.297 -7.992 4.343 5.371 -1.862 -7.477 -1048.117 2393.491 -3909.903 0.009 -1.167 -0.872 -0.09 0.56 -0.82 0.11
1 4.61 461 0.335 -7.762 4.410 0.549 0.153 -6.012 -988.006 2378.500 -3894.913 -0.018 -1.391 -0.925 -0.09 0.56 -0.82 0.11
1 4.62 462 0.522 -7.537 4.578 -4.974 -0.366 -7.690 -1093.088 2348.520 -3849.792 -0.194 -1.613 -1.084 -0.09 0.56 -0.82 0.11
1 4.63 463 0.546 -7.599 4.741 -13.214 4.425 -9.705 -1168.039 2303.399 -3999.844 -0.202 -1.552 -1.252 -0.09 0.56 -0.82 0.11
1 4.64 464 0.488 -7.599 4.702 -14.679 3.815 -13.519 -1108.078 2318.390 -3969.864 -0.127 -1.553 -1.219 -0.09 0.56 -0.82 0.11
1 4.65 465 0.225 -7.662 4.789 -13.397 4.242 -15.900 -1108.078 2318.390 -3969.864 0.155 -1.493 -1.313 -0.1 0.56 -0.82 0.1
1 4.66 466 -0.053 -7.734 4.856 -9.491 4.303 -19.836 -913.055 2348.520 -3999.844 0.454 -1.424 -1.388 -0.1 0.56 -0.82 0.1
1 4.67 467 -0.249 -7.959 4.908 -9.888 6.165 -32.196 -913.055 2348.520 -3999.844 0.706 -1.196 -1.441 -0.1 0.56 -0.82 0.1
1 4.68 468 -0.464 -8.064 4.884 -12.939 4.120 -27.588 -1153.049 2513.413 -3909.903 0.959 -1.089 -1.419 -0.1 0.56 -0.82 0.1
1 4.69 469 -0.259 -8.825 4.937 -17.853 0.061 -30.670 -1078.098 2513.413 -3939.883 0.787 -0.329 -1.479 -0.1 0.56 -0.82 0.1
1 4.70 470 0.168 -9.189 4.726 -16.296 -0.275 -30.029 -1153.049 2393.491 -3939.883 0.398 0.032 -1.282 -0.1 0.56 -0.82 0.09
1 4.71 471 0.110 -9.314 4.583 4.089 1.282 -18.402 -1108.078 2393.491 -3939.883 0.495 0.155 -1.149 -0.1 0.56 -0.82 0.09
1 4.72 472 0.148 -8.821 4.626 9.247 -0.214 -20.508 -1108.078 2393.491 -3939.883 0.484 -0.333 -1.184 -0.1 0.56 -0.82 0.09
1 4.73 473 0.053 -8.782 4.654 3.693 1.221 -14.954 -1138.059 2348.520 -3924.893 0.604 -0.362 -1.192 -0.1 0.56 -0.82 0.09
1 4.74 474 -0.163 -8.758 4.439 -8.789 -1.282 -7.874 -1138.059 2348.520 -3924.893 0.845 -0.375 -0.953 -0.1 0.56 -0.82 0.09
1 4.75 475 -0.139 -9.242 4.176 -11.871 -2.808 -1.160 -1242.990 2378.500 -3774.841 0.827 0.106 -0.697 -0.1 0.56 -0.82 0.09
1 4.76 476 -0.244 -9.544 4.099 -9.064 -2.777 0.488 -1242.990 2498.422 -3819.812 0.931 0.403 -0.632 -0.1 0.56 -0.82 0.09
1 4.77 477 -0.484 -9.620 4.046 1.312 -4.150 6.104 -1242.990 2498.422 -3819.812 1.162 0.477 -0.586 -0.1 0.56 -0.82 0.09
1 4.78 478 -0.575 -9.022 3.989 1.556 -2.167 6.714 -1138.059 2528.403 -3849.792 1.240 -0.121 -0.523 -0.1 0.56 -0.82 0.09
1 4.79 479 -0.666 -9.113 4.123 -0.244 -2.960 10.315 -1138.059 2528.403 -3849.792 1.314 -0.029 -0.651 -0.1 0.56 -0.82 0.09
1 4.80 480 -0.464 -9.161 4.056 -4.303 -2.777 11.414 -1198.020 2378.500 -3894.913 1.094 0.019 -0.581 -0.1 0.56 -0.82 0.09
1 4.81 481 -0.292 -9.491 4.094 -5.585 -0.977 12.909 -1198.020 2378.500 -3894.913 0.876 0.344 -0.625 -0.1 0.56 -0.82 0.1
1 4.82 482 0.110 -9.414 4.022 -1.617 3.174 13.916 -1198.020 2303.399 -3714.880 0.450 0.265 -0.556 -0.1 0.56 -0.82 0.1
1 4.83 483 0.517 -9.213 3.903 1.770 4.181 14.069 -1198.020 2423.471 -3954.874 0.019 0.063 -0.434 -0.1 0.56 -0.82 0.1
1 4.84 484 0.670 -9.232 3.946 2.838 5.615 13.916 -1198.020 2423.471 -3954.874 -0.155 0.083 -0.471 -0.1 0.56 -0.82 0.1
1 4.85 485 0.876 -9.031 3.620 2.258 8.453 16.663 -1198.020 2378.500 -3819.812 -0.382 -0.116 -0.139 -0.1 0.56 -0.82 0.1
1 4.86 486 0.828 -9.060 3.486 4.150 9.949 16.693 -1198.020 2378.500 -3819.812 -0.357 -0.087 0.000 -0.1 0.56 -0.82 0.1
1 4.87 487 0.723 -8.931 3.457 3.052 10.712 17.120 -1183.029 2363.510 -3909.903 -0.275 -0.215 0.036 -0.1 0.56 -0.82 0.1
1 4.88 488 0.498 -8.931 3.304 3.510 10.895 16.205 -1183.029 2363.510 -3909.903 -0.101 -0.213 0.200 -0.09 0.56 -0.82 0.1
1 4.89 489 0.105 -8.873 3.189 4.517 8.637 17.914 -1138.059 2453.452 -3894.913 0.263 -0.270 0.320 -0.09 0.56 -0.82 0.1
1 4.90 490 -0.043 -8.586 3.184 3.601 6.500 16.266 -1138.059 2453.452 -3894.913 0.382 -0.556 0.330 -0.09 0.56 -0.82 0.1
1 4.91 491 -0.239 -8.878 3.189 3.418 7.385 15.198 -1138.059 2453.452 -3894.913 0.552 -0.263 0.329 -0.09 0.56 -0.82 0.1
1 4.92 492 -0.436 -9.079 3.213 1.465 6.592 14.954 -1017.987 2303.399 -3849.792 0.721 -0.062 0.308 -0.09 0.56 -0.82 0.11
1 4.93 493 -0.354 -9.141 3.151 1.129 5.219 14.587 -1017.987 2303.399 -3849.792 0.614 -0.000 0.371 -0.09 0.56 -0.82 0.11
1 4.94 494 -0.081 -9.089 3.146 1.526 5.707 14.557 -1108.078 2393.491 -3939.883 0.313 -0.054 0.375 -0.09 0.56 -0.82 0.11
1 4.95 495 0.014 -9.108 3.103 2.441 4.791 13.031 -1108.078 2393.491 -3939.883 0.191 -0.036 0.418 -0.09 0.56 -0.82 0.11
1 4.96 496 -0.062 -9.036 2.859 1.556 2.960 12.970 -1108.078 2513.413 -3909.903 0.225 -0.108 0.663 -0.09 0.56 -0.82 0.11
1 4.97 497 -0.163 -9.055 2.931 -1.862 1.129 12.329 -1017.987 2528.403 -3894.913 0.307 -0.090 0.587 -0.08 0.56 -0.82 0.11
1 4.98 498 -0.139 -9.199 2.773 -0.366 -0.702 12.787 -1017.987 2528.403 -3894.913 0.265 0.051 0.739 -0.08 0.56 -0.82 0.11
1 4.99 499 -0.350 -9.180 2.749 2.411 -2.411 12.329 -1048.117 2438.461 -3804.821 0.458 0.030 0.759 -0.08 0.56 -0.82 0.11
1 5.00 500 -0.287 -8.983 2.662 2.502 -3.906 11.383 -1048.117 2438.461 -3804.821 0.379 -0.167 0.844 -0.08 0.56 -0.82 0.11
1 5.01 501 -0.268 -8.677 2.480 1.526 -6.592 9.705 -928.045 2468.442 -3909.903 0.345 -0.475 1.024 -0.08 0.56 -0.82 0.11
1 5.02 502 -0.450 -8.624 2.543 -2.319 -8.118 8.423 -928.045 2468.442 -3909.903 0.515 -0.529 0.959 -0.08 0.56 -0.82 0.12
1 5.03 503 -0.412 -8.801 2.495 -9.125 -8.148 9.216 -1078.098 2363.510 -3684.899 0.458 -0.360 0.984 -0.08 0.56 -0.81 0.12
1 5.04 504 -0.776 -8.849 2.490 -7.294 -9.186 8.514 -838.104 2453.452 -3774.841 0.812 -0.319 0.970 -0.08 0.56 -0.81 0.12
1 5.05 505 -0.804 -8.773 2.509 -6.409 -10.834 9.186 -838.104 2453.452 -3774.841 0.831 -0.402 0.935 -0.08 0.56 -0.81 0.12
1 5.06 506 -0.867 -8.777 2.457 -7.721 -13.489 8.911 -928.045 2363.510 -3864.782 0.883 -0.403 0.973 -0.08 0.56 -0.81 0.12
1 5.07 507 -0.934 -8.983 2.658 -6.317 -17.151 8.423 -1078.098 2318.390 -3759.851 0.941 -0.203 0.756 -0.09 0.56 -0.81 0.12
1 5.08 508 -0.843 -9.347 2.744 -12.085 -16.296 9.430 -988.006 2573.523 -3774.841 0.842 0.156 0.656 -0.09 0.56 -0.81 0.12
1 5.09 509 -0.795 -9.592 2.825 -11.200 -17.181 10.468 -988.006 2573.523 -3774.841 0.785 0.393 0.554 -0.09 0.57 -0.81 0.13
1 5.10 510 -0.661 -9.735 2.734 -5.219 -18.799 11.261 -1078.098 2288.409 -3909.903 0.631 0.523 0.608 -0.09 0.57 -0.81 0.13
1 5.11 511 -0.426 -9.764 2.983 5.554 -19.165 11.108 -1138.059 2378.500 -3849.792 0.387 0.550 0.354 -0.09 0.57 -0.81 0.13
1 5.12 512 -0.292 -9.678 3.232 6.439 -17.731 11.444 -1138.059 2378.500 -3849.792 0.245 0.465 0.108 -0.09 0.57 -0.81 0.13
1 5.13 513 -0.110 -9.802 3.448 6.012 -15.595 9.949 -1153.049 2543.393 -3834.802 0.056 0.592 -0.101 -0.09 0.57 -0.81 0.13
1 5.14 514 0.038 -9.754 3.816 12.207 -13.641 7.233 -1108.078 2288.409 -3684.899 -0.098 0.546 -0.462 -0.09 0.57 -0.81 0.13
1 5.15 515 0.340 -9.716 3.453 15.228 -8.637 9.033 -988.006 2378.500 -3894.913 -0.402 0.513 -0.085 -0.09 0.57 -0.81 0.14
1 5.16 516 0.134 -9.615 3.649 14.099 -6.104 6.500 -988.006 2378.500 -3894.913 -0.201 0.421 -0.259 -0.09 0.56 -0.81 0.14
1 5.17 517 0.297 -9.534 3.429 14.496 -5.920 2.441 -1093.088 2423.471 -3849.792 -0.366 0.346 -0.020 -0.09 0.56 -0.81 0.14
1 5.18 518 0.192 -9.678 3.132 15.076 -6.012 -0.397 -1002.997 2288.409 -3804.821 -0.250 0.506 0.320 -0.09 0.56 -0.81 0.14
1 5.19 519 0.302 -9.410 2.816 10.803 -5.157 -2.197 -1002.997 2288.409 -3804.821 -0.353 0.244 0.652 -0.09 0.56 -0.81 0.14
1 5.20 520 0.029 -9.568 2.586 11.231 -6.928 -5.005 -1138.059 2423.471 -3774.841 -0.068 0.406 0.892 -0.09 0.56 -0.81 0.14
1 5.21 521 -0.062 -9.750 2.322 8.484 -9.796 -4.334 -1093.088 2348.520 -3774.841 0.036 0.591 1.164 -0.09 0.56 -0.81 0.14
1 5.22 522 -0.397 -10.003 2.150 5.524 -14.160 -4.669 -1183.029 2363.510 -3909.903 0.385 0.845 1.338 -0.1 0.56 -0.81 0.14
1 5.23 523 -0.464 -10.209 3.223 5.035 -15.076 -3.326 -1183.029 2363.510 -3909.903 0.466 1.050 0.262 -0.1 0.56 -0.81 0.14
1 5.24 524 -0.196 -11.191 6.383 -3.845 -5.280 -0.061 -1153.049 2393.491 -3834.802 0.217 2.029 -2.905 -0.1 0.56 -0.81 0.14
1 5.25 525 -0.029 -13.044 4.027 -26.611 7.477 20.813 -1198.020 2303.399 -3849.792 0.028 3.871 -0.579 -0.1 0.56 -0.81 0.14
1 5.26 526 0.000 -11.057 3.563 26.825 7.965 15.686 -1198.020 2303.399 -3849.792 -0.034 1.879 -0.128 -0.1 0.56 -0.81 0.14
1 5.27 527 0.781 -10.386 3.893 32.623 7.477 19.623 -1183.029 2438.461 -3804.821 -0.840 1.225 -0.414 -0.1 0.56 -0.81 0.14
1 5.28 528 0.891 -9.730 3.582 -3.723 3.204 20.203 -1108.078 2363.510 -3729.870 -0.980 0.583 -0.067 -0.09 0.56 -0.81 0.14
1 5.29 529 0.986 -10.018 3.807 -8.148 12.939 20.050 -1168.039 2348.520 -3744.860 -1.098 0.870 -0.293 -0.09 0.56 -0.81 0.15
1 5.30 530 -0.168 -10.343 3.424 -2.136 11.078 22.247 -1168.039 2348.520 -3744.860 0.032 1.191 0.078 -0.09 0.56 -0.81 0.15
1 5.31 531 -0.623 -9.879 3.563 5.035 3.479 23.468 -1168.039 2378.500 -3849.792 0.456 0.724 -0.069 -0.09 0.56 -0.81 0.15
1 5.32 532 -0.828 -9.184 3.663 13.702 -2.228 21.179 -1063.107 2348.520 -3819.812 0.593 0.042 -0.143 -0.09 0.56 -0.81 0.15
1 5.33 533 -1.221 -8.562 3.611 8.423 -4.608 21.240 -1063.107 2348.520 -3819.812 0.955 -0.574 -0.074 -0.09 0.56 -0.81 0.15
1 5.34 534 -1.092 -8.337 3.486 -3.448 -8.789 18.280 -1002.997 2288.409 -3729.870 0.795 -0.794 0.059 -0.09 0.56 -0.81 0.15
1 5.35 535 -0.900 -8.414 3.524 -11.017 -12.726 15.350 -1078.098 2393.491 -3729.870 0.580 -0.719 0.015 -0.09 0.56 -0.81 0.16
1 5.36 536 -0.527 -8.663 3.764 -10.620 -14.679 10.986 -1257.980 2318.390 -3684.899 0.191 -0.475 -0.238 -0.09 0.56 -0.81 0.16
1 5.37 537 -0.728 -8.624 4.046 1.373 -17.181 17.059 -1257.980 2318.390 -3684.899 0.383 -0.518 -0.534 -0.09 0.56 -0.81 0.16
1 5.38 538 -0.512 -8.509 4.190 6.561 -17.212 12.268 -1002.997 2393.491 -3804.821 0.155 -0.633 -0.678 -0.09 0.56 -0.81 0.16
1 5.39 539 -0.417 -7.987 4.544 7.294 -13.886 16.205 -1093.088 2303.399 -3894.913 0.040 -1.142 -1.001 -0.09 0.56 -0.81 0.16
1 5.40 540 -0.206 -7.571 4.674 8.118 -15.015 14.008 -1093.088 2303.399 -3894.913 -0.184 -1.550 -1.111 -0.09 0.56 -0.81 0.17
1 5.41 541 -0.350 -7.327 4.707 6.561 -14.465 14.496 -1093.088 2273.419 -3774.841 -0.051 -1.785 -1.122 -0.09 0.56 -0.81 0.17
1 5.42 542 -0.421 -7.020 4.980 6.439 -14.496 13.794 -1153.049 2288.409 -3939.883 0.011 -2.088 -1.386 -0.09 0.56 -0.81 0.17
1 5.43 543 -0.488 -6.862 5.349 2.014 -15.076 14.160 -1153.049 2243.438 -3834.802 0.069 -2.242 -1.746 -0.09 0.55 -0.81 0.17
1 5.44 544 -0.283 -6.795 5.215 -5.829 -14.160 15.015 -1153.049 2243.438 -3834.802 -0.147 -2.307 -1.607 -0.09 0.55 -0.81 0.17
1 5.45 545 -0.057 -7.255 5.181 -16.663 -15.808 16.357 -1183.029 2243.438 -3804.821 -0.383 -1.848 -1.578 -0.09 0.55 -0.81 0.17
1 5.46 546 0.321 -7.619 5.052 -24.506 -17.151 18.250 -1153.049 2243.438 -3864.782 -0.773 -1.491 -1.468 -0.09 0.56 -0.81 0.18
1 5.47 547 0.532 -8.471 4.851 -23.193 -16.266 19.714 -1153.049 2243.438 -3864.782 -1.003 -0.653 -1.305 -0.09 0.56 -0.81 0.18
1 5.48 548 0.412 -8.567 4.468 -17.548 -13.733 21.240 -1108.078 2438.461 -3864.782 -0.893 -0.564 -0.941 -0.09 0.56 -0.8 0.18
1 5.49 549 0.316 -8.519 4.659 -11.658 -12.085 21.057 -1138.059 2348.520 -3819.812 -0.811 -0.617 -1.147 -0.1 0.56 -0.8 0.18
1 5.50 550 -0.034 -8.337 4.487 -9.705 -10.590 21.729 -1048.117 2318.390 -3939.883 -0.476 -0.800 -0.981 -0.1 0.56 -0.8 0.18
1 5.51 551 -0.230 -8.375 4.774 -16.968 -6.226 19.531 -1048.117 2318.390 -3939.883 -0.299 -0.762 -1.272 -0.1 0.56 -0.8 0.19
1 5.52 552 -0.239 -8.595 4.525 -22.736 -4.974 20.264 -1108.078 2393.491 -3654.769 -0.309 -0.544 -1.031 -0.1 0.56 -0.8 0.19
1 5.53 553 -0.211 -9.007 4.377 -19.501 -6.744 18.494 -1138.059 2348.520 -3714.880 -0.359 -0.139 -0.905 -0.1 0.56 -0.8 0.19
1 5.54 554 -0.010 -9.223 4.473 -13.489 -2.563 12.512 -1138.059 2348.520 -3714.880 -0.592 0.064 -1.038 -0.1 0.56 -0.8 0.19
1 5.55 555 0.316 -8.854 4.152 -11.627 -2.686 7.935 -1048.117 2168.487 -3804.821 -0.926 -0.308 -0.728 -0.1 0.56 -0.8 0.19
1 5.56 556 0.345 -8.864 4.257 -14.801 -4.883 1.831 -1108.078 2393.491 -3729.870 -0.953 -0.303 -0.844 -0.1 0.56 -0.8 0.19
1 5.57 557 0.632 -8.983 4.070 -17.944 -5.920 -3.052 -1108.078 2393.491 -3729.870 -1.229 -0.190 -0.674 -0.1 0.56 -0.8 0.19
1 5.58 558 0.862 -9.103 3.912 -19.470 -6.958 -9.003 -1138.059 2453.452 -3714.880 -1.439 -0.079 -0.537 -0.1 0.56 -0.8 0.19
1 5.59 559 0.891 -9.050 3.869 -15.167 -6.775 -12.512 -1153.049 2288.409 -3729.870 -1.442 -0.142 -0.516 -0.1 0.56 -0.8 0.19
1 5.60 560 0.637 -9.079 3.635 -15.167 -5.524 -13.855 -1017.987 2528.403 -3639.779 -1.155 -0.122 -0.301 -0.1 0.57 -0.8 0.19
1 5.61 561 0.627 -9.113 3.740 -14.648 -3.784 -15.564 -1017.987 2528.403 -3639.779 -1.078 -0.104 -0.441 -0.1 0.57 -0.8 0.19
1 5.62 562 0.445 -9.247 3.615 -16.296 -2.228 -17.700 -1108.078 2318.390 -3624.789 -0.862 0.022 -0.335 -0.11 0.57 -0.8 0.19
1 5.63 563 0.378 -9.299 3.462 -15.991 -1.984 -17.700 -1138.059 2378.500 -3609.798 -0.760 0.065 -0.203 -0.11 0.57 -0.8 0.18
1 5.64 564 0.402 -9.228 3.453 -12.817 -1.343 -18.189 -1138.059 2378.500 -3609.798 -0.750 -0.015 -0.214 -0.11 0.57 -0.79 0.18
1 5.65 565 0.316 -9.223 3.275 -8.637 0.244 -19.043 -1093.088 2378.500 -3639.779 -0.630 -0.027 -0.052 -0.11 0.57 -0.79 0.18
1 5.66 566 0.263 -9.194 3.362 -7.477 -0.549 -18.982 -1108.078 2363.510 -3624.789 -0.545 -0.061 -0.152 -0.11 0.57 -0.79 0.18
1 5.67 567 0.484 -9.117 3.352 -7.019 -0.397 -18.555 -1168.039 2378.500 -3609.798 -0.733 -0.142 -0.152 -0.11 0.57 -0.79 0.18
1 5.68 568 0.412 -9.132 3.232 -7.202 1.038 -19.135 -1168.039 2378.500 -3609.798 -0.594 -0.136 -0.051 -0.11 0.57 -0.79 0.18
1 5.69 569 0.503 -9.232 3.357 -4.334 3.784 -19.287 -1228.000 2438.461 -3729.870 -0.652 -0.038 -0.183 -0.12 0.57 -0.79 0.17
1 5.70 570 0.393 -9.113 3.295 -2.045 5.310 -18.585 -1257.980 2438.461 -3579.818 -0.510 -0.160 -0.126 -0.12 0.57 -0.79 0.17
1 5.71 571 0.551 -9.012 3.093 -1.587 6.836 -18.890 -1257.980 2438.461 -3579.818 -0.638 -0.262 0.073 -0.12 0.57 -0.8 0.17
1 5.72 572 0.148 -9.151 3.060 -1.160 9.003 -16.663 -1272.671 2452.702 -3537.545 -0.207 -0.124 0.103 -0.12 0.57 -0.8 0.17
1 5.73 573 0.005 -9.285 2.931 -0.488 9.369 -16.846 -1182.729 2587.614 -3732.568 -0.039 0.009 0.230 -0.12 0.57 -0.8 0.17
1 5.74 574 -0.163 -9.252 2.983 0.885 10.254 -15.167 -1272.671 2377.601 -3567.526 0.151 -0.025 0.175 -0.12 0.57 -0.8 0.17
1 5.75 575 -0.283 -9.089 2.883 1.190 11.200 -13.336 -1272.671 2377.601 -3567.526 0.290 -0.189 0.275 -0.12 0.57 -0.8 0.17
1 5.76 576 -0.273 -9.122 2.854 -1.495 11.139 -11.597 -1257.681 2587.614 -3477.584 0.307 -0.155 0.303 -0.12 0.57 -0.8 0.16
1 5.77 577 -0.029 -9.161 2.739 -2.502 11.780 -10.071 -1347.772 2377.601 -3612.646 0.073 -0.118 0.414 -0.12 0.57 -0.8 0.16
1 5.78 578 -0.053 -9.218 2.801 -2.045 12.146 -7.843 -1347.772 2377.601 -3612.646 0.105 -0.063 0.346 -0.12 0.57 -0.8 0.16
1 5.79 579 0.177 -9.280 2.744 -0.732 13.031 -4.822 -1227.700 2512.663 -3732.568 -0.119 -0.002 0.398 -0.12 0.57 -0.8 0.16
1 5.80 580 0.215 -9.280 2.648 0.458 13.031 -2.533 -1197.720 2527.653 -3672.607 -0.154 -0.004 0.489 -0.12 0.57 -0.8 0.16
1 5.81 581 0.053 -9.213 2.729 -0.153 13.947 -1.190 -1092.638 2452.702 -3717.578 0.010 -0.072 0.405 -0.12 0.57 -0.8 0.16
1 5.82 582 0.115 -9.156 2.600 -1.282 13.245 -0.183 -1092.638 2452.702 -3717.578 -0.053 -0.130 0.531 -0.12 0.57 -0.8 0.16
1 5.83 583 0.053 -9.146 2.677 -2.655 12.573 0.427 -1167.739 2497.673 -3672.607 0.001 -0.144 0.444 -0.12 0.57 -0.8 0.16
1 5.84 584 0.038 -9.180 2.528 -2.167 12.573 0.916 -1257.681 2467.692 -3582.516 0.011 -0.112 0.585 -0.11 0.57 -0.8 0.16
1 5.85 585 0.144 -9.275 2.452 -2.045 13.825 0.214 -1257.681 2467.692 -3582.516 -0.100 -0.019 0.655 -0.11 0.57 -0.8 0.15
1 5.86 586 0.120 -9.467 2.500 -0.854 14.496 0.641 -1317.642 2377.601 -3537.545 -0.080 0.170 0.600 -0.11 0.57 -0.8 0.15
1 5.87 587 0.239 -9.122 2.768 2.258 17.517 0.122 -1227.700 2392.741 -3657.617 -0.206 -0.177 0.326 -0.11 0.57 -0.8 0.15
1 5.88 588 0.249 -9.501 2.600 3.693 19.959 -0.641 -1107.778 2317.640 -3657.617 -0.221 0.201 0.491 -0.11 0.57 -0.8 0.15
1 5.89 589 0.168 -9.457 2.701 3.296 18.951 -0.244 -1107.778 2317.640 -3657.617 -0.144 0.159 0.393 -0.11 0.57 -0.8 0.15
1 5.90 590 0.306 -9.649 2.820 3.693 16.541 -0.397 -1197.720 2377.601 -3612.646 -0.292 0.351 0.277 -0.11 0.57 -0.8 0.15
1 5.91 591 0.383 -9.649 2.931 4.883 15.472 -0.610 -1257.681 2467.692 -3552.536 -0.372 0.352 0.169 -0.11 0.57 -0.8 0.15
1 5.92 592 0.273 -9.740 3.093 8.087 13.916 -0.824 -1257.681 2467.692 -3552.536 -0.264 0.445 0.011 -0.11 0.57 -0.8 0.15
1 5.93 593 0.129 -9.730 3.175 10.376 11.932 0.122 -1182.729 2587.614 -3627.637 -0.121 0.439 -0.059 -0.11 0.57 -0.8 0.15
1 5.94 594 -0.273 -9.745 3.204 14.587 8.057 2.380 -1062.658 2527.653 -3612.646 0.278 0.458 -0.074 -0.11 0.57 -0.8 0.15
1 5.95 595 -0.431 -9.544 3.314 18.250 6.073 2.960 -1062.658 2527.653 -3612.646 0.430 0.263 -0.166 -0.11 0.57 -0.8 0.15
1 5.96 596 -0.575 -9.553 3.409 17.242 4.272 1.892 -1062.658 2527.653 -3612.646 0.565 0.281 -0.238 -0.1 0.57 -0.8 0.15
1 5.97 597 -0.666 -9.481 3.318 16.541 2.625 3.479 -1317.642 2497.673 -3717.578 0.650 0.217 -0.122 -0.1 0.57 -0.8 0.15
1 5.98 598 -0.670 -9.395 3.031 15.808 0.580 4.791 -1092.638 2377.601 -3717.578 0.637 0.147 0.212 -0.1 0.57 -0.8 0.15
1 5.99 599 -0.345 -9.295 2.811 13.886 -0.061 4.913 -1092.638 2377.601 -3717.578 0.301 0.054 0.453 -0.1 0.57 -0.8 0.15
1 6.00 600 -0.091 -9.486 2.629 9.918 1.801 5.127 -1077.648 2317.640 -3657.617 0.040 0.251 0.649 -0.1 0.57 -0.8 0.15
1 6.01 601 0.158 -9.515 2.619 7.172 4.974 5.920 -1047.667 2317.640 -3762.549 -0.217 0.283 0.667 -0.1 0.57 -0.8 0.15
1 6.02 602 0.326 -9.759 2.394 5.615 7.477 6.165 -1287.661 2542.644 -3582.516 -0.393 0.528 0.897 -0.1 0.57 -0.8 0.15
1 6.03 603 0.666 -9.869 2.279 5.127 7.874 5.096 -1287.661 2542.644 -3582.516 -0.741 0.639 1.013 -0.1 0.57 -0.8 0.15
1 6.04 604 0.986 -10.200 2.251 7.935 11.017 2.747 -1062.658 2422.722 -3747.559 -1.067 0.969 1.040 -0.1 0.57 -0.8 0.15
1 6.05 605 1.168 -10.224 2.107 10.376 13.947 0.366 -1062.658 2497.673 -3642.627 -1.250 0.994 1.187 -0.1 0.57 -0.8 0.15
1 6.06 606 1.207 -10.295 2.011 11.505 12.665 -2.014 -1062.658 2497.673 -3642.627 -1.284 1.068 1.288 -0.1 0.57 -0.8 0.15
1 6.07 607 1.221 -10.310 2.222 14.710 14.679 -5.829 -1062.658 2422.722 -3612.646 -1.289 1.084 1.083 -0.1 0.57 -0.8 0.15
1 6.08 608 0.977 -10.185 2.145 16.083 10.712 -9.644 -987.707 2452.702 -3672.607 -1.032 0.963 1.170 -0.1 0.57 -0.8 0.15
1 6.09 609 0.948 -10.046 2.227 16.510 7.233 -14.069 -1137.759 2422.722 -3642.627 -0.986 0.829 1.101 -0.1 0.57 -0.81 0.14
1 6.10 610 0.814 -9.898 2.433 18.890 5.981 -16.785 -1137.759 2422.722 -3642.627 -0.828 0.685 0.909 -0.1 0.57 -0.81 0.14
1 6.11 611 0.455 -10.056 3.323 21.484 3.510 -17.334 -1167.739 2302.650 -3537.545 -0.441 0.849 0.034 -0.1 0.56 -0.81 0.14
1 6.12 612 0.182 -10.377 3.654 12.634 -10.010 -23.316 -1092.638 2302.650 -3747.559 -0.105 1.187 -0.252 -0.1 0.56 -0.81 0.14
1 6.13 613 0.321 -10.535 3.520 7.355 -10.803 -25.940 -1092.638 2302.650 -3747.559 -0.201 1.350 -0.104 -0.1 0.56 -0.81 0.14
1 6.14 614 0.378 -10.410 3.692 7.507 -1.221 -25.696 -1107.778 2392.741 -3762.549 -0.215 1.230 -0.266 -0.11 0.56 -0.81 0.14
1 6.15 615 -0.445 -10.233 3.807 5.676 6.012 -27.863 -1107.778 2392.741 -3762.549 0.648 1.057 -0.372 -0.11 0.56 -0.81 0.14
1 6.16 616 -1.288 -9.936 3.529 4.608 -1.007 -26.581 -1152.749 2287.660 -3732.568 1.529 0.764 -0.087 -0.11 0.56 -0.81 0.13
1 6.17 617 -1.030 -9.912 3.692 7.263 -6.165 -24.994 -1152.749 2287.660 -3732.568 1.310 0.743 -0.244 -0.11 0.56 -0.81 0.13
1 6.18 618 -0.709 -9.649 3.740 9.247 -4.883 -22.553 -1092.638 2452.702 -3672.607 1.017 0.483 -0.285 -0.11 0.56 -0.81 0.13
1 6.19 619 -0.594 -9.706 3.515 6.958 -5.096 -16.632 -1152.749 2437.712 -3732.568 0.955 0.551 -0.039 -0.11 0.56 -0.81 0.13
1 6.20 620 -0.201 -9.692 3.247 9.796 -9.155 -13.092 -1152.749 2437.712 -3732.568 0.582 0.540 0.237 -0.11 0.56 -0.81 0.13
1 6.21 621 0.292 -9.213 3.127 14.801 -10.834 -9.827 -1047.667 2212.708 -3732.568 0.108 0.067 0.369 -0.11 0.56 -0.81 0.13
1 6.22 622 0.814 -8.916 3.084 17.731 -10.193 -5.585 -1047.667 2212.708 -3732.568 -0.396 -0.222 0.431 -0.11 0.55 -0.81 0.13
1 6.23 623 0.924 -8.476 2.763 14.069 -6.928 0.702 -1197.720 2272.669 -3642.627 -0.491 -0.654 0.773 -0.11 0.55 -0.81 0.13
1 6.24 624 0.757 -7.997 2.658 7.446 -9.979 4.547 -1197.720 2272.669 -3642.627 -0.315 -1.125 0.896 -0.12 0.55 -0.82 0.13
1 6.25 625 0.910 -7.853 2.466 4.425 -9.369 8.423 -1332.782 2287.660 -3762.549 -0.465 -1.265 1.097 -0.12 0.55 -0.82 0.13
1 6.26 626 0.905 -7.571 2.480 1.801 -9.094 11.322 -1167.739 2377.601 -3777.539 -0.463 -1.546 1.088 -0.12 0.55 -0.82 0.13
1 6.27 627 0.464 -7.168 2.701 -2.075 -8.392 13.855 -1167.739 2377.601 -3777.539 -0.042 -1.948 0.871 -0.12 0.55 -0.82 0.13
1 6.28 628 0.302 -7.207 3.074 -8.820 -7.538 12.848 -1182.729 2392.741 -3912.601 0.107 -1.912 0.491 -0.12 0.55 -0.81 0.13
1 6.29 629 0.144 -7.494 3.390 -21.088 -5.402 5.768 -1182.729 2392.741 -3912.601 0.256 -1.632 0.158 -0.12 0.55 -0.81 0.13
1 6.30 630 -0.177 -7.858 3.726 -33.234 -7.263 3.143 -1287.661 2287.660 -3837.500 0.574 -1.282 -0.212 -0.12 0.55 -0.81 0.13
1 6.31 631 -0.287 -8.912 4.089 -44.006 -8.240 -8.942 -1287.661 2287.660 -3837.500 0.688 -0.248 -0.627 -0.12 0.56 -0.81 0.13
1 6.32 632 -0.268 -9.213 4.511 -39.612 -7.629 -12.787 -1227.700 2392.741 -3732.568 0.681 0.034 -1.104 -0.12 0.56 -0.81 0.13
1 6.33 633 -0.359 -9.204 4.712 -27.710 -6.348 -13.763 -1257.681 2287.660 -3552.536 0.790 0.005 -1.359 -0.12 0.56 -0.81 0.13
1 6.34 634 -0.551 -8.471 4.856 -11.047 -0.885 -12.726 -1257.681 2287.660 -3552.536 1.016 -0.745 -1.556 -0.12 0.56 -0.81 0.13
1 6.35 635 -0.345 -8.074 4.856 -8.453 -0.671 -16.144 -1227.700 2437.712 -3627.637 0.825 -1.143 -1.559 -0.12 0.56 -0.81 0.13
1 6.36 636 -0.129 -8.064 5.038 -14.343 -2.563 -21.210 -1227.700 2437.712 -3627.637 0.630 -1.151 -1.741 -0.12 0.56 -0.81 0.13
1 6.37 637 -0.038 -8.519 4.980 -16.205 -3.967 -24.933 -1287.661 2317.640 -3582.516 0.570 -0.697 -1.691 -0.12 0.56 -0.81 0.13
1 6.38 638 0.441 -8.883 4.516 -13.062 -4.974 -24.384 -1317.642 2497.673 -3672.607 0.126 -0.335 -1.237 -0.13 0.56 -0.81 0.13
1 6.39 639 0.608 -9.453 4.631 -5.280 -6.409 -22.553 -1197.720 2377.601 -3537.545 -0.006 0.234 -1.361 -0.13 0.56 -0.81 0.13
1 6.40 640 0.527 -9.319 4.607 2.289 -5.768 -14.679 -1407.733 2452.702 -3672.607 0.112 0.101 -1.339 -0.13 0.56 -0.81 0.13
1 6.41 641 0.728 -8.849 4.717 7.599 -5.737 -13.092 -1407.733 2452.702 -3672.607 -0.042 -0.356 -1.425 -0.13 0.56 -0.81 0.12
1 6.42 642 0.632 -8.605 4.626 7.874 -4.303 -5.371 -1317.642 2377.601 -3717.578 0.073 -0.590 -1.312 -0.13 0.56 -0.81 0.12
1 6.43 643 0.666 -8.749 4.650 -0.488 -7.111 -5.829 -1317.642 2377.601 -3717.578 0.053 -0.440 -1.319 -0.13 0.56 -0.81 0.12
1 6.44 644 0.646 -9.089 4.391 -3.845 -9.247 -1.587 -1227.700 2392.741 -3762.549 0.083 -0.097 -1.054 -0.13 0.56 -0.81 0.12
1 6.45 645 0.388 -9.625 4.439 -3.723 -7.965 1.160 -1317.642 2497.673 -3567.526 0.350 0.441 -1.101 -0.13 0.56 -0.81 0.12
1 6.46 646 0.201 -9.620 4.247 -2.106 -5.463 4.181 -1287.661 2437.712 -3687.598 0.541 0.436 -0.910 -0.13 0.56 -0.81 0.12
1 6.47 647 -0.072 -9.520 4.271 -2.197 -3.448 4.517 -1257.681 2317.640 -3762.549 0.810 0.336 -0.932 -0.13 0.56 -0.81 0.13
1 6.48 648 -0.139 -9.472 3.960 1.434 -4.303 7.996 -1257.681 2317.640 -3762.549 0.857 0.289 -0.615 -0.13 0.56 -0.81 0.13
1 6.49 649 -0.196 -9.491 3.855 2.136 -2.228 12.116 -1392.743 2362.611 -3687.598 0.897 0.308 -0.505 -0.13 0.56 -0.81 0.13
1 6.50 650 0.091 -9.577 3.692 3.510 0.763 15.076 -1392.743 2362.611 -3687.598 0.588 0.395 -0.336 -0.13 0.56 -0.81 0.13
1 6.51 651 0.081 -9.328 3.649 3.937 3.418 19.531 -1347.772 2377.601 -3642.627 0.570 0.146 -0.286 -0.13 0.56 -0.81 0.13
1 6.52 652 0.211 -9.309 3.443 6.042 7.050 23.804 -1467.694 2362.611 -3762.549 0.408 0.127 -0.074 -0.13 0.56 -0.81 0.13
1 6.53 653 0.220 -9.218 3.357 7.538 8.637 21.668 -1347.772 2347.621 -3672.607 0.360 0.037 0.021 -0.13 0.56 -0.81 0.13
1 6.54 654 0.393 -9.161 3.323 9.155 10.468 22.156 -1437.713 2377.601 -3642.627 0.150 -0.019 0.065 -0.13 0.56 -0.81 0.13
1 6.55 655 0.316 -9.151 3.280 11.017 9.430 24.262 -1437.713 2377.601 -3642.627 0.190 -0.026 0.120 -0.12 0.56 -0.81 0.13
1 6.56 656 0.426 -8.945 3.175 12.451 7.721 22.125 -1332.782 2467.692 -3657.617 0.007 -0.224 0.257 -0.12 0.56 -0.81 0.14
1 6.57 657 0.220 -8.873 3.232 12.817 8.270 23.834 -1332.782 2467.692 -3657.617 0.178 -0.291 0.216 -0.12 0.56 -0.81 0.14
1 6.58 658 0.077 -8.548 2.983 12.512 7.019 25.513 -1362.762 2362.611 -3657.617 0.284 -0.612 0.482 -0.12 0.56 -0.81 0.14
1 6.59 659 0.072 -8.495 2.993 10.498 4.517 21.393 -1377.752 2452.702 -3642.627 0.251 -0.660 0.488 -0.12 0.56 -0.81 0.14
1 6.60 660 -0.038 -8.519 3.012 6.317 3.082 22.125 -1347.772 2572.624 -3612.646 0.330 -0.633 0.482 -0.12 0.56 -0.81 0.14
1 6.61 661 0.120 -8.663 3.026 3.113 1.862 16.541 -1257.681 2392.741 -3732.568 0.140 -0.486 0.476 -0.12 0.55 -0.81 0.14
1 6.62 662 0.038 -8.859 2.907 0.946 1.373 17.090 -1257.681 2392.741 -3732.568 0.195 -0.290 0.599 -0.11 0.55 -0.81 0.15
1 6.63 663 -0.024 -9.003 3.007 1.526 -0.488 15.228 -1152.749 2362.611 -3552.536 0.213 -0.148 0.495 -0.11 0.56 -0.81 0.15
1 6.64 664 0.125 -9.060 2.978 2.411 -1.373 12.177 -1152.749 2362.611 -3552.536 0.046 -0.092 0.522 -0.11 0.56 -0.81 0.15
1 6.65 665 0.043 -9.285 2.974 2.075 -1.160 12.573 -1197.720 2452.702 -3672.607 0.112 0.133 0.527 -0.11 0.56 -0.81 0.15
1 6.66 666 -0.211 -9.180 3.036 0.824 -1.160 14.954 -1197.720 2377.601 -3717.578 0.350 0.026 0.462 -0.11 0.56 -0.81 0.15
1 6.67 667 -0.057 -9.117 2.619 6.744 -3.540 12.970 -1182.729 2437.712 -3687.598 0.177 -0.037 0.877 -0.11 0.56 -0.81 0.15
1 6.68 668 -0.053 -8.945 2.571 6.866 -5.432 11.932 -1257.681 2437.712 -3687.598 0.156 -0.209 0.927 -0.11 0.56 -0.81 0.15
1 6.69 669 -0.110 -8.797 2.504 4.669 -8.087 12.360 -1257.681 2437.712 -3687.598 0.199 -0.356 0.998 -0.11 0.56 -0.81 0.15
1 6.70 670 -0.201 -8.639 2.452 2.869 -11.658 11.414 -1257.681 2317.640 -3732.568 0.267 -0.514 1.051 -0.11 0.56 -0.81 0.16
1 6.71 671 -0.254 -8.639 2.370 -0.519 -15.839 9.827 -1257.681 2317.640 -3732.568 0.313 -0.515 1.128 -0.11 0.56 -0.81 0.16
1 6.72 672 -0.302 -8.835 2.299 0.763 -19.379 11.108 -1152.749 2392.741 -3762.549 0.355 -0.322 1.192 -0.11 0.56 -0.81 0.16
1 6.73 673 -0.646 -8.849 2.370 3.601 -22.308 10.345 -1137.759 2377.601 -3567.526 0.694 -0.309 1.117 -0.11 0.56 -0.81 0.16
1 6.74 674 -0.824 -8.744 2.571 -2.808 -21.179 11.444 -1167.739 2422.722 -3717.578 0.865 -0.416 0.911 -0.11 0.56 -0.81 0.16
1 6.75 675 -1.049 -8.840 2.591 -1.312 -25.543 10.925 -1227.700 2317.640 -3762.549 1.082 -0.324 0.882 -0.11 0.56 -0.81 0.16
1 6.76 676 -1.068 -8.926 2.682 4.517 -30.945 12.970 -1227.700 2317.640 -3762.549 1.093 -0.241 0.783 -0.12 0.56 -0.81 0.17
1 6.77 677 -0.876 -9.266 3.026 -1.068 -28.809 9.979 -1272.671 2452.702 -3672.607 0.893 0.098 0.436 -0.12 0.56 -0.81 0.17
1 6.78 678 -0.642 -9.673 3.146 -3.601 -27.222 12.665 -1272.671 2452.702 -3672.607 0.647 0.500 0.302 -0.12 0.56 -0.8 0.17
1 6.79 679 -0.306 -9.802 3.232 0.610 -26.062 14.801 -1242.690 2272.669 -3642.627 0.304 0.626 0.209 -0.12 0.56 -0.8 0.17
1 6.80 680 -0.005 -9.994 3.472 8.331 -22.949 15.961 -1152.749 2317.640 -3657.617 -0.007 0.818 -0.031 -0.12 0.56 -0.8 0.18
1 6.81 681 0.225 -9.759 4.142 14.435 -17.700 16.296 -1377.752 2422.722 -3672.607 -0.246 0.587 -0.690 -0.12 0.56 -0.8 0.18
1 6.82 682 0.445 -9.659 4.233 20.142 -7.477 15.198 -1272.671 2452.702 -3717.578 -0.478 0.495 -0.759 -0.12 0.55 -0.8 0.18
1 6.83 683 0.297 -9.678 4.439 22.125 -3.815 12.817 -1272.671 2452.702 -3717.578 -0.344 0.526 -0.935 -0.12 0.55 -0.8 0.18
1 6.84 684 0.661 -9.410 4.281 24.170 -1.740 7.294 -1347.772 2347.621 -3777.539 -0.718 0.271 -0.742 -0.12 0.55 -0.8 0.18
1 6.85 685 0.742 -9.007 3.060 26.611 -3.052 0.214 -1347.772 2347.621 -3777.539 -0.802 -0.101 0.555 -0.12 0.55 -0.81 0.18
1 6.86 686 0.723 -8.916 2.567 22.217 -9.369 -4.517 -1257.681 2317.640 -3807.520 -0.771 -0.179 1.081 -0.12 0.55 -0.81 0.18
1 6.87 687 0.776 -9.012 2.466 12.177 -13.062 -6.256 -1152.749 2317.640 -3582.516 -0.803 -0.075 1.204 -0.12 0.55 -0.81 0.18
1 6.88 688 0.374 -9.606 2.251 -4.822 -17.578 -6.531 -1317.642 2302.650 -3747.559 -0.376 0.521 1.425 -0.12 0.55 -0.81 0.18
1 6.89 689 -0.077 -10.109 2.164 -4.974 -20.752 -5.859 -1317.642 2272.669 -3717.578 0.099 1.019 1.498 -0.12 0.55 -0.81 0.18
1 6.90 690 -0.752 -10.741 2.184 0.214 -23.743 -4.303 -1317.642 2272.669 -3717.578 0.796 1.643 1.458 -0.13 0.55 -0.81 0.18
1 6.91 691 -0.939 -11.038 4.046 5.157 -20.569 -2.472 -1287.661 2392.741 -3837.500 1.001 1.933 -0.421 -0.13 0.55 -0.81 0.18
1 6.92 692 -0.532 -13.963 6.134 -26.215 11.139 18.799 -1287.661 2392.741 -3837.500 0.614 4.859 -2.508 -0.13 0.55 -0.81 0.18
1 6.93 693 -1.226 -12.436 1.628 -7.080 -3.235 33.020 -1332.782 2317.640 -3807.520 1.270 3.316 1.958 -0.13 0.55 -0.81 0.19
1 6.94 694 -0.010 -11.143 4.750 52.612 5.249 16.174 -1347.772 2422.722 -3672.607 0.018 2.028 -1.150 -0.13 0.55 -0.81 0.19
1 6.95 695 0.704 -10.281 4.305 33.905 13.763 22.369 -1347.772 2422.722 -3672.607 -0.723 1.195 -0.632 -0.13 0.54 -0.81 0.19
1 6.96 696 0.637 -9.764 3.362 -4.669 8.850 24.231 -1272.671 2377.601 -3822.510 -0.694 0.691 0.343 -0.12 0.54 -0.81 0.19
1 6.97 697 0.283 -9.960 3.572 1.892 16.327 23.132 -1272.671 2377.601 -3822.510 -0.374 0.884 0.124 -0.12 0.54 -0.81 0.19
1 6.98 698 -0.311 -9.788 3.108 6.256 17.548 26.520 -1182.729 2437.712 -3687.598 0.188 0.711 0.585 -0.12 0.54 -0.81 0.19
1 6.99 699 -0.690 -9.501 2.978 8.026 12.390 26.917 -1182.729 2437.712 -3687.598 0.479 0.428 0.721 -0.12 0.55 -0.81 0.19
1 7.00 700 -0.709 -8.782 3.223 14.191 5.920 24.048 -1347.772 2347.621 -3672.607 0.457 -0.286 0.485 -0.12 0.55 -0.81 0.19
1 7.01 701 -0.833 -8.667 3.362 11.169 5.920 22.369 -1347.772 2272.669 -3747.559 0.544 -0.393 0.363 -0.11 0.54 -0.81 0.2
1 7.02 702 -0.795 -8.710 3.271 -1.648 6.317 22.736 -1347.772 2272.669 -3747.559 0.469 -0.345 0.462 -0.11 0.54 -0.81 0.2
1 7.03 703 -0.393 -8.868 3.357 -11.414 2.319 21.729 -1272.671 2272.669 -3717.578 0.031 -0.189 0.368 -0.11 0.55 -0.81 0.2
1 7.04 704 0.115 -8.639 3.338 -8.423 -1.190 17.548 -1272.671 2272.669 -3717.578 -0.510 -0.425 0.369 -0.11 0.55 -0.81 0.2
1 7.05 705 0.407 -8.437 3.721 -4.395 -3.326 13.855 -1152.749 2242.689 -3867.630 -0.825 -0.631 -0.029 -0.11 0.55 -0.81 0.2
1 7.06 706 0.421 -8.418 3.936 2.808 -4.181 17.151 -1152.749 2242.689 -3867.630 -0.851 -0.653 -0.253 -0.11 0.55 -0.8 0.2
1 7.07 707 0.215 -7.978 4.434 7.202 -5.341 17.761 -1227.700 2392.741 -3762.549 -0.671 -1.086 -0.736 -0.11 0.55 -0.8 0.2
1 7.08 708 0.000 -7.916 4.568 6.683 -3.265 16.296 -1167.739 2197.718 -3897.611 -0.469 -1.141 -0.853 -0.11 0.55 -0.8 0.2
1 7.09 709 -0.536 -7.456 4.607 10.529 -2.625 19.775 -1167.739 2197.718 -3897.611 0.049 -1.592 -0.873 -0.11 0.55 -0.81 0.21
1 7.10 710 -0.833 -7.173 4.702 10.254 -5.005 17.731 -1092.638 2197.718 -3822.510 0.324 -1.865 -0.949 -0.11 0.54 -0.81 0.21
1 7.11 711 -1.154 -6.704 5.172 0.610 -8.972 16.846 -1092.638 2197.718 -3822.510 0.625 -2.328 -1.405 -0.11 0.54 -0.81 0.21
1 7.12 712 -1.293 -6.795 5.325 -13.092 -13.489 16.937 -1152.749 2392.741 -3837.500 0.746 -2.234 -1.554 -0.11 0.54 -0.81 0.21
1 7.13 713 -1.178 -7.164 5.315 -29.541 -15.778 16.144 -1152.749 2392.741 -3837.500 0.617 -1.870 -1.558 -0.11 0.54 -0.8 0.21
1 7.14 714 -0.723 -8.198 5.157 -36.621 -19.318 18.097 -1047.667 2392.741 -3732.568 0.134 -0.862 -1.468 -0.11 0.55 -0.8 0.21
1 7.15 715 -0.402 -8.672 5.042 -28.198 -20.538 18.768 -1107.778 2287.660 -3732.568 -0.201 -0.401 -1.388 -0.11 0.55 -0.8 0.21
1 7.16 716 -0.215 -8.787 4.937 -15.137 -17.944 20.447 -1107.778 2287.660 -3732.568 -0.401 -0.294 -1.305 -0.11 0.55 -0.8 0.22
1 7.17 717 -0.148 -8.514 4.904 -5.798 -14.984 24.109 -1167.739 2302.650 -3612.646 -0.484 -0.569 -1.278 -0.11 0.55 -0.8 0.22
1 7.18 718 -0.182 -8.097 4.750 -7.202 -12.756 24.689 -1287.661 2437.712 -3732.568 -0.472 -0.983 -1.122 -0.11 0.55 -0.8 0.22
1 7.19 719 -0.187 -8.327 4.784 -14.343 -8.850 24.109 -1317.642 2452.702 -3612.646 -0.489 -0.750 -1.154 -0.11 0.55 -0.8 0.22
1 7.20 720 -0.153 -8.418 4.664 -18.494 -6.287 25.635 -1317.642 2452.702 -3612.646 -0.546 -0.660 -1.041 -0.11 0.55 -0.8 0.22
1 7.21 721 -0.326 -8.610 4.712 -16.876 -3.723 24.048 -1152.749 2362.611 -3687.598 -0.426 -0.477 -1.120 -0.11 0.55 -0.79 0.23
1 7.22 722 -0.163 -8.897 4.544 -10.468 -4.639 19.531 -1197.720 2422.722 -3747.559 -0.613 -0.192 -0.963 -0.11 0.55 -0.79 0.23
1 7.23 723 0.369 -8.907 4.334 -7.843 -6.805 13.794 -1197.720 2422.722 -3747.559 -1.161 -0.183 -0.758 -0.11 0.55 -0.79 0.23
1 7.24 724 0.464 -9.146 4.271 -7.721 -9.491 7.690 -1272.671 2272.669 -3777.539 -1.260 0.055 -0.700 -0.11 0.55 -0.79 0.23
1 7.25 725 0.666 -9.290 4.219 -7.324 -11.231 0.244 -1107.778 2512.663 -3867.630 -1.453 0.196 -0.652 -0.11 0.55 -0.79 0.23
1 7.26 726 0.651 -9.218 4.065 -6.958 -13.733 -5.310 -1242.690 2422.722 -3777.539 -1.422 0.121 -0.504 -0.11 0.55 -0.79 0.23
1 7.27 727 0.340 -9.237 3.931 -7.416 -15.167 -8.392 -1242.690 2422.722 -3777.539 -1.085 0.136 -0.374 -0.11 0.55 -0.79 0.23
1 7.28 728 -0.010 -9.007 3.821 -5.035 -17.059 -12.116 -1272.671 2497.673 -3612.646 -0.671 -0.103 -0.274 -0.12 0.55 -0.79 0.23
1 7.29 729 -0.230 -9.156 3.797 -3.693 -18.158 -13.947 -1062.658 2377.601 -3672.607 -0.415 0.042 -0.252 -0.12 0.55 -0.79 0.23
1 7.30 730 -0.623 -8.878 3.721 -6.744 -18.738 -15.167 -1062.658 2377.601 -3672.607 0.012 -0.240 -0.180 -0.12 0.55 -0.79 0.23
1 7.31 731 -0.723 -8.931 3.654 -8.392 -19.318 -14.282 -1137.759 2497.673 -3717.578 0.145 -0.191 -0.119 -0.12 0.55 -0.79 0.23
1 7.32 732 -0.685 -8.979 3.510 -6.439 -19.165 -12.970 -1287.661 2392.741 -3627.637 0.138 -0.149 0.016 -0.12 0.55 -0.79 0.23
1 7.33 733 -0.369 -8.902 3.558 -5.066 -18.494 -12.848 -1167.739 2452.702 -3777.539 -0.148 -0.230 -0.040 -0.13 0.55 -0.79 0.23
1 7.34 734 -0.081 -8.921 3.500 -5.127 -17.395 -10.559 -1167.739 2452.702 -3777.539 -0.406 -0.215 0.012 -0.13 0.55 -0.79 0.23
1 7.35 735 0.168 -8.955 3.615 -5.005 -15.533 -10.193 -1227.700 2512.663 -3582.516 -0.627 -0.185 -0.109 -0.13 0.55 -0.79 0.23
1 7.36 736 0.512 -9.122 3.457 -1.099 -9.918 -8.087 -1317.642 2377.601 -3777.539 -0.917 -0.023 0.041 -0.13 0.55 -0.79 0.23
1 7.37 737 0.603 -9.003 3.486 0.916 -5.310 -8.759 -1317.642 2377.601 -3777.539 -0.983 -0.144 0.011 -0.13 0.55 -0.79 0.23
1 7.38 738 0.656 -9.122 3.433 1.373 -3.021 -8.514 -1257.681 2617.745 -3657.617 -1.011 -0.025 0.066 -0.13 0.55 -0.79 0.23
1 7.39 739 0.570 -9.137 3.433 2.563 -1.434 -9.125 -1332.782 2617.745 -3657.617 -0.902 -0.010 0.069 -0.14 0.55 -0.79 0.23
1 7.40 740 0.412 -9.285 3.405 4.761 1.221 -10.407 -1272.671 2572.624 -3747.559 -0.722 0.139 0.101 -0.14 0.55 -0.79 0.22
1 7.41 741 0.474 -9.242 3.457 6.042 3.418 -10.712 -1272.671 2572.624 -3747.559 -0.763 0.097 0.053 -0.14 0.55 -0.79 0.22
1 7.42 742 0.388 -9.194 3.400 7.568 6.195 -11.963 -1422.723 2317.640 -3807.520 -0.656 0.051 0.117 -0.14 0.55 -0.79 0.22
1 7.43 743 0.306 -9.362 3.256 7.294 9.186 -13.092 -1272.671 2422.722 -3852.640 -0.535 0.224 0.278 -0.14 0.55 -0.8 0.22
1 7.44 744 0.311 -9.218 3.266 8.606 12.695 -12.970 -1272.671 2422.722 -3852.640 -0.521 0.083 0.276 -0.14 0.55 -0.8 0.22
1 7.45 745 0.254 -9.242 3.079 9.155 15.259 -12.054 -1347.772 2497.673 -3777.539 -0.447 0.110 0.472 -0.14 0.55 -0.8 0.22
1 7.46 746 0.182 -9.098 2.883 9.308 17.883 -11.475 -1287.661 2512.663 -3762.549 -0.361 -0.030 0.677 -0.14 0.55 -0.8 0.21
1 7.47 747 0.407 -8.873 2.667 8.423 23.987 -8.087 -1362.762 2662.715 -3657.617 -0.576 -0.252 0.901 -0.14 0.55 -0.8 0.21
1 7.48 748 0.402 -8.495 2.648 4.089 28.107 -5.188 -1362.762 2662.715 -3657.617 -0.566 -0.628 0.928 -0.13 0.55 -0.8 0.21
1 7.49 749 0.292 -8.686 2.543 -2.350 29.419 -4.181 -1227.700 2437.712 -3687.598 -0.457 -0.436 1.035 -0.13 0.55 -0.8 0.21
1 7.50 750 0.445 -8.768 2.538 -6.775 31.250 -3.235 -1332.782 2437.712 -3687.598 -0.621 -0.363 1.017 -0.13 0.55 -0.8 0.21
1 7.51 751 0.579 -9.098 2.375 -4.852 37.018 -2.075 -1332.782 2437.712 -3687.598 -0.764 -0.039 1.163 -0.13 0.55 -0.8 0.2
1 7.52 752 0.469 -9.290 2.485 -3.265 41.046 -2.441 -1197.720 2527.653 -3852.640 -0.664 0.147 1.038 -0.13 0.55 -0.8 0.2
1 7.53 753 0.378 -9.376 2.519 -1.099 42.420 -2.930 -1242.690 2422.722 -3717.578 -0.586 0.229 0.992 -0.12 0.55 -0.8 0.2
1 7.54 754 0.239 -9.366 2.749 2.747 41.657 -2.747 -1152.749 2542.644 -3732.568 -0.459 0.216 0.752 -0.12 0.55 -0.8 0.2
1 7.55 755 0.072 -9.141 2.758 5.524 41.290 -3.113 -1152.749 2542.644 -3732.568 -0.305 -0.011 0.738 -0.12 0.55 -0.8 0.19
1 7.56 756 -0.134 -8.835 2.921 5.371 39.642 -4.791 -1077.648 2467.692 -3687.598 -0.113 -0.317 0.575 -0.12 0.55 -0.8 0.19
1 7.57 757 -0.350 -8.916 3.079 5.646 37.293 -5.615 -1077.648 2362.611 -3657.617 0.090 -0.235 0.418 -0.12 0.56 -0.8 0.19
1 7.58 758 -0.383 -9.046 3.299 2.899 24.292 -6.317 -1077.648 2362.611 -3657.617 0.107 -0.103 0.203 -0.11 0.56 -0.8 0.19
1 7.59 759 -0.192 -9.094 3.371 3.510 15.991 -7.477 -1197.720 2377.601 -3717.578 -0.085 -0.055 0.132 -0.11 0.56 -0.8 0.19
1 7.60 760 -0.043 -9.184 3.510 5.402 16.083 -6.653 -1047.667 2362.611 -3807.520 -0.230 0.038 -0.003 -0.11 0.56 -0.8 0.18
1 7.61 761 -0.488 -9.252 3.127 3.601 18.189 -6.409 -1107.778 2392.741 -3687.598 0.219 0.107 0.386 -0.11 0.56 -0.8 0.18
1 7.62 762 -0.934 -9.376 2.653 1.923 17.059 -2.197 -1107.778 2392.741 -3687.598 0.663 0.231 0.860 -0.11 0.56 -0.8 0.18
1 7.63 763 -1.044 -9.429 2.433 3.906 19.836 -0.763 -1017.687 2497.673 -3672.607 0.765 0.283 1.078 -0.11 0.56 -0.8 0.18
1 7.64 764 -0.646 -9.568 2.571 6.317 23.102 1.434 -972.716 2437.712 -3687.598 0.356 0.421 0.935 -0.11 0.56 -0.8 0.18
1 7.65 765 -0.742 -9.979 5.852 -5.432 19.013 -0.122 -972.716 2437.712 -3687.598 0.420 0.833 -2.348 -0.1 0.56 -0.8 0.18
1 7.66 766 -1.164 -11.339 4.755 -35.462 3.937 -16.571 -987.707 2527.653 -3717.578 0.839 2.187 -1.266 -0.1 0.56 -0.8 0.18
1 7.67 767 -0.292 -12.450 3.347 -32.318 0.977 -27.130 -1107.778 2437.712 -3627.637 -0.003 3.276 0.086 -0.1 0.56 -0.8 0.17
1 7.68 768 -0.306 -12.307 4.463 14.893 2.045 -19.013 -1047.667 2317.640 -3762.549 0.049 3.120 -1.060 -0.1 0.56 -0.8 0.17
1 7.69 769 -0.685 -11.162 4.386 13.550 1.312 -19.440 -1047.667 2317.640 -3762.549 0.456 1.981 -0.968 -0.11 0.56 -0.8 0.17
1 7.70 770 -0.651 -10.051 3.716 1.678 -0.885 -18.127 -1137.759 2452.702 -3567.526 0.451 0.874 -0.283 -0.11 0.56 -0.8 0.17
1 7.71 771 -0.627 -10.075 4.133 -8.820 3.876 -18.280 -1017.687 2527.653 -3717.578 0.455 0.899 -0.696 -0.11 0.56 -0.8 0.17
1 7.72 772 -0.168 -10.942 3.472 -17.853 -3.204 -19.684 -1017.687 2527.653 -3717.578 0.046 1.753 -0.067 -0.11 0.56 -0.8 0.17
1 7.73 773 0.570 -10.904 3.275 -3.784 -2.869 -16.632 -1107.778 2437.712 -3627.637 -0.661 1.706 0.108 -0.11 0.56 -0.8 0.17
1 7.74 774 1.087 -10.329 3.184 13.977 5.005 -11.841 -1137.759 2377.601 -3672.607 -1.154 1.132 0.200 -0.11 0.56 -0.8 0.16
1 7.75 775 1.221 -9.520 3.089 16.693 11.139 -9.918 -1137.759 2377.601 -3672.607 -1.274 0.331 0.317 -0.11 0.56 -0.8 0.16
1 7.76 776 1.226 -8.816 3.424 2.930 11.993 -7.629 -1137.759 2572.624 -3672.607 -1.260 -0.367 -0.001 -0.11 0.56 -0.81 0.16
1 7.77 777 1.058 -8.667 3.314 -3.815 11.231 -9.491 -1257.681 2437.712 -3762.549 -1.078 -0.513 0.115 -0.11 0.56 -0.81 0.16
1 7.78 778 0.972 -8.806 3.400 -4.944 7.202 -10.132 -1152.749 2542.644 -3837.500 -0.973 -0.375 0.026 -0.11 0.56 -0.81 0.16
1 7.79 779 0.656 -8.725 3.625 -2.411 5.737 -12.421 -1152.749 2542.644 -3837.500 -0.617 -0.461 -0.209 -0.11 0.56 -0.81 0.16
1 7.80 780 0.144 -8.380 3.879 3.662 4.303 -13.214 -1272.671 2452.702 -3717.578 -0.083 -0.804 -0.460 -0.11 0.56 -0.81 0.16
1 7.81 781 -0.268 -8.260 3.994 8.270 3.387 -14.557 -1137.759 2497.673 -3642.627 0.350 -0.919 -0.564 -0.11 0.56 -0.81 0.15
1 7.82 782 -0.613 -7.844 4.243 8.789 2.319 -16.419 -1137.759 2497.673 -3642.627 0.714 -1.329 -0.795 -0.11 0.56 -0.81 0.15
1 7.83 783 -1.183 -7.489 4.458 2.075 2.228 -19.226 -1137.759 2497.673 -3717.578 1.303 -1.677 -0.993 -0.11 0.56 -0.81 0.15
1 7.84 784 -1.298 -7.121 4.525 1.953 0.854 -20.813 -1152.749 2587.614 -3657.617 1.442 -2.042 -1.052 -0.11 0.56 -0.81 0.15
1 7.85 785 -1.020 -7.121 4.516 1.831 -0.031 -24.811 -1182.729 2617.745 -3627.637 1.194 -2.041 -1.040 -0.11 0.56 -0.81 0.15
1 7.86 786 -0.814 -6.953 4.698 -1.251 -0.916 -25.513 -1182.729 2617.745 -3627.637 1.024 -2.207 -1.220 -0.12 0.56 -0.81 0.15
1 7.87 787 -0.335 -7.183 4.894 -7.385 -2.655 -24.963 -1257.831 2618.794 -3937.635 0.622 -1.978 -1.425 -0.12 0.56 -0.81 0.15
1 7.88 788 -0.163 -7.561 4.827 -14.557 -2.045 -29.907 -1182.879 2393.791 -3757.602 0.490 -1.603 -1.371 -0.12 0.56 -0.81 0.14
1 7.89 789 -0.225 -8.150 4.698 -18.555 -1.923 -30.579 -1182.879 2393.791 -3757.602 0.596 -1.019 -1.258 -0.12 0.56 -0.81 0.14
1 7.90 790 -0.230 -8.552 4.731 -18.738 -2.472 -30.670 -1227.850 2588.813 -3682.651 0.643 -0.620 -1.306 -0.12 0.56 -0.81 0.14
1 7.91 791 -0.182 -8.758 4.463 -12.512 -3.540 -28.320 -1152.899 2468.892 -3682.651 0.636 -0.418 -1.053 -0.12 0.56 -0.81 0.14
1 7.92 792 -0.215 -8.787 4.281 -6.409 -2.960 -23.895 -1257.831 2513.862 -3802.573 0.708 -0.392 -0.882 -0.13 0.56 -0.81 0.14
1 7.93 793 -0.081 -8.888 4.348 -5.798 -2.441 -22.492 -1257.831 2513.862 -3802.573 0.607 -0.290 -0.953 -0.13 0.56 -0.81 0.14
1 7.94 794 -0.259 -8.926 4.080 -7.477 -2.899 -16.571 -1287.811 2543.843 -3832.553 0.836 -0.250 -0.687 -0.13 0.56 -0.81 0.13
1 7.95 795 -0.125 -9.338 4.070 -8.881 -4.761 -15.900 -1317.792 2603.804 -3772.592 0.724 0.161 -0.684 -0.13 0.56 -0.81 0.13
1 7.96 796 -0.134 -9.553 3.860 -4.364 -5.646 -10.315 -1317.792 2603.804 -3772.592 0.752 0.375 -0.480 -0.13 0.56 -0.81 0.13
1 7.97 797 -0.187 -9.520 3.946 -0.092 -6.134 -5.066 -1167.889 2498.872 -3772.592 0.817 0.341 -0.569 -0.13 0.56 -0.81 0.13
1 7.98 798 -0.421 -9.410 3.759 0.977 -8.301 1.892 -1242.840 2528.853 -3817.563 1.055 0.232 -0.380 -0.13 0.56 -0.81 0.13
1 7.99 799 -0.431 -9.376 3.706 1.831 -10.437 4.395 -1362.912 2513.862 -3757.602 1.062 0.200 -0.324 -0.13 0.56 -0.81 0.13
1 8.00 800 -0.522 -9.285 3.644 3.479 -10.498 7.324 -1362.912 2513.862 -3757.602 1.146 0.109 -0.259 -0.13 0.56 -0.81 0.13
1 8.01 801 -0.565 -9.247 3.692 4.700 -9.796 10.590 -1347.922 2573.823 -3742.612 1.163 0.074 -0.295 -0.13 0.56 -0.81 0.13
1 8.02 802 -0.517 -9.137 3.802 2.869 -9.674 14.954 -1197.870 2723.875 -3847.543 1.097 -0.036 -0.400 -0.13 0.56 -0.81 0.14
1 8.03 803 -0.474 -9.189 3.620 -0.793 -8.789 16.113 -1197.870 2723.875 -3847.543 1.030 0.017 -0.213 -0.13 0.56 -0.81 0.14
1 8.04 804 -0.479 -9.438 3.668 -2.106 -8.026 19.226 -1317.792 2648.774 -3817.563 1.010 0.264 -0.263 -0.13 0.56 -0.81 0.14
1 8.05 805 -0.177 -9.333 3.644 1.221 -9.125 19.287 -1257.831 2543.843 -3802.573 0.679 0.157 -0.240 -0.13 0.56 -0.81 0.14
1 8.06 806 -0.005 -9.548 3.591 3.387 -8.759 19.074 -1317.792 2528.853 -3817.563 0.477 0.372 -0.185 -0.13 0.56 -0.81 0.14
1 8.07 807 0.043 -9.424 3.544 3.845 -9.094 19.318 -1317.792 2528.853 -3817.563 0.405 0.247 -0.133 -0.13 0.56 -0.81 0.14
1 8.08 808 -0.019 -9.477 3.448 5.829 -10.468 18.982 -1287.811 2468.892 -3832.553 0.421 0.302 -0.027 -0.13 0.56 -0.81 0.15
1 8.09 809 -0.081 -9.405 3.165 8.575 -12.665 19.318 -1227.850 2618.794 -3757.602 0.461 0.233 0.265 -0.13 0.56 -0.81 0.15
1 8.10 810 -0.249 -8.868 3.022 10.101 -14.557 18.372 -1227.850 2618.794 -3757.602 0.608 -0.301 0.419 -0.13 0.56 -0.81 0.15
1 8.11 811 -0.383 -8.926 2.902 9.399 -14.557 19.592 -1287.811 2618.794 -3757.602 0.722 -0.240 0.550 -0.13 0.55 -0.81 0.15
1 8.12 812 -0.546 -8.787 2.892 6.378 -18.189 18.433 -1272.821 2723.875 -3847.543 0.862 -0.376 0.568 -0.13 0.55 -0.81 0.15
1 8.13 813 -0.311 -8.854 2.830 5.432 -19.867 17.731 -1272.821 2573.823 -3892.664 0.606 -0.308 0.637 -0.13 0.55 -0.81 0.16
1 8.14 814 -0.125 -9.108 2.797 4.730 -19.836 18.890 -1272.821 2573.823 -3892.664 0.401 -0.053 0.673 -0.13 0.55 -0.81 0.16
1 8.15 815 -0.139 -8.935 2.701 4.456 -20.447 19.135 -1287.811 2543.843 -3832.553 0.398 -0.225 0.771 -0.13 0.55 -0.81 0.16
1 8.16 816 0.057 -9.007 2.677 5.463 -21.881 14.862 -1362.912 2693.895 -3937.635 0.171 -0.154 0.796 -0.13 0.55 -0.81 0.16
1 8.17 817 0.010 -8.964 2.514 3.571 -21.210 16.754 -1362.912 2693.895 -3937.635 0.209 -0.197 0.960 -0.13 0.55 -0.81 0.17
1 8.18 818 0.048 -9.012 2.543 3.540 -22.430 15.564 -1317.792 2648.774 -3847.543 0.160 -0.150 0.929 -0.13 0.55 -0.81 0.17
1 8.19 819 -0.010 -8.873 2.442 3.326 -21.820 14.526 -1197.870 2678.905 -3817.563 0.208 -0.290 1.028 -0.13 0.55 -0.81 0.17
1 8.20 820 -0.134 -8.955 2.447 0.183 -21.088 12.451 -1197.870 2603.804 -3817.563 0.325 -0.209 1.021 -0.13 0.55 -0.8 0.17
1 8.21 821 -0.134 -9.223 2.528 -1.129 -20.874 12.970 -1197.870 2603.804 -3817.563 0.318 0.057 0.934 -0.13 0.55 -0.8 0.17
1 8.22 822 -0.268 -9.314 2.514 1.587 -19.898 11.688 -1467.844 2393.791 -3832.553 0.445 0.144 0.940 -0.13 0.55 -0.8 0.17
1 8.23 823 -0.445 -9.184 2.428 5.707 -20.325 11.383 -1347.922 2648.774 -3772.592 0.607 0.012 1.018 -0.13 0.55 -0.8 0.18
1 8.24 824 -0.335 -8.873 2.174 5.096 -20.996 9.003 -1347.922 2648.774 -3772.592 0.492 -0.299 1.274 -0.13 0.55 -0.8 0.18
1 8.25 825 -0.201 -8.782 2.370 0.122 -22.369 7.721 -1242.840 2648.774 -3847.543 0.355 -0.391 1.074 -0.13 0.55 -0.8 0.18
1 8.26 826 -0.153 -9.146 2.342 -5.005 -22.156 6.287 -1242.840 2648.774 -3847.543 0.308 -0.031 1.093 -0.14 0.55 -0.8 0.18
1 8.27 827 -0.340 -9.055 2.140 -1.526 -24.445 5.249 -1392.893 2663.915 -3727.622 0.497 -0.128 1.279 -0.14 0.55 -0.8 0.18
1 8.28 828 -0.354 -8.979 2.217 -0.092 -26.276 3.723 -1392.893 2663.915 -3727.622 0.515 -0.209 1.189 -0.14 0.55 -0.8 0.18
1 8.29 829 -0.599 -8.854 2.188 -1.495 -27.924 2.655 -1362.912 2438.911 -3832.553 0.765 -0.337 1.209 -0.14 0.55 -0.8 0.19
1 8.30 830 -0.517 -8.797 2.131 -3.571 -30.884 2.533 -1392.893 2513.862 -3967.615 0.700 -0.402 1.244 -0.14 0.55 -0.8 0.19
1 8.31 831 -0.651 -9.213 2.686 -11.353 -28.931 3.326 -1392.893 2513.862 -3967.615 0.841 0.009 0.673 -0.14 0.55 -0.8 0.19
1 8.32 832 -0.737 -9.424 2.725 -7.080 -29.297 7.660 -1332.782 2288.859 -3802.573 0.931 0.212 0.614 -0.15 0.56 -0.8 0.19
1 8.33 833 -0.421 -9.692 3.002 -8.270 -26.550 5.249 -1332.782 2288.859 -3802.573 0.615 0.474 0.319 -0.15 0.56 -0.8 0.19
1 8.34 834 0.043 -9.644 3.553 3.235 -21.423 8.606 -1392.893 2693.895 -3937.635 0.151 0.421 -0.246 -0.15 0.56 -0.79 0.19
1 8.35 835 0.378 -9.649 3.807 5.157 -11.353 7.843 -1392.893 2693.895 -3937.635 -0.188 0.425 -0.503 -0.15 0.56 -0.79 0.19
1 8.36 836 0.345 -9.395 3.572 6.073 -2.899 10.498 -1482.834 2648.774 -3892.664 -0.156 0.173 -0.261 -0.15 0.56 -0.79 0.2
1 8.37 837 0.493 -9.275 3.836 5.005 0.244 9.979 -1497.824 2768.846 -3832.553 -0.313 0.057 -0.515 -0.15 0.56 -0.79 0.2
1 8.38 838 0.709 -9.682 3.769 9.033 3.571 5.371 -1497.824 2768.846 -3832.553 -0.548 0.471 -0.429 -0.15 0.55 -0.79 0.2
1 8.39 839 0.924 -9.568 3.184 6.561 10.651 5.676 -1422.873 2618.794 -3802.573 -0.768 0.361 0.170 -0.15 0.55 -0.8 0.2
1 8.40 840 0.915 -9.453 2.897 7.507 9.705 2.228 -1422.873 2618.794 -3802.573 -0.764 0.249 0.465 -0.15 0.55 -0.8 0.2
1 8.41 841 0.843 -9.692 2.519 7.599 6.134 -0.732 -1482.834 2648.774 -3922.645 -0.691 0.491 0.851 -0.15 0.55 -0.8 0.2
1 8.42 842 0.297 -9.888 2.083 7.965 0.305 -4.150 -1482.834 2648.774 -3922.645 -0.138 0.689 1.291 -0.15 0.55 -0.8 0.2
1 8.43 843 -0.417 -10.305 2.107 2.930 -1.495 -3.387 -1497.824 2438.911 -3832.553 0.585 1.107 1.269 -0.15 0.55 -0.8 0.19
1 8.44 844 -0.809 -10.501 2.045 0.153 -6.287 -3.021 -1317.792 2648.774 -3772.592 0.985 1.301 1.327 -0.15 0.55 -0.8 0.19
1 8.45 845 -1.542 -10.889 2.150 5.310 -14.160 -0.427 -1317.792 2648.774 -3772.592 1.727 1.684 1.207 -0.15 0.55 -0.8 0.19
1 8.46 846 -1.930 -11.047 2.916 8.942 -16.632 0.916 -1377.902 2498.872 -3712.631 2.125 1.845 0.449 -0.15 0.55 -0.8 0.19
1 8.47 847 -1.848 -11.698 6.565 4.974 -10.345 6.378 -1377.902 2498.872 -3712.631 2.051 2.501 -3.188 -0.15 0.55 -0.8 0.2
1 8.48 848 -1.144 -13.518 4.865 -5.402 7.050 36.774 -1497.824 2618.794 -3727.622 1.337 4.320 -1.488 -0.15 0.55 -0.8 0.2
1 8.49 849 -1.317 -11.871 2.251 15.808 4.608 37.354 -1497.824 2618.794 -3727.622 1.462 2.668 1.114 -0.15 0.55 -0.8 0.2
1 8.50 850 0.120 -10.070 4.702 45.105 7.996 28.076 -1497.824 2618.794 -3967.615 -0.024 0.881 -1.299 -0.14 0.55 -0.8 0.2
1 8.51 851 0.101 -9.922 3.548 9.918 10.193 36.011 -1422.873 2663.915 -3757.602 -0.046 0.757 -0.078 -0.14 0.55 -0.8 0.2
1 8.52 852 -0.134 -10.487 3.170 -5.676 3.571 38.788 -1422.873 2663.915 -3757.602 0.083 1.328 0.315 -0.14 0.55 -0.8 0.2
1 8.53 853 -0.316 -10.813 3.347 6.287 1.892 41.260 -1422.873 2588.813 -3907.654 0.210 1.651 0.131 -0.14 0.55 -0.8 0.21
1 8.54 854 -0.589 -10.520 3.615 13.763 -0.519 42.847 -1422.873 2588.813 -3907.654 0.425 1.365 -0.124 -0.13 0.55 -0.8 0.21
1 8.55 855 -0.555 -10.085 3.357 18.036 -5.005 40.070 -1272.821 2528.853 -3922.645 0.336 0.939 0.156 -0.13 0.55 -0.8 0.21
1 8.56 856 -0.517 -9.371 3.520 16.083 -8.545 35.401 -1272.821 2678.905 -3847.543 0.246 0.235 0.015 -0.13 0.55 -0.8 0.21
1 8.57 857 -0.455 -8.964 3.764 13.153 -13.947 30.121 -1197.870 2498.872 -3892.664 0.138 -0.162 -0.207 -0.13 0.55 -0.8 0.22
1 8.58 858 -0.359 -9.165 4.008 6.287 -16.266 27.527 -1422.873 2513.862 -3862.534 0.007 0.048 -0.432 -0.13 0.55 -0.8 0.22
1 8.59 859 0.000 -8.830 4.099 2.106 -18.890 23.193 -1422.873 2513.862 -3862.534 -0.402 -0.277 -0.502 -0.13 0.55 -0.8 0.22
1 8.60 860 0.464 -8.528 4.439 5.585 -20.538 15.503 -1332.782 2513.862 -4087.537 -0.877 -0.575 -0.833 -0.13 0.55 -0.8 0.23
1 8.61 861 0.565 -8.198 4.631 10.193 -20.538 12.573 -1332.782 2513.862 -4087.537 -0.980 -0.898 -1.008 -0.13 0.55 -0.8 0.23
1 8.62 862 0.273 -8.011 4.760 18.677 -22.461 16.296 -1257.831 2513.862 -3832.553 -0.686 -1.075 -1.111 -0.13 0.54 -0.8 0.23
1 8.63 863 0.048 -7.183 5.143 31.098 -21.362 16.663 -1197.870 2528.853 -3997.596 -0.465 -1.887 -1.454 -0.13 0.54 -0.8 0.23
1 8.64 864 0.038 -6.532 5.344 34.882 -22.308 15.625 -1317.792 2378.800 -3817.563 -0.461 -2.515 -1.601 -0.13 0.54 -0.8 0.23
1 8.65 865 0.249 -5.895 5.545 29.541 -20.813 14.374 -1422.873 2438.911 -3937.635 -0.679 -3.129 -1.747 -0.13 0.54 -0.8 0.23
1 8.66 866 0.053 -5.430 5.588 14.191 -18.982 15.411 -1422.873 2438.911 -3937.635 -0.488 -3.574 -1.745 -0.13 0.54 -0.8 0.24
1 8.67 867 0.364 -5.809 5.536 -19.501 -13.977 16.327 -1287.811 2513.862 -4012.586 -0.817 -3.185 -1.668 -0.13 0.53 -0.8 0.24
1 8.68 868 0.417 -6.503 5.402 -39.185 -10.925 18.127 -1287.811 2513.862 -4012.586 -0.884 -2.504 -1.567 -0.13 0.54 -0.8 0.24
1 8.69 869 0.790 -7.805 5.200 -50.446 -5.981 20.783 -1347.922 2423.921 -3952.625 -1.276 -1.225 -1.425 -0.13 0.54 -0.8 0.24
1 8.70 870 0.613 -8.844 4.846 -46.723 -2.411 22.034 -1182.879 2588.813 -4087.537 -1.114 -0.209 -1.127 -0.13 0.54 -0.79 0.24
1 8.71 871 0.666 -9.285 4.520 -12.116 -0.702 15.991 -1287.811 2513.862 -4087.537 -1.184 0.213 -0.851 -0.13 0.54 -0.79 0.24
1 8.72 872 0.828 -8.524 4.669 5.585 1.190 13.733 -1362.912 2438.911 -3967.615 -1.359 -0.557 -1.021 -0.13 0.54 -0.79 0.24
1 8.73 873 0.570 -7.734 4.927 2.563 4.028 14.160 -1362.912 2438.911 -3967.615 -1.110 -1.343 -1.271 -0.13 0.54 -0.79 0.24
1 8.74 874 0.484 -8.375 4.765 -22.675 7.507 8.087 -1482.834 2528.853 -4027.576 -1.042 -0.696 -1.098 -0.13 0.54 -0.79 0.24
1 8.75 875 0.268 -8.945 4.544 -21.149 8.789 4.730 -1482.834 2528.853 -4027.576 -0.832 -0.135 -0.901 -0.13 0.55 -0.79 0.24
1 8.76 876 0.383 -9.223 4.640 -7.904 8.301 -0.366 -1152.899 2513.862 -3967.615 -0.948 0.135 -1.016 -0.13 0.55 -0.79 0.24
1 8.77 877 0.579 -9.017 4.449 0.885 8.118 -5.127 -1197.870 2648.774 -4027.576 -1.138 -0.072 -0.826 -0.13 0.55 -0.79 0.24
1 8.78 878 0.781 -8.754 4.434 -3.632 8.545 -9.522 -1287.811 2693.895 -3967.615 -1.326 -0.334 -0.806 -0.13 0.55 -0.79 0.24
1 8.79 879 0.814 -8.682 4.257 -8.118 6.775 -14.038 -1287.811 2513.862 -3832.553 -1.341 -0.406 -0.626 -0.13 0.55 -0.79 0.24
1 8.80 880 0.891 -8.897 4.161 -9.705 7.080 -17.273 -1287.811 2513.862 -3832.553 -1.392 -0.194 -0.536 -0.13 0.55 -0.79 0.24
1 8.81 881 0.776 -8.864 4.051 -8.209 5.798 -20.935 -1257.831 2618.794 -3907.654 -1.210 -0.238 -0.443 -0.13 0.55 -0.79 0.23
1 8.82 882 0.378 -8.916 4.051 -4.181 6.073 -24.139 -1257.831 2618.794 -3907.654 -0.773 -0.189 -0.448 -0.13 0.55 -0.79 0.23
1 8.83 883 0.125 -9.022 3.965 -5.890 5.920 -24.201 -1227.850 2618.794 -3937.635 -0.481 -0.086 -0.366 -0.13 0.55 -0.79 0.23
1 8.84 884 -0.268 -8.969 4.008 -5.890 7.202 -24.780 -1272.821 2648.774 -3892.664 -0.052 -0.143 -0.415 -0.13 0.55 -0.8 0.23
1 8.85 885 -0.484 -9.050 3.678 -3.082 7.263 -21.759 -1287.811 2618.794 -3907.654 0.196 -0.065 -0.091 -0.13 0.55 -0.8 0.22
1 8.86 886 -0.747 -8.959 3.654 -0.580 7.355 -19.806 -1332.782 2588.813 -3832.553 0.487 -0.159 -0.072 -0.14 0.55 -0.8 0.22
1 8.87 887 -0.709 -8.840 3.663 0.977 7.965 -18.341 -1332.782 2588.813 -3832.553 0.473 -0.280 -0.083 -0.14 0.55 -0.8 0.22
1 8.88 888 -0.532 -8.763 3.606 0.946 7.813 -15.625 -1362.912 2588.813 -4042.566 0.333 -0.356 -0.022 -0.14 0.55 -0.8 0.22
1 8.89 889 -0.172 -8.519 3.601 -1.312 8.423 -15.411 -1362.912 2588.813 -4042.566 -0.009 -0.601 -0.018 -0.14 0.55 -0.8 0.21
1 8.90 890 0.125 -8.619 3.352 -3.113 10.803 -13.184 -1347.922 2573.823 -3892.664 -0.290 -0.502 0.227 -0.14 0.55 -0.8 0.21
1 8.91 891 0.235 -8.801 3.395 -2.045 12.116 -12.085 -1347.922 2528.853 -3997.596 -0.384 -0.323 0.179 -0.14 0.55 -0.8 0.21
1 8.92 892 0.460 -8.873 3.496 0.397 14.648 -12.329 -1347.922 2648.774 -3922.645 -0.595 -0.252 0.074 -0.14 0.55 -0.8 0.21
1 8.93 893 0.359 -8.964 3.362 1.495 18.372 -11.597 -1257.831 2693.895 -3937.635 -0.479 -0.162 0.207 -0.14 0.55 -0.8 0.21
1 8.94 894 0.220 -8.955 3.338 2.838 19.531 -11.749 -1257.831 2693.895 -3937.635 -0.326 -0.171 0.232 -0.13 0.55 -0.8 0.21
1 8.95 895 0.211 -9.017 3.381 4.608 19.989 -11.993 -1377.902 2723.875 -3997.596 -0.306 -0.109 0.191 -0.13 0.55 -0.8 0.2
1 8.96 896 0.096 -9.070 3.266 6.866 21.851 -12.573 -1377.902 2723.875 -3997.596 -0.172 -0.052 0.315 -0.13 0.55 -0.8 0.2
1 8.97 897 -0.024 -9.113 3.194 6.653 22.858 -11.719 -1167.889 2648.774 -3922.645 -0.045 -0.007 0.394 -0.13 0.55 -0.8 0.2
1 8.98 898 0.019 -9.012 3.251 6.226 23.926 -10.437 -1287.811 2588.813 -3862.534 -0.082 -0.105 0.343 -0.13 0.55 -0.8 0.2
1 8.99 899 0.062 -9.022 3.036 6.317 22.766 -10.925 -1287.811 2588.813 -3862.534 -0.121 -0.093 0.565 -0.13 0.55 -0.8 0.2
1 9.00 900 0.148 -8.868 2.945 6.287 24.292 -8.972 -1272.821 2753.856 -3847.543 -0.203 -0.244 0.660 -0.13 0.55 -0.8 0.19
1 9.01 901 0.187 -8.902 2.878 6.287 24.689 -8.026 -1272.821 2753.856 -3847.543 -0.238 -0.209 0.731 -0.13 0.55 -0.8 0.19
1 9.02 902 0.211 -8.921 2.835 3.632 24.750 -6.104 -1182.879 2663.915 -3937.635 -0.261 -0.188 0.779 -0.13 0.55 -0.81 0.19
1 9.03 903 0.235 -8.988 2.840 0.092 23.926 -4.822 -1182.879 2663.915 -3937.635 -0.289 -0.122 0.771 -0.12 0.55 -0.81 0.19
1 9.04 904 -0.086 -9.333 2.835 -0.641 23.346 -4.517 -1227.850 2543.843 -3907.654 0.028 0.220 0.770 -0.12 0.55 -0.81 0.19
1 9.05 905 0.125 -9.338 2.720 1.862 22.858 -3.693 -1137.909 2573.823 -3892.664 -0.187 0.223 0.879 -0.12 0.55 -0.81 0.18
1 9.06 906 0.101 -9.419 2.643 3.998 24.597 -2.167 -1137.909 2573.823 -3892.664 -0.168 0.302 0.951 -0.12 0.55 -0.81 0.18
1 9.07 907 -0.048 -9.261 2.710 6.012 27.893 -0.244 -1227.850 2693.895 -3937.635 -0.028 0.144 0.882 -0.12 0.55 -0.81 0.18
1 9.08 908 -0.374 -9.366 2.797 2.838 26.886 0.519 -1227.850 2693.895 -3937.635 0.285 0.250 0.798 -0.12 0.55 -0.81 0.18
1 9.09 909 -0.163 -9.204 3.022 2.991 25.024 0.885 -1152.899 2618.794 -3907.654 0.061 0.087 0.571 -0.12 0.55 -0.81 0.18
1 9.10 910 -0.172 -9.486 2.911 4.852 24.597 -0.397 -1152.899 2618.794 -3907.654 0.045 0.369 0.679 -0.11 0.55 -0.81 0.18
1 9.11 911 -0.019 -9.343 3.156 3.510 19.714 -0.763 -1182.879 2618.794 -4087.537 -0.119 0.225 0.436 -0.11 0.55 -0.81 0.17
1 9.12 912 0.168 -9.299 3.232 2.594 17.456 -1.465 -1137.909 2603.804 -4057.557 -0.312 0.182 0.359 -0.11 0.55 -0.81 0.17
1 9.13 913 -0.168 -9.362 3.089 6.989 16.632 -2.167 -1137.909 2603.804 -4057.557 0.020 0.245 0.503 -0.11 0.55 -0.81 0.17
1 9.14 914 -0.517 -9.275 3.113 3.967 12.329 -2.014 -1047.817 2693.895 -4117.518 0.365 0.161 0.484 -0.11 0.55 -0.81 0.17
1 9.15 915 -0.522 -9.357 3.156 3.021 9.979 -3.174 -1047.817 2693.895 -4117.518 0.366 0.243 0.442 -0.11 0.55 -0.81 0.17
1 9.16 916 -0.599 -9.596 3.352 2.289 10.498 -4.089 -1107.928 2693.895 -4042.566 0.439 0.482 0.246 -0.11 0.55 -0.81 0.17
1 9.17 917 -0.541 -9.515 3.395 3.723 8.301 -3.784 -1107.928 2693.895 -4042.566 0.381 0.401 0.203 -0.11 0.55 -0.81 0.17
1 9.18 918 -0.637 -9.467 3.371 7.050 6.226 -2.563 -1002.847 2663.915 -4087.537 0.475 0.355 0.232 -0.1 0.55 -0.81 0.17
1 9.19 919 -0.455 -9.386 3.266 8.179 5.402 -2.533 -1152.899 2618.794 -4012.586 0.292 0.277 0.345 -0.1 0.55 -0.81 0.17
1 9.20 920 -0.292 -9.304 3.007 10.559 8.392 -1.282 -1152.899 2618.794 -4012.586 0.128 0.199 0.612 -0.1 0.55 -0.81 0.17
1 9.21 921 -0.110 -9.223 2.749 7.782 11.200 -1.831 -1092.788 2573.823 -4177.628 -0.056 0.121 0.880 -0.1 0.55 -0.81 0.17
1 9.22 922 0.374 -9.438 2.447 -0.702 13.458 -3.510 -1092.788 2573.823 -4177.628 -0.542 0.337 1.183 -0.1 0.55 -0.81 0.17
1 9.23 923 0.618 -9.668 2.179 -2.838 14.313 -3.113 -1047.817 2663.915 -4117.518 -0.785 0.564 1.444 -0.1 0.55 -0.81 0.16
1 9.24 924 0.824 -9.797 2.016 0.702 16.388 -3.265 -1047.817 2663.915 -4117.518 -0.987 0.688 1.594 -0.1 0.55 -0.81 0.16
1 9.25 925 0.958 -10.032 2.064 0.122 20.111 -4.974 -1047.817 2663.915 -4012.586 -1.112 0.913 1.521 -0.1 0.55 -0.81 0.16
1 9.26 926 0.814 -10.085 3.448 -0.702 20.691 -8.209 -972.866 2543.843 -4117.518 -0.962 0.960 0.124 -0.1 0.55 -0.81 0.16
1 9.27 927 0.115 -10.995 5.066 -12.726 5.707 -17.395 -972.866 2543.843 -4117.518 -0.249 1.866 -1.505 -0.1 0.56 -0.81 0.16
1 9.28 928 0.101 -12.206 4.166 -28.137 -12.390 -31.952 -957.876 2498.872 -4102.527 -0.202 3.067 -0.630 -0.1 0.56 -0.81 0.16
1 9.29 929 0.340 -12.268 3.558 -1.770 -5.920 -31.067 -957.876 2498.872 -4102.527 -0.387 3.115 -0.057 -0.1 0.56 -0.81 0.15
1 9.30 930 -0.809 -11.196 4.228 23.132 -0.916 -35.156 -1062.808 2753.856 -4102.527 0.809 2.046 -0.718 -0.1 0.56 -0.81 0.15
1 9.31 931 -1.231 -10.430 3.577 13.306 -6.500 -36.682 -1062.808 2753.856 -4102.527 1.280 1.292 -0.035 -0.11 0.56 -0.81 0.15
1 9.32 932 -1.528 -10.027 3.644 0.580 -7.660 -35.065 -1002.847 2513.862 -4087.537 1.688 0.903 -0.073 -0.11 0.55 -0.81 0.15
1 9.33 933 -1.355 -10.051 3.907 -5.280 -5.157 -37.720 -1047.817 2618.794 -3967.615 1.559 0.926 -0.341 -0.11 0.55 -0.81 0.14
1 9.34 934 -0.919 -10.022 3.601 -3.662 -6.134 -34.638 -1047.817 2618.794 -3967.615 1.181 0.895 -0.043 -0.11 0.55 -0.81 0.14
1 9.35 935 -0.321 -9.802 3.577 5.188 -5.249 -30.853 -1182.879 2738.866 -4147.648 0.630 0.675 -0.023 -0.11 0.55 -0.81 0.14
1 9.36 936 0.407 -8.945 3.635 5.829 4.547 -23.346 -1137.909 2648.774 -4057.557 -0.060 -0.178 -0.073 -0.12 0.55 -0.81 0.14
1 9.37 937 0.503 -8.677 3.553 -1.007 8.240 -19.043 -1227.850 2663.915 -4012.586 -0.123 -0.442 0.017 -0.12 0.55 -0.81 0.14
1 9.38 938 0.488 -8.710 3.539 -5.920 12.421 -13.886 -1227.850 2663.915 -4012.586 -0.083 -0.406 0.034 -0.12 0.55 -0.82 0.13
1 9.39 939 0.402 -8.643 3.400 -5.432 13.550 -6.317 -1167.889 2498.872 -4027.576 0.027 -0.477 0.159 -0.12 0.55 -0.82 0.13
1 9.40 940 0.388 -8.174 3.970 0.885 11.536 -1.984 -1167.889 2528.853 -4102.527 0.040 -0.947 -0.412 -0.12 0.55 -0.82 0.13
1 9.41 941 0.455 -7.978 4.013 8.423 14.526 -3.448 -1167.889 2528.853 -4102.527 -0.028 -1.141 -0.447 -0.11 0.55 -0.82 0.13
1 9.42 942 0.316 -7.710 4.420 12.543 12.939 -3.510 -1182.879 2663.915 -4222.599 0.109 -1.401 -0.835 -0.11 0.55 -0.82 0.13
1 9.43 943 0.244 -7.327 4.904 11.963 13.123 -7.935 -1047.817 2513.862 -4252.580 0.183 -1.773 -1.291 -0.11 0.55 -0.82 0.13
1 9.44 944 0.057 -6.886 5.205 6.989 12.207 -13.794 -1137.909 2648.774 -4132.658 0.377 -2.204 -1.569 -0.11 0.55 -0.82 0.13
1 9.45 945 -0.297 -6.771 5.287 -2.533 11.231 -16.083 -1137.909 2648.774 -4132.658 0.743 -2.313 -1.638 -0.11 0.55 -0.82 0.12
1 9.46 946 -0.522 -6.766 5.291 -14.191 10.773 -19.959 -1047.817 2543.843 -4117.518 0.984 -2.317 -1.642 -0.11 0.55 -0.82 0.12
1 9.47 947 -0.627 -7.547 5.296 -32.196 5.707 -25.543 -1017.837 2603.804 -4057.557 1.141 -1.553 -1.696 -0.11 0.55 -0.82 0.12
1 9.48 948 -0.584 -8.184 5.157 -39.215 4.089 -31.128 -1017.837 2603.804 -4057.557 1.127 -0.927 -1.588 -0.11 0.55 -0.82 0.12
1 9.49 949 -0.292 -9.003 4.793 -34.851 4.120 -31.250 -1242.840 2498.872 -4177.628 0.870 -0.122 -1.265 -0.11 0.55 -0.82 0.11
1 9.50 950 -0.192 -9.424 4.707 -22.095 5.127 -28.442 -1167.889 2603.804 -4027.576 0.805 0.288 -1.213 -0.11 0.56 -0.82 0.11
1 9.51 951 0.048 -9.175 4.640 -5.280 5.463 -19.898 -1167.889 2603.804 -4027.576 0.594 0.035 -1.164 -0.12 0.56 -0.82 0.11
1 9.52 952 0.201 -8.739 4.564 0.183 4.089 -13.977 -1167.889 2603.804 -4027.576 0.464 -0.400 -1.090 -0.12 0.56 -0.82 0.11
1 9.53 953 0.187 -8.605 4.587 -2.197 1.953 -10.529 -1137.909 2798.827 -4057.557 0.494 -0.531 -1.107 -0.12 0.56 -0.82 0.11
1 9.54 954 0.546 -8.744 4.626 -7.965 -2.686 -5.951 -1317.792 2573.823 -3997.596 0.161 -0.387 -1.139 -0.12 0.56 -0.82 0.11
1 9.55 955 0.570 -9.022 4.798 -5.798 -4.456 0.000 -1317.792 2573.823 -3997.596 0.145 -0.110 -1.314 -0.12 0.56 -0.82 0.11
1 9.56 956 0.292 -8.974 4.645 0.153 -6.470 5.768 -1197.870 2648.774 -4132.658 0.425 -0.157 -1.159 -0.12 0.56 -0.82 0.11
1 9.57 957 -0.383 -8.639 4.722 -0.061 -5.676 13.763 -1362.912 2693.895 -4012.586 1.091 -0.490 -1.228 -0.12 0.56 -0.82 0.11
1 9.58 958 -0.824 -8.442 4.559 -1.587 -10.986 18.189 -1242.840 2798.827 -4057.557 1.510 -0.685 -1.058 -0.12 0.55 -0.82 0.11
1 9.59 959 -0.982 -8.351 4.482 -3.204 -10.986 20.569 -1242.840 2798.827 -4057.557 1.641 -0.776 -0.976 -0.12 0.55 -0.82 0.11
1 9.60 960 -0.862 -8.361 4.506 -4.181 -9.338 21.790 -1077.798 2738.866 -4192.619 1.489 -0.767 -0.996 -0.12 0.55 -0.82 0.11
1 9.61 961 -0.728 -8.361 4.228 -4.517 -7.446 22.400 -1197.870 2723.875 -4102.527 1.284 -0.771 -0.716 -0.11 0.55 -0.82 0.12
1 9.62 962 -0.469 -8.706 4.061 -6.592 -6.531 22.064 -1197.870 2723.875 -4102.527 0.991 -0.429 -0.550 -0.11 0.56 -0.82 0.12
1 9.63 963 -0.105 -8.725 3.936 -6.928 -5.341 21.973 -1347.922 2453.901 -4132.658 0.594 -0.414 -0.431 -0.11 0.56 -0.82 0.12
1 9.64 964 0.177 -9.074 3.975 -6.805 -4.181 19.501 -1137.909 2723.875 -3922.645 0.282 -0.068 -0.475 -0.11 0.56 -0.81 0.12
1 9.65 965 0.445 -9.199 3.869 -3.876 -0.916 24.323 -1242.840 2723.875 -4057.557 -0.016 0.053 -0.374 -0.11 0.56 -0.81 0.12
1 9.66 966 0.546 -8.916 3.601 -0.336 -0.153 26.093 -1242.840 2723.875 -4057.557 -0.149 -0.232 -0.109 -0.11 0.56 -0.81 0.12
1 9.67 967 0.713 -9.175 3.630 -0.793 0.214 22.949 -1047.817 2768.846 -4192.619 -0.352 0.025 -0.138 -0.11 0.56 -0.81 0.13
1 9.68 968 0.512 -9.031 3.500 -2.197 0.366 25.818 -1137.909 2798.827 -4057.557 -0.210 -0.121 -0.011 -0.11 0.56 -0.81 0.13
1 9.69 969 0.488 -8.730 3.342 -1.801 -1.801 24.323 -1137.909 2798.827 -4057.557 -0.217 -0.425 0.145 -0.11 0.56 -0.81 0.13
1 9.70 970 0.206 -9.026 3.309 -1.404 -3.174 22.919 -1092.788 2873.778 -4057.557 0.039 -0.130 0.175 -0.11 0.56 -0.81 0.13
1 9.71 971 0.019 -9.079 3.357 -1.007 -4.364 20.477 -1152.899 2768.846 -4087.537 0.199 -0.079 0.124 -0.1 0.56 -0.81 0.13
1 9.72 972 -0.235 -9.012 3.103 -0.854 -5.890 20.081 -1077.798 2768.846 -4147.648 0.428 -0.148 0.376 -0.1 0.56 -0.81 0.13
1 9.73 973 -0.383 -9.084 3.160 0.610 -8.545 17.212 -1077.798 2768.846 -4147.648 0.551 -0.078 0.315 -0.1 0.56 -0.81 0.13
1 9.74 974 -0.311 -9.041 3.046 2.777 -11.353 16.419 -1062.808 2873.778 -4132.658 0.458 -0.122 0.427 -0.1 0.56 -0.81 0.14
1 9.75 975 -0.206 -9.161 3.079 3.906 -11.139 15.076 -972.866 2768.846 -4087.537 0.332 -0.003 0.394 -0.1 0.56 -0.81 0.14
1 9.76 976 -0.053 -9.113 2.950 3.510 -13.916 14.801 -972.866 2768.846 -4087.537 0.148 -0.049 0.528 -0.1 0.56 -0.81 0.14
1 9.77 977 -0.081 -8.974 2.859 2.869 -14.618 15.045 -882.925 2723.875 -4237.589 0.163 -0.188 0.620 -0.1 0.56 -0.81 0.14
1 9.78 978 0.057 -8.983 2.935 1.770 -14.679 14.465 -957.876 2678.905 -4207.609 0.012 -0.179 0.542 -0.1 0.56 -0.81 0.14
1 9.79 979 0.010 -9.122 2.911 0.122 -14.740 15.808 -1047.817 2813.817 -4147.648 0.049 -0.040 0.565 -0.1 0.56 -0.81 0.14
1 9.80 980 -0.077 -9.117 3.022 -0.793 -14.893 15.686 -1047.817 2813.817 -4147.648 0.123 -0.047 0.451 -0.1 0.56 -0.81 0.15
1 9.81 981 -0.254 -9.213 2.854 0.519 -15.137 15.778 -1047.817 2843.797 -4087.537 0.286 0.047 0.613 -0.1 0.56 -0.81 0.15
1 9.82 982 -0.302 -9.151 2.739 2.594 -16.327 16.571 -1092.788 2873.778 -4102.527 0.321 -0.016 0.725 -0.1 0.56 -0.81 0.15
1 9.83 983 -0.383 -9.074 2.959 3.601 -17.426 15.442 -1092.788 2873.778 -4102.527 0.375 -0.094 0.503 -0.1 0.56 -0.81 0.15
1 9.84 984 -0.273 -8.935 2.691 7.111 -20.203 14.221 -1017.837 2798.827 -4177.628 0.252 -0.231 0.775 -0.1 0.56 -0.81 0.15
1 9.85 985 -0.244 -8.701 2.749 7.355 -20.935 13.855 -1107.928 2843.797 -4147.648 0.215 -0.463 0.723 -0.11 0.56 -0.81 0.15
1 9.86 986 -0.235 -8.682 2.605 4.364 -22.553 13.367 -1107.928 2843.797 -4147.648 0.198 -0.481 0.872 -0.11 0.56 -0.81 0.16
1 9.87 987 -0.335 -8.873 2.643 1.556 -26.398 11.871 -1047.817 2813.817 -4087.537 0.292 -0.289 0.833 -0.11 0.56 -0.81 0.16
1 9.88 988 -0.354 -9.137 2.677 1.404 -26.215 12.238 -1047.817 2693.895 -4252.580 0.306 -0.028 0.795 -0.11 0.56 -0.81 0.16
1 9.89 989 -0.374 -9.026 2.610 0.916 -25.971 12.238 -1182.879 2618.794 -4117.518 0.322 -0.139 0.860 -0.11 0.56 -0.81 0.16
1 9.90 990 -0.450 -8.873 2.691 2.563 -23.895 11.444 -1182.879 2618.794 -4117.518 0.390 -0.294 0.772 -0.11 0.56 -0.81 0.16
1 9.91 991 -0.527 -8.921 2.907 8.331 -26.550 13.031 -1227.850 2768.846 -4222.599 0.462 -0.247 0.556 -0.11 0.56 -0.81 0.17
1 9.92 992 -0.335 -9.223 2.916 1.648 -23.773 10.468 -1182.879 2843.797 -4192.619 0.265 0.058 0.553 -0.11 0.56 -0.81 0.17
1 9.93 993 -0.441 -9.295 2.844 -3.967 -21.362 9.216 -1182.879 2843.797 -4192.619 0.368 0.128 0.621 -0.11 0.56 -0.81 0.17
1 9.94 994 -0.048 -9.592 2.907 1.068 -22.736 6.928 -1107.928 2813.817 -4222.599 -0.027 0.422 0.550 -0.11 0.56 -0.8 0.17
