COL1	TIME	ACC_X	ACC_Y	ACC_Z	GYR_X	GYR_Y	GYR_Z	MAG_X	MAG_Y	MAG_Z	LACC_X	LACC_Y	LACC_Z	QUAT_X	QUAT_Y	QUAT_Z	QUAT_W
1 0.00 0 0.359 -9.745 1.604 -0.671 -0.702 1.556 -494.978 -359.916 -2954.875 -0.097 0.083 0.016 -0.05 0.64 -0.76 0.04
1 0.01 1 0.259 -9.797 1.647 1.160 -0.305 1.556 -374.906 -359.916 -3059.957 0.004 0.136 -0.026 -0.05 0.64 -0.76 0.04
1 0.02 2 0.235 -9.735 1.604 1.099 -0.885 0.854 -359.916 -449.857 -2969.865 0.028 0.074 0.021 -0.05 0.64 -0.76 0.04
1 0.03 3 0.364 -9.759 1.719 1.617 -0.793 0.641 -389.896 -374.906 -2894.914 -0.101 0.099 -0.090 -0.05 0.64 -0.76 0.04
1 0.04 4 0.263 -9.697 1.575 1.465 -1.373 0.885 -389.896 -374.906 -2894.914 0.001 0.037 0.057 -0.05 0.64 -0.76 0.04
1 0.05 5 0.292 -9.663 1.647 0.824 -1.007 0.092 -359.916 -329.935 -2864.934 -0.027 0.005 -0.011 -0.05 0.64 -0.76 0.04
1 0.06 6 0.278 -9.639 1.619 -0.519 -0.763 0.702 -329.935 -329.935 -3014.986 -0.011 -0.019 0.021 -0.05 0.64 -0.76 0.04
1 0.07 7 0.369 -9.687 1.604 -1.312 -0.702 0.061 -329.935 -329.935 -3014.986 -0.101 0.029 0.036 -0.05 0.64 -0.76 0.04
1 0.08 8 0.292 -9.735 1.518 -1.617 -0.671 1.221 -284.964 -329.935 -2969.865 -0.024 0.077 0.122 -0.05 0.64 -0.76 0.04
1 0.09 9 0.192 -9.797 1.690 -1.984 -0.305 0.427 -374.906 -359.916 -2849.943 0.077 0.139 -0.051 -0.05 0.64 -0.76 0.04
1 0.10 10 0.259 -9.841 1.623 -2.228 -0.366 1.160 -284.964 -524.958 -2819.963 0.009 0.182 0.016 -0.05 0.64 -0.76 0.04
1 0.11 11 0.144 -9.788 1.561 -2.655 -0.610 1.373 -284.964 -524.958 -2819.963 0.123 0.129 0.077 -0.05 0.64 -0.76 0.04
1 0.12 12 0.254 -9.721 1.628 -2.380 -0.336 1.007 -569.929 -389.896 -2774.992 0.013 0.062 0.009 -0.05 0.64 -0.76 0.04
1 0.13 13 0.345 -9.735 1.604 -1.709 -0.854 1.434 -449.857 -389.896 -2849.943 -0.079 0.077 0.033 -0.05 0.64 -0.76 0.04
1 0.14 14 0.249 -9.735 1.599 -0.763 -0.610 1.526 -449.857 -389.896 -2849.943 0.018 0.077 0.038 -0.05 0.64 -0.76 0.04
1 0.15 15 0.273 -9.750 1.676 -0.458 -0.427 1.373 -389.896 -419.876 -3044.966 -0.006 0.091 -0.039 -0.05 0.64 -0.76 0.04
1 0.16 16 0.259 -9.797 1.585 -0.397 -0.946 0.702 -374.906 -389.896 -2984.855 0.008 0.139 0.052 -0.05 0.64 -0.76 0.04
1 0.17 17 0.283 -9.750 1.561 0.275 -0.885 0.732 -389.896 -374.906 -2819.963 -0.016 0.091 0.076 -0.05 0.64 -0.76 0.04
1 0.18 18 0.321 -9.721 1.523 0.061 -0.732 0.336 -389.896 -374.906 -2819.963 -0.054 0.062 0.115 -0.05 0.64 -0.76 0.04
1 0.19 19 0.211 -9.682 1.681 0.549 -1.038 0.671 -284.964 -299.955 -3074.947 0.058 0.024 -0.041 -0.05 0.64 -0.76 0.04
1 0.20 20 0.369 -9.654 1.647 -0.244 -0.641 0.397 -299.955 -389.896 -2954.875 -0.101 -0.004 -0.006 -0.05 0.64 -0.76 0.04
1 0.21 21 0.263 -9.745 1.561 -1.282 0.092 0.671 -299.955 -389.896 -2954.875 0.005 0.087 0.080 -0.05 0.64 -0.76 0.04
1 0.22 22 0.292 -9.735 1.623 -2.136 -0.244 1.312 -329.935 -254.984 -2864.934 -0.024 0.077 0.017 -0.05 0.64 -0.76 0.04
1 0.23 23 0.244 -9.750 1.657 -1.678 0.092 1.434 -464.997 -419.876 -2894.914 0.024 0.091 -0.017 -0.05 0.64 -0.76 0.04
1 0.24 24 0.292 -9.826 1.743 -1.190 -0.336 1.007 -389.896 -449.857 -2939.885 -0.025 0.168 -0.103 -0.05 0.64 -0.76 0.04
1 0.25 25 0.259 -9.807 1.614 -1.587 -0.061 1.526 -389.896 -449.857 -2939.885 0.009 0.149 0.027 -0.05 0.64 -0.76 0.04
1 0.26 26 0.340 -9.783 1.671 -0.702 -0.305 0.977 -389.896 -374.906 -3149.898 -0.073 0.125 -0.031 -0.05 0.64 -0.76 0.04
1 0.27 27 0.201 -9.802 1.599 -0.580 -0.214 1.160 -359.916 -524.958 -2894.914 0.067 0.144 0.041 -0.05 0.64 -0.76 0.04
1 0.28 28 0.134 -9.831 1.647 -1.373 -0.671 0.702 -359.916 -524.958 -2894.914 0.133 0.173 -0.007 -0.05 0.64 -0.76 0.04
1 0.29 29 0.297 -9.850 1.537 -1.495 -0.549 1.129 -464.997 -494.978 -3014.986 -0.030 0.192 0.103 -0.05 0.64 -0.76 0.04
1 0.30 30 0.211 -9.764 1.686 -1.190 -0.671 1.282 -464.997 -494.978 -3014.986 0.055 0.106 -0.046 -0.05 0.64 -0.76 0.04
1 0.31 31 0.268 -9.745 1.695 -1.709 -0.458 0.916 -509.968 -449.857 -3074.947 -0.003 0.086 -0.056 -0.05 0.64 -0.76 0.04
1 0.32 32 0.192 -9.702 1.652 -1.801 0.214 1.099 -509.968 -449.857 -3074.947 0.074 0.043 -0.013 -0.05 0.64 -0.76 0.04
1 0.33 33 0.206 -9.745 1.609 -1.495 -0.153 0.580 -524.958 -314.945 -3029.976 0.059 0.087 0.030 -0.05 0.64 -0.76 0.04
1 0.34 34 0.249 -9.750 1.619 -0.793 -0.641 -0.061 -419.876 -584.919 -2954.875 0.016 0.091 0.021 -0.05 0.64 -0.76 0.04
1 0.35 35 0.369 -9.745 1.542 -0.397 -0.854 0.214 -419.876 -584.919 -2954.875 -0.104 0.086 0.097 -0.05 0.64 -0.76 0.04
1 0.36 36 0.196 -9.807 1.599 -0.458 -0.610 0.641 -344.925 -434.867 -2879.924 0.069 0.149 0.039 -0.05 0.64 -0.76 0.04
1 0.37 37 0.273 -9.702 1.628 -0.824 -0.183 0.671 -344.925 -434.867 -2879.924 -0.008 0.043 0.011 -0.05 0.64 -0.76 0.04
1 0.38 38 0.187 -9.745 1.532 -1.740 -0.732 1.465 -419.876 -464.997 -3104.927 0.078 0.086 0.106 -0.05 0.64 -0.76 0.04
1 0.39 39 0.273 -9.836 1.642 -1.556 -0.549 1.526 -419.876 -464.997 -3104.927 -0.009 0.177 -0.005 -0.05 0.64 -0.76 0.04
1 0.40 40 0.297 -9.817 1.590 -0.824 -0.549 1.709 -329.935 -449.857 -3014.986 -0.032 0.158 0.047 -0.05 0.64 -0.76 0.04
1 0.41 41 0.273 -9.773 1.556 -0.061 -0.488 1.465 -359.916 -419.876 -2969.865 -0.008 0.115 0.080 -0.05 0.64 -0.76 0.04
1 0.42 42 0.239 -9.682 1.642 0.153 -1.282 1.892 -359.916 -419.876 -2969.865 0.024 0.024 -0.005 -0.05 0.64 -0.76 0.04
1 0.43 43 0.211 -9.682 1.681 -0.549 -0.946 1.373 -344.925 -434.867 -2954.875 0.052 0.024 -0.042 -0.05 0.64 -0.76 0.04
1 0.44 44 0.263 -9.726 1.561 -0.702 -1.160 1.709 -344.925 -434.867 -2954.875 -0.001 0.067 0.078 -0.05 0.64 -0.76 0.04
1 0.45 45 0.187 -9.769 1.834 -0.885 -0.854 1.587 -284.964 -299.955 -2864.934 0.075 0.110 -0.195 -0.05 0.64 -0.76 0.04
1 0.46 46 0.225 -9.740 1.642 -0.671 -0.824 0.885 -284.964 -299.955 -2864.934 0.035 0.082 -0.003 -0.05 0.64 -0.76 0.04
1 0.47 47 0.345 -9.759 1.695 -1.404 -1.007 0.580 -299.955 -389.896 -2984.855 -0.084 0.101 -0.056 -0.05 0.64 -0.76 0.04
1 0.48 48 0.201 -9.711 1.662 -1.862 -0.549 0.580 -359.916 -254.984 -2894.914 0.060 0.053 -0.023 -0.05 0.64 -0.76 0.04
1 0.49 49 0.225 -9.745 1.585 -1.923 -0.793 0.336 -359.916 -254.984 -2894.914 0.035 0.086 0.054 -0.05 0.64 -0.76 0.04
1 0.50 50 0.297 -9.740 1.585 -2.594 -0.061 0.458 -329.935 -254.984 -3014.986 -0.036 0.081 0.053 -0.05 0.64 -0.76 0.04
1 0.51 51 0.287 -9.740 1.676 -2.167 0.275 0.061 -329.935 -254.984 -3014.986 -0.026 0.081 -0.040 -0.05 0.64 -0.76 0.04
1 0.52 52 0.129 -9.754 1.642 -1.556 -0.824 0.610 -224.854 -314.945 -3059.957 0.133 0.095 -0.009 -0.05 0.64 -0.76 0.04
1 0.53 53 0.201 -9.807 1.657 -1.038 0.061 0.763 -224.854 -314.945 -3059.957 0.061 0.148 -0.023 -0.05 0.64 -0.76 0.04
1 0.54 54 0.096 -9.879 1.590 0.305 -0.702 1.404 -464.997 -419.876 -2819.963 0.166 0.220 0.044 -0.05 0.64 -0.76 0.04
1 0.55 55 0.196 -9.745 1.642 0.793 -1.312 1.587 -374.906 -584.919 -2909.904 0.063 0.086 -0.006 -0.05 0.64 -0.76 0.04
1 0.56 56 0.345 -9.625 1.484 0.885 -1.678 1.801 -374.906 -584.919 -2909.904 -0.086 -0.033 0.155 -0.05 0.64 -0.76 0.04
1 0.57 57 0.225 -9.692 1.556 0.000 -1.282 1.373 -224.854 -389.896 -2909.904 0.033 0.034 0.085 -0.05 0.64 -0.76 0.04
1 0.58 58 0.350 -9.706 1.532 -0.458 -1.740 1.038 -224.854 -389.896 -2909.904 -0.092 0.049 0.111 -0.05 0.64 -0.76 0.04
1 0.59 59 0.235 -9.663 1.604 -0.977 -2.258 1.526 -329.935 -449.857 -2939.885 0.022 0.006 0.040 -0.05 0.64 -0.76 0.04
1 0.60 60 0.278 -9.649 1.676 -1.465 -1.373 1.099 -449.857 -284.964 -2984.855 -0.021 -0.009 -0.032 -0.05 0.64 -0.76 0.04
1 0.61 61 0.177 -9.716 1.604 -2.258 -0.946 1.343 -449.857 -359.916 -2909.904 0.080 0.058 0.039 -0.05 0.64 -0.76 0.04
1 0.62 62 0.244 -9.726 1.528 -2.502 -0.610 1.190 -449.857 -509.968 -2879.924 0.013 0.068 0.115 -0.05 0.64 -0.76 0.04
1 0.63 63 0.220 -9.730 1.705 -3.723 -0.793 1.465 -449.857 -509.968 -2879.924 0.036 0.072 -0.064 -0.05 0.64 -0.76 0.04
1 0.64 64 0.335 -9.797 1.571 -2.258 -1.068 1.251 -344.925 -359.916 -2954.875 -0.080 0.139 0.067 -0.05 0.64 -0.76 0.04
1 0.65 65 0.244 -9.793 1.575 -2.106 -0.763 1.190 -344.925 -359.916 -2954.875 0.011 0.134 0.060 -0.05 0.64 -0.76 0.04
1 0.66 66 0.311 -9.845 1.590 -1.282 -0.824 1.038 -344.925 -359.916 -2879.924 -0.056 0.186 0.046 -0.05 0.64 -0.76 0.04
1 0.67 67 0.268 -9.745 1.489 -0.366 -1.556 1.007 -509.968 -329.935 -2969.865 -0.013 0.085 0.145 -0.05 0.64 -0.76 0.04
1 0.68 68 0.297 -9.893 1.585 -0.702 -1.923 0.549 -494.978 -284.964 -2984.855 -0.041 0.234 0.048 -0.05 0.64 -0.76 0.04
1 0.69 69 0.287 -9.702 1.590 -0.305 -1.770 0.397 -269.974 -389.896 -2879.924 -0.031 0.042 0.044 -0.05 0.64 -0.76 0.04
1 0.70 70 0.263 -9.812 1.628 -0.824 -1.984 0.427 -269.974 -389.896 -2879.924 -0.006 0.152 0.006 -0.05 0.64 -0.76 0.04
1 0.71 71 0.249 -9.812 1.609 -0.824 -2.106 0.793 -329.935 -329.935 -3149.898 0.010 0.152 0.025 -0.05 0.64 -0.76 0.04
1 0.72 72 0.306 -9.821 1.575 -1.740 -1.648 1.343 -329.935 -329.935 -3149.898 -0.047 0.162 0.059 -0.05 0.64 -0.76 0.04
1 0.73 73 0.115 -9.678 1.499 -1.953 -1.709 0.671 -389.896 -374.906 -3044.966 0.145 0.018 0.135 -0.05 0.64 -0.76 0.04
1 0.74 74 0.292 -9.726 1.556 -1.709 -1.221 0.793 -329.935 -374.906 -2894.914 -0.032 0.066 0.077 -0.05 0.64 -0.76 0.04
1 0.75 75 0.259 -9.836 1.662 -1.556 -0.854 1.007 -389.896 -374.906 -3044.966 0.001 0.176 -0.030 -0.05 0.64 -0.76 0.04
1 0.76 76 0.148 -9.788 1.504 -1.709 -1.740 1.129 -224.854 -359.916 -3029.976 0.111 0.128 0.128 -0.05 0.64 -0.76 0.04
1 0.77 77 0.235 -9.721 1.748 -1.099 -1.099 1.251 -224.854 -359.916 -3029.976 0.024 0.061 -0.117 -0.05 0.64 -0.76 0.04
1 0.78 78 0.220 -9.778 1.686 -1.129 -1.282 1.068 -434.867 -374.906 -2864.934 0.038 0.118 -0.055 -0.05 0.64 -0.76 0.04
1 0.79 79 0.134 -9.697 1.681 -0.671 -1.923 1.801 -434.867 -374.906 -2864.934 0.124 0.037 -0.050 -0.05 0.64 -0.76 0.04
1 0.80 80 0.278 -9.817 1.528 -0.671 -2.167 1.495 -299.955 -434.867 -3059.957 -0.021 0.157 0.104 -0.05 0.64 -0.76 0.04
1 0.81 81 0.268 -9.711 1.633 -1.160 -2.441 1.221 -344.925 -434.867 -2984.855 -0.013 0.052 -0.000 -0.05 0.64 -0.76 0.04
1 0.82 82 0.230 -9.826 1.604 -1.465 -2.441 0.519 -419.876 -434.867 -2954.875 0.026 0.166 0.028 -0.05 0.64 -0.76 0.04
1 0.83 83 0.192 -9.663 1.633 -2.411 -2.136 1.099 -329.935 -524.958 -3014.986 0.065 0.003 -0.002 -0.05 0.64 -0.76 0.04
1 0.84 84 0.196 -9.706 1.580 -2.075 -1.709 1.099 -329.935 -524.958 -3014.986 0.060 0.046 0.049 -0.05 0.64 -0.76 0.04
1 0.85 85 0.306 -9.850 1.595 -2.502 -1.648 1.373 -254.984 -329.935 -3044.966 -0.050 0.190 0.034 -0.05 0.64 -0.76 0.04
1 0.86 86 0.374 -9.841 1.489 -1.862 -1.343 1.251 -254.984 -329.935 -3044.966 -0.118 0.180 0.137 -0.05 0.64 -0.76 0.04
1 0.87 87 0.330 -9.975 1.566 -0.641 -1.190 1.221 -449.857 -434.867 -2909.904 -0.074 0.314 0.060 -0.05 0.64 -0.76 0.04
1 0.88 88 0.235 -9.955 1.671 0.183 -1.282 1.038 -449.857 -434.867 -2879.924 0.021 0.295 -0.046 -0.05 0.64 -0.76 0.04
1 0.89 89 0.230 -9.802 1.623 0.702 -1.617 1.099 -329.935 -329.935 -2894.914 0.027 0.142 0.005 -0.05 0.64 -0.76 0.04
1 0.90 90 0.187 -9.740 1.528 1.099 -1.099 0.641 -389.896 -419.876 -2789.982 0.070 0.080 0.104 -0.05 0.64 -0.76 0.04
1 0.91 91 0.259 -9.797 1.700 -0.275 -1.862 1.221 -389.896 -419.876 -2789.982 -0.001 0.138 -0.066 -0.05 0.64 -0.76 0.04
1 0.92 92 0.244 -9.726 1.714 -1.099 -1.495 0.549 -419.876 -239.994 -2954.875 0.014 0.066 -0.079 -0.05 0.64 -0.76 0.04
1 0.93 93 0.249 -9.678 1.599 -1.862 -1.709 1.129 -419.876 -239.994 -2954.875 0.009 0.019 0.036 -0.05 0.64 -0.76 0.04
1 0.94 94 0.259 -9.754 1.705 -2.930 -2.075 1.251 -389.896 -374.906 -2939.885 -0.000 0.095 -0.071 -0.05 0.64 -0.76 0.04
1 0.95 95 0.306 -9.750 1.609 -3.174 -1.404 1.587 -389.896 -299.955 -2894.914 -0.047 0.090 0.022 -0.05 0.64 -0.76 0.04
1 0.96 96 0.196 -9.769 1.676 -3.235 -1.312 1.526 -284.964 -374.906 -3014.986 0.062 0.108 -0.051 -0.05 0.64 -0.76 0.04
1 0.97 97 0.292 -9.821 1.580 -4.150 -1.160 1.038 -449.857 -464.997 -2954.875 -0.034 0.160 0.041 -0.05 0.64 -0.76 0.04
1 0.98 98 0.168 -9.745 1.537 -2.869 -1.007 0.885 -449.857 -464.997 -2954.875 0.091 0.083 0.081 -0.05 0.64 -0.76 0.04
1 0.99 99 0.201 -9.783 1.595 -1.190 -0.854 -0.183 -374.906 -164.893 -2909.904 0.058 0.121 0.021 -0.05 0.64 -0.76 0.04
1 1.00 100 0.244 -9.687 1.590 -0.824 -1.373 0.702 -374.906 -164.893 -2909.904 0.015 0.025 0.026 -0.05 0.64 -0.76 0.04
1 1.01 101 0.215 -9.783 1.590 -1.526 -0.793 1.282 -299.955 -284.964 -2804.973 0.044 0.121 0.025 -0.05 0.64 -0.76 0.04
1 1.02 102 0.254 -9.831 1.662 -2.441 -0.885 1.953 -344.925 -284.964 -2909.904 0.005 0.168 -0.047 -0.05 0.64 -0.76 0.04
1 1.03 103 0.359 -9.841 1.528 -1.862 -0.610 1.221 -344.925 -284.964 -2909.904 -0.101 0.177 0.085 -0.05 0.64 -0.76 0.04
1 1.04 104 0.350 -9.797 1.537 -1.251 -0.916 1.862 -524.958 -389.896 -2909.904 -0.091 0.134 0.074 -0.05 0.64 -0.76 0.04
1 1.05 105 0.364 -9.812 1.609 -0.885 -0.519 1.434 -524.958 -389.896 -2909.904 -0.105 0.148 0.001 -0.05 0.64 -0.76 0.04
1 1.06 106 0.345 -9.778 1.609 -0.610 -1.312 1.556 -359.916 -224.854 -2819.963 -0.086 0.115 0.002 -0.05 0.64 -0.76 0.04
1 1.07 107 0.364 -9.797 1.590 -0.916 -0.977 1.526 -359.916 -224.854 -2819.963 -0.104 0.134 0.021 -0.05 0.64 -0.76 0.04
1 1.08 108 0.359 -9.635 1.695 -0.519 -0.885 1.434 -344.925 -464.997 -2954.875 -0.098 -0.029 -0.085 -0.05 0.64 -0.76 0.04
1 1.09 109 0.354 -9.740 1.547 -0.824 -0.488 1.831 -389.896 -419.876 -3014.986 -0.094 0.077 0.064 -0.05 0.64 -0.76 0.04
1 1.10 110 0.316 -9.663 1.614 -1.404 -0.641 1.373 -389.896 -419.876 -3014.986 -0.055 0.000 -0.003 -0.05 0.64 -0.76 0.04
1 1.11 111 0.417 -9.730 1.595 -1.129 -0.244 0.916 -389.896 -449.857 -2894.914 -0.155 0.067 0.016 -0.05 0.64 -0.76 0.04
1 1.12 112 0.268 -9.678 1.623 -1.617 -0.427 0.732 -389.896 -449.857 -2894.914 -0.007 0.014 -0.013 -0.05 0.64 -0.76 0.04
1 1.13 113 0.201 -9.697 1.599 -2.319 -0.275 0.427 -494.978 -389.896 -2879.924 0.060 0.034 0.010 -0.05 0.64 -0.76 0.04
1 1.14 114 0.235 -9.730 1.599 -3.448 -0.702 0.458 -494.978 -389.896 -2879.924 0.027 0.067 0.009 -0.05 0.64 -0.76 0.04
1 1.15 115 0.278 -9.706 1.489 -3.937 -0.305 0.519 -344.925 -389.896 -2909.904 -0.016 0.042 0.116 -0.05 0.64 -0.76 0.04
1 1.16 116 0.330 -9.817 1.585 -3.967 -0.549 0.153 -419.876 -389.896 -2879.924 -0.067 0.152 0.015 -0.05 0.64 -0.76 0.04
1 1.17 117 0.144 -9.903 1.575 -2.594 -0.519 0.214 -419.876 -389.896 -2879.924 0.120 0.237 0.020 -0.05 0.64 -0.76 0.04
1 1.18 118 0.168 -9.898 1.547 -1.648 -0.793 0.763 -434.867 -374.906 -2969.865 0.098 0.232 0.046 -0.05 0.65 -0.76 0.04
1 1.19 119 0.259 -9.912 1.690 0.183 -0.854 1.465 -464.997 -494.978 -2939.885 0.006 0.246 -0.098 -0.05 0.65 -0.76 0.04
1 1.20 120 0.359 -9.869 1.523 0.366 -1.038 1.190 -359.916 -299.955 -2894.914 -0.095 0.204 0.072 -0.05 0.64 -0.76 0.04
1 1.21 121 0.192 -9.754 1.638 0.275 -1.373 1.160 -359.916 -299.955 -2894.914 0.073 0.089 -0.041 -0.05 0.64 -0.76 0.04
1 1.22 122 0.306 -9.821 1.532 0.702 -1.526 1.587 -509.968 -299.955 -3014.986 -0.042 0.156 0.068 -0.05 0.64 -0.76 0.04
1 1.23 123 0.292 -9.740 1.504 -0.427 -1.862 1.312 -344.925 -284.964 -2879.924 -0.028 0.075 0.098 -0.05 0.64 -0.76 0.04
1 1.24 124 0.321 -9.721 1.571 -1.251 -1.740 1.495 -344.925 -284.964 -2879.924 -0.057 0.056 0.031 -0.05 0.64 -0.76 0.04
1 1.25 125 0.268 -9.587 1.623 -1.526 -0.977 1.312 -524.958 -239.994 -2954.875 -0.005 -0.078 -0.021 -0.05 0.64 -0.76 0.04
1 1.26 126 0.081 -9.702 1.523 -2.380 -0.854 1.770 -374.906 -389.896 -2954.875 0.182 0.037 0.078 -0.05 0.64 -0.76 0.04
1 1.27 127 0.187 -9.826 1.532 -2.899 -0.488 1.526 -509.968 -329.935 -2939.885 0.076 0.161 0.067 -0.05 0.64 -0.76 0.04
1 1.28 128 0.306 -9.726 1.580 -2.838 -0.092 1.434 -509.968 -329.935 -2939.885 -0.045 0.060 0.017 -0.05 0.64 -0.76 0.04
1 1.29 129 0.345 -9.783 1.508 -2.655 -0.305 1.648 -494.978 -239.994 -2729.872 -0.084 0.117 0.086 -0.05 0.64 -0.76 0.04
1 1.30 130 0.302 -9.716 1.475 -2.411 -0.244 1.068 -299.955 -389.896 -2954.875 -0.041 0.050 0.118 -0.05 0.65 -0.76 0.04
1 1.31 131 0.292 -9.797 1.551 -1.678 -0.244 1.251 -299.955 -389.896 -2954.875 -0.031 0.131 0.041 -0.05 0.65 -0.76 0.04
1 1.32 132 0.302 -9.788 1.480 -0.946 -0.824 1.251 -374.906 -464.997 -2909.904 -0.040 0.122 0.112 -0.05 0.65 -0.76 0.04
1 1.33 133 0.268 -9.716 1.504 -0.580 -1.068 0.488 -524.958 -284.964 -3029.976 -0.006 0.050 0.088 -0.05 0.65 -0.76 0.04
1 1.34 134 0.316 -9.802 1.518 -0.854 -1.007 0.397 -464.997 -149.902 -2939.885 -0.054 0.136 0.073 -0.05 0.65 -0.76 0.04
1 1.35 135 0.268 -9.869 1.451 -1.495 -1.007 0.641 -464.997 -149.902 -2939.885 -0.006 0.203 0.139 -0.05 0.65 -0.76 0.04
1 1.36 136 0.211 -9.773 1.561 -2.014 -1.404 0.549 -419.876 -314.945 -2909.904 0.053 0.107 0.028 -0.05 0.65 -0.76 0.04
1 1.37 137 0.340 -9.807 1.551 -2.411 -1.312 0.641 -389.896 -374.906 -2864.934 -0.076 0.140 0.037 -0.05 0.65 -0.76 0.04
1 1.38 138 0.254 -9.874 1.556 -2.716 -0.916 1.709 -389.896 -374.906 -2864.934 0.011 0.207 0.030 -0.05 0.65 -0.76 0.04
1 1.39 139 0.316 -9.869 1.504 -2.441 -0.763 1.709 -389.896 -419.876 -2819.963 -0.052 0.202 0.082 -0.05 0.65 -0.76 0.04
1 1.40 140 0.211 -9.888 1.518 -2.167 -0.732 1.740 -389.896 -374.906 -2819.963 0.052 0.221 0.065 -0.05 0.65 -0.76 0.04
1 1.41 141 0.158 -9.821 1.647 -1.495 -0.824 2.014 -494.978 -314.945 -2984.855 0.105 0.154 -0.065 -0.05 0.65 -0.76 0.04
1 1.42 142 0.283 -9.888 1.585 -0.702 -0.061 2.411 -494.978 -314.945 -2984.855 -0.020 0.221 -0.003 -0.05 0.65 -0.76 0.04
1 1.43 143 0.436 -9.908 1.590 -0.336 -0.244 2.258 -419.876 -389.896 -2954.875 -0.174 0.240 -0.008 -0.05 0.65 -0.76 0.04
1 1.44 144 0.340 -9.788 1.513 -0.031 -0.427 1.801 -464.997 -329.935 -2894.914 -0.079 0.120 0.070 -0.05 0.65 -0.76 0.04
1 1.45 145 0.350 -9.869 1.590 -0.061 -0.153 1.770 -464.997 -329.935 -2894.914 -0.089 0.202 -0.005 -0.05 0.65 -0.76 0.04
1 1.46 146 0.268 -9.821 1.513 0.122 -0.214 1.862 -284.964 -374.906 -2894.914 -0.009 0.154 0.073 -0.05 0.65 -0.76 0.04
1 1.47 147 0.163 -9.649 1.528 -0.153 -0.122 1.099 -389.896 -299.955 -3149.898 0.096 -0.018 0.061 -0.05 0.65 -0.76 0.04
1 1.48 148 0.340 -9.845 1.537 0.153 0.214 0.946 -254.984 -254.984 -2819.963 -0.082 0.179 0.054 -0.05 0.65 -0.76 0.04
1 1.49 149 0.249 -9.663 1.489 -0.977 0.122 0.366 -254.984 -254.984 -2819.963 0.009 -0.003 0.103 -0.05 0.65 -0.76 0.04
1 1.50 150 0.287 -9.769 1.499 -0.763 -0.031 0.977 -299.955 -284.964 -2984.855 -0.029 0.102 0.093 -0.05 0.65 -0.76 0.04
1 1.51 151 0.340 -9.764 1.504 -1.587 -0.031 1.190 -449.857 -239.994 -2909.904 -0.082 0.097 0.088 -0.05 0.65 -0.76 0.04
1 1.52 152 0.244 -9.764 1.446 -1.923 0.549 0.580 -449.857 -239.994 -2909.904 0.014 0.097 0.144 -0.05 0.65 -0.76 0.04
1 1.53 153 0.220 -9.841 1.508 -2.563 0.275 1.190 -449.857 -359.916 -2909.904 0.039 0.174 0.081 -0.05 0.65 -0.76 0.04
1 1.54 154 0.311 -9.860 1.571 -3.296 -0.153 0.885 -359.916 -224.854 -2939.885 -0.052 0.193 0.017 -0.05 0.65 -0.76 0.04
1 1.55 155 0.354 -9.817 1.599 -3.387 -0.305 1.587 -539.948 -374.906 -2969.865 -0.095 0.148 -0.018 -0.05 0.65 -0.76 0.04
1 1.56 156 0.273 -9.797 1.432 -3.296 0.031 1.648 -539.948 -374.906 -2969.865 -0.013 0.129 0.147 -0.05 0.65 -0.76 0.04
1 1.57 157 0.345 -9.769 1.609 -2.655 -0.397 1.801 -344.925 -434.867 -2909.904 -0.086 0.100 -0.034 -0.05 0.65 -0.76 0.04
1 1.58 158 0.393 -9.860 1.518 -2.228 0.427 1.434 -344.925 -314.945 -2774.992 -0.134 0.190 0.056 -0.05 0.65 -0.76 0.04
1 1.59 159 0.359 -9.716 1.532 -1.923 0.702 2.319 -344.925 -314.945 -2774.992 -0.101 0.046 0.040 -0.05 0.65 -0.76 0.04
1 1.60 160 0.330 -9.788 1.542 -2.594 0.977 1.465 -389.896 -494.978 -2894.914 -0.073 0.118 0.028 -0.05 0.65 -0.76 0.04
1 1.61 161 0.144 -9.663 1.456 -3.723 1.465 0.854 -434.867 -494.978 -2969.865 0.113 -0.007 0.112 -0.05 0.65 -0.76 0.04
1 1.62 162 0.220 -9.817 1.446 -3.082 1.556 1.221 -434.867 -494.978 -2969.865 0.036 0.146 0.118 -0.05 0.65 -0.76 0.04
1 1.63 163 0.321 -9.845 1.384 -1.984 1.984 0.183 -524.958 -389.896 -2954.875 -0.065 0.173 0.174 -0.05 0.65 -0.76 0.04
1 1.64 164 0.330 -9.826 1.403 -1.648 2.411 0.488 -359.916 -299.955 -2864.934 -0.074 0.154 0.153 -0.05 0.65 -0.76 0.04
1 1.65 165 0.230 -9.888 1.446 -1.923 1.984 -0.031 -359.916 -494.978 -2939.885 0.028 0.216 0.109 -0.05 0.65 -0.76 0.04
1 1.66 166 0.263 -9.831 1.441 -1.373 1.556 0.061 -359.916 -494.978 -2939.885 -0.005 0.158 0.111 -0.05 0.65 -0.76 0.04
1 1.67 167 0.273 -9.841 1.427 1.038 0.732 -0.153 -329.935 -329.935 -2969.865 -0.013 0.168 0.125 -0.05 0.65 -0.76 0.04
1 1.68 168 0.230 -9.874 1.336 2.045 0.580 -0.061 -614.899 -374.906 -2864.934 0.031 0.202 0.218 -0.05 0.65 -0.76 0.04
1 1.69 169 0.311 -9.836 1.403 2.106 0.488 0.031 -614.899 -374.906 -2864.934 -0.049 0.164 0.154 -0.05 0.65 -0.76 0.04
1 1.70 170 0.359 -9.951 1.494 1.831 0.336 0.671 -434.867 -449.857 -2759.852 -0.095 0.280 0.072 -0.05 0.65 -0.76 0.04
1 1.71 171 0.402 -9.970 1.551 0.671 0.366 1.343 -494.978 -239.994 -2879.924 -0.137 0.300 0.018 -0.05 0.65 -0.76 0.04
1 1.72 172 0.383 -9.884 1.556 0.244 0.641 2.991 -389.896 -374.906 -2939.885 -0.118 0.214 0.016 -0.05 0.65 -0.76 0.04
1 1.73 173 0.402 -9.975 1.633 -0.031 0.763 2.472 -389.896 -374.906 -2939.885 -0.140 0.306 -0.058 -0.05 0.65 -0.76 0.04
1 1.74 174 0.388 -9.960 1.628 0.061 0.824 2.136 -224.854 -359.916 -2909.904 -0.128 0.291 -0.052 -0.05 0.65 -0.76 0.04
1 1.75 175 0.388 -9.841 1.446 1.099 1.312 1.129 -434.867 -254.984 -2894.914 -0.129 0.172 0.133 -0.05 0.65 -0.76 0.04
1 1.76 176 0.369 -9.702 1.456 0.702 1.831 1.099 -434.867 -254.984 -2894.914 -0.111 0.033 0.125 -0.05 0.65 -0.76 0.04
1 1.77 177 0.421 -9.888 1.480 -0.275 2.106 0.427 -374.906 -209.863 -2909.904 -0.163 0.221 0.106 -0.05 0.65 -0.76 0.04
1 1.78 178 0.330 -9.745 1.580 -0.854 2.899 0.610 -374.906 -314.945 -2849.943 -0.070 0.078 0.006 -0.05 0.65 -0.76 0.04
1 1.79 179 0.263 -9.663 1.360 -0.610 2.960 0.397 -299.955 -359.916 -2849.943 -0.003 -0.004 0.227 -0.05 0.65 -0.76 0.04
1 1.80 180 0.374 -9.721 1.657 -0.031 2.686 -0.275 -299.955 -359.916 -2849.943 -0.112 0.054 -0.069 -0.05 0.65 -0.76 0.04
1 1.81 181 0.498 -9.726 1.580 1.282 3.326 0.610 -344.925 -284.964 -2954.875 -0.235 0.059 0.010 -0.05 0.65 -0.76 0.04
1 1.82 182 0.354 -9.783 1.523 3.204 3.143 0.885 -344.925 -434.867 -2879.924 -0.090 0.117 0.071 -0.05 0.65 -0.76 0.04
1 1.83 183 0.407 -9.759 1.504 3.937 2.716 1.709 -344.925 -434.867 -2879.924 -0.141 0.094 0.096 -0.05 0.64 -0.76 0.04
1 1.84 184 0.464 -9.754 1.585 2.838 2.014 2.197 -374.906 -314.945 -2849.943 -0.200 0.092 0.028 -0.05 0.64 -0.76 0.04
1 1.85 185 0.397 -9.726 1.532 2.594 1.984 1.740 -299.955 -314.945 -2954.875 -0.134 0.064 0.086 -0.05 0.64 -0.76 0.04
1 1.86 186 0.503 -9.874 1.652 -0.214 2.106 1.617 -194.873 -284.964 -2954.875 -0.239 0.213 -0.030 -0.05 0.64 -0.76 0.04
1 1.87 187 0.623 -9.802 1.642 -1.404 2.289 1.587 -194.873 -284.964 -2954.875 -0.359 0.141 -0.019 -0.05 0.64 -0.76 0.04
1 1.88 188 0.690 -9.860 1.681 -2.441 2.197 1.678 -299.955 -209.863 -2849.943 -0.425 0.199 -0.059 -0.05 0.64 -0.76 0.04
1 1.89 189 0.560 -9.955 1.671 -2.014 3.387 2.533 -389.896 -299.955 -2939.885 -0.295 0.294 -0.051 -0.05 0.64 -0.76 0.04
1 1.90 190 0.579 -10.018 1.609 -1.801 3.754 2.869 -389.896 -299.955 -2939.885 -0.315 0.356 0.010 -0.05 0.64 -0.76 0.04
1 1.91 191 0.527 -9.903 1.710 -1.587 4.150 2.777 -419.876 -509.968 -2954.875 -0.264 0.241 -0.091 -0.05 0.64 -0.76 0.04
1 1.92 192 0.417 -9.932 1.580 -2.289 4.608 2.625 -329.935 -329.935 -2939.885 -0.159 0.269 0.038 -0.05 0.64 -0.76 0.04
1 1.93 193 0.383 -9.984 1.666 -1.709 5.188 1.404 -344.925 -314.945 -2984.855 -0.126 0.322 -0.051 -0.05 0.64 -0.76 0.04
1 1.94 194 0.393 -9.932 1.599 -0.275 4.486 1.007 -344.925 -314.945 -2984.855 -0.137 0.269 0.017 -0.05 0.64 -0.76 0.04
1 1.95 195 0.498 -9.946 1.556 0.305 4.089 0.671 -329.935 -449.857 -2939.885 -0.242 0.284 0.062 -0.05 0.64 -0.76 0.03
1 1.96 196 0.608 -9.797 1.566 1.526 4.211 0.946 -269.974 -359.916 -2984.855 -0.351 0.136 0.055 -0.05 0.64 -0.76 0.03
1 1.97 197 0.690 -9.673 1.542 1.587 4.639 1.221 -269.974 -359.916 -2984.855 -0.431 0.012 0.084 -0.05 0.64 -0.76 0.03
1 1.98 198 0.527 -9.625 1.489 2.075 4.456 0.885 -164.893 -314.945 -2984.855 -0.267 -0.035 0.140 -0.05 0.64 -0.76 0.03
1 1.99 199 0.599 -9.553 1.461 0.366 4.547 0.641 -389.896 -179.883 -3074.947 -0.336 -0.105 0.177 -0.05 0.64 -0.76 0.03
1 2.00 200 0.646 -9.630 1.494 -1.282 5.341 0.336 -299.955 -389.896 -2849.943 -0.382 -0.029 0.144 -0.05 0.64 -0.76 0.03
1 2.01 201 0.646 -9.639 1.393 -3.143 5.737 0.092 -299.955 -389.896 -2849.943 -0.380 -0.019 0.243 -0.04 0.64 -0.76 0.03
1 2.02 202 0.551 -9.802 1.432 -2.533 5.890 -0.153 -284.964 -254.984 -2894.914 -0.282 0.143 0.201 -0.04 0.64 -0.76 0.03
1 2.03 203 0.527 -9.778 1.470 -1.434 6.104 -0.397 -299.955 -464.997 -2954.875 -0.255 0.119 0.160 -0.04 0.64 -0.76 0.03
1 2.04 204 0.512 -9.893 1.623 -0.183 7.202 0.336 -299.955 -464.997 -2954.875 -0.239 0.233 0.006 -0.04 0.64 -0.76 0.03
1 2.05 205 0.503 -9.869 1.513 1.282 7.629 0.702 -359.916 -374.906 -2894.914 -0.228 0.210 0.117 -0.04 0.64 -0.76 0.03
1 2.06 206 0.469 -9.836 1.595 2.502 7.965 1.434 -359.916 -374.906 -2894.914 -0.194 0.177 0.039 -0.04 0.64 -0.76 0.03
1 2.07 207 0.498 -9.635 1.585 3.113 8.453 2.472 -329.935 -419.876 -2939.885 -0.225 -0.022 0.060 -0.04 0.64 -0.76 0.03
1 2.08 208 0.488 -9.716 1.580 3.387 9.186 2.716 -329.935 -419.876 -2939.885 -0.219 0.060 0.072 -0.04 0.64 -0.76 0.03
1 2.09 209 0.551 -9.802 1.513 2.808 9.430 3.326 -329.935 -299.955 -2939.885 -0.285 0.147 0.145 -0.04 0.64 -0.76 0.03
1 2.10 210 0.397 -9.687 1.504 2.075 10.529 3.448 -224.854 -389.896 -2984.855 -0.136 0.033 0.160 -0.04 0.64 -0.76 0.03
1 2.11 211 0.627 -9.730 1.441 1.190 12.268 3.174 -224.854 -389.896 -2984.855 -0.370 0.077 0.226 -0.04 0.64 -0.76 0.03
1 2.12 212 0.503 -9.769 1.437 0.519 12.695 3.479 -194.873 -389.896 -2984.855 -0.250 0.115 0.234 -0.04 0.64 -0.76 0.03
1 2.13 213 0.431 -9.788 1.499 0.183 13.733 3.510 -194.873 -389.896 -2984.855 -0.183 0.135 0.174 -0.04 0.64 -0.76 0.03
1 2.14 214 0.445 -9.912 1.566 1.099 15.106 3.357 -389.896 -419.876 -2894.914 -0.209 0.260 0.111 -0.04 0.64 -0.76 0.02
1 2.15 215 0.364 -9.860 1.619 1.282 15.900 2.747 -389.896 -419.876 -2894.914 -0.134 0.207 0.061 -0.04 0.64 -0.76 0.02
1 2.16 216 0.244 -9.821 1.623 0.793 15.900 2.167 -269.974 -434.867 -2849.943 -0.020 0.170 0.060 -0.03 0.64 -0.77 0.02
1 2.17 217 0.302 -9.841 1.686 1.038 16.052 1.617 -164.893 -359.916 -2879.924 -0.083 0.189 0.001 -0.03 0.64 -0.77 0.02
1 2.18 218 0.206 -9.941 1.729 0.854 16.235 1.160 -164.893 -359.916 -2879.924 0.008 0.290 -0.038 -0.03 0.64 -0.77 0.02
1 2.19 219 0.292 -10.075 1.676 1.648 16.296 2.075 -194.873 -359.916 -3029.976 -0.083 0.425 0.018 -0.03 0.64 -0.77 0.02
1 2.20 220 0.345 -9.979 1.714 1.831 17.242 2.930 -194.873 -359.916 -3029.976 -0.141 0.330 -0.016 -0.03 0.64 -0.77 0.02
1 2.21 221 0.249 -10.042 1.911 1.617 18.341 5.219 -194.873 -389.896 -2954.875 -0.061 0.394 -0.201 -0.03 0.64 -0.77 0.02
1 2.22 222 0.168 -10.152 1.959 1.068 19.898 5.981 -194.873 -389.896 -2954.875 0.009 0.505 -0.244 -0.03 0.64 -0.77 0.02
1 2.23 223 0.211 -10.286 1.997 -0.153 20.538 7.141 -119.922 -164.893 -2849.943 -0.047 0.639 -0.277 -0.03 0.64 -0.77 0.02
1 2.24 224 0.105 -10.343 2.193 0.916 21.362 8.270 -89.941 -359.916 -2954.875 0.043 0.697 -0.469 -0.02 0.64 -0.77 0.02
1 2.25 225 0.024 -10.324 2.150 3.265 23.529 8.728 -89.941 -359.916 -2954.875 0.107 0.679 -0.419 -0.02 0.64 -0.77 0.02
1 2.26 226 0.081 -10.315 2.112 8.911 24.628 10.376 14.990 -314.945 -2879.924 0.031 0.671 -0.370 -0.02 0.64 -0.77 0.01
1 2.27 227 0.139 -10.046 2.198 12.421 25.299 12.146 14.990 -314.945 -2879.924 -0.047 0.406 -0.441 -0.02 0.64 -0.77 0.01
1 2.28 228 0.196 -9.831 2.107 15.442 28.168 13.031 -194.873 -284.964 -2984.855 -0.151 0.198 -0.304 -0.01 0.64 -0.77 0.01
1 2.29 229 0.144 -9.735 2.155 15.930 28.046 13.550 -194.873 -284.964 -2984.855 -0.124 0.108 -0.324 -0.01 0.64 -0.77 0.01
1 2.30 230 0.096 -9.505 1.906 18.158 31.372 13.062 -44.971 -464.997 -2909.904 -0.101 -0.117 -0.047 -0.01 0.64 -0.77 0.01
1 2.31 231 0.034 -9.323 1.815 18.402 31.616 11.383 14.990 -389.896 -2909.904 -0.064 -0.293 0.074 -0.01 0.64 -0.77 0.01
1 2.32 232 0.081 -9.137 1.906 18.433 33.478 8.514 14.990 -389.896 -2909.904 -0.135 -0.474 0.012 -0 0.63 -0.77 0.01
1 2.33 233 -0.048 -8.979 1.815 14.130 35.065 6.165 -14.990 -314.945 -2954.875 -0.025 -0.626 0.132 -0 0.63 -0.77 0.01
1 2.34 234 -0.067 -9.132 1.781 9.003 34.454 4.669 -14.990 -314.945 -2954.875 -0.024 -0.467 0.190 0 0.63 -0.77 0.01
1 2.35 235 -0.062 -9.285 1.733 3.571 35.523 0.977 -29.980 -254.984 -2969.865 -0.045 -0.311 0.254 0 0.63 -0.78 0
1 2.36 236 -0.125 -9.553 1.906 -0.488 39.063 -3.296 59.961 -449.857 -3044.966 -0.002 -0.040 0.091 0.01 0.63 -0.78 0
1 2.37 237 -0.302 -9.740 1.604 0.732 41.107 -8.301 89.941 -584.919 -2954.875 0.171 0.146 0.392 -0.01 -0.63 0.78 0
1 2.38 238 -0.541 -9.850 1.432 3.387 43.427 -10.376 89.941 -434.867 -2954.875 0.411 0.257 0.565 -0.01 -0.63 0.78 0
1 2.39 239 -0.623 -9.874 1.370 5.890 41.809 -13.367 89.941 -434.867 -2954.875 0.494 0.281 0.631 -0.01 -0.63 0.78 0.01
1 2.40 240 -1.077 -9.735 1.144 7.721 39.093 -11.932 14.990 -434.867 -2879.924 0.953 0.143 0.861 -0.02 -0.63 0.78 0.01
1 2.41 241 -1.068 -9.826 0.953 6.500 33.844 -14.374 14.990 -434.867 -2879.924 0.946 0.236 1.059 -0.02 -0.63 0.78 0.01
1 2.42 242 -1.092 -9.893 0.963 4.517 28.626 -15.045 194.873 -359.916 -2879.924 0.973 0.304 1.054 -0.02 -0.63 0.78 0.01
1 2.43 243 -1.446 -9.970 0.958 4.913 25.024 -10.101 134.912 -419.876 -3014.986 1.336 0.380 1.060 -0.02 -0.63 0.78 0.02
1 2.44 244 -1.403 -10.018 0.781 7.233 21.729 -9.064 14.990 -389.896 -2954.875 1.292 0.429 1.238 -0.02 -0.63 0.78 0.02
1 2.45 245 -1.417 -9.946 0.776 9.583 18.921 -8.270 284.964 -449.857 -3044.966 1.305 0.358 1.247 -0.02 -0.63 0.78 0.02
1 2.46 246 -1.537 -9.989 0.785 11.505 15.930 -5.188 284.964 -449.857 -3044.966 1.421 0.402 1.244 -0.03 -0.63 0.78 0.02
1 2.47 247 -1.528 -9.793 0.618 11.505 13.062 -2.197 134.912 -419.876 -2969.865 1.404 0.208 1.421 -0.03 -0.63 0.78 0.02
1 2.48 248 -1.508 -9.639 0.752 7.202 8.240 1.129 134.912 -419.876 -2969.865 1.373 0.056 1.294 -0.03 -0.63 0.78 0.02
1 2.49 249 -1.489 -9.735 0.924 1.953 6.561 4.272 164.893 -464.997 -2909.904 1.341 0.153 1.125 -0.03 -0.63 0.78 0.02
1 2.50 250 -1.551 -9.769 0.881 -2.258 4.639 7.080 134.912 -494.978 -2864.934 1.387 0.186 1.165 -0.03 -0.63 0.78 0.02
1 2.51 251 -1.480 -9.826 1.020 -2.808 2.808 10.437 209.863 -524.958 -3014.986 1.273 0.240 1.006 -0.03 -0.63 0.78 0.02
1 2.52 252 -1.451 -9.831 0.972 -0.488 2.319 11.902 254.984 -494.978 -3044.966 1.219 0.243 1.045 -0.03 -0.63 0.78 0.02
1 2.53 253 -1.623 -9.817 1.039 2.594 1.129 12.390 254.984 -494.978 -3044.966 1.365 0.229 0.973 -0.03 -0.63 0.78 0.02
1 2.54 254 -1.700 -9.726 1.077 4.913 -0.732 13.214 179.883 -494.978 -3149.898 1.415 0.138 0.934 -0.03 -0.63 0.78 0.02
1 2.55 255 -1.595 -9.620 0.924 3.754 -5.829 14.740 179.883 -494.978 -3149.898 1.282 0.034 1.089 -0.04 -0.63 0.78 0.02
1 2.56 256 -1.662 -9.572 0.852 1.740 -10.010 15.015 209.863 -449.857 -2969.865 1.321 -0.012 1.162 -0.04 -0.63 0.78 0.02
1 2.57 257 -1.551 -9.611 1.039 1.587 -10.925 16.907 224.854 -464.997 -3059.957 1.183 0.026 0.973 -0.04 -0.63 0.78 0.02
1 2.58 258 -1.446 -9.692 0.867 3.235 -13.458 16.480 164.893 -584.919 -2879.924 1.021 0.109 1.140 -0.04 -0.63 0.78 0.01
1 2.59 259 -1.164 -9.606 0.790 5.371 -15.259 15.656 224.854 -509.968 -3059.957 0.712 0.024 1.216 -0.04 -0.63 0.78 0.01
1 2.60 260 -1.077 -9.548 0.776 5.707 -18.372 13.275 224.854 -509.968 -3059.957 0.605 -0.032 1.233 -0.04 -0.63 0.78 0.01
1 2.61 261 -0.891 -9.568 0.953 5.432 -19.287 10.681 254.984 -449.857 -2969.865 0.402 -0.011 1.058 -0.04 -0.63 0.78 0.01
1 2.62 262 -0.752 -9.534 0.963 5.402 -18.860 8.942 254.984 -449.857 -2969.865 0.252 -0.044 1.052 -0.04 -0.63 0.78 0.01
1 2.63 263 -0.718 -9.548 1.197 4.242 -17.609 6.775 299.955 -539.948 -2909.904 0.211 -0.028 0.821 -0.04 -0.63 0.78 0
1 2.64 264 -0.857 -9.544 1.231 4.120 -15.900 5.707 209.863 -569.929 -2939.885 0.343 -0.032 0.790 -0.04 -0.63 0.78 0
1 2.65 265 -0.872 -9.481 1.197 6.958 -14.496 2.899 209.863 -569.929 -2969.865 0.350 -0.092 0.832 -0.04 -0.63 0.78 0
1 2.66 266 -0.891 -9.496 1.221 12.482 -14.496 0.641 224.854 -584.919 -2984.855 0.369 -0.076 0.817 -0.03 -0.63 0.78 0
1 2.67 267 -0.910 -9.419 1.212 14.954 -15.411 -1.678 224.854 -584.919 -2984.855 0.391 -0.149 0.844 -0.03 -0.63 0.78 0
1 2.68 268 -0.857 -9.242 1.307 14.252 -16.571 -3.540 284.964 -494.978 -3014.986 0.344 -0.322 0.767 0.03 0.63 -0.78 0
1 2.69 269 -0.934 -9.323 1.326 11.200 -15.869 -4.944 284.964 -494.978 -3014.986 0.431 -0.238 0.765 0.03 0.63 -0.78 0
1 2.70 270 -0.915 -9.453 1.336 6.744 -16.052 -7.385 254.984 -674.860 -3014.986 0.422 -0.106 0.769 0.03 0.63 -0.78 0
1 2.71 271 -0.872 -9.515 1.403 4.883 -16.510 -7.660 89.941 -509.968 -3029.976 0.392 -0.043 0.710 0.03 0.63 -0.78 0
1 2.72 272 -0.800 -9.510 1.355 7.233 -18.127 -9.369 269.974 -704.991 -3104.927 0.351 -0.046 0.770 0.03 0.63 -0.78 0
1 2.73 273 -0.910 -9.611 1.370 8.209 -18.066 -9.552 179.883 -644.880 -3044.966 0.479 0.056 0.765 0.03 0.62 -0.78 0
1 2.74 274 -0.790 -9.438 1.101 8.362 -19.379 -10.162 179.883 -644.880 -3044.966 0.378 -0.116 1.042 0.03 0.62 -0.78 0
1 2.75 275 -0.785 -9.309 0.977 6.317 -20.355 -9.735 164.893 -629.890 -3029.976 0.393 -0.244 1.175 0.02 0.62 -0.78 0
1 2.76 276 -0.709 -9.218 1.039 3.510 -21.332 -10.254 164.893 -629.890 -3029.976 0.335 -0.335 1.117 0.02 0.62 -0.78 0
1 2.77 277 -0.785 -9.314 1.566 -6.500 -22.400 -8.667 44.971 -659.870 -3164.888 0.432 -0.240 0.588 0.02 0.62 -0.78 0
1 2.78 278 -0.498 -9.510 1.757 -15.503 -23.224 -5.493 119.922 -704.991 -3134.908 0.164 -0.046 0.387 0.02 0.62 -0.78 0
1 2.79 279 -0.311 -10.013 1.935 -22.827 -24.262 0.366 119.922 -704.991 -3134.908 -0.007 0.451 0.190 0.02 0.63 -0.78 0
1 2.80 280 0.278 -10.726 1.619 -20.722 -21.301 9.522 29.980 -524.958 -2969.865 -0.586 1.151 0.442 0.01 0.63 -0.78 0.01
1 2.81 281 0.441 -10.808 1.528 -10.437 -15.472 13.611 29.980 -524.958 -2969.865 -0.755 1.226 0.507 0.01 0.63 -0.78 0.01
1 2.82 282 0.508 -10.386 1.609 2.045 -12.970 13.428 44.971 -464.997 -3239.989 -0.836 0.804 0.418 0.01 0.63 -0.78 0.01
1 2.83 283 0.594 -10.109 1.767 7.965 -11.383 12.329 44.971 -464.997 -3239.989 -0.930 0.527 0.263 0.01 0.63 -0.78 0.01
1 2.84 284 0.536 -9.740 1.973 1.129 -8.972 16.022 -14.990 -539.948 -2954.875 -0.879 0.161 0.067 0.01 0.63 -0.78 0.01
1 2.85 285 0.239 -9.716 1.915 -5.280 -6.928 18.616 14.990 -629.890 -3029.976 -0.592 0.138 0.130 0.01 0.63 -0.78 0.01
1 2.86 286 0.105 -9.812 1.963 -5.829 -5.493 20.660 14.990 -629.890 -3029.976 -0.474 0.234 0.079 0.01 0.63 -0.78 0.01
1 2.87 287 -0.057 -9.587 1.829 0.549 -2.899 19.257 -59.961 -599.909 -3074.947 -0.357 0.009 0.202 0.01 0.63 -0.78 0.02
1 2.88 288 -0.239 -9.491 1.891 4.120 0.122 16.571 -59.961 -599.909 -3074.947 -0.197 -0.085 0.144 0.01 0.63 -0.78 0.02
1 2.89 289 -0.412 -9.232 2.073 1.343 2.380 12.787 29.980 -524.958 -3119.917 -0.045 -0.342 -0.031 0.02 0.63 -0.78 0.02
1 2.90 290 -0.560 -9.146 2.131 -4.761 3.571 9.705 29.980 -524.958 -3119.917 0.087 -0.427 -0.087 0.02 0.63 -0.78 0.02
1 2.91 291 -0.891 -9.175 2.231 -12.177 3.815 10.071 89.941 -704.991 -2984.855 0.402 -0.399 -0.194 0.02 0.63 -0.78 0.02
1 2.92 292 -1.101 -9.654 2.461 -21.057 0.732 8.728 44.971 -509.968 -2984.855 0.596 0.078 -0.441 0.02 0.63 -0.78 0.02
1 2.93 293 -1.207 -10.142 2.500 -23.834 -2.197 9.460 44.971 -509.968 -2984.855 0.686 0.561 -0.505 0.02 0.63 -0.78 0.02
1 2.94 294 -1.125 -10.305 2.595 -21.851 -4.272 10.803 44.971 -539.948 -3059.957 0.588 0.719 -0.630 0.02 0.63 -0.77 0.02
1 2.95 295 -1.154 -10.525 2.662 -15.625 -7.629 12.512 89.941 -539.948 -3164.888 0.582 0.931 -0.747 0.02 0.63 -0.77 0.02
1 2.96 296 -1.183 -10.458 2.662 -12.482 -8.972 12.970 164.893 -539.948 -3104.927 0.595 0.861 -0.766 0.02 0.63 -0.77 0.02
1 2.97 297 -1.240 -10.377 2.571 -11.322 -10.223 12.848 164.893 -539.948 -3104.927 0.637 0.778 -0.690 0.02 0.64 -0.77 0.02
1 2.98 298 -1.101 -10.410 2.528 -11.536 -13.733 10.895 89.941 -629.890 -2954.875 0.482 0.810 -0.659 0.02 0.64 -0.77 0.02
1 2.99 299 -1.034 -10.607 2.504 -12.024 -16.571 8.514 119.922 -509.968 -3104.927 0.401 1.005 -0.646 0.02 0.64 -0.77 0.03
1 3.00 300 -0.876 -10.674 2.706 -11.963 -17.242 5.585 119.922 -509.968 -3104.927 0.236 1.070 -0.861 0.02 0.64 -0.77 0.03
1 3.01 301 -0.651 -10.865 2.667 -10.559 -16.113 4.730 194.873 -704.991 -3059.957 0.007 1.259 -0.837 0.02 0.64 -0.77 0.03
1 3.02 302 -0.522 -10.870 2.533 -4.150 -16.998 -1.740 119.922 -464.997 -3029.976 -0.121 1.260 -0.723 0.02 0.64 -0.77 0.03
1 3.03 303 -0.445 -10.856 2.639 2.014 -17.944 -6.561 0.000 -419.876 -2939.885 -0.188 1.245 -0.829 0.02 0.64 -0.77 0.03
1 3.04 304 -0.230 -10.659 2.763 7.935 -20.691 -12.573 0.000 -419.876 -2939.885 -0.385 1.049 -0.944 0.02 0.64 -0.77 0.03
1 3.05 305 0.043 -10.372 2.878 13.763 -22.980 -16.693 59.961 -449.857 -2969.865 -0.630 0.764 -1.041 0.01 0.64 -0.77 0.03
1 3.06 306 0.292 -10.099 2.753 17.456 -25.757 -20.508 194.873 -539.948 -3029.976 -0.842 0.494 -0.888 0.01 0.64 -0.77 0.03
1 3.07 307 0.503 -9.740 2.844 16.998 -29.633 -24.170 194.873 -539.948 -3029.976 -1.006 0.139 -0.943 0.01 0.63 -0.77 0.03
1 3.08 308 0.565 -9.366 2.797 14.954 -29.114 -22.919 -104.932 -644.880 -2939.885 -1.016 -0.230 -0.860 0.01 0.63 -0.77 0.03
1 3.09 309 0.560 -9.165 2.701 11.719 -27.496 -15.656 -29.980 -524.958 -3014.986 -0.914 -0.422 -0.702 0 0.63 -0.78 0.03
1 3.10 310 0.690 -8.902 2.586 10.132 -28.534 -10.010 -44.971 -704.991 -2984.855 -1.007 -0.681 -0.562 -0 0.63 -0.78 0.03
1 3.11 311 0.848 -8.849 2.729 9.796 -30.457 -8.728 -44.971 -704.991 -2984.855 -1.133 -0.730 -0.683 -0 0.63 -0.78 0.03
1 3.12 312 1.068 -8.945 2.749 7.721 -31.525 -7.477 -89.941 -779.942 -2954.875 -1.322 -0.630 -0.679 -0.01 0.63 -0.78 0.03
1 3.13 313 1.250 -8.950 2.734 4.883 -29.846 -6.165 -299.955 -629.890 -3134.908 -1.473 -0.622 -0.645 -0.01 0.63 -0.78 0.03
1 3.14 314 1.484 -8.969 2.586 4.242 -22.522 -7.141 -299.955 -629.890 -3134.908 -1.677 -0.600 -0.481 -0.01 0.63 -0.78 0.03
1 3.15 315 1.235 -9.180 2.595 4.181 -17.944 -7.355 -179.883 -599.909 -3149.898 -1.397 -0.387 -0.476 -0.01 0.63 -0.78 0.03
1 3.16 316 1.202 -9.180 2.457 4.944 -15.045 -10.040 -179.883 -599.909 -3044.966 -1.303 -0.382 -0.311 -0.02 0.62 -0.78 0.03
1 3.17 317 1.183 -9.386 2.452 5.066 -13.611 -10.162 -269.974 -539.948 -3104.927 -1.253 -0.174 -0.294 -0.02 0.62 -0.78 0.03
1 3.18 318 0.838 -9.611 2.366 3.937 -11.566 -11.353 -269.974 -539.948 -3104.927 -0.878 0.054 -0.196 -0.02 0.62 -0.78 0.03
1 3.19 319 0.694 -9.644 2.246 3.937 -11.414 -9.552 -179.883 -524.958 -3014.986 -0.705 0.089 -0.067 -0.02 0.62 -0.78 0.03
1 3.20 320 0.613 -9.769 2.275 5.188 -11.749 -8.942 -269.974 -779.942 -3059.957 -0.600 0.216 -0.087 -0.02 0.62 -0.78 0.03
1 3.21 321 0.828 -9.687 2.251 7.172 -14.923 -7.599 -269.974 -779.942 -3059.957 -0.792 0.137 -0.053 -0.03 0.62 -0.78 0.03
1 3.22 322 0.747 -9.716 2.476 8.911 -15.442 -8.423 -209.863 -674.860 -3149.898 -0.689 0.169 -0.266 -0.03 0.62 -0.78 0.03
1 3.23 323 0.852 -9.888 2.509 7.172 -14.984 -7.751 -284.964 -674.860 -3149.898 -0.770 0.345 -0.285 -0.03 0.62 -0.78 0.03
1 3.24 324 0.699 -9.783 2.255 8.209 -13.855 -8.148 -329.935 -719.981 -3044.966 -0.571 0.246 -0.005 -0.03 0.62 -0.78 0.03
1 3.25 325 1.053 -9.668 2.107 11.932 -15.076 -8.118 -329.935 -719.981 -3044.966 -0.902 0.135 0.158 -0.03 0.62 -0.78 0.03
1 3.26 326 0.986 -9.477 2.112 14.526 -16.052 -9.033 -449.857 -779.942 -3104.927 -0.811 -0.052 0.172 -0.03 0.62 -0.78 0.03
1 3.27 327 1.144 -9.366 2.217 15.778 -14.557 -7.324 -224.854 -629.890 -3059.957 -0.943 -0.156 0.088 -0.04 0.62 -0.79 0.03
1 3.28 328 1.212 -9.290 2.040 14.343 -12.329 -6.989 -224.854 -629.890 -3059.957 -0.987 -0.227 0.289 -0.04 0.62 -0.79 0.03
1 3.29 329 1.197 -9.343 2.006 13.886 -11.658 -7.477 -344.925 -539.948 -3029.976 -0.949 -0.168 0.344 -0.04 0.62 -0.79 0.03
1 3.30 330 1.365 -9.362 1.978 12.573 -10.925 -6.744 -494.978 -629.890 -3134.908 -1.092 -0.143 0.393 -0.04 0.61 -0.79 0.03
1 3.31 331 1.370 -9.601 1.982 11.658 -10.437 -6.287 -224.854 -629.890 -3209.859 -1.051 0.106 0.422 -0.04 0.61 -0.79 0.03
1 3.32 332 1.307 -9.457 2.045 12.329 -10.468 -3.937 -224.854 -629.890 -3209.859 -0.968 -0.033 0.375 -0.04 0.61 -0.79 0.03
1 3.33 333 1.341 -9.410 1.791 13.184 -10.407 -4.059 -374.906 -734.971 -3209.859 -0.983 -0.076 0.646 -0.05 0.61 -0.79 0.03
1 3.34 334 1.360 -9.381 1.920 13.489 -8.637 -1.770 -494.978 -779.942 -3284.960 -0.984 -0.100 0.533 -0.05 0.61 -0.79 0.03
1 3.35 335 1.393 -9.357 1.863 13.428 -7.782 -0.427 -494.978 -779.942 -3284.960 -1.003 -0.119 0.608 -0.05 0.61 -0.79 0.03
1 3.36 336 1.274 -9.242 1.805 11.322 -7.782 0.946 -494.978 -434.867 -3029.976 -0.872 -0.229 0.681 -0.05 0.61 -0.79 0.03
1 3.37 337 1.302 -9.357 1.954 11.810 -8.484 3.601 -449.857 -629.890 -3134.908 -0.892 -0.110 0.547 -0.05 0.61 -0.79 0.03
1 3.38 338 1.389 -9.247 2.006 12.238 -7.507 4.608 -449.857 -629.890 -3134.908 -0.972 -0.216 0.508 -0.05 0.61 -0.79 0.03
1 3.39 339 1.518 -9.132 2.102 13.489 -3.082 7.477 -449.857 -809.922 -3239.989 -1.095 -0.322 0.445 -0.05 0.61 -0.79 0.03
1 3.40 340 1.590 -9.204 2.188 13.763 0.824 8.514 -359.916 -719.981 -3149.898 -1.168 -0.245 0.378 -0.05 0.61 -0.79 0.03
1 3.41 341 1.575 -9.017 2.107 13.580 3.479 8.637 -359.916 -794.932 -3224.999 -1.156 -0.427 0.478 -0.05 0.6 -0.79 0.03
1 3.42 342 1.489 -9.089 2.131 13.184 6.836 8.850 -359.916 -794.932 -3224.999 -1.075 -0.350 0.473 -0.05 0.6 -0.79 0.03
1 3.43 343 1.398 -8.945 1.896 12.878 9.735 8.637 -374.906 -779.942 -3209.859 -0.991 -0.489 0.726 -0.05 0.6 -0.8 0.03
1 3.44 344 1.403 -8.849 2.107 11.566 10.651 8.240 -419.876 -929.994 -3164.888 -1.002 -0.580 0.534 -0.05 0.6 -0.8 0.03
1 3.45 345 1.379 -8.701 1.968 10.071 10.834 8.240 -419.876 -929.994 -3164.888 -0.986 -0.724 0.689 -0.05 0.6 -0.8 0.03
1 3.46 346 1.384 -8.758 1.911 6.256 12.024 7.477 -374.906 -809.922 -3209.859 -1.005 -0.660 0.772 -0.05 0.6 -0.8 0.03
1 3.47 347 1.456 -8.720 1.887 3.204 12.848 6.866 -449.857 -929.994 -3284.960 -1.084 -0.696 0.803 -0.05 0.6 -0.8 0.03
1 3.48 348 1.341 -8.758 1.724 0.549 13.702 5.951 -524.958 -854.893 -3239.989 -0.975 -0.657 0.969 -0.05 0.6 -0.8 0.03
1 3.49 349 1.437 -8.926 1.647 -2.167 15.320 5.371 -524.958 -854.893 -3239.989 -1.075 -0.491 1.043 -0.04 0.6 -0.8 0.03
1 3.50 350 1.690 -8.763 1.566 -4.730 17.273 4.761 -419.876 -854.893 -3164.888 -1.333 -0.655 1.118 -0.04 0.6 -0.8 0.03
1 3.51 351 1.786 -8.849 1.642 -8.270 23.743 5.829 -569.929 -884.874 -3209.859 -1.432 -0.572 1.031 -0.04 0.6 -0.8 0.03
1 3.52 352 1.609 -9.007 1.834 -11.200 28.229 5.341 -569.929 -884.874 -3209.859 -1.260 -0.419 0.825 -0.04 0.6 -0.8 0.03
1 3.53 353 1.556 -9.299 1.901 -14.130 32.562 3.448 -389.896 -719.981 -3119.917 -1.222 -0.138 0.720 -0.04 0.6 -0.8 0.02
1 3.54 354 1.461 -9.457 2.351 -17.029 34.088 1.312 -329.935 -869.883 -3194.869 -1.133 0.014 0.247 -0.04 0.6 -0.8 0.02
1 3.55 355 1.336 -9.630 2.744 -21.484 35.584 -1.465 -299.955 -884.874 -3134.908 -1.014 0.179 -0.171 -0.04 0.61 -0.79 0.02
1 3.56 356 1.001 -9.932 3.074 -24.750 35.523 -5.005 -299.955 -884.874 -3134.908 -0.680 0.473 -0.529 -0.03 0.61 -0.79 0.02
1 3.57 357 0.790 -10.348 3.654 -29.205 35.523 -8.331 -359.916 -674.860 -3254.979 -0.469 0.882 -1.140 -0.03 0.61 -0.79 0.02
1 3.58 358 -0.010 -11.205 3.697 -32.471 32.349 -17.029 -329.935 -794.932 -3074.947 0.335 1.729 -1.221 -0.03 0.61 -0.79 0.01
1 3.59 359 -0.278 -11.842 3.002 -23.529 26.306 -21.545 -329.935 -794.932 -3074.947 0.614 2.355 -0.571 -0.03 0.61 -0.79 0.01
1 3.60 360 -0.613 -11.521 2.457 4.272 21.759 -17.822 -299.955 -884.874 -3134.908 0.994 2.024 -0.071 -0.03 0.61 -0.79 0.01
1 3.61 361 -0.757 -11.086 2.351 10.712 23.102 -14.679 -224.854 -734.971 -3029.976 1.155 1.592 0.048 -0.03 0.61 -0.79 0
1 3.62 362 -0.895 -10.152 1.877 0.183 26.337 -7.996 -254.984 -719.981 -3014.986 1.301 0.663 0.540 -0.03 0.61 -0.79 0
1 3.63 363 -0.618 -10.190 1.729 -18.097 23.102 -7.996 -254.984 -719.981 -3014.986 1.016 0.699 0.682 -0.03 0.61 -0.79 0
1 3.64 364 0.005 -10.765 1.729 -23.712 16.388 -7.538 -329.935 -674.860 -3074.947 0.391 1.266 0.649 -0.03 0.61 -0.79 0
1 3.65 365 0.694 -10.956 1.944 -10.223 14.587 -0.305 -329.935 -749.961 -3044.966 -0.296 1.449 0.401 0.03 -0.62 0.79 0
1 3.66 366 0.694 -10.588 2.179 -0.519 18.677 4.089 -329.935 -749.961 -3044.966 -0.297 1.076 0.149 0.02 -0.62 0.79 0
1 3.67 367 0.493 -10.142 2.169 0.153 22.736 9.674 -299.955 -809.922 -3104.927 -0.105 0.631 0.158 0.02 -0.62 0.79 0
1 3.68 368 0.512 -9.783 2.208 -6.439 20.660 7.721 -224.854 -854.893 -3029.976 -0.162 0.270 0.119 0.02 -0.62 0.79 0
1 3.69 369 0.493 -9.951 2.265 -6.409 18.097 5.066 -224.854 -734.971 -2954.875 -0.158 0.435 0.053 0.02 -0.62 0.79 0
1 3.70 370 0.412 -9.888 2.610 -3.235 19.257 4.028 -224.854 -734.971 -2954.875 -0.088 0.371 -0.298 0.02 -0.62 0.79 0
1 3.71 371 0.469 -9.979 2.739 0.977 22.186 3.815 -164.893 -854.893 -3104.927 -0.157 0.461 -0.426 0.02 -0.62 0.79 0
1 3.72 372 0.048 -9.783 3.098 -0.122 27.954 5.920 -164.893 -809.922 -2984.855 0.253 0.266 -0.779 0.02 -0.62 0.79 0
1 3.73 373 -0.182 -9.639 3.295 -7.538 31.036 6.287 -164.893 -809.922 -2984.855 0.467 0.124 -0.968 0.01 -0.62 0.79 0.01
1 3.74 374 -0.450 -9.529 3.591 -17.212 31.891 5.035 -209.863 -839.903 -3014.986 0.714 0.013 -1.264 0.01 -0.62 0.79 0.01
1 3.75 375 -0.608 -10.027 3.850 -24.719 28.381 3.632 -89.941 -629.890 -3164.888 0.831 0.503 -1.554 0.01 -0.62 0.79 0.01
1 3.76 376 -0.532 -10.339 3.927 -19.226 26.856 3.754 -89.941 -734.971 -3029.976 0.734 0.808 -1.652 0.01 -0.62 0.78 0.01
1 3.77 377 -0.608 -10.252 4.085 -7.477 25.818 5.798 -89.941 -734.971 -3029.976 0.797 0.717 -1.832 0 -0.62 0.78 0.01
1 3.78 378 -0.493 -9.673 4.109 6.531 25.574 5.432 -104.932 -794.932 -2939.885 0.666 0.136 -1.858 0 -0.62 0.78 0.01
1 3.79 379 -0.359 -9.117 4.032 13.580 27.313 3.784 -89.941 -629.890 -2804.973 0.514 -0.414 -1.760 0 -0.62 0.78 0.01
1 3.80 380 -0.579 -8.160 3.793 8.087 33.203 -2.319 -89.941 -629.890 -2804.973 0.717 -1.364 -1.485 -0 -0.62 0.79 0.01
1 3.81 381 -0.852 -8.016 3.443 0.366 38.605 -7.446 -164.893 -704.991 -3029.976 0.977 -1.500 -1.105 -0 -0.62 0.79 0.01
1 3.82 382 -1.039 -8.198 2.878 -7.904 41.901 -13.031 -164.893 -704.991 -3029.976 1.155 -1.314 -0.521 -0.01 -0.62 0.79 0.02
1 3.83 383 -1.647 -8.691 2.399 -14.557 40.558 -18.951 29.980 -644.880 -2969.865 1.778 -0.825 -0.063 -0.01 -0.62 0.79 0.02
1 3.84 384 -1.978 -9.084 2.136 -13.733 34.760 -18.768 29.980 -644.880 -2969.865 2.111 -0.437 0.184 -0.01 -0.62 0.79 0.02
1 3.85 385 -2.231 -9.223 2.193 -10.101 26.947 -16.235 14.990 -734.971 -2879.924 2.365 -0.301 0.111 -0.01 -0.62 0.79 0.03
1 3.86 386 -2.294 -9.328 2.102 -5.554 18.036 -10.864 -29.980 -599.909 -2894.914 2.424 -0.199 0.192 -0.01 -0.62 0.79 0.03
1 3.87 387 -1.695 -9.089 1.997 -0.824 5.219 -6.928 -29.980 -599.909 -2894.914 1.817 -0.439 0.292 -0.01 -0.62 0.78 0.03
1 3.88 388 -1.264 -9.204 2.164 1.282 -2.686 -10.864 -29.980 -749.961 -2939.885 1.377 -0.325 0.122 -0.01 -0.62 0.78 0.03
1 3.89 389 -1.006 -9.563 2.208 0.641 -3.510 -7.874 -29.980 -749.961 -2939.885 1.123 0.035 0.081 -0.01 -0.62 0.78 0.03
1 3.90 390 -1.202 -9.697 2.375 -1.495 2.289 4.059 -119.922 -734.971 -3029.976 1.321 0.170 -0.083 -0.01 -0.62 0.78 0.03
1 3.91 391 -1.350 -9.577 2.327 -2.686 4.028 11.139 -119.922 -734.971 -3029.976 1.451 0.050 -0.035 -0.01 -0.62 0.78 0.03
1 3.92 392 -1.484 -9.659 2.174 -1.221 -0.244 12.421 -14.990 -659.870 -2909.904 1.558 0.131 0.117 -0.02 -0.62 0.79 0.03
1 3.93 393 -1.317 -9.424 2.140 2.380 -5.859 12.878 -119.922 -629.890 -2984.855 1.363 -0.104 0.151 -0.02 -0.62 0.79 0.02
1 3.94 394 -1.432 -9.323 2.045 4.547 -8.423 14.130 -119.922 -629.890 -2984.855 1.452 -0.203 0.253 -0.02 -0.62 0.79 0.02
1 3.95 395 -1.207 -9.084 1.949 0.671 -7.874 14.221 -14.990 -584.919 -2879.924 1.201 -0.441 0.356 -0.02 -0.62 0.79 0.02
1 3.96 396 -1.365 -8.921 1.935 -6.500 -7.477 14.313 -14.990 -584.919 -2879.924 1.332 -0.603 0.373 -0.02 -0.62 0.79 0.02
1 3.97 397 -1.556 -9.094 1.767 -15.411 -7.874 11.353 44.971 -659.870 -3029.976 1.473 -0.436 0.517 -0.02 -0.62 0.79 0.02
1 3.98 398 -1.585 -9.295 1.666 -15.747 -9.308 9.216 44.971 -659.870 -3029.976 1.480 -0.241 0.594 -0.02 -0.62 0.78 0.01
1 3.99 399 -1.724 -9.467 1.528 -13.001 -10.956 8.423 44.971 -629.890 -2804.973 1.599 -0.073 0.709 -0.02 -0.62 0.78 0.01
1 4.00 400 -1.705 -9.615 1.551 -11.383 -15.808 8.423 59.961 -719.981 -3014.986 1.562 0.070 0.665 -0.02 -0.62 0.78 0.01
1 4.01 401 -1.700 -9.659 1.595 -9.613 -19.989 9.674 59.961 -719.981 -3014.986 1.539 0.110 0.603 -0.02 -0.62 0.78 0.01
1 4.02 402 -1.398 -9.745 1.532 -6.195 -24.780 8.759 -59.961 -674.860 -2939.885 1.220 0.193 0.650 -0.02 -0.62 0.78 0.01
1 4.03 403 -1.322 -9.946 1.781 -3.632 -25.147 8.881 -59.961 -674.860 -2939.885 1.128 0.391 0.389 -0.02 -0.62 0.78 0.01
1 4.04 404 -1.370 -10.085 1.733 0.702 -23.010 11.078 -29.980 -719.981 -2789.982 1.151 0.528 0.425 -0.02 -0.62 0.78 0
1 4.05 405 -1.212 -9.975 1.657 3.052 -23.163 11.658 -29.980 -719.981 -2789.982 0.977 0.419 0.503 0.02 0.62 -0.78 0
1 4.06 406 -1.221 -9.874 1.671 8.270 -26.764 11.292 -89.941 -884.874 -2909.904 0.971 0.320 0.496 0.01 0.62 -0.78 0
1 4.07 407 -1.077 -9.596 1.484 11.444 -28.900 11.719 -44.971 -704.991 -2849.943 0.813 0.045 0.695 0.01 0.62 -0.78 0
1 4.08 408 -0.704 -9.548 1.580 13.763 -31.372 7.721 -44.971 -704.991 -2849.943 0.429 0.001 0.615 0.01 0.62 -0.78 0.01
1 4.09 409 -0.608 -9.266 1.619 14.435 -28.351 5.035 -59.961 -674.860 -2759.852 0.330 -0.277 0.596 0.01 0.62 -0.78 0.01
1 4.10 410 -0.627 -9.204 1.441 13.214 -25.299 4.150 -59.961 -674.860 -2759.852 0.349 -0.334 0.793 0.01 0.62 -0.78 0.01
1 4.11 411 -0.536 -9.146 1.556 10.620 -23.407 2.747 -29.980 -674.860 -3014.986 0.259 -0.387 0.696 0.01 0.62 -0.78 0.01
1 4.12 412 -0.704 -9.228 1.446 7.843 -23.010 -0.336 -164.893 -659.870 -2849.943 0.435 -0.300 0.831 0.01 0.62 -0.78 0.01
1 4.13 413 -0.728 -9.309 1.326 7.141 -24.323 -2.136 -179.883 -794.932 -2864.934 0.466 -0.217 0.959 0 0.62 -0.79 0.02
1 4.14 414 -0.828 -9.433 1.461 5.646 -25.757 -4.089 -134.912 -719.981 -2894.914 0.577 -0.091 0.832 0 0.62 -0.79 0.02
1 4.15 415 -0.690 -9.486 1.432 3.662 -26.642 -4.059 -134.912 -719.981 -2894.914 0.450 -0.038 0.865 0 0.62 -0.79 0.02
1 4.16 416 -0.857 -9.457 1.417 4.181 -24.384 -1.282 -29.980 -794.932 -3074.947 0.630 -0.066 0.881 -0 0.62 -0.79 0.02
1 4.17 417 -0.838 -9.539 1.279 4.913 -22.247 2.289 -29.980 -794.932 -3074.947 0.620 0.015 1.022 -0 0.62 -0.79 0.02
1 4.18 418 -0.809 -9.333 1.250 4.974 -19.653 4.364 -134.912 -794.932 -3044.966 0.593 -0.190 1.054 -0 0.62 -0.79 0.02
1 4.19 419 -0.709 -9.113 1.168 2.686 -20.813 2.960 -89.941 -779.942 -2909.904 0.488 -0.409 1.140 -0 0.62 -0.79 0.02
1 4.20 420 -0.646 -9.065 1.197 1.312 -21.729 0.671 -134.912 -794.932 -3014.986 0.427 -0.457 1.110 -0.01 0.62 -0.79 0.03
1 4.21 421 -0.675 -9.184 1.240 -0.580 -20.660 -1.312 -254.984 -914.854 -2939.885 0.462 -0.338 1.063 -0.01 0.62 -0.79 0.03
1 4.22 422 -0.838 -9.606 1.245 -2.960 -18.219 2.625 -254.984 -914.854 -2939.885 0.632 0.081 1.052 -0.01 0.62 -0.79 0.03
1 4.23 423 -0.876 -9.347 0.972 -3.265 -18.616 4.456 -134.912 -944.984 -2969.865 0.667 -0.180 1.315 -0.01 0.62 -0.78 0.03
1 4.24 424 -0.809 -9.477 0.915 4.364 -24.536 0.519 -134.912 -944.984 -2969.865 0.597 -0.053 1.362 -0.01 0.62 -0.78 0.03
1 4.25 425 -0.704 -9.453 1.580 6.104 -25.269 0.397 -209.863 -644.880 -2969.865 0.495 -0.078 0.694 -0.01 0.62 -0.78 0.03
1 4.26 426 -0.512 -9.309 2.375 -1.404 -23.407 0.092 -194.873 -779.942 -2879.924 0.308 -0.221 -0.098 -0.01 0.62 -0.78 0.03
1 4.27 427 0.010 -10.295 2.873 -22.675 -20.935 10.712 -344.925 -734.971 -2909.904 -0.207 0.763 -0.608 -0.01 0.62 -0.78 0.03
1 4.28 428 0.254 -10.913 2.768 -31.067 -20.264 20.966 -359.916 -839.903 -2894.914 -0.462 1.374 -0.533 -0.02 0.62 -0.78 0.04
1 4.29 429 0.503 -11.354 2.988 -24.292 -15.717 26.306 -359.916 -839.903 -2894.914 -0.736 1.805 -0.795 -0.02 0.62 -0.78 0.04
1 4.30 430 0.733 -11.397 3.204 -11.078 -11.383 27.741 -284.964 -839.903 -2969.865 -0.999 1.843 -1.039 -0.02 0.62 -0.78 0.04
1 4.31 431 1.235 -11.038 3.931 -8.148 -8.637 27.191 -284.964 -839.903 -2969.865 -1.538 1.482 -1.776 -0.01 0.62 -0.78 0.04
1 4.32 432 1.513 -11.363 4.133 -22.919 -8.942 31.555 -269.974 -659.870 -2804.973 -1.851 1.807 -1.985 -0.01 0.62 -0.78 0.04
1 4.33 433 1.528 -11.521 3.553 -31.098 -6.256 36.682 -254.984 -749.961 -2819.963 -1.905 1.961 -1.431 -0.01 0.63 -0.78 0.05
1 4.34 434 0.824 -11.382 2.308 -10.651 6.775 27.130 -269.974 -809.922 -2909.904 -1.300 1.810 -0.262 -0.01 0.63 -0.78 0.05
1 4.35 435 0.014 -11.138 2.150 3.906 14.832 15.198 -254.984 -839.903 -2894.914 -0.527 1.566 -0.111 -0.01 0.63 -0.78 0.05
1 4.36 436 -0.402 -10.779 2.318 3.204 16.327 5.951 -254.984 -839.903 -2894.914 -0.133 1.210 -0.271 -0.01 0.63 -0.78 0.05
1 4.37 437 -1.135 -10.750 2.744 -9.369 17.548 4.395 -209.863 -794.932 -2819.963 0.588 1.182 -0.696 -0.01 0.63 -0.78 0.05
1 4.38 438 -1.834 -10.851 2.624 -16.022 16.815 -0.336 -209.863 -794.932 -2819.963 1.278 1.280 -0.593 -0 0.63 -0.78 0.05
1 4.39 439 -2.313 -11.157 2.586 -3.723 5.951 -16.235 -164.893 -779.942 -2804.973 1.758 1.582 -0.576 -0 0.63 -0.77 0.05
1 4.40 440 -2.265 -11.220 2.562 10.498 -4.089 -24.475 -224.854 -854.893 -2909.904 1.729 1.641 -0.561 -0 0.63 -0.77 0.05
1 4.41 441 -2.437 -10.755 2.792 23.224 -13.855 -18.738 -134.912 -674.860 -2894.914 1.976 1.182 -0.748 -0.01 0.63 -0.78 0.05
1 4.42 442 -2.265 -10.243 2.854 22.400 -20.752 -12.299 -179.883 -749.961 -2969.865 1.835 0.676 -0.773 -0.01 0.63 -0.78 0.05
1 4.43 443 -1.403 -9.582 3.098 22.217 -30.151 -16.968 -179.883 -749.961 -2969.865 1.001 0.022 -0.981 -0.01 0.63 -0.78 0.05
1 4.44 444 -0.733 -9.668 3.419 25.086 -38.605 -17.456 -269.974 -629.890 -2849.943 0.360 0.117 -1.258 -0.01 0.62 -0.78 0.05
1 4.45 445 -0.532 -9.433 3.716 31.433 -42.481 -11.993 -269.974 -629.890 -2849.943 0.193 -0.107 -1.503 -0.02 0.62 -0.78 0.05
1 4.46 446 -0.225 -8.749 3.769 31.311 -44.068 5.798 -269.974 -734.971 -2879.924 -0.086 -0.779 -1.495 -0.02 0.62 -0.78 0.05
1 4.47 447 0.206 -8.428 3.405 28.442 -53.131 16.449 -299.955 -884.874 -2879.924 -0.505 -1.085 -1.069 -0.02 0.62 -0.79 0.05
1 4.48 448 1.044 -8.294 3.232 28.656 -66.101 21.210 -374.906 -734.971 -2954.875 -1.341 -1.191 -0.785 -0.03 0.61 -0.79 0.06
1 4.49 449 1.623 -8.126 3.342 29.816 -64.026 21.973 -344.925 -854.893 -2909.904 -1.921 -1.345 -0.844 -0.03 0.61 -0.79 0.06
1 4.50 450 2.437 -8.016 3.347 24.109 -48.584 21.393 -344.925 -854.893 -2909.904 -2.729 -1.441 -0.794 -0.03 0.61 -0.79 0.07
1 4.51 451 2.514 -7.695 3.357 9.552 -34.851 19.348 -434.867 -989.955 -3044.966 -2.798 -1.750 -0.761 -0.03 0.61 -0.79 0.07
1 4.52 452 2.615 -7.623 3.318 -8.026 -23.743 10.742 -434.867 -989.955 -3044.966 -2.900 -1.818 -0.707 -0.04 0.6 -0.79 0.07
1 4.53 453 2.524 -8.495 3.314 -24.872 -10.223 -2.167 -539.948 -944.984 -3014.986 -2.812 -0.950 -0.717 -0.04 0.61 -0.79 0.07
1 4.54 454 1.911 -9.228 3.165 -23.529 0.732 -3.876 -449.857 -884.874 -3164.888 -2.172 -0.225 -0.592 -0.04 0.61 -0.79 0.07
1 4.55 455 1.370 -9.534 3.022 -16.815 6.409 -5.402 -449.857 -884.874 -3164.888 -1.603 0.074 -0.475 -0.04 0.61 -0.79 0.07
1 4.56 456 0.881 -9.702 2.883 -5.951 1.373 -14.099 -629.890 -959.975 -2909.904 -1.068 0.231 -0.369 -0.04 0.61 -0.79 0.07
1 4.57 457 0.785 -9.764 2.820 0.488 -3.662 -19.196 -629.890 -959.975 -2909.904 -0.939 0.293 -0.308 -0.04 0.61 -0.79 0.07
1 4.58 458 0.867 -9.582 2.782 5.890 -7.172 -24.567 -494.978 -1079.896 -2909.904 -0.980 0.112 -0.263 -0.04 0.61 -0.79 0.07
1 4.59 459 0.747 -9.625 2.720 11.169 -8.759 -28.320 -494.978 -1079.896 -2909.904 -0.812 0.158 -0.187 -0.04 0.61 -0.79 0.06
1 4.60 460 0.656 -9.467 2.806 15.106 -7.263 -26.856 -524.958 -809.922 -3104.927 -0.670 0.006 -0.252 -0.05 0.61 -0.79 0.06
1 4.61 461 0.646 -9.189 2.624 14.374 -4.974 -22.064 -539.948 -839.903 -2939.885 -0.610 -0.265 -0.045 -0.05 0.61 -0.79 0.06
1 4.62 462 0.594 -9.098 2.639 12.085 -6.256 -19.318 -539.948 -839.903 -2939.885 -0.516 -0.349 -0.036 -0.05 0.6 -0.79 0.06
1 4.63 463 0.747 -9.228 2.351 9.674 -7.141 -14.160 -599.909 -929.994 -2984.855 -0.601 -0.208 0.291 -0.05 0.6 -0.79 0.06
1 4.64 464 0.972 -8.979 2.394 7.385 -6.256 -12.421 -599.909 -929.994 -2984.855 -0.798 -0.453 0.262 -0.05 0.6 -0.8 0.06
1 4.65 465 1.073 -9.046 2.380 4.791 -3.540 -11.871 -569.929 -854.893 -3029.976 -0.872 -0.382 0.287 -0.06 0.6 -0.8 0.06
1 4.66 466 1.188 -9.184 2.380 1.831 1.434 -9.888 -569.929 -854.893 -3029.976 -0.962 -0.241 0.294 -0.06 0.6 -0.8 0.06
1 4.67 467 1.240 -9.074 2.332 -0.397 4.486 -9.430 -524.958 -959.975 -3029.976 -0.993 -0.350 0.344 -0.06 0.6 -0.8 0.06
1 4.68 468 1.097 -9.003 2.131 -1.221 6.683 -8.728 -599.909 -959.975 -2984.855 -0.829 -0.421 0.545 -0.06 0.6 -0.8 0.05
1 4.69 469 1.192 -9.098 2.059 -1.923 5.768 -8.423 -599.909 -959.975 -2984.855 -0.907 -0.326 0.614 -0.06 0.6 -0.8 0.05
1 4.70 470 1.259 -9.127 2.006 -0.305 4.883 -7.324 -614.899 -1094.887 -3014.986 -0.957 -0.298 0.663 -0.06 0.6 -0.8 0.05
1 4.71 471 1.441 -9.060 1.882 3.357 4.822 -6.409 -659.870 -989.955 -3014.986 -1.106 -0.365 0.784 -0.06 0.6 -0.8 0.05
1 4.72 472 1.283 -9.098 1.767 5.127 7.904 -6.714 -569.929 -1004.945 -3104.927 -0.931 -0.325 0.902 -0.06 0.6 -0.8 0.05
1 4.73 473 1.322 -9.060 1.757 5.432 12.329 -5.951 -569.929 -1004.945 -3104.927 -0.955 -0.361 0.916 -0.06 0.6 -0.8 0.05
1 4.74 474 1.101 -9.065 1.662 4.913 18.250 -4.150 -674.860 -854.893 -2954.875 -0.723 -0.355 1.016 -0.06 0.6 -0.8 0.05
1 4.75 475 0.891 -9.036 1.513 4.211 23.224 -0.916 -659.870 -839.903 -3074.947 -0.507 -0.382 1.168 -0.06 0.6 -0.8 0.05
1 4.76 476 0.675 -9.161 1.571 4.486 23.987 1.038 -659.870 -839.903 -3074.947 -0.293 -0.257 1.113 -0.06 0.6 -0.8 0.05
1 4.77 477 0.642 -9.175 1.561 4.028 24.628 3.601 -629.890 -884.874 -3059.957 -0.265 -0.242 1.126 -0.06 0.6 -0.8 0.04
1 4.78 478 0.627 -9.438 1.681 4.669 23.590 5.737 -539.948 -869.883 -3014.986 -0.275 0.022 1.010 -0.05 0.6 -0.8 0.04
1 4.79 479 0.426 -9.323 1.686 5.981 22.095 7.477 -494.978 -929.994 -3029.976 -0.089 -0.093 1.008 -0.05 0.6 -0.8 0.04
1 4.80 480 0.383 -9.390 1.513 7.782 20.722 9.186 -494.978 -929.994 -3029.976 -0.064 -0.025 1.187 -0.05 0.6 -0.8 0.04
1 4.81 481 0.426 -9.309 1.484 9.308 18.005 11.169 -569.929 -1004.945 -2879.924 -0.128 -0.105 1.223 -0.05 0.6 -0.8 0.04
1 4.82 482 0.450 -9.199 1.580 7.721 14.923 14.038 -494.978 -1079.896 -2909.904 -0.173 -0.213 1.135 -0.05 0.6 -0.8 0.04
1 4.83 483 0.603 -9.184 1.700 3.265 10.529 16.693 -494.978 -1079.896 -2909.904 -0.351 -0.227 1.021 -0.05 0.6 -0.8 0.04
1 4.84 484 0.857 -9.084 1.513 -1.465 10.193 19.745 -509.968 -914.854 -3044.966 -0.628 -0.328 1.209 -0.05 0.6 -0.8 0.04
1 4.85 485 0.872 -9.022 1.690 -7.599 11.505 20.111 -584.919 -914.854 -2969.865 -0.697 -0.396 1.016 -0.04 0.6 -0.8 0.04
1 4.86 486 0.977 -9.074 1.805 -9.705 15.350 20.905 -449.857 -929.994 -3104.927 -0.830 -0.348 0.885 -0.04 0.6 -0.8 0.04
1 4.87 487 0.694 -9.036 1.796 -10.101 19.013 20.477 -449.857 -929.994 -3104.927 -0.577 -0.392 0.877 -0.04 0.6 -0.8 0.04
1 4.88 488 0.804 -8.883 1.824 -10.803 18.402 17.731 -509.968 -914.854 -3014.986 -0.718 -0.550 0.830 -0.04 0.6 -0.8 0.04
1 4.89 489 0.747 -9.237 1.801 -13.672 17.212 16.632 -344.925 -1049.916 -3059.957 -0.685 -0.202 0.835 -0.04 0.6 -0.8 0.04
1 4.90 490 1.226 -9.481 1.604 -11.108 15.289 13.062 -344.925 -1049.916 -3059.957 -1.187 0.036 1.009 -0.04 0.6 -0.79 0.04
1 4.91 491 1.331 -9.362 1.494 -4.944 17.487 10.254 -434.867 -1019.936 -2969.865 -1.310 -0.090 1.097 -0.03 0.61 -0.79 0.04
1 4.92 492 1.346 -9.271 1.207 -2.930 19.867 7.904 -329.935 -869.883 -3014.986 -1.346 -0.188 1.358 -0.03 0.61 -0.79 0.04
1 4.93 493 1.341 -9.122 1.365 -2.991 21.210 7.141 -494.978 -929.994 -3059.957 -1.349 -0.339 1.189 -0.03 0.61 -0.79 0.04
1 4.94 494 1.403 -9.036 1.590 -7.233 25.726 3.784 -494.978 -929.994 -3059.957 -1.415 -0.429 0.951 -0.03 0.61 -0.79 0.04
1 4.95 495 1.523 -8.835 2.940 -16.693 29.755 0.763 -284.964 -869.883 -3044.966 -1.538 -0.635 -0.417 -0.03 0.61 -0.79 0.04
1 4.96 496 1.092 -8.940 4.405 -36.591 38.056 -3.113 -329.935 -944.984 -2939.885 -1.107 -0.537 -1.911 -0.03 0.61 -0.79 0.04
1 4.97 497 -0.168 -10.334 3.031 -56.824 41.565 -30.151 -329.935 -944.984 -2939.885 0.157 0.845 -0.582 -0.03 0.61 -0.79 0.03
1 4.98 498 -0.546 -12.125 1.786 -44.769 27.130 -45.136 -374.906 -959.975 -3059.957 0.561 2.619 0.596 -0.03 0.61 -0.79 0.03
1 4.99 499 -0.541 -12.062 1.623 -10.101 10.223 -42.877 -269.974 -1004.945 -2879.924 0.608 2.540 0.691 -0.03 0.62 -0.79 0.03
1 5.00 500 -0.661 -10.362 2.332 26.184 4.730 -33.447 -389.896 -944.984 -2819.963 0.845 0.841 -0.019 -0.03 0.62 -0.79 0.02
1 5.01 501 -0.699 -9.141 2.739 6.836 10.651 -27.954 -389.896 -944.984 -2819.963 0.926 -0.370 -0.391 -0.03 0.62 -0.79 0.02
1 5.02 502 -0.690 -8.897 3.491 -34.607 18.158 -33.203 -419.876 -884.874 -2804.973 0.949 -0.614 -1.142 -0.03 0.62 -0.79 0.02
1 5.03 503 -0.886 -10.128 3.046 -67.383 19.562 -39.856 -389.896 -869.883 -2894.914 1.183 0.605 -0.751 -0.03 0.62 -0.79 0.01
1 5.04 504 -0.393 -12.584 1.044 -53.040 4.822 -44.525 -389.896 -869.883 -2894.914 0.736 3.041 1.158 -0.03 0.62 -0.78 0.01
1 5.05 505 -0.144 -13.279 0.824 -19.409 -5.676 -29.694 -434.867 -944.984 -2939.885 0.552 3.719 1.294 -0.03 0.63 -0.78 0.01
1 5.06 506 0.302 -12.350 1.781 -0.488 -7.324 -10.742 -434.867 -914.854 -2789.982 0.159 2.784 0.297 -0.04 0.63 -0.78 0.01
1 5.07 507 0.713 -11.038 2.806 -20.203 -1.068 8.026 -449.857 -779.942 -2879.924 -0.227 1.471 -0.738 -0.04 0.63 -0.78 0.01
1 5.08 508 1.226 -11.095 3.060 -41.138 2.625 10.468 -449.857 -779.942 -2879.924 -0.751 1.520 -1.029 -0.04 0.63 -0.78 0.01
1 5.09 509 1.523 -11.919 3.275 -42.938 4.852 8.667 -434.867 -644.880 -2684.901 -1.063 2.330 -1.306 -0.04 0.63 -0.77 0.01
1 5.10 510 1.915 -12.048 3.481 -23.773 9.125 8.637 -509.968 -749.961 -2864.934 -1.469 2.447 -1.566 -0.04 0.63 -0.77 0.01
1 5.11 511 1.786 -11.809 3.697 -2.075 14.038 7.080 -509.968 -749.961 -2864.934 -1.353 2.203 -1.806 -0.04 0.63 -0.77 0.01
1 5.12 512 1.058 -10.564 4.094 2.869 29.572 17.029 -434.867 -674.860 -2609.950 -0.642 0.958 -2.199 -0.03 0.63 -0.77 0.01
1 5.13 513 0.541 -9.932 4.334 -7.141 34.149 19.257 -434.867 -869.883 -2819.963 -0.155 0.326 -2.429 -0.03 0.63 -0.77 0.01
1 5.14 514 0.235 -9.371 4.449 -16.602 28.809 4.425 -359.916 -794.932 -2759.852 0.088 -0.239 -2.555 -0.03 0.63 -0.77 0.01
1 5.15 515 0.029 -9.194 4.358 -13.916 30.060 -3.326 -359.916 -794.932 -2759.852 0.285 -0.416 -2.464 -0.03 0.63 -0.77 0.01
1 5.16 516 -0.733 -8.998 4.046 -0.793 39.429 -15.930 -434.867 -794.932 -2684.901 1.051 -0.610 -2.141 -0.03 0.63 -0.77 0
1 5.17 517 -1.226 -8.883 3.692 1.495 43.488 -20.447 -329.935 -644.880 -2684.901 1.552 -0.720 -1.765 -0.02 0.63 -0.77 0
1 5.18 518 -1.662 -8.624 3.165 -2.197 41.992 -23.621 -329.935 -644.880 -2684.901 1.998 -0.974 -1.218 0.02 -0.63 0.77 0
1 5.19 519 -2.102 -9.252 2.514 -14.679 27.466 -23.102 -434.867 -749.961 -2759.852 2.449 -0.345 -0.557 0.02 -0.63 0.77 0
1 5.20 520 -2.308 -9.740 2.241 -17.578 18.158 -15.503 -194.873 -659.870 -2729.872 2.666 0.142 -0.292 0.02 -0.63 0.77 0.01
1 5.21 521 -2.040 -10.123 2.241 -13.489 8.972 -7.294 -194.873 -659.870 -2729.872 2.400 0.522 -0.309 0.02 -0.63 0.77 0.01
1 5.22 522 -1.168 -10.061 2.246 3.754 -1.831 -7.263 -344.925 -929.994 -2624.940 1.510 0.455 -0.335 0.02 -0.63 0.77 0.01
1 5.23 523 -0.934 -9.893 2.231 14.404 -3.418 -5.066 -359.916 -869.883 -2819.963 1.276 0.290 -0.307 0.02 -0.63 0.77 0.01
1 5.24 524 -0.881 -9.797 2.236 18.097 -2.502 -1.251 -209.863 -719.981 -2564.979 1.222 0.200 -0.285 0.02 -0.63 0.77 0.01
1 5.25 525 -0.996 -9.544 2.208 15.564 -3.937 4.181 -209.863 -719.981 -2564.979 1.330 -0.048 -0.226 0.02 -0.63 0.78 0
1 5.26 526 -1.092 -9.802 2.299 10.010 -4.852 9.186 -359.916 -794.932 -2639.930 1.411 0.215 -0.293 0.02 -0.63 0.78 0
1 5.27 527 -1.240 -9.850 2.255 10.345 -4.059 16.174 -374.906 -734.971 -2699.891 1.537 0.266 -0.233 0.02 -0.63 0.78 0
1 5.28 528 -1.264 -9.682 2.279 17.853 -2.777 19.623 -374.906 -734.971 -2699.891 1.529 0.101 -0.240 0.02 -0.63 0.78 0
1 5.29 529 -1.413 -9.295 2.117 27.313 -2.380 24.994 -374.906 -779.942 -2774.992 1.599 -0.275 -0.012 -0.02 0.63 -0.78 0
1 5.30 530 -1.437 -8.835 1.815 26.215 -6.287 24.445 -389.896 -794.932 -2639.930 1.577 -0.726 0.332 -0.01 0.62 -0.78 0.01
1 5.31 531 -1.346 -8.710 1.772 19.226 -12.573 23.590 -374.906 -704.991 -2774.992 1.442 -0.843 0.413 -0.01 0.62 -0.78 0.01
1 5.32 532 -1.116 -8.385 1.848 9.430 -17.456 21.149 -374.906 -704.991 -2774.992 1.173 -1.163 0.361 -0.01 0.62 -0.78 0.01
1 5.33 533 -0.900 -8.739 1.863 3.082 -16.785 19.653 -284.964 -749.961 -2759.852 0.930 -0.805 0.360 -0.01 0.62 -0.78 0.01
1 5.34 534 -0.967 -8.878 1.690 -0.885 -11.017 19.257 -209.863 -749.961 -2759.852 0.967 -0.666 0.535 -0.01 0.62 -0.78 0.02
1 5.35 535 -0.967 -9.175 1.820 -0.275 -9.064 18.036 -209.863 -749.961 -2759.852 0.936 -0.369 0.405 -0.01 0.62 -0.78 0.02
1 5.36 536 -1.092 -9.275 1.504 4.852 -10.040 14.313 -284.964 -794.932 -2789.982 1.005 -0.268 0.721 -0.01 0.62 -0.78 0.02
1 5.37 537 -0.963 -9.213 1.470 7.690 -10.925 13.123 -344.925 -929.994 -2774.992 0.853 -0.329 0.761 -0.01 0.62 -0.78 0.02
1 5.38 538 -0.953 -9.175 1.336 13.489 -15.717 7.080 -434.867 -749.961 -2759.852 0.829 -0.364 0.908 -0.01 0.62 -0.78 0.02
1 5.39 539 -0.977 -8.998 1.298 14.679 -17.670 5.768 -434.867 -749.961 -2759.852 0.844 -0.537 0.963 -0.01 0.62 -0.78 0.03
1 5.40 540 -0.919 -9.007 1.317 12.238 -18.372 4.669 -179.883 -839.903 -2819.963 0.780 -0.523 0.961 -0.01 0.62 -0.78 0.03
1 5.41 541 -0.991 -9.003 1.044 8.728 -17.517 5.615 -329.935 -839.903 -2819.963 0.845 -0.525 1.247 -0.01 0.62 -0.78 0.03
1 5.42 542 -0.934 -9.065 1.015 7.690 -17.761 7.416 -329.935 -839.903 -2819.963 0.781 -0.460 1.285 -0.01 0.62 -0.79 0.03
1 5.43 543 -0.977 -9.041 0.915 9.796 -17.242 8.484 -284.964 -869.883 -2714.881 0.814 -0.483 1.391 -0.01 0.62 -0.79 0.03
1 5.44 544 -0.690 -8.777 0.685 13.428 -19.684 6.714 -254.984 -944.984 -2789.982 0.508 -0.741 1.640 -0.02 0.62 -0.79 0.03
1 5.45 545 -0.733 -8.787 0.790 15.259 -20.355 5.005 -284.964 -869.883 -2894.914 0.546 -0.728 1.547 -0.02 0.62 -0.79 0.04
1 5.46 546 -0.637 -8.471 0.603 13.611 -19.165 5.310 -284.964 -869.883 -2894.914 0.448 -1.039 1.754 -0.02 0.62 -0.79 0.04
1 5.47 547 -0.436 -8.619 0.656 9.705 -17.487 5.920 -374.906 -1004.945 -2729.872 0.246 -0.887 1.717 -0.02 0.62 -0.79 0.04
1 5.48 548 -0.541 -8.610 1.063 9.888 -12.268 5.829 -329.935 -944.984 -2894.914 0.350 -0.893 1.326 -0.02 0.61 -0.79 0.04
1 5.49 549 -0.685 -8.720 0.953 10.010 -10.651 3.021 -329.935 -944.984 -2894.914 0.489 -0.779 1.448 -0.02 0.61 -0.79 0.04
1 5.50 550 -0.790 -8.787 1.121 7.294 -12.817 0.397 -374.906 -959.975 -2984.855 0.594 -0.708 1.297 -0.02 0.61 -0.79 0.04
1 5.51 551 -0.881 -8.964 1.413 1.495 -17.181 -1.923 -224.854 -959.975 -2909.904 0.690 -0.528 1.017 -0.02 0.61 -0.79 0.04
1 5.52 552 -0.809 -9.137 1.441 -0.519 -18.616 -2.289 -344.925 -884.874 -2804.973 0.623 -0.356 0.985 -0.02 0.61 -0.79 0.04
1 5.53 553 -0.718 -9.295 1.609 -1.740 -17.792 -1.678 -344.925 -884.874 -2804.973 0.539 -0.200 0.812 -0.02 0.61 -0.79 0.04
1 5.54 554 -0.694 -9.410 1.791 -0.397 -16.480 -1.007 -389.896 -914.854 -2894.914 0.521 -0.086 0.625 -0.02 0.61 -0.79 0.05
1 5.55 555 -0.632 -9.165 1.619 0.641 -16.632 -0.671 -494.978 -1079.896 -2774.992 0.463 -0.331 0.796 -0.03 0.61 -0.79 0.05
1 5.56 556 -0.421 -9.055 1.408 -4.517 -19.135 -3.235 -494.978 -1079.896 -2774.992 0.257 -0.442 1.004 -0.03 0.61 -0.79 0.05
1 5.57 557 -0.431 -9.113 1.480 -8.820 -19.440 -2.533 -464.997 -869.883 -2939.885 0.275 -0.387 0.924 -0.03 0.61 -0.79 0.05
1 5.58 558 -0.484 -9.074 2.576 -22.766 -13.031 -0.549 -584.919 -914.854 -2894.914 0.344 -0.435 -0.211 -0.03 0.62 -0.79 0.05
1 5.59 559 -0.570 -9.366 3.156 -30.853 -10.742 1.282 -509.968 -749.961 -2894.914 0.432 -0.152 -0.827 -0.03 0.62 -0.78 0.05
1 5.60 560 -0.345 -10.956 3.850 -65.827 -10.101 20.874 -509.968 -749.961 -2894.914 0.193 1.424 -1.582 -0.03 0.62 -0.78 0.05
1 5.61 561 0.072 -12.460 3.433 -72.785 -10.437 31.433 -464.997 -944.984 -2789.982 -0.253 2.905 -1.265 -0.03 0.62 -0.78 0.05
1 5.62 562 0.388 -13.288 2.911 -48.126 -7.629 36.530 -449.857 -734.971 -2699.891 -0.614 3.712 -0.841 -0.03 0.63 -0.78 0.06
1 5.63 563 0.809 -11.823 3.218 10.620 -7.690 32.562 -449.857 -734.971 -2699.891 -1.085 2.237 -1.200 -0.03 0.63 -0.77 0.06
1 5.64 564 1.087 -10.860 3.462 11.688 -10.315 29.968 -464.997 -839.903 -2789.982 -1.409 1.277 -1.437 -0.03 0.63 -0.77 0.06
1 5.65 565 1.207 -10.549 3.539 -14.618 -10.071 29.907 -464.997 -839.903 -2789.982 -1.569 0.972 -1.491 -0.03 0.63 -0.77 0.06
1 5.66 566 0.316 -11.435 2.236 -34.058 2.197 27.618 -449.857 -854.893 -2774.992 -0.759 1.851 -0.239 -0.03 0.63 -0.77 0.07
1 5.67 567 -0.340 -11.684 1.561 -19.196 5.127 17.944 -449.857 -854.893 -2774.992 -0.141 2.093 0.392 -0.02 0.63 -0.77 0.07
1 5.68 568 -0.747 -11.689 1.762 -3.326 1.648 3.357 -329.935 -839.903 -2759.852 0.245 2.095 0.171 -0.02 0.63 -0.77 0.07
1 5.69 569 -0.781 -11.406 2.495 0.153 0.763 -5.035 -434.867 -719.981 -2759.852 0.278 1.812 -0.562 -0.02 0.63 -0.77 0.07
1 5.70 570 -1.140 -11.526 2.840 -4.761 5.676 -8.118 -434.867 -719.981 -2759.852 0.647 1.931 -0.906 -0.02 0.63 -0.77 0.07
1 5.71 571 -1.757 -11.751 2.672 -2.716 11.231 -12.207 -389.896 -869.883 -2684.901 1.276 2.155 -0.745 -0.02 0.63 -0.77 0.07
1 5.72 572 -1.935 -11.588 2.629 8.179 6.470 -17.761 -389.896 -869.883 -2684.901 1.468 1.990 -0.707 -0.02 0.63 -0.77 0.07
1 5.73 573 -2.260 -11.143 2.868 23.895 -8.148 -19.653 -269.974 -854.893 -2699.891 1.849 1.550 -0.909 -0.02 0.63 -0.77 0.06
1 5.74 574 -1.963 -10.233 2.959 26.825 -21.607 -17.517 -269.974 -854.893 -2699.891 1.584 0.647 -0.961 -0.03 0.63 -0.77 0.06
1 5.75 575 -1.365 -9.841 3.194 26.245 -37.995 -18.280 -464.997 -719.981 -2684.901 1.021 0.262 -1.153 -0.03 0.63 -0.77 0.06
1 5.76 576 -0.934 -9.534 3.635 23.438 -49.194 -15.320 -509.968 -839.903 -2714.881 0.622 -0.035 -1.544 -0.03 0.63 -0.78 0.06
1 5.77 577 -0.747 -9.448 3.922 20.783 -50.293 -2.350 -509.968 -839.903 -2714.881 0.466 -0.112 -1.784 -0.03 0.62 -0.78 0.07
1 5.78 578 -0.215 -8.744 3.390 16.815 -56.763 18.707 -464.997 -674.860 -2714.881 -0.055 -0.806 -1.206 -0.04 0.62 -0.78 0.07
1 5.79 579 0.570 -8.854 3.251 20.050 -65.186 25.696 -464.997 -674.860 -2714.881 -0.846 -0.686 -1.027 -0.04 0.62 -0.78 0.07
1 5.80 580 1.868 -8.758 3.371 20.783 -63.904 27.710 -599.909 -809.922 -2849.943 -2.161 -0.761 -1.061 -0.05 0.62 -0.78 0.08
1 5.81 581 2.251 -8.715 3.424 18.341 -58.258 26.367 -599.909 -809.922 -2849.943 -2.546 -0.794 -1.072 -0.05 0.61 -0.78 0.09
1 5.82 582 2.797 -8.993 3.481 6.836 -35.828 17.242 -464.997 -749.961 -2789.982 -3.086 -0.508 -1.097 -0.05 0.61 -0.78 0.09
1 5.83 583 2.686 -9.252 3.108 5.310 -21.576 9.430 -734.971 -944.984 -2864.934 -2.963 -0.245 -0.703 -0.05 0.61 -0.78 0.09
1 5.84 584 1.992 -9.510 2.734 11.932 -11.231 3.571 -734.971 -944.984 -2864.934 -2.249 0.018 -0.311 -0.05 0.61 -0.78 0.09
1 5.85 585 1.140 -9.132 2.811 19.470 -4.852 -0.244 -629.890 -884.874 -2849.943 -1.378 -0.354 -0.361 -0.06 0.61 -0.79 0.09
1 5.86 586 1.053 -9.060 2.710 18.219 -7.416 -9.430 -629.890 -884.874 -2849.943 -1.278 -0.418 -0.228 -0.06 0.61 -0.79 0.09
1 5.87 587 1.101 -9.180 2.811 16.113 -8.911 -17.975 -614.899 -944.984 -2789.982 -1.302 -0.290 -0.297 -0.06 0.61 -0.79 0.09
1 5.88 588 1.283 -9.448 2.768 21.271 -4.791 -24.139 -539.948 -944.984 -2759.852 -1.401 -0.008 -0.195 -0.06 0.6 -0.79 0.09
1 5.89 589 1.073 -9.098 2.519 27.802 -2.625 -25.147 -569.929 -1004.945 -2879.924 -1.142 -0.348 0.090 -0.06 0.6 -0.79 0.09
1 5.90 590 0.915 -8.868 2.423 30.640 -3.876 -27.710 -690.000 -914.854 -2789.982 -0.936 -0.566 0.230 -0.06 0.6 -0.79 0.08
1 5.91 591 0.800 -8.567 2.677 30.792 -5.188 -30.151 -690.000 -914.854 -2789.982 -0.769 -0.854 0.023 -0.06 0.6 -0.79 0.08
1 5.92 592 0.522 -8.543 2.370 27.100 -4.730 -28.381 -674.860 -809.922 -2954.875 -0.438 -0.864 0.376 -0.07 0.6 -0.8 0.08
1 5.93 593 0.225 -8.552 2.299 23.682 -4.395 -23.529 -674.860 -809.922 -2954.875 -0.091 -0.842 0.489 -0.07 0.59 -0.8 0.08
1 5.94 594 -0.096 -8.390 1.911 18.494 -7.111 -19.013 -690.000 -944.984 -2894.914 0.271 -0.993 0.913 -0.07 0.59 -0.8 0.08
1 5.95 595 -0.091 -8.351 1.805 7.111 -17.426 -11.749 -539.948 -1019.936 -2939.885 0.329 -1.015 1.069 -0.07 0.59 -0.8 0.08
1 5.96 596 0.134 -8.428 2.011 0.488 -22.369 -5.859 -824.913 -1004.945 -2879.924 0.128 -0.935 0.872 -0.07 0.59 -0.8 0.08
1 5.97 597 0.742 -8.461 2.035 -6.897 -24.231 -0.824 -749.961 -959.975 -2954.875 -0.462 -0.901 0.847 -0.08 0.59 -0.8 0.08
1 5.98 598 1.259 -8.629 2.270 -11.963 -21.668 2.960 -749.961 -959.975 -2954.875 -0.968 -0.736 0.601 -0.08 0.59 -0.8 0.08
1 5.99 599 1.719 -8.988 2.490 -14.252 -14.008 8.514 -779.942 -929.994 -2984.855 -1.417 -0.383 0.361 -0.08 0.59 -0.8 0.08
1 6.00 600 2.150 -9.261 2.495 -8.179 -1.129 13.367 -779.942 -929.994 -2984.855 -1.845 -0.116 0.336 -0.08 0.59 -0.8 0.08
1 6.01 601 2.399 -9.376 2.490 0.671 4.791 13.123 -824.913 -1124.867 -2849.943 -2.097 -0.005 0.327 -0.08 0.59 -0.8 0.08
1 6.02 602 2.265 -8.993 2.169 12.726 8.728 11.963 -764.952 -944.984 -2969.865 -1.973 -0.387 0.655 -0.08 0.59 -0.8 0.08
1 6.03 603 2.260 -8.916 2.117 15.350 9.460 10.651 -854.893 -929.994 -2879.924 -1.973 -0.458 0.726 -0.08 0.59 -0.8 0.08
1 6.04 604 2.318 -8.639 2.045 14.069 10.223 6.104 -749.961 -1004.945 -3059.957 -2.029 -0.729 0.819 -0.08 0.59 -0.8 0.08
1 6.05 605 2.088 -8.433 1.963 11.871 13.458 2.655 -749.961 -1004.945 -3059.957 -1.794 -0.930 0.917 -0.08 0.59 -0.8 0.08
1 6.06 606 2.016 -8.524 1.997 11.078 19.165 1.099 -794.932 -989.955 -2894.914 -1.716 -0.834 0.898 -0.08 0.59 -0.8 0.08
1 6.07 607 1.638 -8.375 1.939 11.841 31.586 2.258 -794.932 -989.955 -2894.914 -1.335 -0.978 0.970 -0.08 0.59 -0.8 0.08
1 6.08 608 1.494 -8.361 1.877 11.536 38.422 2.228 -690.000 -1064.906 -2939.885 -1.194 -0.988 1.047 -0.08 0.59 -0.8 0.08
1 6.09 609 0.948 -8.404 1.834 8.026 41.962 2.380 -629.890 -959.975 -2984.855 -0.667 -0.939 1.111 -0.07 0.59 -0.8 0.08
1 6.10 610 0.757 -8.816 1.686 -1.312 39.063 2.899 -839.903 -989.955 -2864.934 -0.518 -0.520 1.284 -0.07 0.59 -0.8 0.07
1 6.11 611 0.670 -9.036 1.733 -4.456 35.248 3.693 -690.000 -1019.936 -2939.885 -0.447 -0.303 1.229 -0.07 0.59 -0.8 0.07
1 6.12 612 0.565 -9.218 1.863 -4.852 32.501 5.493 -690.000 -1019.936 -2939.885 -0.359 -0.125 1.089 -0.06 0.59 -0.8 0.07
1 6.13 613 0.627 -9.290 1.915 -6.378 31.677 7.599 -599.909 -1079.896 -2954.875 -0.440 -0.057 1.023 -0.06 0.59 -0.8 0.07
1 6.14 614 0.369 -9.366 1.777 -10.071 30.151 8.911 -599.909 -1079.896 -2954.875 -0.202 0.014 1.148 -0.06 0.59 -0.8 0.07
1 6.15 615 0.397 -9.433 1.614 -12.360 23.590 7.446 -674.860 -1049.916 -2954.875 -0.253 0.075 1.290 -0.06 0.59 -0.8 0.07
1 6.16 616 0.393 -9.472 1.537 -12.604 18.097 7.172 -569.929 -1049.916 -2804.973 -0.267 0.106 1.344 -0.06 0.59 -0.8 0.07
1 6.17 617 0.594 -9.366 1.523 -14.587 11.963 8.057 -524.958 -1004.945 -2909.904 -0.496 -0.016 1.307 -0.05 0.59 -0.8 0.06
1 6.18 618 0.939 -9.668 1.393 -17.670 11.231 10.956 -464.997 -944.984 -2864.934 -0.853 0.277 1.407 -0.05 0.6 -0.8 0.06
1 6.19 619 1.250 -9.644 1.461 -21.149 12.604 13.245 -464.997 -944.984 -2864.934 -1.179 0.243 1.305 -0.05 0.6 -0.8 0.06
1 6.20 620 1.609 -9.927 2.552 -24.292 16.907 15.930 -539.948 -1019.936 -2894.914 -1.554 0.514 0.175 -0.05 0.6 -0.8 0.06
1 6.21 621 1.537 -9.764 5.023 -39.856 28.595 15.289 -539.948 -1019.936 -2894.914 -1.502 0.339 -2.338 -0.05 0.6 -0.8 0.06
1 6.22 622 0.330 -11.382 3.764 -58.594 39.032 -8.484 -584.919 -1019.936 -2789.982 -0.318 1.941 -1.138 -0.05 0.6 -0.79 0.06
1 6.23 623 -0.225 -12.824 1.963 -35.523 26.459 -21.423 -464.997 -1019.936 -2939.885 0.228 3.360 0.580 -0.05 0.61 -0.79 0.06
1 6.24 624 -0.560 -11.895 1.949 19.898 6.653 -16.388 -494.978 -959.975 -2774.992 0.604 2.413 0.526 -0.05 0.61 -0.79 0.05
1 6.25 625 -0.690 -11.493 2.040 29.785 5.371 -15.411 -449.857 -854.893 -2879.924 0.756 2.020 0.473 -0.05 0.61 -0.79 0.05
1 6.26 626 -1.130 -10.233 3.079 13.275 19.226 -10.803 -449.857 -854.893 -2879.924 1.212 0.773 -0.522 -0.05 0.61 -0.79 0.05
1 6.27 627 -1.475 -9.941 4.779 -25.848 31.220 -13.458 -524.958 -959.975 -2804.973 1.560 0.483 -2.214 -0.04 0.61 -0.79 0.05
1 6.28 628 -1.753 -11.397 4.271 -50.690 31.494 -31.403 -524.958 -959.975 -2804.973 1.852 1.926 -1.753 -0.04 0.61 -0.79 0.05
1 6.29 629 -0.967 -13.446 2.184 -7.538 4.425 -36.163 -584.919 -914.854 -2789.982 1.107 3.959 0.267 -0.04 0.61 -0.79 0.05
1 6.30 630 -0.441 -13.097 2.107 34.363 -3.540 -20.508 -419.876 -884.874 -2954.875 0.633 3.603 0.318 -0.05 0.61 -0.79 0.04
1 6.31 631 -0.187 -11.426 2.538 47.486 0.397 -3.052 -419.876 -884.874 -2954.875 0.418 1.943 -0.075 -0.05 0.61 -0.79 0.04
1 6.32 632 0.235 -9.457 3.395 14.496 6.073 7.263 -599.909 -809.922 -2804.973 0.002 0.008 -0.808 -0.05 0.6 -0.79 0.04
1 6.33 633 0.460 -9.328 3.941 -13.336 8.942 6.928 -599.909 -809.922 -2804.973 -0.235 -0.117 -1.338 -0.05 0.6 -0.79 0.04
1 6.34 634 0.761 -9.711 3.936 -26.795 11.292 6.470 -629.890 -854.893 -2909.904 -0.549 0.261 -1.349 -0.05 0.6 -0.79 0.04
1 6.35 635 1.130 -9.850 4.061 -22.156 10.407 5.066 -629.890 -854.893 -2909.904 -0.927 0.393 -1.500 -0.05 0.61 -0.79 0.04
1 6.36 636 1.389 -9.682 4.075 2.563 12.909 3.632 -449.857 -929.994 -2954.875 -1.191 0.220 -1.534 -0.04 0.61 -0.79 0.04
1 6.37 637 1.034 -8.844 4.008 11.139 17.670 6.561 -299.955 -884.874 -2954.875 -0.844 -0.618 -1.467 -0.04 0.61 -0.79 0.04
1 6.38 638 0.421 -8.093 4.099 4.669 22.217 9.979 -299.955 -884.874 -2954.875 -0.237 -1.363 -1.531 -0.04 0.61 -0.79 0.04
1 6.39 639 -0.393 -7.595 4.214 -17.181 28.412 4.761 -419.876 -959.975 -2909.904 0.544 -1.853 -1.615 -0.04 0.6 -0.79 0.04
1 6.40 640 -0.685 -7.441 4.142 -26.367 30.396 -3.632 -419.876 -959.975 -2909.904 0.821 -2.014 -1.569 -0.04 0.61 -0.79 0.04
1 6.41 641 -1.101 -7.796 4.056 -27.283 36.652 -16.724 -449.857 -854.893 -2804.973 1.237 -1.669 -1.520 -0.04 0.61 -0.79 0.04
1 6.42 642 -1.422 -8.394 3.831 -24.994 42.481 -27.557 -449.857 -854.893 -2804.973 1.569 -1.078 -1.324 -0.03 0.61 -0.79 0.03
1 6.43 643 -2.069 -8.864 3.635 -21.149 44.037 -29.053 -359.916 -914.854 -2819.963 2.230 -0.614 -1.147 -0.03 0.61 -0.79 0.03
1 6.44 644 -2.519 -9.194 3.275 -16.571 33.539 -24.506 -419.876 -734.971 -2774.992 2.692 -0.287 -0.803 -0.03 0.61 -0.79 0.03
1 6.45 645 -2.485 -9.237 3.433 -15.625 22.858 -20.081 -419.876 -734.971 -2774.992 2.666 -0.248 -0.975 -0.03 0.61 -0.79 0.02
1 6.46 646 -2.236 -9.338 3.453 -17.181 16.052 -7.019 -374.906 -854.893 -2849.943 2.412 -0.154 -1.022 -0.03 0.61 -0.79 0.02
1 6.47 647 -2.050 -9.419 3.500 -17.304 14.893 -2.258 -374.906 -854.893 -2849.943 2.209 -0.077 -1.085 -0.03 0.61 -0.79 0.02
1 6.48 648 -1.623 -9.606 3.558 -13.031 16.144 5.981 -419.876 -854.893 -2729.872 1.759 0.106 -1.155 -0.02 0.61 -0.79 0.02
1 6.49 649 -1.489 -9.807 3.582 -8.759 16.113 9.033 -419.876 -854.893 -2729.872 1.597 0.305 -1.186 -0.02 0.61 -0.79 0.02
1 6.50 650 -1.322 -9.807 3.362 -3.021 14.313 10.651 -569.929 -779.942 -2804.973 1.399 0.305 -0.966 -0.02 0.61 -0.79 0.02
1 6.51 651 -1.140 -9.759 3.108 6.134 7.904 13.275 -374.906 -779.942 -2729.872 1.186 0.258 -0.705 -0.02 0.61 -0.79 0.02
1 6.52 652 -1.101 -9.630 3.050 8.545 4.639 12.787 -374.906 -779.942 -2729.872 1.117 0.133 -0.633 -0.02 0.61 -0.79 0.02
1 6.53 653 -0.857 -9.429 3.022 8.453 4.059 13.001 -284.964 -869.883 -2819.963 0.844 -0.064 -0.586 -0.02 0.61 -0.79 0.02
1 6.54 654 -0.919 -9.352 2.983 4.089 9.674 15.289 -359.916 -674.860 -2759.852 0.853 -0.132 -0.515 -0.02 0.61 -0.79 0.03
1 6.55 655 -0.919 -9.343 2.806 3.204 12.878 16.022 -374.906 -854.893 -2849.943 0.821 -0.138 -0.326 -0.01 0.61 -0.79 0.03
1 6.56 656 -0.867 -9.395 2.701 0.854 13.123 14.374 -374.906 -854.893 -2849.943 0.735 -0.083 -0.212 -0.01 0.61 -0.79 0.03
1 6.57 657 -0.900 -9.376 2.615 -0.305 12.268 12.634 -269.974 -734.971 -2729.872 0.739 -0.100 -0.122 -0.01 0.61 -0.79 0.03
1 6.58 658 -0.991 -9.419 2.490 -1.648 11.078 12.604 -254.984 -749.961 -2639.930 0.803 -0.056 0.004 -0.01 0.61 -0.79 0.03
1 6.59 659 -0.862 -9.515 2.251 -1.282 9.552 10.620 -254.984 -749.961 -2639.930 0.648 0.040 0.244 -0.01 0.61 -0.79 0.03
1 6.60 660 -0.757 -9.419 2.198 -1.038 8.789 7.965 -224.854 -929.994 -2774.992 0.519 -0.055 0.296 -0.01 0.61 -0.79 0.03
1 6.61 661 -0.828 -9.596 2.093 1.740 12.573 7.355 -329.935 -869.883 -2819.963 0.555 0.122 0.398 -0 0.61 -0.79 0.03
1 6.62 662 -0.872 -9.687 2.026 5.066 14.496 5.676 -254.984 -719.981 -2714.881 0.580 0.214 0.468 -0 0.61 -0.79 0.03
1 6.63 663 -1.068 -9.668 1.853 7.416 13.916 4.578 -254.984 -719.981 -2714.881 0.760 0.197 0.646 -0 0.61 -0.79 0.03
1 6.64 664 -1.192 -9.596 1.767 9.186 13.763 2.960 -419.876 -779.942 -2804.973 0.869 0.128 0.740 -0 0.61 -0.79 0.03
1 6.65 665 -1.341 -9.563 1.733 9.430 11.597 3.448 -224.854 -854.893 -2729.872 1.003 0.098 0.784 -0 0.61 -0.79 0.03
1 6.66 666 -1.470 -9.592 1.801 10.010 7.050 1.587 -224.854 -854.893 -2729.872 1.117 0.129 0.726 0 0.61 -0.79 0.03
1 6.67 667 -1.451 -9.539 1.719 11.139 4.486 -0.732 -119.922 -884.874 -2669.911 1.086 0.080 0.818 0 0.61 -0.79 0.03
1 6.68 668 -1.518 -9.505 1.810 14.008 2.045 -2.838 -284.964 -914.854 -2684.901 1.140 0.054 0.752 0 0.61 -0.79 0.03
1 6.69 669 -1.499 -9.376 1.633 15.839 0.641 -2.930 -209.863 -869.883 -2789.982 1.117 -0.071 0.947 0 0.61 -0.79 0.03
1 6.70 670 -1.757 -8.969 1.298 20.081 -3.174 -4.517 -209.863 -869.883 -2789.982 1.373 -0.472 1.304 0 0.61 -0.79 0.03
1 6.71 671 -1.901 -8.706 1.116 21.576 -6.866 -6.378 -164.893 -734.971 -2774.992 1.517 -0.728 1.510 0 0.6 -0.8 0.03
1 6.72 672 -1.930 -8.562 0.862 20.813 -11.871 -8.514 -164.893 -929.994 -2879.924 1.549 -0.865 1.788 0 0.6 -0.8 0.03
1 6.73 673 -2.136 -8.236 0.661 16.663 -17.822 -6.805 -164.893 -929.994 -2879.924 1.773 -1.183 2.021 0 0.6 -0.8 0.03
1 6.74 674 -1.868 -8.198 0.579 12.604 -20.477 -7.538 -194.873 -779.942 -2774.992 1.523 -1.214 2.130 -0 0.6 -0.8 0.03
1 6.75 675 -2.136 -8.208 0.891 9.827 -21.881 -5.249 -179.883 -869.883 -2894.914 1.812 -1.198 1.842 -0 0.6 -0.8 0.03
1 6.76 676 -1.978 -8.169 1.226 3.571 -20.416 2.106 -344.925 -854.893 -2729.872 1.686 -1.229 1.537 -0.01 0.6 -0.8 0.03
1 6.77 677 -2.050 -8.107 1.432 0.275 -21.332 3.204 -344.925 -854.893 -2729.872 1.763 -1.289 1.338 -0.01 0.6 -0.8 0.03
1 6.78 678 -2.078 -8.466 1.403 -2.075 -25.696 0.549 -419.876 -929.994 -2879.924 1.799 -0.929 1.369 -0.01 0.6 -0.8 0.03
1 6.79 679 -1.891 -8.495 1.389 -3.632 -32.105 0.000 -284.964 -869.883 -2789.982 1.617 -0.902 1.379 -0.01 0.6 -0.8 0.04
1 6.80 680 -1.504 -8.749 1.255 -2.808 -38.147 -0.427 -284.964 -869.883 -2789.982 1.244 -0.649 1.511 -0.01 0.6 -0.8 0.04
1 6.81 681 -1.274 -8.495 1.135 -1.587 -40.833 1.007 -254.984 -794.932 -2894.914 1.021 -0.906 1.621 -0.01 0.6 -0.8 0.04
1 6.82 682 -1.135 -8.260 1.121 -0.641 -40.161 1.495 -359.916 -794.932 -2759.852 0.894 -1.142 1.632 -0.02 0.6 -0.8 0.04
1 6.83 683 -0.910 -8.112 0.948 -3.906 -41.565 1.495 -269.974 -884.874 -2984.855 0.701 -1.290 1.808 -0.02 0.6 -0.8 0.05
1 6.84 684 -0.742 -8.150 1.164 -11.749 -43.488 0.580 -269.974 -884.874 -2984.855 0.551 -1.254 1.588 -0.02 0.6 -0.8 0.05
1 6.85 685 -0.546 -8.121 3.318 -31.952 -42.694 0.641 -419.876 -854.893 -2804.973 0.374 -1.288 -0.586 -0.03 0.6 -0.8 0.05
1 6.86 686 -0.182 -9.544 4.851 -69.550 -37.384 9.583 -329.935 -914.854 -2969.865 0.024 0.118 -2.174 -0.03 0.6 -0.8 0.05
1 6.87 687 0.632 -12.723 4.932 -112.641 -38.422 32.013 -329.935 -914.854 -2969.865 -0.795 3.269 -2.356 -0.03 0.61 -0.79 0.05
1 6.88 688 1.441 -15.390 3.620 -73.883 -33.905 52.307 -524.958 -929.994 -2849.943 -1.645 5.893 -1.211 -0.03 0.61 -0.79 0.06
1 6.89 689 2.318 -13.590 3.754 11.902 -26.978 44.556 -569.929 -779.942 -2774.992 -2.584 4.062 -1.476 -0.03 0.62 -0.78 0.06
1 6.90 690 3.395 -10.497 3.840 33.875 -16.357 34.790 -464.997 -644.880 -2939.885 -3.768 0.986 -1.508 -0.03 0.62 -0.78 0.07
1 6.91 691 3.625 -9.975 3.529 12.054 -13.031 30.518 -464.997 -644.880 -2939.885 -4.039 0.474 -1.160 -0.03 0.62 -0.78 0.07
1 6.92 692 1.781 -11.167 2.370 -44.861 7.751 16.022 -509.968 -674.860 -2819.963 -2.223 1.660 -0.034 -0.03 0.62 -0.78 0.07
1 6.93 693 0.125 -11.689 1.528 -37.903 22.766 -4.242 -389.896 -674.860 -2789.982 -0.587 2.167 0.745 -0.03 0.62 -0.78 0.07
1 6.94 694 -1.437 -11.991 1.350 -19.409 15.167 -25.147 -389.896 -674.860 -2789.982 0.983 2.457 0.874 -0.03 0.62 -0.78 0.07
1 6.95 695 -2.275 -11.694 2.337 -22.308 -8.362 -31.860 -524.958 -734.971 -2849.943 1.859 2.153 -0.137 -0.03 0.62 -0.78 0.07
1 6.96 696 -2.035 -11.646 2.840 -28.412 -16.846 -28.290 -449.857 -704.991 -2669.911 1.670 2.097 -0.666 -0.03 0.62 -0.78 0.07
1 6.97 697 -1.547 -11.593 2.787 -20.905 -18.616 -26.917 -449.857 -704.991 -2669.911 1.230 2.034 -0.651 -0.03 0.62 -0.78 0.07
1 6.98 698 -1.302 -11.358 2.840 2.167 -15.015 -25.543 -299.955 -734.971 -2774.992 1.079 1.787 -0.746 -0.04 0.63 -0.78 0.06
1 6.99 699 -1.571 -10.928 2.864 9.369 -14.557 -21.942 -449.857 -704.991 -2594.959 1.390 1.357 -0.761 -0.04 0.63 -0.78 0.06
1 7.00 700 -1.551 -10.401 2.830 9.491 -20.416 -20.477 -344.925 -659.870 -2729.872 1.408 0.834 -0.711 -0.04 0.62 -0.78 0.06
1 7.01 701 -1.413 -10.233 2.993 10.162 -33.783 -20.996 -344.925 -659.870 -2729.872 1.309 0.669 -0.858 -0.04 0.62 -0.78 0.06
1 7.02 702 -1.370 -10.133 3.347 14.099 -45.868 -14.313 -494.978 -629.890 -2804.973 1.298 0.574 -1.189 -0.05 0.62 -0.78 0.06
1 7.03 703 -1.154 -9.750 3.740 24.323 -56.091 3.601 -584.919 -719.981 -2639.930 1.107 0.198 -1.549 -0.05 0.62 -0.78 0.07
1 7.04 704 -0.857 -9.213 3.879 28.107 -61.035 17.548 -584.919 -719.981 -2639.930 0.819 -0.328 -1.644 -0.05 0.62 -0.78 0.07
1 7.05 705 0.048 -8.562 3.754 25.635 -69.397 26.245 -539.948 -569.929 -2759.852 -0.106 -0.954 -1.412 -0.06 0.61 -0.78 0.08
1 7.06 706 0.790 -8.476 3.812 23.590 -69.641 26.215 -584.919 -794.932 -2819.963 -0.860 -1.027 -1.419 -0.06 0.61 -0.78 0.08
1 7.07 707 1.446 -8.595 3.606 20.233 -64.514 27.283 -599.909 -629.890 -2849.943 -1.523 -0.895 -1.165 -0.06 0.61 -0.79 0.09
1 7.08 708 1.982 -8.500 3.534 14.252 -54.077 28.381 -599.909 -629.890 -2849.943 -2.065 -0.981 -1.053 -0.07 0.61 -0.79 0.09
1 7.09 709 2.356 -8.490 3.625 7.294 -43.549 25.391 -659.870 -794.932 -2894.914 -2.442 -0.982 -1.114 -0.07 0.61 -0.79 0.1
1 7.10 710 2.461 -8.816 3.299 -0.336 -29.968 18.707 -659.870 -644.880 -2714.881 -2.548 -0.651 -0.767 -0.07 0.6 -0.79 0.1
1 7.11 711 2.380 -9.180 3.007 1.770 -23.285 14.221 -659.870 -644.880 -2714.881 -2.464 -0.284 -0.464 -0.07 0.6 -0.79 0.1
1 7.12 712 2.212 -9.247 2.557 15.198 -16.144 6.042 -659.870 -524.958 -2714.881 -2.275 -0.210 0.013 -0.07 0.6 -0.79 0.1
1 7.13 713 1.915 -9.161 2.653 17.517 -14.252 4.120 -839.903 -719.981 -2759.852 -1.961 -0.289 -0.057 -0.08 0.6 -0.79 0.1
1 7.14 714 1.595 -8.787 2.677 15.564 -6.409 -0.610 -794.932 -674.860 -2789.982 -1.625 -0.655 -0.051 -0.08 0.6 -0.79 0.1
1 7.15 715 1.331 -9.050 2.586 10.162 -3.723 -4.486 -794.932 -674.860 -2789.982 -1.343 -0.384 0.064 -0.08 0.6 -0.79 0.1
1 7.16 716 1.159 -9.113 2.581 6.348 -2.838 -9.216 -690.000 -644.880 -2864.934 -1.149 -0.318 0.085 -0.08 0.6 -0.79 0.1
1 7.17 717 0.857 -9.386 2.639 7.141 -3.632 -14.771 -629.890 -659.870 -2804.973 -0.822 -0.042 0.038 -0.08 0.6 -0.79 0.1
1 7.18 718 0.848 -9.572 2.658 9.705 -4.730 -16.754 -629.890 -659.870 -2804.973 -0.783 0.148 0.030 -0.08 0.6 -0.79 0.1
1 7.19 719 0.603 -9.433 2.806 13.214 -5.859 -17.273 -674.860 -734.971 -2954.875 -0.506 0.014 -0.104 -0.08 0.6 -0.79 0.1
1 7.20 720 0.541 -9.438 2.437 15.137 -8.331 -15.472 -599.909 -809.922 -2729.872 -0.379 0.032 0.307 -0.08 0.59 -0.79 0.1
1 7.21 721 0.522 -9.165 2.346 13.733 -10.223 -13.611 -854.893 -779.942 -2909.904 -0.330 -0.234 0.419 -0.08 0.59 -0.79 0.1
1 7.22 722 0.555 -9.161 2.370 10.712 -10.864 -9.674 -854.893 -779.942 -2909.904 -0.338 -0.233 0.413 -0.09 0.59 -0.8 0.1
1 7.23 723 0.690 -9.122 2.117 4.974 -10.834 -5.890 -779.942 -779.942 -2909.904 -0.452 -0.267 0.680 -0.09 0.59 -0.8 0.1
1 7.24 724 0.905 -9.170 2.255 -2.228 -6.928 -1.740 -749.961 -809.922 -2954.875 -0.652 -0.218 0.544 -0.09 0.59 -0.8 0.1
1 7.25 725 1.111 -9.357 2.231 -3.693 -4.730 -0.824 -749.961 -809.922 -2954.875 -0.846 -0.032 0.565 -0.09 0.59 -0.8 0.1
1 7.26 726 1.302 -9.510 2.370 -0.549 -2.472 -0.336 -869.883 -719.981 -2789.982 -1.027 0.120 0.420 -0.09 0.59 -0.8 0.1
1 7.27 727 1.489 -9.654 2.184 7.904 1.801 0.336 -704.991 -884.874 -2729.872 -1.195 0.264 0.605 -0.09 0.59 -0.8 0.1
1 7.28 728 1.427 -9.362 2.064 13.153 3.296 -0.854 -704.991 -659.870 -2909.904 -1.125 -0.025 0.735 -0.09 0.59 -0.8 0.1
1 7.29 729 1.437 -9.338 1.820 17.090 4.700 -2.350 -704.991 -659.870 -2909.904 -1.125 -0.043 0.998 -0.09 0.59 -0.8 0.09
1 7.30 730 1.451 -9.117 1.743 17.609 4.242 -2.930 -899.864 -854.893 -3029.976 -1.128 -0.257 1.095 -0.09 0.59 -0.8 0.09
1 7.31 731 1.360 -8.993 1.719 16.296 5.280 -2.991 -704.991 -809.922 -2879.924 -1.025 -0.375 1.139 -0.09 0.59 -0.8 0.09
1 7.32 732 1.336 -9.012 1.676 13.702 8.087 -3.113 -704.991 -809.922 -2879.924 -0.989 -0.350 1.199 -0.09 0.59 -0.8 0.09
1 7.33 733 1.255 -8.979 1.743 13.825 12.116 -3.693 -690.000 -644.880 -2939.885 -0.897 -0.379 1.147 -0.09 0.59 -0.8 0.09
1 7.34 734 0.982 -8.998 1.733 15.656 19.592 -0.305 -779.942 -734.971 -2909.904 -0.610 -0.349 1.188 -0.09 0.59 -0.8 0.09
1 7.35 735 0.891 -8.935 1.662 17.548 23.468 2.167 -854.893 -854.893 -2849.943 -0.522 -0.406 1.278 -0.09 0.59 -0.8 0.09
1 7.36 736 0.742 -8.782 1.580 18.860 24.750 3.571 -854.893 -854.893 -2849.943 -0.382 -0.553 1.381 -0.09 0.58 -0.8 0.09
1 7.37 737 0.742 -8.725 1.580 19.775 24.902 5.096 -914.854 -839.903 -2789.982 -0.394 -0.604 1.403 -0.09 0.58 -0.8 0.09
1 7.38 738 0.627 -8.619 1.623 18.372 23.590 6.439 -734.971 -869.883 -2939.885 -0.294 -0.702 1.383 -0.08 0.58 -0.8 0.09
1 7.39 739 0.441 -8.648 1.585 12.634 20.996 8.362 -734.971 -869.883 -2939.885 -0.126 -0.665 1.450 -0.08 0.58 -0.8 0.09
1 7.40 740 0.407 -8.528 1.671 6.683 18.219 10.315 -869.883 -719.981 -2939.885 -0.113 -0.779 1.382 -0.08 0.58 -0.81 0.08
1 7.41 741 0.417 -8.849 1.662 -0.397 12.390 11.322 -869.883 -719.981 -2939.885 -0.143 -0.455 1.402 -0.08 0.58 -0.81 0.08
1 7.42 742 0.541 -9.060 1.944 -8.179 7.935 14.587 -690.000 -839.903 -2894.914 -0.308 -0.250 1.108 -0.08 0.58 -0.81 0.08
1 7.43 743 0.709 -9.031 2.045 -12.726 7.874 16.113 -690.000 -839.903 -2894.914 -0.498 -0.285 0.989 -0.08 0.58 -0.8 0.09
1 7.44 744 0.651 -9.022 2.217 -17.090 10.193 17.304 -674.860 -779.942 -3104.927 -0.463 -0.303 0.793 -0.07 0.58 -0.8 0.09
1 7.45 745 0.656 -9.189 2.356 -18.799 11.902 16.998 -614.899 -944.984 -2939.885 -0.492 -0.145 0.626 -0.07 0.59 -0.8 0.09
1 7.46 746 0.713 -9.242 2.212 -16.846 11.993 14.984 -614.899 -944.984 -2939.885 -0.574 -0.102 0.740 -0.07 0.59 -0.8 0.09
1 7.47 747 0.781 -9.462 2.121 -13.763 10.651 11.658 -584.919 -794.932 -2969.865 -0.663 0.110 0.805 -0.07 0.59 -0.8 0.09
1 7.48 748 0.996 -9.376 1.901 -10.162 11.749 13.733 -584.919 -794.932 -2969.865 -0.895 0.016 1.002 -0.07 0.59 -0.8 0.09
1 7.49 749 1.197 -9.424 1.499 -6.409 13.428 10.529 -749.961 -734.971 -3029.976 -1.124 0.053 1.368 -0.07 0.59 -0.8 0.09
1 7.50 750 1.427 -9.252 1.212 -4.334 16.022 10.468 -749.961 -734.971 -3029.976 -1.366 -0.124 1.640 -0.07 0.59 -0.8 0.08
1 7.51 751 1.676 -9.228 1.073 -2.747 20.203 8.057 -434.867 -869.883 -2969.865 -1.625 -0.153 1.764 -0.07 0.59 -0.8 0.08
1 7.52 752 1.422 -9.228 0.891 -2.441 25.055 7.507 -614.899 -644.880 -3119.917 -1.379 -0.157 1.933 -0.06 0.59 -0.8 0.08
1 7.53 753 1.355 -8.969 1.599 -5.249 30.060 7.080 -614.899 -644.880 -3119.917 -1.322 -0.419 1.211 -0.06 0.59 -0.8 0.08
1 7.54 754 0.939 -9.036 4.224 -37.079 39.795 -0.397 -599.909 -779.942 -2984.855 -0.917 -0.358 -1.434 -0.06 0.59 -0.8 0.08
1 7.55 755 0.220 -10.090 4.200 -62.744 45.838 -16.235 -599.909 -779.942 -2984.855 -0.206 0.684 -1.448 -0.06 0.6 -0.8 0.08
1 7.56 756 -0.646 -12.742 2.212 -52.338 32.044 -41.443 -494.978 -809.922 -2804.973 0.695 3.290 0.376 -0.06 0.6 -0.79 0.07
1 7.57 757 -0.852 -13.054 1.762 -9.644 15.381 -42.420 -494.978 -809.922 -2804.973 0.954 3.586 0.766 -0.06 0.61 -0.79 0.07
1 7.58 758 -1.212 -11.641 1.494 24.872 4.181 -36.316 -389.896 -674.860 -2969.865 1.370 2.175 1.037 -0.06 0.61 -0.79 0.06
1 7.59 759 -1.393 -10.425 2.050 24.353 1.892 -28.137 -419.876 -659.870 -2954.875 1.602 0.971 0.523 -0.06 0.6 -0.79 0.06
1 7.60 760 -1.259 -9.625 1.820 -2.289 7.446 -23.346 -419.876 -659.870 -2954.875 1.500 0.179 0.779 -0.06 0.6 -0.79 0.06
1 7.61 761 -0.546 -10.248 1.604 -36.347 9.644 -26.886 -329.935 -839.903 -2939.885 0.807 0.797 0.978 -0.06 0.6 -0.79 0.06
1 7.62 762 -0.115 -11.157 1.681 -40.741 7.294 -22.247 -329.935 -839.903 -2939.885 0.403 1.694 0.850 -0.06 0.61 -0.79 0.05
1 7.63 763 0.283 -11.938 1.863 -36.408 8.209 -11.231 -494.978 -659.870 -2909.904 0.035 2.460 0.608 -0.06 0.61 -0.79 0.05
1 7.64 764 0.948 -11.981 2.289 -31.677 7.477 2.014 -524.958 -734.971 -2879.924 -0.608 2.479 0.084 -0.06 0.61 -0.79 0.05
1 7.65 765 1.365 -11.718 2.682 -32.074 6.836 3.906 -434.867 -644.880 -2864.934 -1.030 2.204 -0.353 -0.06 0.61 -0.79 0.05
1 7.66 766 1.341 -11.828 3.318 -29.907 8.545 4.211 -690.000 -674.860 -2864.934 -1.013 2.303 -1.034 -0.06 0.62 -0.78 0.05
1 7.67 767 1.532 -11.569 3.620 -22.522 13.733 4.639 -690.000 -674.860 -2864.934 -1.214 2.035 -1.375 -0.06 0.62 -0.78 0.05
1 7.68 768 1.523 -11.402 3.951 -2.991 24.902 -0.977 -614.899 -599.909 -2759.852 -1.212 1.861 -1.731 -0.06 0.62 -0.78 0.05
1 7.69 769 1.082 -10.722 3.884 6.744 35.584 5.737 -614.899 -599.909 -2759.852 -0.777 1.180 -1.671 -0.06 0.62 -0.78 0.05
1 7.70 770 0.733 -9.807 3.884 8.057 38.818 5.493 -494.978 -704.991 -2729.872 -0.444 0.267 -1.661 -0.06 0.62 -0.78 0.05
1 7.71 771 0.627 -8.715 3.783 -3.601 36.560 -7.172 -494.978 -584.919 -2849.943 -0.369 -0.818 -1.525 -0.05 0.62 -0.78 0.04
1 7.72 772 0.316 -8.481 3.879 -13.031 39.887 -22.553 -494.978 -584.919 -2774.992 -0.050 -1.051 -1.615 -0.05 0.62 -0.78 0.04
1 7.73 773 -0.168 -8.543 3.754 -18.158 48.950 -31.983 -389.896 -494.978 -2759.852 0.458 -0.989 -1.495 -0.05 0.62 -0.78 0.04
1 7.74 774 -0.685 -8.873 3.424 -18.402 56.214 -37.964 -389.896 -494.978 -2759.852 1.006 -0.660 -1.174 -0.05 0.62 -0.78 0.03
1 7.75 775 -1.489 -9.161 3.026 -17.029 55.206 -42.725 -464.997 -524.958 -2759.852 1.844 -0.374 -0.788 -0.05 0.62 -0.78 0.03
1 7.76 776 -2.275 -9.802 2.777 -13.825 38.788 -42.267 -464.997 -524.958 -2759.852 2.664 0.266 -0.551 -0.04 0.62 -0.78 0.02
1 7.77 777 -2.442 -10.224 2.696 -11.688 25.757 -33.814 -509.968 -494.978 -2759.852 2.864 0.687 -0.481 -0.04 0.62 -0.78 0.02
1 7.78 778 -1.992 -10.339 2.619 -3.571 13.550 -19.287 -359.916 -494.978 -2894.914 2.459 0.799 -0.423 -0.04 0.62 -0.78 0.02
1 7.79 779 -1.518 -10.161 2.466 4.242 7.416 -18.951 -419.876 -434.867 -2774.992 2.010 0.623 -0.269 -0.04 0.62 -0.78 0.01
1 7.80 780 -1.073 -10.195 2.600 10.590 7.507 -14.679 -449.857 -389.896 -2699.891 1.577 0.660 -0.391 -0.04 0.62 -0.78 0.01
1 7.81 781 -1.240 -10.133 2.466 12.207 10.742 -7.568 -449.857 -389.896 -2699.891 1.749 0.603 -0.236 -0.04 0.62 -0.78 0.01
1 7.82 782 -1.398 -9.917 2.514 10.895 9.003 -0.793 -389.896 -449.857 -2864.934 1.901 0.393 -0.262 -0.04 0.62 -0.78 0.01
1 7.83 783 -1.724 -9.726 2.567 10.742 0.488 8.820 -389.896 -449.857 -2864.934 2.210 0.205 -0.295 -0.04 0.62 -0.78 0.01
1 7.84 784 -1.279 -9.812 2.485 14.374 -3.387 16.052 -434.867 -449.857 -2819.963 1.740 0.294 -0.196 -0.04 0.62 -0.79 0.01
1 7.85 785 -1.168 -9.620 2.500 18.768 -3.510 21.484 -449.857 -359.916 -2774.992 1.596 0.107 -0.187 -0.04 0.62 -0.79 0.01
1 7.86 786 -0.881 -9.314 2.236 21.881 -0.702 27.832 -524.958 -509.968 -2774.992 1.224 -0.188 0.137 -0.04 0.61 -0.79 0.02
1 7.87 787 -0.838 -8.849 1.978 18.707 0.549 30.548 -284.964 -524.958 -2939.885 1.130 -0.646 0.428 -0.04 0.61 -0.79 0.02
1 7.88 788 -0.809 -8.686 1.820 12.054 -0.580 30.029 -284.964 -524.958 -2939.885 1.049 -0.804 0.612 -0.03 0.61 -0.79 0.02
1 7.89 789 -0.503 -8.619 1.844 4.272 -3.418 26.367 -449.857 -509.968 -2804.973 0.695 -0.869 0.602 -0.03 0.61 -0.79 0.03
1 7.90 790 -0.498 -8.663 1.896 -1.678 -1.251 21.637 -449.857 -509.968 -2804.973 0.651 -0.825 0.552 -0.03 0.61 -0.79 0.03
1 7.91 791 -0.690 -8.811 1.858 -2.930 1.740 21.820 -344.925 -584.919 -2804.973 0.810 -0.678 0.589 -0.03 0.61 -0.79 0.03
1 7.92 792 -0.838 -8.983 1.714 -2.563 3.571 20.203 -434.867 -599.909 -3044.966 0.922 -0.507 0.728 -0.03 0.61 -0.79 0.03
1 7.93 793 -0.924 -9.084 1.595 1.801 3.021 18.799 -194.873 -359.916 -2774.992 0.935 -0.409 0.840 -0.03 0.61 -0.79 0.03
1 7.94 794 -1.159 -9.122 1.504 5.280 0.275 15.778 -329.935 -449.857 -2819.963 1.137 -0.370 0.933 -0.03 0.61 -0.79 0.03
1 7.95 795 -1.216 -9.103 1.504 8.850 -3.052 12.756 -329.935 -449.857 -2819.963 1.166 -0.388 0.938 -0.02 0.61 -0.79 0.04
1 7.96 796 -1.259 -8.998 1.413 10.498 -6.470 9.583 -209.863 -494.978 -2939.885 1.185 -0.490 1.039 -0.02 0.61 -0.79 0.04
1 7.97 797 -1.374 -9.141 1.580 10.010 -8.850 7.568 -209.863 -494.978 -2939.885 1.283 -0.344 0.882 -0.02 0.61 -0.79 0.04
1 7.98 798 -1.432 -9.050 1.346 9.674 -11.169 7.874 -284.964 -644.880 -2789.982 1.325 -0.432 1.128 -0.02 0.61 -0.79 0.04
1 7.99 799 -1.470 -9.127 1.427 12.482 -14.160 7.843 -284.964 -449.857 -2939.885 1.348 -0.352 1.056 -0.02 0.61 -0.79 0.04
1 8.00 800 -1.302 -8.696 1.116 18.158 -19.165 7.416 -344.925 -584.919 -2954.875 1.150 -0.775 1.397 -0.02 0.61 -0.79 0.04
1 8.01 801 -1.355 -8.754 1.106 21.210 -20.447 6.042 -284.964 -599.909 -2894.914 1.192 -0.712 1.427 -0.02 0.61 -0.79 0.04
1 8.02 802 -1.159 -8.476 0.977 21.881 -20.477 4.486 -284.964 -599.909 -2894.914 0.988 -0.983 1.581 -0.02 0.61 -0.79 0.05
1 8.03 803 -0.967 -8.356 0.867 19.592 -19.592 2.472 -269.974 -539.948 -2909.904 0.800 -1.093 1.725 -0.03 0.61 -0.79 0.05
1 8.04 804 -0.857 -8.179 0.982 14.710 -18.066 1.282 -269.974 -539.948 -2909.904 0.696 -1.263 1.639 -0.03 0.6 -0.79 0.05
1 8.05 805 -0.991 -8.294 1.240 2.136 -17.334 -1.526 -299.955 -659.870 -2984.855 0.837 -1.142 1.401 -0.03 0.6 -0.8 0.05
1 8.06 806 -0.900 -8.505 1.350 -3.082 -15.991 -1.953 -344.925 -539.948 -2984.855 0.755 -0.929 1.300 -0.03 0.6 -0.8 0.05
1 8.07 807 -0.905 -8.663 1.427 -6.256 -17.273 -2.136 -344.925 -539.948 -2984.855 0.771 -0.772 1.222 -0.03 0.6 -0.8 0.05
1 8.08 808 -0.996 -9.089 1.642 -7.874 -20.538 -4.395 -614.899 -524.958 -2864.934 0.883 -0.350 0.990 -0.03 0.6 -0.79 0.05
1 8.09 809 -0.915 -9.208 1.901 -6.592 -21.545 -5.493 -614.899 -524.958 -2864.934 0.811 -0.235 0.717 -0.03 0.6 -0.79 0.05
1 8.10 810 -0.905 -9.261 2.002 -4.486 -22.247 -6.012 -389.896 -569.929 -3014.986 0.814 -0.185 0.605 -0.03 0.6 -0.79 0.05
1 8.11 811 -0.752 -9.256 1.877 -2.350 -22.980 -7.538 -389.896 -569.929 -3014.986 0.673 -0.192 0.723 -0.04 0.6 -0.79 0.05
1 8.12 812 -0.819 -8.849 1.695 -2.228 -25.055 -7.538 -464.997 -674.860 -2894.914 0.755 -0.601 0.900 -0.04 0.61 -0.79 0.05
1 8.13 813 -0.809 -8.701 1.288 -6.836 -27.313 -7.233 -374.906 -434.867 -2879.924 0.760 -0.750 1.303 -0.04 0.61 -0.79 0.06
1 8.14 814 -0.713 -8.710 1.408 -13.458 -28.565 -6.317 -374.906 -434.867 -2879.924 0.681 -0.744 1.172 -0.04 0.61 -0.79 0.06
1 8.15 815 -0.690 -8.931 3.405 -34.393 -24.933 -4.242 -509.968 -644.880 -2819.963 0.689 -0.539 -0.881 -0.05 0.61 -0.79 0.06
1 8.16 816 -0.374 -10.090 4.779 -63.385 -22.583 4.791 -509.968 -644.880 -2819.963 0.382 0.606 -2.309 -0.05 0.61 -0.79 0.06
1 8.17 817 0.101 -12.364 4.305 -86.029 -25.086 26.001 -569.929 -704.991 -3029.976 -0.100 2.856 -1.930 -0.05 0.61 -0.79 0.06
1 8.18 818 0.493 -13.944 3.079 -72.998 -23.712 40.344 -569.929 -704.991 -3029.976 -0.527 4.406 -0.828 -0.05 0.62 -0.78 0.06
1 8.19 819 0.809 -13.264 2.480 -12.909 -23.682 34.485 -569.929 -509.968 -2984.855 -0.892 3.707 -0.315 -0.05 0.62 -0.78 0.07
1 8.20 820 1.614 -10.803 2.955 36.926 -27.649 29.327 -569.929 -464.997 -2909.904 -1.736 1.247 -0.785 -0.05 0.62 -0.78 0.07
1 8.21 821 2.351 -9.841 3.213 1.709 -26.917 25.208 -569.929 -464.997 -2909.904 -2.506 0.297 -0.990 -0.05 0.62 -0.78 0.07
1 8.22 822 1.566 -11.301 2.658 -47.821 -4.730 15.076 -509.968 -524.958 -2789.982 -1.748 1.755 -0.450 -0.05 0.62 -0.78 0.08
1 8.23 823 0.125 -11.962 1.935 -33.539 13.580 13.001 -509.968 -524.958 -2789.982 -0.329 2.401 0.207 -0.05 0.62 -0.78 0.08
1 8.24 824 -0.948 -11.713 1.590 -8.209 7.629 -2.960 -524.958 -509.968 -2849.943 0.727 2.144 0.515 -0.05 0.62 -0.78 0.08
1 8.25 825 -1.240 -11.282 2.150 1.312 -8.667 -12.756 -524.958 -509.968 -2849.943 1.029 1.712 -0.050 -0.05 0.62 -0.78 0.08
1 8.26 826 -1.116 -10.971 2.567 -5.737 -15.106 -11.139 -509.968 -524.958 -2894.914 0.928 1.401 -0.465 -0.05 0.62 -0.78 0.08
1 8.27 827 -0.383 -10.913 2.528 -9.064 -9.827 -11.322 -494.978 -434.867 -2954.875 0.216 1.341 -0.435 -0.05 0.62 -0.78 0.08
1 8.28 828 -0.575 -10.971 2.538 -3.479 -2.380 -7.446 -494.978 -434.867 -2954.875 0.429 1.395 -0.457 -0.05 0.63 -0.77 0.08
1 8.29 829 -0.953 -10.741 2.543 -0.427 1.190 -3.510 -539.948 -419.876 -2864.934 0.822 1.164 -0.467 -0.05 0.63 -0.77 0.08
1 8.30 830 -1.255 -10.439 2.643 -1.556 -7.935 -0.763 -374.906 -509.968 -2729.872 1.135 0.862 -0.567 -0.05 0.63 -0.77 0.08
1 8.31 831 -1.092 -10.305 2.916 0.885 -22.614 -2.655 -584.919 -299.955 -2939.885 0.979 0.728 -0.839 -0.05 0.63 -0.77 0.08
1 8.32 832 -0.934 -10.176 3.275 7.629 -33.264 -1.953 -584.919 -299.955 -2939.885 0.831 0.601 -1.190 -0.06 0.62 -0.77 0.08
1 8.33 833 -0.656 -9.869 3.429 13.916 -37.811 7.324 -509.968 -374.906 -2819.963 0.563 0.299 -1.323 -0.06 0.62 -0.78 0.08
1 8.34 834 -0.168 -9.357 3.457 16.724 -44.708 20.447 -569.929 -314.945 -2774.992 0.072 -0.207 -1.323 -0.06 0.62 -0.78 0.08
1 8.35 835 0.632 -9.003 3.342 16.632 -49.072 21.576 -569.929 -314.945 -2774.992 -0.741 -0.553 -1.171 -0.06 0.62 -0.78 0.08
1 8.36 836 1.077 -8.945 3.400 16.022 -48.371 21.576 -524.958 -434.867 -2909.904 -1.200 -0.602 -1.192 -0.06 0.62 -0.78 0.09
1 8.37 837 1.815 -8.840 3.328 15.411 -37.354 19.684 -464.997 -299.955 -2864.934 -1.948 -0.690 -1.048 -0.07 0.62 -0.78 0.09
1 8.38 838 1.887 -8.720 3.266 9.857 -27.222 19.409 -704.991 -539.948 -2849.943 -2.021 -0.802 -0.953 -0.07 0.61 -0.78 0.1
1 8.39 839 2.169 -8.825 3.151 4.791 -17.914 14.801 -704.991 -539.948 -2849.943 -2.305 -0.691 -0.815 -0.07 0.61 -0.78 0.1
1 8.40 840 1.762 -8.907 3.137 3.052 -11.383 10.193 -629.890 -359.916 -2954.875 -1.894 -0.606 -0.785 -0.07 0.61 -0.78 0.1
1 8.41 841 1.528 -8.897 2.998 5.798 -6.958 6.409 -464.997 -494.978 -2819.963 -1.652 -0.612 -0.631 -0.07 0.61 -0.78 0.1
1 8.42 842 1.097 -9.199 3.050 7.477 -5.798 -0.336 -464.997 -494.978 -2819.963 -1.212 -0.306 -0.667 -0.07 0.61 -0.78 0.1
1 8.43 843 0.934 -9.261 2.955 7.263 -5.585 -3.662 -584.919 -569.929 -2939.885 -1.037 -0.240 -0.554 -0.07 0.61 -0.78 0.1
1 8.44 844 0.958 -9.352 2.959 12.299 -3.784 -8.331 -524.958 -584.919 -2954.875 -1.025 -0.140 -0.521 -0.07 0.61 -0.78 0.1
1 8.45 845 0.958 -9.347 2.978 14.587 -1.129 -11.292 -749.961 -389.896 -2849.943 -1.002 -0.138 -0.515 -0.07 0.61 -0.78 0.1
1 8.46 846 1.015 -9.175 3.065 14.862 0.305 -15.106 -749.961 -389.896 -2849.943 -1.032 -0.303 -0.574 -0.07 0.61 -0.79 0.1
1 8.47 847 0.967 -9.237 2.959 13.153 1.373 -19.043 -614.899 -599.909 -3014.986 -0.953 -0.234 -0.441 -0.07 0.61 -0.79 0.1
1 8.48 848 0.608 -9.371 2.974 10.986 2.441 -22.949 -629.890 -539.948 -2909.904 -0.556 -0.093 -0.431 -0.07 0.6 -0.79 0.09
1 8.49 849 0.565 -9.462 2.710 10.376 1.953 -22.095 -629.890 -539.948 -2909.904 -0.474 0.004 -0.147 -0.08 0.6 -0.79 0.09
1 8.50 850 0.168 -9.477 2.447 10.284 -0.885 -21.118 -779.942 -539.948 -2909.904 -0.040 0.024 0.134 -0.08 0.6 -0.79 0.09
1 8.51 851 0.306 -9.501 2.500 8.911 -5.341 -18.005 -779.942 -464.997 -2984.855 -0.145 0.053 0.099 -0.08 0.6 -0.79 0.09
1 8.52 852 0.249 -9.457 2.471 3.998 -8.942 -8.911 -629.890 -389.896 -2954.875 -0.034 0.017 0.152 -0.08 0.6 -0.79 0.09
1 8.53 853 0.642 -9.448 2.452 1.343 -9.766 -5.280 -629.890 -389.896 -2954.875 -0.410 0.009 0.175 -0.08 0.6 -0.79 0.09
1 8.54 854 0.804 -9.481 2.643 1.465 -8.240 -2.411 -794.932 -449.857 -2969.865 -0.559 0.044 -0.014 -0.08 0.6 -0.79 0.09
1 8.55 855 1.030 -9.510 2.662 3.998 -3.448 0.763 -629.890 -509.968 -2879.924 -0.774 0.074 -0.029 -0.08 0.6 -0.79 0.09
1 8.56 856 1.178 -9.419 2.533 8.789 1.343 3.296 -629.890 -509.968 -2879.924 -0.917 -0.015 0.108 -0.08 0.6 -0.79 0.09
1 8.57 857 1.135 -9.481 2.303 12.543 2.563 2.136 -779.942 -464.997 -3029.976 -0.871 0.051 0.351 -0.08 0.6 -0.79 0.09
1 8.58 858 1.020 -9.338 2.155 14.862 2.563 2.594 -614.899 -494.978 -3014.986 -0.752 -0.087 0.517 -0.08 0.6 -0.79 0.09
1 8.59 859 0.867 -9.089 2.150 16.235 0.977 1.709 -629.890 -434.867 -3029.976 -0.592 -0.324 0.563 -0.08 0.6 -0.79 0.09
1 8.60 860 1.053 -8.988 2.002 16.388 -0.153 0.610 -629.890 -434.867 -3029.976 -0.776 -0.418 0.733 -0.08 0.59 -0.8 0.09
1 8.61 861 1.140 -9.031 2.011 16.205 -0.519 -0.092 -674.860 -434.867 -2954.875 -0.856 -0.369 0.745 -0.08 0.59 -0.8 0.09
1 8.62 862 1.144 -9.031 1.978 15.472 3.357 1.007 -614.899 -524.958 -3014.986 -0.853 -0.363 0.799 -0.08 0.59 -0.8 0.09
1 8.63 863 1.135 -9.050 2.073 14.282 7.446 1.709 -614.899 -524.958 -3014.986 -0.838 -0.338 0.723 -0.08 0.59 -0.8 0.08
1 8.64 864 0.943 -9.132 2.030 15.533 14.038 1.648 -704.991 -509.968 -3029.976 -0.645 -0.251 0.784 -0.08 0.59 -0.8 0.08
1 8.65 865 0.857 -9.180 1.891 16.449 17.059 3.662 -824.913 -509.968 -3104.927 -0.560 -0.197 0.942 -0.08 0.59 -0.8 0.08
1 8.66 866 0.623 -9.161 1.738 20.935 17.670 4.883 -659.870 -494.978 -3074.947 -0.341 -0.203 1.139 -0.08 0.59 -0.8 0.08
1 8.67 867 0.570 -9.223 1.599 23.041 15.717 5.402 -659.870 -494.978 -3074.947 -0.299 -0.133 1.304 -0.08 0.59 -0.8 0.08
1 8.68 868 0.464 -8.926 1.408 22.125 13.825 7.355 -614.899 -449.857 -3044.966 -0.205 -0.422 1.522 -0.08 0.59 -0.8 0.08
1 8.69 869 0.532 -8.950 1.374 19.409 12.939 9.766 -690.000 -569.929 -2969.865 -0.286 -0.391 1.579 -0.07 0.59 -0.8 0.08
1 8.70 870 0.469 -8.725 1.465 13.763 10.834 11.169 -690.000 -569.929 -2969.865 -0.240 -0.611 1.507 -0.07 0.59 -0.8 0.08
1 8.71 871 0.354 -8.816 1.413 2.441 8.728 14.557 -764.952 -599.909 -3014.986 -0.143 -0.517 1.569 -0.07 0.59 -0.8 0.08
1 8.72 872 0.345 -8.873 1.384 -3.540 8.087 16.632 -584.919 -569.929 -3224.999 -0.156 -0.460 1.597 -0.07 0.59 -0.8 0.08
1 8.73 873 0.498 -8.907 1.590 -6.012 7.324 19.104 -584.919 -569.929 -3224.999 -0.333 -0.431 1.381 -0.07 0.59 -0.8 0.08
1 8.74 874 0.623 -8.926 1.681 -6.653 7.721 19.348 -690.000 -494.978 -3074.947 -0.511 -0.423 1.258 -0.07 0.59 -0.8 0.08
1 8.75 875 0.623 -8.964 1.801 -5.188 8.423 18.646 -614.899 -674.860 -3194.869 -0.538 -0.389 1.122 -0.07 0.59 -0.8 0.08
1 8.76 876 0.666 -9.094 1.676 -5.676 8.637 19.318 -614.899 -524.958 -3194.869 -0.606 -0.264 1.234 -0.07 0.59 -0.8 0.08
1 8.77 877 0.646 -9.132 1.686 -5.676 8.575 18.799 -614.899 -524.958 -3194.869 -0.613 -0.230 1.211 -0.06 0.59 -0.8 0.08
1 8.78 878 0.943 -9.218 1.475 -5.432 9.033 15.930 -359.916 -719.981 -3194.869 -0.934 -0.149 1.407 -0.06 0.59 -0.8 0.08
1 8.79 879 0.948 -9.261 1.528 -3.754 10.925 16.510 -419.876 -659.870 -3134.908 -0.958 -0.110 1.341 -0.06 0.59 -0.8 0.08
1 8.80 880 1.030 -9.218 1.235 -1.495 14.984 15.289 -419.876 -659.870 -3134.908 -1.059 -0.157 1.620 -0.06 0.59 -0.8 0.08
1 8.81 881 1.058 -9.094 1.097 1.282 18.982 14.404 -359.916 -524.958 -3149.898 -1.127 -0.287 1.739 -0.06 0.59 -0.8 0.08
1 8.82 882 1.173 -9.213 1.188 1.740 22.705 16.052 -524.958 -539.948 -3239.989 -1.261 -0.170 1.640 -0.06 0.59 -0.8 0.08
1 8.83 883 1.164 -8.691 2.586 -5.646 26.978 15.717 -374.906 -584.919 -3134.908 -1.274 -0.694 0.234 -0.05 0.59 -0.8 0.08
1 8.84 884 1.044 -8.495 4.688 -27.618 34.638 11.169 -374.906 -584.919 -3134.908 -1.177 -0.895 -1.885 -0.05 0.6 -0.8 0.08
1 8.85 885 0.163 -9.050 4.645 -52.857 42.633 -4.608 -284.964 -599.909 -3074.947 -0.312 -0.350 -1.879 -0.05 0.6 -0.8 0.08
1 8.86 886 -1.006 -12.038 2.509 -58.563 30.518 -40.985 -329.935 -524.958 -3194.869 0.860 2.619 0.191 -0.05 0.6 -0.8 0.08
1 8.87 887 -1.331 -12.618 1.791 -22.949 12.848 -41.870 -329.935 -524.958 -3194.869 1.225 3.174 0.826 -0.05 0.6 -0.79 0.07
1 8.88 888 -1.829 -10.631 3.012 21.881 -7.233 -34.577 -224.854 -629.890 -3059.957 1.835 1.177 -0.429 -0.05 0.6 -0.79 0.06
1 8.89 889 -2.073 -9.831 4.037 -2.930 -6.012 -34.210 -419.876 -584.919 -3104.927 2.133 0.386 -1.425 -0.05 0.6 -0.79 0.06
1 8.90 890 -2.006 -10.080 3.261 -45.105 -0.946 -42.145 -359.916 -449.857 -3074.947 2.120 0.630 -0.668 -0.05 0.6 -0.79 0.06
1 8.91 891 -1.671 -11.464 1.585 -51.819 -4.791 -45.990 -359.916 -449.857 -3074.947 1.834 1.997 0.945 -0.05 0.61 -0.79 0.06
1 8.92 892 -1.111 -12.479 0.555 -23.865 -12.970 -37.476 -449.857 -434.867 -3104.927 1.342 2.997 1.909 -0.06 0.61 -0.79 0.06
1 8.93 893 -0.306 -11.909 1.264 3.967 -15.167 -8.698 -509.968 -524.958 -2969.865 0.593 2.423 1.178 -0.06 0.61 -0.79 0.05
1 8.94 894 0.393 -11.047 2.265 -18.189 -10.345 2.167 -509.968 -524.958 -2969.865 -0.080 1.563 0.183 -0.06 0.61 -0.79 0.05
1 8.95 895 0.996 -10.980 2.595 -45.288 -7.446 3.693 -419.876 -389.896 -2954.875 -0.678 1.492 -0.163 -0.06 0.61 -0.79 0.05
1 8.96 896 1.480 -11.986 2.897 -41.290 -3.906 1.984 -494.978 -509.968 -3059.957 -1.163 2.466 -0.592 -0.06 0.62 -0.78 0.05
1 8.97 897 1.542 -12.216 3.046 -12.787 0.824 4.211 -584.919 -494.978 -2939.885 -1.226 2.684 -0.789 -0.06 0.62 -0.78 0.05
1 8.98 898 1.422 -11.593 3.160 10.468 7.477 7.202 -584.919 -494.978 -2939.885 -1.114 2.060 -0.910 -0.06 0.62 -0.78 0.05
1 8.99 899 1.197 -10.688 3.256 17.487 10.132 6.256 -464.997 -329.935 -3014.986 -0.901 1.160 -0.984 -0.06 0.62 -0.78 0.05
1 9.00 900 0.939 -9.927 3.654 5.157 13.489 9.674 -524.958 -314.945 -2984.855 -0.653 0.404 -1.356 -0.06 0.62 -0.78 0.05
1 9.01 901 0.704 -9.630 3.644 -5.768 17.273 14.191 -524.958 -314.945 -2984.855 -0.431 0.111 -1.329 -0.06 0.62 -0.78 0.05
1 9.02 902 0.374 -9.524 3.816 -10.742 20.752 16.785 -464.997 -419.876 -2894.914 -0.121 0.007 -1.494 -0.06 0.61 -0.78 0.05
1 9.03 903 0.374 -9.113 3.927 -7.599 21.759 7.660 -659.870 -299.955 -2939.885 -0.173 -0.407 -1.607 -0.05 0.62 -0.78 0.05
1 9.04 904 0.172 -8.816 4.161 -2.380 25.421 -2.289 -569.929 -464.997 -3104.927 0.015 -0.702 -1.835 -0.05 0.62 -0.78 0.05
1 9.05 905 -0.139 -8.399 4.152 -0.824 32.318 -10.010 -569.929 -464.997 -3104.927 0.325 -1.115 -1.811 -0.05 0.61 -0.79 0.05
1 9.06 906 -0.431 -8.452 3.903 -4.364 37.750 -14.557 -389.896 -449.857 -2819.963 0.620 -1.059 -1.547 -0.05 0.61 -0.79 0.05
1 9.07 907 -0.943 -8.256 3.515 -9.918 38.330 -18.860 -494.978 -239.994 -2984.855 1.139 -1.253 -1.150 -0.05 0.61 -0.79 0.05
1 9.08 908 -1.508 -8.782 3.189 -11.963 31.830 -22.217 -494.978 -239.994 -2984.855 1.713 -0.726 -0.825 -0.05 0.61 -0.79 0.04
1 9.09 909 -1.781 -9.098 2.916 -10.223 26.856 -21.240 -299.955 -389.896 -3029.976 1.996 -0.411 -0.559 -0.05 0.61 -0.79 0.04
1 9.10 910 -1.700 -9.563 2.696 -6.317 17.151 -16.083 -344.925 -314.945 -3059.957 1.929 0.050 -0.350 -0.04 0.62 -0.79 0.04
1 9.11 911 -1.676 -9.759 2.528 -2.045 11.200 -13.672 -434.867 -254.984 -3044.966 1.908 0.246 -0.185 -0.04 0.62 -0.79 0.04
1 9.12 912 -1.489 -9.625 2.423 3.082 7.477 -10.803 -434.867 -254.984 -3044.966 1.722 0.113 -0.076 -0.04 0.62 -0.79 0.03
1 9.13 913 -1.144 -9.620 2.294 7.050 3.784 -11.658 -374.906 -239.994 -2909.904 1.380 0.110 0.062 -0.04 0.61 -0.79 0.03
1 9.14 914 -1.178 -9.711 2.389 8.972 1.526 -9.094 -359.916 -449.857 -3194.869 1.419 0.205 -0.021 -0.04 0.61 -0.79 0.03
1 9.15 915 -1.034 -9.826 2.591 7.904 1.068 -2.777 -359.916 -449.857 -3194.869 1.277 0.323 -0.207 -0.04 0.61 -0.79 0.03
1 9.16 916 -1.092 -9.769 2.739 6.653 0.397 2.533 -449.857 -314.945 -2879.924 1.330 0.269 -0.342 -0.04 0.61 -0.79 0.03
1 9.17 917 -0.982 -9.778 2.639 9.827 1.099 6.928 -449.857 -314.945 -2879.924 1.209 0.282 -0.228 -0.04 0.61 -0.79 0.03
1 9.18 918 -0.781 -9.548 2.600 15.930 1.953 13.855 -494.978 -314.945 -3104.927 0.967 0.061 -0.151 -0.04 0.61 -0.79 0.04
1 9.19 919 -0.776 -9.376 2.571 17.761 3.235 16.174 -494.978 -314.945 -3104.927 0.934 -0.105 -0.095 -0.04 0.61 -0.79 0.04
1 9.20 920 -0.824 -9.194 2.447 15.747 5.615 17.822 -539.948 -299.955 -3074.947 0.951 -0.280 0.057 -0.04 0.61 -0.79 0.04
1 9.21 921 -0.833 -9.122 2.279 11.749 5.127 16.602 -434.867 -329.935 -3119.917 0.927 -0.346 0.248 -0.04 0.61 -0.79 0.04
1 9.22 922 -0.943 -9.098 2.126 7.904 4.547 10.742 -434.867 -329.935 -3119.917 1.006 -0.365 0.418 -0.04 0.61 -0.79 0.04
1 9.23 923 -1.207 -9.237 1.987 8.118 5.859 9.460 -299.955 -209.863 -3029.976 1.246 -0.223 0.569 -0.03 0.61 -0.79 0.04
1 9.24 924 -1.226 -9.275 1.939 8.637 6.500 10.651 -299.955 -209.863 -3029.976 1.242 -0.182 0.628 -0.03 0.61 -0.79 0.04
1 9.25 925 -1.207 -9.400 1.714 8.209 2.808 9.033 -344.925 -389.896 -3134.908 1.174 -0.052 0.873 -0.03 0.61 -0.79 0.04
1 9.26 926 -1.202 -9.534 1.719 8.240 1.038 9.369 -344.925 -389.896 -3134.908 1.147 0.084 0.876 -0.03 0.61 -0.79 0.04
1 9.27 927 -1.020 -9.625 1.566 11.383 -1.709 9.308 -359.916 -449.857 -3074.947 0.943 0.177 1.037 -0.03 0.61 -0.79 0.04
1 9.28 928 -1.039 -9.596 1.331 16.266 -3.204 9.613 -464.997 -524.958 -3254.979 0.944 0.152 1.284 -0.03 0.6 -0.79 0.05
1 9.29 929 -0.876 -9.400 1.374 19.196 -4.944 8.545 -464.997 -524.958 -3254.979 0.763 -0.039 1.259 -0.03 0.6 -0.8 0.05
1 9.30 930 -0.742 -9.352 1.336 18.799 -6.348 7.721 -254.984 -374.906 -3194.869 0.615 -0.081 1.318 -0.03 0.6 -0.8 0.05
1 9.31 931 -0.963 -9.132 1.326 17.151 -7.050 5.707 -254.984 -374.906 -3194.869 0.822 -0.295 1.348 -0.03 0.6 -0.8 0.05
1 9.32 932 -0.819 -9.189 1.168 18.433 -8.820 3.998 -299.955 -539.948 -3104.927 0.659 -0.227 1.542 -0.03 0.6 -0.8 0.05
1 9.33 933 -0.848 -9.007 0.996 21.668 -9.979 4.913 -299.955 -539.948 -3104.927 0.682 -0.403 1.734 -0.03 0.6 -0.8 0.05
1 9.34 934 -0.785 -8.720 0.895 24.628 -11.871 3.662 -344.925 -584.919 -3134.908 0.615 -0.684 1.858 -0.03 0.6 -0.8 0.05
1 9.35 935 -0.781 -8.370 0.852 26.184 -14.710 1.495 -344.925 -539.948 -3284.960 0.609 -1.023 1.934 -0.03 0.6 -0.8 0.05
1 9.36 936 -0.824 -8.155 0.728 25.513 -14.710 1.648 -344.925 -539.948 -3284.960 0.658 -1.227 2.099 -0.03 0.6 -0.8 0.05
1 9.37 937 -0.733 -7.882 1.001 20.630 -12.726 -0.763 -464.997 -449.857 -3299.950 0.573 -1.489 1.864 -0.03 0.59 -0.8 0.05
1 9.38 938 -0.747 -7.992 0.929 14.587 -9.186 0.641 -464.997 -449.857 -3299.950 0.595 -1.368 1.969 -0.03 0.59 -0.8 0.05
1 9.39 939 -0.939 -7.906 0.982 8.026 -5.463 1.648 -434.867 -449.857 -3194.869 0.793 -1.447 1.942 -0.03 0.59 -0.8 0.05
1 9.40 940 -0.982 -8.375 1.063 -1.343 -6.744 -3.235 -419.876 -584.919 -3284.960 0.843 -0.971 1.882 -0.03 0.59 -0.8 0.05
1 9.41 941 -1.092 -8.600 1.106 -6.195 -8.362 -3.021 -419.876 -509.968 -3314.940 0.961 -0.746 1.837 -0.03 0.59 -0.8 0.05
1 9.42 942 -0.939 -8.672 1.030 -8.514 -11.231 -3.540 -329.935 -329.935 -3299.950 0.817 -0.677 1.906 -0.03 0.59 -0.8 0.05
1 9.43 943 -0.886 -8.926 1.039 -7.568 -14.496 -5.768 -329.935 -329.935 -3299.950 0.777 -0.426 1.887 -0.03 0.59 -0.8 0.05
1 9.44 944 -0.795 -8.725 0.771 -3.693 -16.968 -9.277 -269.974 -389.896 -3284.960 0.697 -0.634 2.136 -0.03 0.59 -0.8 0.05
1 9.45 945 -1.020 -8.629 0.623 -3.754 -21.607 -14.008 -269.974 -389.896 -3284.960 0.938 -0.734 2.269 -0.04 0.59 -0.8 0.06
1 9.46 946 -0.963 -8.457 1.159 -11.231 -25.269 -13.886 -344.925 -629.890 -3284.960 0.909 -0.908 1.729 -0.04 0.59 -0.8 0.05
1 9.47 947 -0.579 -8.437 4.089 -48.920 -20.203 -9.277 -344.925 -584.919 -3389.892 0.588 -0.941 -1.248 -0.04 0.59 -0.8 0.05
1 9.48 948 -0.081 -9.999 4.870 -82.520 -20.081 2.197 -389.896 -524.958 -3224.999 0.104 0.598 -2.100 -0.04 0.6 -0.8 0.06
1 9.49 949 0.388 -12.206 4.607 -106.995 -23.499 21.576 -509.968 -494.978 -3194.869 -0.367 2.771 -1.958 -0.04 0.6 -0.79 0.06
1 9.50 950 1.058 -13.935 4.051 -90.454 -21.973 33.539 -509.968 -494.978 -3194.869 -1.063 4.458 -1.555 -0.04 0.61 -0.79 0.06
1 9.51 951 1.168 -14.093 3.299 -40.527 -21.942 39.276 -374.906 -464.997 -3209.859 -1.215 4.587 -0.917 -0.04 0.61 -0.79 0.06
1 9.52 952 2.136 -11.598 3.424 22.705 -22.919 43.183 -374.906 -464.997 -3209.859 -2.231 2.083 -1.078 -0.04 0.62 -0.78 0.06
1 9.53 953 2.797 -10.118 3.266 12.390 -17.090 39.551 -509.968 -419.876 -3224.999 -2.945 0.611 -0.893 -0.04 0.61 -0.79 0.07
1 9.54 954 2.006 -10.401 2.773 -43.183 0.458 20.111 -509.968 -374.906 -3194.869 -2.235 0.897 -0.391 -0.04 0.61 -0.78 0.07
1 9.55 955 0.153 -11.799 2.265 -54.749 20.905 14.801 -359.916 -299.955 -3224.999 -0.410 2.279 0.048 -0.04 0.62 -0.78 0.07
1 9.56 956 -1.298 -12.398 1.925 -41.992 20.844 2.014 -359.916 -224.854 -3149.898 1.017 2.861 0.313 -0.04 0.62 -0.78 0.07
1 9.57 957 -1.801 -12.570 2.528 -21.759 5.371 -12.878 -359.916 -224.854 -3149.898 1.518 3.021 -0.343 -0.04 0.62 -0.78 0.07
1 9.58 958 -1.987 -12.216 2.931 -9.857 -5.249 -16.419 -344.925 -239.994 -3029.976 1.726 2.660 -0.771 -0.04 0.62 -0.78 0.07
1 9.59 959 -1.647 -11.493 3.031 -3.113 -4.578 -18.219 -344.925 -239.994 -3029.976 1.414 1.934 -0.882 -0.04 0.62 -0.78 0.07
1 9.60 960 -1.729 -11.325 2.911 0.824 -2.655 -16.388 -434.867 -299.955 -3044.966 1.525 1.765 -0.766 -0.04 0.62 -0.78 0.07
1 9.61 961 -1.652 -11.066 2.935 5.005 -5.219 -10.437 -434.867 -374.906 -3119.917 1.475 1.506 -0.788 -0.04 0.62 -0.78 0.07
1 9.62 962 -1.101 -10.473 3.204 14.771 -21.576 -13.336 -284.964 -179.883 -3119.917 0.965 0.917 -1.033 -0.04 0.62 -0.78 0.07
1 9.63 963 -0.771 -9.841 3.500 17.120 -35.401 -11.719 -419.876 -284.964 -3209.859 0.664 0.291 -1.304 -0.05 0.62 -0.78 0.07
1 9.64 964 -0.747 -9.778 3.989 18.372 -39.948 -2.808 -419.876 -284.964 -3209.859 0.664 0.236 -1.756 -0.05 0.62 -0.78 0.07
1 9.65 965 -0.565 -9.338 3.826 20.508 -40.955 14.496 -524.958 -239.994 -3164.888 0.490 -0.195 -1.553 -0.05 0.62 -0.78 0.07
1 9.66 966 0.034 -8.859 3.529 29.419 -52.826 27.283 -524.958 -239.994 -3164.888 -0.122 -0.662 -1.210 -0.05 0.62 -0.78 0.07
1 9.67 967 0.848 -8.466 3.453 35.584 -55.420 28.748 -464.997 -224.854 -3044.966 -0.956 -1.042 -1.081 -0.05 0.61 -0.78 0.08
1 9.68 968 1.221 -8.188 3.453 32.623 -50.507 27.344 -449.857 -209.863 -3239.989 -1.347 -1.304 -1.018 -0.05 0.61 -0.79 0.08
1 9.69 969 1.896 -7.920 3.314 13.886 -33.234 21.698 -569.929 -389.896 -3209.859 -2.040 -1.543 -0.770 -0.06 0.61 -0.79 0.09
1 9.70 970 1.844 -8.160 3.275 -1.740 -22.858 15.045 -539.948 -299.955 -3194.869 -1.997 -1.297 -0.710 -0.06 0.6 -0.79 0.09
1 9.71 971 1.844 -8.734 3.002 -8.331 -16.968 9.277 -539.948 -299.955 -3194.869 -1.991 -0.722 -0.433 -0.06 0.6 -0.79 0.09
1 9.72 972 1.422 -9.184 2.830 -8.148 -11.231 7.843 -614.899 -419.876 -3254.979 -1.559 -0.273 -0.266 -0.06 0.6 -0.79 0.09
1 9.73 973 1.504 -9.496 2.873 -4.181 -8.179 6.042 -614.899 -419.876 -3254.979 -1.634 0.037 -0.314 -0.06 0.6 -0.79 0.09
1 9.74 974 1.413 -9.371 2.868 4.639 -5.524 1.129 -539.948 -329.935 -3299.950 -1.534 -0.088 -0.308 -0.06 0.6 -0.79 0.09
1 9.75 975 1.288 -9.333 2.916 8.362 -3.021 -5.493 -569.929 -284.964 -3134.908 -1.397 -0.124 -0.347 -0.06 0.6 -0.79 0.09
1 9.76 976 1.106 -9.443 2.777 13.367 1.343 -12.726 -569.929 -359.916 -3239.989 -1.169 -0.004 -0.172 -0.06 0.6 -0.79 0.09
1 9.77 977 0.939 -9.410 2.571 15.991 1.587 -15.717 -539.948 -254.984 -3254.979 -0.972 -0.031 0.058 -0.07 0.6 -0.79 0.09
1 9.78 978 0.761 -9.410 2.524 19.348 1.526 -17.944 -539.948 -254.984 -3254.979 -0.763 -0.024 0.132 -0.07 0.6 -0.79 0.09
1 9.79 979 0.603 -9.376 2.466 20.813 -1.190 -20.508 -524.958 -284.964 -3314.940 -0.572 -0.049 0.220 -0.07 0.6 -0.79 0.09
1 9.80 980 0.431 -9.343 2.308 19.470 -2.563 -18.799 -524.958 -284.964 -3314.940 -0.364 -0.073 0.409 -0.07 0.6 -0.79 0.08
1 9.81 981 0.254 -9.304 2.222 14.862 -6.805 -16.510 -704.991 -389.896 -3164.888 -0.155 -0.104 0.521 -0.07 0.6 -0.8 0.08
1 9.82 982 0.259 -9.395 2.045 12.726 -9.552 -13.214 -690.000 -374.906 -3329.931 -0.130 -0.006 0.719 -0.07 0.6 -0.8 0.08
1 9.83 983 0.144 -9.242 1.877 9.369 -10.803 -8.057 -690.000 -374.906 -3329.931 0.010 -0.154 0.904 -0.07 0.59 -0.8 0.08
1 9.84 984 0.570 -9.098 1.801 2.838 -10.620 -3.235 -509.968 -419.876 -3194.869 -0.382 -0.292 0.996 -0.07 0.59 -0.8 0.08
1 9.85 985 0.656 -9.184 1.911 -1.129 -6.989 1.526 -509.968 -419.876 -3194.869 -0.457 -0.207 0.884 -0.07 0.59 -0.8 0.08
1 9.86 986 0.886 -9.256 1.968 -2.930 -3.418 5.615 -599.909 -359.916 -3389.892 -0.683 -0.136 0.821 -0.07 0.59 -0.8 0.08
1 9.87 987 1.058 -9.290 2.026 -2.258 -0.061 7.233 -599.909 -359.916 -3389.892 -0.856 -0.105 0.756 -0.07 0.59 -0.8 0.08
1 9.88 988 1.183 -9.352 2.040 5.920 1.770 5.707 -659.870 -329.935 -3254.979 -0.984 -0.044 0.736 -0.07 0.59 -0.8 0.08
1 9.89 989 1.336 -9.429 1.877 12.665 3.754 5.157 -449.857 -389.896 -3569.924 -1.139 0.033 0.902 -0.07 0.59 -0.8 0.08
1 9.90 990 1.283 -9.151 1.772 17.487 4.730 4.639 -449.857 -389.896 -3569.924 -1.085 -0.241 1.020 -0.07 0.59 -0.8 0.08
1 9.91 991 1.221 -8.974 1.580 19.013 4.517 0.793 -659.870 -449.857 -3254.979 -1.019 -0.405 1.253 -0.07 0.59 -0.8 0.08
1 9.92 992 1.111 -8.873 1.484 17.120 5.829 -0.366 -659.870 -449.857 -3254.979 -0.903 -0.500 1.370 -0.07 0.59 -0.8 0.08
1 9.93 993 1.082 -8.849 1.489 15.991 7.874 -2.655 -629.890 -434.867 -3314.940 -0.868 -0.518 1.383 -0.07 0.59 -0.8 0.08
1 9.94 994 0.929 -9.285 1.633 15.381 11.932 -1.312 -629.890 -434.867 -3314.940 -0.707 -0.077 1.256 -0.07 0.59 -0.8 0.08
1 9.95 995 0.771 -9.156 1.666 18.219 17.242 2.289 -539.948 -374.906 -3374.901 -0.547 -0.201 1.240 -0.07 0.59 -0.8 0.08
1 9.96 996 0.613 -8.974 1.633 23.041 21.668 4.425 -734.971 -449.857 -3374.901 -0.396 -0.376 1.296 -0.07 0.59 -0.8 0.08
1 9.97 997 0.484 -8.945 1.614 23.712 22.217 6.073 -734.971 -449.857 -3374.901 -0.278 -0.397 1.341 -0.07 0.59 -0.8 0.08
1 9.98 998 0.321 -8.864 1.480 23.377 19.653 6.226 -584.919 -524.958 -3479.983 -0.145 -0.461 1.530 -0.06 0.59 -0.81 0.07
1 9.99 999 0.330 -8.739 1.604 22.186 16.663 8.423 -584.919 -524.958 -3479.983 -0.170 -0.577 1.432 -0.06 0.58 -0.81 0.07
1 10.00 1000 0.479 -8.739 1.523 18.250 14.099 10.193 -690.000 -374.906 -3404.882 -0.337 -0.570 1.538 -0.06 0.58 -0.81 0.07
