COL1	TIME	ACC_X	ACC_Y	ACC_Z	GYR_X	GYR_Y	GYR_Z	MAG_X	MAG_Y	MAG_Z	LACC_X	LACC_Y	LACC_Z	QUAT_X	QUAT_Y	QUAT_Z	QUAT_W
1 0.00 0 -0.005 -9.821 -0.450 -0.336 0.336 1.068 1309.097 4566.025 -2041.370 -0.074 0.028 0.090 -0.19 -0.69 0.67 0.18
1 0.01 1 -0.043 -9.850 -0.460 -1.617 -0.061 1.312 1309.097 4566.025 -2041.370 -0.035 0.057 0.099 -0.19 -0.69 0.67 0.18
1 0.02 2 -0.034 -9.917 -0.474 -1.617 -0.488 1.221 1294.107 4506.064 -2026.380 -0.045 0.124 0.113 -0.19 -0.69 0.67 0.18
1 0.03 3 -0.172 -9.855 -0.426 -1.495 -0.854 0.519 1279.117 4461.094 -2011.240 0.094 0.062 0.065 -0.19 -0.69 0.67 0.18
1 0.04 4 -0.048 -9.793 -0.421 0.244 -1.160 0.916 1234.146 4461.094 -2011.240 -0.030 -0.000 0.060 -0.19 -0.69 0.67 0.18
1 0.05 5 -0.024 -9.855 -0.364 0.427 -0.732 0.641 1234.146 4461.094 -2011.240 -0.054 0.062 0.004 -0.19 -0.69 0.67 0.18
1 0.06 6 -0.129 -9.850 -0.460 0.244 -0.793 0.977 1384.048 4446.104 -1996.250 0.052 0.057 0.101 -0.19 -0.69 0.67 0.18
1 0.07 7 -0.091 -9.788 -0.417 -0.214 -1.251 1.099 1279.117 4461.094 -1861.337 0.013 -0.005 0.059 -0.19 -0.69 0.67 0.18
1 0.08 8 -0.034 -9.927 -0.316 -0.824 -0.549 1.434 1279.117 4461.094 -1861.337 -0.045 0.134 -0.041 -0.19 -0.69 0.67 0.18
1 0.09 9 -0.072 -9.908 -0.551 0.214 0.031 1.587 1219.156 4506.064 -2026.380 -0.006 0.114 0.193 -0.19 -0.69 0.67 0.18
1 0.10 10 0.005 -9.893 -0.350 0.122 -0.183 1.740 1309.097 4461.094 -1936.289 -0.084 0.100 -0.007 -0.19 -0.69 0.67 0.18
1 0.11 11 -0.120 -9.797 -0.436 -1.068 -0.214 1.312 1219.156 4401.133 -1951.279 0.041 0.004 0.081 -0.19 -0.69 0.67 0.18
1 0.12 12 -0.244 -9.932 -0.479 -1.770 -0.763 1.526 1219.156 4401.133 -1951.279 0.164 0.138 0.123 -0.19 -0.69 0.67 0.18
1 0.13 13 -0.081 -9.869 -0.436 -1.068 -0.336 0.763 1324.087 4536.045 -1951.279 0.001 0.076 0.080 -0.19 -0.69 0.67 0.18
1 0.14 14 -0.148 -9.788 -0.378 -1.190 -1.160 1.007 1294.107 4446.104 -1876.328 0.068 -0.005 0.021 -0.19 -0.69 0.67 0.18
1 0.15 15 -0.225 -9.826 -0.397 -0.641 -0.977 1.160 1294.107 4446.104 -1876.328 0.144 0.033 0.040 -0.19 -0.69 0.67 0.18
1 0.16 16 -0.029 -9.836 -0.450 -1.343 -0.824 1.648 1279.117 4566.025 -1966.269 -0.053 0.043 0.093 -0.19 -0.69 0.67 0.18
1 0.17 17 -0.057 -9.965 -0.340 -1.038 -1.007 1.587 1249.136 4476.084 -1921.298 -0.024 0.172 -0.018 -0.19 -0.69 0.67 0.18
1 0.18 18 -0.077 -9.898 -0.345 -0.702 0.031 1.984 1249.136 4446.104 -1951.279 -0.005 0.105 -0.013 -0.19 -0.69 0.67 0.18
1 0.19 19 0.000 -10.013 -0.445 -0.092 0.336 2.075 1249.136 4446.104 -1951.279 -0.082 0.220 0.087 -0.19 -0.69 0.67 0.18
1 0.20 20 -0.086 -9.831 -0.479 -1.190 -0.244 2.258 1309.097 4386.143 -1936.289 0.003 0.038 0.122 -0.19 -0.69 0.67 0.18
1 0.21 21 -0.129 -9.864 -0.359 -2.380 -0.122 1.770 1294.107 4506.064 -1951.279 0.045 0.071 0.003 -0.19 -0.69 0.67 0.18
1 0.22 22 -0.105 -9.812 -0.302 -2.411 0.763 1.770 1294.107 4506.064 -1951.279 0.020 0.019 -0.059 -0.19 -0.69 0.67 0.18
1 0.23 23 -0.010 -9.845 -0.335 -1.373 0.397 1.617 1249.136 4506.064 -2026.380 -0.077 0.052 -0.027 -0.19 -0.69 0.67 0.18
1 0.24 24 -0.163 -9.778 -0.441 -0.824 0.000 1.068 1219.156 4536.045 -1951.279 0.076 -0.015 0.078 -0.19 -0.69 0.67 0.18
1 0.25 25 -0.086 -9.716 -0.402 0.366 -0.183 0.305 1279.117 4341.022 -2011.240 -0.001 -0.077 0.039 -0.19 -0.69 0.67 0.18
1 0.26 26 -0.081 -9.898 -0.455 0.244 -0.305 0.214 1279.117 4341.022 -2011.240 -0.004 0.105 0.093 -0.19 -0.69 0.67 0.18
1 0.27 27 -0.148 -9.836 -0.374 0.824 -0.153 0.732 1309.097 4386.143 -1966.269 0.064 0.043 0.014 -0.19 -0.69 0.67 0.18
1 0.28 28 -0.196 -9.936 -0.594 0.549 -0.824 0.854 1279.117 4491.074 -2041.370 0.112 0.143 0.238 -0.19 -0.69 0.67 0.18
1 0.29 29 -0.038 -9.831 -0.393 0.458 -0.305 0.732 1279.117 4491.074 -2041.370 -0.046 0.038 0.038 -0.19 -0.69 0.67 0.18
1 0.30 30 -0.172 -9.807 -0.393 0.427 0.000 1.007 1279.117 4386.143 -2011.240 0.088 0.014 0.041 -0.19 -0.69 0.67 0.18
1 0.31 31 -0.110 -9.855 -0.306 0.275 -0.092 1.404 1249.136 4476.084 -1996.250 0.025 0.062 -0.045 -0.19 -0.69 0.67 0.18
1 0.32 32 -0.086 -9.917 -0.402 -0.610 -0.092 1.587 1279.117 4566.025 -1936.289 0.000 0.124 0.053 -0.19 -0.69 0.67 0.18
1 0.33 33 -0.014 -9.836 -0.441 -1.556 -0.122 1.495 1279.117 4566.025 -1936.289 -0.071 0.042 0.091 -0.19 -0.69 0.67 0.18
1 0.34 34 -0.091 -9.841 -0.345 -2.014 -0.793 1.038 1204.016 4491.074 -2041.370 0.006 0.047 -0.006 -0.19 -0.69 0.67 0.18
1 0.35 35 -0.081 -9.932 -0.426 -1.190 -0.732 1.526 1309.097 4491.074 -2011.240 -0.004 0.138 0.074 -0.19 -0.69 0.67 0.18
1 0.36 36 -0.139 -9.793 -0.383 -1.038 -0.824 2.441 1309.097 4491.074 -2011.240 0.054 -0.001 0.031 -0.19 -0.69 0.67 0.18
1 0.37 37 -0.153 -9.941 -0.354 -1.221 -0.549 1.892 1279.117 4416.123 -1936.289 0.067 0.148 0.002 -0.19 -0.69 0.67 0.18
1 0.38 38 -0.115 -9.888 -0.464 -1.221 -0.732 1.495 1234.146 4461.094 -1966.269 0.028 0.095 0.112 -0.19 -0.69 0.67 0.18
1 0.39 39 -0.091 -9.917 -0.359 -0.519 -0.580 2.045 1234.146 4461.094 -1966.269 0.003 0.124 0.008 -0.19 -0.69 0.67 0.18
1 0.40 40 -0.086 -9.821 -0.421 -0.977 -1.007 2.350 1354.068 4446.104 -2071.351 -0.002 0.028 0.071 -0.19 -0.69 0.67 0.18
1 0.41 41 -0.043 -9.841 -0.369 -1.465 -1.282 1.923 1279.117 4461.094 -2011.240 -0.046 0.047 0.018 -0.19 -0.69 0.67 0.18
1 0.42 42 -0.283 -9.888 -0.297 -2.716 -1.648 1.984 1279.117 4386.143 -1861.337 0.193 0.095 -0.053 -0.19 -0.69 0.67 0.18
1 0.43 43 -0.283 -9.788 -0.302 -2.563 -1.343 1.251 1279.117 4386.143 -1861.337 0.190 -0.005 -0.051 -0.19 -0.69 0.67 0.18
1 0.44 44 -0.120 -9.807 -0.383 -1.465 -1.617 1.648 1219.156 4506.064 -1921.298 0.027 0.014 0.030 -0.19 -0.69 0.67 0.18
1 0.45 45 -0.038 -9.917 -0.364 -0.275 -1.068 0.214 1294.107 4536.045 -1876.328 -0.055 0.124 0.010 -0.19 -0.69 0.67 0.18
1 0.46 46 -0.053 -9.927 -0.412 1.007 -0.732 1.160 1294.107 4536.045 -1876.328 -0.040 0.134 0.059 -0.19 -0.69 0.67 0.18
1 0.47 47 -0.144 -9.970 -0.421 0.824 -0.488 0.916 1294.107 4536.045 -1846.347 0.051 0.177 0.071 -0.19 -0.69 0.67 0.18
1 0.48 48 -0.120 -9.860 -0.417 -0.488 -0.549 1.862 1129.064 4491.074 -2011.240 0.027 0.066 0.069 -0.19 -0.69 0.67 0.18
1 0.49 49 -0.081 -10.022 -0.407 -0.092 0.214 1.709 1219.156 4476.084 -2026.380 -0.012 0.229 0.060 -0.19 -0.69 0.67 0.18
1 0.50 50 -0.057 -10.037 -0.369 0.427 0.244 2.075 1219.156 4476.084 -2026.380 -0.036 0.243 0.023 -0.19 -0.69 0.67 0.18
1 0.51 51 -0.105 -10.008 -0.374 -0.092 0.488 1.984 1339.078 4521.055 -1936.289 0.010 0.215 0.031 -0.19 -0.69 0.67 0.18
1 0.52 52 -0.125 -9.869 -0.426 -0.793 -0.275 1.038 1294.107 4476.084 -1921.298 0.028 0.076 0.086 -0.19 -0.69 0.67 0.18
1 0.53 53 -0.182 -9.960 -0.460 -1.373 -1.099 0.946 1294.107 4476.084 -1921.298 0.086 0.167 0.119 -0.19 -0.69 0.67 0.18
1 0.54 54 -0.081 -9.692 -0.436 -1.068 -0.732 1.312 1204.016 4491.074 -1966.269 -0.015 -0.101 0.095 -0.19 -0.69 0.67 0.18
1 0.55 55 -0.101 -9.888 -0.397 0.061 -0.336 1.190 1279.117 4461.094 -1831.357 0.004 0.095 0.055 -0.19 -0.69 0.67 0.18
1 0.56 56 -0.163 -9.908 -0.397 0.519 -0.214 0.824 1159.045 4521.055 -2041.370 0.066 0.114 0.056 -0.19 -0.69 0.67 0.18
1 0.57 57 -0.177 -9.927 -0.335 1.038 -0.671 0.275 1159.045 4521.055 -2041.370 0.081 0.133 -0.004 -0.19 -0.69 0.67 0.18
1 0.58 58 -0.120 -9.951 -0.469 0.092 -0.092 0.763 1339.078 4461.094 -2086.341 0.024 0.157 0.136 -0.19 -0.69 0.67 0.18
1 0.59 59 -0.148 -9.979 -0.374 0.183 -0.549 0.641 1369.058 4566.025 -2116.321 0.054 0.186 0.041 -0.19 -0.69 0.67 0.18
1 0.60 60 -0.072 -9.917 -0.407 -0.244 -0.183 0.885 1369.058 4566.025 -2116.321 -0.023 0.123 0.075 -0.19 -0.69 0.67 0.18
1 0.61 61 0.000 -9.903 -0.340 -0.580 -0.122 0.854 1309.097 4521.055 -2011.240 -0.094 0.109 0.008 -0.19 -0.69 0.67 0.18
1 0.62 62 -0.101 -9.812 -0.335 -0.824 -0.702 0.671 1339.078 4521.055 -1906.308 0.007 0.018 0.003 -0.19 -0.69 0.67 0.18
1 0.63 63 -0.072 -9.836 -0.393 -0.763 -0.580 1.343 1324.087 4446.104 -1996.250 -0.022 0.042 0.060 -0.19 -0.69 0.67 0.18
1 0.64 64 -0.115 -9.912 -0.292 -0.580 -0.122 1.770 1324.087 4446.104 -1996.250 0.021 0.118 -0.040 -0.19 -0.69 0.67 0.18
1 0.65 65 -0.120 -9.884 -0.450 -0.153 -0.061 0.610 1384.048 4476.084 -1846.347 0.026 0.090 0.118 -0.19 -0.69 0.67 0.18
1 0.66 66 -0.215 -9.773 -0.469 0.092 -0.824 0.366 1249.136 4581.016 -1951.279 0.121 -0.020 0.136 -0.19 -0.69 0.67 0.18
1 0.67 67 -0.187 -9.951 -0.469 0.244 -0.977 0.488 1249.136 4581.016 -1951.279 0.093 0.157 0.138 -0.19 -0.69 0.67 0.18
1 0.68 68 -0.110 -9.888 -0.479 0.183 -1.343 0.793 1354.068 4506.064 -1951.279 0.016 0.094 0.149 -0.19 -0.69 0.67 0.18
1 0.69 69 -0.168 -9.888 -0.364 0.336 -1.099 1.160 1339.078 4491.074 -1936.289 0.073 0.094 0.034 -0.19 -0.69 0.67 0.18
1 0.70 70 -0.163 -9.946 -0.335 -0.824 -2.380 1.221 1294.107 4401.133 -2131.312 0.068 0.152 0.006 -0.19 -0.69 0.67 0.18
1 0.71 71 -0.144 -9.917 -0.316 -0.977 -2.136 1.038 1294.107 4401.133 -2131.312 0.048 0.123 -0.013 -0.19 -0.69 0.67 0.18
1 0.72 72 -0.067 -9.879 -0.354 -0.977 -2.533 0.885 1249.136 4476.084 -1996.250 -0.029 0.085 0.026 -0.19 -0.69 0.67 0.18
1 0.73 73 0.019 -9.845 -0.378 -0.671 -1.770 1.434 1354.068 4446.104 -1876.328 -0.114 0.051 0.050 -0.19 -0.69 0.67 0.18
1 0.74 74 0.010 -9.745 -0.421 -0.946 -1.617 1.648 1354.068 4446.104 -1876.328 -0.104 -0.049 0.093 -0.19 -0.69 0.67 0.18
1 0.75 75 -0.053 -9.836 -0.383 -0.732 -0.580 1.434 1144.055 4326.032 -2101.331 -0.041 0.042 0.054 -0.19 -0.69 0.67 0.18
1 0.76 76 0.067 -9.807 -0.306 -0.092 -0.366 1.282 1279.117 4461.094 -1936.289 -0.161 0.013 -0.023 -0.19 -0.69 0.67 0.18
1 0.77 77 -0.057 -9.773 -0.397 0.549 -0.153 0.244 1339.078 4491.074 -1936.289 -0.035 -0.021 0.069 -0.19 -0.69 0.67 0.18
1 0.78 78 -0.153 -9.773 -0.393 0.580 -0.275 0.427 1339.078 4491.074 -1936.289 0.061 -0.021 0.066 -0.19 -0.69 0.67 0.18
1 0.79 79 -0.096 -9.869 -0.316 0.183 -0.153 0.183 1204.016 4416.123 -2011.240 0.004 0.075 -0.008 -0.19 -0.69 0.67 0.18
1 0.80 80 -0.168 -9.965 -0.330 -1.160 -0.763 0.977 1309.097 4341.022 -1936.289 0.077 0.171 0.009 -0.19 -0.69 0.67 0.18
1 0.81 81 -0.081 -9.831 -0.330 -1.434 -1.251 0.702 1309.097 4341.022 -1936.289 -0.010 0.037 0.009 -0.19 -0.69 0.67 0.18
1 0.82 82 -0.010 -9.975 -0.350 -1.617 -1.495 1.282 1354.068 4476.084 -1921.298 -0.082 0.180 0.028 -0.19 -0.69 0.67 0.18
1 0.83 83 -0.110 -9.884 -0.335 -1.648 -0.916 2.350 1354.068 4476.084 -1921.298 0.020 0.089 0.013 -0.19 -0.69 0.67 0.18
1 0.84 84 -0.148 -9.836 -0.421 -1.160 -0.061 1.648 1354.068 4281.061 -1921.298 0.057 0.041 0.099 -0.19 -0.69 0.67 0.18
1 0.85 85 -0.072 -9.769 -0.421 -1.221 -0.366 0.427 1354.068 4281.061 -1921.298 -0.020 -0.026 0.098 -0.19 -0.69 0.67 0.18
1 0.86 86 -0.101 -9.807 -0.359 0.275 0.793 -0.031 1399.039 4521.055 -2041.370 0.009 0.013 0.036 -0.19 -0.69 0.67 0.18
1 0.87 87 0.029 -9.812 -0.359 1.160 0.244 -0.732 1309.097 4416.123 -2011.240 -0.117 0.017 0.039 -0.19 -0.69 0.67 0.18
1 0.88 88 -0.283 -9.702 -0.345 1.801 -0.336 -1.038 1309.097 4416.123 -2011.240 0.198 -0.093 0.028 -0.19 -0.69 0.67 0.18
1 0.89 89 -0.192 -9.893 -0.283 0.824 -0.458 -0.946 1294.107 4446.104 -1951.279 0.109 0.099 -0.031 -0.19 -0.69 0.67 0.18
1 0.90 90 -0.105 -9.975 -0.359 -0.305 -1.068 -0.366 1294.107 4446.104 -1951.279 0.025 0.180 0.049 -0.19 -0.69 0.67 0.18
1 0.91 91 0.048 -9.989 -0.350 -0.458 -1.221 1.556 1234.146 4416.123 -2116.321 -0.127 0.194 0.039 -0.19 -0.69 0.67 0.18
1 0.92 92 -0.053 -9.879 -0.311 -1.251 -1.129 2.350 1234.146 4416.123 -2116.321 -0.026 0.084 0.001 -0.19 -0.69 0.67 0.18
1 0.93 93 -0.086 -9.951 -0.393 -2.197 -1.984 2.258 1354.068 4536.045 -2071.351 0.007 0.156 0.082 -0.19 -0.69 0.67 0.18
1 0.94 94 -0.153 -9.975 -0.388 -2.350 -1.251 2.502 1324.087 4506.064 -1876.328 0.072 0.180 0.076 -0.19 -0.69 0.67 0.18
1 0.95 95 -0.038 -9.874 -0.359 -2.014 -0.671 2.197 1324.087 4506.064 -1876.328 -0.048 0.080 0.043 -0.19 -0.69 0.67 0.18
1 0.96 96 -0.129 -9.836 -0.316 -1.343 -0.549 1.343 1204.016 4461.094 -1966.269 0.043 0.041 -0.002 -0.19 -0.69 0.67 0.18
1 0.97 97 -0.163 -9.888 -0.321 -0.458 -0.946 1.221 1204.016 4461.094 -1966.269 0.076 0.094 0.003 -0.19 -0.69 0.67 0.18
1 0.98 98 -0.144 -9.860 -0.239 -0.031 -0.885 0.397 1249.136 4446.104 -1951.279 0.057 0.065 -0.078 -0.19 -0.69 0.67 0.18
1 0.99 99 -0.072 -9.874 -0.359 0.275 -1.068 -0.427 1249.136 4446.104 -1951.279 -0.014 0.080 0.043 -0.19 -0.69 0.67 0.18
1 1.00 100 -0.105 -9.845 -0.330 0.488 -1.251 0.366 1399.039 4461.094 -1966.269 0.021 0.051 0.016 -0.19 -0.69 0.67 0.18
1 1.01 101 -0.120 -9.965 -0.383 0.793 -0.824 0.031 1234.146 4341.022 -1936.289 0.037 0.170 0.071 -0.19 -0.69 0.67 0.18
1 1.02 102 -0.129 -9.869 -0.359 0.366 -0.702 -0.580 1234.146 4341.022 -1936.289 0.050 0.074 0.051 -0.19 -0.69 0.67 0.18
1 1.03 103 -0.134 -9.884 -0.364 0.092 -0.458 0.244 1309.097 4521.055 -2011.240 0.057 0.089 0.058 -0.19 -0.69 0.67 0.18
1 1.04 104 0.077 -9.989 -0.326 0.061 -0.488 0.305 1309.097 4521.055 -2011.240 -0.154 0.194 0.021 -0.19 -0.69 0.67 0.18
1 1.05 105 -0.081 -9.903 -0.350 -0.305 -0.763 0.702 1309.097 4386.143 -2011.240 0.006 0.108 0.046 -0.19 -0.69 0.67 0.18
1 1.06 106 -0.053 -9.975 -0.326 -1.038 -0.916 1.434 1294.107 4446.104 -1951.279 -0.023 0.180 0.022 -0.19 -0.69 0.67 0.18
1 1.07 107 -0.038 -9.893 -0.321 -1.221 -0.549 1.343 1294.107 4371.152 -1951.279 -0.038 0.098 0.018 -0.19 -0.69 0.67 0.18
1 1.08 108 -0.158 -9.817 -0.187 -1.160 -0.610 1.740 1279.117 4386.143 -1936.289 0.082 0.022 -0.116 -0.19 -0.69 0.67 0.18
1 1.09 109 -0.120 -9.884 -0.345 -0.519 -0.977 1.190 1279.117 4386.143 -1936.289 0.044 0.089 0.042 -0.19 -0.69 0.67 0.18
1 1.10 110 -0.172 -9.927 -0.417 -1.068 -0.732 1.587 1369.058 4461.094 -1936.289 0.097 0.132 0.113 -0.19 -0.69 0.67 0.18
1 1.11 111 -0.005 -9.773 -0.369 -1.099 -0.458 1.099 1369.058 4461.094 -1936.289 -0.071 -0.022 0.066 -0.19 -0.69 0.67 0.18
1 1.12 112 -0.115 -9.855 -0.393 -0.824 -0.031 1.312 1204.016 4596.156 -1966.269 0.040 0.060 0.089 -0.19 -0.69 0.67 0.18
1 1.13 113 0.062 -9.831 -0.249 -0.885 -0.153 1.343 1159.045 4461.094 -1936.289 -0.138 0.036 -0.055 -0.19 -0.69 0.67 0.18
1 1.14 114 -0.120 -9.841 -0.297 -0.702 0.000 0.061 1204.016 4491.074 -2011.240 0.044 0.046 -0.007 -0.19 -0.69 0.67 0.18
1 1.15 115 -0.125 -9.845 -0.297 0.000 -0.153 -0.275 1354.068 4371.152 -1876.328 0.049 0.050 -0.007 -0.19 -0.69 0.67 0.18
1 1.16 116 -0.014 -9.793 -0.402 -0.214 -0.610 0.000 1354.068 4371.152 -1876.328 -0.061 -0.002 0.101 -0.19 -0.69 0.67 0.18
1 1.17 117 -0.101 -9.879 -0.378 -0.397 -0.122 0.305 1249.136 4476.084 -1876.328 0.026 0.084 0.077 -0.19 -0.69 0.67 0.18
1 1.18 118 -0.239 -9.821 -0.388 -1.709 -2.197 0.519 1249.136 4476.084 -1876.328 0.165 0.026 0.086 -0.19 -0.69 0.67 0.18
1 1.19 119 -0.115 -10.027 -0.407 -1.404 -1.648 0.153 1339.078 4491.074 -1936.289 0.041 0.232 0.104 -0.19 -0.69 0.67 0.18
1 1.20 120 -0.105 -9.999 -0.249 -1.831 -1.129 0.549 1234.146 4416.123 -1936.289 0.031 0.204 -0.055 -0.19 -0.69 0.67 0.18
1 1.21 121 -0.129 -9.927 -0.402 -1.404 -0.793 0.793 1174.035 4476.084 -1921.298 0.055 0.132 0.099 -0.19 -0.69 0.67 0.18
1 1.22 122 -0.014 -9.946 -0.302 -1.160 -0.946 1.099 1384.048 4446.104 -2071.351 -0.059 0.151 -0.003 -0.19 -0.69 0.67 0.18
1 1.23 123 0.038 -9.932 -0.354 -0.946 -1.312 1.495 1384.048 4446.104 -2071.351 -0.113 0.137 0.049 -0.19 -0.69 0.67 0.18
1 1.24 124 -0.086 -9.965 -0.283 -1.556 -1.526 1.129 1339.078 4416.123 -1966.269 0.012 0.170 -0.023 -0.19 -0.69 0.67 0.18
1 1.25 125 -0.048 -9.908 -0.345 -1.953 -1.709 0.977 1339.078 4416.123 -1966.269 -0.027 0.113 0.039 -0.19 -0.69 0.67 0.18
1 1.26 126 -0.024 -9.908 -0.383 -2.197 -1.740 1.129 1159.045 4461.094 -2041.370 -0.051 0.113 0.077 -0.19 -0.69 0.67 0.18
1 1.27 127 0.034 -9.970 -0.326 -2.075 -1.495 1.251 1399.039 4416.123 -1936.289 -0.108 0.175 0.018 -0.19 -0.69 0.67 0.18
1 1.28 128 -0.038 -9.778 -0.397 -1.892 -0.580 0.824 1294.107 4401.133 -2026.380 -0.036 -0.017 0.090 -0.19 -0.69 0.67 0.18
1 1.29 129 -0.211 -9.860 -0.316 -1.892 0.061 1.312 1309.097 4416.123 -1936.289 0.137 0.065 0.008 -0.19 -0.69 0.67 0.18
1 1.30 130 -0.110 -9.879 -0.306 -1.923 0.061 1.160 1309.097 4416.123 -1936.289 0.036 0.084 -0.002 -0.19 -0.69 0.67 0.18
1 1.31 131 -0.096 -9.711 -0.326 -2.045 -1.556 0.092 1204.016 4491.074 -1906.308 0.020 -0.084 0.017 -0.19 -0.69 0.67 0.18
1 1.32 132 -0.206 -9.946 -0.340 -2.106 -2.563 0.092 1204.016 4491.074 -1906.308 0.131 0.151 0.029 -0.19 -0.69 0.67 0.18
1 1.33 133 -0.144 -9.984 -0.345 -2.228 -1.862 0.061 1309.097 4416.123 -2116.321 0.068 0.189 0.032 -0.19 -0.69 0.67 0.18
1 1.34 134 -0.201 -9.797 -0.397 -1.740 -1.953 0.397 1159.045 4521.055 -1861.337 0.126 0.003 0.084 -0.19 -0.69 0.67 0.18
1 1.35 135 -0.254 -9.922 -0.383 -1.160 -2.167 0.244 1249.136 4506.064 -1996.250 0.178 0.127 0.068 -0.19 -0.69 0.67 0.18
1 1.36 136 -0.220 -9.903 -0.584 0.061 -3.784 0.366 1249.136 4476.084 -1996.250 0.144 0.108 0.269 -0.19 -0.69 0.67 0.18
1 1.37 137 -0.220 -9.802 -0.666 2.014 -5.188 0.214 1249.136 4476.084 -1996.250 0.143 0.008 0.350 -0.19 -0.69 0.67 0.18
1 1.38 138 -0.187 -10.032 -0.555 3.845 -5.829 0.885 1279.117 4521.055 -1966.269 0.109 0.237 0.242 -0.19 -0.69 0.67 0.18
1 1.39 139 -0.148 -9.917 -0.412 4.791 -4.150 2.350 1279.117 4521.055 -1966.269 0.066 0.122 0.110 -0.19 -0.69 0.67 0.18
1 1.40 140 -0.254 -9.874 -0.417 4.730 -3.021 1.892 1339.078 4341.022 -1966.269 0.169 0.079 0.122 -0.19 -0.69 0.67 0.18
1 1.41 141 -0.302 -10.056 -0.417 5.676 -1.617 0.671 1309.097 4491.074 -1906.308 0.215 0.261 0.130 -0.19 -0.69 0.67 0.18
1 1.42 142 -0.340 -10.204 -0.287 6.287 0.549 1.495 1144.055 4536.045 -2071.351 0.253 0.409 0.010 -0.19 -0.69 0.67 0.18
1 1.43 143 -0.407 -10.334 -0.412 6.592 2.106 1.892 1174.035 4401.133 -1876.328 0.317 0.538 0.146 -0.19 -0.69 0.67 0.18
1 1.44 144 -0.718 -10.319 -0.283 7.904 0.702 1.831 1174.035 4401.133 -1876.328 0.625 0.523 0.028 -0.19 -0.69 0.67 0.18
1 1.45 145 -0.795 -10.200 -0.287 8.728 -2.808 0.702 1324.087 4446.104 -1951.279 0.698 0.403 0.045 -0.19 -0.69 0.68 0.18
1 1.46 146 -0.666 -9.841 -0.388 8.514 -5.066 -1.678 1324.087 4446.104 -1951.279 0.562 0.043 0.176 -0.19 -0.69 0.68 0.18
1 1.47 147 -0.589 -9.735 -0.383 5.341 -5.737 -2.350 1384.048 4506.064 -1996.250 0.485 -0.062 0.183 -0.19 -0.69 0.68 0.18
1 1.48 148 -0.824 -9.544 -0.637 1.831 -5.707 -3.662 1309.097 4386.143 -2011.240 0.722 -0.254 0.444 -0.19 -0.69 0.68 0.18
1 1.49 149 -0.819 -9.592 -0.484 -0.763 -9.033 -4.303 1309.097 4386.143 -2011.240 0.719 -0.206 0.293 -0.19 -0.69 0.68 0.18
1 1.50 150 -0.991 -9.663 -0.589 0.000 -13.458 -6.104 1174.035 4371.152 -1951.279 0.894 -0.134 0.397 -0.19 -0.69 0.68 0.18
1 1.51 151 -1.025 -9.793 -0.589 0.183 -15.442 -6.836 1174.035 4371.152 -1951.279 0.931 -0.005 0.395 -0.19 -0.69 0.68 0.18
1 1.52 152 -0.963 -9.773 -0.426 0.916 -16.480 -7.935 1279.117 4416.123 -2086.341 0.873 -0.024 0.231 -0.19 -0.69 0.68 0.18
1 1.53 153 -0.852 -9.706 -0.536 3.296 -18.738 -7.141 1279.117 4416.123 -2086.341 0.775 -0.091 0.345 -0.18 -0.69 0.68 0.18
1 1.54 154 -0.804 -9.831 -0.469 4.150 -19.440 -6.958 1144.055 4371.152 -2026.380 0.733 0.033 0.283 -0.18 -0.69 0.68 0.18
1 1.55 155 -0.603 -9.611 -0.493 4.059 -21.423 -6.744 1204.016 4341.022 -1936.289 0.537 -0.187 0.313 -0.18 -0.69 0.68 0.17
1 1.56 156 -0.541 -9.673 -0.560 3.448 -22.827 -5.432 1204.016 4341.022 -1936.289 0.481 -0.125 0.385 -0.18 -0.69 0.68 0.17
1 1.57 157 -0.206 -9.682 -0.661 -0.183 -22.980 -3.143 1174.035 4536.045 -2026.380 0.151 -0.116 0.489 -0.18 -0.69 0.68 0.17
1 1.58 158 -0.053 -9.596 -0.474 -1.221 -21.332 -0.610 1174.035 4536.045 -2026.380 0.001 -0.202 0.301 -0.18 -0.69 0.68 0.17
1 1.59 159 0.421 -9.587 -0.460 -0.488 -19.775 0.549 979.012 4341.022 -2116.321 -0.470 -0.212 0.285 -0.18 -0.69 0.68 0.17
1 1.60 160 0.555 -9.376 -0.599 -0.031 -14.954 2.411 979.012 4341.022 -2116.321 -0.600 -0.422 0.421 -0.17 -0.69 0.68 0.17
1 1.61 161 0.584 -9.448 -0.445 -0.549 -13.458 2.258 1159.045 4341.022 -2116.321 -0.628 -0.350 0.267 -0.17 -0.69 0.68 0.17
1 1.62 162 0.436 -9.390 -0.417 -1.953 -8.881 3.052 1279.117 4416.123 -2161.292 -0.478 -0.408 0.236 -0.17 -0.69 0.68 0.17
1 1.63 163 0.196 -9.462 -0.297 -2.808 -6.989 4.181 1279.117 4416.123 -2161.292 -0.239 -0.336 0.112 -0.17 -0.69 0.68 0.17
1 1.64 164 0.014 -9.481 -0.426 -2.960 -8.850 4.974 1204.016 4386.143 -1966.269 -0.060 -0.317 0.238 -0.17 -0.69 0.68 0.17
1 1.65 165 0.000 -9.568 -0.393 -1.923 -11.871 3.357 1204.016 4386.143 -1966.269 -0.051 -0.230 0.200 -0.17 -0.69 0.68 0.17
1 1.66 166 0.043 -9.639 -0.316 -0.824 -14.008 3.662 1144.055 4446.104 -2176.282 -0.098 -0.158 0.120 -0.17 -0.69 0.68 0.17
1 1.67 167 0.072 -9.615 -0.211 -0.122 -12.817 4.456 1144.055 4446.104 -2176.282 -0.131 -0.182 0.013 -0.17 -0.69 0.68 0.16
1 1.68 168 -0.148 -9.778 -0.374 1.892 -11.200 7.111 1159.045 4416.123 -2161.292 0.079 -0.020 0.179 -0.17 -0.69 0.68 0.16
1 1.69 169 -0.101 -9.773 -0.479 2.930 -13.245 7.813 1084.094 4416.123 -2161.292 0.022 -0.024 0.289 -0.17 -0.69 0.68 0.16
1 1.70 170 -0.057 -9.807 -0.555 3.021 -18.250 8.637 1084.094 4416.123 -2161.292 -0.033 0.009 0.369 -0.17 -0.69 0.68 0.16
1 1.71 171 0.029 -9.884 -0.335 2.167 -21.057 7.751 1204.016 4416.123 -2086.341 -0.131 0.086 0.152 -0.17 -0.69 0.68 0.16
1 1.72 172 0.345 -10.027 -0.148 0.793 -18.585 8.026 1159.045 4491.074 -2086.341 -0.458 0.230 -0.031 -0.17 -0.69 0.68 0.16
1 1.73 173 0.283 -10.415 -0.081 -0.641 -14.557 8.087 1219.156 4506.064 -2176.282 -0.403 0.617 -0.095 -0.17 -0.69 0.68 0.16
1 1.74 174 0.139 -10.444 -0.330 0.641 -12.451 9.186 1219.156 4506.064 -2176.282 -0.267 0.646 0.156 -0.17 -0.69 0.68 0.16
1 1.75 175 -0.302 -10.310 -0.886 4.120 -13.794 8.820 1069.104 4536.045 -1996.250 0.152 0.512 0.717 -0.17 -0.69 0.68 0.15
1 1.76 176 -0.283 -10.161 -1.001 5.219 -16.754 6.714 1084.094 4416.123 -2191.272 0.121 0.364 0.836 -0.17 -0.69 0.68 0.15
1 1.77 177 -0.134 -10.104 -1.106 6.378 -19.959 4.913 1084.094 4416.123 -2191.272 -0.037 0.307 0.945 -0.17 -0.69 0.68 0.15
1 1.78 178 0.436 -9.831 -1.202 7.843 -21.729 5.859 1069.104 4401.133 -1996.250 -0.614 0.034 1.046 -0.17 -0.69 0.69 0.15
1 1.79 179 0.943 -9.817 -0.982 5.402 -17.090 10.010 1144.055 4446.104 -2251.383 -1.126 0.019 0.832 -0.16 -0.69 0.69 0.15
1 1.80 180 1.149 -9.730 -1.030 -0.305 -11.108 12.207 1204.016 4416.123 -2191.272 -1.338 -0.067 0.885 -0.16 -0.69 0.69 0.15
1 1.81 181 1.140 -9.836 -1.164 -4.028 -6.378 12.207 1204.016 4416.123 -2191.272 -1.336 0.039 1.017 -0.16 -0.69 0.69 0.15
1 1.82 182 1.188 -9.970 -1.283 -3.693 -4.700 10.468 1114.074 4446.104 -2131.312 -1.392 0.173 1.126 -0.16 -0.69 0.69 0.15
1 1.83 183 1.058 -10.008 -1.312 1.617 -1.648 6.042 1054.113 4341.022 -2161.292 -1.268 0.212 1.134 -0.16 -0.69 0.69 0.15
1 1.84 184 0.972 -10.013 -1.226 3.052 1.923 4.181 1054.113 4341.022 -2161.292 -1.178 0.217 1.044 -0.16 -0.69 0.69 0.15
1 1.85 185 0.699 -10.056 -1.188 2.594 4.211 2.319 1144.055 4326.032 -2131.312 -0.900 0.260 1.003 -0.16 -0.69 0.69 0.15
1 1.86 186 0.498 -10.022 -1.207 0.214 4.028 -0.519 1084.094 4461.094 -2116.321 -0.693 0.226 1.019 -0.16 -0.7 0.68 0.15
1 1.87 187 0.402 -10.027 -1.326 -0.763 0.702 -4.547 1159.045 4386.143 -2161.292 -0.588 0.231 1.133 -0.16 -0.7 0.68 0.15
1 1.88 188 0.536 -10.171 -1.283 -0.183 -0.641 -5.981 1159.045 4386.143 -2161.292 -0.710 0.375 1.082 -0.16 -0.7 0.68 0.15
1 1.89 189 0.728 -10.195 -1.264 1.404 -0.031 -6.500 1159.045 4311.042 -2041.370 -0.887 0.398 1.056 -0.16 -0.7 0.68 0.15
1 1.90 190 0.876 -10.420 -1.149 0.946 4.883 -5.493 1159.045 4416.123 -2086.341 -1.001 0.623 0.933 -0.16 -0.7 0.68 0.15
1 1.91 191 0.661 -10.339 -1.140 1.740 8.698 -4.700 1159.045 4416.123 -2086.341 -0.768 0.542 0.920 -0.16 -0.7 0.68 0.15
1 1.92 192 0.651 -10.401 -1.437 6.104 10.407 -4.761 1174.035 4506.064 -2206.263 -0.743 0.604 1.215 -0.16 -0.7 0.68 0.15
1 1.93 193 0.570 -10.195 -1.456 13.245 11.536 -3.937 1159.045 4461.094 -2041.370 -0.646 0.398 1.238 -0.16 -0.7 0.68 0.15
1 1.94 194 0.402 -9.955 -1.427 21.881 12.207 -3.754 1174.035 4371.152 -2131.312 -0.466 0.158 1.224 -0.16 -0.7 0.68 0.15
1 1.95 195 0.268 -9.864 -1.279 20.142 11.475 -3.998 1174.035 4371.152 -2131.312 -0.320 0.066 1.101 -0.16 -0.69 0.68 0.16
1 1.96 196 0.091 -9.745 -1.427 17.639 9.979 -4.547 1129.064 4416.123 -2161.292 -0.131 -0.054 1.272 -0.16 -0.69 0.68 0.16
1 1.97 197 0.148 -9.697 -1.446 14.648 8.331 -3.906 1054.113 4386.143 -2191.272 -0.169 -0.102 1.327 -0.16 -0.69 0.68 0.16
1 1.98 198 0.110 -9.587 -1.484 13.794 8.575 -2.258 1054.113 4386.143 -2191.272 -0.122 -0.213 1.378 -0.16 -0.69 0.68 0.16
1 1.99 199 0.086 -9.333 -1.542 12.970 9.552 -0.519 1129.064 4341.022 -2191.272 -0.093 -0.467 1.448 -0.16 -0.69 0.69 0.16
1 2.00 200 -0.029 -9.352 -1.475 13.977 11.139 2.228 1129.064 4521.055 -2266.374 0.024 -0.448 1.392 -0.16 -0.69 0.69 0.16
1 2.01 201 0.019 -9.376 -1.489 13.794 12.970 5.585 1144.055 4446.104 -2206.263 -0.026 -0.424 1.418 -0.16 -0.69 0.69 0.16
1 2.02 202 -0.096 -9.237 -1.556 13.184 13.458 8.759 1144.055 4446.104 -2206.263 0.083 -0.563 1.496 -0.16 -0.69 0.69 0.16
1 2.03 203 0.024 -9.280 -1.413 11.749 13.733 10.407 996.551 4446.403 -2290.508 -0.047 -0.520 1.363 -0.17 -0.69 0.69 0.16
1 2.04 204 0.139 -9.314 -1.456 9.430 14.435 13.245 1146.453 4326.332 -2185.426 -0.191 -0.486 1.420 -0.17 -0.69 0.69 0.16
1 2.05 205 0.311 -9.338 -1.590 10.559 15.442 16.296 1146.453 4326.332 -2185.426 -0.381 -0.462 1.558 -0.17 -0.69 0.69 0.16
1 2.06 206 0.316 -9.352 -1.484 13.062 17.670 17.700 1176.583 4401.433 -2185.426 -0.406 -0.447 1.459 -0.17 -0.69 0.69 0.16
1 2.07 207 0.330 -9.242 -1.370 16.174 18.768 18.433 1206.564 4311.341 -2125.465 -0.443 -0.557 1.356 -0.17 -0.69 0.69 0.16
1 2.08 208 0.273 -9.170 -1.475 17.395 20.142 18.097 1161.593 4236.390 -2125.465 -0.408 -0.629 1.477 -0.17 -0.69 0.69 0.16
1 2.09 209 0.201 -9.194 -1.326 13.397 19.348 15.076 1161.593 4236.390 -2125.465 -0.358 -0.605 1.344 -0.18 -0.68 0.69 0.16
1 2.10 210 0.043 -9.141 -1.326 9.857 18.219 14.191 1206.564 4266.371 -2125.465 -0.219 -0.657 1.356 -0.18 -0.68 0.69 0.17
1 2.11 211 -0.177 -9.256 -1.370 6.989 17.212 12.238 1236.544 4491.374 -2275.518 -0.016 -0.542 1.406 -0.18 -0.68 0.69 0.17
1 2.12 212 -0.321 -9.050 -1.671 5.280 15.411 10.834 1236.544 4491.374 -2275.518 0.095 -0.747 1.708 -0.18 -0.68 0.69 0.17
1 2.13 213 -0.359 -9.141 -1.695 6.561 13.733 8.850 1251.535 4401.433 -2215.557 0.119 -0.656 1.729 -0.18 -0.68 0.69 0.17
1 2.14 214 -0.546 -9.108 -1.652 8.514 10.864 8.209 1251.535 4326.332 -2260.527 0.293 -0.689 1.685 -0.18 -0.68 0.69 0.17
1 2.15 215 -0.455 -9.074 -1.547 7.324 6.012 6.378 1251.535 4326.332 -2260.527 0.190 -0.722 1.581 -0.18 -0.68 0.69 0.17
1 2.16 216 -0.206 -9.108 -1.671 1.465 -0.671 3.693 1281.515 4311.341 -2275.518 -0.069 -0.688 1.704 -0.19 -0.68 0.69 0.17
1 2.17 217 -0.163 -9.433 -1.772 -2.289 -1.709 0.427 1341.476 4236.390 -2200.566 -0.118 -0.362 1.799 -0.19 -0.68 0.69 0.17
1 2.18 218 -0.259 -9.443 -2.073 -2.655 -1.221 -1.343 1311.496 4161.439 -2200.566 -0.021 -0.353 2.087 -0.19 -0.68 0.69 0.17
1 2.19 219 -0.374 -9.759 -1.906 1.434 -2.411 -4.944 1311.496 4161.439 -2200.566 0.103 -0.037 1.886 -0.19 -0.68 0.69 0.17
1 2.20 220 -0.632 -10.348 -1.269 6.104 -6.989 -10.529 1236.544 4071.348 -2200.566 0.372 0.552 1.241 -0.19 -0.68 0.69 0.17
1 2.21 221 -1.173 -11.358 -0.211 5.096 -14.404 -20.996 1251.535 4206.410 -2185.426 0.930 1.562 0.183 -0.18 -0.68 0.69 0.17
1 2.22 222 -1.930 -12.182 -0.311 -4.791 -30.762 -39.978 1251.535 4206.410 -2185.426 1.727 2.384 0.291 -0.18 -0.68 0.69 0.17
1 2.23 223 -1.882 -11.962 -1.992 0.793 -59.998 -62.378 1296.505 4176.429 -2185.426 1.748 2.163 1.964 -0.18 -0.69 0.69 0.17
1 2.24 224 -1.140 -11.301 -1.930 28.137 -65.003 -57.282 1296.505 4251.380 -2260.527 1.098 1.501 1.900 -0.17 -0.69 0.69 0.17
1 2.25 225 -0.627 -10.501 -1.432 52.704 -57.617 -44.403 1131.463 4191.419 -2170.436 0.677 0.702 1.435 -0.16 -0.69 0.69 0.17
1 2.26 226 -0.029 -9.812 -1.030 56.305 -48.523 -33.447 1131.463 4191.419 -2170.436 0.152 0.013 1.105 -0.16 -0.69 0.69 0.17
1 2.27 227 0.646 -8.931 -1.135 23.987 -41.443 -27.680 1281.515 4236.390 -2305.498 -0.427 -0.865 1.342 -0.15 -0.68 0.69 0.17
1 2.28 228 1.130 -9.022 -1.020 -1.984 -40.405 -27.893 1131.463 4161.439 -2380.449 -0.865 -0.772 1.242 -0.15 -0.68 0.7 0.17
1 2.29 229 1.398 -9.381 -0.713 -15.717 -36.499 -25.971 1131.463 4161.439 -2380.449 -1.083 -0.412 0.916 -0.14 -0.69 0.69 0.17
1 2.30 230 1.484 -10.157 -0.034 -15.961 -31.433 -25.665 906.459 4116.318 -2350.469 -1.121 0.365 0.203 -0.14 -0.69 0.69 0.17
1 2.31 231 1.513 -11.675 0.383 1.404 -37.201 -40.711 996.551 4101.328 -2320.488 -1.099 1.884 -0.236 -0.14 -0.69 0.69 0.17
1 2.32 232 2.356 -12.575 0.278 20.935 -52.521 -57.739 921.450 4131.309 -2440.560 -1.880 2.787 -0.134 -0.13 -0.69 0.69 0.17
1 2.33 233 4.008 -13.446 0.359 38.605 -65.216 -61.371 921.450 4131.309 -2440.560 -3.448 3.664 -0.194 -0.13 -0.69 0.69 0.17
1 2.34 234 6.536 -14.112 1.575 44.647 -35.492 -29.297 741.567 4206.410 -2365.459 -5.804 4.343 -1.298 -0.11 -0.69 0.7 0.17
1 2.35 235 6.216 -13.997 2.222 39.795 0.580 0.458 636.485 4101.328 -2395.439 -5.448 4.233 -1.881 -0.11 -0.69 0.7 0.17
1 2.36 236 4.449 -12.800 2.064 36.530 26.642 20.233 636.485 4101.328 -2395.439 -3.690 3.038 -1.662 -0.11 -0.68 0.7 0.17
1 2.37 237 2.576 -11.373 1.207 30.274 27.771 18.433 681.456 4116.318 -2425.420 -1.849 1.611 -0.747 -0.11 -0.68 0.7 0.17
1 2.38 238 0.958 -10.339 1.619 10.590 15.961 -2.869 726.577 4236.390 -2455.550 -0.254 0.577 -1.113 -0.11 -0.68 0.7 0.17
1 2.39 239 0.263 -10.367 2.073 -3.265 21.179 -11.322 606.505 3996.396 -2530.501 0.442 0.607 -1.540 -0.12 -0.68 0.71 0.17
1 2.40 240 -0.464 -10.319 2.073 -9.064 31.372 -3.937 609.203 3993.698 -2547.440 1.185 0.561 -1.529 -0.12 -0.68 0.71 0.17
1 2.41 241 -1.173 -9.606 1.872 11.627 41.046 14.038 774.246 4023.679 -2412.378 1.878 -0.153 -1.311 -0.12 -0.68 0.7 0.18
1 2.42 242 -1.528 -8.782 1.906 37.415 40.070 17.120 729.275 4113.620 -2472.339 2.194 -0.976 -1.301 -0.12 -0.67 0.71 0.18
1 2.43 243 -1.714 -7.858 1.767 55.359 35.370 14.282 729.275 4113.620 -2472.339 2.338 -1.898 -1.082 -0.13 -0.67 0.71 0.18
1 2.44 244 -2.030 -7.298 1.652 54.657 26.642 7.477 684.304 4188.571 -2442.359 2.633 -2.453 -0.878 -0.13 -0.67 0.71 0.18
1 2.45 245 -2.294 -6.857 1.231 30.090 10.376 -6.470 669.314 4023.679 -2532.450 2.885 -2.887 -0.376 -0.13 -0.66 0.71 0.18
1 2.46 246 -2.102 -7.461 1.250 2.228 -9.796 -19.592 744.265 4023.679 -2457.349 2.698 -2.279 -0.340 -0.13 -0.66 0.72 0.18
1 2.47 247 -1.437 -8.634 1.729 -34.912 -28.259 -22.858 744.265 4023.679 -2457.349 2.059 -1.102 -0.803 -0.13 -0.66 0.72 0.19
1 2.48 248 0.340 -9.989 1.992 -72.479 -36.530 -16.419 969.269 3948.578 -2487.330 0.345 0.246 -1.187 -0.12 -0.67 0.71 0.18
1 2.49 249 0.733 -10.477 1.891 -70.587 -34.912 -12.726 804.226 3843.646 -2547.440 -0.025 0.729 -1.185 -0.12 -0.67 0.71 0.18
1 2.50 250 1.906 -10.837 0.924 -20.935 -13.916 -1.221 804.226 3843.646 -2547.440 -1.185 1.084 -0.292 -0.12 -0.67 0.71 0.18
1 2.51 251 1.518 -10.607 0.785 26.947 7.355 4.364 729.275 4038.669 -2472.339 -0.795 0.853 -0.166 -0.12 -0.67 0.71 0.18
1 2.52 252 0.752 -10.056 0.967 57.282 21.790 10.010 594.213 4128.610 -2382.398 -0.034 0.306 -0.290 -0.12 -0.67 0.71 0.18
1 2.53 253 -0.910 -9.170 0.939 42.328 18.402 16.541 744.265 3978.708 -2382.398 1.611 -0.574 -0.168 -0.12 -0.67 0.71 0.18
1 2.54 254 -1.312 -8.600 1.030 6.256 2.808 14.923 744.265 3978.708 -2382.398 1.983 -1.140 -0.181 -0.12 -0.66 0.71 0.18
1 2.55 255 -1.097 -8.591 0.699 -28.992 -12.756 12.116 804.226 3993.698 -2367.408 1.732 -1.149 0.177 -0.12 -0.66 0.71 0.18
1 2.56 256 -0.172 -9.084 0.819 -57.923 -15.625 9.369 714.285 3948.578 -2337.427 0.780 -0.666 -0.044 -0.13 -0.67 0.71 0.18
1 2.57 257 0.057 -9.807 0.599 -55.298 -8.148 9.277 714.285 3948.578 -2337.427 0.533 0.049 0.091 -0.13 -0.67 0.71 0.18
1 2.58 258 0.148 -10.209 0.426 -39.642 -1.862 9.735 774.246 3858.636 -2487.330 0.426 0.445 0.186 -0.13 -0.67 0.71 0.18
1 2.59 259 -0.091 -10.329 0.206 -17.334 -1.251 9.735 774.246 3858.636 -2487.330 0.649 0.561 0.356 -0.13 -0.67 0.71 0.18
1 2.60 260 -0.129 -10.027 0.019 8.057 -6.378 9.857 834.207 4113.620 -2397.388 0.670 0.257 0.524 -0.13 -0.68 0.71 0.17
1 2.61 261 -0.043 -9.692 0.287 13.641 -7.996 11.658 834.207 4113.620 -2397.388 0.565 -0.079 0.261 -0.13 -0.67 0.71 0.17
1 2.62 262 -0.043 -9.481 0.283 8.331 -8.606 11.749 669.314 4053.659 -2337.427 0.546 -0.289 0.283 -0.13 -0.67 0.71 0.17
1 2.63 263 -0.144 -9.266 0.215 -8.545 -12.421 11.627 729.275 4068.649 -2292.457 0.607 -0.506 0.365 -0.13 -0.67 0.71 0.17
1 2.64 264 -0.259 -9.271 0.110 -17.883 -16.968 9.644 729.275 4068.649 -2292.457 0.704 -0.503 0.452 -0.13 -0.67 0.71 0.17
1 2.65 265 -0.139 -9.228 0.048 -22.461 -20.844 9.064 879.327 4038.669 -2397.388 0.568 -0.549 0.484 -0.13 -0.68 0.71 0.17
1 2.66 266 -0.125 -9.328 0.014 -19.806 -20.599 7.324 879.327 4038.669 -2397.388 0.541 -0.450 0.482 -0.13 -0.68 0.71 0.17
1 2.67 267 -0.283 -9.424 -0.072 -9.125 -16.632 5.005 744.265 4053.659 -2487.330 0.688 -0.357 0.537 -0.13 -0.68 0.7 0.16
1 2.68 268 -0.412 -9.328 -0.239 -1.160 -15.381 2.747 744.265 4053.659 -2487.330 0.808 -0.454 0.685 -0.13 -0.68 0.7 0.16
1 2.69 269 -0.709 -9.175 -0.455 4.486 -18.860 0.000 774.246 4098.630 -2382.398 1.098 -0.608 0.892 -0.13 -0.68 0.7 0.16
1 2.70 270 -0.876 -8.830 -0.493 6.134 -23.926 -3.540 744.265 4128.610 -2337.427 1.260 -0.953 0.931 -0.13 -0.68 0.7 0.16
1 2.71 271 -1.001 -8.361 -0.910 0.122 -32.806 -7.355 744.265 4128.610 -2337.427 1.390 -1.421 1.353 -0.12 -0.68 0.71 0.16
1 2.72 272 -1.063 -8.016 -1.006 -6.683 -37.140 -10.010 684.304 4068.649 -2322.437 1.468 -1.766 1.446 -0.12 -0.68 0.71 0.16
1 2.73 273 -1.082 -7.662 -1.202 -11.688 -39.826 -10.407 684.304 4068.649 -2322.437 1.506 -2.120 1.629 -0.12 -0.68 0.71 0.16
1 2.74 274 -1.212 -7.561 -1.077 -16.998 -41.992 -12.054 519.262 4173.581 -2232.346 1.656 -2.220 1.484 -0.12 -0.68 0.71 0.15
1 2.75 275 -1.092 -7.781 -0.723 -26.489 -43.305 -11.749 519.262 4173.581 -2232.346 1.559 -2.000 1.101 -0.11 -0.68 0.7 0.15
1 2.76 276 -1.034 -8.097 -0.484 -36.438 -45.410 -7.721 564.232 4053.659 -2277.316 1.523 -1.684 0.823 -0.11 -0.69 0.7 0.15
1 2.77 277 -0.661 -8.572 -0.139 -44.068 -44.861 -2.228 564.232 4023.679 -2307.447 1.167 -1.211 0.426 -0.11 -0.69 0.7 0.15
1 2.78 278 0.163 -9.553 0.374 -50.049 -36.926 6.714 564.232 4023.679 -2307.447 0.348 -0.232 -0.227 -0.1 -0.69 0.7 0.14
1 2.79 279 0.488 -10.214 0.239 -46.478 -29.205 11.841 504.271 4038.669 -2247.336 0.009 0.427 -0.168 -0.1 -0.7 0.7 0.14
1 2.80 280 0.656 -10.295 -0.364 -31.738 -22.278 16.754 504.271 4038.669 -2247.336 -0.177 0.507 0.372 -0.1 -0.7 0.69 0.14
1 2.81 281 0.632 -10.104 -0.963 -9.613 -16.724 19.470 654.324 4068.649 -2217.355 -0.177 0.315 0.931 -0.1 -0.7 0.69 0.14
1 2.82 282 0.675 -9.524 -1.954 26.032 -12.299 18.311 401.139 4262.773 -2126.215 -0.246 -0.266 1.911 -0.1 -0.7 0.69 0.13
1 2.83 283 0.498 -9.094 -2.241 40.375 -14.618 16.419 491.080 4097.880 -2141.205 -0.094 -0.698 2.220 -0.1 -0.7 0.69 0.13
1 2.84 284 0.575 -8.763 -2.251 37.872 -20.111 15.839 416.129 4127.861 -2141.205 -0.193 -1.029 2.272 -0.1 -0.7 0.7 0.13
1 2.85 285 0.800 -9.357 0.551 0.122 -19.898 17.242 416.129 4127.861 -2141.205 -0.460 -0.437 -0.471 -0.1 -0.7 0.7 0.13
1 2.86 286 2.433 -13.303 5.047 -36.713 -2.350 21.881 581.171 4157.841 -2261.277 -2.115 3.508 -4.976 -0.1 -0.7 0.7 0.13
1 2.87 287 4.147 -17.842 3.845 -132.965 34.180 82.886 581.171 4157.841 -2261.277 -3.877 8.046 -3.858 -0.1 -0.7 0.7 0.12
1 2.88 288 2.255 -15.687 -1.336 -172.852 49.591 131.165 446.109 4052.760 -2246.287 -2.135 5.891 1.096 -0.11 -0.71 0.69 0.12
1 2.89 289 0.833 -13.178 -3.151 28.534 50.720 63.172 506.070 4157.841 -2201.316 -0.894 3.389 2.685 -0.12 -0.71 0.68 0.11
1 2.90 290 0.646 -11.100 -1.542 146.119 32.837 41.962 641.132 4202.812 -2141.205 -0.814 1.313 1.056 -0.13 -0.71 0.68 0.11
1 2.91 291 0.225 -9.932 0.747 158.967 27.069 26.489 656.123 4187.822 -2051.264 -0.457 0.139 -1.048 -0.13 -0.71 0.69 0.11
1 2.92 292 -0.790 -10.846 2.955 72.266 48.584 35.553 656.123 4187.822 -2051.264 0.518 1.050 -3.012 -0.13 -0.7 0.7 0.11
1 2.93 293 -3.975 -11.301 1.896 -112.152 51.300 40.863 809.623 3990.101 -2218.255 3.592 1.509 -1.835 -0.14 -0.69 0.7 0.12
1 2.94 294 -4.793 -12.173 0.819 -156.678 9.857 12.604 809.623 3990.101 -2218.255 4.361 2.383 -0.952 -0.15 -0.7 0.69 0.12
1 2.95 295 -3.975 -13.705 0.110 -117.890 -35.797 -13.245 899.564 4050.211 -2233.245 3.535 3.921 -0.470 -0.15 -0.7 0.68 0.11
1 2.96 296 -2.351 -14.222 0.081 17.334 -66.895 -16.907 764.652 4065.202 -2068.203 1.936 4.444 -0.582 -0.15 -0.71 0.68 0.11
1 2.97 297 -0.326 -12.287 0.819 82.672 -65.094 2.197 854.593 4170.133 -2083.193 -0.064 2.508 -1.323 -0.14 -0.71 0.68 0.11
1 2.98 298 0.709 -10.578 1.834 108.124 -50.629 18.402 899.564 4125.163 -2083.193 -1.097 0.794 -2.229 -0.14 -0.71 0.68 0.1
1 2.99 299 1.695 -9.137 2.375 99.610 -36.896 27.618 899.564 4125.163 -2083.193 -2.106 -0.652 -2.608 -0.13 -0.7 0.69 0.1
1 3.00 300 2.619 -8.615 2.801 29.968 -10.132 34.638 719.681 3975.110 -2083.193 -3.085 -1.174 -2.728 -0.13 -0.69 0.7 0.1
1 3.01 301 2.792 -9.074 2.480 -37.384 10.407 40.680 719.681 3975.110 -2083.193 -3.287 -0.712 -2.365 -0.13 -0.69 0.7 0.1
1 3.02 302 2.260 -9.467 1.829 -84.717 26.917 43.427 824.613 4095.182 -2233.245 -2.793 -0.318 -1.772 -0.13 -0.69 0.7 0.1
1 3.03 303 1.379 -10.008 0.963 -87.189 40.253 35.187 779.642 4095.182 -2128.313 -1.951 0.225 -1.023 -0.14 -0.7 0.7 0.1
1 3.04 304 -0.010 -10.774 -0.330 -36.011 48.035 8.057 884.574 3990.101 -2173.284 -0.591 0.994 0.156 -0.14 -0.7 0.69 0.1
1 3.05 305 -0.651 -10.947 -0.575 7.538 43.183 -7.751 1004.646 4050.211 -2083.193 0.044 1.169 0.330 -0.14 -0.7 0.69 0.1
1 3.06 306 -0.699 -10.343 -0.239 39.948 33.814 -16.785 1004.646 4050.211 -2083.193 0.104 0.565 -0.012 -0.15 -0.7 0.69 0.1
1 3.07 307 -0.201 -9.524 0.421 56.183 20.844 -19.836 809.623 4260.225 -1993.251 -0.337 -0.260 -0.548 -0.15 -0.7 0.69 0.11
1 3.08 308 0.235 -8.734 0.618 45.929 16.205 -17.761 809.623 4260.225 -1993.251 -0.740 -1.052 -0.660 -0.15 -0.69 0.7 0.11
1 3.09 309 0.512 -8.251 0.670 27.222 13.550 -15.625 824.613 4020.231 -2128.313 -0.989 -1.538 -0.648 -0.14 -0.69 0.7 0.11
1 3.10 310 0.632 -7.868 0.575 3.998 11.139 -17.639 1064.606 4065.202 -2068.203 -1.083 -1.922 -0.519 -0.14 -0.69 0.7 0.11
1 3.11 311 0.350 -8.232 0.498 -24.078 3.754 -21.271 719.681 4020.231 -2188.274 -0.772 -1.559 -0.443 -0.14 -0.69 0.7 0.11
1 3.12 312 0.316 -8.619 0.345 -33.539 2.228 -21.393 899.564 4170.133 -2188.274 -0.706 -1.173 -0.319 -0.14 -0.69 0.7 0.12
1 3.13 313 0.522 -8.859 0.168 -33.722 5.310 -20.020 899.564 4170.133 -2188.274 -0.877 -0.935 -0.188 -0.14 -0.69 0.7 0.12
1 3.14 314 0.498 -8.983 0.024 -25.238 13.092 -16.388 914.554 4035.221 -2143.304 -0.821 -0.811 -0.095 -0.14 -0.7 0.69 0.12
1 3.15 315 0.249 -8.878 -0.115 -6.165 24.445 -9.522 914.554 4035.221 -2143.304 -0.512 -0.918 -0.018 -0.14 -0.7 0.69 0.12
1 3.16 316 -0.091 -8.801 -0.105 1.312 26.947 -7.172 839.603 3885.169 -1963.271 -0.151 -0.995 -0.032 -0.14 -0.7 0.69 0.12
1 3.17 317 -0.522 -8.505 -0.283 3.052 24.628 -8.484 749.662 4095.182 -2053.212 0.293 -1.292 0.149 -0.14 -0.7 0.69 0.12
1 3.18 318 -0.594 -8.212 -0.388 1.129 19.196 -9.125 779.642 4200.114 -2053.212 0.379 -1.584 0.260 -0.14 -0.7 0.69 0.13
1 3.19 319 -0.484 -8.150 -0.201 -5.280 10.498 -9.888 779.642 4125.163 -1978.261 0.286 -1.647 0.075 -0.14 -0.7 0.69 0.13
1 3.20 320 -0.220 -8.241 -0.263 -9.125 6.104 -7.599 779.642 4125.163 -1978.261 0.039 -1.556 0.132 -0.14 -0.7 0.69 0.13
1 3.21 321 0.010 -8.270 -0.263 -11.383 6.195 -5.280 734.671 4035.221 -1993.251 -0.177 -1.528 0.121 -0.14 -0.7 0.69 0.13
1 3.22 322 0.417 -8.605 -0.254 -11.505 12.207 1.312 734.671 4035.221 -1993.251 -0.568 -1.192 0.080 -0.14 -0.7 0.69 0.13
1 3.23 323 0.589 -8.715 -0.412 -10.468 18.036 7.935 779.642 4020.231 -2263.226 -0.743 -1.082 0.223 -0.14 -0.7 0.69 0.13
1 3.24 324 0.656 -8.710 -0.642 -5.463 25.177 15.961 734.671 4110.172 -2023.232 -0.823 -1.086 0.440 -0.15 -0.7 0.69 0.13
1 3.25 325 0.737 -8.414 -0.713 0.977 32.196 23.010 734.671 4110.172 -2023.232 -0.926 -1.382 0.506 -0.15 -0.7 0.69 0.13
1 3.26 326 0.685 -7.916 -1.063 4.578 38.361 26.123 929.694 4020.231 -2053.212 -0.906 -1.880 0.859 -0.15 -0.7 0.69 0.13
1 3.27 327 0.589 -7.700 -1.015 2.625 39.581 27.649 929.694 4020.231 -2053.212 -0.846 -2.095 0.818 -0.15 -0.7 0.69 0.13
1 3.28 328 0.455 -7.274 -1.365 -5.096 39.002 26.764 764.652 4065.202 -1993.251 -0.751 -2.520 1.173 -0.16 -0.7 0.69 0.13
1 3.29 329 0.508 -7.101 -1.504 -14.954 39.032 24.567 764.652 4065.202 -1993.251 -0.878 -2.689 1.289 -0.16 -0.7 0.69 0.13
1 3.30 330 0.321 -7.384 -1.470 -18.646 39.978 23.071 854.593 3975.110 -2008.242 -0.724 -2.405 1.232 -0.17 -0.7 0.69 0.13
1 3.31 331 0.029 -8.174 -0.589 -21.729 41.779 21.515 854.593 4170.133 -1978.261 -0.463 -1.613 0.320 -0.17 -0.7 0.68 0.14
1 3.32 332 -0.996 -9.438 -0.192 -23.865 30.792 16.815 854.593 4170.133 -1978.261 0.534 -0.346 -0.111 -0.17 -0.7 0.68 0.14
1 3.33 333 -1.753 -11.349 0.493 -21.484 -13.458 -3.174 989.655 4065.202 -2023.232 1.270 1.567 -0.832 -0.18 -0.7 0.68 0.14
1 3.34 334 -0.934 -11.488 0.311 -10.834 -43.640 -15.869 989.655 4065.202 -2023.232 0.448 1.707 -0.681 -0.18 -0.7 0.68 0.14
1 3.35 335 0.584 -10.798 0.048 6.378 -48.401 -20.722 1004.646 4020.231 -2053.212 -1.051 1.017 -0.434 -0.17 -0.7 0.68 0.13
1 3.36 336 1.642 -9.486 -1.106 26.795 3.296 -12.756 1004.646 4020.231 -2053.212 -2.048 -0.299 0.759 -0.17 -0.7 0.68 0.13
1 3.37 337 1.461 -9.347 -1.451 33.112 61.432 -4.517 1139.558 4155.143 -1918.300 -1.832 -0.441 1.144 -0.17 -0.7 0.68 0.13
1 3.38 338 -1.231 -10.315 0.584 34.668 109.558 11.688 884.574 4065.202 -1963.271 0.877 0.525 -0.853 -0.17 -0.7 0.68 0.14
1 3.39 339 -5.378 -13.250 3.323 26.367 123.047 25.055 884.574 4065.202 -1963.271 5.001 3.460 -3.545 -0.17 -0.69 0.68 0.14
1 3.40 340 -11.837 -15.003 -1.360 -81.543 -48.798 -101.593 974.665 4125.163 -2008.242 11.444 5.213 1.153 -0.18 -0.69 0.68 0.15
1 3.41 341 -5.938 -13.614 -4.707 -60.150 -163.819 -147.187 974.665 4125.163 -2008.242 5.656 3.823 4.407 -0.18 -0.7 0.68 0.15
1 3.42 342 -0.096 -12.685 -2.006 -6.928 -174.042 -147.858 1079.597 4050.211 -1933.291 0.019 2.894 1.603 -0.16 -0.7 0.68 0.15
1 3.43 343 3.137 -12.249 -1.374 31.586 -116.120 -102.936 1079.597 4050.211 -1933.291 -2.997 2.460 0.943 -0.15 -0.71 0.68 0.15
1 3.44 344 3.749 -10.803 -2.121 51.666 -30.426 -7.385 884.574 4035.221 -1963.271 -3.364 1.016 1.789 -0.13 -0.71 0.68 0.15
1 3.45 345 3.419 -10.923 -0.862 42.511 -0.366 21.179 614.600 4110.172 -1813.219 -3.036 1.134 0.607 -0.12 -0.71 0.68 0.15
1 3.46 346 3.084 -12.446 1.207 10.986 9.888 11.200 614.600 4110.172 -1813.219 -2.731 2.654 -1.405 -0.12 -0.7 0.68 0.15
1 3.47 347 2.375 -14.931 0.699 -52.429 -14.954 -28.931 449.557 4170.133 -1933.291 -2.024 5.139 -0.900 -0.12 -0.7 0.68 0.15
1 3.48 348 3.544 -14.763 -1.149 -53.742 -101.776 -54.962 449.557 4170.133 -1933.291 -3.134 4.976 0.850 -0.12 -0.71 0.68 0.15
1 3.49 349 5.373 -13.609 0.771 41.596 -88.105 -32.288 659.570 4155.143 -1918.300 -4.883 3.830 -1.176 -0.11 -0.71 0.68 0.14
1 3.50 350 5.521 -12.886 3.127 107.422 -15.900 2.563 659.570 4155.143 -1918.300 -4.977 3.109 -3.514 -0.11 -0.71 0.68 0.14
1 3.51 351 2.672 -11.291 3.821 92.987 77.057 34.943 524.658 4125.163 -1903.310 -2.148 1.506 -3.895 -0.11 -0.7 0.69 0.14
1 3.52 352 -0.072 -10.022 3.074 58.624 86.792 39.429 614.600 4110.172 -1843.199 0.541 0.234 -3.014 -0.11 -0.7 0.69 0.15
1 3.53 353 -1.987 -8.409 2.203 36.987 62.988 22.858 614.600 4110.172 -1843.199 2.400 -1.381 -2.045 -0.12 -0.69 0.7 0.15
1 3.54 354 -3.146 -7.647 1.551 29.724 28.992 -4.913 509.668 3990.101 -1963.271 3.521 -2.143 -1.320 -0.12 -0.69 0.7 0.15
1 3.55 355 -3.807 -7.537 0.876 29.022 0.702 -38.788 494.678 3900.159 -2083.193 4.201 -2.251 -0.597 -0.12 -0.69 0.7 0.15
1 3.56 356 -3.462 -7.676 0.757 26.337 -12.665 -38.330 584.619 4065.202 -2068.203 3.911 -2.108 -0.433 -0.12 -0.69 0.7 0.16
1 3.57 357 -2.773 -7.619 1.302 15.198 -24.597 -31.708 584.619 4065.202 -2068.203 3.283 -2.161 -0.936 -0.12 -0.68 0.7 0.16
1 3.58 358 -1.834 -8.145 1.537 -5.463 -35.584 -27.649 524.658 4095.182 -2128.313 2.444 -1.628 -1.144 -0.11 -0.68 0.7 0.16
1 3.59 359 -0.077 -9.026 1.336 -39.215 -51.117 -28.076 524.658 4050.211 -2128.313 0.731 -0.745 -0.980 -0.11 -0.69 0.7 0.16
1 3.60 360 1.705 -9.864 1.250 -45.136 -51.239 -27.313 524.658 4050.211 -2128.313 -1.006 0.094 -0.957 -0.1 -0.69 0.7 0.16
1 3.61 361 3.304 -10.832 1.365 -31.464 -33.020 -18.280 554.639 3960.120 -1993.251 -2.560 1.063 -1.132 -0.1 -0.69 0.7 0.15
1 3.62 362 3.730 -10.990 1.403 11.322 13.123 4.944 509.668 3885.169 -1993.251 -2.955 1.223 -1.204 -0.1 -0.69 0.7 0.15
1 3.63 363 2.619 -9.716 0.819 35.950 32.105 15.900 344.625 4050.211 -2053.212 -1.844 -0.051 -0.612 -0.1 -0.69 0.7 0.15
1 3.64 364 1.121 -8.854 0.512 41.535 34.729 16.052 344.625 4050.211 -2053.212 -0.357 -0.913 -0.251 -0.1 -0.69 0.7 0.16
1 3.65 365 -0.129 -8.279 0.532 27.130 25.543 10.040 329.635 3990.101 -1993.251 0.879 -1.486 -0.199 -0.1 -0.69 0.7 0.16
1 3.66 366 -1.417 -8.260 0.694 -10.345 7.111 3.906 374.606 3945.130 -2008.242 2.143 -1.505 -0.292 -0.1 -0.68 0.7 0.16
1 3.67 367 -1.628 -8.366 0.474 -28.229 -1.801 3.265 374.606 3945.130 -2008.242 2.350 -1.400 -0.094 -0.1 -0.69 0.7 0.16
1 3.68 368 -1.796 -8.533 0.225 -33.325 -6.134 2.899 359.616 3840.198 -1963.271 2.514 -1.235 0.111 -0.1 -0.69 0.7 0.16
1 3.69 369 -1.556 -8.864 -0.019 -25.543 -9.735 1.709 449.557 3900.159 -2083.193 2.273 -0.906 0.308 -0.1 -0.69 0.7 0.16
1 3.70 370 -1.336 -9.189 -0.144 -11.993 -13.702 1.007 479.688 3990.101 -2023.232 2.035 -0.582 0.399 -0.1 -0.69 0.7 0.16
1 3.71 371 -1.025 -9.491 0.316 0.488 -16.388 5.005 479.688 3990.101 -2023.232 1.708 -0.282 -0.077 -0.1 -0.69 0.7 0.16
1 3.72 372 -0.872 -9.237 0.302 2.533 -18.250 6.958 509.668 3915.149 -2023.232 1.537 -0.537 -0.064 -0.1 -0.69 0.7 0.15
1 3.73 373 -0.675 -8.935 0.072 2.319 -21.729 6.378 329.635 3960.120 -1993.251 1.301 -0.841 0.173 -0.1 -0.69 0.7 0.15
1 3.74 374 -0.383 -8.801 0.081 2.716 -23.834 5.127 329.635 3960.120 -1993.251 0.993 -0.976 0.167 -0.1 -0.69 0.7 0.15
1 3.75 375 -0.239 -8.667 0.077 1.709 -25.543 3.235 494.678 4050.211 -1978.261 0.841 -1.111 0.174 -0.1 -0.69 0.7 0.15
1 3.76 376 -0.110 -8.653 -0.043 0.153 -28.473 1.129 329.635 3840.198 -1918.300 0.709 -1.125 0.295 -0.1 -0.69 0.7 0.15
1 3.77 377 0.196 -8.447 -0.354 -0.275 -33.051 -2.502 359.616 3990.101 -1963.271 0.405 -1.331 0.605 -0.1 -0.69 0.7 0.14
1 3.78 378 0.316 -8.332 -0.594 0.397 -34.790 -5.463 359.616 3990.101 -1963.271 0.290 -1.446 0.842 -0.1 -0.69 0.7 0.14
1 3.79 379 0.359 -8.136 -0.656 1.526 -35.858 -8.911 209.563 3915.149 -1963.271 0.258 -1.642 0.903 -0.09 -0.69 0.7 0.14
1 3.80 380 0.010 -7.911 -0.924 -0.153 -36.469 -12.085 479.688 4035.221 -1918.300 0.641 -1.864 1.172 -0.09 -0.69 0.7 0.14
1 3.81 381 -0.105 -7.614 -1.068 -4.028 -38.208 -13.397 479.688 4035.221 -1918.300 0.778 -2.160 1.313 -0.09 -0.69 0.7 0.14
1 3.82 382 -0.350 -7.461 -0.895 -11.414 -39.795 -16.602 419.577 4020.231 -2083.193 1.047 -2.312 1.129 -0.08 -0.69 0.7 0.14
1 3.83 383 -0.546 -7.609 -0.546 -21.790 -39.887 -17.639 314.645 3975.110 -2008.242 1.271 -2.162 0.756 -0.08 -0.69 0.7 0.14
1 3.84 384 -0.613 -8.222 0.374 -37.689 -29.694 -16.113 419.577 4020.231 -1798.229 1.368 -1.547 -0.203 -0.08 -0.7 0.7 0.13
1 3.85 385 -0.757 -8.801 0.460 -47.791 -22.858 -12.268 419.577 4020.231 -1798.229 1.538 -0.967 -0.344 -0.08 -0.7 0.7 0.13
1 3.86 386 -1.034 -8.873 -0.077 -53.131 -23.254 -5.402 89.642 3945.130 -1828.209 1.838 -0.894 0.123 -0.07 -0.7 0.7 0.13
1 3.87 387 -0.785 -9.247 -0.263 -51.666 -23.560 -2.869 209.563 4065.202 -1888.320 1.589 -0.520 0.234 -0.07 -0.7 0.69 0.13
1 3.88 388 -0.374 -9.999 -0.350 -31.555 -23.712 -2.228 209.563 4065.202 -1888.320 1.166 0.232 0.171 -0.07 -0.71 0.69 0.13
1 3.89 389 -0.110 -10.051 -0.761 -9.491 -24.811 2.106 209.563 4110.172 -1843.199 0.895 0.285 0.542 -0.07 -0.71 0.69 0.13
1 3.90 390 0.201 -9.721 -1.389 15.137 -22.919 8.789 194.573 4020.231 -1753.258 0.573 -0.046 1.160 -0.07 -0.71 0.69 0.12
1 3.91 391 0.728 -9.271 -2.011 38.147 -20.752 15.198 194.573 4020.231 -1753.258 0.026 -0.498 1.806 -0.07 -0.71 0.69 0.12
1 3.92 392 1.767 -9.012 -2.672 57.526 -4.608 28.504 194.573 4020.231 -1798.229 -1.038 -0.760 2.517 -0.07 -0.71 0.69 0.12
1 3.93 393 1.882 -8.682 -2.978 55.512 10.468 40.863 194.573 3975.110 -1723.277 -1.185 -1.093 2.891 -0.07 -0.71 0.69 0.12
1 3.94 394 1.312 -8.677 -1.935 33.539 20.538 44.830 119.622 4095.182 -1903.310 -0.661 -1.101 1.915 -0.07 -0.7 0.7 0.12
1 3.95 395 3.089 -15.529 7.499 -22.278 27.344 45.532 119.622 4095.182 -1903.310 -2.550 5.744 -7.458 -0.08 -0.7 0.7 0.12
1 3.96 396 7.183 -23.172 6.244 -193.848 46.723 144.440 194.573 3975.110 -2008.242 -6.737 13.382 -6.281 -0.08 -0.7 0.7 0.11
1 3.97 397 3.601 -16.966 -1.566 -267.152 42.847 191.559 284.665 4035.221 -1993.251 -3.406 7.175 1.181 -0.1 -0.71 0.68 0.11
1 3.98 398 2.643 -14.696 -2.457 -49.317 78.614 95.948 284.665 4035.221 -1993.251 -2.698 4.923 1.739 -0.11 -0.72 0.67 0.1
1 3.99 399 1.341 -8.428 -1.791 208.619 48.340 14.130 359.616 4065.202 -1888.320 -1.500 -1.346 1.093 -0.12 -0.72 0.67 0.1
1 4.00 400 0.239 -6.704 0.828 227.357 45.532 -3.235 494.678 4095.182 -1618.196 -0.426 -3.085 -1.249 -0.12 -0.71 0.68 0.1
1 4.01 401 -1.542 -8.825 2.916 144.715 65.216 2.960 569.629 4170.133 -1753.258 1.359 -0.973 -2.993 -0.12 -0.7 0.7 0.11
1 4.02 402 -5.923 -13.231 2.859 -95.154 102.112 33.508 569.629 4170.133 -1753.258 5.742 3.434 -2.674 -0.12 -0.69 0.7 0.11
1 4.03 403 -8.337 -13.231 0.297 -286.042 25.879 33.356 644.580 4125.163 -1978.261 8.042 3.438 -0.526 -0.14 -0.7 0.69 0.11
1 4.04 404 -6.551 -14.212 -0.211 -150.849 -34.912 -11.200 584.619 4065.202 -1813.219 6.226 4.438 -0.409 -0.14 -0.72 0.68 0.11
1 4.05 405 -3.726 -14.476 -1.020 21.820 -78.034 -18.677 584.619 4065.202 -1813.219 3.421 4.711 0.247 -0.14 -0.72 0.67 0.11
1 4.06 406 -0.809 -12.838 0.374 116.669 -91.034 -0.336 734.671 4185.124 -1738.268 0.517 3.067 -1.063 -0.13 -0.72 0.67 0.1
1 4.07 407 1.729 -10.147 2.275 119.172 -46.723 9.094 764.652 4185.124 -1558.235 -2.031 0.364 -2.773 -0.13 -0.71 0.68 0.1
1 4.08 408 1.480 -9.184 2.710 87.738 -11.536 11.292 584.619 4230.244 -1663.316 -1.796 -0.606 -3.017 -0.12 -0.71 0.69 0.1
1 4.09 409 0.757 -9.041 2.677 43.030 5.432 13.825 584.619 4230.244 -1663.316 -1.073 -0.753 -2.815 -0.12 -0.7 0.7 0.1
1 4.10 410 1.183 -9.917 1.853 -51.514 -5.066 18.372 524.658 4200.114 -1828.209 -1.520 0.123 -1.867 -0.12 -0.7 0.7 0.1
1 4.11 411 1.456 -10.018 0.522 -99.305 -17.120 16.815 614.600 4185.124 -2023.232 -1.808 0.225 -0.616 -0.12 -0.7 0.7 0.1
1 4.12 412 1.484 -9.898 -0.522 -95.948 -15.015 2.899 614.600 4185.124 -2023.232 -1.844 0.107 0.285 -0.12 -0.71 0.69 0.09
1 4.13 413 1.403 -10.262 -0.852 -48.706 -5.188 -16.388 584.619 4065.202 -1993.251 -1.744 0.475 0.489 -0.12 -0.71 0.69 0.09
1 4.14 414 1.757 -9.793 -0.359 27.008 0.458 -27.832 599.609 4200.114 -1753.258 -2.054 0.006 -0.057 -0.12 -0.71 0.69 0.09
1 4.15 415 2.222 -9.165 0.287 52.796 4.334 -23.438 749.662 4275.215 -1753.258 -2.462 -0.624 -0.678 -0.12 -0.71 0.69 0.1
1 4.16 416 2.279 -8.342 0.838 54.596 13.214 -15.686 749.662 4275.215 -1753.258 -2.465 -1.451 -1.153 -0.12 -0.71 0.69 0.1
1 4.17 417 1.887 -7.724 1.212 26.520 31.860 -7.843 659.570 4185.124 -1738.268 -2.008 -2.074 -1.370 -0.11 -0.7 0.69 0.1
1 4.18 418 1.298 -7.757 1.231 0.183 38.178 -6.531 599.609 4125.163 -1678.307 -1.406 -2.041 -1.358 -0.12 -0.7 0.69 0.11
1 4.19 419 0.551 -8.078 0.929 -23.560 36.591 -8.850 599.609 4125.163 -1678.307 -0.646 -1.720 -1.064 -0.12 -0.7 0.69 0.11
1 4.20 420 0.101 -8.682 0.661 -38.178 31.098 -9.796 569.629 4170.133 -1753.258 -0.180 -1.116 -0.837 -0.12 -0.7 0.69 0.11
1 4.21 421 -0.096 -9.328 0.192 -38.300 23.682 -8.789 584.619 4185.124 -1708.287 0.034 -0.469 -0.426 -0.12 -0.71 0.69 0.11
1 4.22 422 0.225 -9.242 0.000 -23.834 21.668 -3.937 644.580 4050.211 -1903.310 -0.271 -0.554 -0.289 -0.12 -0.71 0.69 0.11
1 4.23 423 0.599 -9.271 0.034 -5.859 22.705 1.678 644.580 4050.211 -1903.310 -0.634 -0.524 -0.359 -0.12 -0.71 0.69 0.12
1 4.24 424 1.030 -8.715 0.144 10.712 26.001 3.693 599.609 4245.234 -1543.245 -1.057 -1.079 -0.470 -0.12 -0.71 0.69 0.12
1 4.25 425 1.202 -8.447 0.091 9.705 29.083 1.862 689.701 4185.124 -1783.238 -1.228 -1.348 -0.397 -0.13 -0.71 0.69 0.12
1 4.26 426 0.948 -8.390 0.259 1.831 31.830 -0.336 689.701 4185.124 -1783.238 -0.973 -1.406 -0.551 -0.13 -0.71 0.69 0.12
1 4.27 427 0.613 -8.375 -0.038 -10.864 31.891 -1.099 689.701 4230.244 -1918.300 -0.634 -1.420 -0.255 -0.13 -0.71 0.69 0.12
1 4.28 428 -0.010 -8.481 -0.393 -22.186 26.978 -1.495 614.600 4185.124 -1633.186 -0.006 -1.314 0.081 -0.13 -0.71 0.68 0.13
1 4.29 429 -0.244 -8.524 -0.397 -21.881 21.118 -2.441 689.701 4335.176 -1663.316 0.233 -1.270 0.056 -0.13 -0.71 0.68 0.13
1 4.30 430 -0.287 -8.691 -0.014 -15.106 18.036 -1.709 689.701 4335.176 -1663.316 0.283 -1.102 -0.359 -0.13 -0.71 0.68 0.13
1 4.31 431 -0.249 -8.801 -0.005 -6.653 20.050 2.380 644.580 4275.215 -1798.229 0.250 -0.991 -0.393 -0.13 -0.71 0.68 0.13
1 4.32 432 -0.254 -8.485 -0.057 0.977 30.029 14.282 764.652 4230.244 -1813.219 0.247 -1.306 -0.352 -0.14 -0.71 0.68 0.13
1 4.33 433 -0.326 -8.088 -0.057 3.754 34.943 20.477 764.652 4230.244 -1813.219 0.298 -1.704 -0.347 -0.14 -0.71 0.68 0.13
1 4.34 434 -0.239 -7.796 -0.402 4.211 35.828 23.377 719.681 4170.133 -1798.229 0.183 -1.996 0.005 -0.14 -0.71 0.68 0.13
1 4.35 435 -0.196 -7.413 -0.852 0.977 33.203 22.797 719.681 4170.133 -1798.229 0.109 -2.379 0.463 -0.14 -0.71 0.68 0.13
1 4.36 436 0.412 -7.145 -1.293 -6.134 28.351 21.454 734.671 4260.225 -1738.268 -0.530 -2.647 0.904 -0.15 -0.71 0.68 0.13
1 4.37 437 0.723 -7.384 -0.819 -9.522 30.884 22.675 734.671 4260.225 -1738.268 -0.870 -2.407 0.424 -0.15 -0.71 0.68 0.13
1 4.38 438 0.905 -7.700 -0.680 -13.855 34.027 25.238 734.671 4305.195 -1708.287 -1.082 -2.090 0.274 -0.15 -0.71 0.68 0.13
1 4.39 439 0.297 -8.404 -0.508 -18.677 36.194 27.313 764.652 4260.225 -1588.215 -0.543 -1.383 0.056 -0.16 -0.71 0.68 0.14
1 4.40 440 -0.656 -9.026 -0.713 -16.296 24.689 19.867 764.652 4260.225 -1588.215 0.374 -0.758 0.235 -0.16 -0.71 0.68 0.14
1 4.41 441 -1.164 -9.826 -0.503 -6.348 4.700 3.082 929.694 4200.114 -1678.307 0.860 0.044 0.002 -0.16 -0.71 0.68 0.14
1 4.42 442 -1.034 -9.773 -0.350 13.641 -18.524 -9.155 929.694 4200.114 -1678.307 0.727 -0.009 -0.153 -0.16 -0.71 0.68 0.14
1 4.43 443 -0.019 -8.888 -0.848 37.872 -29.846 -15.137 929.694 4275.215 -1618.196 -0.278 -0.897 0.377 -0.16 -0.71 0.68 0.13
1 4.44 444 0.704 -8.097 -1.446 37.232 -12.970 -14.099 929.694 4275.215 -1618.196 -0.982 -1.690 1.030 -0.16 -0.7 0.68 0.13
1 4.45 445 0.713 -7.791 -1.844 21.484 22.278 -10.376 929.694 4365.156 -1678.307 -0.968 -1.999 1.486 -0.16 -0.7 0.68 0.13
1 4.46 446 0.211 -8.299 -2.490 -1.740 58.594 -0.946 959.675 4455.248 -1783.238 -0.446 -1.493 2.173 -0.16 -0.7 0.68 0.14
1 4.47 447 -1.101 -10.803 -1.298 -33.539 79.499 20.538 959.675 4455.248 -1783.238 0.865 1.012 0.947 -0.16 -0.7 0.68 0.14
1 4.48 448 -2.136 -15.012 4.391 -42.816 78.797 25.635 779.642 4320.186 -1723.277 1.870 5.225 -4.804 -0.17 -0.7 0.68 0.14
1 4.49 449 -8.155 -18.063 0.086 -109.681 18.616 -52.429 779.642 4320.186 -1723.277 7.873 8.279 -0.581 -0.17 -0.7 0.67 0.15
1 4.50 450 -7.829 -17.411 -8.184 -127.686 -88.715 -153.382 929.694 4395.137 -1573.225 7.678 7.637 7.497 -0.17 -0.71 0.67 0.15
1 4.51 451 1.216 -13.034 -3.778 84.381 -164.704 -133.454 929.694 4395.137 -1573.225 -1.144 3.269 2.956 -0.16 -0.72 0.66 0.15
1 4.52 452 4.190 -11.244 -0.010 133.179 -95.459 -71.747 764.652 4305.195 -1633.186 -3.923 1.475 -0.733 -0.14 -0.72 0.66 0.15
1 4.53 453 4.061 -9.702 1.063 119.141 -1.465 -6.989 749.662 4470.238 -1468.293 -3.671 -0.075 -1.621 -0.13 -0.72 0.67 0.15
1 4.54 454 0.867 -10.573 2.260 41.901 54.291 21.332 749.662 4470.238 -1468.293 -0.443 0.789 -2.629 -0.13 -0.71 0.68 0.15
1 4.55 455 -2.773 -14.797 -2.682 -167.359 -66.162 -79.376 569.629 4365.156 -1978.261 3.225 5.014 2.328 -0.13 -0.71 0.68 0.15
1 4.56 456 1.523 -14.639 -2.969 -144.593 -163.758 -111.603 569.629 4365.156 -1978.261 -0.939 4.876 2.352 -0.12 -0.72 0.67 0.15
1 4.57 457 6.010 -15.338 -0.742 -33.814 -135.773 -87.891 674.561 4365.156 -1753.258 -5.279 5.599 -0.068 -0.11 -0.73 0.66 0.15
1 4.58 458 5.818 -14.284 1.231 99.366 4.334 4.730 524.658 4395.137 -1828.209 -4.991 4.555 -2.063 -0.1 -0.73 0.66 0.15
1 4.59 459 3.146 -12.565 1.949 133.179 69.885 46.539 449.557 4440.107 -1573.225 -2.304 2.827 -2.659 -0.09 -0.73 0.67 0.15
1 4.60 460 1.149 -11.066 2.476 120.087 80.506 57.190 254.684 4410.127 -1633.186 -0.357 1.312 -2.986 -0.1 -0.72 0.67 0.15
1 4.61 461 0.421 -9.194 3.596 47.913 40.894 26.764 254.684 4410.127 -1633.186 0.228 -0.583 -3.755 -0.11 -0.7 0.68 0.15
1 4.62 462 0.283 -8.749 3.472 4.486 18.951 -5.615 404.586 4305.195 -1738.268 0.341 -1.031 -3.544 -0.11 -0.7 0.69 0.15
1 4.63 463 0.062 -8.730 2.801 -14.801 17.273 -24.414 404.586 4305.195 -1738.268 0.578 -1.049 -2.846 -0.11 -0.7 0.69 0.16
1 4.64 464 -0.958 -8.658 1.824 -11.688 28.626 -25.330 479.688 4335.176 -1843.199 1.635 -1.119 -1.865 -0.11 -0.7 0.69 0.16
1 4.65 465 -2.868 -8.806 0.259 3.021 38.330 -15.350 614.600 4335.176 -1783.238 3.573 -0.968 -0.291 -0.11 -0.7 0.69 0.16
1 4.66 466 -3.390 -8.773 -0.326 3.662 15.106 -17.517 344.625 4365.156 -1933.291 4.102 -1.001 0.308 -0.11 -0.7 0.69 0.16
1 4.67 467 -2.480 -8.576 -0.560 4.974 -23.895 -26.032 419.577 4320.186 -1828.209 3.190 -1.198 0.554 -0.11 -0.7 0.69 0.16
1 4.68 468 -0.824 -8.629 0.072 3.204 -60.791 -37.109 419.577 4320.186 -1828.209 1.540 -1.145 -0.074 -0.11 -0.7 0.69 0.16
1 4.69 469 2.437 -9.778 1.911 -13.580 -67.902 -42.114 449.557 4365.156 -1978.261 -1.616 0.013 -1.925 -0.1 -0.7 0.69 0.16
1 4.70 470 3.654 -10.774 2.533 -21.698 -35.370 -25.391 449.557 4365.156 -1978.261 -2.765 1.015 -2.565 -0.1 -0.7 0.69 0.16
1 4.71 471 3.079 -10.616 1.839 -14.526 8.270 1.556 449.557 4200.114 -1873.180 -2.161 0.860 -1.904 -0.1 -0.7 0.69 0.16
1 4.72 472 1.063 -8.864 -0.101 18.616 40.680 20.233 359.616 4335.176 -1813.219 -0.153 -0.894 0.025 -0.1 -0.7 0.69 0.16
1 4.73 473 -0.134 -8.217 -0.417 35.187 39.246 15.930 419.577 4365.156 -1798.229 1.027 -1.542 0.374 -0.1 -0.7 0.69 0.16
1 4.74 474 -1.015 -7.973 -0.421 30.335 27.710 8.850 404.586 4305.195 -1918.300 1.884 -1.788 0.434 -0.1 -0.7 0.69 0.16
1 4.75 475 -1.427 -8.035 -0.292 8.362 12.512 2.319 404.586 4305.195 -1918.300 2.282 -1.727 0.360 -0.1 -0.7 0.69 0.17
1 4.76 476 -1.614 -8.639 -0.072 -24.170 -6.622 -0.977 374.606 4275.215 -2083.193 2.466 -1.124 0.153 -0.11 -0.7 0.69 0.17
1 4.77 477 -1.623 -9.137 -0.034 -30.731 -12.360 0.183 374.606 4275.215 -2083.193 2.479 -0.626 0.075 -0.11 -0.7 0.69 0.17
1 4.78 478 -1.427 -9.534 -0.134 -24.078 -14.618 4.517 344.625 4365.156 -1873.180 2.264 -0.230 0.130 -0.11 -0.7 0.69 0.16
1 4.79 479 -1.279 -9.788 -0.134 -10.986 -16.754 10.071 329.635 4410.127 -1963.271 2.091 0.022 0.098 -0.11 -0.7 0.69 0.16
1 4.80 480 -0.819 -9.869 -0.038 7.843 -19.714 16.083 329.635 4455.248 -1963.271 1.600 0.101 -0.010 -0.11 -0.7 0.69 0.16
1 4.81 481 -0.623 -9.443 -0.273 12.604 -22.644 16.083 449.557 4275.215 -1978.261 1.369 -0.328 0.233 -0.11 -0.7 0.69 0.16
1 4.82 482 -0.508 -9.165 -0.297 12.665 -29.511 12.543 449.557 4275.215 -1978.261 1.220 -0.609 0.274 -0.11 -0.7 0.69 0.16
1 4.83 483 -0.211 -8.883 0.000 11.169 -35.614 7.629 239.694 4365.156 -1903.310 0.872 -0.895 0.008 -0.1 -0.7 0.69 0.15
1 4.84 484 -0.029 -8.744 0.168 9.369 -36.102 6.470 239.694 4365.156 -1903.310 0.676 -1.035 -0.146 -0.1 -0.7 0.69 0.15
1 4.85 485 -0.168 -8.840 0.177 6.775 -33.753 5.219 359.616 4305.195 -1738.268 0.804 -0.939 -0.143 -0.1 -0.7 0.69 0.15
1 4.86 486 -0.206 -8.983 0.292 2.991 -31.952 4.517 449.557 4470.238 -1903.310 0.832 -0.797 -0.249 -0.1 -0.7 0.69 0.14
1 4.87 487 -0.493 -9.055 -0.101 -0.916 -33.264 2.106 434.567 4335.176 -1993.251 1.112 -0.725 0.145 -0.1 -0.7 0.69 0.14
1 4.88 488 -0.766 -9.003 -0.699 1.099 -38.361 0.305 269.674 4365.156 -2008.242 1.376 -0.778 0.741 -0.1 -0.7 0.69 0.14
1 4.89 489 -0.934 -8.902 -0.977 8.789 -45.807 -4.150 269.674 4365.156 -2008.242 1.536 -0.879 1.015 -0.09 -0.7 0.69 0.14
1 4.90 490 -0.977 -8.418 -1.283 17.639 -52.765 -8.087 239.694 4440.107 -1933.291 1.575 -1.363 1.323 -0.09 -0.7 0.7 0.14
1 4.91 491 -0.819 -7.504 -1.326 25.024 -62.958 -13.763 239.694 4440.107 -1933.291 1.444 -2.276 1.412 -0.09 -0.7 0.7 0.13
1 4.92 492 -0.627 -6.934 -0.982 24.170 -62.988 -15.167 284.665 4380.146 -1888.320 1.276 -2.844 1.101 -0.08 -0.7 0.7 0.13
1 4.93 493 -0.464 -6.699 -0.637 14.801 -56.549 -15.595 284.665 4380.146 -1888.320 1.139 -3.076 0.785 -0.08 -0.7 0.7 0.13
1 4.94 494 -0.603 -6.532 -0.594 -2.960 -45.258 -12.939 239.694 4395.137 -1933.291 1.304 -3.242 0.754 -0.07 -0.7 0.7 0.12
1 4.95 495 -0.737 -6.833 -0.867 -36.255 -31.983 -7.538 314.645 4500.218 -2008.242 1.459 -2.939 1.012 -0.07 -0.7 0.7 0.12
1 4.96 496 -0.627 -7.422 -0.862 -52.796 -31.891 -4.791 314.645 4500.218 -2008.242 1.364 -2.349 0.959 -0.07 -0.7 0.7 0.12
1 4.97 497 0.048 -8.509 -0.536 -59.509 -29.724 -3.326 209.563 4380.146 -1993.251 0.699 -1.262 0.558 -0.07 -0.7 0.7 0.12
1 4.98 498 1.044 -9.946 -0.761 -50.263 -18.280 7.019 209.563 4380.146 -1993.251 -0.291 0.176 0.605 -0.06 -0.71 0.69 0.12
1 4.99 499 1.269 -10.276 -1.451 -29.205 -7.233 14.923 239.694 4365.156 -1903.310 -0.527 0.507 1.223 -0.06 -0.71 0.69 0.12
1 5.00 500 1.312 -9.946 -2.485 -0.214 -3.021 19.531 239.694 4365.156 -1873.180 -0.589 0.176 2.217 -0.07 -0.71 0.69 0.11
1 5.01 501 1.537 -9.592 -2.950 27.344 -0.702 21.393 239.694 4365.156 -1873.180 -0.838 -0.180 2.678 -0.07 -0.71 0.69 0.11
1 5.02 502 1.417 -8.663 -3.055 51.453 1.465 26.459 119.622 4470.238 -1828.209 -0.744 -1.111 2.814 -0.07 -0.71 0.69 0.11
1 5.03 503 0.575 -9.089 0.273 54.291 1.190 25.635 119.622 4470.238 -1828.209 0.070 -0.688 -0.460 -0.07 -0.71 0.69 0.11
1 5.04 504 2.610 -14.122 4.927 33.325 -16.602 26.184 149.603 4590.160 -1993.251 -1.998 4.341 -5.051 -0.07 -0.71 0.69 0.11
1 5.05 505 6.589 -20.739 3.103 -229.127 -0.793 166.749 149.603 4590.160 -1993.251 -6.136 10.951 -3.281 -0.07 -0.71 0.69 0.1
1 5.06 506 5.497 -16.329 0.187 -183.747 33.325 161.866 254.684 4515.208 -1993.251 -5.305 6.545 -0.718 -0.08 -0.72 0.68 0.09
1 5.07 507 4.602 -12.790 -2.083 22.888 80.567 83.313 284.665 4410.127 -1918.300 -4.617 3.017 1.353 -0.1 -0.73 0.67 0.09
1 5.08 508 2.461 -8.265 -2.586 150.696 67.566 29.663 404.586 4485.228 -1633.186 -2.569 -1.514 1.952 -0.1 -0.72 0.68 0.09
1 5.09 509 0.819 -6.809 -0.283 173.951 63.111 2.014 449.557 4695.241 -1723.277 -0.941 -2.982 -0.116 -0.11 -0.71 0.69 0.09
1 5.10 510 -2.897 -10.597 1.614 30.975 83.954 16.083 449.557 4695.241 -1723.277 2.778 0.799 -1.765 -0.11 -0.7 0.69 0.1
1 5.11 511 -6.536 -13.384 0.718 -165.619 94.513 54.016 434.567 4410.127 -1888.320 6.405 3.585 -0.765 -0.11 -0.7 0.7 0.1
1 5.12 512 -6.824 -13.154 0.589 -189.118 31.647 17.242 434.567 4410.127 -1888.320 6.557 3.374 -1.155 -0.13 -0.72 0.68 0.1
1 5.13 513 -5.339 -14.203 0.053 -50.781 -5.005 -22.369 509.668 4455.248 -1813.219 5.069 4.439 -0.852 -0.13 -0.72 0.67 0.1
1 5.14 514 -3.529 -14.246 -0.503 54.291 -52.826 -6.531 659.570 4485.228 -1888.320 3.291 4.484 -0.324 -0.13 -0.73 0.67 0.1
1 5.15 515 -1.279 -12.244 0.915 95.795 -76.325 24.780 659.570 4485.228 -1888.320 1.031 2.474 -1.636 -0.12 -0.72 0.67 0.1
1 5.16 516 1.499 -9.812 2.327 89.234 -41.535 35.767 524.658 4725.222 -1678.307 -1.796 0.033 -2.895 -0.12 -0.72 0.68 0.09
1 5.17 517 2.045 -10.085 2.461 39.551 -11.475 36.530 524.658 4725.222 -1678.307 -2.394 0.300 -2.872 -0.12 -0.71 0.69 0.09
1 5.18 518 2.279 -10.918 2.275 -30.548 3.693 47.486 599.609 4575.169 -1723.277 -2.666 1.130 -2.581 -0.12 -0.71 0.69 0.09
1 5.19 519 2.543 -11.129 1.887 -76.447 11.993 54.047 599.609 4575.169 -1723.277 -2.986 1.344 -2.200 -0.12 -0.71 0.69 0.09
1 5.20 520 2.313 -10.664 0.311 -41.718 28.046 23.041 734.671 4455.248 -1888.320 -2.895 0.895 -0.833 -0.13 -0.71 0.68 0.08
1 5.21 521 1.628 -10.559 -0.014 9.613 40.527 1.129 659.570 4635.130 -1843.199 -2.232 0.794 -0.551 -0.13 -0.72 0.68 0.08
1 5.22 522 0.963 -10.324 0.091 39.398 47.119 -8.301 659.570 4635.130 -1843.199 -1.540 0.556 -0.626 -0.13 -0.71 0.68 0.08
1 5.23 523 0.225 -9.778 0.273 41.657 45.777 -12.970 824.613 4500.218 -1618.196 -0.769 0.005 -0.744 -0.13 -0.71 0.68 0.09
1 5.24 524 -0.330 -8.955 0.551 20.783 29.907 -17.761 734.671 4515.208 -1738.268 -0.182 -0.823 -0.959 -0.13 -0.71 0.69 0.09
1 5.25 525 -0.436 -8.538 0.484 3.143 16.449 -18.463 929.694 4605.150 -1873.180 -0.044 -1.243 -0.849 -0.13 -0.71 0.69 0.1
1 5.26 526 -0.378 -8.346 0.235 -9.796 6.287 -18.646 929.694 4605.150 -1873.180 -0.071 -1.437 -0.585 -0.13 -0.71 0.69 0.1
1 5.27 527 -0.445 -8.610 0.062 -14.496 -2.747 -17.914 854.593 4575.169 -1903.310 0.056 -1.175 -0.442 -0.13 -0.71 0.69 0.1
1 5.28 528 -0.321 -8.955 0.340 -9.491 -1.984 -15.930 764.652 4740.212 -1843.199 -0.040 -0.831 -0.738 -0.13 -0.71 0.69 0.1
1 5.29 529 -0.005 -9.055 0.383 -1.068 2.106 -10.132 764.652 4740.212 -1843.199 -0.333 -0.731 -0.788 -0.13 -0.71 0.68 0.1
1 5.30 530 0.206 -9.146 0.474 7.355 6.165 -1.312 689.701 4515.208 -1963.271 -0.528 -0.640 -0.870 -0.13 -0.71 0.69 0.1
1 5.31 531 0.546 -8.476 0.306 14.710 7.294 4.883 764.652 4560.179 -1963.271 -0.864 -1.312 -0.681 -0.13 -0.71 0.69 0.1
1 5.32 532 0.785 -8.069 0.345 15.808 8.484 2.167 719.681 4530.199 -1828.209 -1.106 -1.720 -0.694 -0.13 -0.71 0.69 0.1
1 5.33 533 1.168 -7.983 0.364 11.810 11.261 -3.845 719.681 4530.199 -1828.209 -1.492 -1.807 -0.689 -0.13 -0.71 0.69 0.1
1 5.34 534 0.924 -8.093 0.287 -1.160 18.799 -8.667 599.609 4530.199 -1978.261 -1.229 -1.698 -0.581 -0.13 -0.71 0.69 0.11
1 5.35 535 0.733 -8.428 -0.062 -8.911 20.752 -8.942 809.623 4590.160 -1993.251 -1.022 -1.363 -0.235 -0.13 -0.71 0.69 0.11
1 5.36 536 0.330 -8.701 -0.144 -9.705 20.294 -8.881 809.623 4590.160 -1993.251 -0.603 -1.090 -0.167 -0.13 -0.71 0.69 0.11
1 5.37 537 0.187 -8.888 -0.374 -3.387 17.731 -7.385 749.662 4470.238 -1903.310 -0.445 -0.904 0.051 -0.13 -0.71 0.69 0.11
1 5.38 538 -0.067 -8.878 -0.350 5.890 16.449 -4.852 824.613 4650.121 -1903.310 -0.177 -0.914 0.025 -0.13 -0.71 0.69 0.11
1 5.39 539 -0.048 -8.816 -0.426 20.477 20.874 0.549 839.603 4590.160 -1888.320 -0.186 -0.976 0.115 -0.13 -0.71 0.69 0.11
1 5.40 540 0.120 -8.629 -0.292 26.947 26.367 3.998 839.603 4590.160 -1888.320 -0.349 -1.164 0.008 -0.13 -0.7 0.69 0.11
1 5.41 541 0.158 -8.528 -0.182 27.527 30.274 6.470 779.642 4530.199 -1933.291 -0.389 -1.266 -0.063 -0.13 -0.7 0.69 0.12
1 5.42 542 0.053 -8.150 -0.278 19.226 32.318 11.749 674.561 4845.144 -1933.291 -0.302 -1.645 0.113 -0.14 -0.7 0.69 0.12
1 5.43 543 0.034 -7.868 -0.407 9.338 30.579 13.062 674.561 4845.144 -1933.291 -0.298 -1.928 0.268 -0.14 -0.7 0.69 0.12
1 5.44 544 0.220 -7.872 -0.709 0.641 28.778 12.543 839.603 4455.248 -2068.203 -0.502 -1.923 0.581 -0.14 -0.7 0.69 0.12
1 5.45 545 0.484 -7.743 -0.886 -5.341 28.504 13.947 884.574 4590.160 -2023.232 -0.783 -2.051 0.757 -0.14 -0.7 0.69 0.12
1 5.46 546 0.532 -7.743 -1.044 -9.644 32.288 17.731 899.564 4605.150 -1978.261 -0.850 -2.051 0.906 -0.15 -0.7 0.69 0.12
1 5.47 547 0.517 -7.786 -1.116 -10.925 35.645 21.393 899.564 4605.150 -1978.261 -0.859 -2.007 0.963 -0.15 -0.7 0.69 0.12
1 5.48 548 0.699 -7.983 -0.867 -11.841 38.452 25.604 884.574 4665.111 -2098.183 -1.069 -1.809 0.698 -0.15 -0.7 0.69 0.12
1 5.49 549 0.115 -8.299 -0.982 -23.529 42.633 27.588 1079.597 4695.241 -1903.310 -0.558 -1.489 0.767 -0.16 -0.7 0.69 0.12
1 5.50 550 -0.771 -9.395 -0.943 -29.724 37.171 24.445 1079.597 4695.241 -1903.310 0.291 -0.390 0.690 -0.16 -0.7 0.69 0.13
1 5.51 551 -2.160 -10.477 -0.675 -32.105 13.031 12.329 899.564 4575.169 -1978.261 1.648 0.695 0.372 -0.17 -0.7 0.68 0.12
1 5.52 552 -2.155 -11.493 0.029 -18.158 -25.086 -5.615 1019.636 4665.111 -1963.271 1.624 1.713 -0.378 -0.17 -0.7 0.68 0.12
1 5.53 553 -1.068 -10.937 -0.105 9.735 -57.221 -19.226 989.655 4485.228 -2023.232 0.551 1.157 -0.257 -0.16 -0.7 0.68 0.12
1 5.54 554 1.140 -9.390 -0.445 40.711 -45.319 -18.494 989.655 4485.228 -2023.232 -1.627 -0.392 0.114 -0.16 -0.7 0.68 0.12
1 5.55 555 1.279 -8.787 -1.058 36.438 -0.916 -6.195 884.574 4590.160 -1963.271 -1.731 -0.999 0.790 -0.16 -0.7 0.69 0.12
1 5.56 556 -0.350 -8.370 -2.758 9.552 68.238 5.951 914.554 4560.179 -2023.232 -0.067 -1.419 2.580 -0.15 -0.7 0.69 0.12
1 5.57 557 -1.571 -8.921 -3.017 -3.815 87.708 12.451 914.554 4560.179 -2023.232 1.146 -0.868 2.844 -0.16 -0.7 0.69 0.13
1 5.58 558 -2.294 -11.339 0.848 -11.810 90.515 19.440 974.665 4575.169 -2008.242 1.846 1.552 -1.055 -0.16 -0.7 0.69 0.13
1 5.59 559 -5.631 -14.385 2.088 -44.617 59.784 11.475 1019.636 4635.130 -1918.300 5.151 4.600 -2.330 -0.17 -0.7 0.69 0.13
1 5.60 560 -7.485 -14.979 -5.138 -129.670 -80.261 -127.503 1094.587 4590.160 -2023.232 7.020 5.196 4.798 -0.17 -0.7 0.68 0.13
1 5.61 561 -2.835 -13.102 -5.560 -47.028 -142.823 -152.802 1094.587 4590.160 -2023.232 2.528 3.320 5.034 -0.16 -0.71 0.67 0.14
1 5.62 562 1.532 -12.412 -3.117 31.555 -137.024 -138.581 1139.558 4590.160 -1963.271 -1.624 2.633 2.490 -0.15 -0.71 0.67 0.13
1 5.63 563 3.697 -11.545 -1.987 70.648 -87.372 -89.447 1004.646 4725.222 -1903.310 -3.584 1.765 1.384 -0.14 -0.72 0.67 0.14
1 5.64 564 3.682 -10.224 -0.862 73.090 -6.409 0.854 1004.646 4725.222 -1903.310 -3.361 0.437 0.471 -0.12 -0.71 0.68 0.14
1 5.65 565 1.686 -11.598 0.876 24.384 16.602 16.235 779.642 4800.173 -1978.261 -1.375 1.807 -1.169 -0.12 -0.71 0.68 0.14
1 5.66 566 0.034 -13.758 -0.512 -70.679 -29.633 -28.839 434.567 4590.160 -1918.300 0.267 3.966 0.226 -0.12 -0.71 0.68 0.14
1 5.67 567 1.212 -14.026 -2.356 -109.528 -118.531 -68.756 644.580 4695.241 -2083.193 -0.850 4.241 1.935 -0.12 -0.71 0.68 0.14
1 5.68 568 6.062 -13.829 0.029 0.275 -133.973 -71.442 644.580 4695.241 -2083.193 -5.601 4.057 -0.601 -0.11 -0.72 0.67 0.13
1 5.69 569 7.475 -13.968 2.279 66.193 -59.143 -34.241 599.609 4695.241 -1903.310 -6.913 4.204 -2.894 -0.09 -0.72 0.67 0.13
1 5.70 570 5.976 -12.910 3.357 94.513 24.963 13.062 419.577 4875.124 -1873.180 -5.352 3.145 -3.899 -0.09 -0.72 0.68 0.13
1 5.71 571 2.112 -10.506 3.386 85.205 89.142 56.305 419.577 4875.124 -1873.180 -1.543 0.726 -3.638 -0.09 -0.71 0.69 0.13
1 5.72 572 0.148 -9.113 3.165 53.223 86.182 51.270 344.625 4770.192 -1873.180 0.339 -0.674 -3.291 -0.1 -0.7 0.69 0.13
1 5.73 573 -1.561 -8.457 2.576 17.304 68.329 21.149 359.616 4860.134 -2098.183 1.986 -1.334 -2.604 -0.1 -0.7 0.69 0.13
1 5.74 574 -2.787 -8.059 1.317 -6.042 42.816 -16.144 359.616 4860.134 -2098.183 3.184 -1.733 -1.302 -0.11 -0.7 0.69 0.14
1 5.75 575 -3.692 -8.356 -0.239 -7.568 4.974 -36.316 419.577 4605.150 -2128.313 4.125 -1.434 0.246 -0.11 -0.7 0.69 0.14
1 5.76 576 -3.309 -8.241 -0.053 3.876 -11.353 -32.410 479.688 4590.160 -2173.284 3.768 -1.548 0.051 -0.11 -0.7 0.69 0.14
1 5.77 577 -2.653 -8.447 0.546 15.869 -19.226 -27.618 449.557 4770.192 -2158.294 3.133 -1.341 -0.547 -0.11 -0.7 0.69 0.14
1 5.78 578 -1.221 -8.509 1.039 14.252 -40.253 -29.175 449.557 4770.192 -2158.294 1.751 -1.276 -0.991 -0.1 -0.7 0.69 0.14
1 5.79 579 0.120 -9.070 1.528 -3.601 -57.343 -33.569 479.688 4635.130 -2143.304 0.457 -0.713 -1.465 -0.1 -0.7 0.7 0.14
1 5.80 580 1.882 -9.773 1.628 -27.496 -59.052 -32.440 449.557 4650.121 -2188.274 -1.258 -0.006 -1.574 -0.09 -0.7 0.7 0.14
1 5.81 581 3.505 -10.621 1.547 -42.053 -37.781 -18.097 449.557 4650.121 -2188.274 -2.829 0.844 -1.533 -0.09 -0.7 0.69 0.14
1 5.82 582 3.563 -11.133 1.001 -32.288 -1.770 5.341 374.606 4695.241 -2128.313 -2.866 1.358 -1.051 -0.09 -0.7 0.69 0.14
1 5.83 583 1.930 -10.181 0.201 18.311 33.630 26.825 314.645 4605.150 -2053.212 -1.248 0.405 -0.287 -0.09 -0.7 0.69 0.14
1 5.84 584 0.555 -9.247 0.263 42.725 34.241 24.017 239.694 4770.192 -2008.242 0.091 -0.532 -0.330 -0.09 -0.7 0.69 0.14
1 5.85 585 -0.474 -8.883 0.488 42.877 25.116 14.679 239.694 4770.192 -2008.242 1.091 -0.898 -0.492 -0.09 -0.7 0.69 0.14
1 5.86 586 -1.566 -8.562 0.330 13.489 3.632 6.012 359.616 4665.111 -2173.284 2.140 -1.220 -0.209 -0.1 -0.7 0.7 0.14
1 5.87 587 -1.791 -8.572 0.134 -6.805 -7.965 6.531 359.616 4785.183 -2098.183 2.358 -1.211 0.001 -0.1 -0.7 0.7 0.14
1 5.88 588 -1.686 -8.744 -0.014 -18.799 -14.526 8.911 359.616 4785.183 -2098.183 2.243 -1.039 0.135 -0.1 -0.7 0.7 0.14
1 5.89 589 -1.446 -9.017 -0.053 -17.487 -17.853 11.719 524.658 4605.150 -2263.226 1.983 -0.768 0.144 -0.1 -0.7 0.7 0.14
1 5.90 590 -0.924 -9.429 0.182 -5.188 -18.250 17.700 374.606 4575.169 -2188.274 1.427 -0.358 -0.114 -0.1 -0.7 0.7 0.13
1 5.91 591 -0.431 -9.592 0.225 0.031 -14.496 21.179 329.635 4710.231 -2098.183 0.898 -0.197 -0.167 -0.1 -0.7 0.7 0.13
1 5.92 592 -0.292 -9.534 0.048 0.946 -12.360 22.492 329.635 4710.231 -2098.183 0.721 -0.256 0.010 -0.1 -0.7 0.7 0.13
1 5.93 593 -0.287 -9.242 -0.129 6.042 -12.939 19.714 374.606 4845.144 -2053.212 0.642 -0.551 0.194 -0.1 -0.7 0.7 0.13
1 5.94 594 -0.148 -9.070 -0.072 11.505 -15.167 15.228 479.688 4860.134 -2098.183 0.472 -0.725 0.148 -0.1 -0.7 0.7 0.12
1 5.95 595 -0.010 -8.868 -0.134 16.235 -15.625 11.719 479.688 4860.134 -2098.183 0.310 -0.926 0.229 -0.1 -0.7 0.7 0.12
1 5.96 596 -0.163 -8.739 -0.239 16.052 -15.625 9.735 479.688 4785.183 -2098.183 0.446 -1.056 0.359 -0.1 -0.7 0.7 0.12
1 5.97 597 -0.129 -8.643 -0.474 12.085 -16.480 6.989 434.567 4740.212 -1993.251 0.400 -1.152 0.618 -0.1 -0.69 0.7 0.12
1 5.98 598 -0.283 -8.686 -0.709 4.486 -20.996 0.885 449.557 4725.222 -2233.245 0.547 -1.109 0.869 -0.1 -0.69 0.7 0.12
1 5.99 599 -0.259 -8.648 -0.943 2.258 -24.811 -3.540 449.557 4725.222 -2233.245 0.522 -1.147 1.113 -0.1 -0.69 0.7 0.12
1 6.00 600 -0.417 -8.490 -1.183 6.989 -28.595 -7.324 419.577 4695.241 -2083.193 0.696 -1.304 1.364 -0.09 -0.69 0.7 0.12
1 6.01 601 -0.642 -8.117 -1.346 11.749 -33.264 -12.207 479.688 4590.160 -2098.183 0.936 -1.677 1.540 -0.09 -0.69 0.7 0.11
1 6.02 602 -0.656 -7.753 -1.499 10.254 -39.795 -16.998 479.688 4590.160 -2098.183 0.973 -2.040 1.711 -0.09 -0.69 0.71 0.11
1 6.03 603 -0.848 -7.446 -1.393 3.632 -48.157 -22.369 344.625 4725.222 -2188.274 1.195 -2.345 1.618 -0.08 -0.69 0.71 0.11
1 6.04 604 -0.728 -7.379 -1.207 -15.259 -57.404 -29.419 254.684 4710.231 -2173.284 1.115 -2.411 1.432 -0.08 -0.69 0.71 0.11
1 6.05 605 -0.503 -7.772 -0.388 -28.900 -53.650 -29.572 329.635 4710.231 -2173.284 0.936 -2.016 0.594 -0.08 -0.7 0.71 0.11
1 6.06 606 -0.570 -8.375 0.101 -39.642 -41.748 -27.557 329.635 4710.231 -2173.284 1.051 -1.412 0.065 -0.07 -0.7 0.7 0.11
1 6.07 607 -0.498 -8.754 -0.134 -45.990 -35.339 -18.005 269.674 4725.222 -2128.313 1.024 -1.032 0.242 -0.07 -0.7 0.7 0.11
1 6.08 608 -0.249 -9.156 -0.488 -39.612 -27.924 -2.777 89.642 4605.150 -2233.245 0.819 -0.628 0.458 -0.06 -0.71 0.7 0.1
1 6.09 609 0.129 -9.778 -0.527 -25.604 -21.790 1.251 89.642 4605.150 -2233.245 0.439 -0.005 0.438 -0.06 -0.71 0.7 0.1
1 6.10 610 0.374 -9.955 -0.752 -7.935 -15.167 9.674 149.603 4665.111 -2173.284 0.186 0.172 0.628 -0.06 -0.71 0.7 0.1
1 6.11 611 0.330 -9.429 -1.729 9.918 -11.841 17.639 209.563 4815.163 -1993.251 0.211 -0.355 1.597 -0.06 -0.71 0.7 0.1
1 6.12 612 0.757 -8.878 -2.797 31.860 -11.139 22.492 179.583 4740.212 -1993.251 -0.244 -0.908 2.676 -0.06 -0.71 0.7 0.1
1 6.13 613 1.221 -8.792 -3.175 37.842 -9.003 24.719 179.583 4740.212 -1993.251 -0.739 -0.996 3.081 -0.06 -0.71 0.7 0.1
1 6.14 614 1.302 -8.720 -3.295 31.891 -3.418 27.557 209.563 4785.183 -2068.203 -0.852 -1.069 3.236 -0.06 -0.71 0.7 0.09
1 6.15 615 0.340 -8.720 -1.868 0.977 -5.341 20.416 104.632 4905.104 -2023.232 0.048 -1.072 1.844 -0.06 -0.71 0.7 0.09
1 6.16 616 0.579 -12.187 4.171 -19.989 -8.606 9.827 104.632 4905.104 -2023.232 -0.216 2.394 -4.218 -0.06 -0.71 0.7 0.09
1 6.17 617 6.105 -20.471 6.359 -89.905 -1.770 49.469 194.573 4695.241 -2083.193 -5.761 10.678 -6.446 -0.06 -0.71 0.7 0.09
1 6.18 618 5.909 -19.336 0.474 -206.757 25.910 150.513 194.573 4695.241 -2083.193 -5.680 9.543 -0.752 -0.07 -0.71 0.69 0.08
1 6.19 619 3.644 -14.854 -1.801 -24.231 83.496 99.243 119.622 4845.144 -2053.212 -3.644 5.071 1.233 -0.08 -0.72 0.68 0.08
1 6.20 620 1.896 -10.679 -2.174 123.749 82.489 46.753 119.622 4845.144 -2053.212 -2.064 0.903 1.505 -0.09 -0.73 0.68 0.07
1 6.21 621 0.536 -7.825 -0.565 174.775 44.495 12.756 434.567 4860.134 -1783.238 -0.782 -1.958 0.032 -0.1 -0.72 0.68 0.08
1 6.22 622 -0.158 -8.825 1.896 133.088 35.706 7.355 434.567 -4843.794 -1993.251 -0.115 -0.971 -1.956 -0.1 -0.7 0.7 0.08
1 6.23 623 -5.033 -13.489 2.758 -128.693 92.346 62.592 434.567 -4843.794 -1993.251 4.716 3.695 -2.780 -0.11 -0.7 0.7 0.08
1 6.24 624 -7.427 -12.920 0.139 -228.822 69.275 58.747 614.600 4710.231 -2098.183 7.013 3.132 -0.414 -0.12 -0.71 0.69 0.08
1 6.25 625 -6.278 -13.298 -0.287 -151.581 10.193 3.357 614.600 4710.231 -2098.183 5.801 3.528 -0.318 -0.12 -0.72 0.68 0.08
1 6.26 626 -4.042 -13.968 -0.685 -13.825 -41.596 -23.590 614.600 4905.104 -1843.199 3.577 4.210 -0.093 -0.12 -0.72 0.67 0.08
1 6.27 627 -0.048 -12.407 1.049 103.119 -78.888 4.852 614.600 4905.104 -1843.199 -0.391 2.646 -1.800 -0.12 -0.72 0.67 0.08
1 6.28 628 1.590 -10.741 2.083 108.002 -48.706 22.369 779.642 -4678.752 -1873.180 -2.033 0.970 -2.690 -0.11 -0.72 0.68 0.07
1 6.29 629 1.676 -9.544 2.188 76.386 -3.296 33.447 734.671 -4768.843 -1918.300 -2.150 -0.235 -2.625 -0.11 -0.71 0.69 0.07
1 6.30 630 0.364 -9.405 1.575 0.549 18.860 37.567 734.671 -4768.843 -1918.300 -0.913 -0.377 -1.791 -0.11 -0.71 0.7 0.07
1 6.31 631 0.575 -10.248 1.408 -45.227 4.822 31.342 584.619 -4843.794 -1963.271 -1.168 0.468 -1.626 -0.11 -0.71 0.7 0.07
1 6.32 632 1.235 -10.851 0.838 -66.101 -7.019 22.888 584.619 -4843.794 -1963.271 -1.863 1.075 -1.121 -0.11 -0.71 0.69 0.07
1 6.33 633 1.887 -10.789 0.479 -49.835 2.197 15.778 719.681 4800.173 -1873.180 -2.539 1.017 -0.850 -0.12 -0.71 0.69 0.07
1 6.34 634 1.470 -10.137 -0.129 4.059 36.377 5.127 719.681 4800.173 -1873.180 -2.141 0.370 -0.303 -0.12 -0.71 0.69 0.06
1 6.35 635 0.771 -9.587 -0.306 29.938 45.563 -3.693 749.662 -4903.755 -1903.310 -1.440 -0.181 -0.131 -0.12 -0.71 0.69 0.07
1 6.36 636 0.364 -8.955 -0.158 37.964 39.459 -12.146 719.681 -4828.804 -2053.212 -1.011 -0.816 -0.245 -0.12 -0.71 0.69 0.07
1 6.37 637 0.259 -8.169 0.158 31.983 20.752 -19.806 719.681 -4828.804 -2053.212 -0.846 -1.609 -0.453 -0.12 -0.71 0.69 0.08
1 6.38 638 0.388 -7.992 0.436 21.484 14.252 -21.912 779.642 4845.144 -1723.277 -0.942 -1.789 -0.686 -0.12 -0.71 0.69 0.08
1 6.39 639 0.469 -7.901 0.383 9.003 13.489 -21.118 779.642 4845.144 -1723.277 -0.989 -1.883 -0.605 -0.12 -0.7 0.69 0.08
1 6.40 640 0.359 -8.030 0.627 -3.113 16.724 -18.250 734.671 4905.104 -1918.300 -0.846 -1.755 -0.840 -0.12 -0.7 0.69 0.08
1 6.41 641 -0.014 -8.260 0.517 -9.766 20.050 -14.923 734.671 4905.104 -1918.300 -0.444 -1.527 -0.737 -0.12 -0.71 0.69 0.08
1 6.42 642 -0.101 -8.701 0.522 -6.256 20.386 -9.369 659.570 4860.134 -1813.219 -0.334 -1.087 -0.757 -0.12 -0.71 0.69 0.09
1 6.43 643 0.101 -8.763 0.306 0.122 19.104 -5.188 659.570 4860.134 -1993.251 -0.517 -1.025 -0.553 -0.12 -0.71 0.69 0.09
1 6.44 644 0.642 -8.380 0.311 10.681 21.149 -2.045 659.570 4860.134 -1993.251 -1.039 -1.409 -0.549 -0.12 -0.71 0.69 0.09
1 6.45 645 0.881 -8.184 0.268 12.909 25.543 -1.068 749.662 4845.144 -1933.291 -1.273 -1.606 -0.488 -0.12 -0.7 0.69 0.09
1 6.46 646 0.977 -7.949 0.134 9.155 28.839 -2.991 749.662 4845.144 -1933.291 -1.365 -1.841 -0.335 -0.12 -0.7 0.69 0.09
1 6.47 647 0.886 -8.050 0.067 3.082 29.785 -5.859 674.561 4875.124 -1798.229 -1.265 -1.741 -0.257 -0.12 -0.7 0.69 0.09
1 6.48 648 0.589 -8.208 -0.077 -6.622 28.595 -7.294 824.613 4725.222 -1978.261 -0.956 -1.584 -0.112 -0.13 -0.7 0.69 0.1
1 6.49 649 0.259 -8.294 -0.378 -9.918 27.222 -7.813 719.681 4800.173 -2053.212 -0.612 -1.498 0.182 -0.13 -0.7 0.69 0.1
1 6.50 650 -0.019 -8.615 -0.666 -9.552 26.856 -7.568 644.580 4800.173 -1933.291 -0.321 -1.177 0.456 -0.13 -0.7 0.69 0.1
1 6.51 651 -0.364 -8.825 -0.661 -7.019 25.848 -5.737 644.580 4800.173 -1933.291 0.038 -0.967 0.437 -0.13 -0.7 0.69 0.1
1 6.52 652 -0.800 -8.754 -0.781 0.244 23.865 -3.082 809.623 4815.163 -1963.271 0.495 -1.039 0.537 -0.13 -0.7 0.69 0.11
1 6.53 653 -0.872 -8.672 -0.781 4.791 19.714 -0.916 809.623 4815.163 -1963.271 0.571 -1.120 0.538 -0.13 -0.7 0.69 0.11
1 6.54 654 -0.800 -8.442 -0.747 4.913 17.090 2.533 644.580 4845.144 -1933.291 0.502 -1.350 0.514 -0.13 -0.7 0.69 0.11
1 6.55 655 -0.627 -8.256 -0.761 1.282 16.541 7.202 719.681 4800.173 -2008.242 0.326 -1.537 0.536 -0.13 -0.7 0.69 0.11
1 6.56 656 -0.144 -7.872 -1.121 -12.421 18.433 13.062 779.642 4875.124 -1723.277 -0.168 -1.920 0.895 -0.13 -0.7 0.69 0.11
1 6.57 657 -0.311 -7.777 -1.250 -19.745 21.149 16.663 734.671 4905.104 -1888.320 -0.016 -2.015 1.010 -0.14 -0.7 0.69 0.11
1 6.58 658 -0.484 -7.781 -1.513 -25.086 22.064 16.510 734.671 4905.104 -1888.320 0.135 -2.009 1.247 -0.14 -0.7 0.69 0.11
1 6.59 659 -0.350 -7.753 -1.853 -24.292 15.564 14.313 734.671 -4888.765 -2023.232 -0.042 -2.034 1.513 -0.14 -0.71 0.69 0.11
1 6.60 660 -0.211 -8.279 -1.666 -20.508 15.595 14.069 734.671 -4888.765 -2023.232 -0.200 -1.505 1.292 -0.14 -0.71 0.68 0.11
1 6.61 661 -0.259 -8.979 -1.082 -20.264 16.724 15.564 824.613 4800.173 -1828.209 -0.171 -0.804 0.677 -0.14 -0.71 0.68 0.11
1 6.62 662 -0.872 -10.118 -0.230 -21.484 11.047 17.090 959.675 4815.163 -1783.238 0.421 0.338 -0.208 -0.15 -0.71 0.68 0.11
1 6.63 663 -1.523 -11.770 0.508 -17.670 -27.466 3.204 764.652 4815.163 -1813.219 1.048 1.993 -0.976 -0.15 -0.71 0.68 0.11
1 6.64 664 -0.761 -11.435 0.388 -0.885 -61.157 -9.613 1019.636 4905.104 -1738.268 0.273 1.660 -0.881 -0.15 -0.71 0.68 0.11
1 6.65 665 0.900 -10.310 0.081 20.416 -74.768 -16.571 1019.636 4905.104 -1738.268 -1.381 0.534 -0.578 -0.14 -0.71 0.68 0.1
1 6.66 666 2.519 -8.835 -1.279 32.959 -32.257 -10.773 749.662 4875.124 -1828.209 -2.946 -0.947 0.867 -0.13 -0.71 0.69 0.1
1 6.67 667 2.169 -8.471 -2.217 25.421 27.161 0.427 749.662 4875.124 -1828.209 -2.564 -1.314 1.851 -0.13 -0.71 0.69 0.1
1 6.68 668 0.445 -9.390 -1.188 16.693 85.602 16.632 839.603 4785.183 -1783.238 -0.821 -0.396 0.842 -0.13 -0.71 0.69 0.1
1 6.69 669 -2.926 -11.943 0.963 11.505 119.172 33.905 839.603 4860.134 -1813.219 2.533 2.156 -1.298 -0.14 -0.71 0.69 0.11
1 6.70 670 -9.558 -14.639 -1.207 -18.646 71.839 -3.448 824.613 4770.192 -1798.229 9.124 4.854 0.877 -0.15 -0.7 0.69 0.11
1 6.71 671 -6.910 -13.810 -4.018 -46.173 -104.218 -116.364 764.652 4860.134 -1813.219 6.524 4.025 3.641 -0.15 -0.71 0.68 0.11
1 6.72 672 -1.690 -11.694 -2.442 -14.679 -142.426 -122.773 764.652 4860.134 -1813.219 1.461 1.907 1.996 -0.14 -0.71 0.68 0.12
1 6.73 673 2.260 -10.841 -1.954 2.502 -122.559 -101.319 854.593 4845.144 -1678.307 -2.314 1.053 1.478 -0.12 -0.71 0.68 0.11
1 6.74 674 5.138 -10.961 -0.445 9.216 -44.037 -27.069 854.593 4845.144 -1678.307 -4.939 1.174 -0.020 -0.1 -0.72 0.68 0.11
1 6.75 675 4.468 -12.402 0.306 -11.658 15.625 6.622 554.639 4905.104 -1633.186 -4.245 2.615 -0.761 -0.1 -0.72 0.68 0.11
1 6.76 676 2.385 -15.127 -1.245 -69.702 7.751 -17.273 449.557 4845.144 -1753.258 -2.166 5.342 0.755 -0.1 -0.72 0.68 0.11
1 6.77 677 2.241 -16.032 -2.677 -76.203 -65.308 -49.988 359.616 4860.134 -1783.238 -1.980 6.254 2.070 -0.1 -0.72 0.68 0.11
1 6.78 678 5.933 -14.394 0.187 42.023 -106.324 -54.657 434.567 4860.134 -1738.268 -5.600 4.625 -0.884 -0.09 -0.73 0.67 0.11
1 6.79 679 7.389 -13.422 2.308 95.063 -49.500 -34.180 434.567 4860.134 -1738.268 -6.981 3.654 -2.979 -0.08 -0.73 0.67 0.11
1 6.80 680 6.460 -12.192 3.022 99.457 26.184 -5.493 284.665 4785.183 -1783.238 -5.996 2.418 -3.568 -0.08 -0.72 0.68 0.11
1 6.81 681 2.830 -10.626 3.338 57.495 86.853 34.271 284.665 4785.183 -1783.238 -2.364 0.840 -3.600 -0.08 -0.71 0.69 0.11
1 6.82 682 0.867 -9.697 3.227 24.994 92.713 43.030 329.635 4815.163 -1738.268 -0.454 -0.093 -3.408 -0.09 -0.71 0.69 0.11
1 6.83 683 -0.967 -8.883 2.744 6.226 90.485 27.893 194.573 4770.192 -1798.229 1.325 -0.910 -2.876 -0.09 -0.71 0.69 0.12
1 6.84 684 -2.768 -8.902 1.959 1.404 80.933 -1.587 359.616 4785.183 -1843.199 3.091 -0.892 -2.054 -0.1 -0.7 0.69 0.12
1 6.85 685 -3.840 -9.060 0.872 12.116 66.162 -19.745 404.586 4710.231 -1738.268 4.159 -0.735 -0.940 -0.1 -0.7 0.69 0.13
1 6.86 686 -4.233 -8.524 0.120 42.267 30.701 -18.982 404.586 4710.231 -1738.268 4.555 -1.271 -0.148 -0.11 -0.7 0.69 0.13
1 6.87 687 -3.706 -8.083 0.263 50.049 8.606 -16.174 359.616 4815.163 -1963.271 4.024 -1.712 -0.229 -0.11 -0.7 0.7 0.13
1 6.88 688 -1.762 -7.767 0.713 23.956 -20.905 -23.987 359.616 4815.163 -1963.271 2.087 -2.026 -0.538 -0.11 -0.69 0.7 0.13
1 6.89 689 -0.177 -7.839 1.006 -11.932 -36.682 -35.858 449.557 4470.238 -1933.291 0.545 -1.952 -0.807 -0.1 -0.69 0.7 0.13
1 6.90 690 1.446 -8.500 1.298 -48.767 -42.389 -41.565 434.567 4710.231 -2068.203 -1.020 -1.290 -1.132 -0.1 -0.69 0.7 0.13
1 6.91 691 2.423 -9.807 1.738 -71.503 -28.626 -38.178 434.567 4710.231 -2068.203 -1.931 0.020 -1.657 -0.1 -0.7 0.7 0.13
1 6.92 692 2.907 -11.655 1.307 -61.279 22.186 -9.796 269.674 4650.121 -2008.242 -2.348 1.871 -1.324 -0.09 -0.7 0.69 0.13
1 6.93 693 1.848 -11.435 0.335 -20.722 48.187 10.559 269.674 4650.121 -2008.242 -1.264 1.653 -0.448 -0.09 -0.7 0.69 0.13
1 6.94 694 0.254 -10.549 -0.364 28.656 54.413 16.602 239.694 4605.150 -1828.209 0.325 0.768 0.208 -0.1 -0.71 0.69 0.14
1 6.95 695 -1.058 -9.587 -0.441 59.937 44.953 10.956 239.694 4605.150 -1828.209 1.615 -0.197 0.317 -0.1 -0.7 0.69 0.14
1 6.96 696 -2.380 -8.792 -0.086 55.817 18.585 2.136 284.665 4665.111 -1843.199 2.895 -0.994 0.145 -0.1 -0.7 0.69 0.14
1 6.97 697 -2.533 -8.346 0.273 31.403 -0.092 2.106 269.674 4650.121 -2008.242 3.026 -1.440 -0.138 -0.11 -0.69 0.7 0.14
1 6.98 698 -2.356 -8.303 0.498 6.104 -12.878 3.998 269.674 4650.121 -2008.242 2.836 -1.483 -0.324 -0.11 -0.69 0.7 0.14
1 6.99 699 -1.738 -8.447 0.599 -19.165 -20.966 8.087 359.616 4455.248 -1963.271 2.214 -1.340 -0.422 -0.1 -0.69 0.7 0.14
1 7.00 700 -1.302 -8.926 0.484 -28.717 -19.409 11.017 359.616 4455.248 -1963.271 1.769 -0.862 -0.331 -0.1 -0.69 0.7 0.14
1 7.01 701 -0.785 -9.429 0.326 -32.166 -16.846 14.160 329.635 4590.160 -2068.203 1.232 -0.360 -0.211 -0.1 -0.7 0.7 0.14
1 7.02 702 -0.737 -9.773 -0.005 -27.435 -16.724 15.533 329.635 4590.160 -2068.203 1.154 -0.017 0.075 -0.1 -0.7 0.7 0.13
1 7.03 703 -0.694 -9.893 -0.196 -2.960 -20.752 12.238 329.635 4515.208 -1993.251 1.053 0.100 0.199 -0.1 -0.7 0.7 0.13
1 7.04 704 -0.814 -9.563 0.024 18.189 -21.088 9.430 419.577 4650.121 -1903.310 1.148 -0.231 -0.018 -0.1 -0.7 0.7 0.13
1 7.05 705 -0.905 -9.275 0.168 34.119 -19.959 7.721 419.577 4650.121 -1903.310 1.219 -0.519 -0.127 -0.1 -0.7 0.7 0.13
1 7.06 706 -0.939 -9.036 0.077 37.598 -19.287 7.324 254.684 4785.183 -1708.287 1.234 -0.759 0.018 -0.1 -0.7 0.7 0.12
1 7.07 707 -1.173 -8.677 -0.057 23.193 -25.177 4.791 269.674 4695.241 -1828.209 1.451 -1.118 0.207 -0.1 -0.69 0.7 0.12
1 7.08 708 -0.967 -8.500 -0.321 8.698 -33.295 2.350 254.684 4665.111 -1993.251 1.229 -1.295 0.510 -0.1 -0.69 0.7 0.12
1 7.09 709 -0.781 -8.318 -0.699 -2.075 -42.755 -2.380 254.684 4665.111 -1993.251 1.040 -1.477 0.907 -0.1 -0.69 0.7 0.12
1 7.10 710 -0.287 -8.174 -1.053 -4.181 -53.833 -8.575 254.684 4515.208 -2023.232 0.563 -1.620 1.255 -0.09 -0.69 0.71 0.11
1 7.11 711 0.148 -8.093 -1.336 -2.136 -54.901 -13.062 239.694 4605.150 -2008.242 0.145 -1.701 1.532 -0.09 -0.69 0.71 0.11
1 7.12 712 0.239 -7.810 -1.413 -0.916 -52.826 -14.618 239.694 4605.150 -2008.242 0.078 -1.983 1.605 -0.09 -0.69 0.71 0.11
1 7.13 713 0.239 -7.465 -1.269 -2.747 -49.957 -16.296 209.563 4635.130 -2023.232 0.103 -2.327 1.459 -0.08 -0.7 0.71 0.11
1 7.14 714 0.268 -7.216 -1.355 -9.827 -47.638 -19.531 164.593 4725.222 -2053.212 0.104 -2.575 1.538 -0.08 -0.7 0.71 0.11
1 7.15 715 0.206 -7.350 -0.752 -26.489 -39.765 -22.522 194.573 4470.238 -1903.310 0.199 -2.440 0.915 -0.07 -0.7 0.71 0.1
1 7.16 716 -0.144 -7.676 -0.426 -39.398 -30.884 -22.949 194.573 4470.238 -1903.310 0.584 -2.113 0.553 -0.07 -0.7 0.7 0.1
1 7.17 717 -0.421 -8.284 -0.484 -51.422 -25.116 -19.867 119.622 4695.241 -1978.261 0.898 -1.504 0.555 -0.07 -0.7 0.7 0.1
1 7.18 718 -0.570 -8.988 -0.551 -58.228 -22.888 -9.857 -15.290 4605.150 -2188.274 1.104 -0.797 0.463 -0.06 -0.71 0.7 0.1
1 7.19 719 -0.254 -9.639 -0.570 -48.920 -20.691 -5.035 -15.290 4605.150 -2188.274 0.798 -0.144 0.396 -0.06 -0.71 0.69 0.1
1 7.20 720 -0.048 -10.142 -0.694 -32.990 -19.470 0.092 14.690 4695.241 -1828.209 0.592 0.360 0.450 -0.06 -0.71 0.69 0.1
1 7.21 721 0.081 -10.305 -0.948 -11.780 -17.975 8.026 -90.241 4650.121 -1978.261 0.455 0.524 0.659 -0.06 -0.71 0.69 0.1
1 7.22 722 0.172 -9.601 -1.781 18.921 -18.311 17.395 -150.202 4665.111 -1843.199 0.346 -0.180 1.478 -0.06 -0.72 0.69 0.09
1 7.23 723 0.393 -9.180 -2.222 31.342 -15.747 19.714 -150.202 4665.111 -1843.199 0.100 -0.604 1.932 -0.06 -0.72 0.69 0.09
1 7.24 724 0.378 -9.146 -2.701 30.579 -10.712 21.698 29.681 4740.212 -1813.219 0.085 -0.639 2.443 -0.06 -0.71 0.69 0.09
1 7.25 725 -0.733 -8.902 -2.955 9.674 -16.998 15.717 -0.150 4485.228 -1738.268 1.135 -0.887 2.743 -0.06 -0.71 0.69 0.09
1 7.26 726 -1.216 -10.559 0.967 -4.120 -33.936 1.190 -0.150 4485.228 -1738.268 1.594 0.769 -1.191 -0.06 -0.71 0.69 0.08
1 7.27 727 0.915 -15.798 4.190 -28.351 -56.397 -3.082 -60.261 4605.150 -1828.209 -0.544 6.007 -4.425 -0.06 -0.71 0.69 0.08
1 7.28 728 5.052 -19.475 2.749 -119.690 -41.901 58.441 14.690 4500.218 -1798.229 -4.694 9.687 -3.059 -0.05 -0.72 0.69 0.08
1 7.29 729 5.172 -15.879 -1.815 -112.549 -28.900 104.035 -0.150 4560.179 -1738.268 -4.930 6.095 1.311 -0.06 -0.72 0.68 0.07
1 7.30 730 3.879 -11.919 -1.216 59.662 17.334 56.671 -0.150 4560.179 -1738.268 -3.783 2.140 0.584 -0.06 -0.73 0.68 0.06
1 7.31 731 2.222 -8.902 0.900 132.019 15.808 37.232 -15.290 4470.238 -1798.229 -2.220 -0.881 -1.484 -0.07 -0.72 0.68 0.06
1 7.32 732 1.676 -11.162 4.482 94.147 24.506 29.175 29.681 4665.111 -1708.287 -1.742 1.364 -4.662 -0.07 -0.71 0.7 0.06
1 7.33 733 -0.402 -13.236 3.170 -70.954 62.744 83.039 29.681 4665.111 -1708.287 0.284 3.437 -3.252 -0.07 -0.71 0.7 0.06
1 7.34 734 -3.022 -10.755 0.623 -152.283 69.428 107.636 74.651 4485.228 -1963.271 2.763 0.961 -0.857 -0.08 -0.71 0.7 0.06
1 7.35 735 -4.295 -10.760 0.608 -107.331 50.873 45.593 254.684 4665.111 -1963.271 3.899 0.979 -1.064 -0.09 -0.72 0.69 0.06
1 7.36 736 -3.907 -13.456 0.766 14.954 -22.888 -19.959 404.586 4515.208 -1783.238 3.475 3.683 -1.353 -0.09 -0.72 0.68 0.06
1 7.37 737 -2.188 -12.872 0.584 60.425 -73.212 -9.003 404.586 4515.208 -1783.238 1.781 3.098 -1.174 -0.09 -0.72 0.68 0.06
1 7.38 738 0.081 -11.545 1.130 81.055 -78.369 8.331 404.586 4635.130 -1738.268 -0.474 1.766 -1.637 -0.09 -0.72 0.69 0.05
1 7.39 739 1.216 -10.578 2.342 83.557 -46.448 20.447 314.645 4650.121 -1753.258 -1.619 0.794 -2.727 -0.08 -0.72 0.69 0.05
1 7.40 740 1.020 -10.731 2.725 26.764 -8.637 27.985 314.645 4650.121 -1753.258 -1.479 0.943 -2.870 -0.08 -0.71 0.7 0.04
1 7.41 741 0.565 -11.397 2.385 -28.168 -8.331 35.065 164.593 4725.222 -1798.229 -1.068 1.611 -2.509 -0.08 -0.71 0.7 0.04
1 7.42 742 0.675 -11.727 1.456 -57.221 -16.327 33.692 239.694 4500.218 -2053.212 -1.230 1.945 -1.635 -0.08 -0.71 0.7 0.04
1 7.43 743 0.852 -11.713 0.613 -45.624 -21.576 21.362 254.684 4590.160 -1888.320 -1.454 1.935 -0.874 -0.08 -0.71 0.7 0.04
1 7.44 744 1.049 -10.999 -0.077 12.482 -10.223 1.556 254.684 4590.160 -1888.320 -1.675 1.224 -0.236 -0.08 -0.71 0.69 0.03
1 7.45 745 0.742 -10.267 0.014 44.800 -2.777 -6.439 209.563 4485.228 -1813.219 -1.374 0.492 -0.321 -0.08 -0.71 0.7 0.03
1 7.46 746 0.503 -9.429 0.407 58.319 -2.838 -10.498 314.645 4500.218 -1798.229 -1.121 -0.349 -0.654 -0.08 -0.71 0.7 0.03
1 7.47 747 0.005 -8.342 0.953 48.248 -10.803 -9.735 314.645 4500.218 -1798.229 -0.572 -1.442 -1.020 -0.08 -0.71 0.7 0.03
1 7.48 748 -0.239 -7.959 1.135 31.525 -17.548 -7.843 194.573 4575.169 -1828.209 -0.313 -1.826 -1.133 -0.07 -0.7 0.71 0.03
1 7.49 749 -0.311 -7.896 0.929 15.930 -25.726 -8.026 209.563 4590.160 -1963.271 -0.228 -1.889 -0.883 -0.07 -0.7 0.71 0.03
1 7.50 750 -0.206 -7.872 0.867 5.859 -35.095 -9.857 209.563 4590.160 -1963.271 -0.319 -1.913 -0.797 -0.07 -0.7 0.71 0.03
1 7.51 751 0.675 -8.232 0.991 0.183 -41.809 -11.047 269.674 4470.238 -2008.242 -1.183 -1.555 -0.909 -0.07 -0.7 0.71 0.03
1 7.52 752 1.437 -8.720 1.178 0.366 -37.262 -8.362 344.625 4440.107 -1978.261 -1.925 -1.067 -1.090 -0.06 -0.7 0.71 0.03
1 7.53 753 2.140 -8.844 1.212 1.282 -25.543 -1.007 209.563 4590.160 -1993.251 -2.613 -0.944 -1.119 -0.06 -0.7 0.71 0.03
1 7.54 754 2.231 -8.888 1.082 9.918 -2.533 9.064 209.563 4590.160 -1993.251 -2.667 -0.902 -0.958 -0.06 -0.7 0.71 0.03
1 7.55 755 1.590 -8.624 0.704 17.120 9.216 12.207 239.694 4440.107 -2053.212 -2.019 -1.165 -0.553 -0.06 -0.7 0.71 0.03
1 7.56 756 0.905 -8.447 0.407 21.057 10.437 10.223 14.690 4440.107 -2053.212 -1.343 -1.341 -0.225 -0.06 -0.7 0.71 0.03
1 7.57 757 0.565 -8.428 0.316 20.081 0.793 3.754 14.690 4440.107 -2053.212 -1.014 -1.359 -0.101 -0.06 -0.7 0.71 0.03
1 7.58 758 0.599 -8.624 0.378 12.543 -12.604 -1.831 164.593 4500.218 -1978.261 -1.050 -1.162 -0.132 -0.06 -0.7 0.72 0.03
1 7.59 759 0.876 -8.639 0.512 6.714 -10.010 -1.617 44.671 4500.218 -2053.212 -1.324 -1.147 -0.243 -0.06 -0.7 0.72 0.02
1 7.60 760 0.848 -8.792 0.517 0.702 -0.641 1.160 104.632 4455.248 -2143.304 -1.289 -0.994 -0.232 -0.05 -0.69 0.72 0.02
1 7.61 761 0.417 -8.940 0.474 -5.188 7.690 4.211 104.632 4455.248 -2143.304 -0.853 -0.846 -0.183 -0.05 -0.69 0.72 0.02
1 7.62 762 -0.623 -8.514 -0.263 -4.547 6.958 7.935 119.622 4530.199 -2053.212 0.183 -1.272 0.542 -0.05 -0.69 0.72 0.02
1 7.63 763 -0.852 -8.165 -0.421 1.831 2.350 11.719 254.684 4455.248 -2173.284 0.400 -1.621 0.697 -0.05 -0.69 0.72 0.02
1 7.64 764 -0.680 -7.734 -0.455 4.791 -2.350 14.282 254.684 4455.248 -2173.284 0.211 -2.051 0.737 -0.06 -0.69 0.72 0.02
1 7.65 765 -0.101 -7.480 -0.340 -2.838 -2.197 17.273 209.563 4410.127 -2098.183 -0.390 -2.304 0.629 -0.06 -0.69 0.72 0.02
1 7.66 766 0.694 -7.676 0.000 -28.748 2.411 23.590 74.651 4455.248 -2068.203 -1.211 -2.106 0.282 -0.06 -0.69 0.72 0.02
1 7.67 767 0.795 -8.155 0.096 -49.103 6.531 26.184 179.583 4485.228 -2023.232 -1.344 -1.626 0.152 -0.06 -0.7 0.72 0.02
1 7.68 768 0.795 -8.754 -0.206 -66.162 6.470 25.635 179.583 4485.228 -2023.232 -1.382 -1.027 0.388 -0.06 -0.7 0.71 0.02
1 7.69 769 0.603 -9.630 -0.010 -57.739 3.174 20.996 15.140 4470.388 -2197.868 -1.256 -0.148 -0.001 -0.06 -0.7 0.71 0.01
1 7.70 770 0.484 -9.941 -0.043 -33.539 -0.702 14.282 165.192 4500.368 -2167.888 -1.154 0.164 -0.044 -0.06 -0.71 0.7 0.01
1 7.71 771 0.263 -9.903 -0.110 -7.111 -1.770 9.186 165.192 4500.368 -2167.888 -0.943 0.127 -0.015 -0.06 -0.71 0.7 0.01
1 7.72 772 0.005 -9.438 -0.057 10.284 -0.671 7.935 180.183 4380.296 -2107.927 -0.689 -0.337 -0.068 -0.06 -0.71 0.7 0.01
1 7.73 773 -0.268 -9.050 -0.421 5.005 3.723 9.949 195.173 4530.349 -2017.985 -0.420 -0.725 0.315 -0.06 -0.71 0.7 0.01
1 7.74 774 -0.795 -8.682 -1.049 -12.756 9.583 10.834 285.264 4515.358 -1792.982 0.097 -1.093 0.954 -0.06 -0.71 0.7 0.01
1 7.75 775 -1.231 -8.983 -1.666 -29.327 16.296 10.986 286.463 4515.958 -1803.175 0.519 -0.790 1.556 -0.06 -0.71 0.7 0.01
1 7.76 776 -1.662 -9.673 -1.676 -33.447 24.139 14.130 121.421 4606.049 -1953.228 0.914 -0.096 1.457 -0.06 -0.71 0.7 0.01
1 7.77 777 -1.781 -10.334 -0.225 -21.515 28.198 19.959 241.493 4576.069 -1953.228 1.006 0.568 -0.052 -0.07 -0.71 0.7 0.01
1 7.78 778 -2.279 -11.196 1.417 -15.228 30.701 24.536 241.493 4576.069 -1953.228 1.467 1.434 -1.728 -0.07 -0.71 0.7 0.01
1 7.79 779 -4.233 -11.986 -0.321 -41.016 4.700 6.104 106.431 4561.079 -1983.208 3.391 2.228 -0.020 -0.07 -0.72 0.69 0.01
1 7.80 780 -3.371 -11.076 -3.429 -49.683 -68.726 -45.227 286.463 4591.059 -1938.237 2.536 1.320 3.016 -0.07 -0.72 0.69 0.01
1 7.81 781 -0.857 -10.707 -0.876 -0.366 -83.039 -50.263 211.512 4485.978 -2013.188 0.078 0.950 0.388 -0.06 -0.72 0.69 0.01
1 7.82 782 0.067 -10.837 1.346 30.151 -63.294 -35.919 211.512 4485.978 -2013.188 -0.775 1.075 -1.842 -0.06 -0.72 0.69 0
1 7.83 783 -0.522 -10.841 1.121 17.456 -50.568 -26.581 271.473 4695.991 -1893.267 -0.128 1.073 -1.568 -0.05 -0.72 0.69 0
1 7.84 784 -0.670 -11.378 -0.139 -34.546 -83.496 -43.305 151.551 4515.958 -1938.237 0.105 1.603 -0.272 0.04 0.72 -0.69 0
1 7.85 785 0.498 -12.173 0.134 -59.235 -107.483 -70.343 151.551 4515.958 -1938.237 -0.993 2.396 -0.599 0.03 0.72 -0.69 0
1 7.86 786 1.925 -13.102 0.421 -52.704 -110.657 -82.855 181.532 4591.059 -1983.208 -2.314 3.325 -0.968 0.02 0.73 -0.69 0.01
1 7.87 787 2.974 -13.820 0.120 -15.778 -87.433 -68.543 -13.341 4725.971 -1698.244 -3.249 4.042 -0.726 0.01 0.73 -0.68 0.01
1 7.88 788 2.629 -13.509 0.330 40.161 -45.685 -26.611 -148.403 4515.958 -1758.205 -2.817 3.729 -0.939 0 0.73 -0.68 0.01
1 7.89 789 2.064 -12.704 0.958 53.162 -25.055 -5.798 -148.253 4516.408 -1768.398 -2.204 2.921 -1.514 -0 0.73 -0.69 0.01
1 7.90 790 1.207 -11.708 1.283 50.293 -9.369 3.357 -193.374 4711.431 -1873.330 -1.332 1.920 -1.760 -0 0.72 -0.69 0.01
1 7.91 791 0.206 -11.157 1.302 27.344 -12.817 -4.700 -328.286 4486.427 -1738.268 -0.334 1.364 -1.637 -0 0.72 -0.69 0.01
1 7.92 792 0.163 -11.335 1.882 9.125 -25.177 -16.846 -328.286 4486.427 -1738.268 -0.278 1.540 -2.180 -0.01 0.72 -0.7 0.01
1 7.93 793 0.163 -11.320 2.093 1.831 -27.802 -21.790 -283.315 4576.519 -1858.339 -0.249 1.525 -2.380 -0.01 0.72 -0.7 0.01
1 7.94 794 -0.101 -10.755 1.844 11.902 -16.998 -16.174 -283.315 4576.519 -1858.339 0.046 0.959 -2.124 -0.01 0.72 -0.7 0.01
1 7.95 795 -2.126 -9.955 1.140 39.002 0.305 -10.101 -253.335 4516.408 -1843.349 2.095 0.159 -1.395 -0.01 0.72 -0.7 0.01
1 7.96 796 -3.591 -9.237 0.651 53.772 -7.599 -9.949 -253.335 4516.408 -1843.349 3.571 -0.561 -0.839 -0.01 0.71 -0.7 0.01
1 7.97 797 -4.377 -8.591 0.488 61.310 -30.212 -15.991 -373.257 4411.476 -1918.300 4.354 -1.209 -0.590 -0.01 0.71 -0.7 0.02
1 7.98 798 -3.869 -8.035 1.188 51.361 -62.958 -29.297 -478.338 4561.378 -1873.330 3.841 -1.764 -1.097 -0.02 0.7 -0.71 0.02
1 7.99 799 -3.204 -8.442 1.427 32.990 -75.135 -32.166 -478.338 4561.378 -1873.330 3.194 -1.356 -1.257 -0.02 0.7 -0.71 0.02
1 8.00 800 -2.500 -8.907 1.982 7.324 -85.053 -28.473 -373.257 4486.427 -2023.382 2.516 -0.891 -1.761 -0.03 0.7 -0.71 0.03
1 8.01 801 -1.465 -9.477 2.002 -17.273 -91.004 -21.820 -373.257 4486.427 -2023.382 1.506 -0.320 -1.765 -0.03 0.7 -0.71 0.03
1 8.02 802 -0.517 -10.166 1.820 -36.713 -91.309 -15.747 -478.338 4381.496 -2023.382 0.580 0.369 -1.603 -0.04 0.7 -0.71 0.04
1 8.03 803 0.177 -10.999 0.579 -32.868 -78.888 -5.310 -614.150 4471.287 -2122.018 -0.095 1.201 -0.408 -0.05 0.7 -0.71 0.04
1 8.04 804 0.014 -10.702 0.072 4.303 -71.198 1.862 -569.179 4471.287 -1941.985 0.081 0.904 0.050 -0.05 0.7 -0.71 0.04
1 8.05 805 -0.766 -10.382 0.168 50.720 -63.202 4.517 -659.121 4456.297 -1882.024 0.863 0.583 -0.055 -0.05 0.7 -0.71 0.05
1 8.06 806 -1.484 -9.874 1.020 83.313 -54.291 5.859 -659.121 4456.297 -1882.024 1.564 0.078 -0.736 -0.06 0.69 -0.72 0.06
1 8.07 807 -1.891 -9.539 1.173 71.655 -54.840 7.233 -704.241 4231.293 -1956.975 1.956 -0.252 -0.762 -0.06 0.69 -0.72 0.06
1 8.08 808 -2.179 -9.400 0.982 41.687 -64.606 9.247 -704.241 4231.293 -1956.975 2.223 -0.386 -0.467 -0.07 0.69 -0.72 0.07
1 8.09 809 -2.361 -9.237 0.646 9.918 -77.759 5.981 -809.173 4336.225 -2001.946 2.382 -0.546 -0.077 -0.07 0.68 -0.72 0.07
1 8.10 810 -1.628 -9.615 0.642 -14.435 -92.408 1.892 -809.173 4336.225 -2001.946 1.632 -0.167 -0.063 -0.07 0.68 -0.72 0.08
1 8.11 811 -1.293 -9.965 0.445 -8.606 -93.323 0.580 -659.121 4186.323 -1926.995 1.287 0.181 0.117 -0.08 0.68 -0.72 0.08
1 8.12 812 -1.197 -9.946 0.062 8.392 -91.370 0.244 -929.245 4306.245 -1882.024 1.188 0.161 0.486 -0.08 0.68 -0.72 0.09
1 8.13 813 -1.374 -9.730 -0.105 33.844 -92.438 -1.404 -929.245 4306.245 -1882.024 1.365 -0.052 0.689 -0.09 0.68 -0.72 0.1
1 8.14 814 -1.408 -9.280 -0.177 39.887 -98.999 -3.296 -959.225 4306.245 -1926.995 1.401 -0.499 0.811 -0.1 0.68 -0.72 0.1
1 8.15 815 -1.551 -9.065 0.010 36.041 -108.551 -6.683 -959.225 4306.245 -1926.995 1.552 -0.711 0.679 -0.1 0.67 -0.72 0.11
1 8.16 816 -1.422 -9.137 0.206 22.888 -118.561 -12.024 -869.134 4246.284 -1867.034 1.437 -0.636 0.529 -0.11 0.67 -0.72 0.12
1 8.17 817 -0.991 -9.491 0.541 -2.655 -128.449 -11.841 -1066.705 4304.896 -1967.168 1.029 -0.280 0.218 -0.12 0.67 -0.72 0.12
1 8.18 818 -0.680 -9.592 0.579 -8.606 -129.486 -9.216 -1141.656 4259.925 -1892.217 0.744 -0.179 0.180 -0.12 0.67 -0.72 0.13
1 8.19 819 -0.656 -9.773 0.436 -3.540 -127.381 -9.491 -1171.637 4319.886 -1847.247 0.744 0.002 0.311 -0.13 0.67 -0.72 0.14
1 8.20 820 -0.934 -9.606 0.445 18.799 -123.108 -8.453 -1171.637 4319.886 -1847.247 1.069 -0.165 0.299 -0.15 0.66 -0.72 0.15
1 8.21 821 -1.556 -9.376 0.441 30.396 -119.172 -6.866 -1186.627 4064.902 -1712.185 1.711 -0.392 0.333 -0.15 0.66 -0.72 0.16
1 8.22 822 -2.313 -9.194 0.402 34.058 -117.676 -7.568 -1186.627 4064.902 -1712.185 2.483 -0.570 0.416 -0.16 0.66 -0.72 0.16
1 8.23 823 -2.916 -9.189 0.206 31.342 -126.282 -7.874 -1261.728 4154.993 -1712.185 3.097 -0.571 0.659 -0.17 0.65 -0.72 0.17
1 8.24 824 -2.725 -9.003 0.067 24.689 -150.696 -11.078 -1336.679 4064.902 -1682.204 2.915 -0.754 0.836 -0.17 0.65 -0.72 0.18
1 8.25 825 -2.097 -9.237 0.546 18.250 -160.737 -14.252 -1261.728 4259.925 -1787.286 2.300 -0.516 0.387 -0.18 0.65 -0.72 0.19
1 8.26 826 -1.647 -9.433 0.852 10.071 -161.042 -15.259 -1426.621 4274.915 -1667.214 1.874 -0.317 0.101 -0.19 0.64 -0.71 0.19
1 8.27 827 -1.604 -9.807 0.690 4.639 -155.030 -10.162 -1426.621 4274.915 -1667.214 1.863 0.058 0.276 -0.2 0.64 -0.71 0.2
1 8.28 828 -2.332 -10.276 0.316 9.369 -149.170 -0.916 -1506.069 4167.435 -1707.688 2.635 0.529 0.653 -0.22 0.64 -0.71 0.22
1 8.29 829 -2.514 -10.492 -0.110 11.017 -151.276 5.981 -1506.069 4167.435 -1707.688 2.821 0.745 1.085 -0.23 0.63 -0.71 0.23
1 8.30 830 -2.490 -10.798 -0.872 8.606 -157.746 11.749 -1686.102 4092.484 -1497.674 2.799 1.052 1.854 -0.23 0.63 -0.7 0.24
1 8.31 831 -2.150 -10.975 -1.398 5.493 -177.704 13.001 -1916.501 4165.187 -1385.847 2.466 1.230 2.386 -0.24 0.63 -0.7 0.24
1 8.32 832 0.828 -12.417 -0.460 -2.686 -216.828 14.954 -1841.400 4165.187 -1280.916 -0.502 2.672 1.447 -0.25 0.62 -0.7 0.26
1 8.33 833 3.658 -13.480 0.283 -16.113 -213.196 27.893 -1676.508 4060.105 -1190.824 -3.320 3.735 0.695 -0.26 0.62 -0.69 0.27
1 8.34 834 4.947 -12.939 -0.441 -14.648 -185.547 42.908 -1676.508 4060.105 -1190.824 -4.610 3.191 1.389 -0.27 0.61 -0.69 0.28
1 8.35 835 3.486 -10.506 -0.694 38.788 -147.614 41.931 -1922.498 4193.068 -958.026 -3.223 0.753 1.617 -0.29 0.61 -0.68 0.3
1 8.36 836 2.040 -9.702 0.105 64.850 -144.562 35.431 -1922.498 4193.068 -958.026 -1.814 -0.046 0.884 -0.3 0.6 -0.67 0.31
1 8.37 837 1.216 -8.931 -0.081 58.075 -152.344 31.220 -1922.498 4193.068 -1002.997 -1.001 -0.808 1.157 -0.3 0.6 -0.67 0.32
1 8.38 838 0.589 -8.198 -0.646 31.677 -165.009 26.764 -1997.599 4268.020 -928.045 -0.381 -1.533 1.789 -0.31 0.59 -0.67 0.33
1 8.39 839 0.781 -7.853 -1.475 -4.181 -185.700 12.085 -1937.488 4223.049 -1017.987 -0.578 -1.874 2.650 -0.31 0.58 -0.67 0.34
1 8.40 840 1.556 -8.203 -1.437 -16.388 -194.764 2.655 -2027.579 4163.088 -853.094 -1.342 -1.524 2.609 -0.32 0.58 -0.66 0.35
1 8.41 841 2.653 -8.567 -1.106 -19.165 -197.510 -5.249 -2027.579 4163.088 -853.094 -2.410 -1.163 2.253 -0.33 0.57 -0.65 0.36
1 8.42 842 3.520 -9.510 -0.963 -12.177 -183.014 -7.385 -1997.599 4163.088 -823.114 -3.172 -0.226 2.028 -0.36 0.56 -0.64 0.38
1 8.43 843 3.510 -9.908 -1.073 -6.042 -161.774 1.343 -1997.599 4163.088 -823.114 -3.100 0.170 2.099 -0.37 0.56 -0.64 0.38
1 8.44 844 3.050 -9.879 -1.264 1.709 -143.830 10.559 -2012.589 4253.029 -583.120 -2.597 0.140 2.261 -0.38 0.55 -0.63 0.39
1 8.45 845 2.461 -9.802 -1.666 6.531 -138.367 15.625 -2027.579 4087.987 -433.068 -1.983 0.063 2.643 -0.39 0.55 -0.63 0.4
1 8.46 846 2.418 -9.750 -1.801 2.625 -146.088 16.724 -2200.417 4220.201 -378.803 -1.925 0.009 2.759 -0.39 0.54 -0.62 0.4
1 8.47 847 2.739 -9.352 -1.393 -6.592 -154.542 12.146 -2170.436 4220.201 -273.722 -2.233 -0.391 2.323 -0.4 0.54 -0.62 0.41
1 8.48 848 2.816 -9.074 -1.159 -4.944 -146.759 10.529 -2170.436 4220.201 -273.722 -2.290 -0.671 2.050 -0.41 0.54 -0.61 0.42
1 8.49 849 2.160 -8.935 -1.326 -0.763 -138.001 11.475 -2200.417 4175.230 -123.819 -1.612 -0.812 2.182 -0.42 0.53 -0.6 0.42
1 8.50 850 0.986 -8.490 -1.863 -5.035 -143.464 13.672 -2200.417 4175.230 -123.819 -0.409 -1.260 2.662 -0.43 0.52 -0.59 0.43
1 8.51 851 0.910 -8.193 -1.935 -12.604 -158.173 11.108 -2065.354 4310.142 -78.699 -0.330 -1.559 2.704 -0.44 0.52 -0.59 0.44
1 8.52 852 1.480 -8.332 -1.882 -20.050 -169.404 6.561 -2215.407 4265.171 71.054 -0.894 -1.423 2.617 -0.45 0.51 -0.58 0.45
1 8.53 853 2.179 -8.557 -1.642 -28.748 -168.274 5.280 -2221.853 4384.194 68.805 -1.582 -1.200 2.331 -0.46 0.51 -0.57 0.45
1 8.54 854 3.007 -9.769 -1.619 -40.741 -154.938 14.557 -2101.931 4219.151 233.848 -2.395 0.008 2.238 -0.46 0.5 -0.57 0.46
1 8.55 855 3.103 -10.271 -1.710 -43.457 -147.675 22.217 -2101.931 4219.151 233.848 -2.478 0.506 2.242 -0.47 0.5 -0.56 0.47
1 8.56 856 3.199 -10.511 -1.872 -36.469 -143.464 23.926 -2236.843 4369.204 383.900 -2.583 0.741 2.320 -0.48 0.5 -0.55 0.47
1 8.57 857 2.734 -10.310 -1.896 -8.209 -137.055 19.165 -2236.843 4369.204 383.900 -2.144 0.535 2.273 -0.49 0.49 -0.54 0.48
1 8.58 858 2.476 -9.759 -1.767 10.498 -130.646 16.937 -2079.445 4157.691 502.922 -1.929 -0.020 2.083 -0.5 0.48 -0.53 0.49
1 8.59 859 1.901 -9.170 -1.762 18.250 -126.526 16.113 -2079.445 4232.643 787.887 -1.357 -0.610 2.073 -0.51 0.48 -0.52 0.49
1 8.60 860 1.657 -8.840 -1.547 14.374 -128.418 15.076 -2124.416 4382.695 727.926 -1.116 -0.940 1.860 -0.51 0.47 -0.52 0.5
1 8.61 861 1.484 -8.701 -1.379 2.472 -137.055 13.367 -2124.416 4382.695 727.926 -0.949 -1.080 1.687 -0.52 0.47 -0.51 0.51
1 8.62 862 1.518 -8.725 -1.140 -18.982 -152.253 9.338 -2024.431 4382.845 983.659 -0.986 -1.057 1.424 -0.52 0.46 -0.5 0.51
1 8.63 863 2.164 -9.223 -1.154 -29.541 -156.891 4.700 -2024.431 4352.714 863.737 -1.633 -0.560 1.393 -0.53 0.46 -0.5 0.52
1 8.64 864 2.677 -10.497 -1.049 -37.689 -156.891 -0.916 -2024.431 4352.714 863.737 -2.123 0.713 1.153 -0.55 0.44 -0.48 0.53
1 8.65 865 2.902 -11.272 -1.010 -34.577 -152.253 0.061 -2054.412 4427.815 1238.643 -2.337 1.489 1.042 -0.55 0.44 -0.47 0.53
1 8.66 866 2.921 -11.402 -1.073 -21.759 -142.823 4.211 -1964.470 4442.806 1283.764 -2.356 1.618 1.045 -0.56 0.43 -0.46 0.53
1 8.67 867 2.461 -11.224 -1.034 -4.334 -131.287 10.407 -1964.470 4442.806 1283.764 -1.904 1.441 0.971 -0.57 0.43 -0.46 0.54
1 8.68 868 1.824 -10.875 -1.135 6.317 -125.855 14.984 -1889.369 4292.753 1358.715 -1.284 1.090 1.061 -0.57 0.42 -0.45 0.54
1 8.69 869 1.365 -10.626 -1.331 2.930 -131.134 15.350 -1894.466 4292.753 1435.765 -0.848 0.840 1.259 -0.58 0.42 -0.44 0.55
1 8.70 870 1.585 -10.176 -1.293 -3.174 -138.764 12.329 -1834.505 4307.744 1555.687 -1.091 0.388 1.219 -0.58 0.41 -0.43 0.55
1 8.71 871 1.959 -9.951 -1.212 -6.683 -141.205 7.751 -1834.505 4307.744 1555.687 -1.481 0.163 1.123 -0.58 0.4 -0.43 0.56
1 8.72 872 2.217 -9.457 -1.221 -4.761 -140.259 3.143 -1684.453 4307.744 1675.758 -1.742 -0.330 1.080 -0.6 0.39 -0.41 0.57
1 8.73 873 2.528 -9.410 -1.259 -1.617 -138.764 2.625 -1714.433 4247.783 1690.749 -2.046 -0.377 1.097 -0.6 0.38 -0.41 0.57
1 8.74 874 2.686 -9.290 -1.068 2.838 -134.766 3.479 -1714.433 4247.783 1690.749 -2.195 -0.496 0.889 -0.61 0.38 -0.4 0.58
1 8.75 875 2.691 -9.668 -0.838 6.409 -127.259 7.111 -1684.453 4382.845 1705.739 -2.192 -0.117 0.649 -0.61 0.37 -0.39 0.58
1 8.76 876 2.346 -9.864 -0.584 3.815 -113.861 12.543 -1627.640 4428.415 1858.040 -1.844 0.079 0.391 -0.62 0.36 -0.39 0.58
1 8.77 877 1.829 -9.927 -0.809 2.441 -109.223 14.771 -1507.568 4383.444 1858.040 -1.331 0.142 0.612 -0.62 0.36 -0.38 0.59
1 8.78 878 1.235 -9.888 -1.044 5.249 -108.216 11.231 -1507.568 4383.444 1858.040 -0.748 0.103 0.841 -0.62 0.35 -0.37 0.59
1 8.79 879 1.355 -10.018 -1.006 11.902 -112.671 2.747 -1312.545 4323.483 1903.010 -0.885 0.231 0.798 -0.63 0.34 -0.36 0.6
1 8.80 880 1.542 -10.257 -0.876 14.221 -115.509 1.404 -1432.617 4518.356 2187.975 -1.071 0.471 0.676 -0.63 0.33 -0.35 0.6
1 8.81 881 1.863 -10.310 -0.733 13.825 -113.800 3.143 -1432.617 4518.356 2187.975 -1.388 0.523 0.541 -0.64 0.32 -0.35 0.61
1 8.82 882 1.968 -10.434 -0.642 14.435 -110.443 6.165 -1312.545 4368.454 2157.994 -1.491 0.648 0.460 -0.64 0.32 -0.34 0.61
1 8.83 883 1.810 -10.453 -0.575 19.623 -106.903 11.200 -1225.751 4354.213 2116.171 -1.334 0.667 0.406 -0.64 0.31 -0.34 0.62
1 8.84 884 1.724 -9.936 -0.608 27.252 -105.439 13.733 -1105.680 4384.194 2116.171 -1.254 0.149 0.457 -0.64 0.3 -0.33 0.62
1 8.85 885 1.973 -9.534 -0.302 33.569 -104.889 14.465 -1105.680 4384.194 2116.171 -1.514 -0.254 0.179 -0.65 0.3 -0.32 0.62
1 8.86 886 1.954 -9.314 0.091 27.344 -101.044 13.184 -1090.689 4369.204 2161.142 -1.515 -0.476 -0.131 -0.65 0.29 -0.31 0.63
1 8.87 887 1.963 -9.433 0.105 14.984 -97.443 9.216 -1060.709 4579.067 2161.142 -1.529 -0.357 -0.113 -0.65 0.28 -0.31 0.64
1 8.88 888 1.796 -10.209 0.388 0.671 -92.987 5.310 -1060.709 4579.067 2161.142 -1.360 0.419 -0.383 -0.65 0.27 -0.3 0.64
1 8.89 889 1.437 -10.832 0.263 -9.064 -90.210 2.838 -1075.699 4429.165 2251.083 -0.996 1.042 -0.264 -0.65 0.27 -0.3 0.64
1 8.90 890 1.010 -11.234 0.263 -5.127 -87.128 -1.434 -910.807 4474.135 2416.126 -0.567 1.444 -0.280 -0.66 0.26 -0.29 0.64
1 8.91 891 0.316 -11.205 0.153 14.099 -86.243 -8.911 -747.413 4520.455 2193.671 0.133 1.416 -0.178 -0.66 0.26 -0.29 0.65
1 8.92 892 0.220 -11.210 0.374 23.590 -92.682 -12.146 -747.413 4520.455 2193.671 0.242 1.421 -0.386 -0.66 0.25 -0.28 0.65
1 8.93 893 0.508 -11.057 0.498 23.956 -98.816 -11.475 -852.495 4565.426 2253.632 -0.027 1.269 -0.482 -0.66 0.24 -0.28 0.65
1 8.94 894 0.594 -10.262 0.555 26.001 -88.959 -4.913 -837.504 4625.387 2388.694 -0.077 0.476 -0.479 -0.67 0.23 -0.27 0.66
1 8.95 895 0.345 -9.922 0.479 32.105 -75.531 0.275 -837.504 4625.387 2388.694 0.180 0.137 -0.362 -0.67 0.22 -0.26 0.66
1 8.96 896 0.019 -10.042 0.110 32.959 -63.660 7.751 -687.452 4445.354 2388.694 0.505 0.257 0.054 -0.67 0.22 -0.26 0.67
1 8.97 897 0.000 -10.214 0.182 31.891 -56.183 19.867 -702.442 4520.455 2373.704 0.510 0.430 0.029 -0.67 0.21 -0.25 0.67
1 8.98 898 0.215 -10.396 0.254 34.210 -56.793 26.032 -687.452 4580.416 2388.694 0.267 0.611 0.001 -0.67 0.21 -0.25 0.67
1 8.99 899 0.733 -10.276 0.589 37.872 -54.718 26.947 -687.452 4580.416 2388.694 -0.286 0.491 -0.286 -0.67 0.21 -0.24 0.68
1 9.00 900 1.125 -10.104 0.814 39.673 -48.767 24.201 -657.472 4475.484 2238.642 -0.716 0.319 -0.458 -0.66 0.2 -0.24 0.68
1 9.01 901 1.551 -9.477 1.101 45.532 -30.487 18.127 -552.390 4595.406 2298.752 -1.193 -0.305 -0.620 -0.66 0.2 -0.23 0.69
1 9.02 902 1.226 -8.940 0.972 51.087 -13.062 14.648 -552.390 4595.406 2298.752 -0.880 -0.838 -0.415 -0.66 0.19 -0.23 0.69
1 9.03 903 0.201 -8.605 0.766 52.979 -0.671 13.062 -477.439 4685.348 2193.671 0.134 -1.168 -0.127 -0.66 0.19 -0.23 0.69
1 9.04 904 -0.991 -8.481 0.431 45.227 -1.587 7.904 -582.371 4655.367 2283.762 1.310 -1.288 0.288 -0.65 0.19 -0.23 0.7
1 9.05 905 -1.791 -8.457 0.335 24.384 -14.984 -0.580 -537.400 4580.416 2208.661 2.102 -1.307 0.445 -0.65 0.19 -0.23 0.7
1 9.06 906 -2.145 -8.969 0.512 -12.390 -41.382 -15.289 -537.400 4580.416 2208.661 2.465 -0.792 0.296 -0.65 0.18 -0.22 0.7
1 9.07 907 -2.102 -9.841 0.498 -31.555 -53.406 -20.142 -507.419 4700.338 2133.710 2.429 0.078 0.299 -0.65 0.18 -0.22 0.7
1 9.08 908 -1.930 -10.779 0.292 -34.180 -57.343 -18.372 -447.458 4715.478 2223.651 2.293 1.010 0.402 -0.66 0.17 -0.21 0.7
1 9.09 909 -2.026 -10.985 0.215 -12.726 -54.596 -15.015 -447.458 4715.478 2223.651 2.413 1.214 0.431 -0.66 0.17 -0.21 0.7
1 9.10 910 -2.212 -10.899 0.393 17.792 -54.352 -12.024 -387.498 4625.387 2283.762 2.629 1.128 0.245 -0.66 0.17 -0.21 0.7
1 9.11 911 -1.992 -10.578 0.603 40.924 -55.115 -6.866 -417.478 4595.406 2253.632 2.432 0.811 0.069 -0.66 0.16 -0.2 0.7
1 9.12 912 -1.863 -10.080 0.833 47.119 -47.302 6.683 -537.400 4655.367 2283.762 2.308 0.318 -0.098 -0.66 0.16 -0.2 0.71
1 9.13 913 -2.184 -9.826 0.814 36.163 -40.650 15.289 -537.400 4655.367 2283.762 2.612 0.069 -0.009 -0.66 0.15 -0.2 0.71
1 9.14 914 -2.768 -9.515 0.575 24.597 -39.917 20.447 -432.468 4730.468 2238.642 3.165 -0.239 0.288 -0.66 0.15 -0.19 0.71
1 9.15 915 -3.050 -9.170 0.297 19.928 -47.638 19.409 -282.416 4730.468 2418.674 3.405 -0.582 0.604 -0.66 0.15 -0.19 0.71
1 9.16 916 -2.600 -8.888 0.220 16.754 -61.493 8.942 -282.716 4731.068 2419.574 2.873 -0.862 0.731 -0.66 0.14 -0.18 0.72
1 9.17 917 -2.050 -8.830 0.273 8.942 -65.155 7.263 -432.618 4701.087 2389.593 2.299 -0.919 0.696 -0.66 0.14 -0.17 0.72
1 9.18 918 -1.805 -8.816 0.168 -4.730 -62.439 9.094 -207.615 4701.087 1984.557 2.037 -0.933 0.804 -0.66 0.14 -0.17 0.72
1 9.19 919 -1.982 -9.055 0.225 -18.860 -57.923 12.238 -283.315 4777.837 2166.389 2.195 -0.696 0.729 -0.66 0.13 -0.16 0.72
1 9.20 920 -2.753 -9.184 -0.211 -26.123 -64.728 9.674 -283.315 4777.837 2166.389 2.941 -0.571 1.128 -0.66 0.13 -0.16 0.72
1 9.21 921 -3.218 -9.328 -0.259 -22.919 -73.792 5.341 -283.315 4657.766 2316.441 3.381 -0.432 1.131 -0.66 0.13 -0.15 0.72
1 9.22 922 -2.969 -9.515 0.072 -17.212 -82.642 1.648 -133.263 4732.867 2211.509 3.110 -0.249 0.757 -0.67 0.12 -0.15 0.72
1 9.23 923 -2.701 -9.410 0.450 -14.374 -83.985 1.556 -133.263 4732.867 2211.509 2.813 -0.360 0.316 -0.67 0.12 -0.13 0.72
1 9.24 924 -2.816 -9.424 0.603 -15.930 -80.506 4.303 -118.273 4687.746 2196.369 2.915 -0.347 0.139 -0.67 0.11 -0.13 0.72
1 9.25 925 -3.103 -9.271 0.407 -16.388 -79.193 6.897 -103.283 4702.736 2286.460 3.183 -0.503 0.312 -0.67 0.11 -0.12 0.72
1 9.26 926 -3.304 -9.065 0.086 -14.435 -82.855 7.050 -103.283 4702.736 2286.460 3.359 -0.710 0.608 -0.67 0.1 -0.11 0.72
1 9.27 927 -3.271 -8.959 -0.014 -10.986 -97.748 1.068 -58.312 4807.818 2316.441 3.301 -0.818 0.685 -0.68 0.1 -0.11 0.72
1 9.28 928 -2.945 -9.280 0.469 -12.360 -110.352 -2.014 61.460 4717.876 2376.402 2.958 -0.498 0.181 -0.68 0.09 -0.1 0.72
1 9.29 929 -2.452 -9.587 0.857 -18.555 -120.301 -1.556 121.571 4807.818 2391.392 2.455 -0.193 -0.227 -0.68 0.09 -0.09 0.72
1 9.30 930 -1.279 -9.917 0.105 -44.068 -124.298 1.465 121.571 4808.118 2391.842 1.272 0.133 0.459 -0.68 0.07 -0.08 0.72
1 9.31 931 -1.322 -10.204 -0.508 -47.058 -128.815 -1.251 106.581 4718.176 2556.884 1.314 0.417 1.002 -0.69 0.07 -0.07 0.72
1 9.32 932 -0.785 -11.210 -0.225 -32.227 -145.569 -4.852 256.483 4688.196 2406.832 0.782 1.419 0.648 -0.69 0.06 -0.06 0.72
1 9.33 933 0.838 -12.666 0.728 -22.858 -160.676 -1.526 256.483 4688.196 2406.832 -0.828 2.873 -0.350 -0.69 0.05 -0.05 0.72
1 9.34 934 3.280 -13.561 0.852 -25.665 -157.319 11.963 181.532 4718.176 2511.914 -3.261 3.767 -0.508 -0.69 0.04 -0.04 0.72
1 9.35 935 4.803 -11.900 0.287 -2.930 -107.239 39.917 226.502 4658.215 2421.822 -4.801 2.104 0.021 -0.7 0.03 -0.04 0.72
1 9.36 936 3.625 -9.807 0.431 34.058 -61.554 43.121 376.555 4583.264 2646.826 -3.670 0.012 -0.136 -0.7 0.03 -0.03 0.72
1 9.37 937 1.930 -8.720 0.402 55.847 -37.232 37.445 376.555 4583.264 2646.826 -2.035 -1.074 -0.067 -0.69 0.03 -0.02 0.72
1 9.38 938 0.067 -8.337 0.144 29.297 -48.889 31.159 451.506 4658.215 2421.822 -0.242 -1.449 0.349 -0.69 0.02 -0.01 0.72
1 9.39 939 -0.192 -8.361 0.172 -7.629 -69.306 23.987 616.548 4433.212 2406.832 -0.023 -1.423 0.354 -0.69 0.02 -0.01 0.73
1 9.40 940 0.172 -8.505 0.431 -38.635 -80.109 16.083 616.848 4434.711 2409.380 -0.412 -1.279 0.075 -0.69 0.02 -0 0.73
1 9.41 941 0.646 -9.137 0.412 -56.580 -82.337 9.827 601.858 4509.662 2499.472 -0.901 -0.650 0.033 -0.69 0.01 0 0.72
1 9.42 942 1.245 -9.826 -0.077 -48.767 -85.511 9.094 676.959 4629.584 2499.472 -1.500 0.036 0.441 -0.69 0.01 0.01 0.72
1 9.43 943 1.733 -9.941 -0.393 -26.825 -86.060 7.782 676.959 4584.613 2469.341 -1.987 0.149 0.682 -0.7 0 0.01 0.72
1 9.44 944 2.279 -9.864 0.000 -5.371 -80.780 9.003 676.959 4584.613 2469.341 -2.528 0.071 0.242 -0.7 -0 0.02 0.72
1 9.45 945 2.538 -9.668 0.575 1.617 -65.155 13.428 841.852 4569.623 2664.364 -2.771 -0.126 -0.341 -0.7 -0.01 0.03 0.71
1 9.46 946 2.519 -9.343 0.575 -5.890 -53.284 16.724 916.953 4644.724 2664.364 -2.749 -0.452 -0.335 -0.7 -0.02 0.03 0.71
1 9.47 947 2.246 -9.319 0.493 -13.336 -42.572 17.883 916.953 4644.724 2664.364 -2.478 -0.476 -0.259 -0.7 -0.02 0.04 0.71
1 9.48 948 1.882 -9.333 0.402 -18.127 -34.332 18.158 916.953 4524.652 2589.413 -2.118 -0.462 -0.184 -0.7 -0.02 0.04 0.71
1 9.49 949 1.365 -9.228 0.072 -22.797 -29.053 16.510 991.904 4524.652 2559.433 -1.610 -0.567 0.122 -0.7 -0.02 0.04 0.71
1 9.50 950 1.001 -9.180 -0.206 -22.003 -29.419 12.665 991.904 4434.711 2664.364 -1.256 -0.616 0.368 -0.7 -0.03 0.04 0.71
1 9.51 951 0.795 -9.137 -0.230 -20.477 -29.511 7.080 991.904 4434.711 2664.364 -1.058 -0.659 0.359 -0.7 -0.03 0.05 0.71
1 9.52 952 0.910 -9.515 0.134 -26.856 -29.053 3.357 1037.324 4480.281 2650.423 -1.171 -0.281 -0.068 -0.7 -0.03 0.05 0.71
1 9.53 953 0.661 -9.783 0.177 -34.180 -26.489 5.310 992.204 4390.340 2635.433 -0.917 -0.014 -0.152 -0.71 -0.03 0.05 0.71
1 9.54 954 0.565 -9.960 0.019 -38.025 -24.567 4.852 992.204 4390.340 2635.433 -0.821 0.164 -0.044 -0.71 -0.04 0.06 0.7
1 9.55 955 0.445 -10.042 -0.172 -33.875 -24.170 3.632 1112.275 4405.330 2830.456 -0.700 0.245 0.096 -0.71 -0.04 0.06 0.7
1 9.56 956 0.378 -10.219 -0.287 -21.698 -26.154 -0.549 1097.285 4570.223 2695.394 -0.631 0.423 0.165 -0.71 -0.04 0.06 0.7
1 9.57 957 0.627 -10.329 -0.144 -15.686 -26.428 -1.984 1112.275 4480.281 2785.335 -0.874 0.533 -0.013 -0.71 -0.04 0.06 0.7
1 9.58 958 0.603 -10.181 -0.019 -12.970 -26.550 -3.113 1112.275 4480.281 2785.335 -0.842 0.385 -0.161 -0.71 -0.05 0.06 0.7
1 9.59 959 0.594 -10.085 -0.029 -11.871 -26.123 -3.601 1127.266 4435.311 2635.433 -0.821 0.289 -0.168 -0.71 -0.05 0.06 0.7
1 9.60 960 0.828 -9.908 -0.158 -10.590 -25.665 -4.974 1127.266 4435.311 2815.316 -1.029 0.112 -0.067 -0.71 -0.05 0.07 0.7
1 9.61 961 1.178 -9.759 -0.067 -10.223 -22.553 -6.256 1127.266 4435.311 2815.316 -1.363 -0.036 -0.171 -0.71 -0.06 0.07 0.7
1 9.62 962 1.130 -9.754 -0.043 -12.116 -15.198 -7.355 1352.269 4375.350 2650.423 -1.295 -0.041 -0.207 -0.71 -0.06 0.07 0.69
1 9.63 963 0.977 -9.845 -0.244 -16.937 -9.125 -8.911 1157.246 4450.301 2830.456 -1.120 0.050 -0.022 -0.71 -0.06 0.07 0.69
1 9.64 964 0.354 -10.358 -0.297 -26.001 -8.514 -14.404 1262.328 4375.350 2785.335 -0.473 0.563 0.006 -0.71 -0.06 0.07 0.69
1 9.65 965 0.101 -10.770 -0.603 -26.764 -13.062 -18.616 1262.328 4375.350 2785.335 -0.192 0.975 0.278 -0.72 -0.07 0.07 0.69
1 9.66 966 0.048 -10.918 -0.469 -23.041 -18.280 -21.668 1232.197 4405.330 2785.335 -0.109 1.125 0.105 -0.72 -0.07 0.07 0.69
1 9.67 967 0.326 -10.961 -0.532 -14.191 -22.766 -23.926 1037.324 4300.249 2785.335 -0.318 1.170 0.105 -0.72 -0.07 0.07 0.69
1 9.68 968 0.522 -10.774 -0.551 -9.125 -22.614 -21.881 1037.324 4300.249 2785.335 -0.479 0.984 0.106 -0.72 -0.08 0.07 0.69
1 9.69 969 0.704 -10.501 -0.618 -5.890 -20.752 -18.463 1172.236 4270.268 2770.345 -0.630 0.712 0.163 -0.72 -0.08 0.07 0.69
1 9.70 970 0.680 -10.271 -0.685 -5.920 -16.876 -15.442 1172.236 4270.268 2770.345 -0.574 0.483 0.222 -0.72 -0.08 0.07 0.69
1 9.71 971 0.148 -10.142 -1.374 -13.458 -15.259 -11.292 1172.236 4390.340 2770.345 -0.016 0.355 0.901 -0.72 -0.09 0.07 0.69
1 9.72 972 -0.024 -9.989 -1.681 -12.482 -18.799 -9.735 1172.236 4390.340 2770.345 0.177 0.203 1.187 -0.72 -0.09 0.07 0.69
1 9.73 973 0.048 -9.932 -1.762 -5.676 -26.276 -9.583 1187.227 4405.330 2935.388 0.119 0.147 1.242 -0.72 -0.09 0.07 0.68
1 9.74 974 1.049 -9.773 -1.374 2.716 -31.586 -9.430 1172.236 4315.239 2740.365 -0.857 -0.009 0.827 -0.72 -0.1 0.08 0.68
1 9.75 975 1.528 -9.999 -1.077 2.167 -25.910 -7.904 1172.236 4315.239 2740.365 -1.318 0.216 0.528 -0.72 -0.1 0.08 0.68
1 9.76 976 1.532 -10.157 -1.235 -2.625 -16.541 -5.524 1082.295 4450.301 2860.437 -1.303 0.375 0.683 -0.72 -0.1 0.08 0.68
1 9.77 977 1.355 -10.190 -1.360 -2.380 -9.216 -1.678 1082.295 4450.301 2860.437 -1.108 0.409 0.800 -0.72 -0.1 0.08 0.68
1 9.78 978 1.125 -10.319 -1.599 5.402 -6.836 -1.129 1112.275 4255.278 2905.407 -0.866 0.539 1.033 -0.72 -0.1 0.08 0.68
1 9.79 979 1.221 -10.152 -1.245 12.634 -6.622 -2.380 1112.275 4255.278 2905.407 -0.953 0.372 0.679 -0.72 -0.11 0.08 0.68
1 9.80 980 1.279 -10.061 -0.958 15.045 -3.479 -2.899 1187.227 4375.350 2785.335 -1.000 0.281 0.403 -0.72 -0.11 0.08 0.68
1 9.81 981 1.135 -10.003 -0.876 13.641 1.312 -2.289 1232.197 4375.350 2725.375 -0.844 0.222 0.340 -0.72 -0.11 0.08 0.68
1 9.82 982 0.733 -9.812 -0.958 9.705 6.744 -0.031 1232.197 4375.350 2725.375 -0.420 0.030 0.459 -0.72 -0.11 0.08 0.68
1 9.83 983 0.402 -9.802 -0.953 9.613 4.578 -1.770 1247.188 4360.359 2740.365 -0.083 0.020 0.467 -0.72 -0.11 0.08 0.68
1 9.84 984 0.278 -9.596 -1.130 9.827 0.183 -3.845 1247.188 4360.359 2740.365 0.047 -0.187 0.657 -0.72 -0.11 0.08 0.68
1 9.85 985 0.527 -9.558 -1.135 9.552 -6.653 -6.012 1172.236 4390.340 2740.365 -0.194 -0.225 0.673 -0.71 -0.11 0.08 0.69
1 9.86 986 1.044 -9.242 -0.891 6.348 -7.019 -6.226 1172.236 4390.340 2740.365 -0.700 -0.542 0.439 -0.71 -0.11 0.08 0.69
1 9.87 987 1.197 -9.275 -0.881 1.373 -3.265 -5.707 1127.266 4240.288 2665.414 -0.840 -0.508 0.438 -0.71 -0.12 0.09 0.69
1 9.88 988 0.972 -9.429 -1.159 -4.089 0.092 -7.538 1277.318 4435.311 2740.365 -0.600 -0.354 0.717 -0.71 -0.12 0.09 0.69
1 9.89 989 0.728 -9.587 -1.542 -2.991 1.648 -7.996 1277.318 4435.311 2740.365 -0.319 -0.194 1.082 -0.71 -0.12 0.09 0.69
1 9.90 990 0.464 -9.596 -1.590 4.883 0.427 -6.897 1127.266 4390.340 2740.365 -0.039 -0.183 1.122 -0.71 -0.12 0.09 0.68
