COL1	TIME	ACC_X	ACC_Y	ACC_Z	GYR_X	GYR_Y	GYR_Z	MAG_X	MAG_Y	MAG_Z	LACC_X	LACC_Y	LACC_Z	QUAT_X	QUAT_Y	QUAT_Z	QUAT_W
1 0.00 0 -0.646 -9.558 1.710 0.885 -1.434 0.885 104.932 -569.929 -3074.947 -0.049 -0.059 0.043 0.04 0.64 -0.77 0.01
1 0.01 1 -0.680 -9.553 1.786 0.214 -0.702 0.763 104.932 -569.929 -3074.947 -0.015 -0.064 -0.032 0.04 0.64 -0.77 0.01
1 0.02 2 -0.651 -9.620 1.738 -0.549 1.007 1.038 0.000 -524.958 -3149.898 -0.043 0.003 0.015 0.04 0.64 -0.77 0.01
1 0.03 3 -0.584 -9.596 1.681 -1.343 2.350 2.197 0.000 -524.958 -3149.898 -0.111 -0.020 0.073 0.04 0.64 -0.77 0.01
1 0.04 4 -0.824 -9.783 1.733 -3.418 3.693 3.998 14.990 -464.997 -3284.960 0.126 0.166 0.018 0.04 0.64 -0.77 0.01
1 0.05 5 -0.886 -9.826 1.786 -4.211 3.845 4.089 29.980 -329.935 -3194.869 0.183 0.209 -0.039 0.04 0.64 -0.77 0.01
1 0.06 6 -0.972 -9.735 1.781 -3.204 2.411 4.395 29.980 -329.935 -3194.869 0.263 0.117 -0.039 0.04 0.64 -0.77 0.01
1 0.07 7 -0.833 -9.841 1.815 -2.747 0.549 3.418 59.961 -599.909 -3119.917 0.110 0.223 -0.080 0.04 0.64 -0.77 0.01
1 0.08 8 -0.967 -9.821 1.710 -1.923 -1.465 2.930 59.961 -599.909 -3119.917 0.240 0.203 0.024 0.04 0.64 -0.77 0.01
1 0.09 9 -0.814 -9.879 1.805 -1.007 -2.350 1.770 164.893 -359.916 -3164.888 0.083 0.261 -0.073 0.04 0.64 -0.77 0.01
1 0.10 10 -0.608 -9.817 1.824 -0.153 -3.082 1.495 164.893 -359.916 -3164.888 -0.124 0.199 -0.092 0.04 0.64 -0.77 0.01
1 0.11 11 -0.666 -9.802 1.733 0.061 -1.862 1.495 179.883 -569.929 -3329.931 -0.066 0.185 0.001 0.04 0.64 -0.77 0.01
1 0.12 12 -0.675 -9.644 1.786 -0.244 -0.183 2.014 0.000 -494.978 -3149.898 -0.056 0.027 -0.049 0.04 0.64 -0.77 0.01
1 0.13 13 -0.685 -9.826 1.767 1.068 1.068 1.343 0.000 -494.978 -3149.898 -0.047 0.209 -0.029 0.04 0.64 -0.77 0.01
1 0.14 14 -0.752 -9.726 1.748 1.892 2.197 1.648 194.873 -509.968 -3134.908 0.017 0.110 -0.003 0.04 0.64 -0.77 0.01
1 0.15 15 -0.646 -9.649 1.671 0.824 1.495 0.488 194.873 -509.968 -3134.908 -0.090 0.034 0.077 0.04 0.64 -0.77 0.01
1 0.16 16 -0.781 -9.563 1.690 -0.031 1.404 0.824 59.961 -449.857 -3194.869 0.044 -0.052 0.059 0.04 0.64 -0.77 0.01
1 0.17 17 -0.790 -9.659 1.810 -0.488 0.763 1.740 59.961 -449.857 -3194.869 0.053 0.044 -0.060 0.04 0.64 -0.77 0.01
1 0.18 18 -0.876 -9.841 1.743 -1.068 -0.092 2.808 194.873 -434.867 -3314.940 0.137 0.227 0.008 0.04 0.64 -0.77 0.01
1 0.19 19 -0.900 -9.773 1.767 -1.251 -0.275 3.265 59.961 -494.978 -3119.917 0.157 0.160 -0.016 0.04 0.64 -0.77 0.01
1 0.20 20 -0.680 -9.778 1.805 -1.709 -1.617 3.143 59.961 -494.978 -3119.917 -0.067 0.165 -0.055 0.04 0.64 -0.77 0.01
1 0.21 21 -0.690 -9.836 1.757 -0.763 -2.441 2.594 119.922 -464.997 -3059.957 -0.062 0.222 -0.009 0.04 0.64 -0.77 0.01
1 0.22 22 -0.584 -9.793 1.748 -0.702 -2.380 2.075 119.922 -464.997 -3059.957 -0.168 0.179 0.001 0.04 0.64 -0.77 0.01
1 0.23 23 -0.445 -9.831 1.896 -0.092 -1.343 1.801 -29.980 -569.929 -3194.869 -0.306 0.218 -0.147 0.04 0.64 -0.77 0.01
1 0.24 24 -0.579 -9.730 1.820 -0.458 0.183 1.251 -29.980 -569.929 -3194.869 -0.170 0.117 -0.070 0.04 0.64 -0.77 0.01
1 0.25 25 -0.484 -9.678 1.781 -0.427 1.434 1.526 344.925 -434.867 -3059.957 -0.265 0.064 -0.031 0.04 0.64 -0.77 0.01
1 0.26 26 -0.575 -9.711 1.853 0.031 3.082 1.526 29.980 -524.958 -3254.979 -0.173 0.098 -0.101 0.04 0.64 -0.77 0.01
1 0.27 27 -0.694 -9.735 1.671 -0.031 3.815 0.427 29.980 -524.958 -3254.979 -0.053 0.122 0.082 0.04 0.64 -0.77 0.01
1 0.28 28 -0.761 -9.639 1.786 0.153 3.326 -1.038 134.912 -449.857 -3149.898 0.015 0.027 -0.030 0.04 0.64 -0.77 0.01
1 0.29 29 -0.737 -9.682 1.738 0.732 2.991 -1.648 134.912 -449.857 -3149.898 -0.007 0.070 0.020 0.04 0.64 -0.77 0.01
1 0.30 30 -0.512 -9.582 1.729 -0.214 2.716 -2.045 59.961 -494.978 -3119.917 -0.229 -0.030 0.031 0.04 0.64 -0.77 0.01
1 0.31 31 -0.632 -9.592 1.887 -0.061 2.899 -2.472 59.961 -494.978 -3119.917 -0.104 -0.021 -0.126 0.04 0.64 -0.77 0.01
1 0.32 32 -0.713 -9.582 1.820 0.458 3.235 -1.953 194.873 -389.896 -3239.989 -0.018 -0.030 -0.057 0.04 0.64 -0.77 0.01
1 0.33 33 -0.603 -9.750 1.786 -0.732 4.791 -0.641 194.873 -509.968 -3164.888 -0.126 0.137 -0.022 0.04 0.64 -0.77 0.01
1 0.34 34 -0.627 -9.702 1.801 -0.549 5.585 -0.916 194.873 -509.968 -3164.888 -0.099 0.089 -0.036 0.04 0.64 -0.77 0.01
1 0.35 35 -0.661 -9.692 1.762 -1.556 6.744 -0.183 44.971 -629.890 -3134.908 -0.064 0.079 0.002 0.04 0.64 -0.77 0.01
1 0.36 36 -0.800 -9.615 1.652 -1.678 5.188 0.000 119.922 -509.968 -3059.957 0.076 0.002 0.110 0.04 0.64 -0.77 0.01
1 0.37 37 -0.795 -9.678 1.810 -1.587 3.662 0.732 209.863 -569.929 -3149.898 0.070 0.064 -0.050 0.04 0.64 -0.77 0.01
1 0.38 38 -0.776 -9.587 1.724 -1.190 3.662 0.519 209.863 -569.929 -3149.898 0.049 -0.027 0.035 0.04 0.64 -0.77 0.01
1 0.39 39 -0.891 -9.726 1.729 -1.648 2.411 0.702 134.912 -449.857 -3254.979 0.163 0.112 0.030 0.04 0.64 -0.77 0.01
1 0.40 40 -0.867 -9.817 1.599 -2.441 1.190 1.373 164.893 -539.948 -3239.989 0.138 0.203 0.157 0.04 0.64 -0.77 0.01
1 0.41 41 -0.809 -9.884 1.863 -1.984 0.641 1.099 164.893 -539.948 -3239.989 0.080 0.270 -0.108 0.04 0.64 -0.77 0.01
1 0.42 42 -0.680 -9.979 1.743 -1.862 0.641 0.671 134.912 -599.909 -3194.869 -0.052 0.365 0.009 0.04 0.64 -0.77 0.01
1 0.43 43 -0.790 -10.056 1.743 -0.854 0.214 0.153 -29.980 -449.857 -3299.950 0.058 0.441 0.007 0.04 0.64 -0.77 0.01
1 0.44 44 -0.666 -10.022 1.719 0.061 1.190 -0.671 194.873 -629.890 -3239.989 -0.065 0.408 0.031 0.04 0.64 -0.77 0.01
1 0.45 45 -0.852 -10.032 1.733 2.441 1.617 -1.862 194.873 -629.890 -3239.989 0.124 0.417 0.018 0.04 0.64 -0.77 0.01
1 0.46 46 -0.747 -9.984 1.757 3.540 1.587 -2.502 254.984 -449.857 -2969.865 0.022 0.370 -0.000 0.04 0.64 -0.77 0
1 0.47 47 -0.776 -9.927 1.781 4.120 1.740 -2.563 134.912 -599.909 -3074.947 0.055 0.314 -0.017 0.04 0.64 -0.77 0
1 0.48 48 -1.063 -9.826 1.724 5.402 0.641 -1.465 134.912 -599.909 -3074.947 0.347 0.214 0.048 0.04 0.64 -0.77 0
1 0.49 49 -0.915 -9.797 1.777 6.348 0.122 0.305 134.912 -494.978 -3149.898 0.200 0.187 0.004 0.04 0.64 -0.77 0
1 0.50 50 -0.843 -9.639 1.647 5.951 -1.526 1.770 179.883 -524.958 -3119.917 0.128 0.031 0.144 0.04 0.64 -0.77 0
1 0.51 51 -0.891 -9.563 1.738 5.341 -2.350 2.441 254.984 -524.958 -3254.979 0.170 -0.042 0.072 0.04 0.64 -0.77 0
1 0.52 52 -0.857 -9.443 1.829 5.096 -2.441 3.632 254.984 -524.958 -3254.979 0.133 -0.159 -0.010 0.04 0.64 -0.77 0
1 0.53 53 -0.848 -9.520 1.781 3.448 -3.082 2.594 194.873 -464.997 -3164.888 0.119 -0.081 0.045 0.04 0.64 -0.77 0
1 0.54 54 -0.833 -9.524 1.786 2.594 -4.089 2.625 194.873 -539.948 -3134.908 0.102 -0.075 0.048 0.04 0.64 -0.77 0
1 0.55 55 -0.776 -9.529 1.992 2.045 -5.402 1.862 194.873 -539.948 -3134.908 0.043 -0.069 -0.153 0.04 0.64 -0.77 0
1 0.56 56 -0.771 -9.501 1.829 1.312 -6.256 1.526 89.941 -539.948 -3104.927 0.036 -0.096 0.015 0.04 0.64 -0.77 0.01
1 0.57 57 -0.824 -9.687 1.925 2.075 -6.348 0.763 179.883 -569.929 -3149.898 0.090 0.091 -0.076 0.04 0.64 -0.77 0.01
1 0.58 58 -0.656 -9.558 1.949 0.977 -6.134 0.458 374.906 -539.948 -3059.957 -0.074 -0.036 -0.090 0.04 0.64 -0.77 0.01
1 0.59 59 -0.910 -9.529 1.863 1.068 -6.104 0.732 374.906 -539.948 -3059.957 0.182 -0.064 0.001 0.04 0.63 -0.77 0.01
1 0.60 60 -0.723 -9.515 1.930 0.305 -5.829 1.038 44.971 -464.997 -3209.859 -0.005 -0.078 -0.063 0.04 0.63 -0.77 0.01
1 0.61 61 -0.709 -9.472 1.834 -0.580 -5.829 1.160 44.971 -584.919 -3239.989 -0.019 -0.121 0.036 0.04 0.63 -0.77 0.01
1 0.62 62 -0.646 -9.429 1.820 -2.350 -4.730 2.014 44.971 -584.919 -3239.989 -0.081 -0.163 0.052 0.04 0.63 -0.77 0.01
1 0.63 63 -0.498 -9.592 1.824 -2.258 -3.540 1.801 224.854 -704.991 -3239.989 -0.228 -0.001 0.047 0.04 0.63 -0.77 0.01
1 0.64 64 -0.455 -9.477 1.925 -3.479 -1.801 1.678 -14.990 -584.919 -3134.908 -0.270 -0.116 -0.054 0.04 0.63 -0.77 0.01
1 0.65 65 -0.589 -9.510 1.997 -4.608 0.366 1.160 119.922 -584.919 -3284.960 -0.135 -0.084 -0.133 0.04 0.63 -0.77 0.01
1 0.66 66 -0.709 -9.706 1.848 -5.066 1.251 0.427 119.922 -584.919 -3284.960 -0.014 0.112 0.011 0.04 0.64 -0.77 0.01
1 0.67 67 -0.718 -9.615 1.982 -5.524 0.549 0.458 179.883 -524.958 -3299.950 -0.004 0.019 -0.129 0.04 0.64 -0.77 0.01
1 0.68 68 -0.838 -9.740 2.030 -5.035 0.488 -0.031 104.932 -599.909 -3329.931 0.117 0.143 -0.183 0.04 0.64 -0.77 0.01
1 0.69 69 -0.843 -9.821 1.949 -4.517 -1.312 -0.214 104.932 -599.909 -3329.931 0.122 0.223 -0.106 0.04 0.64 -0.77 0.01
1 0.70 70 -0.742 -9.764 1.829 -3.967 -1.373 0.641 104.932 -644.880 -3224.999 0.023 0.165 0.009 0.04 0.64 -0.77 0.01
1 0.71 71 -0.694 -9.721 1.848 -3.387 -0.977 1.434 179.883 -524.958 -3194.869 -0.025 0.121 -0.014 0.04 0.64 -0.77 0.01
1 0.72 72 -0.704 -9.682 1.757 -2.808 0.641 3.357 119.922 -584.919 -3209.859 -0.018 0.082 0.071 0.04 0.64 -0.77 0.01
1 0.73 73 -0.785 -9.649 1.681 -3.296 2.502 3.693 119.922 -584.919 -3209.859 0.060 0.048 0.143 0.04 0.64 -0.77 0.01
1 0.74 74 -0.579 -9.802 1.714 -3.967 2.075 3.204 209.863 -644.880 -3194.869 -0.151 0.200 0.105 0.04 0.64 -0.77 0.01
1 0.75 75 -0.776 -9.592 1.733 -4.486 0.885 2.960 89.941 -539.948 -3164.888 0.042 -0.011 0.080 0.04 0.64 -0.77 0.01
1 0.76 76 -0.843 -9.673 1.642 -5.707 0.336 2.289 89.941 -539.948 -3164.888 0.105 0.069 0.165 0.04 0.64 -0.77 0.01
1 0.77 77 -0.675 -9.850 1.762 -5.615 -1.251 0.793 164.893 -629.890 -3164.888 -0.064 0.245 0.038 0.04 0.64 -0.77 0.01
1 0.78 78 -0.646 -9.927 1.834 -5.280 -1.648 0.031 104.932 -494.978 -3194.869 -0.093 0.320 -0.041 0.04 0.64 -0.77 0.01
1 0.79 79 -0.752 -9.812 1.767 -3.967 -1.892 -0.244 104.932 -494.978 -3194.869 0.014 0.204 0.018 0.04 0.64 -0.77 0.01
1 0.80 80 -0.771 -9.874 1.805 -2.960 -0.824 -0.458 254.984 -494.978 -3194.869 0.037 0.265 -0.028 0.04 0.64 -0.77 0.01
1 0.81 81 -0.690 -9.879 1.863 -1.709 -0.732 0.580 209.863 -599.909 -3074.947 -0.043 0.269 -0.086 0.04 0.64 -0.77 0.01
1 0.82 82 -0.699 -9.879 1.666 -1.617 0.122 0.916 29.980 -569.929 -3119.917 -0.033 0.269 0.110 0.04 0.64 -0.77 0.01
1 0.83 83 -0.757 -9.716 1.777 -0.824 0.214 1.434 29.980 -569.929 -3119.917 0.024 0.106 -0.001 0.04 0.64 -0.77 0.01
1 0.84 84 -0.646 -9.630 1.628 -1.740 1.099 2.289 134.912 -524.958 -3044.966 -0.087 0.020 0.148 0.04 0.64 -0.77 0.01
1 0.85 85 -0.699 -9.726 1.647 -2.625 1.648 3.632 59.961 -494.978 -3149.898 -0.037 0.116 0.127 0.04 0.64 -0.77 0.01
1 0.86 86 -0.675 -9.735 1.647 -3.326 1.770 4.059 59.961 -494.978 -3149.898 -0.064 0.125 0.124 0.04 0.64 -0.77 0.01
1 0.87 87 -0.512 -9.711 1.551 -3.113 1.343 4.547 344.925 -629.890 -3239.989 -0.236 0.100 0.212 0.04 0.64 -0.77 0.01
1 0.88 88 -0.464 -9.908 1.623 -4.120 2.014 5.402 44.971 -539.948 -3059.957 -0.289 0.296 0.135 0.04 0.64 -0.77 0.01
1 0.89 89 -0.484 -9.888 1.748 -4.272 3.235 5.554 164.893 -539.948 -3134.908 -0.275 0.276 0.003 0.04 0.64 -0.77 0.01
1 0.90 90 -0.532 -9.965 1.748 -2.197 5.188 5.249 164.893 -539.948 -3134.908 -0.232 0.352 -0.002 0.05 0.64 -0.77 0.01
1 0.91 91 -0.474 -9.783 1.810 -0.580 7.477 5.005 224.854 -434.867 -3104.927 -0.296 0.170 -0.066 0.05 0.64 -0.77 0.01
1 0.92 92 -0.646 -9.659 1.887 0.885 7.385 3.845 104.932 -449.857 -3194.869 -0.129 0.046 -0.142 0.05 0.64 -0.77 0.01
1 0.93 93 -0.709 -9.620 1.757 1.556 7.019 2.380 104.932 -449.857 -3194.869 -0.071 0.009 -0.010 0.05 0.64 -0.77 0.01
1 0.94 94 -0.757 -9.587 1.757 1.221 6.470 1.495 209.863 -569.929 -3119.917 -0.028 -0.024 -0.007 0.05 0.64 -0.77 0.01
1 0.95 95 -0.790 -9.515 1.805 0.153 5.829 -0.671 104.932 -449.857 -3149.898 0.003 -0.095 -0.051 0.05 0.64 -0.77 0.01
1 0.96 96 -0.718 -9.601 1.839 0.031 6.378 -1.160 59.961 -599.909 -3224.999 -0.067 -0.008 -0.084 0.05 0.64 -0.77 0
1 0.97 97 -0.699 -9.730 1.710 -0.793 7.111 -2.686 59.961 -599.909 -3224.999 -0.084 0.121 0.045 0.05 0.64 -0.77 0
1 0.98 98 -0.728 -9.553 1.724 -0.061 7.660 -2.655 224.854 -584.919 -3164.888 -0.051 -0.057 0.030 0.05 0.64 -0.77 0
1 0.99 99 -0.867 -9.668 1.580 -1.099 8.606 -2.289 224.854 -629.890 -3104.927 0.091 0.058 0.174 0.05 0.64 -0.77 0
1 1.00 100 -0.924 -9.625 1.777 -1.709 7.355 -2.014 224.854 -629.890 -3104.927 0.151 0.014 -0.023 0.05 0.64 -0.77 0
1 1.01 101 -0.934 -9.754 1.642 -2.380 6.104 -1.678 89.941 -509.968 -3029.976 0.162 0.143 0.108 0.05 0.64 -0.77 0
1 1.02 102 -1.044 -9.692 1.719 -2.899 5.035 -0.305 209.863 -524.958 -3224.999 0.273 0.079 0.025 0.05 0.64 -0.77 0
1 1.03 103 -0.986 -9.826 1.762 -2.380 4.089 -0.427 269.974 -434.867 -3104.927 0.214 0.213 -0.022 0.05 0.64 -0.77 0
1 1.04 104 -1.030 -9.807 1.705 -1.404 3.510 0.610 269.974 -434.867 -3104.927 0.256 0.193 0.033 0.05 0.64 -0.77 0
1 1.05 105 -1.058 -9.692 1.834 -1.251 2.655 0.305 299.955 -629.890 -3029.976 0.284 0.078 -0.098 0.05 0.64 -0.77 0
1 1.06 106 -0.939 -9.682 1.748 -0.702 1.495 0.610 119.922 -464.997 -3164.888 0.162 0.069 -0.012 -0.05 -0.64 0.77 0
1 1.07 107 -1.135 -9.534 1.719 -1.526 -0.214 0.092 119.922 -464.997 -3164.888 0.356 -0.079 0.017 -0.05 -0.64 0.77 0
1 1.08 108 -1.149 -9.592 1.638 -3.540 -2.197 0.244 284.964 -644.880 -3119.917 0.370 -0.022 0.098 -0.05 -0.64 0.77 0
1 1.09 109 -1.135 -9.740 1.614 -4.517 -5.127 0.153 179.883 -599.909 -3044.966 0.353 0.125 0.115 0.05 0.64 -0.77 0
1 1.10 110 -1.274 -9.821 1.729 -3.998 -6.531 0.916 224.854 -629.890 -3164.888 0.491 0.206 -0.005 0.05 0.64 -0.77 0
1 1.11 111 -0.996 -9.826 1.844 -2.716 -8.118 2.350 224.854 -629.890 -3164.888 0.211 0.210 -0.124 0.05 0.64 -0.77 0
1 1.12 112 -0.934 -9.864 1.844 -2.838 -9.186 3.357 299.955 -389.896 -3134.908 0.146 0.248 -0.126 0.05 0.64 -0.77 0
1 1.13 113 -0.781 -9.999 1.781 -2.533 -9.522 3.235 224.854 -509.968 -3059.957 -0.010 0.382 -0.065 0.05 0.64 -0.77 0
1 1.14 114 -0.613 -9.960 1.786 0.397 -9.613 2.777 224.854 -509.968 -3059.957 -0.179 0.344 -0.070 0.05 0.64 -0.77 0
1 1.15 115 -0.579 -9.845 1.868 1.495 -8.698 1.648 14.990 -464.997 -3104.927 -0.212 0.230 -0.148 0.05 0.64 -0.77 0
1 1.16 116 -0.369 -9.817 1.681 0.427 -6.989 0.000 119.922 -389.896 -3164.888 -0.416 0.202 0.048 0.05 0.64 -0.77 0
1 1.17 117 -0.460 -9.750 1.839 0.519 -4.120 0.397 179.883 -494.978 -3149.898 -0.319 0.135 -0.108 0.05 0.64 -0.77 0
1 1.18 118 -0.570 -9.826 1.623 0.916 -1.862 1.770 179.883 -494.978 -3149.898 -0.205 0.212 0.110 0.05 0.64 -0.77 0
1 1.19 119 -0.512 -9.836 1.844 2.014 0.061 2.106 59.961 -419.876 -3194.869 -0.261 0.222 -0.107 0.05 0.64 -0.77 0
1 1.20 120 -0.623 -9.841 1.767 2.655 1.373 1.953 179.883 -524.958 -3194.869 -0.151 0.227 -0.026 0.05 0.64 -0.77 0
1 1.21 121 -0.508 -9.745 1.724 2.625 1.556 0.519 179.883 -524.958 -3194.869 -0.266 0.133 0.022 0.05 0.64 -0.77 0
1 1.22 122 -0.603 -9.807 1.638 3.723 2.258 -1.678 224.854 -509.968 -3239.989 -0.168 0.195 0.112 0.05 0.64 -0.77 0
1 1.23 123 -0.551 -9.888 1.676 4.364 0.763 -2.502 224.854 -509.968 -3239.989 -0.217 0.278 0.080 0.05 0.64 -0.77 0
1 1.24 124 -0.814 -9.927 1.791 4.974 -0.977 -4.791 164.893 -464.997 -3134.908 0.059 0.317 -0.021 0.05 0.64 -0.77 0
1 1.25 125 -0.709 -9.821 1.676 4.852 -1.770 -4.578 164.893 -464.997 -3134.908 -0.038 0.213 0.102 0.05 0.64 -0.77 0
1 1.26 126 -0.685 -9.812 1.810 5.005 -2.350 -4.730 134.912 -374.906 -3194.869 -0.054 0.204 -0.024 0.05 0.64 -0.77 0
1 1.27 127 -0.728 -9.668 1.757 5.096 -1.251 -3.113 224.854 -434.867 -3134.908 -0.002 0.062 0.037 0.05 0.64 -0.77 0
1 1.28 128 -0.642 -9.539 1.848 4.181 -0.671 -1.709 224.854 -434.867 -3134.908 -0.083 -0.066 -0.045 0.05 0.64 -0.77 0
1 1.29 129 -0.833 -9.692 1.767 4.028 -0.671 -0.793 224.854 -464.997 -3239.989 0.113 0.088 0.045 0.05 0.64 -0.77 0
1 1.30 130 -0.766 -9.462 1.877 3.235 -1.038 0.061 224.854 -464.997 -3239.989 0.049 -0.141 -0.057 0.05 0.64 -0.77 0
1 1.31 131 -0.781 -9.682 1.810 1.251 -1.282 1.343 134.912 -674.860 -3014.986 0.065 0.082 0.020 0.05 0.64 -0.77 0
1 1.32 132 -0.757 -9.678 1.882 -0.153 -1.373 1.587 134.912 -674.860 -3014.986 0.040 0.077 -0.049 0.05 0.64 -0.77 0
1 1.33 133 -0.862 -9.644 1.829 0.336 -1.953 0.732 119.922 -464.997 -3104.927 0.145 0.044 0.006 0.05 0.64 -0.77 0
1 1.34 134 -1.001 -9.553 2.030 0.641 -1.648 0.488 89.941 -629.890 -3389.892 0.283 -0.046 -0.193 0.05 0.64 -0.77 0
1 1.35 135 -1.030 -9.596 1.872 0.000 -2.625 0.275 89.941 -629.890 -3389.892 0.311 -0.003 -0.032 0.05 0.64 -0.77 0
1 1.36 136 -1.063 -9.649 1.829 0.702 -4.852 0.458 119.922 -584.919 -3059.957 0.344 0.051 0.013 0.05 0.64 -0.77 0
1 1.37 137 -1.015 -9.841 1.815 0.824 -5.859 1.526 119.922 -584.919 -3059.957 0.295 0.243 0.030 0.05 0.64 -0.77 0
1 1.38 138 -0.996 -9.702 1.796 0.336 -6.561 1.556 194.873 -659.870 -3164.888 0.275 0.104 0.052 0.05 0.64 -0.77 0
1 1.39 139 -0.843 -9.706 1.714 -0.458 -6.287 3.906 59.961 -644.880 -3119.917 0.117 0.110 0.136 0.05 0.64 -0.77 0
1 1.40 140 -0.771 -9.563 1.642 -1.343 -5.768 5.188 164.893 -509.968 -3134.908 0.041 -0.033 0.209 0.05 0.64 -0.77 0
1 1.41 141 -0.876 -9.544 1.666 -1.953 -5.280 6.439 104.932 -569.929 -3224.999 0.140 -0.052 0.184 0.05 0.64 -0.77 0
1 1.42 142 -0.800 -9.644 1.623 -2.777 -5.463 6.897 104.932 -569.929 -3224.999 0.055 0.049 0.224 0.05 0.64 -0.77 0.01
1 1.43 143 -0.733 -9.745 1.710 -4.242 -5.096 7.690 179.883 -524.958 -3074.947 -0.020 0.149 0.134 0.05 0.64 -0.77 0.01
1 1.44 144 -0.579 -9.735 1.801 -6.348 -4.822 7.294 179.883 -524.958 -3074.947 -0.182 0.139 0.039 0.05 0.64 -0.77 0.01
1 1.45 145 -0.608 -10.061 1.848 -7.019 -3.418 7.416 134.912 -419.876 -3149.898 -0.161 0.464 -0.016 0.05 0.64 -0.77 0.01
1 1.46 146 -0.666 -10.075 1.891 -3.540 -0.793 6.653 89.941 -584.919 -3134.908 -0.118 0.477 -0.076 0.05 0.64 -0.77 0.01
1 1.47 147 -0.848 -10.080 1.954 -1.678 0.702 6.714 179.883 -569.929 -3119.917 0.056 0.482 -0.141 0.05 0.64 -0.77 0.01
1 1.48 148 -0.737 -10.022 1.863 0.244 0.732 5.371 209.863 -599.909 -3044.966 -0.062 0.425 -0.051 0.05 0.64 -0.77 0.01
1 1.49 149 -0.790 -9.788 1.882 2.289 0.092 3.906 209.863 -599.909 -3044.966 -0.015 0.191 -0.067 0.05 0.64 -0.77 0.01
1 1.50 150 -0.915 -9.726 1.733 4.395 0.031 2.716 89.941 -464.997 -3134.908 0.105 0.130 0.086 0.05 0.64 -0.77 0.01
1 1.51 151 -0.809 -9.510 1.714 4.517 -0.244 2.411 89.941 -464.997 -3134.908 -0.003 -0.084 0.113 0.05 0.64 -0.77 0.01
1 1.52 152 -0.843 -9.558 1.805 3.937 1.068 2.533 194.873 -539.948 -3164.888 0.027 -0.034 0.030 0.05 0.64 -0.77 0.01
1 1.53 153 -0.833 -9.429 1.705 2.533 2.014 2.380 134.912 -524.958 -3299.950 0.012 -0.160 0.143 0.05 0.64 -0.77 0.01
1 1.54 154 -0.814 -9.592 1.829 0.641 2.960 2.777 59.961 -569.929 -3149.898 -0.010 0.003 0.022 0.05 0.64 -0.77 0.01
1 1.55 155 -0.713 -9.592 1.896 -0.488 3.143 2.747 194.873 -539.948 -3239.989 -0.115 0.004 -0.044 0.05 0.63 -0.77 0.01
1 1.56 156 -0.752 -9.625 1.973 -0.977 3.693 2.991 194.873 -539.948 -3239.989 -0.080 0.038 -0.120 0.05 0.63 -0.77 0.01
1 1.57 157 -0.948 -9.831 1.930 -1.709 3.296 3.052 104.932 -524.958 -3224.999 0.112 0.244 -0.076 0.05 0.63 -0.77 0.01
1 1.58 158 -1.015 -10.056 1.992 -3.021 4.456 3.113 104.932 -524.958 -3224.999 0.175 0.469 -0.140 0.05 0.63 -0.77 0.01
1 1.59 159 -1.221 -10.051 2.035 -1.617 3.845 4.242 254.984 -494.978 -3224.999 0.376 0.464 -0.186 0.05 0.64 -0.77 0.01
1 1.60 160 -1.283 -10.123 2.011 0.153 1.465 6.470 104.932 -599.909 -3194.869 0.423 0.537 -0.164 0.05 0.64 -0.77 0.01
1 1.61 161 -1.164 -10.051 1.973 1.465 -0.641 6.928 209.863 -524.958 -3194.869 0.292 0.467 -0.123 0.05 0.63 -0.77 0.01
1 1.62 162 -1.207 -9.864 2.140 2.777 -1.434 7.385 179.883 -644.880 -3254.979 0.325 0.282 -0.287 0.05 0.63 -0.77 0.01
1 1.63 163 -0.757 -9.898 1.987 2.258 -1.740 6.409 179.883 -644.880 -3254.979 -0.136 0.318 -0.127 0.05 0.63 -0.77 0.01
1 1.64 164 -0.852 -9.730 1.959 2.380 -1.129 6.195 224.854 -509.968 -3164.888 -0.047 0.152 -0.093 0.05 0.63 -0.77 0.01
1 1.65 165 -0.603 -9.874 1.901 3.448 0.854 5.646 224.854 -509.968 -3164.888 -0.303 0.297 -0.029 0.05 0.63 -0.77 0.01
1 1.66 166 -0.670 -9.769 1.959 3.662 2.411 4.150 119.922 -539.948 -3164.888 -0.242 0.194 -0.080 0.05 0.63 -0.77 0.01
1 1.67 167 -0.690 -10.003 1.987 4.089 2.563 3.174 179.883 -449.857 -3224.999 -0.226 0.430 -0.102 0.05 0.63 -0.77 0.01
1 1.68 168 -0.728 -9.841 1.944 4.608 1.770 0.763 194.873 -659.870 -3164.888 -0.190 0.270 -0.044 0.05 0.63 -0.77 0.01
1 1.69 169 -0.747 -9.841 1.973 4.364 1.526 -0.702 329.935 -599.909 -3374.901 -0.170 0.272 -0.064 0.05 0.63 -0.77 0.01
1 1.70 170 -0.757 -9.740 1.963 6.775 1.892 -1.129 329.935 -599.909 -3374.901 -0.157 0.173 -0.046 0.05 0.63 -0.77 0.01
1 1.71 171 -0.776 -9.702 2.050 6.775 2.899 -0.549 179.883 -524.958 -3074.947 -0.135 0.137 -0.120 0.05 0.63 -0.77 0.01
1 1.72 172 -1.025 -9.831 1.915 6.073 3.235 1.495 179.883 -524.958 -3074.947 0.116 0.268 0.025 0.05 0.63 -0.77 0.01
1 1.73 173 -1.001 -9.606 1.925 5.981 2.533 2.258 224.854 -704.991 -3284.960 0.091 0.045 0.025 0.05 0.63 -0.77 0.01
1 1.74 174 -1.049 -9.611 1.963 6.287 1.740 3.540 209.863 -599.909 -3254.979 0.136 0.052 -0.004 0.05 0.63 -0.77 0.01
1 1.75 175 -0.996 -9.496 1.815 4.974 -0.610 3.967 209.863 -569.929 -3149.898 0.074 -0.058 0.164 0.05 0.63 -0.78 0.01
1 1.76 176 -0.972 -9.697 1.858 3.571 -3.571 3.967 104.932 -524.958 -3119.917 0.044 0.145 0.128 0.05 0.63 -0.78 0.01
1 1.77 177 -0.963 -9.663 2.083 3.540 -5.371 3.571 104.932 -524.958 -3119.917 0.031 0.113 -0.090 0.05 0.63 -0.78 0.01
1 1.78 178 -0.929 -9.769 2.212 3.632 -7.324 3.326 104.932 -494.978 -3254.979 -0.005 0.221 -0.212 0.05 0.63 -0.78 0.01
1 1.79 179 -0.723 -9.754 2.212 4.120 -7.080 2.899 104.932 -494.978 -3254.979 -0.213 0.208 -0.204 0.05 0.63 -0.78 0.01
1 1.80 180 -0.809 -9.663 2.102 4.059 -5.157 3.387 254.984 -674.860 -3224.999 -0.126 0.119 -0.084 0.05 0.63 -0.78 0.01
1 1.81 181 -0.570 -9.630 2.275 4.517 -3.204 3.082 329.935 -719.981 -3299.950 -0.366 0.087 -0.248 0.05 0.63 -0.78 0.01
1 1.82 182 -0.584 -9.366 2.126 3.998 -2.167 1.556 329.935 -719.981 -3299.950 -0.352 -0.174 -0.090 0.05 0.63 -0.78 0.01
1 1.83 183 -0.814 -9.333 2.140 3.998 -1.862 0.946 134.912 -524.958 -3299.950 -0.119 -0.204 -0.086 0.05 0.63 -0.78 0.01
1 1.84 184 -0.680 -9.319 1.992 3.448 -2.594 -0.244 134.912 -524.958 -3299.950 -0.250 -0.217 0.071 0.05 0.63 -0.78 0.01
1 1.85 185 -0.804 -9.252 1.968 3.113 -3.357 -1.190 194.873 -734.971 -3284.960 -0.121 -0.282 0.102 0.05 0.63 -0.78 0.01
1 1.86 186 -0.761 -9.247 1.939 1.007 -3.967 -1.526 194.873 -734.971 -3284.960 -0.160 -0.287 0.136 0.05 0.63 -0.78 0.01
1 1.87 187 -0.704 -9.424 1.949 -1.709 -2.899 -1.099 284.964 -719.981 -3224.999 -0.212 -0.109 0.129 0.05 0.63 -0.78 0.01
1 1.88 188 -0.891 -9.663 2.059 -2.563 -2.594 -1.007 269.974 -659.870 -3284.960 -0.020 0.130 0.019 0.05 0.63 -0.78 0.01
1 1.89 189 -0.915 -9.654 2.026 -2.808 -2.258 -0.793 269.974 -659.870 -3284.960 0.008 0.119 0.050 0.05 0.63 -0.78 0.01
1 1.90 190 -0.905 -9.879 2.069 -2.014 -1.068 0.092 299.955 -509.968 -3359.911 0.004 0.342 0.001 0.05 0.63 -0.78 0.01
1 1.91 191 -1.068 -9.812 2.145 -0.610 -1.587 -0.122 299.955 -509.968 -3359.911 0.167 0.275 -0.076 0.05 0.63 -0.78 0.01
1 1.92 192 -1.063 -9.893 1.939 1.617 -2.441 0.397 254.984 -494.978 -3299.950 0.163 0.357 0.131 0.05 0.63 -0.78 0.01
1 1.93 193 -1.168 -9.759 1.939 2.869 -4.425 1.068 254.984 -494.978 -3299.950 0.268 0.224 0.135 0.05 0.63 -0.78 0.01
1 1.94 194 -1.082 -9.649 1.915 2.563 -8.087 1.984 104.932 -644.880 -3149.898 0.181 0.115 0.164 0.05 0.63 -0.78 0.01
1 1.95 195 -1.053 -9.443 1.949 1.526 -9.186 3.418 194.873 -584.919 -3209.859 0.152 -0.090 0.135 0.05 0.63 -0.78 0.01
1 1.96 196 -0.814 -9.347 2.073 0.702 -9.491 4.150 194.873 -584.919 -3209.859 -0.090 -0.185 0.016 0.05 0.63 -0.78 0.01
1 1.97 197 -0.723 -9.256 2.121 -1.495 -8.301 4.120 269.974 -584.919 -3209.859 -0.185 -0.274 -0.027 0.05 0.62 -0.78 0.01
1 1.98 198 -0.666 -9.319 2.164 -3.540 -7.324 3.906 269.974 -584.919 -3209.859 -0.244 -0.212 -0.071 0.05 0.63 -0.78 0.01
1 1.99 199 -0.603 -9.515 2.198 -4.547 -5.646 2.869 134.912 -599.909 -3329.931 -0.307 -0.016 -0.108 0.05 0.63 -0.78 0.01
1 2.00 200 -0.651 -9.496 2.169 -5.402 -5.005 1.129 134.912 -599.909 -3329.931 -0.258 -0.036 -0.083 0.05 0.63 -0.78 0.01
1 2.01 201 -0.737 -9.735 2.112 -4.364 -5.188 0.122 209.863 -449.857 -3149.898 -0.169 0.202 -0.031 0.05 0.63 -0.78 0.01
1 2.02 202 -0.809 -9.793 2.169 -3.357 -7.172 -2.075 209.863 -599.909 -3329.931 -0.093 0.258 -0.092 0.05 0.63 -0.78 0.01
1 2.03 203 -0.963 -9.821 2.212 -2.106 -9.216 -3.540 209.863 -599.909 -3329.931 0.067 0.286 -0.137 0.05 0.63 -0.78 0.01
1 2.04 204 -0.886 -9.908 2.251 -0.824 -11.841 -2.014 104.932 -599.909 -3224.999 0.009 0.370 -0.175 0.05 0.63 -0.78 0.01
1 2.05 205 -0.886 -10.070 2.203 1.160 -11.688 -0.702 104.932 -599.909 -3224.999 0.017 0.533 -0.124 0.05 0.63 -0.78 0.01
1 2.06 206 -0.800 -9.831 2.136 1.923 -11.017 0.916 119.922 -704.991 -3239.989 -0.064 0.294 -0.052 0.05 0.63 -0.78 0.01
1 2.07 207 -0.728 -9.769 2.155 3.235 -10.223 1.862 119.922 -704.991 -3239.989 -0.132 0.233 -0.065 0.04 0.63 -0.78 0.01
1 2.08 208 -0.646 -9.860 2.140 1.740 -10.345 2.502 164.893 -629.890 -3284.960 -0.211 0.325 -0.044 0.04 0.63 -0.78 0.01
1 2.09 209 -0.670 -9.764 2.112 0.946 -11.749 1.770 179.883 -749.961 -3254.979 -0.184 0.230 -0.010 0.04 0.63 -0.78 0.01
1 2.10 210 -0.637 -9.793 2.299 0.610 -14.252 1.007 179.883 -749.961 -3254.979 -0.215 0.260 -0.192 0.04 0.62 -0.78 0.02
1 2.11 211 -0.656 -9.750 2.155 2.594 -16.327 0.549 224.854 -659.870 -3209.859 -0.191 0.217 -0.044 0.04 0.62 -0.78 0.02
1 2.12 212 -0.522 -9.735 2.236 3.601 -17.639 -0.275 179.883 -674.860 -3224.999 -0.310 0.205 -0.108 0.04 0.62 -0.78 0.02
1 2.13 213 -0.417 -9.673 2.308 3.143 -17.456 -0.244 0.000 -644.880 -3254.979 -0.406 0.144 -0.171 0.04 0.62 -0.78 0.02
1 2.14 214 -0.235 -9.687 2.275 2.167 -16.571 -0.488 0.000 -644.880 -3254.979 -0.578 0.160 -0.128 0.04 0.62 -0.78 0.02
1 2.15 215 -0.235 -9.730 2.270 2.258 -14.069 -0.641 224.854 -629.890 -3359.911 -0.566 0.204 -0.116 0.04 0.62 -0.78 0.02
1 2.16 216 -0.172 -9.946 2.313 2.411 -9.979 -0.977 119.922 -734.971 -3359.911 -0.618 0.420 -0.152 0.04 0.62 -0.78 0.02
1 2.17 217 -0.278 -9.960 2.255 4.211 -7.294 -1.709 119.922 -734.971 -3359.911 -0.501 0.435 -0.088 0.04 0.62 -0.78 0.02
1 2.18 218 -0.455 -9.864 2.299 6.134 -5.676 -1.740 44.971 -779.942 -3209.859 -0.314 0.340 -0.123 0.04 0.62 -0.78 0.02
1 2.19 219 -0.383 -9.874 2.284 7.782 -4.761 -1.282 -14.990 -539.948 -3389.892 -0.369 0.353 -0.086 0.03 0.62 -0.78 0.02
1 2.20 220 -0.445 -9.659 2.255 9.338 -4.669 -2.045 119.922 -704.991 -3389.892 -0.299 0.141 -0.043 0.03 0.62 -0.78 0.02
1 2.21 221 -0.484 -9.620 2.380 10.498 -4.242 -1.709 119.922 -704.991 -3389.892 -0.253 0.106 -0.151 0.03 0.62 -0.78 0.02
1 2.22 222 -0.551 -9.553 2.164 11.383 -4.120 -2.350 104.932 -719.981 -3299.950 -0.180 0.042 0.083 0.03 0.62 -0.78 0.02
1 2.23 223 -0.263 -9.496 2.198 10.712 -3.326 -2.991 14.990 -734.971 -3314.940 -0.459 -0.011 0.068 0.03 0.62 -0.78 0.02
1 2.24 224 -0.345 -9.429 2.179 8.270 -2.319 -3.754 14.990 -734.971 -3314.940 -0.368 -0.075 0.104 0.03 0.62 -0.78 0.02
1 2.25 225 -0.450 -9.558 2.193 6.287 -2.380 -4.211 164.893 -629.890 -3239.989 -0.252 0.057 0.103 0.03 0.62 -0.79 0.02
1 2.26 226 -0.436 -9.654 2.193 5.341 -0.671 -3.693 -119.922 -734.971 -3209.859 -0.255 0.154 0.114 0.03 0.62 -0.79 0.02
1 2.27 227 -0.350 -9.893 2.246 4.700 1.099 -3.937 44.971 -734.971 -3239.989 -0.324 0.396 0.076 0.03 0.62 -0.79 0.02
1 2.28 228 -0.508 -10.013 2.284 4.639 2.075 -3.845 44.971 -734.971 -3239.989 -0.157 0.517 0.045 0.03 0.62 -0.79 0.02
1 2.29 229 -0.599 -9.864 2.322 6.866 2.258 -4.089 134.912 -599.909 -3329.931 -0.058 0.370 0.014 0.03 0.62 -0.79 0.02
1 2.30 230 -0.608 -9.841 2.246 9.369 1.099 -3.906 0.000 -524.958 -3224.999 -0.042 0.348 0.102 0.03 0.62 -0.79 0.02
1 2.31 231 -0.790 -9.764 2.083 13.550 -1.465 -4.852 0.000 -524.958 -3224.999 0.147 0.275 0.279 0.03 0.62 -0.79 0.01
1 2.32 232 -0.670 -9.692 2.131 15.228 -3.662 -6.226 164.893 -779.942 -3314.940 0.035 0.207 0.250 0.03 0.61 -0.79 0.01
1 2.33 233 -0.934 -9.572 2.140 14.710 -5.859 -6.683 -14.990 -659.870 -3284.960 0.307 0.092 0.261 0.03 0.61 -0.79 0.01
1 2.34 234 -0.848 -9.510 2.203 13.214 -10.315 -7.141 59.961 -794.932 -3329.931 0.248 0.039 0.241 0.03 0.61 -0.79 0.01
1 2.35 235 -0.656 -9.601 2.251 13.031 -12.695 -5.707 59.961 -794.932 -3329.931 0.070 0.134 0.212 0.03 0.61 -0.79 0.01
1 2.36 236 -0.536 -9.620 2.169 11.536 -13.367 -4.242 164.893 -884.874 -3314.940 -0.037 0.157 0.312 0.03 0.61 -0.79 0.01
1 2.37 237 -0.522 -9.501 2.251 12.116 -14.038 -2.991 89.941 -734.971 -3359.911 -0.040 0.041 0.247 0.03 0.61 -0.79 0.01
1 2.38 238 -0.493 -9.299 2.184 12.726 -14.374 -2.014 89.941 -734.971 -3359.911 -0.059 -0.156 0.332 0.02 0.61 -0.79 0.01
1 2.39 239 -0.469 -9.261 2.241 11.749 -15.228 -2.808 -14.990 -704.991 -3464.993 -0.072 -0.190 0.294 0.02 0.61 -0.79 0.01
1 2.40 240 -0.498 -9.309 2.160 9.033 -17.914 -3.754 -89.941 -704.991 -3539.944 -0.032 -0.138 0.393 0.02 0.61 -0.79 0.02
1 2.41 241 -0.421 -9.309 2.308 6.348 -22.614 -2.411 -89.941 -734.971 -3464.993 -0.082 -0.132 0.271 0.02 0.61 -0.79 0.02
1 2.42 242 -0.230 -9.366 2.375 5.219 -24.780 -2.014 -89.941 -734.971 -3464.993 -0.260 -0.073 0.214 0.02 0.61 -0.79 0.02
1 2.43 243 -0.235 -9.256 2.413 4.364 -24.536 -1.495 -89.941 -734.971 -3464.993 -0.240 -0.181 0.184 0.02 0.61 -0.8 0.02
1 2.44 244 -0.129 -9.400 2.370 5.096 -24.201 -1.038 -164.893 -809.922 -3419.872 -0.331 -0.036 0.236 0.01 0.61 -0.8 0.02
1 2.45 245 -0.043 -9.338 2.332 5.554 -23.438 0.397 -164.893 -809.922 -3419.872 -0.402 -0.096 0.284 0.01 0.61 -0.8 0.02
1 2.46 246 -0.038 -9.194 2.423 2.838 -23.010 3.204 -119.922 -704.991 -3419.872 -0.395 -0.238 0.202 0.01 0.6 -0.8 0.02
1 2.47 247 0.048 -9.161 2.303 0.580 -23.987 4.974 -134.912 -749.961 -3584.915 -0.471 -0.270 0.329 0.01 0.6 -0.8 0.02
1 2.48 248 0.225 -9.194 2.313 -2.167 -25.177 6.805 -29.980 -839.903 -3374.901 -0.635 -0.236 0.323 0.01 0.6 -0.8 0.02
1 2.49 249 0.421 -9.218 2.356 -4.486 -25.574 7.294 -29.980 -839.903 -3374.901 -0.825 -0.213 0.278 0.01 0.6 -0.8 0.03
1 2.50 250 0.421 -9.156 2.519 -5.463 -25.635 7.965 -44.971 -734.971 -3494.973 -0.819 -0.277 0.110 0 0.6 -0.8 0.03
1 2.51 251 0.651 -9.242 2.567 -6.256 -25.086 8.392 -254.984 -839.903 -3509.963 -1.042 -0.192 0.057 0 0.61 -0.8 0.03
1 2.52 252 0.613 -9.266 2.480 -6.928 -23.987 9.522 -254.984 -839.903 -3509.963 -0.998 -0.170 0.137 0 0.61 -0.8 0.03
1 2.53 253 0.752 -9.453 2.571 -9.277 -21.515 11.261 0.000 -914.854 -3479.983 -1.134 0.014 0.038 0 0.61 -0.8 0.03
1 2.54 254 0.929 -9.438 2.538 -12.360 -17.670 10.834 -164.893 -854.893 -3464.993 -1.308 -0.003 0.062 -0 0.61 -0.79 0.03
1 2.55 255 1.264 -9.496 2.581 -12.756 -12.085 10.345 -164.893 -854.893 -3464.993 -1.641 0.051 0.005 -0 0.61 -0.79 0.03
1 2.56 256 1.293 -9.539 2.528 -10.101 -0.946 7.294 -89.941 -809.922 -3464.993 -1.665 0.085 0.027 -0 0.61 -0.79 0.03
1 2.57 257 0.948 -9.592 2.552 -9.216 5.188 4.852 -284.964 -839.903 -3554.934 -1.316 0.134 -0.010 -0 0.61 -0.79 0.03
1 2.58 258 0.881 -9.644 2.605 -10.254 11.658 1.465 -194.873 -734.971 -3239.989 -1.246 0.183 -0.075 -0 0.61 -0.79 0.03
1 2.59 259 0.608 -9.855 2.471 -11.902 16.449 0.244 -194.873 -734.971 -3239.989 -0.969 0.390 0.045 -0 0.61 -0.79 0.03
1 2.60 260 0.196 -10.195 2.528 -10.956 21.729 -0.336 -44.971 -734.971 -3359.911 -0.555 0.725 -0.031 -0 0.61 -0.79 0.03
1 2.61 261 0.053 -10.583 2.500 -9.064 24.750 -0.366 -284.964 -644.880 -3224.999 -0.412 1.109 -0.019 -0 0.61 -0.79 0.03
1 2.62 262 -0.105 -10.827 2.461 -6.683 26.245 0.122 -284.964 -644.880 -3224.999 -0.257 1.349 0.005 0 0.61 -0.79 0.03
1 2.63 263 -0.541 -10.530 2.792 2.380 27.618 -2.014 -164.893 -704.991 -3419.872 0.162 1.049 -0.341 0 0.61 -0.79 0.03
1 2.64 264 -0.857 -10.166 2.739 6.836 26.978 -3.265 0.000 -749.961 -3479.983 0.473 0.687 -0.283 0.01 0.61 -0.79 0.03
1 2.65 265 -1.020 -9.831 2.595 7.874 24.902 -2.625 -119.922 -779.942 -3419.872 0.628 0.355 -0.128 0.01 0.61 -0.79 0.02
1 2.66 266 -1.207 -9.501 2.480 8.057 20.905 -1.495 -119.922 -779.942 -3419.872 0.805 0.028 -0.002 0.01 0.61 -0.79 0.02
1 2.67 267 -1.034 -9.199 2.275 5.463 14.862 -1.221 -59.961 -719.981 -3329.931 0.622 -0.270 0.216 0.01 0.61 -0.79 0.02
1 2.68 268 -1.039 -9.218 2.342 1.190 13.763 -2.502 -89.941 -929.994 -3359.911 0.619 -0.248 0.158 0.01 0.61 -0.79 0.02
1 2.69 269 -1.207 -9.357 2.413 -2.777 12.451 -2.167 -89.941 -929.994 -3359.911 0.781 -0.109 0.089 0.01 0.61 -0.79 0.02
1 2.70 270 -1.207 -9.501 2.524 -4.517 11.017 -1.312 -44.971 -659.870 -3419.872 0.775 0.035 -0.024 0.01 0.61 -0.79 0.02
1 2.71 271 -1.547 -10.027 2.797 -4.547 7.721 2.747 -59.961 -674.860 -3479.983 1.098 0.558 -0.312 0.01 0.61 -0.79 0.02
1 2.72 272 -1.532 -10.042 2.854 -4.028 6.500 5.920 -134.912 -644.880 -3479.983 1.069 0.572 -0.375 0.02 0.61 -0.79 0.02
1 2.73 273 -1.642 -10.176 2.883 -1.831 3.723 8.209 -134.912 -644.880 -3479.983 1.161 0.706 -0.406 0.02 0.61 -0.79 0.02
1 2.74 274 -1.633 -10.195 2.974 2.411 1.312 9.705 -29.980 -644.880 -3329.931 1.131 0.727 -0.496 0.02 0.61 -0.79 0.02
1 2.75 275 -1.441 -9.783 2.782 5.768 1.221 12.451 -59.961 -674.860 -3374.901 0.918 0.318 -0.296 0.02 0.61 -0.79 0.02
1 2.76 276 -1.293 -9.625 2.710 6.653 2.655 16.754 -59.961 -674.860 -3374.901 0.746 0.164 -0.213 0.02 0.61 -0.79 0.02
1 2.77 277 -1.317 -9.563 2.504 6.165 5.280 20.355 0.000 -599.909 -3449.853 0.742 0.107 0.005 0.02 0.61 -0.79 0.02
1 2.78 278 -1.140 -9.501 2.423 3.052 10.101 24.506 -14.990 -629.890 -3314.940 0.489 0.055 0.105 0.02 0.61 -0.79 0.02
1 2.79 279 -1.144 -9.352 2.394 1.068 14.710 24.109 89.941 -779.942 -3359.911 0.451 -0.090 0.136 0.03 0.61 -0.79 0.03
1 2.80 280 -1.336 -9.596 2.241 1.526 17.822 22.827 89.941 -779.942 -3359.911 0.600 0.157 0.289 0.03 0.61 -0.79 0.03
1 2.81 281 -1.508 -9.524 2.050 0.000 17.944 19.409 -59.961 -674.860 -3449.853 0.731 0.089 0.480 0.03 0.61 -0.79 0.03
1 2.82 282 -1.877 -9.750 2.255 -1.526 14.587 13.702 -89.941 -854.893 -3389.892 1.063 0.316 0.270 0.03 0.61 -0.79 0.03
1 2.83 283 -2.112 -9.783 2.289 -0.031 12.604 12.573 -89.941 -854.893 -3389.892 1.266 0.350 0.231 0.03 0.61 -0.79 0.03
1 2.84 284 -2.150 -9.860 2.179 2.258 11.047 12.390 104.932 -839.903 -3374.901 1.275 0.429 0.337 0.04 0.61 -0.79 0.03
1 2.85 285 -1.973 -9.951 2.174 8.026 11.231 14.954 104.932 -719.981 -3509.963 1.036 0.526 0.345 0.04 0.61 -0.79 0.03
1 2.86 286 -1.954 -9.788 2.231 11.993 12.421 17.059 -29.980 -749.961 -3329.931 0.984 0.369 0.297 0.04 0.61 -0.79 0.03
1 2.87 287 -2.117 -9.515 2.054 13.580 14.984 18.890 -29.980 -749.961 -3329.931 1.110 0.104 0.489 0.04 0.61 -0.79 0.03
1 2.88 288 -1.963 -9.237 1.992 12.573 15.961 20.508 104.932 -839.903 -3404.882 0.917 -0.165 0.566 0.04 0.61 -0.79 0.03
1 2.89 289 -2.136 -9.242 1.652 8.545 16.113 20.660 119.922 -929.994 -3314.940 1.046 -0.152 0.917 0.05 0.61 -0.79 0.03
1 2.90 290 -2.093 -9.036 1.461 3.937 11.688 19.104 119.922 -929.994 -3314.940 0.960 -0.352 1.112 0.05 0.61 -0.79 0.03
1 2.91 291 -2.073 -9.036 1.494 0.885 6.683 16.083 119.922 -704.991 -3359.911 0.901 -0.348 1.077 0.05 0.61 -0.79 0.03
1 2.92 292 -2.083 -9.213 1.417 -1.984 0.244 11.749 104.932 -914.854 -3329.931 0.849 -0.167 1.139 0.05 0.61 -0.79 0.03
1 2.93 293 -2.011 -9.280 1.374 -1.312 -2.625 10.498 119.922 -809.922 -3419.872 0.755 -0.099 1.172 0.06 0.61 -0.79 0.03
1 2.94 294 -1.939 -9.357 1.532 0.000 -4.425 11.627 119.922 -809.922 -3419.872 0.664 -0.022 1.007 0.06 0.61 -0.79 0.03
1 2.95 295 -2.083 -9.347 1.542 1.221 -5.219 11.627 194.873 -884.874 -3419.872 0.788 -0.030 0.992 0.06 0.61 -0.79 0.03
1 2.96 296 -1.987 -9.319 1.393 1.038 -7.477 12.390 329.935 -914.854 -3479.983 0.673 -0.057 1.138 0.06 0.61 -0.79 0.04
1 2.97 297 -1.786 -9.390 1.528 -0.519 -7.294 13.397 329.935 -914.854 -3479.983 0.453 0.016 1.000 0.06 0.61 -0.79 0.04
1 2.98 298 -1.834 -9.410 1.681 -0.458 -4.944 14.008 179.883 -944.984 -3224.999 0.482 0.037 0.842 0.06 0.61 -0.79 0.04
1 2.99 299 -1.738 -9.410 1.417 0.946 -3.510 15.198 179.883 -944.984 -3224.999 0.366 0.038 1.100 0.06 0.61 -0.79 0.04
1 3.00 300 -1.662 -9.151 1.441 2.502 -2.747 16.937 254.984 -719.981 -3479.983 0.243 -0.215 1.070 0.06 0.61 -0.79 0.04
1 3.01 301 -1.595 -9.184 1.231 0.427 -2.319 17.731 254.984 -719.981 -3479.983 0.151 -0.178 1.278 0.06 0.61 -0.79 0.04
1 3.02 302 -1.173 -9.151 1.393 -1.709 -1.495 18.127 209.863 -914.854 -3299.950 -0.295 -0.210 1.109 0.06 0.61 -0.79 0.04
1 3.03 303 -1.058 -9.280 1.326 -2.228 1.068 18.494 194.873 -854.893 -3494.973 -0.434 -0.079 1.167 0.06 0.61 -0.79 0.04
1 3.04 304 -0.910 -9.137 1.480 -2.014 7.782 16.113 194.873 -854.893 -3494.973 -0.606 -0.222 1.003 0.06 0.61 -0.79 0.04
1 3.05 305 -1.034 -9.146 1.571 -1.923 11.841 12.787 224.854 -809.922 -3494.973 -0.504 -0.211 0.902 0.07 0.61 -0.79 0.04
1 3.06 306 -1.130 -9.170 1.489 -0.366 15.503 8.362 224.854 -809.922 -3494.973 -0.427 -0.187 0.974 0.07 0.61 -0.79 0.04
1 3.07 307 -1.336 -9.041 1.461 2.808 16.480 2.716 209.863 -869.883 -3254.979 -0.246 -0.316 0.987 0.07 0.61 -0.79 0.04
1 3.08 308 -1.595 -8.979 1.269 1.953 15.442 0.549 209.863 -869.883 -3254.979 0.005 -0.378 1.173 0.07 0.61 -0.79 0.04
1 3.09 309 -1.609 -9.213 1.432 0.458 13.580 -1.617 389.896 -869.883 -3404.882 0.015 -0.145 1.003 0.07 0.61 -0.79 0.04
1 3.10 310 -1.690 -9.347 1.317 -0.488 13.275 -2.411 359.916 -869.883 -3449.853 0.094 -0.013 1.109 0.07 0.61 -0.79 0.04
1 3.11 311 -1.848 -9.319 1.461 -1.373 13.306 -1.160 359.916 -869.883 -3449.853 0.250 -0.044 0.954 0.07 0.61 -0.79 0.04
1 3.12 312 -1.753 -9.635 1.336 -2.167 16.113 0.214 209.863 -869.883 -3449.853 0.150 0.270 1.068 0.08 0.61 -0.79 0.04
1 3.13 313 -1.848 -9.682 1.480 -0.824 18.433 2.289 209.863 -869.883 -3449.853 0.239 0.316 0.911 0.08 0.61 -0.79 0.04
1 3.14 314 -1.844 -9.587 1.283 -0.885 19.836 2.747 269.974 -884.874 -3419.872 0.226 0.218 1.094 0.08 0.61 -0.79 0.03
1 3.15 315 -2.088 -9.606 1.370 -0.916 20.233 2.533 269.974 -809.922 -3569.924 0.444 0.235 0.983 0.08 0.61 -0.79 0.03
1 3.16 316 -2.078 -9.601 1.326 -1.251 20.081 1.373 269.974 -884.874 -3239.989 0.422 0.230 1.013 0.08 0.61 -0.79 0.03
1 3.17 317 -2.251 -9.510 1.302 -0.336 20.142 -1.221 284.964 -869.883 -3329.931 0.584 0.137 1.023 0.08 0.61 -0.79 0.03
1 3.18 318 -2.346 -9.496 1.389 1.617 18.311 -3.784 284.964 -869.883 -3329.931 0.673 0.121 0.926 0.09 0.61 -0.79 0.03
1 3.19 319 -2.514 -9.750 1.279 1.740 15.717 -5.585 299.955 -854.893 -3314.940 0.836 0.374 1.028 0.09 0.61 -0.79 0.03
1 3.20 320 -2.485 -9.841 1.312 3.235 15.961 -5.615 299.955 -854.893 -3314.940 0.806 0.463 0.985 0.09 0.61 -0.79 0.03
1 3.21 321 -2.533 -9.860 1.207 3.296 17.273 -5.096 374.906 -779.942 -3314.940 0.852 0.481 1.084 0.09 0.61 -0.78 0.03
1 3.22 322 -2.706 -9.898 1.116 3.235 20.233 -4.578 434.867 -839.903 -3374.901 1.016 0.517 1.161 0.09 0.61 -0.78 0.02
1 3.23 323 -2.907 -9.864 1.111 4.120 20.783 -5.798 464.847 -719.981 -3404.882 1.211 0.482 1.157 0.09 0.61 -0.78 0.02
1 3.24 324 -3.022 -9.821 1.082 3.357 18.158 -7.202 329.935 -839.903 -3254.979 1.321 0.439 1.178 0.09 0.61 -0.78 0.02
1 3.25 325 -3.261 -9.908 1.111 1.709 14.435 -9.094 329.935 -839.903 -3254.979 1.557 0.523 1.141 0.1 0.61 -0.78 0.02
1 3.26 326 -3.400 -10.013 1.192 0.793 8.575 -10.651 374.906 -854.893 -3209.859 1.695 0.627 1.050 0.1 0.61 -0.78 0.02
1 3.27 327 -3.553 -10.238 1.317 1.617 5.005 -11.841 374.906 -854.893 -3209.859 1.850 0.849 0.917 0.1 0.61 -0.78 0.02
1 3.28 328 -3.596 -10.372 1.207 2.411 2.991 -12.848 434.867 -839.903 -3329.931 1.897 0.981 1.020 0.1 0.61 -0.78 0.02
1 3.29 329 -3.773 -10.348 1.039 4.181 0.946 -12.054 299.955 -809.922 -3419.872 2.111 0.953 1.197 0.1 0.61 -0.78 0.01
1 3.30 330 -3.869 -10.094 0.857 4.913 -1.190 -10.376 359.916 -914.854 -3224.999 2.225 0.697 1.387 0.1 0.61 -0.78 0.01
1 3.31 331 -3.850 -10.094 0.661 3.296 -4.730 -8.972 299.955 -929.994 -3359.911 2.222 0.697 1.592 0.1 0.61 -0.78 0.01
1 3.32 332 -3.845 -10.008 0.316 1.160 -6.866 -9.338 299.955 -929.994 -3359.911 2.226 0.609 1.936 0.1 0.61 -0.78 0.01
1 3.33 333 -3.682 -9.850 0.215 3.265 -11.719 -7.233 359.916 -914.854 -3374.901 2.071 0.449 2.035 0.09 0.61 -0.78 0.01
1 3.34 334 -3.433 -9.414 -0.115 -1.434 -19.409 -6.683 359.916 -914.854 -3374.901 1.823 0.011 2.357 0.09 0.61 -0.78 0.01
1 3.35 335 -3.247 -9.266 -0.091 -2.808 -21.576 -7.050 269.974 -704.991 -3239.989 1.639 -0.140 2.322 0.09 0.61 -0.78 0.01
1 3.36 336 -2.868 -9.007 0.555 -8.881 -23.468 -6.836 359.916 -749.961 -3374.901 1.272 -0.408 1.644 0.09 0.62 -0.78 0.02
1 3.37 337 -2.634 -9.275 1.168 -23.285 -27.680 -0.244 419.876 -734.971 -3314.940 1.045 -0.147 1.008 0.09 0.62 -0.78 0.02
1 3.38 338 -2.016 -11.248 2.332 -46.356 -31.738 15.930 464.847 -839.903 -3299.950 0.426 1.817 -0.195 0.09 0.62 -0.78 0.02
1 3.39 339 -1.441 -11.861 3.290 -52.338 -27.649 28.717 464.847 -839.903 -3299.950 -0.165 2.419 -1.216 0.09 0.62 -0.78 0.02
1 3.40 340 -1.140 -12.110 2.959 -37.750 -22.980 37.811 299.955 -704.991 -3419.872 -0.503 2.660 -0.949 0.09 0.62 -0.78 0.02
1 3.41 341 -1.168 -11.756 2.030 -14.069 -7.904 29.572 299.955 -704.991 -3419.872 -0.523 2.306 -0.062 0.09 0.63 -0.77 0.03
1 3.42 342 -1.676 -10.884 1.868 1.129 0.458 16.510 134.912 -989.955 -3254.979 -0.058 1.438 0.079 0.09 0.63 -0.77 0.03
1 3.43 343 -1.777 -10.190 1.461 8.148 -5.402 5.554 209.863 -794.932 -3299.950 0.016 0.748 0.485 0.09 0.63 -0.77 0.03
1 3.44 344 -1.398 -9.127 1.370 0.854 -20.264 -14.984 344.925 -734.971 -3209.859 -0.360 -0.311 0.596 0.09 0.63 -0.77 0.03
1 3.45 345 -0.958 -8.993 1.820 -1.862 -21.912 -29.785 179.883 -839.903 -3254.979 -0.764 -0.452 0.149 0.09 0.63 -0.77 0.03
1 3.46 346 -0.618 -9.290 2.380 -11.688 -15.015 -32.715 179.883 -839.903 -3254.979 -1.048 -0.165 -0.412 0.08 0.63 -0.77 0.03
1 3.47 347 -0.388 -9.783 2.974 -22.003 -0.671 -26.306 359.916 -914.854 -3254.979 -1.221 0.316 -1.020 0.08 0.63 -0.77 0.03
1 3.48 348 -0.555 -10.607 3.462 -23.712 21.393 -15.869 359.916 -914.854 -3254.979 -1.009 1.126 -1.536 0.08 0.63 -0.77 0.03
1 3.49 349 -0.800 -10.506 3.711 -17.548 28.595 -12.573 224.854 -809.922 -3284.960 -0.739 1.014 -1.820 0.08 0.63 -0.77 0.03
1 3.50 350 -1.073 -10.233 3.749 -10.284 26.276 -10.529 224.854 -884.874 -3104.927 -0.454 0.733 -1.892 0.08 0.63 -0.77 0.02
1 3.51 351 -1.034 -9.520 3.630 2.808 11.322 -8.789 224.854 -734.971 -3284.960 -0.471 0.011 -1.797 0.08 0.63 -0.77 0.02
1 3.52 352 -1.101 -9.395 2.873 6.622 3.113 -10.986 254.984 -599.909 -3299.950 -0.388 -0.112 -1.022 0.08 0.63 -0.77 0.02
1 3.53 353 -1.221 -9.290 2.299 5.341 -5.219 -16.174 254.984 -599.909 -3299.950 -0.246 -0.217 -0.428 0.08 0.63 -0.77 0.02
1 3.54 354 -1.480 -8.830 1.911 3.326 -16.968 -22.675 329.935 -749.961 -3149.898 0.044 -0.679 -0.025 0.08 0.63 -0.77 0.02
1 3.55 355 -1.461 -8.921 1.767 -2.075 -33.844 -27.649 329.935 -749.961 -3149.898 0.067 -0.592 0.129 0.08 0.63 -0.77 0.02
1 3.56 356 -0.804 -9.544 2.040 -11.902 -51.117 -26.550 269.974 -884.874 -3239.989 -0.538 0.024 -0.140 0.08 0.63 -0.77 0.02
1 3.57 357 0.086 -9.730 2.457 -14.618 -46.784 -20.813 254.984 -839.903 -3119.917 -1.374 0.202 -0.561 0.07 0.63 -0.77 0.02
1 3.58 358 0.723 -9.750 2.701 -15.076 -32.929 -15.564 254.984 -839.903 -3119.917 -1.957 0.212 -0.814 0.07 0.63 -0.77 0.02
1 3.59 359 0.838 -9.606 2.715 -15.717 -11.383 -13.947 89.941 -584.919 -3209.859 -1.981 0.053 -0.848 0.06 0.63 -0.77 0.02
1 3.60 360 0.910 -9.615 2.557 -13.306 -2.930 -14.893 89.941 -584.919 -3209.859 -2.013 0.056 -0.703 0.06 0.63 -0.77 0.02
1 3.61 361 0.828 -9.448 2.586 -8.301 2.716 -16.907 -14.990 -734.971 -3209.859 -1.893 -0.118 -0.743 0.06 0.63 -0.77 0.02
1 3.62 362 0.934 -9.448 2.461 -1.465 9.888 -21.301 -14.990 -734.971 -3209.859 -1.957 -0.123 -0.622 0.06 0.63 -0.77 0.01
1 3.63 363 0.886 -9.199 2.389 4.181 18.341 -26.367 89.941 -929.994 -3059.957 -1.864 -0.376 -0.546 0.06 0.63 -0.77 0.01
1 3.64 364 0.498 -9.074 2.380 6.042 17.029 -28.809 89.941 -734.971 -3059.957 -1.429 -0.504 -0.526 0.05 0.63 -0.77 0.01
1 3.65 365 0.354 -8.935 2.164 6.073 12.238 -33.447 89.941 -734.971 -3059.957 -1.235 -0.645 -0.299 0.05 0.63 -0.77 0.01
1 3.66 366 0.220 -8.864 2.006 3.387 -0.366 -40.527 194.873 -809.922 -3314.940 -0.984 -0.722 -0.118 0.05 0.63 -0.77 0
1 3.67 367 0.077 -8.926 1.939 3.296 -7.355 -43.793 194.873 -809.922 -3314.940 -0.770 -0.664 -0.042 -0.05 -0.63 0.77 0
1 3.68 368 -0.053 -8.969 1.896 3.815 -10.101 -42.816 -29.980 -839.903 -3224.999 -0.567 -0.624 0.010 -0.04 -0.63 0.77 0
1 3.69 369 -0.259 -8.782 1.872 2.716 -11.627 -37.811 -29.980 -839.903 -3224.999 -0.292 -0.813 0.043 -0.04 -0.63 0.77 0.01
1 3.70 370 -0.532 -8.830 1.829 -4.028 -13.001 -25.665 134.912 -749.961 -3149.898 0.041 -0.767 0.092 -0.04 -0.63 0.77 0.01
1 3.71 371 -0.527 -8.955 1.877 -9.155 -16.083 -17.639 -104.932 -839.903 -3254.979 0.083 -0.645 0.043 -0.04 -0.63 0.77 0.01
1 3.72 372 -0.450 -9.165 2.030 -12.726 -20.996 -8.759 -104.932 -839.903 -3254.979 0.040 -0.438 -0.118 -0.03 -0.63 0.77 0.01
1 3.73 373 -0.014 -9.635 2.322 -8.942 -27.344 2.319 -194.873 -659.870 -3314.940 -0.361 0.025 -0.438 -0.03 -0.63 0.77 0.01
1 3.74 374 0.527 -9.841 2.548 -0.641 -27.802 6.928 -194.873 -659.870 -3314.940 -0.897 0.230 -0.667 -0.03 -0.64 0.77 0.01
1 3.75 375 0.953 -9.812 2.327 7.965 -24.933 8.392 -194.873 -779.942 -3104.927 -1.318 0.203 -0.438 -0.03 -0.63 0.77 0
1 3.76 376 1.365 -9.400 2.050 15.045 -19.623 9.003 -194.873 -779.942 -3104.927 -1.725 -0.205 -0.140 -0.03 -0.63 0.77 0
1 3.77 377 1.336 -9.247 1.676 19.501 -13.489 9.247 -104.932 -914.854 -3149.898 -1.691 -0.353 0.261 -0.02 -0.63 0.77 0
1 3.78 378 1.480 -8.639 1.341 19.989 -6.104 9.369 -359.916 -644.880 -3119.917 -1.832 -0.955 0.628 -0.02 -0.63 0.77 0
1 3.79 379 1.231 -8.323 1.226 16.663 -5.859 9.369 -359.916 -644.880 -3119.917 -1.580 -1.265 0.773 0.02 0.63 -0.78 0
1 3.80 380 1.192 -8.342 1.106 7.141 -5.280 6.439 -224.854 -779.942 -3164.888 -1.554 -1.236 0.938 0.02 0.63 -0.78 0
1 3.81 381 1.212 -8.557 1.164 1.770 -7.263 6.409 -224.854 -779.942 -3164.888 -1.580 -1.018 0.891 0.02 0.63 -0.78 0
1 3.82 382 1.245 -8.600 1.566 -0.763 -9.796 6.989 -269.974 -809.922 -3164.888 -1.619 -0.974 0.492 0.02 0.63 -0.78 0
1 3.83 383 1.288 -8.744 1.642 -1.343 -9.308 8.026 -269.974 -809.922 -3164.888 -1.662 -0.830 0.415 0.02 0.63 -0.78 0.01
1 3.84 384 1.403 -8.730 1.681 -0.061 -5.859 10.376 -119.922 -779.942 -3104.927 -1.774 -0.845 0.375 0.02 0.63 -0.78 0.01
1 3.85 385 1.489 -8.959 1.623 2.411 5.951 13.611 -329.935 -869.883 -3149.898 -1.861 -0.615 0.433 0.02 0.63 -0.78 0.01
1 3.86 386 1.125 -9.218 1.432 3.296 14.710 15.808 -329.935 -869.883 -3149.898 -1.503 -0.356 0.627 0.02 0.63 -0.78 0.01
1 3.87 387 1.259 -9.486 1.283 2.533 22.675 17.120 -194.873 -779.942 -3134.908 -1.649 -0.087 0.779 0.02 0.63 -0.78 0.01
1 3.88 388 0.670 -10.051 1.168 -3.845 29.297 18.189 -284.964 -914.854 -3224.999 -1.101 0.479 0.887 0.02 0.63 -0.78 0.01
1 3.89 389 0.479 -10.583 1.384 -9.399 31.159 16.419 -224.854 -809.922 -3059.957 -0.935 1.009 0.657 0.02 0.63 -0.78 0.01
1 3.90 390 -0.192 -11.062 1.801 -12.146 29.785 13.397 -224.854 -809.922 -3059.957 -0.289 1.484 0.219 0.03 0.63 -0.78 0.01
1 3.91 391 -0.804 -11.339 2.016 -9.613 23.468 6.958 -209.863 -839.903 -3149.898 0.299 1.759 -0.015 0.03 0.63 -0.78 0.01
1 3.92 392 -1.063 -11.382 2.088 2.960 6.226 0.275 -224.854 -854.893 -3104.927 0.544 1.800 -0.099 0.03 0.63 -0.78 0.01
1 3.93 393 -0.886 -11.186 1.671 10.315 -4.028 -2.380 -224.854 -854.893 -3104.927 0.364 1.605 0.319 0.03 0.63 -0.78 0
1 3.94 394 -0.608 -10.774 1.178 14.374 -8.026 -1.953 -209.863 -944.984 -3194.869 0.090 1.196 0.827 0.03 0.63 -0.78 0.01
1 3.95 395 -0.297 -10.583 0.244 16.419 -1.129 1.892 -119.922 -704.991 -3134.908 -0.210 1.012 1.802 0.03 0.63 -0.78 0.01
1 3.96 396 -0.144 -10.377 -0.230 17.426 1.160 6.195 -254.984 -794.932 -3194.869 -0.364 0.809 2.290 0.03 0.63 -0.78 0.01
1 3.97 397 -0.043 -9.893 -0.062 13.825 -0.214 10.437 -254.984 -794.932 -3194.869 -0.471 0.328 2.131 0.03 0.63 -0.78 0.01
1 3.98 398 -0.383 -10.066 1.350 -3.265 3.723 7.660 -179.883 -839.903 -3074.947 -0.143 0.501 0.719 0.03 0.63 -0.78 0.01
1 3.99 399 -0.943 -11.665 1.906 -40.650 27.954 -18.158 -119.922 -629.890 -3164.888 0.414 2.095 0.139 0.03 0.63 -0.78 0.01
1 4.00 400 -3.160 -12.335 4.324 -75.775 -13.428 -40.924 -119.922 -629.890 -3164.888 2.659 2.749 -2.354 0.03 0.63 -0.77 0
1 4.01 401 -3.304 -13.748 2.346 -66.162 -29.846 -52.735 -179.883 -839.903 -3119.917 2.860 4.137 -0.483 0.03 0.64 -0.77 0
1 4.02 402 -1.135 -14.155 1.475 -9.399 -61.981 -28.046 -89.941 -854.893 -3059.957 0.857 4.508 0.230 0.02 0.64 -0.77 0
1 4.03 403 1.259 -11.981 2.581 17.304 -66.590 2.533 -89.941 -629.890 -2954.875 -1.490 2.334 -0.873 0.01 0.64 -0.77 0
1 4.04 404 2.950 -10.252 2.605 14.801 -60.150 18.005 -89.941 -629.890 -2954.875 -3.172 0.611 -0.865 0.01 0.64 -0.77 0.01
1 4.05 405 4.104 -9.357 2.605 -12.360 -42.145 23.193 -389.896 -599.909 -3044.966 -4.339 -0.282 -0.849 0.01 0.64 -0.77 0.01
1 4.06 406 4.109 -8.720 3.137 -25.879 -22.949 27.069 -269.974 -884.874 -2984.855 -4.337 -0.922 -1.397 0 0.64 -0.77 0.01
1 4.07 407 2.897 -8.284 3.903 -16.449 7.416 14.618 -269.974 -884.874 -2984.855 -3.126 -1.362 -2.188 0 0.64 -0.77 0.02
1 4.08 408 1.652 -8.117 4.420 -9.857 21.301 -4.364 -434.867 -839.903 -2894.914 -1.879 -1.531 -2.715 0 0.64 -0.77 0.02
1 4.09 409 0.263 -8.390 4.573 -8.575 29.297 -24.811 -344.925 -779.942 -2909.904 -0.473 -1.258 -2.865 0 0.64 -0.77 0.01
1 4.10 410 -1.657 -9.678 4.516 -33.234 23.254 -51.758 -284.964 -719.981 -3044.966 1.534 0.030 -2.799 0 0.64 -0.77 0.01
1 4.11 411 -2.504 -10.717 4.391 -45.197 0.031 -62.775 -284.964 -719.981 -3044.966 2.456 1.061 -2.718 -0 0.64 -0.77 0
1 4.12 412 -2.322 -11.325 4.334 -36.469 -25.940 -60.547 -374.906 -734.971 -3059.957 2.370 1.658 -2.725 -0 0.65 -0.76 0
1 4.13 413 -1.733 -11.804 3.922 -12.177 -38.056 -48.157 -389.896 -839.903 -3044.966 1.877 2.130 -2.359 0.01 -0.65 0.76 0
1 4.14 414 -0.048 -11.071 3.108 32.929 -12.451 -6.104 -389.896 -839.903 -3044.966 0.264 1.398 -1.550 0.01 -0.65 0.76 0
1 4.15 415 0.699 -9.797 2.485 47.913 27.588 28.137 -524.958 -659.870 -2774.992 -0.456 0.132 -0.888 -0.02 0.65 -0.76 0
1 4.16 416 1.269 -8.624 2.026 30.029 57.770 56.885 -509.968 -644.880 -2894.914 -1.058 -1.031 -0.358 -0.01 0.64 -0.76 0
1 4.17 417 1.192 -7.815 1.547 -12.878 82.733 71.106 -389.896 -749.961 -2894.914 -1.179 -1.829 0.197 -0 0.64 -0.77 0
1 4.18 418 0.757 -7.872 1.508 -27.832 83.802 61.524 -389.896 -749.961 -2894.914 -0.868 -1.775 0.210 0.01 0.64 -0.77 0
1 4.19 419 0.120 -8.509 1.791 -30.548 78.064 46.326 -464.997 -719.981 -2894.914 -0.337 -1.144 -0.116 0.01 0.64 -0.77 0
1 4.20 420 -0.924 -9.036 1.714 -24.963 66.498 29.511 -329.935 -749.961 -2939.885 0.627 -0.623 -0.084 0.02 0.65 -0.76 0
1 4.21 421 -1.729 -9.079 1.757 -13.825 50.232 12.543 -329.935 -749.961 -2939.885 1.377 -0.583 -0.160 0.02 0.65 -0.76 0
1 4.22 422 -2.332 -9.046 1.705 -0.732 17.456 -6.958 -254.984 -674.860 -2819.963 1.949 -0.618 -0.122 -0.03 -0.65 0.76 0
1 4.23 423 -2.203 -8.816 1.657 3.052 1.892 -13.214 -164.893 -704.991 -2879.924 1.808 -0.848 -0.075 -0.03 -0.65 0.76 0
1 4.24 424 -2.145 -8.433 1.571 7.355 -1.923 -9.522 -194.873 -659.870 -3059.957 1.761 -1.228 0.029 -0.03 -0.65 0.76 0
1 4.25 425 -1.973 -8.217 1.532 4.578 7.629 -1.099 -194.873 -659.870 -3059.957 1.588 -1.441 0.080 -0.03 -0.65 0.76 0
1 4.26 426 -2.174 -8.198 1.384 -1.740 18.311 11.749 -194.873 -734.971 -2804.973 1.785 -1.460 0.234 -0.03 -0.65 0.76 0
1 4.27 427 -2.303 -8.064 1.288 -8.209 24.078 23.102 -119.922 -779.942 -2804.973 1.888 -1.593 0.325 -0.03 -0.65 0.76 0
1 4.28 428 -2.624 -8.361 1.389 -12.726 26.672 32.318 -119.922 -779.942 -2804.973 2.166 -1.297 0.210 -0.03 -0.65 0.76 0
1 4.29 429 -3.002 -8.897 1.633 -15.289 22.461 37.872 -59.961 -749.961 -2894.914 2.481 -0.761 -0.055 0.03 0.65 -0.76 0
1 4.30 430 -3.069 -9.295 1.628 -12.909 13.275 36.530 -59.961 -569.929 -3074.947 2.469 -0.362 -0.072 0.04 0.65 -0.76 0
1 4.31 431 -2.811 -9.309 1.504 -8.087 1.068 29.816 -59.961 -569.929 -3074.947 2.135 -0.346 0.033 0.04 0.65 -0.76 0
1 4.32 432 -2.208 -9.103 1.331 -0.763 -15.167 15.808 -119.922 -509.968 -2909.904 1.420 -0.546 0.190 0.05 0.65 -0.76 0.01
1 4.33 433 -1.551 -8.931 1.298 1.862 -21.484 4.639 -14.990 -659.870 -2699.891 0.738 -0.716 0.226 0.05 0.65 -0.76 0.01
1 4.34 434 -1.077 -8.682 1.173 4.334 -22.217 -4.852 -179.883 -674.860 -2819.963 0.260 -0.964 0.357 0.04 0.65 -0.76 0.01
1 4.35 435 -0.723 -8.605 1.221 6.744 -18.036 -11.536 -179.883 -674.860 -2819.963 -0.081 -1.040 0.320 0.04 0.65 -0.76 0.01
1 4.36 436 -0.560 -8.552 1.053 8.209 -6.195 -15.320 -29.980 -719.981 -2864.934 -0.220 -1.092 0.501 0.04 0.65 -0.76 0.01
1 4.37 437 -0.603 -8.476 1.082 6.134 3.479 -14.465 -134.912 -644.880 -2789.982 -0.151 -1.168 0.487 0.04 0.65 -0.76 0.01
1 4.38 438 -0.747 -8.533 0.886 4.211 14.099 -14.130 -134.912 -644.880 -2789.982 0.015 -1.111 0.695 0.04 0.65 -0.76 0.01
1 4.39 439 -1.298 -8.447 0.800 4.395 25.513 -13.519 -89.941 -734.971 -2954.875 0.601 -1.198 0.793 0.04 0.65 -0.76 0.01
1 4.40 440 -1.580 -8.375 0.713 5.829 29.053 -13.916 -134.912 -749.961 -2894.914 0.899 -1.269 0.885 0.04 0.65 -0.76 0.01
1 4.41 441 -1.982 -8.471 0.656 6.775 28.626 -16.754 -194.873 -779.942 -2879.924 1.317 -1.174 0.950 0.04 0.65 -0.76 0.01
1 4.42 442 -2.370 -8.691 0.383 5.798 25.177 -18.677 -194.873 -779.942 -2879.924 1.724 -0.953 1.231 0.04 0.64 -0.76 0
1 4.43 443 -2.538 -9.156 0.350 3.357 16.724 -19.165 0.000 -869.883 -2864.934 1.902 -0.489 1.266 0.04 0.64 -0.76 0
1 4.44 444 -2.586 -9.936 0.062 -4.639 3.326 -21.790 -119.922 -779.942 -2804.973 1.962 0.290 1.548 0.04 0.65 -0.76 0
1 4.45 445 -2.734 -10.113 0.426 -9.644 -5.371 -23.468 -119.922 -779.942 -2804.973 2.127 0.463 1.170 -0.04 -0.65 0.76 0
1 4.46 446 -2.600 -10.765 0.833 -13.947 -16.022 -20.996 -119.922 -704.991 -2849.943 2.014 1.110 0.741 -0.04 -0.65 0.76 0
1 4.47 447 -2.002 -11.746 1.168 -14.771 -23.499 -11.475 -209.863 -599.909 -2819.963 1.468 2.081 0.360 -0.04 -0.65 0.76 0
1 4.48 448 -1.441 -11.488 1.619 -6.744 -16.052 -5.798 -104.932 -719.981 -2714.881 0.929 1.819 -0.106 0.03 0.65 -0.76 0
1 4.49 449 -1.039 -10.846 1.484 5.035 -7.202 -5.066 -104.932 -719.981 -2714.881 0.539 1.176 0.024 0.03 0.65 -0.76 0
1 4.50 450 -1.231 -10.219 0.905 15.015 -4.669 -10.681 -194.873 -854.893 -2804.973 0.743 0.550 0.618 0.03 0.65 -0.76 0
1 4.51 451 -1.791 -9.654 -0.397 19.898 -14.343 -28.412 -89.941 -959.975 -2954.875 1.321 -0.012 1.942 0.03 0.65 -0.76 0
1 4.52 452 -2.155 -9.630 -1.159 19.470 -26.856 -36.499 -89.941 -959.975 -2954.875 1.719 -0.034 2.725 0.03 0.65 -0.76 0
1 4.53 453 -2.188 -9.520 -0.943 16.205 -39.703 -39.002 -254.984 -749.961 -2969.865 1.799 -0.144 2.526 -0.03 -0.65 0.76 0
1 4.54 454 -0.666 -11.378 0.350 -12.695 -54.382 -14.984 -254.984 -674.860 -2819.963 0.380 1.712 1.239 0.02 0.65 -0.76 0
1 4.55 455 0.455 -11.995 2.303 -61.737 -61.066 33.508 -224.854 -854.893 -2729.872 -0.726 2.323 -0.750 0.01 0.65 -0.76 0
1 4.56 456 2.112 -12.412 5.023 -105.713 -18.494 78.522 -224.854 -854.893 -2729.872 -2.435 2.725 -3.576 0.01 0.65 -0.76 0.01
1 4.57 457 3.026 -14.256 2.926 -117.829 0.519 128.815 -269.974 -704.991 -2774.992 -3.484 4.551 -1.642 0.02 0.66 -0.75 0.02
1 4.58 458 1.968 -14.380 2.605 -49.408 87.220 88.166 -434.867 -569.929 -2894.914 -2.621 4.666 -1.488 0.02 0.67 -0.75 0.02
1 4.59 459 -1.743 -12.158 1.824 4.089 104.493 31.891 -434.867 -569.929 -2894.914 0.927 2.445 -0.812 0.03 0.67 -0.74 0.03
1 4.60 460 -3.424 -11.335 1.082 15.778 61.951 -1.617 -209.863 -599.909 -2714.881 2.526 1.626 -0.093 0.04 0.67 -0.74 0.02
1 4.61 461 -4.621 -9.788 1.556 8.148 -7.935 -44.739 -104.932 -749.961 -2789.982 3.736 0.081 -0.539 0.04 0.67 -0.74 0.02
1 4.62 462 -4.171 -9.639 1.767 6.683 -42.297 -62.805 -44.971 -629.890 -2729.872 3.366 -0.073 -0.734 0.04 0.67 -0.74 0.02
1 4.63 463 -3.529 -9.515 2.476 -0.061 -75.714 -56.671 -44.971 -629.890 -2729.872 2.799 -0.201 -1.423 0.04 0.67 -0.74 0.02
1 4.64 464 -2.734 -9.544 3.031 -5.859 -90.210 -41.748 -44.971 -629.890 -2729.872 2.075 -0.175 -1.962 0.03 0.67 -0.74 0.02
1 4.65 465 -0.225 -9.994 3.419 -15.625 -79.895 0.885 -179.883 -644.880 -2759.852 -0.381 0.273 -2.335 0.02 0.67 -0.74 0.02
1 4.66 466 1.480 -10.616 3.946 -37.384 -56.214 37.445 -179.883 -644.880 -2759.852 -2.066 0.895 -2.855 0.02 0.67 -0.75 0.02
1 4.67 467 2.758 -10.966 4.525 -54.016 -23.346 63.812 -299.955 -659.870 -2849.943 -3.374 1.243 -3.465 0.02 0.67 -0.74 0.03
1 4.68 468 3.098 -11.574 4.587 -41.077 32.593 66.406 -254.984 -674.860 -2639.930 -3.900 1.849 -3.677 0.02 0.67 -0.74 0.04
1 4.69 469 2.299 -11.751 4.276 -9.552 59.784 50.232 -374.906 -509.968 -2699.891 -3.198 2.030 -3.420 0.03 0.68 -0.74 0.04
1 4.70 470 -0.455 -10.923 2.768 27.130 60.303 28.717 -374.906 -509.968 -2699.891 -0.519 1.208 -1.919 0.03 0.68 -0.74 0.04
1 4.71 471 -1.882 -9.807 1.681 50.690 33.722 1.617 -419.876 -539.948 -2549.989 0.869 0.101 -0.788 0.03 0.67 -0.74 0.04
1 4.72 472 -2.217 -8.993 0.958 52.033 -5.737 -25.147 -359.916 -449.857 -2714.881 1.206 -0.706 0.018 0.04 0.67 -0.74 0.04
1 4.73 473 -2.121 -8.562 1.144 32.684 -53.436 -45.380 -359.916 -449.857 -2714.881 1.150 -1.133 -0.091 0.03 0.67 -0.74 0.04
1 4.74 474 -1.556 -8.256 1.293 21.851 -69.397 -42.297 -164.893 -539.948 -2699.891 0.648 -1.438 -0.177 0.03 0.66 -0.75 0.04
1 4.75 475 -0.824 -8.078 1.465 8.942 -73.303 -31.494 -164.893 -539.948 -2699.891 -0.011 -1.616 -0.301 0.02 0.66 -0.75 0.04
1 4.76 476 0.388 -8.279 1.652 -10.834 -59.387 -9.735 -284.964 -674.860 -2714.881 -1.111 -1.420 -0.453 0.01 0.66 -0.75 0.04
1 4.77 477 0.943 -8.548 1.925 -14.160 -39.124 6.104 -284.964 -674.860 -2714.881 -1.646 -1.155 -0.737 0.01 0.66 -0.75 0.04
1 4.78 478 1.441 -8.725 2.198 -12.116 -15.900 19.928 -284.964 -494.978 -2684.901 -2.151 -0.979 -1.025 0.01 0.66 -0.75 0.05
1 4.79 479 1.710 -8.763 2.121 -11.322 3.998 29.083 -449.857 -659.870 -2624.940 -2.435 -0.940 -0.956 0.01 0.66 -0.75 0.05
1 4.80 480 1.480 -8.710 1.997 -10.407 12.665 26.947 -449.857 -659.870 -2624.940 -2.231 -0.992 -0.839 0.01 0.66 -0.75 0.05
1 4.81 481 1.556 -8.667 2.088 -2.533 1.984 13.519 -299.955 -734.971 -2669.911 -2.335 -1.034 -0.937 0.01 0.66 -0.75 0.05
1 4.82 482 1.595 -8.701 1.676 5.005 -8.331 -3.784 -299.955 -734.971 -2669.911 -2.382 -0.999 -0.524 0.01 0.66 -0.75 0.05
1 4.83 483 1.887 -8.538 1.571 15.350 -17.731 -23.224 -374.906 -434.867 -2669.911 -2.615 -1.162 -0.382 0.01 0.66 -0.75 0.05
1 4.84 484 2.179 -8.509 1.508 21.942 -19.836 -33.325 -374.906 -434.867 -2669.911 -2.846 -1.191 -0.287 0 0.66 -0.75 0.05
1 4.85 485 2.500 -8.677 1.599 24.933 -13.184 -42.999 -299.955 -659.870 -2669.911 -3.088 -1.024 -0.337 -0 0.66 -0.75 0.05
1 4.86 486 2.318 -9.122 1.662 24.475 -1.068 -47.394 -389.896 -524.958 -2759.852 -2.814 -0.578 -0.357 -0 0.66 -0.75 0.04
1 4.87 487 1.844 -9.381 1.642 21.607 12.909 -44.556 -389.896 -524.958 -2759.852 -2.248 -0.318 -0.298 -0.01 0.66 -0.75 0.04
1 4.88 488 0.828 -9.400 1.623 16.113 29.633 -28.504 -389.896 -599.909 -2789.982 -1.153 -0.297 -0.244 -0.01 0.66 -0.75 0.04
1 4.89 489 0.129 -9.386 1.346 10.834 35.858 -11.810 -389.896 -599.909 -2789.982 -0.398 -0.309 0.062 -0.01 0.65 -0.76 0.03
1 4.90 490 -0.302 -9.184 1.212 9.003 37.598 4.913 -494.978 -734.971 -2729.872 0.059 -0.508 0.215 -0.01 0.65 -0.76 0.03
1 4.91 491 -0.642 -8.921 0.910 14.587 29.205 24.017 -509.968 -524.958 -2759.852 0.362 -0.766 0.545 -0.01 0.65 -0.76 0.03
1 4.92 492 -0.460 -8.653 1.053 21.637 20.416 30.548 -494.978 -704.991 -2774.992 0.134 -1.030 0.423 -0 0.65 -0.76 0.03
1 4.93 493 -0.182 -8.294 1.149 27.893 11.505 33.051 -419.876 -704.991 -2804.973 -0.195 -1.382 0.361 -0 0.65 -0.76 0.03
1 4.94 494 0.163 -7.916 1.116 33.081 5.981 34.119 -419.876 -704.991 -2804.973 -0.591 -1.751 0.439 0 0.65 -0.76 0.03
1 4.95 495 0.383 -7.762 1.049 32.868 6.897 30.121 -374.906 -734.971 -2804.973 -0.862 -1.894 0.557 0 0.65 -0.76 0.03
1 4.96 496 0.402 -8.059 0.675 25.696 11.658 26.489 -374.906 -734.971 -2804.973 -0.927 -1.586 0.981 0.01 0.64 -0.76 0.04
1 4.97 497 0.690 -8.505 0.374 15.808 13.794 22.461 -524.958 -809.922 -2849.943 -1.256 -1.131 1.324 0.01 0.64 -0.77 0.04
1 4.98 498 0.637 -9.194 0.694 -2.747 14.404 18.341 -269.974 -779.942 -2909.904 -1.272 -0.430 1.041 0.01 0.64 -0.77 0.04
1 4.99 499 0.579 -9.515 1.034 -14.099 15.747 15.503 -284.964 -749.961 -2894.914 -1.233 -0.111 0.685 0.01 0.64 -0.77 0.04
1 5.00 500 0.426 -9.836 1.480 -21.332 19.409 12.878 -254.984 -794.932 -2789.982 -1.096 0.206 0.211 0.01 0.64 -0.76 0.04
1 5.01 501 -0.053 -10.444 1.743 -20.416 25.696 11.261 -254.984 -794.932 -2789.982 -0.631 0.809 -0.087 0.01 0.64 -0.76 0.04
1 5.02 502 -0.599 -11.268 1.815 -9.369 29.633 9.125 -284.964 -749.961 -2789.982 -0.100 1.629 -0.188 0.02 0.65 -0.76 0.04
1 5.03 503 -0.804 -11.315 1.504 -0.580 25.940 7.385 -284.964 -749.961 -2789.982 0.086 1.675 0.104 0.02 0.65 -0.76 0.04
1 5.04 504 -0.953 -11.454 0.900 6.317 17.700 6.714 -164.893 -779.942 -2849.943 0.217 1.814 0.702 0.02 0.65 -0.76 0.04
1 5.05 505 -0.551 -11.066 -0.019 15.595 -0.061 5.585 -299.955 -509.968 -2849.943 -0.208 1.432 1.644 0.02 0.65 -0.76 0.03
1 5.06 506 -0.014 -10.487 -0.412 20.844 -8.453 4.089 -194.873 -704.991 -2729.872 -0.750 0.858 2.064 0.02 0.64 -0.76 0.03
1 5.07 507 0.589 -10.090 -0.934 22.675 -12.726 1.129 -209.863 -719.981 -2819.963 -1.349 0.463 2.605 0.02 0.64 -0.76 0.04
1 5.08 508 1.226 -9.577 -0.532 16.876 -12.787 -2.502 -209.863 -719.981 -2819.963 -1.972 -0.048 2.219 0.02 0.64 -0.76 0.04
1 5.09 509 1.101 -9.486 1.949 -5.829 -0.275 -11.353 -224.854 -809.922 -2849.943 -1.824 -0.140 -0.259 0.02 0.64 -0.76 0.04
1 5.10 510 -0.555 -11.837 3.079 -80.017 51.850 -58.533 -224.854 -809.922 -2849.943 -0.127 2.204 -1.416 0.02 0.64 -0.76 0.03
1 5.11 511 -2.873 -12.417 5.200 -91.523 18.982 -70.709 -164.893 -734.971 -2849.943 2.262 2.761 -3.640 0.02 0.65 -0.76 0.03
1 5.12 512 -4.013 -15.328 0.436 -45.471 1.831 -75.836 -269.974 -734.971 -2909.904 3.616 5.624 0.875 0.01 0.66 -0.75 0.02
1 5.13 513 -3.783 -15.252 0.278 12.573 -40.222 -35.370 -299.955 -659.870 -2669.911 3.489 5.538 0.989 0.01 0.66 -0.75 0.01
1 5.14 514 -1.063 -10.770 2.442 38.818 -62.317 -1.434 -284.964 -644.880 -2789.982 0.818 1.060 -1.138 0 0.66 -0.75 0.02
1 5.15 515 0.560 -9.261 2.437 18.982 -73.609 4.883 -284.964 -644.880 -2789.982 -0.792 -0.441 -1.077 -0 0.66 -0.75 0.02
1 5.16 516 1.801 -8.969 2.289 -25.757 -71.320 2.228 -209.863 -674.860 -2684.901 -2.020 -0.730 -0.904 -0.01 0.66 -0.76 0.02
1 5.17 517 2.361 -8.888 3.869 -42.511 -59.509 -2.594 -209.863 -674.860 -2684.901 -2.553 -0.818 -2.523 -0.01 0.66 -0.75 0.03
1 5.18 518 1.575 -8.682 4.626 -31.220 -39.215 -3.448 -359.916 -599.909 -2789.982 -1.732 -1.031 -3.331 -0.01 0.66 -0.75 0.03
1 5.19 519 0.555 -9.534 4.415 -31.006 -10.529 -8.972 -434.867 -449.857 -2609.950 -0.680 -0.183 -3.145 -0.02 0.66 -0.75 0.03
1 5.20 520 -0.263 -11.004 4.075 -44.129 5.798 -18.341 -389.896 -419.876 -2639.930 0.187 1.279 -2.865 -0.02 0.66 -0.75 0.03
1 5.21 521 -1.192 -11.560 4.324 -33.234 -0.946 -32.440 -569.929 -629.890 -2549.989 1.149 1.827 -3.176 -0.02 0.66 -0.75 0.03
1 5.22 522 -1.810 -12.082 3.884 -24.201 -19.135 -39.185 -569.929 -629.890 -2549.989 1.822 2.344 -2.780 -0.02 0.67 -0.75 0.03
1 5.23 523 -1.868 -12.489 3.151 -8.942 -35.309 -23.773 -299.955 -584.919 -2669.911 1.939 2.748 -2.077 -0.03 0.67 -0.74 0.03
1 5.24 524 0.072 -11.718 2.782 22.186 -32.410 5.371 -299.955 -584.919 -2669.911 0.035 1.977 -1.713 -0.03 0.67 -0.74 0.03
1 5.25 525 1.417 -10.712 2.605 36.682 -1.404 19.653 -389.896 -419.876 -2564.979 -1.305 0.974 -1.509 -0.03 0.67 -0.75 0.03
1 5.26 526 2.160 -9.477 2.548 36.560 38.208 35.065 -494.978 -509.968 -2549.989 -2.068 -0.255 -1.399 -0.03 0.66 -0.75 0.03
1 5.27 527 2.270 -8.418 1.824 15.289 79.529 46.814 -539.948 -449.857 -2504.868 -2.279 -1.300 -0.562 -0.03 0.66 -0.75 0.03
1 5.28 528 1.767 -8.514 1.882 4.730 93.018 41.107 -569.929 -539.948 -2699.891 -1.842 -1.201 -0.594 -0.02 0.66 -0.75 0.03
1 5.29 529 0.656 -8.696 1.686 1.099 98.297 28.168 -569.929 -539.948 -2699.891 -0.790 -1.017 -0.388 -0.01 0.66 -0.75 0.03
1 5.30 530 -0.728 -9.127 1.551 5.737 94.788 14.008 -434.867 -419.876 -2714.881 0.548 -0.584 -0.247 -0.01 0.66 -0.75 0.02
1 5.31 531 -2.203 -8.979 1.125 12.939 80.323 4.334 -434.867 -419.876 -2714.881 1.987 -0.730 0.192 -0 0.66 -0.75 0.02
1 5.32 532 -3.524 -8.006 0.508 20.081 36.957 -7.263 -299.955 -434.867 -2624.940 3.278 -1.699 0.831 0 0.66 -0.75 0.02
1 5.33 533 -3.927 -7.374 0.192 17.365 3.754 -16.235 -329.935 -599.909 -2684.901 3.659 -2.327 1.172 0.01 0.66 -0.75 0.01
1 5.34 534 -3.749 -7.207 0.239 -0.092 -29.602 -20.844 -224.854 -464.997 -2594.959 3.538 -2.489 1.170 0 0.65 -0.76 0.01
1 5.35 535 -3.366 -7.734 0.814 -14.252 -35.370 -11.505 -374.906 -509.968 -2774.992 3.191 -1.963 0.592 0 0.65 -0.76 0.01
1 5.36 536 -3.050 -8.270 0.924 -21.881 -30.274 6.287 -374.906 -509.968 -2774.992 2.895 -1.431 0.460 -0 0.66 -0.76 0.01
1 5.37 537 -2.734 -9.199 1.470 -22.980 -18.341 25.360 -194.873 -584.919 -2729.872 2.559 -0.506 -0.118 -0 0.66 -0.75 0.02
1 5.38 538 -2.557 -9.630 1.810 -17.670 -5.188 40.192 -194.873 -584.919 -2729.872 2.322 -0.078 -0.488 -0 0.66 -0.75 0.02
1 5.39 539 -2.394 -9.860 2.064 -3.326 2.197 47.943 -359.916 -569.929 -2609.950 2.080 0.152 -0.759 0 0.66 -0.75 0.02
1 5.40 540 -2.030 -9.769 1.733 5.615 -2.808 44.373 -269.974 -704.991 -2729.872 1.631 0.064 -0.431 0 0.66 -0.75 0.03
1 5.41 541 -1.738 -9.438 1.484 13.550 -10.345 34.119 -269.974 -704.991 -2729.872 1.258 -0.261 -0.171 0.01 0.66 -0.75 0.03
1 5.42 542 -1.408 -8.605 0.838 21.515 -22.369 13.855 -269.974 -539.948 -2624.940 0.823 -1.082 0.528 0.01 0.66 -0.75 0.04
1 5.43 543 -1.006 -8.117 0.397 20.447 -29.602 0.763 -269.974 -539.948 -2624.940 0.408 -1.564 1.003 0.01 0.65 -0.76 0.04
1 5.44 544 -0.642 -7.901 0.354 17.212 -32.501 -11.261 -299.955 -509.968 -2549.989 0.056 -1.776 1.080 0.01 0.65 -0.76 0.04
1 5.45 545 -0.460 -7.848 0.455 15.411 -33.081 -19.898 -299.955 -509.968 -2549.989 -0.097 -1.826 1.009 0 0.65 -0.76 0.04
1 5.46 546 -0.359 -8.054 0.589 10.956 -25.726 -27.130 -134.912 -494.978 -2714.881 -0.157 -1.618 0.901 0 0.65 -0.76 0.04
1 5.47 547 -0.503 -8.557 1.010 7.568 -16.571 -27.527 -284.964 -569.929 -2639.930 0.032 -1.114 0.500 -0 0.65 -0.76 0.04
1 5.48 548 -0.857 -8.505 1.389 6.653 -3.967 -28.015 -284.964 -569.929 -2639.930 0.434 -1.167 0.137 -0.01 0.65 -0.76 0.04
1 5.49 549 -1.537 -8.663 1.121 8.667 6.317 -23.285 -254.984 -449.857 -2819.963 1.199 -1.008 0.430 -0.01 0.65 -0.76 0.04
1 5.50 550 -1.791 -8.897 0.991 8.453 9.644 -18.402 -254.984 -449.857 -2819.963 1.481 -0.772 0.572 -0.01 0.65 -0.76 0.03
1 5.51 551 -2.040 -9.165 0.709 9.277 10.590 -12.634 -359.916 -494.978 -2714.881 1.743 -0.503 0.865 -0.01 0.65 -0.76 0.03
1 5.52 552 -2.399 -9.146 0.421 10.651 10.834 -6.805 -359.916 -494.978 -2714.881 2.103 -0.520 1.162 -0.01 0.65 -0.76 0.03
1 5.53 553 -2.447 -9.261 0.168 8.759 4.486 -0.946 -284.964 -569.929 -2759.852 2.143 -0.404 1.425 -0.01 0.65 -0.76 0.03
1 5.54 554 -2.184 -9.745 -0.067 -1.831 -13.489 4.761 -419.876 -659.870 -2849.943 1.864 0.081 1.663 -0.01 0.65 -0.76 0.03
1 5.55 555 -1.944 -10.473 0.172 -10.407 -24.201 8.637 -419.876 -659.870 -2849.943 1.607 0.808 1.413 -0.01 0.65 -0.76 0.03
1 5.56 556 -1.073 -11.598 0.819 -20.386 -31.342 18.005 -389.896 -449.857 -2789.982 0.700 1.927 0.719 -0.01 0.65 -0.76 0.04
1 5.57 557 -0.594 -11.761 1.590 -19.562 -24.475 21.332 -389.896 -449.857 -2789.982 0.201 2.086 -0.080 -0.01 0.65 -0.76 0.04
1 5.58 558 -0.393 -11.545 1.551 -7.202 -12.146 17.273 -374.906 -629.890 -2729.872 -0.024 1.868 -0.064 -0.01 0.65 -0.76 0.04
1 5.59 559 -0.268 -11.057 0.790 9.277 -2.747 7.690 -374.906 -629.890 -2729.872 -0.168 1.380 0.694 -0.01 0.65 -0.76 0.05
1 5.60 560 -0.690 -10.482 0.369 23.468 1.251 -6.836 -329.935 -449.857 -2714.881 0.248 0.809 1.137 -0.01 0.65 -0.76 0.05
1 5.61 561 -0.464 -11.109 0.977 21.637 -11.261 -16.632 -254.984 -524.958 -2684.901 0.039 1.441 0.563 -0.01 0.65 -0.76 0.05
1 5.62 562 -0.062 -12.465 1.619 -10.498 -35.950 9.247 -254.984 -524.958 -2684.901 -0.337 2.800 -0.048 -0.01 0.65 -0.76 0.04
1 5.63 563 0.057 -11.789 4.544 -49.347 -19.135 23.682 -284.964 -419.876 -2819.963 -0.451 2.125 -2.971 -0.01 0.65 -0.76 0.05
1 5.64 564 0.747 -13.389 2.490 -56.244 -22.553 64.820 -464.997 -524.958 -2789.982 -1.225 3.706 -1.059 -0.01 0.65 -0.76 0.05
1 5.65 565 0.364 -13.025 1.824 -33.478 4.730 59.082 -359.916 -419.876 -2714.881 -0.934 3.336 -0.468 -0.01 0.66 -0.75 0.06
1 5.66 566 -0.426 -12.264 1.130 -4.852 38.056 33.844 -359.916 -419.876 -2714.881 -0.225 2.575 0.190 -0.01 0.66 -0.75 0.06
1 5.67 567 -1.269 -11.564 1.015 -3.815 43.671 7.599 -329.935 -449.857 -2609.950 0.570 1.878 0.297 -0 0.66 -0.75 0.06
1 5.68 568 -2.706 -10.899 0.924 -18.555 29.389 -35.187 -344.925 -434.867 -2669.911 1.998 1.211 0.374 -0 0.66 -0.75 0.06
1 5.69 569 -3.290 -10.736 1.413 -10.956 15.595 -54.840 -344.925 -434.867 -2669.911 2.619 1.042 -0.142 -0 0.66 -0.75 0.05
1 5.70 570 -3.041 -10.817 1.978 -4.883 -0.122 -53.162 -269.974 -434.867 -2549.989 2.444 1.116 -0.728 -0 0.66 -0.75 0.05
1 5.71 571 -2.691 -10.635 3.232 -6.561 -18.951 -29.419 -389.896 -419.876 -2714.881 2.242 0.924 -1.996 -0.01 0.66 -0.75 0.04
1 5.72 572 -2.054 -9.999 3.682 -2.258 -30.579 -11.810 -359.916 -329.935 -2714.881 1.649 0.285 -2.451 -0.01 0.66 -0.75 0.04
1 5.73 573 -0.953 -9.553 4.027 -5.219 -42.816 9.216 -359.916 -329.935 -2714.881 0.565 -0.161 -2.796 -0.01 0.66 -0.75 0.05
1 5.74 574 0.651 -10.051 3.850 -17.365 -43.854 28.015 -389.896 -524.958 -2639.930 -1.057 0.339 -2.607 -0.02 0.66 -0.75 0.05
1 5.75 575 1.619 -10.401 3.754 -22.186 -29.083 40.833 -344.925 -314.945 -2669.911 -2.057 0.689 -2.516 -0.02 0.66 -0.75 0.05
1 5.76 576 1.786 -10.008 3.745 1.617 9.460 45.075 -344.925 -314.945 -2669.911 -2.282 0.296 -2.532 -0.02 0.66 -0.75 0.06
1 5.77 577 0.718 -9.457 3.333 13.733 30.579 38.818 -269.974 -359.916 -2699.891 -1.280 -0.251 -2.124 -0.01 0.66 -0.75 0.06
1 5.78 578 -0.737 -9.094 2.399 13.794 37.323 25.635 -494.978 -359.916 -2594.959 0.119 -0.609 -1.165 -0.01 0.66 -0.75 0.06
1 5.79 579 -2.332 -9.778 1.686 14.313 6.561 1.434 -359.916 -419.876 -2789.982 1.644 0.089 -0.391 -0 0.66 -0.75 0.06
1 5.80 580 -2.241 -9.826 1.710 16.998 -24.841 -8.759 -359.916 -419.876 -2789.982 1.545 0.141 -0.388 -0 0.66 -0.75 0.06
1 5.81 581 -1.279 -9.486 2.150 20.233 -49.103 -16.296 -344.925 -314.945 -2699.891 0.594 -0.195 -0.795 -0.01 0.66 -0.75 0.06
1 5.82 582 -0.455 -9.304 2.418 21.881 -57.617 -19.257 -224.854 -359.916 -2774.992 -0.199 -0.374 -1.020 -0.01 0.65 -0.75 0.06
1 5.83 583 0.565 -8.950 2.519 17.242 -48.279 -7.996 -224.854 -359.916 -2774.992 -1.178 -0.724 -1.074 -0.01 0.65 -0.75 0.06
1 5.84 584 1.178 -8.567 2.399 10.773 -33.203 5.463 -419.876 -359.916 -2774.992 -1.757 -1.102 -0.912 -0.02 0.65 -0.76 0.07
1 5.85 585 1.882 -8.409 2.380 7.843 -16.663 17.792 -494.978 -314.945 -2729.872 -2.445 -1.256 -0.861 -0.02 0.65 -0.76 0.07
1 5.86 586 2.490 -8.370 2.342 3.967 11.261 19.318 -224.854 -359.916 -2954.875 -3.075 -1.288 -0.786 -0.02 0.65 -0.76 0.07
1 5.87 587 2.437 -8.509 2.260 3.479 27.435 17.242 -224.854 -359.916 -2954.875 -3.030 -1.146 -0.692 -0.02 0.65 -0.76 0.07
1 5.88 588 2.059 -8.524 2.097 7.904 36.377 14.008 -359.916 -374.906 -2864.934 -2.660 -1.129 -0.517 -0.02 0.65 -0.76 0.07
1 5.89 589 1.417 -8.294 1.772 12.146 38.117 7.233 -464.997 -419.876 -2789.982 -2.025 -1.356 -0.174 -0.02 0.65 -0.76 0.07
1 5.90 590 0.666 -8.083 1.475 15.778 28.809 -9.949 -464.997 -419.876 -2789.982 -1.279 -1.563 0.142 -0.01 0.65 -0.76 0.06
1 5.91 591 0.196 -7.954 1.240 16.754 17.700 -20.722 -209.863 -329.935 -2714.881 -0.806 -1.689 0.398 -0.01 0.65 -0.76 0.06
1 5.92 592 0.086 -7.796 1.077 17.212 5.829 -29.694 -344.925 -389.896 -2699.891 -0.673 -1.844 0.585 -0.01 0.64 -0.76 0.06
1 5.93 593 0.565 -7.939 1.130 13.825 -7.507 -36.652 -329.935 -419.876 -2894.914 -1.060 -1.697 0.584 -0.01 0.64 -0.76 0.06
1 5.94 594 0.876 -8.107 1.245 8.392 -8.789 -37.140 -329.935 -419.876 -2894.914 -1.313 -1.528 0.490 -0.02 0.64 -0.77 0.05
1 5.95 595 1.207 -8.533 1.595 3.174 -3.601 -33.630 -299.955 -584.919 -2879.924 -1.586 -1.102 0.153 -0.02 0.64 -0.77 0.05
1 5.96 596 1.365 -9.074 1.920 0.061 6.653 -26.703 -374.906 -434.867 -2729.872 -1.696 -0.562 -0.168 -0.02 0.64 -0.77 0.05
1 5.97 597 1.288 -9.582 2.193 0.427 17.120 -17.883 -374.906 -434.867 -2729.872 -1.572 -0.055 -0.438 -0.02 0.64 -0.77 0.05
1 5.98 598 1.034 -9.654 2.208 9.308 33.203 -2.197 -524.958 -464.997 -2954.875 -1.288 0.017 -0.447 -0.02 0.64 -0.77 0.05
1 5.99 599 0.857 -9.615 2.164 17.548 40.497 6.531 -419.876 -434.867 -2909.904 -1.099 -0.019 -0.388 -0.02 0.64 -0.77 0.04
1 6.00 600 0.148 -9.146 1.777 32.593 46.234 14.923 -284.964 -329.935 -2894.914 -0.417 -0.475 0.065 -0.02 0.64 -0.77 0.04
1 6.01 601 -0.057 -8.787 1.638 42.328 43.732 16.419 -284.964 -329.935 -2894.914 -0.242 -0.824 0.256 -0.01 0.64 -0.77 0.04
1 6.02 602 -0.354 -8.193 1.101 50.873 38.361 15.045 -254.984 -419.876 -3044.966 0.020 -1.403 0.857 -0.01 0.63 -0.77 0.04
1 6.03 603 -0.493 -7.829 0.675 55.084 30.243 10.651 -329.935 -329.935 -2819.963 0.129 -1.750 1.361 -0.01 0.63 -0.78 0.04
1 6.04 604 -0.699 -7.365 0.321 47.119 16.632 4.578 -329.935 -329.935 -2819.963 0.313 -2.196 1.796 -0 0.63 -0.78 0.04
1 6.05 605 -0.670 -7.614 -0.148 29.938 11.200 -0.214 -164.893 -509.968 -2909.904 0.271 -1.930 2.338 -0 0.62 -0.78 0.04
1 6.06 606 -0.498 -8.054 -0.364 8.575 7.721 -2.258 -119.922 -434.867 -2984.855 0.094 -1.477 2.605 -0 0.62 -0.78 0.04
1 6.07 607 -0.426 -8.648 -0.096 -13.825 4.089 -0.854 -119.922 -434.867 -2984.855 0.023 -0.878 2.359 -0 0.62 -0.78 0.03
1 6.08 608 -0.474 -9.639 1.106 -41.962 2.136 2.808 -269.974 -464.997 -3104.927 0.072 0.099 1.098 -0 0.62 -0.78 0.03
1 6.09 609 -0.575 -10.506 1.844 -50.293 0.854 6.805 -224.854 -629.890 -3104.927 0.167 0.949 0.287 -0 0.63 -0.78 0.03
1 6.10 610 -0.613 -11.315 2.078 -45.166 -2.289 10.010 -209.863 -599.909 -2969.865 0.194 1.742 -0.023 -0 0.63 -0.78 0.03
1 6.11 611 -0.594 -11.971 1.982 -29.633 -9.705 10.864 -209.863 -599.909 -2969.865 0.162 2.386 0.013 -0 0.63 -0.77 0.04
1 6.12 612 0.000 -12.048 1.863 -1.343 -26.123 13.519 -134.912 -524.958 -2969.865 -0.443 2.457 0.099 -0 0.63 -0.77 0.04
1 6.13 613 0.527 -11.569 1.374 11.231 -26.886 16.541 -179.883 -329.935 -3044.966 -0.981 1.977 0.582 -0 0.63 -0.77 0.04
1 6.14 614 0.986 -10.894 0.565 21.973 -20.569 19.806 -179.883 -329.935 -3044.966 -1.454 1.306 1.407 -0 0.63 -0.77 0.04
1 6.15 615 1.796 -9.687 0.872 31.372 -6.287 22.369 -329.935 -494.978 -3014.986 -2.303 0.116 1.173 -0 0.63 -0.78 0.04
1 6.16 616 1.465 -9.223 2.404 9.094 18.768 13.153 -269.974 -584.919 -3029.976 -1.986 -0.341 -0.328 -0 0.63 -0.78 0.05
1 6.17 617 0.804 -10.798 1.959 -46.082 66.864 -20.905 -164.893 -539.948 -2954.875 -1.325 1.234 0.113 -0 0.63 -0.78 0.04
1 6.18 618 -1.350 -10.410 4.492 -96.039 34.729 -38.117 -164.893 -539.948 -2954.875 0.856 0.825 -2.513 0 0.63 -0.77 0.04
1 6.19 619 -3.007 -11.842 3.237 -106.263 19.165 -61.981 -119.922 -539.948 -2954.875 2.571 2.224 -1.408 0 0.64 -0.77 0.03
1 6.20 620 -2.514 -15.989 -0.048 -52.735 -15.106 -40.741 -164.893 -464.997 -2879.924 2.170 6.340 1.727 -0 0.64 -0.76 0.03
1 6.21 621 -1.020 -13.336 2.931 -2.472 -37.781 2.747 -164.893 -464.997 -2879.924 0.753 3.669 -1.348 -0 0.65 -0.76 0.03
1 6.22 622 0.326 -11.239 3.893 10.437 -35.645 15.991 -359.916 -374.906 -2969.865 -0.573 1.568 -2.327 -0.01 0.65 -0.76 0.03
1 6.23 623 1.475 -10.133 3.194 -31.311 -46.112 -3.326 -209.863 -374.906 -2864.934 -1.736 0.463 -1.620 -0.01 0.65 -0.76 0.03
1 6.24 624 1.619 -9.113 3.754 -27.985 -58.502 -8.698 -299.955 -209.863 -2909.904 -1.852 -0.564 -2.220 -0.01 0.65 -0.76 0.04
1 6.25 625 2.006 -8.720 4.319 -13.611 -41.504 -4.852 -299.955 -209.863 -2909.904 -2.200 -0.960 -2.801 -0.02 0.65 -0.76 0.04
1 6.26 626 2.231 -8.921 4.396 -18.982 5.432 -8.362 -254.984 -374.906 -2894.914 -2.394 -0.759 -2.875 -0.02 0.65 -0.76 0.04
1 6.27 627 0.675 -10.295 3.491 -24.902 60.059 -31.647 -344.925 -314.945 -2984.855 -0.806 0.614 -1.977 -0.02 0.65 -0.76 0.04
1 6.28 628 -0.953 -10.434 3.467 -28.198 54.444 -52.521 -344.925 -314.945 -2984.855 0.866 0.750 -1.970 -0.02 0.65 -0.76 0.03
1 6.29 629 -2.605 -11.478 3.409 -32.562 28.900 -68.482 -284.964 -329.935 -2789.982 2.576 1.787 -1.953 -0.02 0.65 -0.76 0.03
1 6.30 630 -3.443 -13.102 3.156 -26.764 -18.555 -57.770 -419.876 -239.994 -2954.875 3.606 3.398 -1.793 -0.02 0.66 -0.75 0.02
1 6.31 631 -2.811 -12.953 3.285 10.376 -27.802 -32.349 -269.974 -239.994 -2849.943 3.057 3.248 -1.950 -0.03 0.66 -0.75 0.01
1 6.32 632 -1.575 -12.029 3.137 47.363 -16.296 2.411 -269.974 -239.994 -2849.943 1.864 2.329 -1.770 -0.03 0.66 -0.75 0.01
1 6.33 633 -0.397 -10.463 2.591 57.068 4.669 32.990 -464.997 -179.883 -2864.934 0.674 0.774 -1.145 -0.03 0.65 -0.76 0.02
1 6.34 634 0.599 -8.935 2.030 40.772 30.792 58.502 -524.958 -239.994 -2954.875 -0.383 -0.741 -0.498 -0.03 0.65 -0.76 0.02
1 6.35 635 1.034 -7.714 1.705 27.252 44.190 60.852 -524.958 -239.994 -2954.875 -0.905 -1.952 -0.099 -0.03 0.65 -0.76 0.02
1 6.36 636 0.627 -7.609 1.690 13.886 55.695 53.711 -359.916 -224.854 -2939.885 -0.598 -2.050 -0.036 -0.02 0.64 -0.76 0.02
1 6.37 637 -0.666 -7.623 1.604 -3.510 58.991 35.278 -254.984 -374.906 -2789.982 0.519 -2.029 0.084 -0.01 0.64 -0.77 0.02
1 6.38 638 -1.647 -8.069 1.537 -10.468 44.769 19.928 -344.925 -164.893 -2879.924 1.440 -1.584 0.142 -0 0.64 -0.77 0.02
1 6.39 639 -2.457 -8.294 1.336 -12.878 21.790 3.571 -344.925 -164.893 -2879.924 2.217 -1.361 0.327 -0 0.64 -0.76 0.02
1 6.40 640 -2.825 -8.634 1.346 -13.519 -2.319 -11.597 -284.964 -419.876 -2939.885 2.583 -1.024 0.299 -0 0.65 -0.76 0.02
1 6.41 641 -3.041 -8.844 1.240 -10.376 -19.592 -18.494 -134.912 -149.902 -3044.966 2.803 -0.817 0.386 -0 0.65 -0.76 0.02
1 6.42 642 -2.897 -9.127 1.403 -9.705 -29.572 -10.071 -134.912 -149.902 -3044.966 2.672 -0.537 0.208 -0 0.65 -0.76 0.02
1 6.43 643 -2.729 -9.050 1.379 -8.850 -26.428 0.610 -194.873 -239.994 -2909.904 2.511 -0.616 0.219 -0 0.65 -0.76 0.02
1 6.44 644 -2.935 -9.189 1.326 -3.876 -20.416 19.440 -179.883 -224.854 -2969.865 2.681 -0.479 0.253 -0.01 0.65 -0.76 0.03
1 6.45 645 -3.127 -9.472 1.384 -0.610 -19.531 31.372 -179.883 -374.906 -2894.914 2.825 -0.196 0.192 -0 0.65 -0.76 0.03
1 6.46 646 -3.309 -9.534 1.288 5.035 -23.712 40.802 -179.883 -374.906 -2894.914 2.941 -0.131 0.291 -0 0.65 -0.76 0.03
1 6.47 647 -3.132 -9.448 1.154 10.712 -36.560 44.434 -329.935 -224.854 -2864.934 2.688 -0.212 0.436 -0 0.65 -0.76 0.04
1 6.48 648 -2.648 -9.050 0.838 15.991 -52.002 41.412 -299.955 -284.964 -2909.904 2.130 -0.603 0.770 -0 0.65 -0.76 0.04
1 6.49 649 -1.346 -8.505 0.757 17.242 -70.160 30.396 -299.955 -284.964 -2909.904 0.767 -1.141 0.877 -0 0.65 -0.76 0.05
1 6.50 650 -0.508 -7.911 0.757 14.343 -74.951 19.287 -224.854 -164.893 -2984.855 -0.112 -1.728 0.905 -0 0.64 -0.76 0.05
1 6.51 651 0.053 -7.772 0.824 11.353 -72.388 7.507 -224.854 -164.893 -2984.855 -0.685 -1.860 0.869 -0.01 0.64 -0.76 0.06
1 6.52 652 0.536 -7.633 1.030 7.385 -58.685 -7.629 -284.964 -254.984 -3119.917 -1.144 -1.992 0.710 -0.01 0.64 -0.76 0.07
1 6.53 653 0.397 -7.729 1.034 6.531 -45.319 -14.618 -284.964 -254.984 -3119.917 -0.975 -1.895 0.722 -0.02 0.64 -0.76 0.07
1 6.54 654 0.153 -7.930 1.317 6.531 -30.701 -18.982 -179.883 -224.854 -2969.865 -0.695 -1.693 0.454 -0.02 0.64 -0.77 0.07
1 6.55 655 -0.168 -8.117 1.451 7.782 -17.761 -19.348 -209.863 -224.854 -3044.966 -0.338 -1.506 0.334 -0.02 0.64 -0.77 0.07
1 6.56 656 -0.809 -8.145 1.575 10.498 -3.906 -17.822 -209.863 -224.854 -3044.966 0.338 -1.476 0.224 -0.02 0.64 -0.77 0.07
1 6.57 657 -0.977 -8.198 1.508 10.864 -0.092 -15.350 -179.883 -224.854 -3044.966 0.535 -1.422 0.308 -0.03 0.64 -0.77 0.07
1 6.58 658 -1.097 -8.346 1.116 11.536 0.366 -10.803 -179.883 -224.854 -3044.966 0.680 -1.271 0.718 -0.03 0.64 -0.77 0.07
1 6.59 659 -1.058 -8.844 0.584 15.869 -3.235 -5.157 -299.955 -284.964 -3059.957 0.673 -0.767 1.290 -0.03 0.64 -0.77 0.06
1 6.60 660 -0.929 -9.381 0.551 17.456 -4.700 -2.167 -299.955 -284.964 -3059.957 0.550 -0.227 1.345 -0.03 0.63 -0.77 0.06
1 6.61 661 -1.073 -9.625 0.488 13.092 -4.822 1.404 -209.863 -149.902 -3074.947 0.694 0.021 1.424 -0.03 0.63 -0.77 0.06
1 6.62 662 -1.307 -9.663 0.397 2.502 -9.552 5.768 -359.916 -179.883 -3119.917 0.923 0.061 1.522 -0.03 0.63 -0.77 0.06
1 6.63 663 -1.259 -10.185 0.623 -16.174 -22.156 16.022 -359.916 -179.883 -3119.917 0.863 0.581 1.288 -0.03 0.63 -0.77 0.06
1 6.64 664 -0.771 -10.439 0.895 -26.581 -23.163 22.583 -389.896 -299.955 -3074.947 0.353 0.831 0.988 -0.03 0.63 -0.77 0.07
1 6.65 665 -0.369 -10.736 0.929 -29.724 -13.672 24.445 -389.896 -299.955 -3074.947 -0.076 1.121 0.912 -0.03 0.64 -0.77 0.07
1 6.66 666 -0.187 -10.808 -0.129 -20.111 0.153 13.519 -284.964 -419.876 -3119.917 -0.318 1.179 1.881 -0.03 0.64 -0.76 0.07
1 6.67 667 -0.694 -10.750 -0.857 -11.597 -3.693 -1.343 -284.964 -419.876 -3119.917 0.176 1.118 2.584 -0.03 0.64 -0.76 0.07
1 6.68 668 -0.804 -10.683 -0.077 -5.646 -15.533 -17.426 -419.876 -359.916 -3104.927 0.298 1.046 1.783 -0.03 0.64 -0.76 0.07
1 6.69 669 0.488 -12.977 0.728 -17.487 -34.638 -7.141 -299.955 -209.863 -3134.908 -0.964 3.334 0.954 -0.03 0.64 -0.76 0.07
1 6.70 670 1.049 -13.164 3.395 -62.439 -45.624 29.114 -299.955 -209.863 -3134.908 -1.518 3.515 -1.748 -0.03 0.64 -0.76 0.07
1 6.71 671 1.662 -13.039 3.419 -84.198 14.160 55.451 -374.906 -284.964 -3134.908 -2.168 3.375 -1.877 -0.03 0.65 -0.76 0.08
1 6.72 672 1.379 -14.342 0.699 -51.331 6.195 74.860 -374.906 -284.964 -3134.908 -1.958 4.661 0.713 -0.03 0.65 -0.75 0.08
1 6.73 673 0.929 -14.098 0.977 -18.341 52.887 42.755 -329.935 -299.955 -3224.999 -1.616 4.412 0.347 -0.03 0.66 -0.75 0.08
1 6.74 674 -1.791 -12.637 1.355 -15.350 73.853 -7.202 -344.925 -89.941 -2984.855 0.983 2.952 -0.095 -0.02 0.66 -0.75 0.08
1 6.75 675 -3.089 -11.531 1.575 -15.869 49.622 -26.184 -374.906 -89.941 -2984.855 2.287 1.841 -0.348 -0.01 0.66 -0.75 0.08
1 6.76 676 -3.491 -10.908 1.638 -1.587 25.574 -45.899 -269.974 -119.922 -2984.855 2.729 1.213 -0.432 -0.01 0.66 -0.75 0.07
1 6.77 677 -3.869 -10.884 2.155 4.120 0.275 -58.533 -269.974 -119.922 -2984.855 3.180 1.183 -0.949 -0.01 0.66 -0.75 0.07
1 6.78 678 -4.003 -10.640 2.715 7.141 -34.851 -49.805 -179.883 -149.902 -3074.947 3.404 0.934 -1.502 -0.02 0.66 -0.75 0.06
1 6.79 679 -3.735 -10.171 3.534 10.407 -61.127 -26.856 -179.883 -149.902 -3074.947 3.222 0.462 -2.307 -0.02 0.66 -0.75 0.06
1 6.80 680 -2.035 -9.922 3.778 -1.831 -81.940 1.892 -299.955 -89.941 -3059.957 1.584 0.212 -2.531 -0.02 0.66 -0.75 0.06
1 6.81 681 1.461 -10.702 4.377 -42.755 -76.142 42.725 -344.925 -209.863 -3029.976 -1.903 0.990 -3.149 -0.03 0.66 -0.75 0.07
1 6.82 682 3.156 -11.378 4.937 -44.129 -43.121 64.972 -464.997 -179.883 -3119.917 -3.658 1.660 -3.769 -0.03 0.66 -0.74 0.08
1 6.83 683 3.285 -11.488 5.114 -23.590 8.026 70.557 -524.958 -44.971 -3029.976 -3.881 1.769 -4.002 -0.03 0.66 -0.74 0.08
1 6.84 684 1.882 -11.229 4.458 7.080 52.857 60.120 -524.958 -44.971 -3029.976 -2.583 1.515 -3.371 -0.03 0.67 -0.74 0.09
1 6.85 685 -0.215 -11.109 3.213 27.985 61.066 42.023 -494.978 -14.990 -2984.855 -0.578 1.404 -2.112 -0.02 0.67 -0.74 0.09
1 6.86 686 -1.513 -10.147 1.973 40.344 9.827 0.641 -494.978 -14.990 -2984.855 0.659 0.451 -0.831 -0.02 0.66 -0.74 0.08
1 6.87 687 -1.125 -9.376 1.954 48.065 -24.231 -26.642 -359.916 0.000 -2939.885 0.257 -0.312 -0.755 -0.02 0.66 -0.74 0.08
1 6.88 688 -0.220 -8.710 2.217 51.148 -43.213 -42.938 -224.854 -119.922 -3059.957 -0.553 -0.963 -0.854 -0.02 0.66 -0.75 0.08
1 6.89 689 0.115 -7.987 2.140 44.861 -42.236 -39.917 -224.854 -164.893 -3029.976 -0.813 -1.680 -0.691 -0.02 0.65 -0.75 0.08
1 6.90 690 0.656 -7.566 2.021 33.814 -34.363 -29.938 -344.925 -119.922 -3134.908 -1.287 -2.095 -0.503 -0.03 0.65 -0.76 0.08
1 6.91 691 0.872 -7.259 1.753 19.989 -20.935 -16.998 -344.925 -119.922 -3134.908 -1.454 -2.397 -0.186 -0.03 0.65 -0.76 0.08
1 6.92 692 1.551 -7.145 1.824 6.653 -6.439 -3.265 -374.906 -164.893 -3134.908 -2.108 -2.509 -0.228 -0.03 0.65 -0.76 0.08
1 6.93 693 1.781 -7.145 1.887 -18.189 23.163 10.040 -374.906 -164.893 -3134.908 -2.336 -2.508 -0.286 -0.03 0.65 -0.76 0.08
1 6.94 694 1.700 -7.437 1.987 -23.560 37.232 14.832 -464.997 -329.935 -3119.917 -2.269 -2.218 -0.408 -0.03 0.65 -0.76 0.08
1 6.95 695 1.116 -7.892 2.035 -22.888 42.297 13.702 -494.978 -209.863 -3104.927 -1.713 -1.768 -0.491 -0.03 0.65 -0.76 0.08
1 6.96 696 0.374 -8.265 2.069 -19.348 37.262 1.556 -344.925 -164.893 -3164.888 -1.021 -1.402 -0.596 -0.02 0.65 -0.75 0.08
1 6.97 697 -0.043 -8.605 1.939 -11.292 27.527 -6.683 -254.984 -254.984 -3044.966 -0.610 -1.066 -0.495 -0.02 0.65 -0.75 0.07
1 6.98 698 -0.350 -8.854 1.853 -0.824 15.320 -13.367 -254.984 -254.984 -3044.966 -0.294 -0.820 -0.423 -0.02 0.65 -0.75 0.07
1 6.99 699 -0.038 -8.782 1.623 10.010 2.991 -19.898 -284.964 -149.902 -3044.966 -0.582 -0.892 -0.186 -0.02 0.65 -0.75 0.07
1 7.00 700 0.579 -8.404 1.475 25.330 -4.517 -27.344 -284.964 -149.902 -3044.966 -1.164 -1.269 -0.014 -0.02 0.65 -0.75 0.07
1 7.01 701 1.077 -8.270 1.609 27.771 -0.732 -27.771 -359.916 0.000 -3074.947 -1.618 -1.400 -0.111 -0.02 0.65 -0.76 0.07
1 7.02 702 1.197 -8.270 1.528 24.475 9.888 -24.109 -344.925 -119.922 -2984.855 -1.694 -1.395 0.013 -0.02 0.65 -0.76 0.07
1 7.03 703 1.025 -8.265 1.623 16.785 32.410 -8.240 -374.906 -119.922 -3029.976 -1.463 -1.392 -0.012 -0.02 0.65 -0.76 0.06
1 7.04 704 0.469 -8.198 1.322 11.566 46.600 3.082 -329.935 -74.951 -3074.947 -0.908 -1.455 0.311 -0.02 0.65 -0.76 0.06
1 7.05 705 0.053 -8.078 1.006 5.737 54.199 11.353 -329.935 -74.951 -3074.947 -0.511 -1.572 0.641 -0.02 0.64 -0.76 0.06
1 7.06 706 -0.378 -8.145 0.895 4.089 52.948 15.442 -344.925 -44.971 -3209.859 -0.111 -1.502 0.756 -0.01 0.64 -0.76 0.06
1 7.07 707 -0.584 -8.236 0.848 5.676 45.471 16.022 -344.925 -44.971 -3209.859 0.060 -1.409 0.807 -0.01 0.64 -0.76 0.05
1 7.08 708 -0.733 -8.385 0.905 14.191 31.799 14.954 -389.896 -29.980 -3074.947 0.175 -1.257 0.758 -0.01 0.64 -0.76 0.05
1 7.09 709 -0.718 -8.399 0.804 19.287 22.675 13.306 -359.916 -29.980 -3194.869 0.130 -1.238 0.876 -0.01 0.64 -0.76 0.05
1 7.10 710 -0.469 -8.754 0.733 21.729 14.771 11.414 -494.978 -209.863 -3164.888 -0.166 -0.870 1.006 -0 0.64 -0.77 0.05
1 7.11 711 -0.297 -9.022 0.713 16.174 11.353 8.148 -179.883 -179.883 -3224.999 -0.357 -0.595 1.055 -0 0.64 -0.77 0.05
1 7.12 712 -0.057 -9.558 0.776 7.202 8.484 6.561 -179.883 -179.883 -3224.999 -0.607 -0.056 1.007 0 0.64 -0.77 0.05
1 7.13 713 0.005 -9.750 1.121 -5.432 7.324 3.540 -179.883 -149.902 -3329.931 -0.674 0.136 0.661 0 0.64 -0.77 0.05
1 7.14 714 0.148 -9.932 1.403 -17.059 8.118 0.641 -179.883 -149.902 -3329.931 -0.818 0.315 0.361 0 0.64 -0.77 0.05
1 7.15 715 0.211 -10.195 1.532 -22.919 11.444 -3.235 -44.971 -164.893 -3164.888 -0.876 0.572 0.201 0 0.64 -0.77 0.05
1 7.16 716 0.077 -10.430 1.393 -20.599 15.472 -4.639 -179.883 -179.883 -3119.917 -0.733 0.800 0.304 0 0.64 -0.76 0.05
1 7.17 717 0.091 -10.928 1.365 -17.944 18.616 -5.707 -179.883 -179.883 -3119.917 -0.737 1.291 0.299 0 0.64 -0.76 0.05
1 7.18 718 -0.393 -11.603 1.178 -14.343 21.545 -1.587 -29.980 -149.902 -3374.901 -0.240 1.956 0.431 0 0.65 -0.76 0.04
1 7.19 719 -0.723 -12.297 0.742 -7.233 20.172 2.045 -29.980 -149.902 -3374.901 0.088 2.648 0.846 0.01 0.65 -0.76 0.04
1 7.20 720 -0.781 -12.345 0.431 7.019 13.397 6.165 -254.984 29.980 -2969.865 0.137 2.695 1.151 0.01 0.65 -0.76 0.04
1 7.21 721 -0.661 -11.924 -0.206 25.055 4.456 9.064 -254.984 29.980 -2969.865 0.005 2.277 1.805 0.01 0.65 -0.76 0.04
1 7.22 722 0.163 -10.310 -0.872 39.093 -8.667 6.775 -104.932 -29.980 -3194.869 -0.831 0.672 2.515 0.01 0.65 -0.76 0.04
1 7.23 723 0.632 -9.438 -0.843 36.011 -17.761 5.371 -194.873 -14.990 -3104.927 -1.309 -0.189 2.544 0.01 0.64 -0.76 0.04
1 7.24 724 0.527 -8.754 0.393 21.210 -20.355 3.967 -194.873 -14.990 -3104.927 -1.199 -0.867 1.348 0.01 0.64 -0.77 0.04
1 7.25 725 -0.388 -10.085 1.863 -43.152 26.581 -29.205 -89.941 -119.922 -3284.960 -0.258 0.466 -0.104 0.01 0.64 -0.77 0.04
1 7.26 726 -2.294 -10.899 3.702 -87.708 23.224 -52.185 -89.941 -119.922 -3284.960 1.698 1.262 -2.025 0.01 0.64 -0.76 0.04
1 7.27 727 -4.281 -11.464 4.631 -97.504 -8.881 -62.226 -104.932 -74.951 -3299.950 3.763 1.800 -3.090 0 0.65 -0.76 0.04
1 7.28 728 -4.425 -13.968 1.322 -78.400 -19.196 -61.463 -104.932 -74.951 -3299.950 4.005 4.278 0.081 -0 0.65 -0.76 0.03
1 7.29 729 -3.079 -14.768 1.312 -35.828 -57.343 -24.811 -209.863 0.000 -3074.947 2.747 5.061 -0.009 -0.01 0.66 -0.75 0.03
1 7.30 730 -0.278 -11.574 4.401 0.183 -76.172 16.815 -269.974 44.971 -2984.855 -0.019 1.861 -3.132 -0.01 0.66 -0.75 0.03
1 7.31 731 1.475 -10.516 4.032 -20.844 -76.203 9.979 -269.974 44.971 -2984.855 -1.776 0.803 -2.760 -0.01 0.66 -0.75 0.04
1 7.32 732 2.777 -9.682 3.884 -22.553 -82.001 -5.829 -299.955 -14.990 -3104.927 -3.065 -0.038 -2.669 -0.02 0.66 -0.75 0.05
1 7.33 733 2.950 -9.524 4.204 -5.829 -49.988 3.021 -299.955 -14.990 -3104.927 -3.206 -0.198 -3.001 -0.03 0.66 -0.75 0.05
1 7.34 734 3.127 -9.400 4.765 -7.721 -4.669 0.763 -419.876 -44.971 -3209.859 -3.380 -0.323 -3.567 -0.03 0.66 -0.75 0.05
1 7.35 735 2.710 -10.204 4.137 -20.050 21.057 -21.393 -419.876 -44.971 -3209.859 -2.958 0.479 -2.954 -0.03 0.66 -0.75 0.05
1 7.36 736 0.723 -10.889 3.630 -15.778 26.245 -55.695 -374.906 119.922 -3029.976 -0.929 1.160 -2.476 -0.03 0.66 -0.75 0.05
1 7.37 737 -2.050 -11.698 3.227 -4.120 0.916 -64.667 -434.867 29.980 -3119.917 1.933 1.965 -2.092 -0.03 0.66 -0.75 0.04
1 7.38 738 -1.920 -12.101 2.840 -12.817 -22.095 -39.429 -434.867 29.980 -3119.917 1.905 2.366 -1.708 -0.03 0.66 -0.75 0.04
1 7.39 739 -1.063 -12.302 2.950 -7.843 -23.438 -18.402 -419.876 14.990 -3059.957 1.121 2.566 -1.832 -0.04 0.66 -0.75 0.04
1 7.40 740 0.034 -11.416 3.002 25.208 15.350 13.367 -434.867 149.902 -3044.966 0.073 1.680 -1.886 -0.04 0.66 -0.75 0.04
1 7.41 741 0.642 -10.377 2.672 33.325 39.154 37.171 -509.968 74.951 -2969.865 -0.567 0.646 -1.511 -0.04 0.66 -0.75 0.04
1 7.42 742 1.006 -9.280 2.203 26.001 50.537 48.523 -509.968 74.951 -2969.865 -0.996 -0.444 -0.987 -0.03 0.66 -0.75 0.04
1 7.43 743 1.408 -8.840 2.121 20.935 57.404 45.929 -539.948 224.854 -2864.934 -1.473 -0.879 -0.860 -0.03 0.66 -0.75 0.04
1 7.44 744 1.130 -8.222 1.997 28.717 76.782 33.173 -434.867 29.980 -2969.865 -1.260 -1.490 -0.695 -0.02 0.66 -0.75 0.04
1 7.45 745 0.168 -7.853 1.757 32.623 88.440 25.086 -434.867 29.980 -2969.865 -0.352 -1.852 -0.409 -0.02 0.66 -0.75 0.04
1 7.46 746 -1.068 -7.394 1.269 30.151 88.654 16.174 -509.968 0.000 -3119.917 0.826 -2.304 0.127 -0.01 0.65 -0.76 0.03
1 7.47 747 -2.983 -6.891 0.445 18.646 62.927 -2.136 -389.896 104.932 -2969.865 2.669 -2.792 1.030 -0 0.65 -0.76 0.03
1 7.48 748 -4.185 -6.852 0.292 6.958 35.523 -15.930 -344.925 -44.971 -3029.976 3.868 -2.827 1.206 0 0.65 -0.76 0.02
1 7.49 749 -4.994 -7.231 0.239 -6.653 5.127 -23.010 -344.925 -44.971 -3029.976 4.699 -2.449 1.264 0 0.65 -0.76 0.02
1 7.50 750 -5.349 -7.671 0.374 -20.722 -21.484 -20.630 -194.873 -14.990 -3029.976 5.090 -2.011 1.116 -0 0.65 -0.76 0.02
1 7.51 751 -5.248 -8.437 0.723 -28.778 -42.084 -8.911 -389.896 29.980 -3014.986 4.985 -1.251 0.729 -0 0.65 -0.76 0.02
1 7.52 752 -4.391 -9.635 1.370 -24.048 -56.305 16.785 -389.896 29.980 -3014.986 4.107 -0.060 0.037 -0 0.65 -0.76 0.03
1 7.53 753 -3.223 -10.008 1.968 -13.367 -55.573 34.882 -164.893 -44.971 -3029.976 2.899 0.310 -0.598 -0 0.66 -0.75 0.03
1 7.54 754 -2.385 -10.238 2.169 -3.510 -50.049 47.333 -179.883 104.932 -2969.865 2.001 0.539 -0.817 -0.01 0.66 -0.75 0.04
1 7.55 755 -1.513 -10.142 2.026 7.904 -43.427 54.077 -284.964 0.000 -2969.865 0.977 0.453 -0.658 -0.01 0.66 -0.75 0.05
1 7.56 756 -1.226 -9.745 1.686 13.886 -40.772 48.920 -284.964 0.000 -2969.865 0.613 0.064 -0.293 -0 0.65 -0.75 0.05
1 7.57 757 -0.972 -9.175 1.197 19.196 -41.687 37.018 -524.958 119.922 -2849.943 0.296 -0.498 0.226 -0 0.65 -0.75 0.06
1 7.58 758 -0.828 -8.461 0.723 22.675 -47.302 20.752 -329.935 104.932 -2894.914 0.112 -1.203 0.736 -0.01 0.65 -0.76 0.06
1 7.59 759 -0.575 -7.992 0.498 20.844 -52.551 -2.502 -329.935 104.932 -2894.914 -0.154 -1.665 1.000 -0.01 0.65 -0.76 0.07
1 7.60 760 -0.378 -7.906 0.546 16.968 -50.476 -11.780 -119.922 14.990 -3134.908 -0.338 -1.746 0.991 -0.01 0.65 -0.76 0.07
1 7.61 761 -0.120 -8.054 0.632 11.383 -44.586 -15.564 -344.925 -14.990 -3059.957 -0.568 -1.594 0.938 -0.01 0.65 -0.76 0.07
1 7.62 762 -0.115 -8.409 1.010 2.441 -28.351 -15.228 -419.876 -14.990 -3239.989 -0.505 -1.238 0.600 -0.02 0.65 -0.76 0.07
1 7.63 763 -0.244 -8.490 1.437 0.641 -16.541 -14.343 -419.876 -14.990 -3239.989 -0.346 -1.158 0.180 -0.02 0.65 -0.76 0.07
1 7.64 764 -0.713 -8.327 1.561 1.465 -7.416 -14.160 -359.916 -104.932 -3119.917 0.149 -1.321 0.059 -0.02 0.65 -0.76 0.07
1 7.65 765 -1.144 -8.495 1.441 5.157 -4.089 -13.458 -329.935 -104.932 -3119.917 0.603 -1.154 0.184 -0.02 0.65 -0.76 0.07
1 7.66 766 -1.346 -8.552 1.111 12.085 -9.766 -8.057 -329.935 -104.932 -3119.917 0.825 -1.096 0.526 -0.03 0.64 -0.76 0.07
1 7.67 767 -1.403 -9.189 0.522 16.937 -16.266 -4.120 -329.935 -29.980 -3119.917 0.900 -0.457 1.133 -0.03 0.64 -0.76 0.07
1 7.68 768 -1.389 -9.467 0.187 15.839 -20.447 0.366 -599.909 -44.971 -3134.908 0.891 -0.176 1.489 -0.03 0.64 -0.76 0.07
1 7.69 769 -1.700 -9.855 0.062 -4.730 -26.703 6.928 -659.870 104.932 -3119.917 1.198 0.216 1.635 -0.03 0.64 -0.76 0.07
1 7.70 770 -1.628 -10.487 0.230 -20.599 -33.020 13.641 -659.870 104.932 -3119.917 1.114 0.845 1.445 -0.03 0.64 -0.76 0.08
1 7.71 771 -1.461 -11.124 0.757 -29.480 -35.187 24.628 -659.870 0.000 -3149.898 0.924 1.476 0.876 -0.03 0.64 -0.76 0.08
1 7.72 772 -0.661 -11.641 1.499 -31.311 -27.222 38.300 -584.919 29.980 -3149.898 0.092 1.988 0.093 -0.03 0.65 -0.76 0.08
1 7.73 773 -0.014 -11.459 1.777 -26.276 -12.329 45.227 -584.919 29.980 -3149.898 -0.608 1.802 -0.227 -0.03 0.65 -0.76 0.09
1 7.74 774 0.172 -10.592 0.910 -7.599 1.587 32.105 -599.909 -119.922 -2954.875 -0.857 0.935 0.607 -0.03 0.65 -0.75 0.09
1 7.75 775 -0.086 -10.008 0.273 5.188 -2.991 10.895 -614.899 179.883 -3044.966 -0.651 0.352 1.229 -0.03 0.65 -0.75 0.09
1 7.76 776 -0.713 -9.376 -0.575 17.242 -20.325 -24.933 -659.870 -29.980 -2939.885 -0.021 -0.279 2.084 -0.03 0.65 -0.75 0.09
1 7.77 777 -0.809 -9.414 -0.694 19.806 -34.454 -42.877 -659.870 -29.980 -2939.885 0.127 -0.242 2.220 -0.03 0.65 -0.75 0.09
1 7.78 778 0.005 -10.722 0.795 7.507 -47.882 -38.941 -584.919 -29.980 -3119.917 -0.614 1.063 0.749 -0.04 0.65 -0.76 0.09
1 7.79 779 0.426 -11.780 1.777 -28.381 -63.812 -5.920 -434.867 -74.951 -3119.917 -0.973 2.117 -0.234 -0.04 0.65 -0.76 0.09
1 7.80 780 0.670 -10.075 4.769 -56.946 -30.274 4.822 -434.867 -74.951 -3119.917 -1.199 0.404 -3.277 -0.05 0.65 -0.75 0.09
1 7.81 781 2.351 -12.402 0.804 -51.941 -34.058 51.422 -524.958 -14.990 -2984.855 -2.888 2.719 0.606 -0.05 0.65 -0.75 0.1
1 7.82 782 2.322 -12.929 1.547 -49.439 3.754 46.936 -629.890 14.990 -2954.875 -2.917 3.239 -0.210 -0.05 0.66 -0.75 0.1
1 7.83 783 1.221 -13.485 2.533 -46.448 68.421 25.787 -629.890 14.990 -2954.875 -1.888 3.789 -1.269 -0.04 0.66 -0.74 0.1
1 7.84 784 -2.231 -12.953 2.279 -49.744 85.541 8.881 -614.899 0.000 -3014.986 1.471 3.246 -1.173 -0.04 0.67 -0.74 0.1
1 7.85 785 -3.759 -11.842 1.614 -23.773 67.993 -8.820 -599.909 14.990 -2729.872 2.979 2.128 -0.582 -0.03 0.67 -0.74 0.09
1 7.86 786 -4.587 -10.865 1.456 7.874 40.772 -31.494 -584.919 299.955 -2864.934 3.822 1.147 -0.453 -0.03 0.67 -0.74 0.09
1 7.87 787 -4.870 -10.468 1.513 20.142 6.622 -43.030 -584.919 299.955 -2864.934 4.154 0.747 -0.494 -0.03 0.67 -0.74 0.09
1 7.88 788 -4.439 -9.922 2.193 9.583 -46.356 -36.286 -584.919 149.902 -2894.914 3.789 0.200 -1.144 -0.03 0.67 -0.74 0.08
1 7.89 789 -3.251 -9.443 2.696 5.615 -77.881 -23.316 -494.978 119.922 -2774.992 2.666 -0.281 -1.624 -0.03 0.67 -0.74 0.08
1 7.90 790 -1.235 -9.247 3.036 -6.744 -95.764 -3.052 -494.978 119.922 -2774.992 0.703 -0.478 -1.947 -0.04 0.67 -0.74 0.09
1 7.91 791 2.174 -10.219 3.788 -32.959 -73.212 31.860 -584.919 74.951 -2789.982 -2.699 0.495 -2.687 -0.05 0.66 -0.74 0.1
1 7.92 792 3.314 -10.669 4.405 -32.257 -29.755 51.331 -659.870 149.902 -2789.982 -3.876 0.943 -3.339 -0.05 0.67 -0.74 0.1
1 7.93 793 2.998 -10.904 4.769 -19.379 19.440 60.669 -764.952 104.932 -2894.914 -3.637 1.178 -3.744 -0.05 0.67 -0.74 0.1
1 7.94 794 1.561 -10.961 4.089 -4.089 54.962 59.632 -764.952 104.932 -2894.914 -2.295 1.240 -3.089 -0.05 0.67 -0.73 0.11
1 7.95 795 -0.330 -10.837 3.026 10.681 61.463 46.265 -764.952 149.902 -2714.881 -0.497 1.122 -2.032 -0.04 0.67 -0.73 0.11
1 7.96 796 -2.413 -10.525 1.868 30.518 22.827 7.629 -569.929 164.893 -2879.924 1.518 0.819 -0.858 -0.03 0.67 -0.73 0.11
1 7.97 797 -2.873 -9.951 1.480 40.985 -17.700 -15.289 -569.929 164.893 -2879.924 1.952 0.250 -0.432 -0.03 0.67 -0.74 0.11
1 7.98 798 -2.471 -9.122 1.470 46.478 -52.857 -27.405 -509.968 149.902 -2789.982 1.561 -0.572 -0.361 -0.03 0.67 -0.74 0.11
1 7.99 799 -1.164 -8.102 1.461 37.048 -77.118 -24.750 -524.958 44.971 -2804.973 0.331 -1.580 -0.195 -0.04 0.66 -0.74 0.11
1 8.00 800 -0.105 -7.561 1.408 20.874 -72.388 -13.855 -569.929 164.893 -2879.924 -0.677 -2.117 -0.082 -0.04 0.66 -0.75 0.11
1 8.01 801 1.135 -7.106 1.398 1.801 -58.685 0.061 -569.929 164.893 -2879.924 -1.886 -2.570 -0.038 -0.05 0.65 -0.75 0.11
1 8.02 802 1.987 -7.145 1.417 -16.998 -39.337 11.627 -614.899 74.951 -2819.963 -2.731 -2.532 -0.054 -0.05 0.65 -0.75 0.12
1 8.03 803 2.686 -8.150 1.504 -32.257 -7.568 22.797 -734.971 29.980 -2819.963 -3.442 -1.529 -0.166 -0.05 0.65 -0.74 0.12
1 8.04 804 2.782 -8.466 2.040 -24.201 7.629 20.844 -734.971 29.980 -2819.963 -3.566 -1.216 -0.746 -0.05 0.66 -0.74 0.12
1 8.05 805 2.361 -8.782 2.385 -17.059 20.081 12.543 -839.903 149.902 -2759.852 -3.164 -0.903 -1.126 -0.05 0.66 -0.74 0.12
1 8.06 806 1.556 -9.089 2.404 -3.632 22.217 -0.763 -704.991 44.971 -2879.924 -2.347 -0.602 -1.173 -0.05 0.66 -0.74 0.12
1 8.07 807 1.164 -9.103 2.126 5.249 18.158 -10.986 -629.890 44.971 -2774.992 -1.934 -0.588 -0.890 -0.05 0.66 -0.74 0.12
1 8.08 808 1.020 -9.108 1.834 11.963 15.747 -19.379 -629.890 44.971 -2774.992 -1.758 -0.583 -0.580 -0.05 0.66 -0.74 0.12
1 8.09 809 1.001 -9.003 1.532 18.066 15.533 -23.865 -584.919 104.932 -2639.930 -1.696 -0.689 -0.252 -0.05 0.66 -0.74 0.11
1 8.10 810 1.178 -8.605 1.259 21.607 22.034 -25.879 -614.899 -74.951 -2819.963 -1.828 -1.085 0.052 -0.05 0.66 -0.74 0.11
1 8.11 811 1.130 -8.586 1.097 16.754 27.802 -24.567 -614.899 -74.951 -2819.963 -1.732 -1.103 0.248 -0.05 0.65 -0.75 0.11
1 8.12 812 0.828 -8.629 0.872 9.857 32.013 -21.088 -659.870 104.932 -2684.901 -1.398 -1.058 0.499 -0.05 0.65 -0.75 0.1
1 8.13 813 0.263 -8.955 1.130 1.709 33.264 -13.886 -704.991 -14.990 -2594.959 -0.781 -0.732 0.263 -0.05 0.65 -0.75 0.1
1 8.14 814 -0.024 -9.113 1.183 1.282 30.365 -7.904 -704.991 164.893 -2774.992 -0.475 -0.575 0.210 -0.05 0.65 -0.75 0.1
1 8.15 815 -0.239 -9.252 1.513 4.425 26.428 -2.563 -704.991 164.893 -2774.992 -0.251 -0.436 -0.119 -0.05 0.65 -0.75 0.09
1 8.16 816 -0.316 -9.319 1.470 9.674 21.820 2.380 -614.899 0.000 -2789.982 -0.174 -0.368 -0.067 -0.05 0.65 -0.75 0.09
1 8.17 817 -0.326 -9.429 1.547 18.097 16.998 6.012 -690.000 -29.980 -2939.885 -0.172 -0.255 -0.126 -0.05 0.65 -0.75 0.09
1 8.18 818 -0.292 -9.060 1.628 31.372 11.505 12.390 -690.000 -29.980 -2939.885 -0.217 -0.618 -0.176 -0.05 0.65 -0.75 0.09
1 8.19 819 -0.321 -8.825 1.518 37.354 8.209 17.334 -674.860 44.971 -2804.973 -0.206 -0.845 -0.021 -0.04 0.65 -0.75 0.09
1 8.20 820 -0.254 -8.739 1.159 40.772 6.256 20.722 -674.860 -44.971 -2729.872 -0.324 -0.910 0.453 -0.04 0.65 -0.76 0.09
1 8.21 821 -0.062 -8.912 0.814 39.856 8.820 19.440 -734.971 -29.980 -2789.982 -0.546 -0.725 0.859 -0.04 0.64 -0.76 0.09
1 8.22 822 0.287 -9.026 0.484 32.959 13.031 17.822 -734.971 -29.980 -2789.982 -0.922 -0.600 1.242 -0.04 0.64 -0.76 0.1
1 8.23 823 0.536 -9.146 0.450 18.250 18.951 14.435 -509.968 -179.883 -2819.963 -1.193 -0.472 1.312 -0.04 0.64 -0.76 0.1
1 8.24 824 0.680 -8.859 0.670 -2.045 25.086 13.214 -599.909 -14.990 -2849.943 -1.353 -0.756 1.102 -0.03 0.64 -0.76 0.1
1 8.25 825 0.613 -9.194 1.322 -30.426 32.044 10.925 -599.909 -14.990 -2849.943 -1.301 -0.423 0.431 -0.03 0.64 -0.76 0.09
1 8.26 826 0.426 -9.663 1.628 -37.842 32.654 8.942 -569.929 -89.941 -2909.904 -1.128 0.039 0.079 -0.03 0.64 -0.76 0.09
1 8.27 827 -0.014 -10.444 1.767 -35.401 28.839 4.456 -569.929 -89.941 -2909.904 -0.699 0.810 -0.117 -0.03 0.64 -0.76 0.09
1 8.28 828 -0.541 -11.947 1.805 -20.477 16.235 0.214 -659.870 -179.883 -2894.914 -0.184 2.298 -0.255 -0.03 0.65 -0.76 0.09
1 8.29 829 -0.642 -12.268 1.772 -5.188 4.883 -0.854 -659.870 -179.883 -2894.914 -0.086 2.615 -0.247 -0.03 0.65 -0.76 0.09
1 8.30 830 -0.326 -11.770 1.504 17.181 -6.348 0.031 -464.997 -179.883 -2969.865 -0.400 2.117 0.023 -0.03 0.65 -0.76 0.09
1 8.31 831 0.086 -11.124 0.939 40.802 -11.414 0.061 -599.909 -119.922 -2909.904 -0.809 1.476 0.624 -0.03 0.65 -0.76 0.09
1 8.32 832 0.383 -9.687 1.499 58.930 -1.831 -2.380 -599.909 -119.922 -2909.904 -1.101 0.051 0.135 -0.03 0.64 -0.76 0.09
1 8.33 833 0.067 -9.491 1.504 37.048 31.647 -18.951 -584.919 -179.883 -2864.934 -0.772 -0.132 0.213 -0.03 0.64 -0.76 0.09
1 8.34 834 -1.135 -9.735 1.868 -9.888 44.830 -39.307 -584.919 -179.883 -2864.934 0.453 0.123 -0.087 -0.03 0.64 -0.76 0.09
1 8.35 835 -3.409 -10.070 2.466 -56.030 9.705 -49.957 -494.978 -209.863 -2909.904 2.825 0.441 -0.740 -0.03 0.64 -0.76 0.08
1 8.36 836 -3.352 -12.187 0.685 -63.050 3.052 -39.826 -494.978 -209.863 -2909.904 2.830 2.540 0.959 -0.03 0.64 -0.76 0.08
1 8.37 837 -2.284 -13.154 1.259 -48.920 -17.456 -11.627 -539.948 -149.902 -2939.885 1.813 3.490 0.296 -0.03 0.65 -0.76 0.07
1 8.38 838 -0.508 -12.388 2.859 -32.593 -28.259 6.470 -569.929 -119.922 -2879.924 0.051 2.713 -1.366 -0.03 0.65 -0.76 0.07
1 8.39 839 0.646 -11.708 3.017 -38.849 -25.787 0.641 -569.929 -119.922 -2879.924 -1.104 2.027 -1.569 -0.04 0.65 -0.75 0.08
1 8.40 840 0.757 -11.473 2.797 -58.106 -40.924 -6.775 -539.948 -224.854 -2819.963 -1.205 1.782 -1.410 -0.04 0.65 -0.75 0.08
1 8.41 841 0.747 -11.483 2.883 -41.840 -40.009 1.251 -539.948 -224.854 -2819.963 -1.176 1.780 -1.578 -0.04 0.66 -0.75 0.08
1 8.42 842 1.762 -11.224 3.970 -17.456 -20.386 17.578 -614.899 -149.902 -2714.881 -2.188 1.508 -2.767 -0.04 0.66 -0.74 0.08
1 8.43 843 2.519 -11.066 4.468 -16.357 -1.801 17.151 -614.899 -149.902 -2714.881 -2.968 1.348 -3.287 -0.04 0.66 -0.74 0.08
1 8.44 844 2.112 -10.430 4.779 -13.092 18.555 -1.648 -764.952 -179.883 -2759.852 -2.581 0.709 -3.622 -0.04 0.66 -0.74 0.09
1 8.45 845 0.383 -10.075 4.420 -3.082 32.623 -35.706 -824.913 -14.990 -2774.992 -0.839 0.353 -3.279 -0.04 0.66 -0.74 0.08
1 8.46 846 -1.528 -10.410 3.414 5.951 27.374 -61.432 -824.913 -14.990 -2774.992 1.131 0.685 -2.274 -0.04 0.66 -0.74 0.08
1 8.47 847 -2.921 -11.181 3.079 19.348 4.974 -65.003 -794.932 29.980 -2759.852 2.617 1.454 -1.928 -0.05 0.66 -0.74 0.08
1 8.48 848 -2.222 -10.789 3.046 28.565 -0.031 -47.058 -794.932 29.980 -2759.852 2.018 1.062 -1.868 -0.05 0.66 -0.74 0.07
1 8.49 849 -1.346 -10.310 2.868 34.180 5.035 -25.604 -690.000 -179.883 -2789.982 1.221 0.587 -1.650 -0.05 0.66 -0.75 0.07
1 8.50 850 -0.297 -9.807 2.624 21.729 25.269 2.197 -690.000 29.980 -2789.982 0.227 0.097 -1.299 -0.05 0.66 -0.75 0.07
1 8.51 851 -0.034 -9.711 2.600 12.329 48.340 20.416 -869.883 -29.980 -2714.881 -0.055 0.007 -1.235 -0.05 0.65 -0.75 0.07
1 8.52 852 -0.096 -9.405 2.567 6.531 67.475 35.217 -854.893 -164.893 -2699.891 -0.038 -0.295 -1.176 -0.05 0.65 -0.75 0.07
1 8.53 853 -0.292 -9.199 2.409 2.594 76.966 42.481 -854.893 -164.893 -2699.891 0.089 -0.497 -1.002 -0.04 0.65 -0.75 0.06
1 8.54 854 -0.747 -8.710 1.982 7.263 71.381 38.208 -749.961 -209.863 -2879.924 0.465 -0.982 -0.564 -0.04 0.65 -0.75 0.06
1 8.55 855 -0.891 -8.390 1.935 14.313 62.714 27.741 -749.961 -209.863 -2879.924 0.534 -1.299 -0.503 -0.03 0.65 -0.75 0.06
1 8.56 856 -1.370 -8.117 1.580 19.470 50.720 13.367 -584.919 -104.932 -2759.852 0.951 -1.566 -0.127 -0.02 0.65 -0.76 0.06
1 8.57 857 -2.313 -7.853 1.360 19.165 30.853 -5.615 -704.991 -89.941 -2879.924 1.846 -1.819 0.147 -0.02 0.65 -0.76 0.06
1 8.58 858 -2.811 -7.681 1.197 14.191 20.050 -11.383 -524.958 -89.941 -2954.875 2.350 -1.987 0.336 -0.02 0.65 -0.76 0.06
1 8.59 859 -3.280 -7.676 1.149 6.928 9.644 -10.864 -389.896 -224.854 -2939.885 2.833 -1.990 0.403 -0.02 0.65 -0.76 0.06
1 8.60 860 -3.524 -8.030 1.068 -1.953 2.747 -5.981 -389.896 -224.854 -2939.885 3.092 -1.635 0.493 -0.02 0.65 -0.76 0.05
1 8.61 861 -3.630 -8.677 1.279 -9.491 -8.759 8.179 -539.948 -29.980 -2939.885 3.192 -0.989 0.277 -0.02 0.65 -0.76 0.05
1 8.62 862 -3.290 -8.983 1.432 -8.881 -15.198 19.165 -539.948 -29.980 -2939.885 2.822 -0.683 0.112 -0.02 0.65 -0.76 0.06
1 8.63 863 -2.619 -8.883 1.724 -5.737 -19.714 27.954 -494.978 -164.893 -2879.924 2.108 -0.783 -0.193 -0.02 0.65 -0.76 0.06
1 8.64 864 -1.403 -8.907 2.021 -5.371 -20.844 30.274 -539.948 -74.951 -2894.914 0.787 -0.754 -0.496 -0.01 0.65 -0.76 0.07
1 8.65 865 -0.704 -8.873 2.097 -6.073 -15.350 25.971 -539.948 -224.854 -2939.885 0.042 -0.785 -0.574 -0.01 0.65 -0.76 0.07
1 8.66 866 -0.393 -8.878 1.939 -2.167 -7.172 18.616 -599.909 -284.964 -2909.904 -0.303 -0.778 -0.416 -0.01 0.65 -0.76 0.07
1 8.67 867 -0.570 -8.653 1.762 3.723 2.380 8.240 -599.909 -284.964 -2909.904 -0.146 -1.001 -0.234 -0.01 0.65 -0.76 0.07
1 8.68 868 -0.891 -8.490 1.642 8.118 8.759 -2.441 -449.857 -284.964 -2909.904 0.168 -1.161 -0.102 -0.01 0.65 -0.76 0.07
1 8.69 869 -1.417 -8.423 1.298 11.902 7.965 -14.496 -449.857 -284.964 -2909.904 0.701 -1.226 0.257 -0.01 0.65 -0.76 0.07
1 8.70 870 -1.652 -8.471 1.140 10.986 2.960 -18.646 -584.919 -329.935 -3119.917 0.955 -1.177 0.433 -0.01 0.65 -0.76 0.07
1 8.71 871 -1.614 -8.643 1.183 8.881 -1.251 -19.409 -569.929 -239.994 -2954.875 0.943 -1.003 0.408 -0.01 0.65 -0.76 0.07
1 8.72 872 -1.441 -8.361 1.034 3.723 -4.822 -17.151 -569.929 -239.994 -2849.943 0.826 -1.285 0.583 -0.02 0.65 -0.76 0.07
1 8.73 873 -1.197 -8.509 1.010 0.641 -4.669 -14.069 -659.870 -329.935 -2864.934 0.608 -1.137 0.613 -0.02 0.65 -0.76 0.07
1 8.74 874 -0.924 -8.447 0.838 -3.021 -3.418 -10.284 -659.870 -329.935 -2864.934 0.358 -1.201 0.787 -0.02 0.65 -0.76 0.07
1 8.75 875 -0.565 -8.754 0.594 -8.942 -2.686 -3.174 -659.870 -299.955 -2819.963 0.013 -0.896 1.027 -0.02 0.65 -0.76 0.07
1 8.76 876 -0.263 -9.343 0.704 -16.602 8.423 5.249 -659.870 -299.955 -2819.963 -0.284 -0.309 0.903 -0.02 0.65 -0.76 0.07
1 8.77 877 -0.369 -9.687 0.752 -17.853 19.074 8.209 -524.958 -239.994 -3029.976 -0.184 0.031 0.828 -0.02 0.65 -0.76 0.07
1 8.78 878 -0.627 -9.759 0.670 -15.991 26.886 6.958 -494.978 -239.994 -2879.924 0.062 0.099 0.877 -0.02 0.65 -0.76 0.07
1 8.79 879 -1.322 -9.726 0.584 -6.409 24.872 1.038 -464.997 -149.902 -2969.865 0.729 0.058 0.909 -0.02 0.65 -0.76 0.06
1 8.80 880 -1.432 -9.630 0.723 -3.387 16.235 -6.744 -659.870 -329.935 -3014.986 0.833 -0.040 0.755 -0.01 0.65 -0.76 0.06
1 8.81 881 -1.437 -9.716 0.718 -1.190 5.737 -16.113 -659.870 -329.935 -3014.986 0.843 0.045 0.749 -0.01 0.65 -0.76 0.06
1 8.82 882 -1.164 -10.099 1.073 0.916 -5.402 -25.055 -569.929 -359.916 -3059.957 0.591 0.426 0.389 -0.01 0.65 -0.76 0.06
1 8.83 883 -0.728 -10.037 1.504 4.089 -11.322 -32.837 -569.929 -359.916 -3059.957 0.193 0.361 -0.042 -0.02 0.65 -0.76 0.06
1 8.84 884 -0.326 -10.286 1.695 12.726 -10.193 -42.389 -509.968 -149.902 -2819.963 -0.156 0.609 -0.225 -0.02 0.65 -0.76 0.06
1 8.85 885 -0.283 -10.219 1.561 20.477 -4.913 -43.610 -419.876 -119.922 -2984.855 -0.134 0.542 -0.071 -0.02 0.65 -0.76 0.06
1 8.86 886 -0.374 -9.802 1.302 26.154 2.686 -43.305 -419.876 -119.922 -2984.855 0.025 0.127 0.218 -0.02 0.65 -0.76 0.06
1 8.87 887 -0.579 -9.381 0.474 26.642 6.653 -41.229 -584.919 -254.984 -2894.914 0.359 -0.286 1.123 -0.03 0.65 -0.76 0.05
1 8.88 888 -0.915 -9.410 0.225 20.538 4.242 -38.727 -584.919 -254.984 -2894.914 0.751 -0.253 1.404 -0.03 0.64 -0.76 0.05
1 8.89 889 -1.149 -9.319 0.263 9.613 -0.122 -37.354 -614.899 -299.955 -2969.865 1.038 -0.341 1.385 -0.03 0.64 -0.76 0.05
1 8.90 890 -0.747 -9.558 1.101 -5.615 -7.416 -31.555 -614.899 -299.955 -2969.865 0.684 -0.102 0.547 -0.03 0.64 -0.76 0.04
1 8.91 891 0.862 -11.081 2.275 -52.918 -27.130 6.653 -599.909 -389.896 -3059.957 -0.886 1.417 -0.647 -0.04 0.64 -0.76 0.04
1 8.92 892 2.097 -11.512 4.310 -96.131 -14.130 37.354 -764.952 -329.935 -3014.986 -2.112 1.837 -2.747 -0.04 0.65 -0.76 0.05
1 8.93 893 3.381 -12.580 4.252 -108.429 14.740 61.981 -764.952 -329.935 -3014.986 -3.435 2.886 -2.815 -0.04 0.65 -0.76 0.05
1 8.94 894 2.595 -13.743 2.950 -46.143 68.512 57.984 -764.952 -254.984 -2864.934 -2.843 4.014 -1.799 -0.03 0.66 -0.75 0.05
1 8.95 895 0.326 -12.762 2.926 0.977 110.688 22.827 -764.952 -254.984 -2864.934 -0.659 3.029 -1.827 -0.02 0.67 -0.74 0.05
1 8.96 896 -2.265 -11.713 1.896 18.707 118.988 -3.571 -764.952 -224.854 -2894.914 1.889 1.983 -0.791 -0.02 0.67 -0.74 0.05
1 8.97 897 -4.310 -10.420 0.800 14.038 98.084 -26.520 -764.952 -224.854 -2894.914 3.929 0.692 0.327 -0.01 0.67 -0.75 0.04
1 8.98 898 -5.076 -9.903 0.464 9.888 49.378 -51.819 -584.919 -329.935 -2864.934 4.728 0.176 0.678 -0.01 0.66 -0.75 0.04
1 8.99 899 -5.200 -9.347 1.226 8.850 16.510 -53.253 -464.997 -179.883 -2819.963 4.917 -0.380 -0.070 -0.01 0.66 -0.75 0.03
1 9.00 900 -4.602 -9.141 2.026 3.784 -8.392 -40.924 -464.997 -179.883 -2819.963 4.396 -0.586 -0.855 -0.01 0.66 -0.75 0.03
1 9.01 901 -3.103 -9.046 2.715 -7.446 -34.912 -7.721 -524.958 -239.994 -2909.904 2.940 -0.681 -1.525 -0.01 0.66 -0.75 0.03
1 9.02 902 -1.456 -9.405 3.194 -17.639 -45.807 23.132 -524.958 -239.994 -2909.904 1.277 -0.321 -2.004 -0.01 0.66 -0.75 0.03
1 9.03 903 0.627 -10.525 3.615 -39.398 -45.044 57.862 -524.958 -209.863 -2954.875 -0.856 0.799 -2.441 -0.01 0.66 -0.75 0.03
1 9.04 904 2.892 -11.531 4.429 -57.770 -26.093 85.297 -524.958 -209.863 -2954.875 -3.211 1.800 -3.311 -0.01 0.67 -0.75 0.04
1 9.05 905 4.367 -12.086 5.124 -47.058 9.430 95.551 -584.919 -179.883 -2789.982 -4.815 2.352 -4.088 -0.01 0.67 -0.74 0.05
1 9.06 906 3.615 -12.225 4.425 7.935 69.367 79.438 -329.935 -224.854 -2864.934 -4.206 2.492 -3.447 -0.01 0.67 -0.74 0.05
1 9.07 907 1.887 -11.215 3.342 32.166 81.055 56.244 -329.935 -224.854 -2864.934 -2.610 1.490 -2.371 0 0.67 -0.74 0.05
1 9.08 908 -0.239 -9.802 2.093 39.551 50.842 4.364 -449.857 -164.893 -2909.904 -0.644 0.099 -1.040 0.02 0.67 -0.74 0.05
1 9.09 909 -0.407 -9.692 1.767 42.236 22.095 -21.790 -449.857 -164.893 -2909.904 -0.471 -0.004 -0.651 0.02 0.67 -0.74 0.05
1 9.10 910 0.014 -9.237 1.580 47.241 6.042 -34.821 -359.916 -224.854 -2894.914 -0.852 -0.455 -0.396 0.02 0.66 -0.75 0.05
1 9.11 911 0.857 -8.337 1.657 48.798 6.104 -37.415 -359.916 -224.854 -2894.914 -1.636 -1.351 -0.398 0.01 0.66 -0.75 0.04
1 9.12 912 1.499 -7.485 1.566 39.002 17.914 -32.593 -359.916 -254.984 -2894.914 -2.219 -2.198 -0.234 0.01 0.66 -0.75 0.04
1 9.13 913 2.241 -7.173 1.623 8.057 45.044 -20.569 -359.916 -224.854 -2894.914 -2.918 -2.505 -0.242 0.01 0.66 -0.75 0.04
1 9.14 914 2.624 -7.480 1.710 -18.616 74.311 -6.195 -359.916 -224.854 -2894.914 -3.273 -2.198 -0.312 0.01 0.65 -0.76 0.03
1 9.15 915 2.380 -8.399 1.810 -43.518 98.267 1.495 -254.984 -374.906 -3014.986 -3.027 -1.282 -0.435 0.02 0.66 -0.75 0.03
1 9.16 916 1.710 -10.195 2.442 -44.708 112.366 -3.632 -344.925 -239.994 -2984.855 -2.375 0.496 -1.207 0.03 0.66 -0.75 0.02
1 9.17 917 1.341 -11.109 2.849 -26.672 109.711 -13.702 -269.974 -209.863 -2984.855 -1.998 1.402 -1.677 0.03 0.66 -0.75 0.01
1 9.18 918 0.924 -11.344 2.811 -5.676 102.845 -22.766 -269.974 -209.863 -2984.855 -1.575 1.631 -1.680 0.04 0.66 -0.75 0.01
1 9.19 919 0.900 -11.224 2.658 14.526 95.063 -29.327 -119.922 -239.994 -2849.943 -1.530 1.509 -1.536 0.04 0.66 -0.75 0
1 9.20 920 0.651 -10.401 2.045 37.689 88.715 -31.738 -89.941 -89.941 -2849.943 -1.252 0.686 -0.902 -0.04 -0.66 0.75 0
1 9.21 921 0.900 -9.826 1.753 47.211 86.487 -31.006 -89.941 -89.941 -2849.943 -1.468 0.115 -0.565 -0.05 -0.66 0.75 0.01
1 9.22 922 1.240 -9.141 1.393 48.462 89.997 -27.954 -59.961 -224.854 -2864.934 -1.766 -0.564 -0.139 -0.05 -0.66 0.75 0.02
1 9.23 923 1.571 -8.394 0.934 39.826 103.852 -21.515 0.000 -224.854 -2894.914 -2.027 -1.296 0.453 -0.06 -0.65 0.75 0.03
1 9.24 924 1.470 -8.222 0.881 27.405 115.906 -15.045 59.961 -329.935 -3014.986 -1.911 -1.462 0.554 -0.06 -0.65 0.76 0.04
1 9.25 925 1.159 -8.184 0.781 12.238 126.892 -8.209 59.961 -329.935 -3014.986 -1.605 -1.496 0.684 -0.07 -0.65 0.76 0.04
1 9.26 926 0.742 -8.562 1.101 -0.214 131.989 -2.655 -14.990 -209.863 -3029.976 -1.206 -1.116 0.369 -0.07 -0.65 0.76 0.05
1 9.27 927 0.536 -9.199 1.456 -6.897 132.233 -1.862 134.912 -419.876 -2939.885 -1.025 -0.480 0.003 -0.08 -0.65 0.76 0.06
1 9.28 928 0.101 -9.936 2.054 -1.953 125.397 -6.744 134.912 -419.876 -2939.885 -0.605 0.256 -0.615 -0.09 -0.65 0.75 0.06
1 9.29 929 0.024 -10.190 2.303 10.101 118.775 -8.972 179.883 -224.854 -2864.934 -0.542 0.509 -0.876 -0.09 -0.65 0.75 0.07
1 9.30 930 -0.024 -10.056 2.289 23.010 112.702 -11.841 359.916 -329.935 -2894.914 -0.503 0.376 -0.854 -0.1 -0.65 0.75 0.07
1 9.31 931 0.374 -9.534 1.973 36.438 106.354 -13.397 329.935 -524.958 -2939.885 -0.903 -0.135 -0.467 -0.11 -0.64 0.75 0.09
1 9.32 932 0.771 -9.797 1.537 36.957 104.157 -10.803 329.935 -524.958 -2939.885 -1.299 0.137 0.021 -0.11 -0.64 0.76 0.09
1 9.33 933 1.585 -9.721 1.470 31.403 107.666 -8.362 494.978 -359.916 -2804.973 -2.113 0.068 0.135 -0.12 -0.64 0.76 0.1
1 9.34 934 2.011 -9.333 1.868 29.755 118.256 -8.057 389.896 -524.958 -2819.963 -2.539 -0.314 -0.226 -0.12 -0.63 0.76 0.11
1 9.35 935 2.447 -8.514 1.791 31.555 138.398 -7.629 389.896 -524.958 -2819.963 -2.974 -1.127 -0.112 -0.13 -0.63 0.76 0.11
1 9.36 936 2.389 -8.682 1.355 24.078 149.628 -10.407 629.890 -464.997 -2879.924 -2.919 -0.952 0.363 -0.13 -0.63 0.76 0.12
1 9.37 937 1.959 -8.782 1.336 15.686 160.584 -18.341 674.860 -509.968 -2909.904 -2.490 -0.846 0.412 -0.14 -0.63 0.76 0.13
1 9.38 938 1.331 -9.481 1.398 10.986 172.333 -24.231 659.870 -494.978 -2684.901 -1.852 -0.144 0.368 -0.16 -0.62 0.75 0.15
1 9.39 939 0.828 -9.802 1.350 4.425 172.394 -25.299 659.870 -494.978 -2684.901 -1.343 0.176 0.415 -0.16 -0.62 0.75 0.16
1 9.40 940 0.244 -10.195 1.513 1.648 166.260 -27.374 854.893 -464.997 -2849.943 -0.755 0.567 0.242 -0.17 -0.62 0.75 0.17
1 9.41 941 0.043 -10.616 1.652 1.648 155.365 -25.879 974.965 -659.870 -2849.943 -0.549 0.986 0.091 -0.18 -0.62 0.75 0.17
1 9.42 942 0.321 -10.774 1.547 10.254 145.600 -19.348 974.965 -659.870 -2849.943 -0.826 1.142 0.187 -0.19 -0.61 0.75 0.18
1 9.43 943 0.800 -10.353 1.590 21.057 143.006 -15.961 974.965 -509.968 -2729.872 -1.312 0.721 0.146 -0.19 -0.61 0.74 0.19
1 9.44 944 1.192 -9.975 1.575 23.316 148.438 -15.045 1139.857 -569.929 -2714.881 -1.713 0.346 0.176 -0.2 -0.61 0.74 0.2
1 9.45 945 0.718 -9.295 1.575 15.656 167.695 -26.245 1199.968 -329.935 -2609.950 -1.244 -0.326 0.213 -0.21 -0.6 0.74 0.21
1 9.46 946 -0.110 -9.649 1.279 14.801 177.704 -32.044 1199.968 -329.935 -2609.950 -0.410 0.029 0.519 -0.22 -0.6 0.74 0.22
1 9.47 947 -1.106 -10.113 1.044 6.226 181.885 -35.156 1304.900 -389.896 -2669.911 0.590 0.494 0.757 -0.23 -0.6 0.73 0.23
1 9.48 948 -2.064 -10.702 1.183 0.885 180.848 -39.734 1139.857 -419.876 -2684.901 1.550 1.081 0.606 -0.23 -0.59 0.73 0.24
1 9.49 949 -2.615 -11.315 1.551 2.014 175.416 -37.537 1139.857 -419.876 -2684.901 2.108 1.691 0.223 -0.24 -0.59 0.73 0.25
1 9.50 950 -2.873 -12.053 1.853 4.730 163.697 -28.229 1259.929 -509.968 -2474.888 2.374 2.426 -0.086 -0.25 -0.59 0.72 0.26
1 9.51 951 -2.768 -12.484 2.136 9.644 157.807 -23.895 1409.981 -434.867 -2339.976 2.269 2.856 -0.374 -0.26 -0.59 0.72 0.27
1 9.52 952 -2.538 -12.560 2.820 23.773 154.664 -22.186 1499.923 -299.955 -2384.946 2.026 2.936 -1.045 -0.27 -0.58 0.71 0.29
1 9.53 953 -2.749 -12.374 2.983 34.912 153.382 -25.269 1499.923 -299.955 -2384.946 2.230 2.755 -1.179 -0.28 -0.58 0.71 0.29
1 9.54 954 -2.888 -11.598 2.552 44.861 147.278 -24.536 1709.936 -464.997 -2219.904 2.365 1.988 -0.704 -0.28 -0.57 0.71 0.3
1 9.55 955 -2.916 -10.841 2.313 49.378 136.963 -20.783 1649.975 -374.906 -2354.966 2.388 1.243 -0.405 -0.29 -0.57 0.71 0.31
1 9.56 956 -2.490 -10.123 1.935 47.424 129.914 -20.996 1649.975 -374.906 -2354.966 1.954 0.538 0.035 -0.29 -0.56 0.71 0.32
1 9.57 957 -2.112 -9.347 1.542 46.021 128.266 -23.254 1769.897 -509.968 -2189.923 1.562 -0.225 0.487 -0.3 -0.56 0.71 0.32
1 9.58 958 -2.169 -9.165 1.111 42.511 129.578 -21.271 1889.969 -434.867 -2114.972 1.602 -0.393 0.974 -0.3 -0.55 0.7 0.33
1 9.59 959 -2.581 -9.084 0.781 36.194 132.264 -17.700 1889.969 -434.867 -2114.972 1.993 -0.463 1.354 -0.31 -0.55 0.7 0.34
1 9.60 960 -2.801 -8.974 0.642 26.917 131.195 -8.240 1844.848 -464.997 -2189.923 2.147 -0.554 1.555 -0.32 -0.54 0.7 0.35
1 9.61 961 -2.571 -8.945 0.680 23.773 129.425 -1.282 1874.979 -449.857 -1994.900 1.867 -0.576 1.532 -0.32 -0.53 0.7 0.36
1 9.62 962 -2.313 -8.955 0.699 23.285 127.442 2.106 1874.979 -419.876 -2069.852 1.551 -0.559 1.524 -0.33 -0.53 0.7 0.36
1 9.63 963 -1.944 -8.883 0.651 22.919 128.022 2.197 1874.979 -419.876 -2069.852 1.123 -0.624 1.581 -0.33 -0.52 0.69 0.36
1 9.64 964 -1.461 -8.758 0.685 21.942 131.989 -1.190 1904.959 -599.909 -1919.949 0.585 -0.742 1.555 -0.34 -0.52 0.69 0.37
1 9.65 965 -1.465 -8.639 0.690 20.722 135.773 -4.761 1994.900 -434.867 -1859.988 0.540 -0.856 1.556 -0.35 -0.51 0.69 0.37
1 9.66 966 -1.245 -8.844 0.594 17.792 139.130 -7.141 1994.900 -434.867 -1859.988 0.277 -0.644 1.659 -0.35 -0.51 0.69 0.38
1 9.67 967 -1.183 -8.931 0.623 16.541 143.647 -9.766 2069.852 -659.870 -1829.858 0.137 -0.550 1.626 -0.37 -0.5 0.68 0.39
1 9.68 968 -0.915 -8.605 0.623 18.372 148.377 -13.733 2144.953 -464.997 -1724.926 -0.166 -0.874 1.617 -0.37 -0.5 0.68 0.4
1 9.69 969 -0.704 -8.270 0.350 20.538 153.168 -24.445 2114.972 -509.968 -1649.975 -0.404 -1.205 1.894 -0.38 -0.49 0.67 0.4
1 9.70 970 -0.536 -8.126 0.182 21.698 158.326 -36.011 2114.972 -509.968 -1649.975 -0.584 -1.346 2.067 -0.38 -0.49 0.67 0.41
1 9.71 971 -0.809 -7.882 0.034 20.233 160.584 -48.767 2159.943 -524.958 -1619.995 -0.308 -1.589 2.221 -0.39 -0.48 0.66 0.42
1 9.72 972 -1.154 -8.227 -0.316 9.277 161.896 -66.132 2129.962 -419.876 -1514.913 0.058 -1.247 2.572 -0.39 -0.48 0.66 0.43
1 9.73 973 -1.753 -8.955 -0.283 1.160 163.331 -72.174 2129.962 -419.876 -1514.913 0.695 -0.525 2.530 -0.4 -0.48 0.65 0.43
1 9.74 974 -2.150 -9.568 -0.081 -1.648 165.925 -72.296 2294.855 -389.896 -1319.890 1.141 0.078 2.309 -0.4 -0.47 0.65 0.44
1 9.75 975 -2.639 -10.372 0.316 0.610 165.406 -65.399 2444.907 -509.968 -1274.919 1.709 0.855 1.829 -0.42 -0.47 0.63 0.46
1 9.76 976 -2.878 -10.449 0.182 4.822 161.774 -57.831 2294.855 -629.890 -1169.988 1.977 0.921 1.928 -0.42 -0.46 0.62 0.47
1 9.77 977 -2.806 -10.358 0.584 10.040 156.830 -50.659 2294.855 -629.890 -1169.988 1.929 0.824 1.507 -0.43 -0.46 0.62 0.47
1 9.78 978 -2.729 -9.927 0.757 16.541 153.992 -47.150 2249.884 -239.994 -989.955 1.869 0.389 1.326 -0.43 -0.46 0.61 0.48
1 9.79 979 -2.351 -9.682 0.508 19.013 151.581 -44.983 2249.884 -209.863 -989.955 1.497 0.144 1.570 -0.44 -0.45 0.61 0.49
1 9.80 980 -2.480 -9.524 0.172 17.670 151.520 -43.762 2249.884 -209.863 -989.955 1.632 -0.015 1.904 -0.44 -0.45 0.6 0.5
1 9.81 981 -3.002 -9.472 -0.105 15.106 150.544 -42.023 2279.865 -224.854 -974.965 2.160 -0.069 2.178 -0.45 -0.44 0.59 0.5
1 9.82 982 -3.342 -9.544 -0.230 2.563 146.759 -36.926 2369.956 -314.945 -734.971 2.498 -0.003 2.274 -0.46 -0.43 0.58 0.52
1 9.83 983 -3.328 -9.802 0.034 -5.280 143.036 -30.548 2279.865 -254.984 -719.981 2.473 0.249 1.977 -0.46 -0.43 0.58 0.52
1 9.84 984 -3.261 -10.281 0.182 -11.475 136.994 -23.499 2279.865 -254.984 -719.981 2.387 0.721 1.786 -0.47 -0.42 0.57 0.52
1 9.85 985 -2.978 -10.731 0.493 -10.315 134.217 -17.761 2144.953 -164.893 -584.919 2.079 1.163 1.427 -0.47 -0.42 0.56 0.53
1 9.86 986 -2.926 -10.497 1.020 1.770 133.667 -16.235 2129.962 -149.902 -569.929 2.014 0.924 0.870 -0.48 -0.42 0.56 0.53
1 9.87 987 -3.165 -10.037 1.326 9.186 131.257 -19.135 2129.962 -149.902 -569.929 2.240 0.462 0.544 -0.48 -0.41 0.55 0.54
1 9.88 988 -3.194 -9.659 1.408 12.116 127.839 -26.276 2144.953 -119.922 -449.857 2.259 0.083 0.457 -0.49 -0.41 0.55 0.54
1 9.89 989 -3.702 -9.692 0.905 12.116 118.836 -38.452 2204.914 -149.902 -239.994 2.746 0.117 0.953 -0.5 -0.4 0.54 0.55
1 9.90 990 -3.826 -9.836 0.723 9.491 114.685 -45.044 2159.943 -149.902 -284.964 2.877 0.259 1.129 -0.5 -0.39 0.53 0.56
1 9.91 991 -4.247 -9.922 0.555 9.033 109.833 -46.600 2159.943 -149.902 -284.964 3.314 0.342 1.287 -0.5 -0.39 0.53 0.56
1 9.92 992 -4.501 -9.841 0.541 9.247 100.891 -40.711 2249.884 -164.893 -194.873 3.606 0.257 1.301 -0.51 -0.39 0.52 0.57
1 9.93 993 -4.310 -9.879 0.421 6.195 92.438 -31.860 1979.910 -149.902 -59.961 3.431 0.293 1.417 -0.51 -0.38 0.52 0.57
1 9.94 994 -3.639 -10.166 0.785 2.014 84.626 -18.921 1979.910 -149.902 -59.961 2.766 0.578 1.044 -0.51 -0.38 0.51 0.57
1 9.95 995 -3.338 -10.295 1.034 5.646 82.978 -11.322 2084.992 -74.951 0.000 2.462 0.706 0.784 -0.51 -0.38 0.51 0.58
1 9.96 996 -2.720 -10.267 1.288 11.414 85.633 -2.716 1994.900 -164.893 -89.941 1.810 0.679 0.523 -0.52 -0.37 0.5 0.58
1 9.97 997 -2.729 -9.903 1.269 12.970 87.738 -0.885 1889.969 -44.971 14.990 1.786 0.318 0.544 -0.52 -0.37 0.5 0.58
1 9.98 998 -2.562 -9.596 1.307 15.869 89.234 -0.061 1889.969 -44.971 14.990 1.583 0.016 0.510 -0.53 -0.36 0.5 0.59
1 9.99 999 -2.461 -9.031 1.106 18.860 90.027 -2.289 2084.992 29.980 104.932 1.447 -0.544 0.719 -0.53 -0.36 0.5 0.59
1 10.00 1000 -2.361 -8.634 0.967 19.379 90.668 -12.482 2069.852 -14.990 14.990 1.317 -0.936 0.869 -0.53 -0.35 0.49 0.59
1 10.01 1001 -2.370 -8.241 0.584 17.578 88.227 -20.599 2069.852 -14.990 14.990 1.307 -1.325 1.261 -0.53 -0.35 0.49 0.59
1 10.02 1002 -2.667 -8.165 0.469 13.825 82.398 -29.572 1994.900 89.941 119.922 1.602 -1.399 1.387 -0.53 -0.35 0.49 0.6
