COL1	TIME	ACC_X	ACC_Y	ACC_Z	GYR_X	GYR_Y	GYR_Z	MAG_X	MAG_Y	MAG_Z	LACC_X	LACC_Y	LACC_Z	QUAT_X	QUAT_Y	QUAT_Z	QUAT_W
1 0.00 0 1.733 -9.295 2.820 -2.258 1.312 -1.038 -1319.890 -869.883 -3704.986 0.041 0.082 0.011 -0.15 0.58 -0.8 0.06
1 0.01 1 1.729 -9.328 2.931 -1.892 1.251 -0.580 -1154.998 -779.942 -3674.856 0.048 0.115 -0.101 -0.15 0.58 -0.8 0.06
1 0.02 2 1.801 -9.295 2.959 -2.106 0.977 0.305 -1154.998 -779.942 -3674.856 -0.023 0.082 -0.130 -0.15 0.58 -0.8 0.06
1 0.03 3 1.815 -9.381 2.868 -2.136 0.977 0.336 -1259.929 -704.991 -3719.977 -0.037 0.168 -0.040 -0.15 0.58 -0.8 0.06
1 0.04 4 1.705 -9.357 2.945 -1.678 1.160 0.824 -1154.998 -704.991 -3569.924 0.072 0.143 -0.118 -0.15 0.58 -0.8 0.06
1 0.05 5 1.801 -9.424 3.007 -1.129 1.740 1.434 -1154.998 -704.991 -3569.924 -0.025 0.210 -0.180 -0.15 0.58 -0.8 0.06
1 0.06 6 1.738 -9.362 2.873 -0.397 2.136 1.068 -1094.887 -674.860 -3764.947 0.036 0.148 -0.045 -0.15 0.58 -0.8 0.06
1 0.07 7 1.820 -9.223 2.916 -0.397 2.014 0.549 -1094.887 -839.903 -3629.885 -0.047 0.009 -0.087 -0.15 0.58 -0.8 0.06
1 0.08 8 1.757 -9.338 2.931 -0.702 2.228 0.488 -1139.857 -719.981 -3704.986 0.014 0.124 -0.099 -0.15 0.58 -0.8 0.06
1 0.09 9 1.757 -9.352 2.859 -0.610 1.984 1.099 -1139.857 -719.981 -3704.986 0.012 0.139 -0.025 -0.15 0.58 -0.8 0.06
1 0.10 10 1.753 -9.309 2.883 -0.793 2.197 0.488 -1199.968 -674.860 -3554.934 0.016 0.096 -0.048 -0.15 0.58 -0.8 0.06
1 0.11 11 1.628 -9.261 2.868 -1.312 1.892 0.153 -1034.926 -539.948 -3539.944 0.140 0.049 -0.032 -0.15 0.58 -0.8 0.05
1 0.12 12 1.729 -9.319 2.911 -1.556 1.221 0.122 -1034.926 -539.948 -3539.944 0.039 0.106 -0.075 -0.15 0.58 -0.8 0.05
1 0.13 13 1.585 -9.343 2.897 -1.953 0.824 0.671 -1169.988 -569.929 -3629.885 0.183 0.130 -0.060 -0.15 0.58 -0.8 0.05
1 0.14 14 1.671 -9.266 2.816 -2.319 0.122 0.031 -1139.857 -794.932 -3629.885 0.096 0.053 0.021 -0.15 0.58 -0.8 0.05
1 0.15 15 1.662 -9.309 2.959 -2.075 0.580 -0.031 -1064.906 -719.981 -3734.967 0.105 0.096 -0.124 -0.15 0.58 -0.8 0.05
1 0.16 16 1.705 -9.472 2.753 -1.801 0.366 1.007 -1064.906 -719.981 -3734.967 0.062 0.258 0.080 -0.15 0.58 -0.8 0.05
1 0.17 17 1.743 -9.376 2.844 -1.038 0.122 1.526 -1139.857 -869.883 -3659.866 0.023 0.162 -0.011 -0.15 0.58 -0.8 0.05
1 0.18 18 1.719 -9.314 2.916 -0.977 0.458 2.380 -1019.936 -719.981 -3659.866 0.044 0.100 -0.082 -0.15 0.58 -0.8 0.05
1 0.19 19 1.781 -9.376 2.792 -1.068 -0.214 2.930 -1019.936 -719.981 -3659.866 -0.021 0.161 0.043 -0.15 0.58 -0.8 0.05
1 0.20 20 1.642 -9.347 2.897 -0.854 0.702 2.258 -1094.887 -719.981 -3629.885 0.115 0.132 -0.063 -0.15 0.58 -0.8 0.05
1 0.21 21 1.801 -9.256 2.797 -0.275 -0.824 1.373 -1139.857 -644.880 -3659.866 -0.045 0.041 0.038 -0.15 0.58 -0.8 0.05
1 0.22 22 1.786 -9.299 2.835 -0.336 -1.068 1.801 -1079.896 -629.890 -3599.905 -0.031 0.084 -0.000 -0.15 0.58 -0.8 0.05
1 0.23 23 1.743 -9.295 2.792 -0.641 -0.824 1.221 -1079.896 -629.890 -3599.905 0.012 0.079 0.042 -0.15 0.58 -0.8 0.05
1 0.24 24 1.839 -9.352 2.792 -0.244 -0.397 1.068 -1109.877 -809.922 -3644.875 -0.083 0.137 0.042 -0.15 0.58 -0.8 0.05
1 0.25 25 1.939 -9.352 2.801 0.885 0.092 1.221 -1109.877 -704.991 -3644.875 -0.184 0.137 0.034 -0.15 0.58 -0.8 0.05
1 0.26 26 1.686 -9.371 2.777 0.427 -0.336 1.038 -1109.877 -704.991 -3644.875 0.070 0.157 0.060 -0.15 0.58 -0.8 0.05
1 0.27 27 1.762 -9.252 2.835 0.153 -1.251 -0.092 -1019.936 -719.981 -3659.866 -0.006 0.038 0.004 -0.15 0.58 -0.8 0.05
1 0.28 28 1.647 -9.242 2.792 -0.092 -0.671 -0.916 -1034.926 -629.890 -3539.944 0.111 0.029 0.049 -0.15 0.58 -0.8 0.05
1 0.29 29 1.714 -9.256 2.782 0.275 -0.305 -1.221 -1154.998 -734.971 -3674.856 0.046 0.044 0.059 -0.15 0.58 -0.8 0.05
1 0.30 30 1.748 -9.199 2.753 -0.458 -0.305 -1.099 -1154.998 -734.971 -3674.856 0.015 -0.013 0.089 -0.15 0.58 -0.8 0.05
1 0.31 31 1.762 -9.323 2.787 -0.763 -0.641 -1.526 -1034.926 -659.870 -3719.977 0.006 0.113 0.056 -0.15 0.58 -0.8 0.05
1 0.32 32 1.662 -9.347 2.820 -0.305 -1.709 -1.892 -1169.988 -794.932 -3584.915 0.110 0.138 0.023 -0.15 0.58 -0.8 0.05
1 0.33 33 1.796 -9.347 2.868 -0.275 -1.556 -1.068 -1169.988 -794.932 -3584.915 -0.021 0.138 -0.025 -0.15 0.58 -0.8 0.05
1 0.34 34 1.829 -9.314 2.849 0.336 -1.251 -1.007 -1109.877 -809.922 -3644.875 -0.051 0.106 -0.005 -0.15 0.58 -0.8 0.05
1 0.35 35 1.791 -9.400 2.873 -0.092 -0.702 -0.610 -1259.929 -539.948 -3644.875 -0.010 0.193 -0.027 -0.15 0.58 -0.8 0.05
1 0.36 36 1.662 -9.338 2.758 0.610 -0.793 -0.854 -1244.939 -794.932 -3734.967 0.122 0.132 0.088 -0.15 0.58 -0.8 0.05
1 0.37 37 1.686 -9.261 2.792 -0.122 -1.343 -0.549 -1244.939 -794.932 -3734.967 0.101 0.056 0.056 -0.15 0.58 -0.8 0.05
1 0.38 38 1.729 -9.338 2.892 -0.183 -1.404 0.031 -1259.929 -779.942 -3599.905 0.059 0.133 -0.043 -0.15 0.58 -0.8 0.05
1 0.39 39 1.858 -9.362 2.835 -0.946 -1.129 -0.183 -1154.998 -629.890 -3599.905 -0.068 0.158 0.016 -0.15 0.58 -0.8 0.05
1 0.40 40 1.753 -9.343 2.792 0.305 -1.312 -0.153 -1154.998 -629.890 -3599.905 0.038 0.139 0.059 -0.15 0.58 -0.8 0.05
1 0.41 41 1.738 -9.376 2.753 -0.153 -1.892 -0.122 -1169.988 -749.961 -3659.866 0.053 0.172 0.097 -0.15 0.58 -0.8 0.05
1 0.42 42 1.810 -9.319 2.734 0.305 -1.495 -0.793 -1139.857 -644.880 -3764.947 -0.017 0.116 0.117 -0.15 0.58 -0.8 0.05
1 0.43 43 1.935 -9.232 2.725 0.427 -0.916 -1.221 -1094.887 -644.880 -3479.983 -0.138 0.030 0.128 -0.15 0.58 -0.8 0.05
1 0.44 44 1.896 -9.285 2.825 0.671 -0.946 -0.977 -1094.887 -644.880 -3479.983 -0.097 0.084 0.028 -0.15 0.58 -0.8 0.05
1 0.45 45 1.863 -9.141 2.940 0.092 -1.038 -0.946 -1094.887 -839.903 -3554.934 -0.060 -0.059 -0.086 -0.15 0.58 -0.8 0.05
1 0.46 46 1.911 -9.266 2.840 -1.007 -0.519 -0.702 -1169.988 -644.880 -3764.947 -0.102 0.068 0.018 -0.15 0.58 -0.8 0.05
1 0.47 47 1.796 -9.275 2.873 -1.831 -0.458 -0.519 -1169.988 -644.880 -3764.947 0.015 0.078 -0.016 -0.15 0.58 -0.8 0.05
1 0.48 48 1.858 -9.366 2.744 -1.221 -0.885 -1.343 -1094.887 -749.961 -3629.885 -0.045 0.169 0.112 -0.15 0.58 -0.8 0.05
1 0.49 49 1.729 -9.343 2.859 -0.916 -1.526 -0.854 -1094.887 -749.961 -3629.885 0.087 0.145 -0.004 -0.15 0.58 -0.8 0.05
1 0.50 50 1.829 -9.256 2.763 -0.702 -2.014 -1.038 -1004.945 -629.890 -3749.957 -0.011 0.060 0.092 -0.15 0.58 -0.8 0.05
1 0.51 51 1.848 -9.175 2.749 -1.892 -1.495 -0.763 -1004.945 -629.890 -3749.957 -0.027 -0.022 0.106 -0.15 0.58 -0.8 0.05
1 0.52 52 1.848 -9.343 2.859 -1.007 -1.312 -0.397 -1229.949 -704.991 -3644.875 -0.024 0.146 -0.006 -0.15 0.58 -0.8 0.05
1 0.53 53 1.906 -9.347 2.840 -0.732 -0.916 -0.153 -1154.998 -779.942 -3494.973 -0.076 0.152 0.012 -0.15 0.58 -0.8 0.05
1 0.54 54 1.853 -9.137 2.773 -0.793 -1.312 -0.824 -1154.998 -779.942 -3494.973 -0.022 -0.059 0.078 -0.15 0.58 -0.8 0.05
1 0.55 55 1.805 -9.180 2.878 -1.404 -1.587 -0.275 -1064.906 -749.961 -3704.986 0.029 -0.015 -0.028 -0.15 0.58 -0.8 0.05
1 0.56 56 1.844 -9.352 2.801 -1.190 -0.946 -0.488 -1064.906 -749.961 -3704.986 -0.008 0.157 0.048 -0.15 0.58 -0.8 0.05
1 0.57 57 1.954 -9.309 2.744 -1.495 -1.709 0.000 -1184.978 -539.948 -3644.875 -0.116 0.114 0.105 -0.15 0.58 -0.8 0.05
1 0.58 58 1.872 -9.184 2.720 -1.831 -1.312 -0.092 -1184.978 -539.948 -3644.875 -0.034 -0.011 0.128 -0.15 0.58 -0.8 0.05
1 0.59 59 1.786 -9.338 2.859 -1.892 -0.977 0.061 -1139.857 -644.880 -3659.866 0.053 0.142 -0.013 -0.15 0.58 -0.8 0.05
1 0.60 60 1.915 -9.352 2.734 -2.228 -1.221 0.000 -1229.949 -734.971 -3644.875 -0.076 0.156 0.110 -0.15 0.58 -0.8 0.05
1 0.61 61 1.872 -9.309 2.777 -1.862 -1.678 0.244 -1229.949 -734.971 -3644.875 -0.032 0.113 0.065 -0.15 0.58 -0.8 0.05
1 0.62 62 1.935 -9.366 2.854 -1.617 -1.221 0.824 -1094.887 -794.932 -3704.986 -0.093 0.170 -0.012 -0.15 0.58 -0.8 0.05
1 0.63 63 1.844 -9.405 2.811 -2.289 -1.129 0.824 -1094.887 -794.932 -3704.986 -0.002 0.208 0.031 -0.15 0.58 -0.8 0.05
1 0.64 64 1.791 -9.223 2.892 -1.282 -1.099 0.580 -1169.988 -569.929 -3659.866 0.050 0.026 -0.051 -0.15 0.58 -0.8 0.05
1 0.65 65 1.887 -9.228 2.849 -2.228 -0.732 0.946 -1169.988 -569.929 -3659.866 -0.045 0.031 -0.008 -0.15 0.58 -0.8 0.05
1 0.66 66 1.949 -9.290 2.849 -2.045 -0.580 0.580 -1199.968 -719.981 -3704.986 -0.107 0.093 -0.008 -0.15 0.58 -0.8 0.05
1 0.67 67 1.777 -9.271 2.849 -1.953 -0.610 0.397 -1079.896 -659.870 -3644.875 0.065 0.074 -0.009 -0.15 0.58 -0.8 0.05
1 0.68 68 1.896 -9.347 2.758 -1.801 -0.458 0.305 -1079.896 -659.870 -3644.875 -0.053 0.150 0.079 -0.15 0.58 -0.8 0.05
1 0.69 69 1.786 -9.275 2.797 -1.892 -0.336 -0.275 -1154.998 -629.890 -3599.905 0.058 0.078 0.039 -0.15 0.58 -0.8 0.05
1 0.70 70 1.853 -9.314 2.830 -1.526 -0.763 -0.610 -1154.998 -629.890 -3599.905 -0.008 0.116 0.004 -0.16 0.58 -0.8 0.05
1 0.71 71 1.772 -9.132 2.854 -1.373 -1.038 0.183 -1139.857 -674.860 -3554.934 0.074 -0.066 -0.021 -0.16 0.58 -0.8 0.05
1 0.72 72 1.844 -9.266 2.773 -1.709 -1.556 0.427 -1229.949 -629.890 -3569.924 0.004 0.068 0.060 -0.16 0.58 -0.8 0.05
1 0.73 73 1.930 -9.299 2.849 -1.953 -1.129 0.610 -1139.857 -749.961 -3584.915 -0.081 0.101 -0.018 -0.16 0.58 -0.8 0.05
1 0.74 74 1.733 -9.208 2.624 -1.923 -1.251 1.007 -1184.978 -779.942 -3674.856 0.115 0.010 0.207 -0.16 0.58 -0.8 0.05
1 0.75 75 1.901 -9.352 2.825 -2.167 -1.648 1.068 -1184.978 -779.942 -3674.856 -0.053 0.153 0.003 -0.16 0.58 -0.8 0.05
1 0.76 76 1.815 -9.295 2.792 -2.533 -1.709 1.709 -1154.998 -539.948 -3674.856 0.033 0.095 0.035 -0.16 0.58 -0.8 0.05
1 0.77 77 1.772 -9.285 2.864 -2.014 -1.312 2.228 -1154.998 -539.948 -3674.856 0.075 0.085 -0.039 -0.16 0.58 -0.8 0.05
1 0.78 78 1.944 -9.390 2.820 -2.411 -1.465 2.991 -1019.936 -749.961 -3404.882 -0.098 0.189 0.002 -0.16 0.58 -0.8 0.05
1 0.79 79 1.824 -9.266 2.797 -1.801 -1.495 2.777 -1244.939 -794.932 -3659.866 0.019 0.063 0.024 -0.16 0.58 -0.8 0.05
1 0.80 80 1.925 -9.371 2.849 -2.075 -1.251 2.899 -1199.968 -749.961 -3629.885 -0.084 0.168 -0.031 -0.16 0.58 -0.8 0.05
1 0.81 81 1.939 -9.333 2.806 -2.441 -1.190 3.235 -1229.949 -704.991 -3494.973 -0.101 0.128 0.010 -0.16 0.58 -0.8 0.05
1 0.82 82 1.944 -9.232 2.763 -2.686 -1.038 2.594 -1229.949 -704.991 -3494.973 -0.108 0.027 0.052 -0.16 0.58 -0.8 0.05
1 0.83 83 1.944 -9.290 2.777 -2.319 -0.336 2.228 -1109.877 -809.922 -3644.875 -0.111 0.082 0.032 -0.16 0.58 -0.8 0.05
1 0.84 84 1.810 -9.352 2.844 -2.411 -0.580 1.801 -1109.877 -809.922 -3644.875 0.021 0.143 -0.038 -0.16 0.58 -0.8 0.05
1 0.85 85 1.824 -9.381 2.797 -2.686 -0.702 2.106 -1064.906 -749.961 -3584.915 0.006 0.171 0.008 -0.16 0.58 -0.8 0.05
1 0.86 86 1.805 -9.232 2.806 -2.502 -0.641 1.343 -1079.896 -509.968 -3599.905 0.024 0.022 -0.003 -0.16 0.58 -0.8 0.05
1 0.87 87 1.839 -9.271 2.830 -2.502 -0.702 1.007 -1169.988 -599.909 -3554.934 -0.010 0.059 -0.029 -0.16 0.58 -0.8 0.05
1 0.88 88 1.801 -9.242 2.682 -2.869 -0.549 1.526 -1199.968 -674.860 -3704.986 0.028 0.030 0.118 -0.16 0.58 -0.8 0.05
1 0.89 89 1.815 -9.338 2.734 -2.563 -0.519 0.854 -1199.968 -674.860 -3704.986 0.013 0.125 0.063 -0.16 0.58 -0.8 0.05
1 0.90 90 1.848 -9.271 2.706 -2.502 -0.336 0.854 -1109.877 -704.991 -3644.875 -0.021 0.057 0.088 -0.16 0.58 -0.8 0.05
1 0.91 91 1.872 -9.232 2.873 -2.075 -0.946 0.702 -1109.877 -704.991 -3644.875 -0.045 0.018 -0.081 -0.16 0.58 -0.8 0.05
1 0.92 92 1.805 -9.323 2.868 -2.228 -0.610 0.763 -1169.988 -644.880 -3584.915 0.022 0.109 -0.077 -0.16 0.58 -0.8 0.05
1 0.93 93 1.877 -9.184 2.792 -1.678 -0.854 0.549 -1169.988 -794.932 -3629.885 -0.050 -0.030 0.000 -0.16 0.58 -0.8 0.05
1 0.94 94 1.911 -9.390 2.792 -1.740 -0.854 0.702 -1079.896 -854.893 -3674.856 -0.083 0.176 0.000 -0.16 0.58 -0.8 0.05
1 0.95 95 1.815 -9.386 2.816 -1.373 -0.977 0.549 -1169.988 -719.981 -3764.947 0.013 0.171 -0.024 -0.16 0.58 -0.8 0.05
1 0.96 96 1.824 -9.410 2.744 -1.587 -0.580 0.854 -1169.988 -719.981 -3764.947 0.004 0.195 0.048 -0.16 0.58 -0.8 0.05
1 0.97 97 1.896 -9.285 2.835 -1.343 -0.732 0.916 -1229.949 -704.991 -3569.924 -0.069 0.070 -0.044 -0.16 0.58 -0.8 0.05
1 0.98 98 1.872 -9.343 2.792 -1.373 -0.916 1.099 -1229.949 -704.991 -3569.924 -0.045 0.128 -0.001 -0.16 0.58 -0.8 0.05
1 0.99 99 1.781 -9.208 2.720 -1.984 -0.610 1.587 -1244.939 -674.860 -3629.885 0.047 -0.006 0.070 -0.16 0.58 -0.8 0.05
1 1.00 100 2.006 -9.338 2.902 -2.075 -1.007 1.404 -1034.926 -734.971 -3569.924 -0.179 0.122 -0.113 -0.16 0.58 -0.8 0.05
1 1.01 101 1.935 -9.314 2.729 -1.953 -0.916 0.916 -1019.936 -914.854 -3704.986 -0.106 0.098 0.059 -0.16 0.58 -0.8 0.05
1 1.02 102 1.810 -9.256 2.782 -2.289 -0.580 1.526 -1184.978 -704.991 -3599.905 0.019 0.041 0.006 -0.16 0.58 -0.8 0.05
1 1.03 103 1.949 -9.304 2.801 -2.350 -1.007 1.068 -1184.978 -704.991 -3599.905 -0.120 0.088 -0.015 -0.16 0.58 -0.8 0.05
1 1.04 104 1.824 -9.223 2.854 -2.197 -0.641 0.580 -1094.887 -599.909 -3629.885 0.006 0.007 -0.069 -0.16 0.58 -0.8 0.05
1 1.05 105 1.863 -9.261 2.811 -2.319 -0.305 0.732 -1094.887 -599.909 -3629.885 -0.032 0.045 -0.027 -0.16 0.58 -0.8 0.05
1 1.06 106 1.848 -9.247 2.667 -1.862 -0.305 0.916 -1079.896 -629.890 -3569.924 -0.017 0.031 0.117 -0.16 0.58 -0.8 0.05
1 1.07 107 1.748 -9.285 2.849 -2.045 -0.275 0.427 -1184.978 -779.942 -3569.924 0.083 0.069 -0.066 -0.16 0.58 -0.8 0.05
1 1.08 108 1.815 -9.261 2.753 -2.136 0.061 0.488 -1064.906 -569.929 -3584.915 0.016 0.045 0.029 -0.16 0.58 -0.8 0.05
1 1.09 109 1.844 -9.295 2.773 -1.984 -0.397 0.061 -1034.926 -659.870 -3539.944 -0.012 0.078 0.009 -0.16 0.58 -0.8 0.05
1 1.10 110 1.834 -9.285 2.763 -2.319 -0.366 0.000 -1034.926 -659.870 -3539.944 -0.001 0.068 0.016 -0.16 0.58 -0.8 0.05
1 1.11 111 1.844 -9.371 2.729 -1.892 -0.824 0.641 -1154.998 -809.922 -3719.977 -0.010 0.154 0.048 -0.16 0.58 -0.8 0.05
1 1.12 112 1.925 -9.376 2.758 -1.892 -0.458 0.488 -1154.998 -809.922 -3719.977 -0.090 0.158 0.017 -0.16 0.58 -0.8 0.05
1 1.13 113 1.992 -9.295 2.792 -1.221 -1.282 0.336 -1109.877 -734.971 -3599.905 -0.157 0.077 -0.016 -0.16 0.58 -0.8 0.05
1 1.14 114 1.891 -9.266 2.682 -1.282 -0.824 0.458 -1244.939 -644.880 -3734.967 -0.055 0.048 0.093 -0.16 0.58 -0.8 0.05
1 1.15 115 1.939 -9.285 2.706 -1.007 -0.824 0.732 -1244.939 -644.880 -3734.967 -0.103 0.067 0.069 -0.16 0.58 -0.8 0.05
1 1.16 116 1.925 -9.438 2.749 -1.953 0.488 0.031 -1184.978 -659.870 -3644.875 -0.088 0.220 0.025 -0.16 0.58 -0.8 0.05
1 1.17 117 1.978 -9.319 2.825 -0.824 0.122 0.366 -1184.978 -659.870 -3644.875 -0.140 0.100 -0.053 -0.16 0.58 -0.8 0.05
1 1.18 118 1.939 -9.295 2.710 -1.404 -0.275 0.305 -1079.896 -629.890 -3599.905 -0.101 0.076 0.061 -0.16 0.58 -0.8 0.05
1 1.19 119 1.901 -9.357 2.787 -1.465 -0.397 0.183 -1079.896 -629.890 -3599.905 -0.062 0.138 -0.016 -0.16 0.58 -0.8 0.05
1 1.20 120 1.963 -9.352 2.753 -1.373 -0.641 0.427 -1154.998 -629.890 -3599.905 -0.124 0.134 0.017 -0.16 0.58 -0.8 0.05
1 1.21 121 1.901 -9.376 2.811 -1.801 -0.641 0.671 -1019.936 -749.961 -3629.885 -0.061 0.158 -0.041 -0.16 0.58 -0.8 0.05
1 1.22 122 1.844 -9.323 2.696 -1.404 -0.916 0.000 -1019.936 -749.961 -3629.885 -0.003 0.105 0.074 -0.16 0.58 -0.8 0.05
1 1.23 123 1.954 -9.338 2.825 -1.770 -1.129 1.068 -944.984 -644.880 -3659.866 -0.113 0.119 -0.056 -0.16 0.58 -0.8 0.05
1 1.24 124 1.935 -9.295 2.715 -1.465 -0.671 0.977 -944.984 -644.880 -3659.866 -0.094 0.076 0.054 -0.16 0.58 -0.8 0.05
1 1.25 125 1.853 -9.237 2.648 -1.221 -0.885 0.580 -1259.929 -734.971 -3644.875 -0.012 0.018 0.120 -0.16 0.58 -0.8 0.05
1 1.26 126 1.949 -9.323 2.696 -0.854 -1.038 0.732 -1259.929 -734.971 -3644.875 -0.107 0.105 0.072 -0.16 0.58 -0.8 0.05
1 1.27 127 1.925 -9.366 2.734 -1.648 -0.946 0.458 -1184.978 -704.991 -3599.905 -0.083 0.147 0.033 -0.16 0.58 -0.8 0.05
1 1.28 128 1.911 -9.467 2.682 -0.916 -0.702 0.824 -1139.857 -599.909 -3509.963 -0.068 0.248 0.085 -0.16 0.58 -0.8 0.05
1 1.29 129 1.815 -9.343 2.691 -1.038 -0.397 0.305 -1139.857 -599.909 -3509.963 0.028 0.123 0.074 -0.16 0.58 -0.8 0.05
1 1.30 130 1.891 -9.472 2.600 -0.671 -0.763 0.397 -1154.998 -659.870 -3719.977 -0.049 0.252 0.164 -0.16 0.58 -0.8 0.05
1 1.31 131 1.801 -9.371 2.701 -0.427 -0.916 0.916 -1154.998 -659.870 -3719.977 0.042 0.151 0.063 -0.16 0.58 -0.8 0.05
1 1.32 132 1.858 -9.376 2.820 -0.122 -0.854 0.824 -1139.857 -599.909 -3659.866 -0.015 0.156 -0.058 -0.16 0.58 -0.8 0.05
1 1.33 133 1.824 -9.347 2.715 -0.671 -0.885 1.526 -1139.857 -599.909 -3659.866 0.019 0.127 0.046 -0.16 0.58 -0.8 0.05
1 1.34 134 1.805 -9.280 2.720 -1.343 -0.305 1.740 -1109.877 -629.890 -3674.856 0.037 0.059 0.040 -0.16 0.58 -0.8 0.05
1 1.35 135 1.824 -9.352 2.629 -1.404 -0.397 2.167 -1199.968 -644.880 -3479.983 0.018 0.131 0.130 -0.16 0.58 -0.8 0.05
1 1.36 136 1.868 -9.323 2.710 -1.099 0.153 2.563 -1199.968 -644.880 -3479.983 -0.025 0.102 0.048 -0.16 0.58 -0.8 0.05
1 1.37 137 1.805 -9.400 2.749 -0.946 -0.580 2.441 -1094.887 -674.860 -3659.866 0.035 0.178 0.009 -0.16 0.58 -0.8 0.05
1 1.38 138 1.786 -9.395 2.729 -0.732 -0.488 2.319 -1169.988 -644.880 -3554.934 0.051 0.172 0.027 -0.16 0.58 -0.8 0.05
1 1.39 139 1.824 -9.280 2.763 -1.831 -1.282 2.380 -1064.906 -749.961 -3629.885 0.011 0.057 -0.007 -0.16 0.58 -0.8 0.05
1 1.40 140 1.805 -9.299 2.758 -1.678 -0.580 2.472 -1064.906 -749.961 -3629.885 0.029 0.075 -0.003 -0.16 0.58 -0.8 0.05
1 1.41 141 1.757 -9.419 2.782 -1.831 -0.305 2.319 -974.965 -779.942 -3719.977 0.071 0.193 -0.029 -0.16 0.58 -0.8 0.05
1 1.42 142 1.791 -9.290 2.605 -1.678 -1.099 2.045 -1004.945 -659.870 -3644.875 0.035 0.063 0.146 -0.16 0.58 -0.8 0.05
1 1.43 143 1.690 -9.347 2.653 -1.740 -0.946 1.617 -1004.945 -659.870 -3644.875 0.135 0.120 0.098 -0.16 0.58 -0.8 0.05
1 1.44 144 1.781 -9.352 2.787 -1.526 -1.068 0.702 -1019.936 -674.860 -3584.915 0.043 0.124 -0.037 -0.16 0.58 -0.8 0.05
1 1.45 145 1.781 -9.467 2.777 -1.038 -1.373 1.587 -1169.988 -569.929 -3704.986 0.043 0.239 -0.028 -0.16 0.58 -0.8 0.05
1 1.46 146 2.040 -9.381 2.701 -0.488 -0.397 0.946 -1139.857 -674.860 -3584.915 -0.216 0.153 0.048 -0.16 0.58 -0.8 0.05
1 1.47 147 1.858 -9.352 2.667 -0.153 -0.275 2.106 -1139.857 -674.860 -3584.915 -0.034 0.124 0.081 -0.16 0.58 -0.8 0.05
1 1.48 148 1.767 -9.285 2.686 -0.153 -0.854 1.678 -1079.896 -584.919 -3539.944 0.056 0.057 0.063 -0.16 0.58 -0.8 0.05
1 1.49 149 1.757 -9.175 2.662 -0.183 -0.946 1.190 -1139.857 -644.880 -3659.866 0.065 -0.053 0.086 -0.16 0.58 -0.8 0.05
1 1.50 150 1.772 -9.223 2.691 -0.732 -1.587 0.458 -1139.857 -644.880 -3659.866 0.050 -0.006 0.057 -0.16 0.58 -0.8 0.05
1 1.51 151 1.714 -9.366 2.691 -0.427 -1.282 0.122 -1064.906 -644.880 -3659.866 0.107 0.138 0.057 -0.15 0.58 -0.8 0.05
1 1.52 152 1.839 -9.314 2.658 -0.763 -0.885 0.183 -1004.945 -629.890 -3644.875 -0.018 0.085 0.090 -0.15 0.58 -0.8 0.05
1 1.53 153 1.695 -9.333 2.643 -0.671 -0.702 -0.031 -1064.906 -644.880 -3449.853 0.126 0.104 0.104 -0.15 0.58 -0.8 0.05
1 1.54 154 1.935 -9.424 2.600 -0.610 -1.190 -0.214 -1064.906 -644.880 -3449.853 -0.113 0.195 0.147 -0.15 0.58 -0.8 0.05
1 1.55 155 1.738 -9.352 2.715 -0.641 -0.519 -0.214 -974.965 -809.922 -3644.875 0.082 0.123 0.031 -0.15 0.58 -0.8 0.05
1 1.56 156 1.815 -9.515 2.691 0.366 -0.610 -1.099 -1169.988 -599.909 -3629.885 0.009 0.286 0.055 -0.15 0.58 -0.8 0.05
1 1.57 157 1.729 -9.438 2.706 0.244 -0.641 -1.038 -1169.988 -599.909 -3629.885 0.097 0.210 0.042 -0.15 0.58 -0.8 0.05
1 1.58 158 1.772 -9.405 2.777 1.129 -1.434 -0.763 -1184.978 -779.942 -3719.977 0.057 0.178 -0.028 -0.15 0.58 -0.8 0.05
1 1.59 159 1.805 -9.386 2.662 0.641 -1.587 -0.519 -1184.978 -854.893 -3674.856 0.025 0.160 0.089 -0.16 0.58 -0.8 0.05
1 1.60 160 1.858 -9.357 2.691 -0.153 -1.343 -0.244 -1139.857 -794.932 -3554.934 -0.026 0.132 0.061 -0.16 0.58 -0.8 0.05
1 1.61 161 1.786 -9.366 2.787 -0.458 -1.434 0.763 -1139.857 -794.932 -3554.934 0.048 0.142 -0.033 -0.16 0.58 -0.8 0.05
1 1.62 162 1.906 -9.386 2.706 -0.122 -1.434 0.885 -1184.978 -464.997 -3569.924 -0.072 0.161 0.047 -0.16 0.58 -0.8 0.05
1 1.63 163 1.872 -9.453 2.648 -0.244 -1.495 0.183 -1184.978 -659.870 -3599.905 -0.039 0.227 0.104 -0.16 0.58 -0.8 0.05
1 1.64 164 1.753 -9.558 2.758 1.099 -1.312 -0.092 -1184.978 -659.870 -3599.905 0.080 0.333 -0.006 -0.16 0.58 -0.8 0.05
1 1.65 165 1.834 -9.386 2.744 2.136 -1.221 -0.366 -1229.949 -584.919 -3569.924 0.000 0.161 0.010 -0.16 0.58 -0.8 0.05
1 1.66 166 1.772 -9.410 2.806 4.120 -0.488 -0.854 -1244.939 -644.880 -3509.963 0.064 0.187 -0.047 -0.16 0.58 -0.8 0.05
1 1.67 167 1.671 -9.366 2.715 3.510 -0.977 -0.519 -1169.988 -719.981 -3704.986 0.167 0.147 0.052 -0.16 0.58 -0.8 0.05
1 1.68 168 1.748 -9.213 2.691 1.526 -2.350 -0.092 -1169.988 -719.981 -3704.986 0.092 -0.005 0.081 -0.16 0.58 -0.8 0.05
1 1.69 169 1.839 -9.477 2.854 1.617 -1.770 -0.183 -1184.978 -584.919 -3599.905 0.002 0.260 -0.078 -0.16 0.58 -0.8 0.05
1 1.70 170 1.954 -9.429 2.844 2.594 -1.617 -0.793 -1004.945 -629.890 -3644.875 -0.111 0.213 -0.066 -0.16 0.58 -0.8 0.05
1 1.71 171 1.839 -9.366 2.734 4.974 -1.190 -2.594 -1004.945 -629.890 -3644.875 0.010 0.156 0.056 -0.16 0.58 -0.8 0.05
1 1.72 172 1.810 -9.400 2.739 4.089 -1.709 -0.763 -1154.998 -629.890 -3599.905 0.043 0.192 0.058 -0.16 0.58 -0.8 0.05
1 1.73 173 1.992 -9.204 2.739 2.655 -2.472 -0.824 -1169.988 -644.880 -3659.866 -0.137 -0.002 0.063 -0.16 0.58 -0.8 0.05
1 1.74 174 1.968 -9.266 2.792 2.411 -2.380 -1.099 -1094.887 -719.981 -3629.885 -0.109 0.062 0.015 -0.16 0.58 -0.8 0.05
1 1.75 175 1.997 -9.074 2.758 2.991 -2.045 -2.502 -1094.887 -719.981 -3629.885 -0.132 -0.127 0.052 -0.16 0.58 -0.8 0.05
1 1.76 176 1.935 -9.165 2.854 2.747 -2.838 -3.601 -1154.998 -584.919 -3749.957 -0.064 -0.033 -0.038 -0.16 0.58 -0.8 0.05
1 1.77 177 1.930 -9.204 2.878 2.594 -2.991 -4.059 -1169.988 -569.929 -3659.866 -0.051 0.008 -0.057 -0.16 0.58 -0.8 0.05
1 1.78 178 2.131 -9.266 2.916 1.862 -3.052 -5.981 -1169.988 -569.929 -3659.866 -0.234 0.077 -0.086 -0.16 0.57 -0.8 0.05
1 1.79 179 2.002 -9.247 2.797 2.441 -3.601 -6.958 -1019.936 -599.909 -3659.866 -0.092 0.062 0.037 -0.16 0.57 -0.8 0.05
1 1.80 180 2.145 -9.275 2.696 2.655 -4.364 -7.751 -1109.877 -779.942 -3464.993 -0.223 0.094 0.141 -0.16 0.57 -0.8 0.05
1 1.81 181 2.045 -9.314 2.883 2.380 -4.761 -8.118 -1109.877 -779.942 -3464.993 -0.107 0.137 -0.043 -0.16 0.57 -0.8 0.05
1 1.82 182 2.006 -9.194 2.969 1.862 -4.456 -8.026 -1139.857 -644.880 -3659.866 -0.052 0.021 -0.126 -0.16 0.57 -0.8 0.05
1 1.83 183 1.896 -9.256 2.806 2.380 -4.120 -8.942 -1154.998 -779.942 -3539.944 0.073 0.088 0.040 -0.16 0.57 -0.8 0.05
1 1.84 184 1.877 -9.252 2.892 3.113 -4.242 -10.254 -1229.949 -734.971 -3599.905 0.107 0.088 -0.042 -0.16 0.57 -0.8 0.05
1 1.85 185 1.959 -9.333 2.921 4.578 -6.653 -12.238 -1229.949 -734.971 -3599.905 0.060 0.180 -0.061 -0.16 0.57 -0.8 0.05
1 1.86 186 2.083 -9.271 2.801 5.554 -7.263 -12.848 -1334.880 -629.890 -3599.905 -0.043 0.124 0.065 -0.16 0.57 -0.8 0.05
1 1.87 187 1.853 -9.347 2.916 7.507 -8.453 -12.756 -1199.968 -719.981 -3629.885 0.209 0.208 -0.043 -0.17 0.57 -0.8 0.05
1 1.88 188 1.848 -9.223 2.811 7.904 -8.728 -12.634 -1199.968 -719.981 -3629.885 0.235 0.091 0.072 -0.17 0.57 -0.8 0.05
1 1.89 189 1.959 -9.218 2.873 7.690 -11.169 -12.573 -1199.968 -674.860 -3734.967 0.145 0.094 0.018 -0.17 0.57 -0.8 0.05
1 1.90 190 1.848 -9.156 2.854 7.263 -13.397 -12.024 -1259.929 -659.870 -3569.924 0.278 0.039 0.045 -0.17 0.57 -0.8 0.05
1 1.91 191 1.891 -9.410 2.883 7.751 -14.557 -12.543 -1229.949 -884.874 -3599.905 0.256 0.300 0.023 -0.17 0.57 -0.8 0.05
1 1.92 192 1.911 -9.438 2.792 7.080 -17.670 -13.214 -1229.949 -884.874 -3599.905 0.282 0.343 0.127 -0.17 0.57 -0.8 0.05
1 1.93 193 2.030 -9.280 2.739 7.568 -18.189 -12.695 -1304.900 -734.971 -3599.905 0.187 0.193 0.184 -0.17 0.57 -0.8 0.05
1 1.94 194 2.375 -9.170 2.873 7.843 -21.362 -9.583 -1319.890 -794.932 -3629.885 -0.134 0.090 0.054 -0.18 0.57 -0.8 0.05
1 1.95 195 2.500 -9.208 2.955 6.622 -21.454 -8.392 -1319.890 -794.932 -3629.885 -0.234 0.136 -0.023 -0.18 0.56 -0.8 0.05
1 1.96 196 2.672 -9.295 2.835 4.761 -21.057 -8.270 -1244.939 -719.981 -3554.934 -0.384 0.228 0.099 -0.18 0.56 -0.8 0.05
1 1.97 197 2.840 -9.352 2.792 3.143 -21.942 -8.301 -1334.880 -929.994 -3674.856 -0.528 0.292 0.141 -0.18 0.56 -0.8 0.05
1 1.98 198 2.931 -9.338 2.859 4.364 -21.759 -8.087 -1469.942 -869.883 -3734.967 -0.594 0.283 0.071 -0.18 0.56 -0.8 0.05
1 1.99 199 3.103 -9.256 2.797 7.263 -20.142 -7.446 -1469.942 -869.883 -3734.967 -0.741 0.207 0.131 -0.19 0.56 -0.8 0.05
1 2.00 200 3.137 -8.993 2.792 7.416 -16.937 -6.653 -1424.972 -749.961 -3659.866 -0.727 -0.042 0.142 -0.19 0.56 -0.8 0.05
1 2.01 201 3.117 -8.935 2.763 6.134 -14.435 -5.859 -1364.861 -809.922 -3719.977 -0.685 -0.092 0.175 -0.19 0.56 -0.8 0.05
1 2.02 202 3.031 -8.993 2.576 4.272 -11.505 -5.920 -1364.861 -809.922 -3719.977 -0.579 -0.028 0.365 -0.19 0.56 -0.8 0.05
1 2.03 203 3.055 -8.912 2.533 3.754 -8.667 -5.249 -1439.962 -539.948 -3749.957 -0.584 -0.104 0.409 -0.19 0.56 -0.8 0.05
1 2.04 204 3.093 -8.921 2.437 2.777 -4.974 -4.852 -1514.913 -854.893 -3824.908 -0.606 -0.089 0.506 -0.19 0.56 -0.8 0.05
1 2.05 205 2.955 -8.854 2.370 0.061 -4.303 -5.432 -1409.981 -734.971 -3719.977 -0.452 -0.152 0.574 -0.19 0.56 -0.8 0.05
1 2.06 206 3.002 -8.883 2.308 -1.526 -1.556 -4.883 -1409.981 -734.971 -3719.977 -0.485 -0.120 0.634 -0.19 0.56 -0.8 0.05
1 2.07 207 3.247 -8.844 2.466 -1.953 2.350 -4.303 -1409.981 -779.942 -3749.957 -0.705 -0.155 0.466 -0.2 0.56 -0.8 0.05
1 2.08 208 3.156 -8.883 2.370 -3.967 5.066 -2.991 -1409.981 -959.975 -3599.905 -0.604 -0.115 0.558 -0.2 0.56 -0.8 0.05
1 2.09 209 3.184 -8.998 2.437 -5.920 8.392 -1.495 -1409.981 -959.975 -3599.905 -0.627 0.000 0.485 -0.2 0.56 -0.8 0.05
1 2.10 210 3.113 -8.912 2.471 -6.104 11.047 0.214 -1544.894 -839.903 -3734.967 -0.552 -0.087 0.445 -0.2 0.56 -0.8 0.05
1 2.11 211 2.935 -9.036 2.552 -6.104 14.648 3.052 -1514.913 -779.942 -3569.924 -0.376 0.035 0.359 -0.2 0.56 -0.8 0.05
1 2.12 212 2.811 -8.873 2.571 -6.195 15.808 5.890 -1349.871 -749.961 -3629.885 -0.257 -0.130 0.336 -0.2 0.56 -0.8 0.05
1 2.13 213 2.787 -8.878 2.543 -6.287 16.907 7.141 -1349.871 -749.961 -3629.885 -0.244 -0.130 0.361 -0.19 0.56 -0.8 0.05
1 2.14 214 2.586 -8.868 2.567 -5.585 17.792 7.446 -1334.880 -779.942 -3599.905 -0.056 -0.144 0.335 -0.19 0.56 -0.8 0.05
1 2.15 215 2.457 -8.816 2.447 -5.676 19.348 9.552 -1559.884 -884.874 -3719.977 0.041 -0.206 0.453 -0.19 0.56 -0.8 0.05
1 2.16 216 2.399 -8.830 2.375 -7.355 20.630 11.993 -1559.884 -884.874 -3719.977 0.078 -0.198 0.523 -0.19 0.56 -0.8 0.05
1 2.17 217 2.212 -8.629 2.476 -9.094 20.599 14.252 -1319.890 -749.961 -3704.986 0.240 -0.407 0.418 -0.19 0.56 -0.8 0.04
1 2.18 218 2.073 -8.888 2.495 -10.834 19.531 15.808 -1274.919 -599.909 -3584.915 0.350 -0.158 0.393 -0.19 0.56 -0.8 0.04
1 2.19 219 2.126 -9.098 2.605 -10.712 19.287 18.280 -1304.900 -854.893 -3674.856 0.265 0.041 0.274 -0.18 0.57 -0.8 0.04
1 2.20 220 2.155 -9.036 2.710 -10.040 19.409 20.538 -1304.900 -854.893 -3674.856 0.202 -0.033 0.161 -0.18 0.57 -0.8 0.04
1 2.21 221 2.083 -9.280 2.964 -10.040 19.684 20.538 -1334.880 -809.922 -3749.957 0.238 0.200 -0.100 -0.18 0.57 -0.8 0.05
1 2.22 222 2.112 -9.606 2.615 -11.810 19.196 18.341 -1199.968 -794.932 -3584.915 0.136 0.503 0.237 -0.18 0.57 -0.8 0.05
1 2.23 223 2.217 -9.357 2.610 -8.606 17.853 15.900 -1199.968 -794.932 -3584.915 -0.003 0.243 0.233 -0.17 0.57 -0.8 0.05
1 2.24 224 2.284 -9.548 2.959 -8.087 18.829 14.618 -1169.988 -674.860 -3629.885 -0.100 0.426 -0.123 -0.17 0.57 -0.8 0.05
1 2.25 225 2.461 -10.013 2.926 -16.296 19.928 10.681 -1169.988 -674.860 -3629.885 -0.304 0.882 -0.095 -0.17 0.57 -0.8 0.05
1 2.26 226 2.198 -10.166 2.500 -15.137 23.224 6.470 -1154.998 -704.991 -3749.957 -0.061 1.026 0.315 -0.17 0.57 -0.8 0.04
1 2.27 227 1.925 -9.687 2.610 -7.080 21.454 5.890 -1154.998 -704.991 -3749.957 0.194 0.538 0.190 -0.17 0.57 -0.8 0.04
1 2.28 228 1.777 -9.347 2.672 -5.737 16.663 6.195 -1199.968 -794.932 -3584.915 0.324 0.191 0.120 -0.16 0.57 -0.8 0.04
1 2.29 229 1.920 -9.299 2.619 -15.167 10.681 5.737 -1184.978 -734.971 -3539.944 0.147 0.132 0.161 -0.16 0.58 -0.8 0.04
1 2.30 230 2.303 -9.558 2.586 -17.761 9.857 1.923 -1184.978 -734.971 -3539.944 -0.247 0.383 0.176 -0.16 0.58 -0.8 0.04
1 2.31 231 2.806 -9.673 2.543 -13.855 9.094 3.143 -1169.988 -644.880 -3554.934 -0.755 0.490 0.198 -0.16 0.58 -0.8 0.04
1 2.32 232 2.988 -9.352 2.471 -6.744 9.003 4.211 -1169.988 -644.880 -3554.934 -0.940 0.164 0.255 -0.16 0.58 -0.8 0.04
1 2.33 233 3.046 -8.868 2.504 -5.981 8.881 5.432 -1184.978 -539.948 -3674.856 -1.002 -0.322 0.215 -0.16 0.58 -0.8 0.04
1 2.34 234 3.127 -8.844 2.595 -13.825 14.191 4.639 -1184.978 -539.948 -3674.856 -1.085 -0.349 0.117 -0.16 0.58 -0.8 0.04
1 2.35 235 2.888 -9.070 2.725 -18.738 20.050 3.906 -1199.968 -644.880 -3629.885 -0.849 -0.128 -0.024 -0.16 0.58 -0.8 0.04
1 2.36 236 2.380 -9.285 2.571 -18.951 23.529 1.404 -1019.936 -599.909 -3659.866 -0.351 0.074 0.090 -0.16 0.58 -0.8 0.04
1 2.37 237 2.313 -9.395 2.509 -17.792 22.888 1.129 -1019.936 -599.909 -3659.866 -0.291 0.178 0.135 -0.16 0.58 -0.8 0.04
1 2.38 238 1.982 -9.285 2.581 -14.191 23.071 -0.488 -1094.887 -599.909 -3659.866 0.033 0.062 0.048 -0.15 0.58 -0.8 0.03
1 2.39 239 1.810 -9.472 2.552 -13.428 23.651 -2.075 -1094.887 -599.909 -3659.866 0.198 0.244 0.066 -0.15 0.59 -0.8 0.03
1 2.40 240 1.662 -9.515 2.595 -15.625 23.621 -3.632 -1094.887 -599.909 -3554.934 0.341 0.283 0.012 -0.15 0.59 -0.79 0.03
1 2.41 241 1.642 -9.659 2.457 -13.519 21.698 -4.181 -1094.887 -599.909 -3554.934 0.354 0.421 0.137 -0.15 0.59 -0.79 0.03
1 2.42 242 1.590 -9.577 2.571 -10.590 19.623 -4.211 -1064.906 -599.909 -3554.934 0.401 0.335 0.010 -0.15 0.59 -0.79 0.03
1 2.43 243 1.666 -9.544 2.634 -7.690 18.311 -3.723 -1139.857 -524.958 -3629.885 0.321 0.298 -0.062 -0.15 0.59 -0.79 0.03
1 2.44 244 1.743 -9.390 2.677 -6.897 16.785 -1.923 -1139.857 -524.958 -3629.885 0.237 0.141 -0.113 -0.15 0.59 -0.79 0.03
1 2.45 245 1.604 -9.266 2.729 -7.904 15.900 -0.885 -1004.945 -464.997 -3494.973 0.371 0.015 -0.168 -0.15 0.59 -0.79 0.03
1 2.46 246 1.686 -9.252 2.619 -7.751 15.381 0.427 -1004.945 -464.997 -3494.973 0.283 -0.002 -0.062 -0.15 0.59 -0.79 0.03
1 2.47 247 1.566 -9.410 2.773 -7.965 13.886 1.953 -1079.896 -464.997 -3539.944 0.395 0.153 -0.220 -0.14 0.59 -0.79 0.02
1 2.48 248 1.494 -9.453 2.600 -9.094 10.407 4.486 -854.893 -584.919 -3569.924 0.457 0.193 -0.052 -0.14 0.59 -0.79 0.02
1 2.49 249 1.508 -9.295 2.758 -10.223 8.179 6.165 -1034.926 -509.968 -3539.944 0.430 0.030 -0.217 -0.14 0.59 -0.79 0.02
1 2.50 250 1.638 -9.395 2.739 -11.292 6.348 7.416 -839.903 -494.978 -3554.934 0.287 0.125 -0.208 -0.14 0.59 -0.79 0.02
1 2.51 251 1.566 -9.433 2.787 -10.773 4.547 7.874 -839.903 -494.978 -3554.934 0.329 0.152 -0.277 -0.14 0.59 -0.79 0.02
1 2.52 252 1.700 -9.491 2.615 -9.918 4.761 7.904 -944.984 -449.857 -3449.853 0.180 0.204 -0.114 -0.14 0.59 -0.79 0.02
1 2.53 253 1.743 -9.587 2.710 -10.010 3.174 8.087 -944.984 -449.857 -3449.853 0.123 0.294 -0.219 -0.14 0.59 -0.79 0.02
1 2.54 254 1.762 -9.529 2.720 -11.505 0.549 6.378 -1034.926 -509.968 -3569.924 0.092 0.231 -0.240 -0.14 0.6 -0.79 0.02
1 2.55 255 1.920 -9.501 2.729 -10.834 -0.488 6.561 -914.854 -494.978 -3584.915 -0.076 0.197 -0.263 -0.14 0.6 -0.79 0.03
1 2.56 256 2.222 -9.673 2.873 3.571 8.270 4.608 -839.903 -719.981 -3584.915 -0.385 0.365 -0.419 -0.14 0.6 -0.79 0.03
1 2.57 257 1.801 -9.213 2.610 1.312 4.974 7.050 -989.955 -374.906 -3509.963 0.029 -0.095 -0.151 -0.14 0.6 -0.79 0.03
1 2.58 258 2.011 -9.060 2.662 -8.392 0.305 5.096 -989.955 -374.906 -3509.963 -0.191 -0.247 -0.193 -0.14 0.6 -0.79 0.03
1 2.59 259 2.208 -9.290 2.753 -9.003 3.571 4.181 -1004.945 -509.968 -3494.973 -0.398 -0.024 -0.299 -0.14 0.6 -0.79 0.03
1 2.60 260 2.251 -9.141 2.940 2.686 13.611 2.319 -1004.945 -509.968 -3494.973 -0.446 -0.174 -0.491 -0.14 0.6 -0.79 0.03
1 2.61 261 2.045 -9.074 2.562 8.667 16.754 2.289 -974.965 -464.997 -3464.993 -0.244 -0.238 -0.098 -0.14 0.6 -0.79 0.03
1 2.62 262 1.973 -8.825 2.562 7.813 14.435 0.366 -989.955 -524.958 -3509.963 -0.178 -0.483 -0.078 -0.13 0.6 -0.79 0.02
1 2.63 263 2.088 -9.012 2.701 -1.801 7.568 -3.723 -779.942 -389.896 -3674.856 -0.294 -0.293 -0.202 -0.13 0.6 -0.79 0.02
1 2.64 264 2.184 -9.271 2.706 -0.824 10.132 -4.608 -869.883 -569.929 -3629.885 -0.387 -0.032 -0.203 -0.13 0.6 -0.79 0.02
1 2.65 265 2.073 -9.433 2.615 2.686 12.604 -4.303 -869.883 -569.929 -3629.885 -0.271 0.133 -0.108 -0.13 0.6 -0.79 0.02
1 2.66 266 1.954 -9.366 2.701 3.052 11.353 -4.272 -794.932 -494.978 -3479.983 -0.142 0.073 -0.174 -0.13 0.59 -0.79 0.02
1 2.67 267 1.810 -9.285 2.677 1.312 11.078 -3.021 -794.932 -494.978 -3479.983 0.005 -0.005 -0.140 -0.13 0.59 -0.79 0.02
1 2.68 268 1.959 -9.371 2.662 -0.702 11.566 -2.686 -869.883 -419.876 -3554.934 -0.142 0.083 -0.119 -0.13 0.59 -0.79 0.02
1 2.69 269 1.868 -9.280 2.624 -1.465 12.024 -1.984 -914.854 -569.929 -3509.963 -0.050 -0.007 -0.076 -0.13 0.59 -0.79 0.02
1 2.70 270 1.906 -9.386 2.576 -3.082 10.895 -1.556 -914.854 -494.978 -3629.885 -0.089 0.099 -0.025 -0.13 0.59 -0.79 0.02
1 2.71 271 1.753 -9.501 2.706 -3.662 9.522 -1.312 -869.883 -524.958 -3509.963 0.063 0.214 -0.153 -0.13 0.59 -0.79 0.02
1 2.72 272 1.767 -9.371 2.768 -3.754 9.277 -0.427 -869.883 -524.958 -3509.963 0.047 0.085 -0.216 -0.13 0.59 -0.79 0.02
1 2.73 273 1.705 -9.524 2.615 -3.571 8.209 1.251 -989.955 -569.929 -3659.866 0.103 0.237 -0.063 -0.13 0.59 -0.79 0.02
1 2.74 274 1.619 -9.395 2.605 -3.967 7.965 2.106 -989.955 -569.929 -3659.866 0.184 0.106 -0.054 -0.13 0.59 -0.79 0.02
1 2.75 275 1.719 -9.644 2.739 -5.035 8.667 3.510 -854.893 -629.890 -3539.944 0.077 0.354 -0.189 -0.13 0.59 -0.79 0.02
1 2.76 276 1.676 -9.539 2.686 -3.998 8.789 3.082 -869.883 -449.857 -3554.934 0.112 0.246 -0.139 -0.13 0.59 -0.79 0.02
1 2.77 277 1.441 -9.635 2.571 -2.441 7.721 2.838 -794.932 -524.958 -3479.983 0.338 0.340 -0.024 -0.13 0.6 -0.79 0.02
1 2.78 278 1.686 -9.486 2.538 0.153 6.409 1.740 -929.994 -434.867 -3494.973 0.086 0.191 0.010 -0.13 0.6 -0.79 0.02
1 2.79 279 1.609 -9.486 2.571 0.977 5.737 2.197 -929.994 -434.867 -3494.973 0.156 0.190 -0.020 -0.13 0.6 -0.79 0.02
1 2.80 280 1.518 -9.366 2.485 0.122 5.707 3.143 -839.903 -374.906 -3479.983 0.237 0.071 0.075 -0.12 0.59 -0.79 0.02
1 2.81 281 1.547 -9.395 2.682 0.183 5.859 3.387 -839.903 -374.906 -3479.983 0.201 0.099 -0.118 -0.12 0.59 -0.79 0.02
1 2.82 282 1.523 -9.319 2.552 0.397 4.242 4.364 -779.942 -389.896 -3494.973 0.218 0.022 0.015 -0.12 0.59 -0.79 0.02
1 2.83 283 1.528 -9.285 2.634 0.641 4.425 5.066 -839.903 -569.929 -3629.885 0.204 -0.012 -0.063 -0.12 0.59 -0.79 0.02
1 2.84 284 1.504 -9.410 2.514 1.129 4.334 5.310 -839.903 -494.978 -3404.882 0.219 0.112 0.061 -0.12 0.59 -0.79 0.02
1 2.85 285 1.547 -9.467 2.571 1.770 3.723 5.066 -704.991 -584.919 -3494.973 0.167 0.169 0.008 -0.12 0.59 -0.79 0.02
1 2.86 286 1.542 -9.481 2.653 1.495 3.296 5.127 -704.991 -584.919 -3494.973 0.162 0.183 -0.069 -0.12 0.59 -0.79 0.02
1 2.87 287 1.647 -9.496 2.514 1.984 2.441 4.944 -749.961 -509.968 -3419.872 0.048 0.197 0.074 -0.12 0.59 -0.79 0.02
1 2.88 288 1.700 -9.606 2.615 0.977 2.533 6.409 -749.961 -509.968 -3419.872 -0.022 0.306 -0.018 -0.12 0.59 -0.8 0.02
1 2.89 289 1.753 -9.491 2.562 -0.580 2.563 7.477 -734.971 -449.857 -3659.866 -0.084 0.190 0.037 -0.12 0.59 -0.8 0.02
1 2.90 290 1.834 -9.357 2.667 -1.129 2.594 7.294 -794.932 -524.958 -3404.882 -0.175 0.055 -0.068 -0.12 0.59 -0.8 0.02
1 2.91 291 1.772 -9.462 2.696 -1.648 3.723 8.850 -794.932 -524.958 -3404.882 -0.123 0.158 -0.096 -0.12 0.59 -0.8 0.02
1 2.92 292 1.733 -9.410 2.643 -3.021 5.981 9.369 -779.942 -584.919 -3599.905 -0.097 0.103 -0.044 -0.12 0.59 -0.8 0.02
1 2.93 293 1.796 -9.486 2.811 -2.594 6.775 8.606 -779.942 -584.919 -3599.905 -0.173 0.178 -0.212 -0.12 0.59 -0.8 0.02
1 2.94 294 1.868 -9.491 2.715 -2.319 8.240 8.637 -764.952 -569.929 -3659.866 -0.259 0.180 -0.116 -0.12 0.59 -0.8 0.02
1 2.95 295 1.628 -9.491 2.734 -1.007 9.613 7.080 -764.952 -569.929 -3659.866 -0.045 0.176 -0.134 -0.12 0.59 -0.8 0.02
1 2.96 296 1.446 -9.630 2.768 -0.824 10.223 7.477 -794.932 -569.929 -3509.963 0.123 0.313 -0.165 -0.11 0.6 -0.8 0.02
1 2.97 297 1.489 -9.501 2.686 -0.885 11.231 7.782 -764.952 -449.857 -3479.983 0.066 0.182 -0.080 -0.11 0.6 -0.8 0.02
1 2.98 298 1.312 -9.443 2.696 0.336 11.627 7.446 -764.952 -449.857 -3479.983 0.228 0.123 -0.086 -0.11 0.6 -0.8 0.02
1 2.99 299 1.508 -9.462 2.677 0.824 12.299 8.301 -749.961 -539.948 -3599.905 0.016 0.141 -0.062 -0.11 0.6 -0.8 0.02
1 3.00 300 1.360 -9.304 2.696 1.251 12.421 9.155 -749.961 -539.948 -3599.905 0.148 -0.018 -0.075 -0.11 0.6 -0.8 0.02
1 3.01 301 1.417 -9.386 2.648 0.793 13.062 9.186 -614.899 -494.978 -3374.901 0.074 0.063 -0.021 -0.11 0.59 -0.8 0.02
1 3.02 302 1.202 -9.338 2.610 0.824 12.848 9.766 -614.899 -494.978 -3374.901 0.271 0.014 0.023 -0.11 0.59 -0.8 0.02
1 3.03 303 1.168 -9.352 2.605 -0.122 13.275 9.583 -629.890 -584.919 -3599.905 0.266 0.025 0.038 -0.11 0.59 -0.8 0.02
1 3.04 304 1.202 -9.443 2.682 -0.244 13.123 10.071 -764.952 -569.929 -3509.963 0.213 0.114 -0.034 -0.1 0.6 -0.8 0.02
1 3.05 305 1.250 -9.457 2.734 -0.885 13.458 9.491 -764.952 -569.929 -3509.963 0.145 0.127 -0.083 -0.1 0.6 -0.8 0.02
1 3.06 306 1.259 -9.410 2.682 -1.678 13.123 9.735 -539.948 -449.857 -3659.866 0.116 0.077 -0.026 -0.1 0.6 -0.8 0.02
1 3.07 307 1.298 -9.505 2.600 -2.747 12.360 9.674 -539.948 -449.857 -3659.866 0.059 0.170 0.056 -0.1 0.6 -0.8 0.02
1 3.08 308 1.202 -9.491 2.629 -2.655 13.367 10.468 -584.919 -494.978 -3554.934 0.136 0.153 0.027 -0.1 0.6 -0.8 0.02
1 3.09 309 1.231 -9.630 2.763 -3.235 14.069 11.566 -584.919 -494.978 -3554.934 0.088 0.289 -0.107 -0.1 0.6 -0.8 0.02
1 3.10 310 1.432 -9.730 2.600 -6.195 15.595 13.245 -434.867 -524.958 -3554.934 -0.158 0.382 0.052 -0.09 0.6 -0.8 0.02
1 3.11 311 1.346 -9.821 2.629 -6.348 17.120 15.350 -659.870 -449.857 -3509.963 -0.095 0.469 0.017 -0.09 0.6 -0.8 0.02
1 3.12 312 1.413 -9.893 2.571 -4.883 16.571 16.419 -659.870 -449.857 -3509.963 -0.190 0.535 0.070 -0.09 0.6 -0.8 0.02
1 3.13 313 1.365 -9.836 2.552 -2.777 16.968 16.357 -374.906 -539.948 -3419.872 -0.171 0.473 0.085 -0.09 0.6 -0.8 0.02
1 3.14 314 1.288 -9.596 2.543 -0.397 16.022 14.130 -614.899 -419.876 -3479.983 -0.122 0.230 0.094 -0.09 0.6 -0.8 0.02
1 3.15 315 1.111 -9.520 2.773 -1.587 16.449 14.099 -509.968 -419.876 -3584.915 0.029 0.151 -0.133 -0.09 0.6 -0.8 0.02
1 3.16 316 1.202 -9.534 2.729 -3.387 18.616 14.099 -509.968 -419.876 -3584.915 -0.087 0.163 -0.088 -0.08 0.6 -0.8 0.02
1 3.17 317 1.149 -9.501 2.921 -4.334 20.325 16.205 -434.867 -494.978 -3584.915 -0.087 0.124 -0.278 -0.08 0.6 -0.8 0.02
1 3.18 318 0.953 -9.347 2.959 -3.876 22.522 15.808 -449.857 -389.896 -3494.973 0.080 -0.033 -0.316 -0.08 0.6 -0.8 0.02
1 3.19 319 0.867 -9.558 2.959 -2.533 23.316 15.472 -449.857 -389.896 -3494.973 0.135 0.175 -0.314 -0.08 0.6 -0.8 0.02
1 3.20 320 0.862 -9.400 2.931 -2.686 24.262 15.106 -494.978 -584.919 -3674.856 0.109 0.015 -0.282 -0.07 0.6 -0.8 0.02
1 3.21 321 0.757 -9.194 2.993 -2.045 24.994 13.733 -419.876 -509.968 -3359.911 0.184 -0.193 -0.341 -0.07 0.6 -0.8 0.02
1 3.22 322 0.785 -9.295 2.988 -2.197 25.208 13.275 -374.906 -464.997 -3419.872 0.125 -0.094 -0.332 -0.07 0.6 -0.8 0.02
1 3.23 323 0.886 -9.362 3.002 -2.411 25.543 12.543 -374.906 -464.997 -3419.872 -0.005 -0.029 -0.342 -0.07 0.6 -0.8 0.02
1 3.24 324 0.670 -9.304 2.911 -1.160 24.750 10.834 -254.984 -569.929 -3629.885 0.155 -0.090 -0.244 -0.06 0.6 -0.8 0.01
1 3.25 325 0.666 -9.208 2.935 -0.244 24.139 10.071 -344.925 -434.867 -3599.905 0.135 -0.186 -0.263 -0.06 0.6 -0.8 0.01
1 3.26 326 0.627 -9.266 2.888 0.366 23.712 7.233 -344.925 -434.867 -3599.905 0.151 -0.129 -0.209 -0.06 0.6 -0.8 0.01
1 3.27 327 0.651 -9.156 2.883 0.549 24.201 6.470 -254.984 -419.876 -3584.915 0.107 -0.239 -0.197 -0.06 0.6 -0.8 0.01
1 3.28 328 0.584 -9.357 2.782 -0.092 25.971 5.310 -224.854 -584.919 -3599.905 0.155 -0.037 -0.090 -0.06 0.6 -0.8 0.01
1 3.29 329 0.407 -9.620 2.720 -0.153 27.222 3.815 -284.964 -494.978 -3449.853 0.314 0.226 -0.024 -0.05 0.6 -0.8 0.01
1 3.30 330 0.445 -9.534 2.729 0.854 28.259 0.458 -284.964 -494.978 -3449.853 0.259 0.140 -0.029 -0.05 0.6 -0.8 0.01
1 3.31 331 0.326 -9.797 2.634 1.648 30.121 -1.343 -134.912 -524.958 -3584.915 0.363 0.404 0.072 -0.05 0.6 -0.8 0.01
1 3.32 332 0.393 -9.721 2.533 2.747 28.290 -1.434 -299.955 -629.890 -3599.905 0.274 0.329 0.186 -0.05 0.6 -0.8 0
1 3.33 333 0.287 -9.740 2.605 2.441 24.811 -1.434 -299.955 -629.890 -3599.905 0.369 0.350 0.121 -0.04 0.6 -0.8 0
1 3.34 334 0.340 -9.769 2.797 2.747 20.447 0.336 -134.912 -569.929 -3584.915 0.307 0.380 -0.064 -0.04 0.6 -0.8 0
1 3.35 335 0.551 -9.927 2.897 1.678 18.005 -0.824 -269.974 -509.968 -3359.911 0.086 0.539 -0.159 -0.04 0.6 -0.8 0
1 3.36 336 0.512 -10.090 2.591 2.411 18.372 2.045 -59.961 -449.857 -3509.963 0.118 0.703 0.153 0.04 -0.6 0.8 0
1 3.37 337 0.364 -9.850 2.586 9.369 18.005 2.991 -59.961 -449.857 -3509.963 0.258 0.464 0.163 0.04 -0.6 0.8 0
1 3.38 338 0.273 -9.343 2.720 12.817 16.052 2.167 -179.883 -569.929 -3449.853 0.336 -0.041 0.040 0.04 -0.6 0.8 0
1 3.39 339 0.354 -9.405 3.098 3.815 14.801 2.045 -59.961 -419.876 -3404.882 0.234 0.031 -0.302 0.03 -0.6 0.8 0
1 3.40 340 0.081 -9.582 2.935 -0.092 14.404 5.676 -59.961 -419.876 -3404.882 0.497 0.210 -0.130 0.03 -0.6 0.8 0
1 3.41 341 -0.081 -9.582 2.864 4.852 12.360 8.423 -179.883 -449.857 -3554.934 0.643 0.210 -0.054 0.03 -0.6 0.8 0
1 3.42 342 -0.081 -9.433 2.931 6.256 7.599 4.852 14.990 -389.896 -3494.973 0.624 0.063 -0.112 0.03 -0.6 0.8 0
1 3.43 343 0.057 -9.587 2.931 8.026 7.172 2.838 -179.883 -524.958 -3479.983 0.472 0.219 -0.101 0.03 -0.6 0.8 0
1 3.44 344 0.000 -9.510 2.797 7.446 7.324 2.716 -179.883 -524.958 -3479.983 0.519 0.146 0.048 0.03 -0.59 0.8 0
1 3.45 345 0.077 -9.299 2.902 6.928 6.195 2.136 -89.941 -584.919 -3464.993 0.433 -0.061 -0.043 0.03 -0.59 0.8 0
1 3.46 346 -0.168 -9.395 2.849 8.209 6.683 0.580 -179.883 -599.909 -3449.853 0.668 0.038 0.021 0.03 -0.59 0.8 0
1 3.47 347 -0.081 -9.405 2.825 10.193 5.829 0.488 -179.883 -599.909 -3449.853 0.566 0.056 0.073 0.03 -0.59 0.8 0.01
1 3.48 348 -0.225 -9.505 2.682 8.484 4.334 -1.648 -134.912 -494.978 -3509.963 0.704 0.161 0.232 0.03 -0.59 0.81 0.01
1 3.49 349 -0.220 -9.491 2.591 7.324 2.228 0.031 0.000 -674.860 -3584.915 0.696 0.150 0.335 0.03 -0.59 0.81 0.01
1 3.50 350 -0.235 -9.290 2.538 5.737 -1.068 -0.580 -14.990 -539.948 -3464.993 0.706 -0.048 0.397 0.03 -0.59 0.81 0.01
1 3.51 351 -0.206 -9.261 2.461 7.050 -7.538 0.031 -14.990 -539.948 -3464.993 0.674 -0.075 0.481 0.03 -0.59 0.81 0.01
1 3.52 352 0.024 -9.429 2.538 7.751 -8.789 -1.007 0.000 -599.909 -3449.853 0.444 0.095 0.412 0.03 -0.59 0.81 0.01
1 3.53 353 -0.014 -9.620 2.495 6.348 -10.254 -0.305 -119.922 -584.919 -3644.875 0.483 0.289 0.464 0.03 -0.59 0.81 0.01
1 3.54 354 -0.125 -9.807 2.366 5.096 -12.939 -1.434 -119.922 -584.919 -3644.875 0.598 0.480 0.604 0.03 -0.59 0.81 0
1 3.55 355 -0.388 -9.592 2.136 6.653 -16.205 -0.763 29.980 -599.909 -3584.915 0.866 0.265 0.837 0.03 -0.59 0.81 0
1 3.56 356 -0.527 -9.462 1.987 7.660 -23.285 -0.458 14.990 -539.948 -3419.872 1.008 0.138 0.989 0.03 -0.59 0.81 0
1 3.57 357 -0.623 -9.386 1.915 8.484 -31.464 -1.678 14.990 -539.948 -3419.872 1.110 0.063 1.065 0.03 -0.59 0.81 0
1 3.58 358 -0.335 -8.892 1.925 9.094 -42.420 -2.563 -104.932 -569.929 -3509.963 0.833 -0.429 1.059 0.03 -0.59 0.81 0
1 3.59 359 -0.206 -8.974 1.729 9.308 -46.021 -5.035 -104.932 -644.880 -3479.983 0.719 -0.345 1.260 -0.03 0.59 -0.81 0
1 3.60 360 -0.072 -8.979 1.801 10.376 -49.927 -6.989 -164.893 -629.890 -3464.993 0.607 -0.338 1.193 -0.04 0.59 -0.81 0
1 3.61 361 0.201 -8.888 1.681 12.665 -52.521 -6.805 -164.893 -629.890 -3464.993 0.394 -0.422 1.322 -0.04 0.59 -0.81 0.01
1 3.62 362 0.134 -9.017 1.882 13.062 -52.185 -6.500 -134.912 -524.958 -3509.963 0.492 -0.288 1.129 -0.05 0.59 -0.81 0.01
1 3.63 363 0.120 -9.165 2.231 9.613 -50.507 -4.761 -269.974 -734.971 -3539.944 0.537 -0.136 0.785 -0.05 0.59 -0.81 0.01
1 3.64 364 0.005 -9.592 2.725 5.463 -48.889 -4.761 -269.974 -734.971 -3539.944 0.680 0.294 0.295 -0.05 0.59 -0.81 0.01
1 3.65 365 -0.057 -10.295 2.897 2.380 -50.903 -3.815 -269.974 -704.991 -3494.973 0.767 1.000 0.123 -0.06 0.59 -0.81 0.01
1 3.66 366 0.096 -11.105 3.769 6.317 -52.460 -2.106 -344.925 -779.942 -3569.924 0.637 1.809 -0.752 -0.06 0.59 -0.81 0.02
1 3.67 367 0.718 -11.670 3.716 11.200 -55.725 -6.836 -299.955 -584.919 -3494.973 0.044 2.377 -0.697 -0.06 0.58 -0.81 0.02
1 3.68 368 0.790 -10.319 2.485 19.714 -61.218 -3.296 -299.955 -584.919 -3494.973 0.044 1.041 0.556 -0.07 0.58 -0.81 0.02
1 3.69 369 0.618 -9.577 2.490 27.344 -63.843 -0.214 -449.857 -584.919 -3569.924 0.249 0.309 0.575 -0.07 0.58 -0.81 0.03
1 3.70 370 1.513 -8.782 2.519 37.537 -72.052 7.111 -464.997 -569.929 -3704.986 -0.621 -0.470 0.586 -0.08 0.58 -0.81 0.03
1 3.71 371 2.356 -9.165 2.844 20.325 -75.867 4.791 -464.997 -569.929 -3704.986 -1.433 -0.072 0.296 -0.08 0.58 -0.81 0.03
1 3.72 372 2.576 -9.888 3.213 0.366 -65.979 6.317 -599.909 -659.870 -3644.875 -1.614 0.659 -0.063 -0.09 0.58 -0.81 0.04
1 3.73 373 2.102 -9.702 3.232 2.686 -39.032 13.275 -449.857 -659.870 -3674.856 -1.108 0.471 -0.093 -0.09 0.58 -0.81 0.04
1 3.74 374 1.638 -9.295 3.271 9.430 -32.654 14.679 -690.000 -794.932 -3554.934 -0.629 0.064 -0.137 -0.09 0.58 -0.81 0.04
1 3.75 375 1.307 -9.141 3.199 8.118 -33.173 14.648 -690.000 -794.932 -3554.934 -0.295 -0.086 -0.058 -0.09 0.58 -0.81 0.04
1 3.76 376 1.168 -9.314 3.251 5.615 -32.868 12.726 -629.890 -809.922 -3644.875 -0.157 0.091 -0.096 -0.1 0.57 -0.81 0.05
1 3.77 377 0.982 -9.199 3.141 10.712 -30.029 12.329 -779.942 -734.971 -3719.977 0.030 -0.021 0.021 -0.1 0.57 -0.81 0.05
1 3.78 378 0.862 -9.213 3.046 15.167 -28.870 9.735 -779.942 -734.971 -3719.977 0.148 -0.002 0.131 -0.1 0.57 -0.81 0.05
1 3.79 379 0.733 -9.275 3.160 16.571 -30.243 4.120 -629.890 -734.971 -3674.856 0.280 0.067 0.035 -0.1 0.57 -0.81 0.05
1 3.80 380 0.804 -9.285 3.175 14.801 -31.525 2.228 -690.000 -944.984 -3629.885 0.218 0.084 0.041 -0.1 0.57 -0.81 0.05
1 3.81 381 0.881 -9.328 3.261 14.160 -34.332 2.289 -749.961 -809.922 -3644.875 0.153 0.135 -0.028 -0.1 0.57 -0.81 0.05
1 3.82 382 1.015 -9.213 3.323 16.632 -35.950 1.831 -749.961 -809.922 -3644.875 0.032 0.027 -0.075 -0.1 0.57 -0.81 0.06
1 3.83 383 1.480 -9.161 3.548 14.496 -37.628 1.526 -824.913 -809.922 -3749.957 -0.400 -0.009 -0.262 -0.11 0.57 -0.81 0.06
1 3.84 384 1.710 -9.132 3.682 10.529 -35.919 4.791 -854.893 -809.922 -3719.977 -0.610 -0.030 -0.381 -0.11 0.56 -0.82 0.06
1 3.85 385 1.848 -8.816 3.730 7.416 -31.952 5.890 -854.893 -809.922 -3719.977 -0.734 -0.340 -0.418 -0.11 0.56 -0.82 0.06
1 3.86 386 1.954 -8.969 3.678 7.599 -27.313 5.096 -824.913 -809.922 -3644.875 -0.825 -0.181 -0.356 -0.11 0.56 -0.82 0.06
1 3.87 387 2.059 -9.007 3.625 8.179 -23.163 3.601 -779.942 -929.994 -3794.928 -0.917 -0.138 -0.293 -0.12 0.56 -0.82 0.07
1 3.88 388 1.891 -9.151 3.678 9.094 -18.555 0.824 -929.994 -854.893 -3719.977 -0.735 0.012 -0.334 -0.12 0.56 -0.82 0.07
1 3.89 389 1.662 -9.237 3.692 8.423 -16.235 0.000 -929.994 -854.893 -3719.977 -0.489 0.105 -0.336 -0.12 0.56 -0.82 0.07
1 3.90 390 1.571 -9.266 3.802 7.416 -15.350 -2.411 -854.893 -884.874 -3824.908 -0.384 0.140 -0.433 -0.12 0.56 -0.82 0.07
1 3.91 391 1.537 -9.529 3.749 9.033 -15.442 -5.554 -1019.936 -749.961 -3704.986 -0.318 0.416 -0.357 -0.12 0.56 -0.82 0.07
1 3.92 392 1.427 -9.587 3.692 10.437 -15.961 -6.531 -1019.936 -749.961 -3704.986 -0.189 0.481 -0.287 -0.12 0.56 -0.82 0.07
1 3.93 393 1.614 -9.429 3.840 10.773 -17.609 -4.028 -794.932 -914.854 -3809.918 -0.357 0.331 -0.421 -0.12 0.56 -0.82 0.07
1 3.94 394 1.868 -9.256 3.884 11.963 -17.578 -4.211 -944.984 -944.984 -3734.967 -0.594 0.167 -0.449 -0.13 0.56 -0.82 0.07
1 3.95 395 1.982 -9.146 3.907 14.801 -12.238 -6.409 -929.994 -809.922 -3719.977 -0.689 0.066 -0.455 -0.13 0.55 -0.82 0.07
1 3.96 396 1.858 -9.031 3.850 16.296 -6.836 -5.463 -929.994 -809.922 -3719.977 -0.544 -0.037 -0.375 -0.13 0.55 -0.82 0.07
1 3.97 397 1.695 -8.912 3.826 13.397 -2.655 -2.808 -944.984 -989.955 -3764.947 -0.363 -0.145 -0.326 -0.13 0.55 -0.82 0.07
1 3.98 398 1.417 -9.041 3.850 11.322 -2.228 -4.272 -929.994 -1004.945 -3749.957 -0.067 0.004 -0.308 -0.13 0.55 -0.82 0.07
1 3.99 399 1.374 -8.888 3.946 11.658 -2.930 -7.263 -929.994 -1004.945 -3749.957 -0.015 -0.141 -0.385 -0.13 0.55 -0.82 0.07
1 4.00 400 1.226 -8.619 3.869 9.308 -5.646 -9.796 -1004.945 -929.994 -3749.957 0.147 -0.399 -0.289 -0.13 0.55 -0.82 0.07
1 4.01 401 1.355 -8.375 3.931 7.721 -7.538 -11.139 -1004.945 -929.994 -3749.957 0.035 -0.635 -0.336 -0.13 0.55 -0.82 0.07
1 4.02 402 1.269 -8.059 4.013 5.432 -7.690 -11.566 -1019.936 -1094.887 -3809.918 0.142 -0.942 -0.404 -0.13 0.55 -0.82 0.06
1 4.03 403 1.393 -8.107 3.836 5.127 -7.355 -8.728 -1019.936 -1094.887 -3809.918 0.038 -0.886 -0.215 -0.13 0.55 -0.82 0.06
1 4.04 404 1.599 -8.026 3.745 4.944 -8.026 -10.071 -1019.936 -869.883 -3734.967 -0.150 -0.960 -0.112 -0.13 0.55 -0.83 0.06
1 4.05 405 2.102 -8.327 3.654 3.754 -7.385 -12.939 -1019.936 -914.854 -3915.000 -0.608 -0.643 -0.002 -0.13 0.54 -0.83 0.06
1 4.06 406 2.236 -8.236 3.764 3.052 -3.601 -12.604 -1019.936 -914.854 -3915.000 -0.715 -0.727 -0.105 -0.13 0.54 -0.83 0.06
1 4.07 407 2.212 -8.385 3.840 1.038 -0.366 -11.597 -989.955 -989.955 -3734.967 -0.666 -0.571 -0.175 -0.14 0.54 -0.83 0.06
1 4.08 408 2.251 -8.500 3.706 -1.099 3.479 -9.644 -989.955 -989.955 -3734.967 -0.683 -0.451 -0.037 -0.14 0.54 -0.83 0.06
1 4.09 409 2.255 -8.658 3.673 -0.916 6.561 -10.590 -1064.906 -1064.906 -3809.918 -0.670 -0.289 -0.000 -0.14 0.54 -0.83 0.06
1 4.10 410 2.203 -8.682 3.606 -1.099 6.287 -11.536 -1064.906 -1064.906 -3809.918 -0.601 -0.261 0.069 -0.14 0.54 -0.83 0.06
1 4.11 411 2.006 -8.605 3.587 -9.308 2.258 -13.123 -1004.945 -884.874 -3794.928 -0.387 -0.334 0.090 -0.14 0.54 -0.83 0.06
1 4.12 412 1.954 -8.868 3.773 -14.648 1.556 -14.771 -974.965 -1079.896 -3899.859 -0.290 -0.072 -0.121 -0.14 0.54 -0.83 0.05
1 4.13 413 1.968 -8.897 3.773 -13.275 2.472 -14.008 -974.965 -1079.896 -3899.859 -0.283 -0.046 -0.137 -0.14 0.54 -0.83 0.05
1 4.14 414 1.915 -8.892 3.649 -7.141 5.219 -13.458 -1004.945 -959.975 -3794.928 -0.211 -0.051 -0.023 -0.14 0.54 -0.83 0.05
1 4.15 415 1.796 -8.912 3.788 -5.829 4.517 -13.886 -1004.945 -959.975 -3794.928 -0.073 -0.031 -0.167 -0.14 0.54 -0.83 0.05
1 4.16 416 1.537 -8.907 3.769 -10.040 0.305 -14.160 -1094.887 -1139.857 -3764.947 0.204 -0.034 -0.153 -0.14 0.54 -0.83 0.05
1 4.17 417 1.465 -9.247 3.682 -15.839 -3.448 -12.116 -1094.887 -1139.857 -3764.947 0.295 0.305 -0.080 -0.14 0.54 -0.83 0.05
1 4.18 418 1.374 -9.079 3.682 -14.832 -5.493 -10.101 -1094.887 -1019.936 -3809.918 0.404 0.133 -0.099 -0.14 0.55 -0.83 0.05
1 4.19 419 1.408 -9.046 3.716 -13.031 -7.721 -9.338 -1079.896 -959.975 -3674.856 0.386 0.094 -0.153 -0.14 0.55 -0.82 0.05
1 4.20 420 1.427 -9.204 3.936 -12.207 -10.437 -5.676 -1079.896 -959.975 -3674.856 0.395 0.245 -0.406 -0.14 0.55 -0.82 0.05
1 4.21 421 1.748 -9.338 3.931 -12.634 -11.444 -5.188 -929.994 -1049.916 -3719.977 0.085 0.375 -0.418 -0.14 0.55 -0.82 0.05
1 4.22 422 1.882 -9.429 3.931 -12.085 -12.177 -4.395 -929.994 -1049.916 -3719.977 -0.037 0.462 -0.434 -0.14 0.55 -0.82 0.04
1 4.23 423 2.131 -9.228 3.850 -9.338 -11.475 -4.486 -974.965 -884.874 -3794.928 -0.274 0.257 -0.368 -0.15 0.55 -0.82 0.04
1 4.24 424 2.150 -9.323 3.812 -6.714 -10.712 -1.465 -1229.949 -1049.916 -3719.977 -0.280 0.351 -0.341 -0.15 0.55 -0.82 0.05
1 4.25 425 2.112 -9.285 3.816 -5.829 -10.773 0.153 -1079.896 -779.942 -3539.944 -0.231 0.312 -0.355 -0.15 0.55 -0.82 0.05
1 4.26 426 2.279 -9.333 3.678 -5.524 -12.024 1.068 -1034.926 -1049.916 -3674.856 -0.391 0.358 -0.225 -0.15 0.55 -0.82 0.05
1 4.27 427 2.538 -9.343 3.620 -3.632 -11.780 1.648 -1034.926 -1049.916 -3674.856 -0.634 0.365 -0.183 -0.15 0.55 -0.82 0.05
1 4.28 428 2.533 -9.012 3.606 -1.709 -11.231 1.617 -1094.887 -914.854 -3629.885 -0.621 0.034 -0.174 -0.15 0.55 -0.82 0.05
1 4.29 429 2.619 -9.108 3.716 -1.984 -9.705 1.038 -1094.887 -914.854 -3629.885 -0.699 0.131 -0.287 -0.15 0.55 -0.82 0.05
1 4.30 430 2.471 -8.935 3.668 -4.059 -9.033 -1.465 -1169.988 -944.984 -3734.967 -0.540 -0.041 -0.242 -0.15 0.55 -0.82 0.05
1 4.31 431 2.500 -8.777 3.687 -8.118 -9.460 -4.639 -1109.877 -854.893 -3674.856 -0.557 -0.199 -0.267 -0.15 0.55 -0.82 0.05
1 4.32 432 2.385 -9.007 3.687 -8.240 -7.965 -7.690 -1139.857 -1019.936 -3659.866 -0.425 0.031 -0.279 -0.15 0.55 -0.82 0.05
1 4.33 433 2.452 -8.916 3.462 -6.287 -8.545 -11.078 -1154.998 -959.975 -3749.957 -0.473 -0.060 -0.065 -0.15 0.55 -0.82 0.05
1 4.34 434 2.495 -8.763 3.357 -5.005 -11.444 -13.306 -1154.998 -959.975 -3749.957 -0.494 -0.212 0.032 -0.16 0.55 -0.82 0.05
1 4.35 435 2.567 -8.562 3.376 -13.489 -15.900 -12.146 -1169.988 -1019.936 -3704.986 -0.508 -0.409 -0.010 -0.16 0.55 -0.82 0.05
1 4.36 436 2.562 -8.677 3.500 -17.029 -14.374 -10.284 -1169.988 -1019.936 -3704.986 -0.474 -0.295 -0.157 -0.16 0.55 -0.82 0.05
1 4.37 437 2.571 -8.864 3.352 -16.296 -10.590 -9.857 -1169.988 -1019.936 -3704.986 -0.458 -0.112 -0.033 -0.16 0.55 -0.82 0.04
1 4.38 438 2.471 -8.835 3.237 -13.458 -8.606 -9.674 -1184.978 -959.975 -3674.856 -0.334 -0.143 0.060 -0.16 0.55 -0.82 0.04
1 4.39 439 2.366 -8.682 3.285 -11.047 -10.712 -6.836 -1244.939 -944.984 -3629.885 -0.208 -0.298 -0.007 -0.16 0.55 -0.82 0.04
1 4.40 440 2.366 -8.835 3.390 -10.925 -11.078 -5.829 -1244.939 -749.961 -3554.934 -0.189 -0.147 -0.129 -0.17 0.55 -0.82 0.04
1 4.41 441 2.322 -8.801 3.280 -10.803 -9.125 -4.913 -1244.939 -749.961 -3554.934 -0.129 -0.182 -0.035 -0.17 0.55 -0.81 0.04
1 4.42 442 2.351 -8.825 3.285 -10.803 -6.531 -4.303 -1394.991 -944.984 -3764.947 -0.132 -0.163 -0.072 -0.17 0.55 -0.81 0.04
1 4.43 443 2.203 -8.940 3.275 -7.507 -4.913 -3.540 -1394.991 -944.984 -3764.947 0.027 -0.050 -0.075 -0.17 0.55 -0.81 0.04
1 4.44 444 2.140 -8.849 3.055 -6.226 -6.775 -2.167 -1259.929 -854.893 -3644.875 0.097 -0.142 0.136 -0.17 0.56 -0.81 0.04
1 4.45 445 2.241 -8.916 3.137 -4.761 -5.463 -1.373 -1349.871 -869.883 -3704.986 0.004 -0.077 0.045 -0.17 0.56 -0.81 0.04
1 4.46 446 2.184 -8.854 3.117 -5.829 -5.585 -0.702 -1364.861 -854.893 -3599.905 0.066 -0.140 0.058 -0.17 0.56 -0.81 0.04
1 4.47 447 2.179 -8.964 3.079 -10.529 -6.866 0.763 -1259.929 -779.942 -3674.856 0.075 -0.032 0.089 -0.17 0.56 -0.81 0.04
1 4.48 448 2.279 -9.041 3.055 -13.611 -8.301 0.671 -1259.929 -779.942 -3674.856 -0.022 0.041 0.099 -0.17 0.56 -0.81 0.04
1 4.49 449 2.322 -9.089 3.050 -8.392 -5.280 0.153 -1439.962 -884.874 -3539.944 -0.057 0.078 0.067 -0.17 0.56 -0.81 0.05
1 4.50 450 2.318 -9.031 2.969 -5.829 -4.425 0.336 -1439.962 -884.874 -3539.944 -0.049 0.018 0.137 -0.17 0.56 -0.81 0.05
1 4.51 451 2.332 -9.055 2.873 -5.402 -4.425 0.458 -1409.981 -884.874 -3794.928 -0.060 0.039 0.224 -0.17 0.56 -0.81 0.05
1 4.52 452 2.136 -9.113 2.897 -6.500 -4.517 0.336 -1364.861 -929.994 -3569.924 0.140 0.095 0.191 -0.18 0.56 -0.81 0.05
1 4.53 453 2.083 -9.156 2.744 -6.805 -5.493 -0.549 -1304.900 -809.922 -3494.973 0.195 0.135 0.334 -0.18 0.56 -0.81 0.05
1 4.54 454 1.987 -9.137 2.605 -4.883 -7.660 -0.793 -1409.981 -779.942 -3569.924 0.294 0.112 0.461 -0.18 0.56 -0.81 0.05
1 4.55 455 2.184 -9.022 2.639 -4.883 -9.125 0.671 -1409.981 -779.942 -3569.924 0.101 -0.006 0.415 -0.18 0.56 -0.81 0.05
1 4.56 456 2.342 -9.156 2.615 -6.165 -10.376 3.510 -1364.861 -734.971 -3644.875 -0.052 0.122 0.416 -0.18 0.56 -0.81 0.05
1 4.57 457 2.299 -9.132 2.610 -8.087 -9.491 4.211 -1364.861 -734.971 -3644.875 -0.009 0.093 0.406 -0.18 0.56 -0.81 0.05
1 4.58 458 2.500 -9.184 2.466 -8.545 -6.622 5.981 -1319.890 -944.984 -3659.866 -0.212 0.140 0.534 -0.18 0.56 -0.81 0.05
1 4.59 459 2.868 -9.223 2.610 -7.813 -4.486 6.134 -1439.962 -884.874 -3644.875 -0.583 0.172 0.375 -0.18 0.56 -0.81 0.05
1 4.60 460 2.677 -9.247 2.500 -7.813 -2.014 7.202 -1334.880 -854.893 -3539.944 -0.395 0.191 0.471 -0.18 0.56 -0.81 0.05
1 4.61 461 2.710 -9.424 2.504 -10.773 0.977 7.660 -1349.871 -839.903 -3704.986 -0.433 0.362 0.452 -0.18 0.56 -0.81 0.05
1 4.62 462 2.773 -9.247 2.356 -11.322 2.930 7.965 -1349.871 -839.903 -3704.986 -0.502 0.178 0.583 -0.18 0.56 -0.8 0.05
1 4.63 463 2.907 -9.515 2.332 -9.522 4.608 6.989 -1319.890 -794.932 -3554.934 -0.644 0.438 0.590 -0.18 0.56 -0.8 0.05
1 4.64 464 2.931 -9.252 2.313 -7.721 6.226 5.219 -1319.890 -794.932 -3554.934 -0.681 0.163 0.580 -0.18 0.57 -0.8 0.05
1 4.65 465 2.974 -9.266 2.203 -9.399 6.256 3.845 -1409.981 -704.991 -3644.875 -0.727 0.173 0.679 -0.18 0.57 -0.8 0.05
1 4.66 466 3.204 -9.285 2.385 -11.505 7.233 3.784 -1244.939 -794.932 -3584.915 -0.959 0.187 0.483 -0.18 0.57 -0.8 0.05
1 4.67 467 3.237 -9.275 2.327 -13.306 10.254 2.655 -1244.939 -794.932 -3584.915 -0.993 0.172 0.524 -0.18 0.57 -0.8 0.05
1 4.68 468 3.199 -9.366 2.366 -14.771 17.670 3.052 -1229.949 -854.893 -3599.905 -0.956 0.257 0.468 -0.18 0.57 -0.8 0.05
1 4.69 469 3.026 -9.237 2.423 -14.343 22.308 2.716 -1229.949 -854.893 -3599.905 -0.787 0.122 0.393 -0.18 0.57 -0.8 0.05
1 4.70 470 2.744 -9.280 2.466 -14.557 24.475 1.709 -1319.890 -674.860 -3509.963 -0.509 0.159 0.334 -0.18 0.57 -0.8 0.05
1 4.71 471 2.428 -9.505 2.480 -14.252 26.550 -0.946 -1319.890 -674.860 -3509.963 -0.206 0.372 0.293 -0.17 0.57 -0.8 0.04
1 4.72 472 2.504 -9.520 2.413 -12.543 26.367 -2.991 -1304.900 -734.971 -3419.872 -0.290 0.382 0.349 -0.17 0.57 -0.8 0.04
1 4.73 473 2.490 -9.568 2.433 -12.177 25.665 -3.906 -1304.900 -734.971 -3569.924 -0.279 0.426 0.320 -0.17 0.57 -0.8 0.04
1 4.74 474 2.385 -9.539 2.394 -11.353 25.604 -2.930 -1304.900 -734.971 -3569.924 -0.177 0.393 0.349 -0.17 0.58 -0.8 0.04
1 4.75 475 2.423 -9.472 2.375 -12.299 25.177 -2.472 -1184.978 -704.991 -3494.973 -0.220 0.322 0.359 -0.17 0.58 -0.8 0.04
1 4.76 476 2.428 -9.544 2.514 -14.374 25.147 -2.747 -1184.978 -704.991 -3494.973 -0.230 0.390 0.211 -0.17 0.58 -0.8 0.04
1 4.77 477 2.385 -9.524 2.476 -15.778 24.902 -3.021 -1199.968 -674.860 -3404.882 -0.192 0.366 0.237 -0.17 0.58 -0.8 0.04
1 4.78 478 2.351 -9.577 2.629 -16.022 23.804 -4.517 -1199.968 -674.860 -3404.882 -0.162 0.414 0.070 -0.16 0.58 -0.8 0.03
1 4.79 479 2.299 -9.491 2.710 -14.313 23.377 -5.707 -1139.857 -869.883 -3554.934 -0.112 0.319 -0.039 -0.16 0.58 -0.8 0.03
1 4.80 480 2.399 -9.477 2.706 -13.825 23.956 -5.615 -1274.919 -644.880 -3479.983 -0.212 0.302 -0.045 -0.16 0.58 -0.8 0.03
1 4.81 481 2.164 -9.376 2.658 -14.404 24.689 -5.188 -1274.919 -644.880 -3479.983 0.022 0.198 -0.008 -0.16 0.58 -0.8 0.03
1 4.82 482 2.150 -9.405 2.706 -12.329 25.330 -6.165 -1184.978 -629.890 -3464.993 0.035 0.223 -0.066 -0.16 0.58 -0.8 0.03
1 4.83 483 2.078 -9.390 2.615 -8.514 25.116 -5.585 -1184.978 -629.890 -3464.993 0.105 0.207 0.019 -0.16 0.58 -0.8 0.03
1 4.84 484 2.112 -9.443 2.753 -8.545 23.193 -6.348 -1109.877 -629.890 -3569.924 0.069 0.258 -0.123 -0.16 0.58 -0.8 0.02
1 4.85 485 2.174 -9.477 2.624 -9.430 20.660 -6.775 -1109.877 -629.890 -3569.924 0.006 0.291 0.004 -0.16 0.58 -0.8 0.02
1 4.86 486 2.208 -9.271 2.605 -5.310 21.210 -5.432 -1184.978 -584.919 -3599.905 -0.025 0.083 0.015 -0.15 0.59 -0.8 0.02
1 4.87 487 2.112 -9.194 2.610 -2.197 21.790 -4.944 -1139.857 -644.880 -3479.983 0.071 0.007 0.012 -0.15 0.59 -0.8 0.02
1 4.88 488 2.136 -9.223 2.581 -0.549 21.179 -4.028 -1139.857 -644.880 -3479.983 0.045 0.038 0.049 -0.15 0.59 -0.8 0.02
1 4.89 489 2.088 -9.175 2.557 -3.235 19.470 -2.197 -1109.877 -629.890 -3599.905 0.090 -0.009 0.080 -0.15 0.59 -0.8 0.02
1 4.90 490 2.117 -9.228 2.528 -8.942 17.395 2.106 -1064.906 -644.880 -3509.963 0.057 0.043 0.109 -0.15 0.59 -0.8 0.02
1 4.91 491 2.327 -9.290 2.591 -8.575 19.135 3.906 -1019.936 -644.880 -3554.934 -0.162 0.102 0.042 -0.15 0.59 -0.8 0.02
1 4.92 492 2.241 -9.161 2.490 -4.578 19.318 3.265 -1019.936 -644.880 -3554.934 -0.087 -0.032 0.137 -0.15 0.59 -0.8 0.02
1 4.93 493 2.016 -8.964 2.461 -1.892 16.937 5.249 -929.994 -464.997 -3389.892 0.116 -0.233 0.167 -0.15 0.59 -0.8 0.01
1 4.94 494 2.002 -9.026 2.466 -5.829 12.054 4.578 -914.854 -599.909 -3479.983 0.117 -0.173 0.164 -0.15 0.59 -0.8 0.01
1 4.95 495 2.251 -9.256 2.533 -9.827 9.705 0.977 -914.854 -599.909 -3479.983 -0.141 0.053 0.091 -0.14 0.59 -0.8 0.01
1 4.96 496 2.318 -9.438 2.576 -9.247 11.169 -1.465 -989.955 -524.958 -3404.882 -0.211 0.231 0.038 -0.14 0.59 -0.8 0.01
1 4.97 497 2.332 -9.453 2.576 -6.805 12.146 -1.648 -929.994 -539.948 -3464.993 -0.225 0.244 0.030 -0.14 0.59 -0.8 0.01
1 4.98 498 2.179 -9.419 2.586 -7.050 11.139 -0.366 -1019.936 -599.909 -3449.853 -0.072 0.209 0.016 -0.14 0.59 -0.8 0.01
1 4.99 499 1.973 -9.496 2.413 -8.881 11.475 -0.397 -1019.936 -599.909 -3449.853 0.131 0.283 0.183 -0.14 0.59 -0.8 0.01
1 5.00 500 2.011 -9.544 2.366 -10.254 11.719 -1.373 -974.965 -629.890 -3539.944 0.086 0.325 0.214 -0.14 0.59 -0.79 0.01
1 5.01 501 2.064 -9.496 2.322 -9.796 11.871 -1.678 -899.864 -704.991 -3314.940 0.031 0.273 0.247 -0.14 0.59 -0.79 0.01
1 5.02 502 2.169 -9.611 2.399 -6.928 11.475 -3.937 -899.864 -704.991 -3314.940 -0.074 0.386 0.162 -0.14 0.59 -0.79 0.01
1 5.03 503 2.236 -9.577 2.346 -4.669 9.644 -2.991 -944.984 -569.929 -3374.901 -0.140 0.351 0.209 -0.14 0.59 -0.79 0.01
1 5.04 504 2.217 -9.433 2.260 -4.608 7.660 -2.808 -974.965 -434.867 -3389.892 -0.118 0.207 0.292 -0.14 0.59 -0.79 0.01
1 5.05 505 2.361 -9.127 2.322 -5.920 4.730 -2.625 -914.854 -494.978 -3404.882 -0.259 -0.100 0.225 -0.14 0.59 -0.79 0.01
1 5.06 506 2.610 -9.137 2.385 -7.050 4.883 -2.747 -914.854 -494.978 -3404.882 -0.504 -0.091 0.157 -0.14 0.59 -0.79 0.01
1 5.07 507 2.557 -9.113 2.428 -8.820 7.416 -1.587 -1079.896 -539.948 -3494.973 -0.445 -0.116 0.106 -0.14 0.59 -0.79 0.01
1 5.08 508 2.619 -9.405 2.299 -11.658 11.871 0.336 -794.932 -494.978 -3479.983 -0.501 0.172 0.215 -0.14 0.59 -0.79 0.01
1 5.09 509 2.538 -9.587 2.217 -10.162 12.909 1.129 -794.932 -494.978 -3479.983 -0.420 0.351 0.285 -0.14 0.59 -0.79 0
1 5.10 510 2.370 -9.630 2.275 -8.209 13.519 1.648 -1004.945 -434.867 -3494.973 -0.256 0.391 0.218 -0.14 0.59 -0.79 0
1 5.11 511 2.136 -9.462 2.318 -5.981 12.726 1.831 -929.994 -539.948 -3389.892 -0.027 0.220 0.168 -0.14 0.59 -0.79 0
1 5.12 512 2.069 -9.558 2.342 -5.157 12.146 2.808 -869.883 -674.860 -3509.963 0.034 0.314 0.140 -0.14 0.6 -0.79 0
1 5.13 513 1.939 -9.390 2.500 -3.876 12.238 3.479 -869.883 -674.860 -3509.963 0.155 0.143 -0.021 -0.14 0.6 -0.79 0
1 5.14 514 1.901 -9.371 2.524 -2.899 12.482 5.035 -869.883 -374.906 -3509.963 0.184 0.122 -0.046 -0.14 0.6 -0.79 0
1 5.15 515 1.954 -9.381 2.595 -0.854 12.726 5.554 -1019.936 -524.958 -3374.901 0.107 0.127 -0.113 -0.13 0.6 -0.79 0
1 5.16 516 1.877 -9.376 2.658 -0.671 11.566 4.456 -1019.936 -524.958 -3374.901 0.171 0.121 -0.171 -0.13 0.6 -0.79 0
1 5.17 517 1.987 -9.323 2.615 0.885 10.132 2.808 -854.893 -539.948 -3464.993 0.051 0.067 -0.122 -0.13 0.6 -0.79 0
1 5.18 518 1.954 -9.347 2.686 1.831 9.216 1.221 -944.984 -419.876 -3479.983 0.078 0.092 -0.187 -0.13 0.6 -0.79 0
1 5.19 519 1.906 -9.400 2.710 1.648 8.911 1.892 -1004.945 -584.919 -3359.911 0.121 0.145 -0.204 -0.13 0.6 -0.79 0
1 5.20 520 1.786 -9.433 2.787 -0.183 10.101 3.784 -1004.945 -584.919 -3359.911 0.233 0.179 -0.273 -0.13 0.6 -0.79 0
1 5.21 521 1.599 -9.366 2.758 -1.648 10.132 4.456 -974.965 -434.867 -3359.911 0.411 0.112 -0.237 -0.13 0.6 -0.79 0
1 5.22 522 1.532 -9.477 2.653 -1.190 10.132 4.272 -869.883 -599.909 -3479.983 0.465 0.221 -0.127 -0.13 0.6 -0.79 0
1 5.23 523 1.580 -9.256 2.552 1.007 8.514 3.510 -869.883 -599.909 -3479.983 0.394 -0.002 -0.017 -0.13 0.59 -0.79 0
1 5.24 524 1.561 -9.117 2.734 2.808 7.721 3.601 -764.952 -644.880 -3299.950 0.403 -0.141 -0.192 -0.13 0.59 -0.79 0
1 5.25 525 1.700 -9.256 2.792 2.747 7.751 3.510 -704.991 -509.968 -3314.940 0.255 -0.002 -0.240 -0.13 0.59 -0.79 0
1 5.26 526 1.619 -9.319 2.739 1.251 8.484 5.096 -779.942 -539.948 -3419.872 0.326 0.061 -0.179 -0.13 0.59 -0.79 0
1 5.27 527 1.642 -9.343 2.854 2.655 8.392 5.341 -779.942 -539.948 -3419.872 0.291 0.084 -0.287 -0.13 0.59 -0.79 0
1 5.28 528 1.585 -9.357 2.653 4.456 7.813 4.547 -794.932 -599.909 -3299.950 0.336 0.099 -0.077 -0.13 0.59 -0.79 0
1 5.29 529 1.738 -9.448 2.782 6.378 6.439 3.876 -824.913 -584.919 -3389.892 0.172 0.190 -0.196 -0.13 0.59 -0.79 0
1 5.30 530 1.796 -9.424 2.720 8.301 6.531 1.678 -824.913 -584.919 -3389.892 0.098 0.171 -0.106 -0.12 0.59 -0.8 0
1 5.31 531 1.777 -9.256 2.682 7.813 6.378 1.495 -779.942 -464.997 -3464.993 0.111 0.006 -0.053 -0.12 0.59 -0.8 0
1 5.32 532 1.781 -9.299 2.696 6.775 6.256 1.068 -854.893 -464.997 -3419.872 0.102 0.053 -0.052 -0.12 0.59 -0.8 0
1 5.33 533 1.829 -9.266 2.634 5.798 6.531 1.007 -854.893 -464.997 -3419.872 0.051 0.022 0.023 -0.12 0.59 -0.8 0
1 5.34 534 1.872 -9.208 2.495 6.104 7.629 1.831 -824.913 -584.919 -3494.973 0.004 -0.032 0.174 -0.12 0.59 -0.8 0
1 5.35 535 1.882 -9.170 2.576 5.310 8.179 2.716 -824.913 -659.870 -3419.872 -0.009 -0.068 0.104 -0.12 0.59 -0.8 0
1 5.36 536 1.839 -9.228 2.753 3.021 9.094 4.456 -824.913 -434.867 -3359.911 0.028 -0.009 -0.062 -0.12 0.59 -0.8 0
1 5.37 537 1.681 -9.429 2.691 0.580 11.932 6.866 -824.913 -434.867 -3359.911 0.166 0.193 0.016 -0.12 0.59 -0.8 0
1 5.38 538 1.556 -9.596 2.600 0.244 12.726 7.294 -734.971 -599.909 -3254.979 0.275 0.359 0.112 -0.12 0.59 -0.8 0
1 5.39 539 1.350 -9.592 2.739 -0.031 11.963 8.850 -659.870 -524.958 -3299.950 0.464 0.352 -0.022 -0.12 0.59 -0.8 0
1 5.40 540 1.336 -9.587 2.873 0.641 10.742 9.857 -659.870 -524.958 -3299.950 0.459 0.345 -0.151 -0.12 0.59 -0.8 0
1 5.41 541 1.144 -9.654 2.768 0.092 10.345 11.322 -839.903 -569.929 -3254.979 0.629 0.409 -0.040 -0.12 0.59 -0.8 0
1 5.42 542 1.049 -9.711 2.873 -0.763 8.881 13.062 -659.870 -599.909 -3509.963 0.700 0.464 -0.141 -0.12 0.59 -0.8 0
1 5.43 543 0.996 -9.663 2.830 -0.092 8.331 14.191 -704.991 -659.870 -3494.973 0.726 0.412 -0.095 -0.11 0.59 -0.8 0.01
1 5.44 544 0.886 -9.726 3.122 3.357 6.042 16.480 -704.991 -659.870 -3494.973 0.779 0.467 -0.376 -0.11 0.59 -0.8 0.01
1 5.45 545 0.742 -9.797 3.218 4.395 4.883 17.090 -764.952 -599.909 -3404.882 0.891 0.536 -0.461 -0.11 0.59 -0.8 0.01
1 5.46 546 0.795 -9.553 3.433 4.395 2.075 20.203 -614.899 -494.978 -3449.853 0.804 0.289 -0.665 -0.11 0.59 -0.8 0.01
1 5.47 547 0.857 -9.544 3.457 1.923 1.129 20.050 -614.899 -494.978 -3449.853 0.706 0.277 -0.677 -0.11 0.59 -0.8 0.01
1 5.48 548 0.929 -9.390 3.433 1.282 3.204 20.691 -629.890 -629.890 -3419.872 0.600 0.121 -0.644 -0.11 0.59 -0.8 0.01
1 5.49 549 1.006 -9.165 3.477 0.519 4.303 20.325 -899.864 -584.919 -3464.993 0.489 -0.107 -0.678 -0.1 0.59 -0.8 0.01
1 5.50 550 1.154 -9.113 3.601 -0.763 4.608 18.433 -539.948 -569.929 -3374.901 0.307 -0.162 -0.794 -0.1 0.59 -0.8 0.01
1 5.51 551 1.212 -9.285 3.769 -2.594 5.035 15.106 -539.948 -569.929 -3374.901 0.218 0.007 -0.954 -0.1 0.59 -0.8 0.02
1 5.52 552 1.475 -9.491 3.778 -0.427 9.857 11.536 -690.000 -644.880 -3404.882 -0.093 0.210 -0.950 -0.1 0.59 -0.8 0.02
1 5.53 553 1.528 -9.242 3.702 4.211 11.719 9.369 -690.000 -494.978 -3404.882 -0.164 -0.038 -0.862 -0.1 0.59 -0.8 0.02
1 5.54 554 1.441 -9.007 3.635 6.287 10.773 9.064 -690.000 -494.978 -3404.882 -0.094 -0.270 -0.779 -0.1 0.59 -0.8 0.02
1 5.55 555 1.891 -9.055 3.673 9.338 13.977 4.120 -509.968 -644.880 -3449.853 -0.559 -0.218 -0.798 -0.1 0.59 -0.8 0.02
1 5.56 556 1.590 -9.639 3.548 13.733 25.971 1.221 -494.978 -539.948 -3539.944 -0.264 0.372 -0.649 -0.1 0.59 -0.8 0.02
1 5.57 557 1.422 -9.496 3.347 15.472 28.320 1.343 -674.860 -584.919 -3464.993 -0.104 0.237 -0.417 -0.09 0.58 -0.81 0.01
1 5.58 558 1.355 -9.687 3.625 15.747 23.834 0.031 -674.860 -584.919 -3464.993 -0.049 0.437 -0.663 -0.09 0.58 -0.81 0.01
1 5.59 559 1.523 -10.027 3.706 15.717 22.064 -0.153 -494.978 -509.968 -3539.944 -0.237 0.795 -0.682 -0.09 0.58 -0.81 0.01
1 5.60 560 1.398 -9.912 3.500 17.304 23.590 0.916 -464.997 -644.880 -3479.983 -0.122 0.688 -0.447 -0.09 0.58 -0.81 0.01
1 5.61 561 1.336 -9.630 3.558 23.773 25.726 -1.770 -464.997 -644.880 -3479.983 -0.070 0.415 -0.471 -0.09 0.58 -0.81 0.01
1 5.62 562 1.154 -9.424 3.601 26.795 24.017 -1.404 -569.929 -539.948 -3539.944 0.104 0.223 -0.471 -0.09 0.58 -0.81 0.01
1 5.63 563 1.101 -9.376 3.764 22.064 19.745 0.610 -464.997 -644.880 -3554.934 0.147 0.189 -0.589 -0.08 0.58 -0.81 0.01
1 5.64 564 1.015 -9.223 3.630 17.670 17.731 3.510 -524.958 -704.991 -3644.875 0.222 0.047 -0.417 -0.08 0.57 -0.81 0.01
1 5.65 565 0.996 -9.046 3.596 18.921 19.745 1.617 -524.958 -704.991 -3644.875 0.227 -0.120 -0.351 -0.08 0.57 -0.82 0.01
1 5.66 566 0.958 -9.036 3.486 18.799 22.186 1.770 -464.997 -674.860 -3449.853 0.252 -0.119 -0.207 -0.08 0.57 -0.82 0.01
1 5.67 567 0.670 -8.730 3.256 16.235 19.501 4.120 -389.896 -599.909 -3629.885 0.510 -0.406 0.089 -0.08 0.57 -0.82 0
1 5.68 568 0.527 -8.538 3.242 15.625 14.435 4.395 -389.896 -599.909 -3629.885 0.635 -0.590 0.131 -0.08 0.57 -0.82 0
1 5.69 569 0.646 -8.414 3.342 14.069 12.482 4.211 -464.997 -674.860 -3449.853 0.499 -0.706 0.057 -0.07 0.57 -0.82 0
1 5.70 570 0.790 -8.591 3.400 12.238 12.634 2.319 -509.968 -719.981 -3404.882 0.342 -0.522 0.024 -0.07 0.57 -0.82 0
1 5.71 571 0.781 -8.873 2.974 7.019 11.444 -2.319 -419.876 -779.942 -3599.905 0.341 -0.233 0.471 -0.07 0.56 -0.82 0
1 5.72 572 0.709 -8.974 2.830 8.698 10.101 -4.517 -419.876 -779.942 -3599.905 0.407 -0.128 0.628 -0.07 0.56 -0.82 0
1 5.73 573 0.570 -8.825 2.710 12.573 5.188 -6.317 -449.857 -959.975 -3644.875 0.545 -0.272 0.759 -0.07 0.56 -0.82 0
1 5.74 574 0.364 -8.686 2.552 11.505 -2.808 -4.334 -494.978 -779.942 -3644.875 0.760 -0.398 0.947 -0.07 0.56 -0.82 0
1 5.75 575 0.335 -8.744 2.356 6.409 -7.263 -1.801 -494.978 -779.942 -3644.875 0.793 -0.336 1.154 -0.07 0.56 -0.82 0
1 5.76 576 0.374 -8.844 2.193 2.319 -8.453 -1.953 -389.896 -839.903 -3509.963 0.757 -0.235 1.318 -0.07 0.56 -0.82 0
1 5.77 577 0.115 -8.883 1.915 0.549 -10.284 -3.540 -389.896 -839.903 -3509.963 1.020 -0.198 1.591 -0.07 0.56 -0.82 0
1 5.78 578 -0.086 -8.907 1.633 2.533 -16.174 -4.639 -359.916 -749.961 -3584.915 1.227 -0.176 1.865 -0.07 0.56 -0.82 0
1 5.79 579 -0.177 -9.060 1.590 3.204 -20.813 -5.768 -359.916 -749.961 -3584.915 1.325 -0.026 1.899 -0.07 0.56 -0.82 0
1 5.80 580 -0.350 -8.916 1.528 1.312 -26.459 -9.003 -434.867 -839.903 -3554.934 1.507 -0.171 1.953 -0.07 0.56 -0.82 0
1 5.81 581 -0.359 -9.113 1.437 -3.815 -33.936 -11.292 -569.929 -809.922 -3674.856 1.554 0.018 2.013 -0.08 0.56 -0.82 0.01
1 5.82 582 -0.292 -9.381 1.633 -4.822 -37.354 -12.970 -569.929 -809.922 -3674.856 1.511 0.280 1.793 -0.08 0.56 -0.82 0.01
1 5.83 583 -0.287 -9.745 2.131 -6.073 -40.131 -12.726 -449.857 -779.942 -3494.973 1.535 0.639 1.270 -0.08 0.57 -0.82 0.01
1 5.84 584 -0.311 -10.171 2.543 -7.019 -42.267 -10.986 -449.857 -779.942 -3494.973 1.586 1.059 0.832 -0.09 0.57 -0.82 0.01
1 5.85 585 -0.426 -10.583 2.801 -16.876 -53.375 -15.503 -539.948 -914.854 -3629.885 1.730 1.465 0.546 -0.09 0.57 -0.82 0.01
1 5.86 586 0.201 -12.038 4.372 -27.435 -65.979 -18.158 -539.948 -914.854 -3629.885 1.148 2.912 -1.066 -0.09 0.57 -0.82 0.01
1 5.87 587 0.948 -13.451 3.888 -23.224 -74.768 -11.047 -659.870 -794.932 -3554.934 0.459 4.316 -0.631 -0.1 0.57 -0.82 0.01
1 5.88 588 1.274 -11.052 2.452 40.772 -68.878 22.400 -599.909 -884.874 -3599.905 0.216 1.908 0.743 -0.11 0.57 -0.81 0.02
1 5.89 589 1.528 -9.692 2.275 63.446 -68.451 24.628 -599.909 -884.874 -3599.905 -0.036 0.569 0.979 -0.11 0.57 -0.82 0.02
1 5.90 590 2.811 -7.963 2.413 62.561 -78.095 19.196 -629.890 -854.893 -3539.944 -1.312 -1.128 0.923 -0.11 0.56 -0.82 0.03
1 5.91 591 3.218 -8.179 3.046 8.575 -76.081 13.001 -629.890 -854.893 -3539.944 -1.698 -0.890 0.342 -0.12 0.56 -0.82 0.03
1 5.92 592 3.132 -9.108 3.697 -45.044 -57.068 11.902 -794.932 -794.932 -3554.934 -1.577 0.035 -0.335 -0.12 0.56 -0.82 0.04
1 5.93 593 2.538 -10.798 3.884 -52.918 -24.811 23.590 -869.883 -869.883 -3554.934 -0.961 1.699 -0.604 -0.13 0.56 -0.82 0.04
1 5.94 594 1.633 -11.229 3.443 -9.399 -10.742 34.546 -854.893 -929.994 -3464.993 -0.065 2.098 -0.248 -0.13 0.57 -0.81 0.04
1 5.95 595 0.910 -9.869 3.199 19.257 -23.956 27.618 -974.965 -809.922 -3644.875 0.619 0.721 -0.035 -0.13 0.57 -0.81 0.04
1 5.96 596 1.044 -9.094 3.663 25.940 -42.481 19.257 -974.965 -809.922 -3644.875 0.436 -0.047 -0.455 -0.13 0.57 -0.81 0.05
1 5.97 597 1.398 -8.854 3.831 18.921 -34.210 20.844 -914.854 -914.854 -3509.963 0.072 -0.278 -0.594 -0.13 0.56 -0.81 0.05
1 5.98 598 1.317 -9.084 3.606 14.465 -18.799 24.597 -914.854 -914.854 -3509.963 0.139 -0.042 -0.345 -0.13 0.56 -0.81 0.06
1 5.99 599 1.101 -8.902 3.271 13.611 -11.444 27.069 -869.883 -914.854 -3554.934 0.327 -0.221 0.011 -0.13 0.56 -0.81 0.06
1 6.00 600 0.996 -8.868 3.084 14.618 -24.048 23.804 -974.965 -854.893 -3674.856 0.400 -0.253 0.216 -0.13 0.56 -0.82 0.06
1 6.01 601 1.422 -8.696 3.194 17.670 -33.997 21.149 -974.965 -1049.916 -3464.993 -0.052 -0.423 0.122 -0.13 0.56 -0.82 0.06
1 6.02 602 2.150 -8.576 3.510 19.013 -37.811 14.954 -869.883 -914.854 -3764.947 -0.796 -0.539 -0.176 -0.13 0.56 -0.82 0.07
1 6.03 603 2.533 -8.452 3.625 9.155 -31.372 17.975 -869.883 -914.854 -3764.947 -1.174 -0.649 -0.252 -0.13 0.56 -0.82 0.07
1 6.04 604 2.543 -8.308 3.500 2.319 -25.055 20.935 -1034.926 -779.942 -3494.973 -1.185 -0.789 -0.119 -0.13 0.56 -0.82 0.07
1 6.05 605 2.720 -8.136 3.702 -2.014 -19.470 19.745 -1034.926 -779.942 -3494.973 -1.369 -0.962 -0.320 -0.13 0.56 -0.82 0.07
1 6.06 606 2.806 -8.251 3.740 -3.265 -13.855 16.113 -854.893 -854.893 -3644.875 -1.460 -0.849 -0.360 -0.14 0.56 -0.82 0.08
1 6.07 607 2.504 -8.390 3.860 -4.913 -3.998 12.604 -824.913 -854.893 -3539.944 -1.161 -0.711 -0.482 -0.14 0.56 -0.82 0.08
1 6.08 608 2.073 -8.495 3.816 -7.416 -0.397 11.353 -989.955 -869.883 -3404.882 -0.734 -0.607 -0.440 -0.14 0.56 -0.82 0.08
1 6.09 609 1.714 -8.677 3.874 -9.003 1.007 8.637 -914.854 -914.854 -3584.915 -0.381 -0.427 -0.501 -0.14 0.56 -0.82 0.08
1 6.10 610 1.355 -8.734 3.740 -7.904 1.434 5.341 -914.854 -914.854 -3584.915 -0.029 -0.373 -0.373 -0.14 0.56 -0.82 0.08
1 6.11 611 0.953 -9.309 3.591 -6.073 -2.045 1.221 -824.913 -884.874 -3569.924 0.363 0.196 -0.236 -0.13 0.56 -0.82 0.08
1 6.12 612 1.010 -9.457 3.793 -4.334 -5.432 -0.824 -824.913 -884.874 -3569.924 0.305 0.342 -0.443 -0.13 0.56 -0.82 0.08
1 6.13 613 1.269 -9.405 3.807 -2.350 -7.721 -2.106 -929.994 -884.874 -3599.905 0.050 0.289 -0.460 -0.13 0.56 -0.82 0.08
1 6.14 614 1.370 -9.472 3.845 -1.434 -8.820 -1.251 -1019.936 -794.932 -3509.963 -0.044 0.357 -0.499 -0.13 0.56 -0.82 0.08
1 6.15 615 1.724 -9.280 3.625 3.204 -9.491 1.923 -899.864 -1079.896 -3644.875 -0.393 0.166 -0.277 -0.14 0.56 -0.82 0.08
1 6.16 616 1.915 -9.314 3.620 4.944 -8.514 -1.831 -974.965 -809.922 -3569.924 -0.582 0.202 -0.267 -0.14 0.56 -0.82 0.08
1 6.17 617 2.054 -9.376 3.630 6.653 -5.371 -1.129 -974.965 -809.922 -3569.924 -0.711 0.269 -0.269 -0.14 0.56 -0.82 0.08
1 6.18 618 1.887 -9.376 3.534 8.850 -1.068 0.092 -989.955 -839.903 -3629.885 -0.524 0.280 -0.150 -0.14 0.56 -0.82 0.08
1 6.19 619 1.810 -9.228 3.658 8.545 -0.336 -1.953 -989.955 -839.903 -3629.885 -0.441 0.138 -0.260 -0.14 0.55 -0.82 0.08
1 6.20 620 1.791 -9.228 3.591 5.890 0.031 -3.113 -869.883 -944.984 -3659.866 -0.415 0.144 -0.179 -0.14 0.55 -0.82 0.07
1 6.21 621 1.657 -9.323 3.448 3.235 -0.244 -4.211 -914.854 -989.955 -3629.885 -0.272 0.245 -0.026 -0.14 0.55 -0.82 0.07
1 6.22 622 1.484 -9.323 3.328 -1.373 -1.312 -5.310 -944.984 -869.883 -3509.963 -0.090 0.248 0.098 -0.14 0.55 -0.82 0.07
1 6.23 623 1.504 -9.323 3.371 -3.265 -3.387 -5.554 -974.965 -854.893 -3644.875 -0.100 0.249 0.053 -0.14 0.55 -0.82 0.07
1 6.24 624 1.427 -9.529 3.347 -3.540 -4.089 -5.524 -974.965 -854.893 -3644.875 -0.013 0.455 0.073 -0.14 0.55 -0.82 0.07
1 6.25 625 1.566 -9.357 3.419 -2.686 -5.127 -7.538 -929.994 -929.994 -3569.924 -0.128 0.283 -0.009 -0.14 0.55 -0.82 0.07
1 6.26 626 1.547 -9.362 3.328 -0.793 -4.822 -7.935 -929.994 -929.994 -3569.924 -0.094 0.289 0.079 -0.14 0.55 -0.82 0.07
1 6.27 627 1.604 -9.252 3.189 0.519 -5.157 -8.057 -974.965 -929.994 -3644.875 -0.136 0.180 0.216 -0.14 0.55 -0.82 0.07
1 6.28 628 1.628 -9.132 3.362 1.007 -3.357 -7.629 -854.893 -929.994 -3674.856 -0.145 0.063 0.044 -0.14 0.55 -0.82 0.07
1 6.29 629 1.590 -9.079 3.309 1.099 -1.434 -7.813 -1064.906 -839.903 -3629.885 -0.091 0.014 0.099 -0.14 0.55 -0.82 0.07
1 6.30 630 1.484 -8.974 3.414 -0.610 0.946 -7.294 -944.984 -1019.936 -3659.866 0.027 -0.089 -0.004 -0.14 0.55 -0.82 0.07
1 6.31 631 1.274 -9.065 3.323 -1.129 0.916 -8.881 -944.984 -1019.936 -3659.866 0.249 0.004 0.087 -0.14 0.55 -0.82 0.07
1 6.32 632 1.341 -9.170 3.328 -1.495 -3.998 -11.292 -1004.945 -809.922 -3599.905 0.207 0.113 0.080 -0.14 0.55 -0.82 0.07
1 6.33 633 1.379 -9.194 3.137 -0.977 -5.005 -10.895 -1004.945 -809.922 -3599.905 0.186 0.139 0.269 -0.14 0.55 -0.82 0.06
1 6.34 634 1.417 -9.165 3.295 1.099 -7.751 -11.200 -914.854 -914.854 -3584.915 0.167 0.113 0.110 -0.14 0.55 -0.82 0.06
1 6.35 635 1.446 -9.094 3.342 0.702 -9.674 -10.468 -1064.906 -944.984 -3584.915 0.157 0.045 0.062 -0.14 0.55 -0.82 0.06
1 6.36 636 1.547 -9.046 3.520 1.312 -8.881 -9.369 -1154.998 -1004.945 -3569.924 0.076 0.000 -0.115 -0.14 0.55 -0.82 0.06
1 6.37 637 1.350 -8.878 3.520 0.763 -8.942 -7.446 -854.893 -884.874 -3569.924 0.290 -0.164 -0.114 -0.14 0.55 -0.82 0.06
1 6.38 638 1.484 -8.873 3.615 0.488 -9.827 -8.301 -854.893 -884.874 -3569.924 0.170 -0.165 -0.208 -0.15 0.55 -0.82 0.06
1 6.39 639 1.322 -8.883 3.639 1.495 -10.376 -8.850 -1109.877 -1004.945 -3569.924 0.347 -0.152 -0.231 -0.15 0.55 -0.82 0.06
1 6.40 640 1.446 -8.682 3.620 3.967 -13.336 -9.552 -1109.877 -1004.945 -3569.924 0.256 -0.345 -0.205 -0.15 0.55 -0.82 0.06
1 6.41 641 1.566 -8.528 3.625 4.578 -16.602 -9.827 -1169.988 -989.955 -3449.853 0.156 -0.492 -0.204 -0.15 0.55 -0.82 0.06
1 6.42 642 1.647 -8.366 3.668 4.547 -18.280 -10.864 -1139.857 -1019.936 -3629.885 0.097 -0.649 -0.241 -0.15 0.55 -0.82 0.06
1 6.43 643 1.915 -8.447 3.658 3.723 -19.409 -12.024 -1139.857 -1019.936 -3629.885 -0.145 -0.560 -0.226 -0.15 0.55 -0.82 0.06
1 6.44 644 1.815 -8.572 3.692 1.160 -21.210 -13.001 -1064.906 -1064.906 -3584.915 -0.015 -0.428 -0.255 -0.15 0.55 -0.82 0.06
1 6.45 645 2.045 -8.509 3.654 -0.580 -23.102 -11.658 -1064.906 -1064.906 -3584.915 -0.215 -0.484 -0.216 -0.16 0.55 -0.82 0.06
1 6.46 646 2.179 -8.667 3.596 -2.747 -24.170 -10.742 -1109.877 -1079.896 -3599.905 -0.319 -0.320 -0.161 -0.16 0.55 -0.82 0.06
1 6.47 647 2.380 -8.854 3.524 -4.181 -22.980 -10.162 -1109.877 -1079.896 -3599.905 -0.457 -0.126 -0.102 -0.16 0.55 -0.82 0.06
1 6.48 648 2.275 -8.639 3.529 -10.162 -23.804 -9.735 -1154.998 -929.994 -3644.875 -0.322 -0.339 -0.118 -0.16 0.55 -0.82 0.06
1 6.49 649 2.380 -8.988 3.572 -14.008 -23.132 -11.322 -1259.929 -1049.916 -3569.924 -0.397 0.010 -0.181 -0.17 0.55 -0.82 0.06
1 6.50 650 2.251 -9.036 3.534 -11.932 -22.247 -10.315 -1259.929 -1049.916 -3569.924 -0.237 0.056 -0.165 -0.17 0.55 -0.82 0.06
1 6.51 651 2.073 -9.175 3.486 -6.287 -21.515 -10.071 -1169.988 -1064.906 -3584.915 -0.032 0.194 -0.137 -0.17 0.55 -0.82 0.06
1 6.52 652 2.457 -9.266 3.390 0.397 -22.430 -7.507 -1349.871 -989.955 -3584.915 -0.389 0.287 -0.052 -0.17 0.55 -0.82 0.06
1 6.53 653 2.686 -9.074 3.467 1.434 -22.034 -5.890 -1319.890 -944.984 -3449.853 -0.594 0.099 -0.135 -0.17 0.55 -0.82 0.06
1 6.54 654 2.581 -8.988 3.362 1.648 -21.210 -4.913 -1319.890 -944.984 -3449.853 -0.466 0.016 -0.034 -0.17 0.55 -0.82 0.06
1 6.55 655 2.682 -8.907 3.400 0.519 -18.982 -2.441 -1169.988 -989.955 -3554.934 -0.525 -0.057 -0.078 -0.18 0.55 -0.82 0.06
1 6.56 656 2.744 -9.017 3.429 -1.129 -17.578 -1.465 -1229.949 -959.975 -3644.875 -0.571 0.055 -0.111 -0.18 0.55 -0.82 0.06
1 6.57 657 2.653 -9.041 3.615 -2.991 -15.472 -1.709 -1229.949 -959.975 -3644.875 -0.464 0.081 -0.303 -0.18 0.55 -0.82 0.06
1 6.58 658 2.744 -9.041 3.405 -3.052 -12.177 -0.793 -1394.991 -944.984 -3404.882 -0.541 0.082 -0.100 -0.18 0.55 -0.82 0.07
1 6.59 659 2.624 -9.132 3.477 -1.099 -9.155 -1.343 -1394.991 -944.984 -3404.882 -0.409 0.174 -0.177 -0.18 0.55 -0.81 0.07
1 6.60 660 2.504 -9.151 3.510 -0.763 -8.820 -0.519 -1394.991 -989.955 -3554.934 -0.278 0.195 -0.213 -0.18 0.55 -0.81 0.07
1 6.61 661 2.504 -8.964 3.304 -1.587 -8.820 -0.610 -1394.991 -989.955 -3554.934 -0.270 0.009 -0.010 -0.18 0.55 -0.81 0.07
1 6.62 662 2.452 -8.935 3.567 -1.282 -8.972 -1.709 -1304.900 -959.975 -3569.924 -0.200 -0.017 -0.278 -0.19 0.55 -0.81 0.07
1 6.63 663 2.433 -8.859 3.366 -1.343 -9.308 -2.777 -1394.991 -1064.906 -3554.934 -0.171 -0.092 -0.079 -0.19 0.55 -0.81 0.07
1 6.64 664 2.457 -8.964 3.438 -2.380 -9.796 -3.906 -1394.991 -1064.906 -3554.934 -0.183 0.015 -0.153 -0.19 0.55 -0.81 0.07
1 6.65 665 2.471 -9.074 3.285 -2.716 -9.979 -4.547 -1304.900 -1004.945 -3719.977 -0.185 0.127 -0.005 -0.19 0.55 -0.81 0.07
1 6.66 666 2.337 -9.199 3.448 -2.533 -10.040 -4.517 -1409.981 -884.874 -3464.993 -0.037 0.253 -0.172 -0.19 0.55 -0.81 0.07
1 6.67 667 2.260 -9.089 3.285 -1.465 -9.613 -4.181 -1439.962 -1004.945 -3494.973 0.051 0.144 -0.015 -0.19 0.55 -0.81 0.07
1 6.68 668 2.222 -9.175 3.395 -1.190 -10.223 -3.937 -1439.962 -1004.945 -3494.973 0.101 0.232 -0.129 -0.19 0.55 -0.81 0.07
1 6.69 669 2.164 -9.266 3.453 0.244 -9.369 -3.082 -1484.933 -1049.916 -3464.993 0.179 0.326 -0.192 -0.19 0.54 -0.81 0.07
1 6.70 670 2.059 -9.438 3.386 1.740 -8.911 -1.770 -1469.942 -1019.936 -3509.963 0.291 0.500 -0.126 -0.19 0.54 -0.81 0.07
1 6.71 671 1.896 -9.438 3.261 4.913 -9.735 -0.397 -1469.942 -1019.936 -3509.963 0.459 0.502 0.001 -0.19 0.54 -0.81 0.07
1 6.72 672 1.935 -8.935 3.103 8.240 -11.444 0.519 -1559.884 -884.874 -3494.973 0.423 0.002 0.164 -0.19 0.54 -0.81 0.07
1 6.73 673 2.035 -8.610 3.093 11.047 -12.726 1.831 -1244.939 -914.854 -3479.983 0.326 -0.320 0.182 -0.19 0.54 -0.81 0.07
1 6.74 674 2.322 -8.485 3.108 5.707 -12.878 2.319 -1574.874 -944.984 -3584.915 0.041 -0.439 0.179 -0.19 0.54 -0.81 0.07
1 6.75 675 2.528 -8.710 3.084 -0.397 -12.146 2.991 -1574.874 -944.984 -3584.915 -0.161 -0.211 0.210 -0.2 0.54 -0.81 0.07
1 6.76 676 2.691 -8.691 2.959 -2.930 -8.698 4.852 -1424.972 -944.984 -3554.934 -0.317 -0.232 0.324 -0.2 0.54 -0.81 0.07
1 6.77 677 2.734 -8.811 2.797 -1.495 -7.904 5.615 -1544.894 -914.854 -3554.934 -0.359 -0.114 0.481 -0.2 0.54 -0.81 0.07
1 6.78 678 2.844 -8.481 2.883 0.671 -6.531 5.646 -1544.894 -914.854 -3554.934 -0.470 -0.446 0.392 -0.2 0.54 -0.81 0.07
1 6.79 679 2.797 -8.505 2.835 -3.204 -6.042 4.089 -1409.981 -1004.945 -3599.905 -0.421 -0.422 0.437 -0.2 0.54 -0.81 0.07
1 6.80 680 2.988 -8.615 2.691 -8.026 -4.089 3.571 -1589.864 -1004.945 -3284.960 -0.610 -0.315 0.572 -0.2 0.54 -0.81 0.07
1 6.81 681 2.993 -8.897 2.820 -12.787 -0.153 2.838 -1499.923 -869.883 -3584.915 -0.612 -0.037 0.428 -0.2 0.54 -0.81 0.07
1 6.82 682 3.026 -9.036 2.950 -12.085 3.143 2.167 -1499.923 -869.883 -3584.915 -0.644 0.096 0.280 -0.2 0.54 -0.81 0.07
1 6.83 683 3.098 -9.252 2.782 -9.338 5.951 1.099 -1559.884 -1079.896 -3539.944 -0.715 0.305 0.431 -0.2 0.54 -0.81 0.07
1 6.84 684 2.792 -9.156 2.787 -5.951 10.681 -0.305 -1559.884 -884.874 -3569.924 -0.406 0.202 0.404 -0.2 0.55 -0.81 0.07
1 6.85 685 2.710 -9.146 2.581 -6.805 11.993 -0.641 -1559.884 -884.874 -3569.924 -0.325 0.190 0.603 -0.2 0.55 -0.81 0.07
1 6.86 686 2.720 -9.022 2.528 -8.759 12.878 -0.183 -1514.913 -1004.945 -3359.911 -0.337 0.062 0.647 -0.2 0.55 -0.81 0.07
1 6.87 687 2.643 -8.935 2.667 -11.231 14.587 -0.458 -1544.894 -794.932 -3509.963 -0.263 -0.029 0.498 -0.2 0.55 -0.81 0.07
1 6.88 688 2.600 -9.036 2.653 -14.862 18.921 -1.221 -1484.933 -1004.945 -3494.973 -0.224 0.067 0.500 -0.2 0.55 -0.81 0.07
1 6.89 689 2.524 -9.108 2.466 -15.015 20.752 -1.221 -1484.933 -1004.945 -3494.973 -0.152 0.132 0.671 -0.2 0.55 -0.81 0.07
1 6.90 690 2.380 -9.223 2.485 -14.435 20.660 -1.892 -1364.861 -1049.916 -3539.944 -0.014 0.240 0.636 -0.19 0.55 -0.81 0.07
1 6.91 691 2.404 -9.319 2.567 -14.618 18.005 -2.625 -1469.942 -1064.906 -3374.901 -0.049 0.322 0.524 -0.19 0.55 -0.81 0.06
1 6.92 692 2.533 -9.362 2.758 -14.893 17.975 -1.678 -1469.942 -1064.906 -3374.901 -0.182 0.358 0.316 -0.19 0.55 -0.81 0.06
1 6.93 693 2.768 -9.505 2.758 -14.526 18.707 -0.519 -1394.991 -1019.936 -3404.882 -0.422 0.495 0.300 -0.19 0.55 -0.81 0.06
1 6.94 694 2.744 -9.582 2.749 -13.001 21.484 0.214 -1349.871 -839.903 -3509.963 -0.403 0.566 0.296 -0.19 0.56 -0.81 0.06
1 6.95 695 2.643 -9.275 2.935 -7.507 22.980 0.824 -1409.981 -854.893 -3494.973 -0.310 0.254 0.099 -0.19 0.56 -0.81 0.06
1 6.96 696 2.557 -9.194 2.859 -4.059 22.797 1.526 -1409.981 -854.893 -3494.973 -0.233 0.169 0.171 -0.19 0.56 -0.81 0.06
1 6.97 697 2.615 -9.074 2.820 -5.310 22.278 2.075 -1274.919 -944.984 -3509.963 -0.299 0.047 0.212 -0.19 0.56 -0.81 0.06
1 6.98 698 2.787 -8.969 2.978 -7.233 22.644 2.686 -1364.861 -929.994 -3494.973 -0.482 -0.060 0.055 -0.19 0.56 -0.81 0.06
1 6.99 699 2.840 -9.137 2.969 -10.284 25.452 3.387 -1364.861 -929.994 -3494.973 -0.556 0.100 0.059 -0.18 0.56 -0.81 0.06
1 7.00 700 2.902 -9.094 3.055 -11.169 28.229 4.242 -1364.861 -854.893 -3539.944 -0.631 0.052 -0.032 -0.18 0.56 -0.81 0.05
1 7.01 701 2.782 -9.405 3.046 -11.200 28.320 2.930 -1259.929 -929.994 -3494.973 -0.525 0.359 -0.028 -0.18 0.56 -0.81 0.05
1 7.02 702 2.706 -9.520 3.079 -10.498 28.320 2.106 -1169.988 -869.883 -3329.931 -0.461 0.469 -0.065 -0.18 0.56 -0.81 0.05
1 7.03 703 2.581 -9.673 3.314 -7.599 27.557 -1.343 -1169.988 -869.883 -3329.931 -0.348 0.618 -0.303 -0.18 0.56 -0.81 0.05
1 7.04 704 2.533 -9.759 3.318 -7.324 26.703 -5.646 -1199.968 -944.984 -3509.963 -0.309 0.702 -0.308 -0.17 0.56 -0.81 0.05
1 7.05 705 2.351 -9.989 3.299 -7.690 25.848 -9.460 -1199.968 -869.883 -3479.983 -0.131 0.931 -0.288 -0.17 0.56 -0.81 0.05
1 7.06 706 2.164 -9.740 3.108 -2.014 23.865 -13.367 -1199.968 -869.883 -3479.983 0.063 0.685 -0.095 -0.17 0.56 -0.81 0.04
1 7.07 707 2.054 -9.343 3.041 1.892 22.583 -14.496 -1244.939 -794.932 -3374.901 0.181 0.292 -0.020 -0.17 0.56 -0.81 0.04
1 7.08 708 2.160 -9.228 2.983 0.183 21.210 -14.374 -1274.919 -839.903 -3509.963 0.085 0.183 0.048 -0.17 0.56 -0.81 0.04
1 7.09 709 2.179 -9.089 2.787 -4.639 18.890 -13.855 -1274.919 -839.903 -3509.963 0.076 0.048 0.251 -0.17 0.56 -0.81 0.04
1 7.10 710 2.490 -9.094 2.696 -7.477 17.670 -10.986 -1184.978 -959.975 -3539.944 -0.225 0.055 0.341 -0.17 0.56 -0.81 0.04
1 7.11 711 2.591 -9.189 2.758 -7.263 16.968 -9.308 -1244.939 -869.883 -3404.882 -0.317 0.152 0.275 -0.17 0.56 -0.81 0.04
1 7.12 712 2.840 -9.218 3.041 -8.606 18.189 -7.599 -1259.929 -734.971 -3539.944 -0.557 0.181 -0.013 -0.17 0.56 -0.81 0.03
1 7.13 713 2.911 -9.668 2.988 -7.202 17.975 -4.944 -1259.929 -734.971 -3539.944 -0.618 0.631 0.031 -0.17 0.56 -0.81 0.03
1 7.14 714 2.883 -9.563 3.007 -1.221 19.257 -3.906 -1259.929 -659.870 -3389.892 -0.587 0.526 0.010 -0.17 0.56 -0.81 0.03
1 7.15 715 2.682 -9.175 3.122 5.829 20.447 -2.991 -1199.968 -794.932 -3404.882 -0.386 0.140 -0.097 -0.17 0.56 -0.81 0.03
1 7.16 716 2.576 -8.888 3.232 7.629 21.362 -2.319 -1199.968 -794.932 -3404.882 -0.283 -0.142 -0.190 -0.16 0.56 -0.81 0.03
1 7.17 717 2.380 -8.720 2.940 2.838 21.698 -2.991 -1079.896 -884.874 -3599.905 -0.090 -0.303 0.122 -0.16 0.56 -0.81 0.03
1 7.18 718 2.121 -8.931 2.916 -0.122 21.332 -2.655 -1139.857 -719.981 -3449.853 0.165 -0.088 0.161 -0.16 0.56 -0.81 0.03
1 7.19 719 1.944 -8.878 2.830 -2.167 18.402 -2.289 -1169.988 -914.854 -3554.934 0.337 -0.139 0.256 -0.16 0.56 -0.81 0.03
1 7.20 720 1.872 -8.940 2.878 -1.587 14.771 -2.625 -1169.988 -914.854 -3554.934 0.397 -0.077 0.217 -0.16 0.56 -0.81 0.02
1 7.21 721 2.131 -9.017 2.998 -1.160 12.970 -3.326 -1079.896 -779.942 -3464.993 0.135 0.000 0.101 -0.16 0.56 -0.81 0.02
1 7.22 722 2.236 -9.256 2.840 -1.953 9.613 -4.883 -1154.998 -884.874 -3494.973 0.030 0.240 0.261 -0.16 0.56 -0.81 0.02
1 7.23 723 2.385 -9.089 2.844 -1.282 8.820 -5.005 -1154.998 -884.874 -3494.973 -0.115 0.073 0.256 -0.16 0.56 -0.81 0.02
1 7.24 724 2.366 -9.084 2.959 -0.305 8.972 -4.425 -1274.919 -839.903 -3449.853 -0.092 0.070 0.143 -0.16 0.56 -0.81 0.02
1 7.25 725 2.308 -9.079 2.931 -1.801 8.881 -6.012 -1109.877 -959.975 -3539.944 -0.030 0.068 0.175 -0.16 0.56 -0.81 0.02
1 7.26 726 2.179 -9.285 2.959 -3.357 8.270 -6.134 -1184.978 -929.994 -3419.872 0.104 0.276 0.148 -0.16 0.56 -0.81 0.02
1 7.27 727 2.294 -9.328 2.964 -4.761 6.439 -5.157 -1184.978 -929.994 -3419.872 -0.005 0.320 0.143 -0.16 0.56 -0.81 0.02
1 7.28 728 2.303 -9.433 2.844 -0.854 7.233 -2.960 -1184.978 -779.942 -3314.940 -0.008 0.425 0.258 -0.16 0.56 -0.81 0.02
1 7.29 729 2.409 -9.371 3.022 1.099 7.202 -1.892 -1109.877 -809.922 -3389.892 -0.112 0.364 0.082 -0.16 0.56 -0.81 0.02
1 7.30 730 2.615 -9.328 2.897 2.289 6.104 -0.397 -1109.877 -809.922 -3389.892 -0.318 0.322 0.211 -0.16 0.56 -0.81 0.02
1 7.31 731 2.538 -9.252 3.022 1.953 6.317 -0.061 -1079.896 -809.922 -3419.872 -0.241 0.248 0.092 -0.16 0.56 -0.81 0.02
1 7.32 732 2.825 -9.050 2.935 1.984 6.775 -0.031 -944.984 -869.883 -3509.963 -0.528 0.049 0.184 -0.16 0.56 -0.81 0.02
1 7.33 733 2.696 -9.084 3.041 1.373 6.897 0.031 -1139.857 -869.883 -3374.901 -0.398 0.084 0.084 -0.16 0.56 -0.81 0.02
1 7.34 734 2.595 -8.969 3.069 0.366 8.057 -0.488 -1139.857 -869.883 -3374.901 -0.297 -0.029 0.061 -0.16 0.56 -0.81 0.02
1 7.35 735 2.706 -9.103 3.017 -1.801 8.240 -0.702 -1034.926 -929.994 -3569.924 -0.405 0.108 0.120 -0.16 0.56 -0.81 0.02
1 7.36 736 2.825 -9.026 3.002 -4.120 9.705 -0.214 -1139.857 -869.883 -3509.963 -0.524 0.032 0.134 -0.16 0.56 -0.81 0.02
1 7.37 737 2.849 -9.194 2.969 -4.669 10.895 -0.854 -1139.857 -869.883 -3509.963 -0.547 0.199 0.165 -0.16 0.56 -0.81 0.02
1 7.38 738 2.916 -9.290 2.897 -4.486 11.810 -0.275 -1139.857 -869.883 -3554.934 -0.614 0.294 0.234 -0.16 0.56 -0.81 0.02
1 7.39 739 2.950 -9.223 3.036 -0.854 13.916 -0.519 -1109.877 -854.893 -3539.944 -0.648 0.226 0.094 -0.16 0.56 -0.81 0.02
1 7.40 740 2.825 -9.141 3.093 -0.366 14.954 -1.770 -1094.887 -944.984 -3554.934 -0.524 0.145 0.040 -0.16 0.56 -0.81 0.02
1 7.41 741 2.782 -9.141 3.026 -0.397 16.266 -3.448 -1094.887 -944.984 -3554.934 -0.481 0.147 0.112 -0.15 0.56 -0.81 0.01
1 7.42 742 2.662 -9.007 3.002 -1.129 17.853 -4.608 -1184.978 -809.922 -3464.993 -0.361 0.016 0.143 -0.15 0.56 -0.81 0.01
1 7.43 743 2.342 -9.060 2.907 -2.136 19.501 -5.463 -1034.926 -929.994 -3494.973 -0.038 0.072 0.248 -0.15 0.56 -0.81 0.01
1 7.44 744 2.193 -8.940 2.993 -3.204 19.714 -5.432 -1034.926 -929.994 -3494.973 0.110 -0.046 0.166 -0.15 0.56 -0.81 0.01
1 7.45 745 2.021 -8.940 2.931 -4.700 19.684 -5.035 -914.854 -1094.887 -3479.983 0.281 -0.046 0.231 -0.15 0.56 -0.81 0.01
1 7.46 746 2.064 -8.859 3.046 -6.805 17.914 -4.974 -1079.896 -854.893 -3419.872 0.235 -0.128 0.117 -0.15 0.56 -0.81 0.01
1 7.47 747 2.069 -9.041 3.117 -8.301 16.632 -5.127 -989.955 -794.932 -3509.963 0.228 0.053 0.043 -0.15 0.56 -0.81 0.01
1 7.48 748 2.155 -9.151 3.103 -5.890 16.724 -3.723 -989.955 -794.932 -3509.963 0.140 0.161 0.053 -0.15 0.56 -0.81 0.01
1 7.49 749 2.179 -9.261 3.160 -4.395 18.127 -2.350 -1154.998 -809.922 -3464.993 0.113 0.270 -0.006 -0.15 0.56 -0.81 0.01
1 7.50 750 1.901 -9.165 3.189 -0.702 19.257 0.214 -1079.896 -854.893 -3539.944 0.377 0.173 -0.029 -0.15 0.56 -0.81 0.01
1 7.51 751 1.695 -9.223 3.170 -0.519 17.761 1.556 -1079.896 -854.893 -3539.944 0.572 0.230 -0.002 -0.15 0.56 -0.81 0
1 7.52 752 1.753 -9.007 3.299 -1.526 17.242 3.693 -929.994 -809.922 -3464.993 0.500 0.014 -0.124 -0.14 0.56 -0.81 0
1 7.53 753 1.614 -9.079 3.247 -2.106 16.968 4.944 -929.994 -809.922 -3464.993 0.623 0.084 -0.066 -0.14 0.56 -0.81 0
1 7.54 754 1.642 -9.261 3.141 -1.587 16.480 6.897 -854.893 -884.874 -3539.944 0.575 0.263 0.045 -0.14 0.56 -0.81 0
1 7.55 755 1.566 -9.156 3.127 0.244 14.404 6.409 -854.893 -884.874 -3539.944 0.631 0.154 0.065 -0.14 0.56 -0.81 0
1 7.56 756 1.748 -9.117 3.069 0.549 12.634 7.385 -989.955 -944.984 -3449.853 0.429 0.113 0.128 -0.14 0.56 -0.81 0
1 7.57 757 1.834 -9.026 3.055 -0.305 10.071 8.942 -989.955 -794.932 -3509.963 0.304 0.017 0.154 -0.14 0.56 -0.81 0
1 7.58 758 1.959 -9.108 3.204 -1.221 8.850 9.155 -989.955 -794.932 -3509.963 0.161 0.095 0.008 -0.14 0.56 -0.81 0
1 7.59 759 1.954 -9.228 3.151 -1.709 9.613 8.453 -929.994 -884.874 -3494.973 0.148 0.211 0.062 -0.14 0.56 -0.81 0.01
1 7.60 760 2.136 -9.261 3.299 -1.038 11.841 9.430 -929.994 -884.874 -3494.973 -0.051 0.241 -0.084 -0.13 0.56 -0.81 0.01
1 7.61 761 2.136 -9.271 3.323 -1.099 16.632 11.292 -929.994 -854.893 -3464.993 -0.070 0.248 -0.104 -0.13 0.56 -0.81 0.01
1 7.62 762 1.982 -9.189 3.381 -1.801 18.585 10.590 -929.994 -854.893 -3464.993 0.062 0.164 -0.156 -0.13 0.56 -0.82 0.01
1 7.63 763 1.791 -9.189 3.429 -1.770 22.339 9.125 -839.903 -719.981 -3449.853 0.230 0.160 -0.198 -0.13 0.56 -0.82 0.01
1 7.64 764 1.590 -9.338 3.419 -0.031 24.078 8.240 -899.864 -854.893 -3464.993 0.382 0.303 -0.174 -0.13 0.56 -0.82 0.01
1 7.65 765 1.508 -9.429 3.376 0.763 24.353 8.575 -899.864 -854.893 -3464.993 0.438 0.392 -0.120 -0.13 0.56 -0.82 0.01
1 7.66 766 1.231 -9.529 3.443 0.031 22.308 11.719 -914.854 -839.903 -3479.983 0.687 0.491 -0.178 -0.12 0.56 -0.82 0.01
1 7.67 767 1.168 -9.692 3.515 -0.397 21.210 16.937 -914.854 -839.903 -3479.983 0.716 0.649 -0.241 -0.12 0.56 -0.82 0.01
1 7.68 768 1.259 -9.601 3.448 -0.824 20.477 21.332 -824.913 -854.893 -3569.924 0.585 0.552 -0.167 -0.12 0.56 -0.82 0.01
1 7.69 769 1.144 -9.505 3.802 -2.838 19.135 28.442 -824.913 -854.893 -3569.924 0.655 0.449 -0.517 -0.12 0.56 -0.82 0.01
1 7.70 770 0.891 -9.544 3.994 -4.913 17.944 33.173 -854.893 -854.893 -3314.940 0.856 0.479 -0.704 -0.11 0.56 -0.82 0.01
1 7.71 771 0.824 -9.381 4.200 -5.615 16.083 37.842 -734.971 -839.903 -3449.853 0.865 0.307 -0.906 -0.11 0.57 -0.82 0.01
1 7.72 772 0.828 -9.232 4.583 -4.730 14.557 42.114 -734.971 -839.903 -3449.853 0.726 0.137 -1.282 -0.11 0.57 -0.82 0.01
1 7.73 773 0.910 -9.098 4.654 -2.594 14.435 44.129 -659.870 -914.854 -3374.901 0.573 -0.007 -1.348 -0.1 0.57 -0.82 0.02
1 7.74 774 0.986 -8.873 4.722 -1.190 15.442 42.023 -659.870 -914.854 -3374.901 0.424 -0.239 -1.404 -0.1 0.57 -0.82 0.02
1 7.75 775 1.398 -8.648 4.774 -0.275 17.670 35.614 -824.913 -779.942 -3419.872 -0.056 -0.470 -1.443 -0.1 0.57 -0.82 0.02
1 7.76 776 1.556 -8.452 4.477 6.226 25.971 21.942 -584.919 -839.903 -3449.853 -0.267 -0.668 -1.129 -0.09 0.57 -0.82 0.02
1 7.77 777 1.461 -8.270 4.410 10.101 29.327 15.686 -584.919 -839.903 -3404.882 -0.213 -0.846 -1.037 -0.09 0.57 -0.82 0.02
1 7.78 778 1.599 -8.193 4.180 7.019 26.703 14.679 -629.890 -809.922 -3419.872 -0.387 -0.917 -0.778 -0.09 0.56 -0.82 0.02
1 7.79 779 1.767 -8.442 4.056 3.571 27.222 10.010 -629.890 -809.922 -3419.872 -0.611 -0.657 -0.606 -0.09 0.56 -0.82 0.02
1 7.80 780 1.920 -8.557 4.128 -1.495 29.541 8.698 -599.909 -734.971 -3419.872 -0.787 -0.540 -0.664 -0.08 0.56 -0.82 0.02
1 7.81 781 1.896 -8.763 4.329 -2.899 35.553 5.127 -599.909 -734.971 -3419.872 -0.783 -0.333 -0.855 -0.08 0.56 -0.82 0.02
1 7.82 782 1.872 -8.945 4.195 -0.214 41.840 0.763 -539.948 -944.984 -3404.882 -0.778 -0.149 -0.710 -0.08 0.56 -0.82 0.02
1 7.83 783 1.274 -9.180 3.836 5.890 45.807 -2.167 -494.978 -809.922 -3539.944 -0.196 0.090 -0.336 -0.08 0.56 -0.82 0.02
1 7.84 784 0.814 -9.070 3.903 10.040 44.159 -3.937 -449.857 -809.922 -3419.872 0.246 -0.015 -0.384 -0.07 0.56 -0.82 0.01
1 7.85 785 0.589 -9.161 3.912 10.345 39.398 -5.035 -524.958 -884.874 -3494.973 0.454 0.083 -0.370 -0.07 0.56 -0.83 0.01
1 7.86 786 0.278 -9.328 3.850 9.613 36.469 -3.052 -524.958 -884.874 -3494.973 0.749 0.259 -0.282 -0.07 0.56 -0.83 0.01
1 7.87 787 0.120 -9.175 3.946 10.742 33.051 -0.732 -359.916 -914.854 -3329.931 0.866 0.119 -0.333 -0.06 0.56 -0.83 0.01
1 7.88 788 0.125 -9.338 3.965 10.895 30.457 3.052 -359.916 -914.854 -3329.931 0.838 0.288 -0.329 -0.06 0.56 -0.83 0
1 7.89 789 -0.101 -9.194 3.903 10.040 27.069 5.066 -359.916 -869.883 -3509.963 1.036 0.151 -0.244 -0.06 0.56 -0.83 0
1 7.90 790 -0.134 -9.223 3.644 7.874 22.492 6.134 -434.867 -1094.887 -3479.983 1.040 0.185 0.034 -0.06 0.56 -0.83 0
1 7.91 791 -0.340 -9.050 3.572 5.554 14.282 8.057 -344.925 -884.874 -3494.973 1.218 0.015 0.121 -0.06 0.56 -0.83 0
1 7.92 792 -0.235 -8.840 3.462 5.035 9.613 8.453 -509.968 -1019.936 -3404.882 1.085 -0.193 0.242 -0.05 0.56 -0.83 0
1 7.93 793 -0.096 -8.773 3.247 3.815 4.944 9.064 -509.968 -1019.936 -3404.882 0.921 -0.259 0.466 -0.05 0.55 -0.83 0
1 7.94 794 -0.110 -9.094 3.419 1.862 2.563 7.538 -194.873 -1079.896 -3389.892 0.894 0.062 0.304 -0.05 0.55 -0.83 0
1 7.95 795 0.043 -9.165 3.295 0.305 1.617 5.310 -194.873 -1079.896 -3389.892 0.724 0.134 0.431 -0.05 0.55 -0.83 0
1 7.96 796 -0.057 -9.204 3.232 0.183 -0.122 3.418 -269.974 -929.994 -3539.944 0.813 0.171 0.493 -0.05 0.55 -0.83 0.01
1 7.97 797 -0.062 -9.323 3.060 2.197 -2.594 1.099 -224.854 -929.994 -3569.924 0.810 0.289 0.664 -0.05 0.55 -0.83 0.01
1 7.98 798 -0.177 -9.410 3.098 5.341 -6.592 0.671 -344.925 -809.922 -3494.973 0.920 0.375 0.626 -0.05 0.55 -0.83 0.01
1 7.99 799 -0.196 -9.180 2.911 8.087 -9.186 -0.244 -299.955 -884.874 -3569.924 0.937 0.146 0.815 -0.05 0.55 -0.83 0.01
1 8.00 800 -0.402 -9.113 2.801 9.735 -12.970 -1.099 -299.955 -884.874 -3569.924 1.142 0.081 0.931 -0.05 0.55 -0.83 0.01
1 8.01 801 -0.441 -8.801 2.485 10.010 -21.423 -2.594 -269.974 -959.975 -3464.993 1.187 -0.223 1.262 -0.05 0.55 -0.83 0.01
1 8.02 802 -0.359 -8.706 2.615 6.653 -26.733 -3.632 -269.974 -959.975 -3464.993 1.115 -0.316 1.138 -0.05 0.55 -0.83 0.01
1 8.03 803 -0.230 -8.734 2.543 3.052 -30.762 -4.211 -329.935 -989.955 -3404.882 1.000 -0.286 1.209 -0.05 0.55 -0.83 0.01
1 8.04 804 -0.144 -8.682 2.457 -1.495 -33.844 -4.578 -359.916 -914.854 -3449.853 0.932 -0.340 1.289 -0.06 0.55 -0.83 0.01
1 8.05 805 -0.120 -8.964 2.557 -4.883 -37.842 -3.601 -269.974 -1049.916 -3569.924 0.928 -0.061 1.175 -0.06 0.55 -0.83 0.01
1 8.06 806 -0.129 -9.285 2.653 -2.716 -38.910 -0.702 -419.876 -1154.998 -3464.993 0.959 0.255 1.062 -0.06 0.55 -0.83 0.01
1 8.07 807 -0.057 -9.323 2.710 -0.122 -41.229 0.061 -419.876 -1154.998 -3464.993 0.905 0.288 0.989 -0.06 0.55 -0.83 0.02
1 8.08 808 0.010 -9.414 2.739 -1.007 -48.065 -3.052 -419.876 -1004.945 -3419.872 0.876 0.373 0.938 -0.07 0.55 -0.83 0.02
1 8.09 809 0.096 -9.510 2.840 -0.885 -51.392 -4.089 -419.876 -1004.945 -3419.872 0.817 0.467 0.824 -0.07 0.56 -0.83 0.02
1 8.10 810 0.239 -9.912 3.074 1.404 -58.930 -6.134 -284.964 -1094.887 -3479.983 0.706 0.867 0.576 -0.07 0.56 -0.83 0.02
1 8.11 811 0.297 -10.061 3.342 5.096 -61.005 -6.592 -359.916 -839.903 -3584.915 0.685 1.016 0.299 -0.08 0.56 -0.83 0.03
1 8.12 812 0.565 -10.286 4.070 8.453 -60.730 -5.829 -599.909 -1079.896 -3419.872 0.456 1.243 -0.433 -0.08 0.55 -0.83 0.03
1 8.13 813 1.077 -11.109 4.554 4.486 -58.777 1.862 -584.919 -989.955 -3554.934 -0.015 2.073 -0.913 -0.09 0.55 -0.83 0.03
1 8.14 814 1.226 -10.602 3.400 10.803 -59.876 9.857 -584.919 -989.955 -3554.934 -0.130 1.569 0.240 -0.09 0.55 -0.83 0.03
1 8.15 815 1.451 -8.888 2.878 32.013 -61.829 11.932 -509.968 -989.955 -3554.934 -0.332 -0.141 0.765 -0.09 0.55 -0.83 0.04
1 8.16 816 2.212 -8.006 3.218 34.485 -65.399 6.714 -509.968 -989.955 -3554.934 -1.048 -0.989 0.491 -0.1 0.55 -0.83 0.04
1 8.17 817 2.653 -8.203 3.462 1.678 -62.439 1.587 -569.929 -1049.916 -3389.892 -1.453 -0.777 0.274 -0.1 0.55 -0.83 0.04
1 8.18 818 2.389 -9.084 3.524 -28.107 -51.788 0.580 -690.000 -1139.857 -3509.963 -1.145 0.102 0.192 -0.11 0.55 -0.83 0.05
1 8.19 819 2.040 -9.539 3.635 -31.036 -43.732 2.350 -690.000 -1139.857 -3509.963 -0.759 0.541 0.031 -0.11 0.55 -0.83 0.05
1 8.20 820 1.551 -9.845 3.855 -0.031 -38.971 -0.153 -764.952 -1064.906 -3554.934 -0.243 0.833 -0.235 -0.11 0.55 -0.83 0.05
1 8.21 821 1.346 -9.773 3.970 16.419 -39.093 -0.946 -764.952 -1064.906 -3554.934 -0.013 0.758 -0.366 -0.12 0.55 -0.83 0.05
1 8.22 822 1.326 -9.477 4.027 18.860 -39.337 -0.641 -764.952 -1019.936 -3509.963 0.030 0.469 -0.412 -0.12 0.55 -0.83 0.05
1 8.23 823 1.140 -9.228 4.032 15.350 -34.485 4.211 -764.952 -1019.936 -3509.963 0.258 0.243 -0.377 -0.12 0.55 -0.83 0.06
1 8.24 824 1.279 -9.247 3.927 14.648 -31.006 8.148 -839.903 -1064.906 -3584.915 0.130 0.270 -0.256 -0.12 0.55 -0.83 0.06
1 8.25 825 1.302 -9.371 3.826 14.679 -30.396 11.169 -824.913 -1079.896 -3569.924 0.110 0.402 -0.139 -0.13 0.54 -0.83 0.06
1 8.26 826 1.173 -9.314 3.850 13.550 -32.074 12.238 -824.913 -1079.896 -3569.924 0.241 0.351 -0.148 -0.13 0.54 -0.83 0.06
1 8.27 827 1.298 -9.275 3.860 10.986 -35.278 11.627 -854.893 -1004.945 -3569.924 0.117 0.318 -0.146 -0.13 0.54 -0.83 0.06
1 8.28 828 1.302 -9.338 3.826 7.233 -36.591 12.268 -974.965 -1079.896 -3599.905 0.117 0.384 -0.103 -0.13 0.54 -0.83 0.06
1 8.29 829 1.350 -9.395 3.888 6.622 -34.912 14.099 -944.984 -1064.906 -3584.915 0.073 0.444 -0.161 -0.13 0.54 -0.83 0.07
1 8.30 830 1.245 -9.381 3.812 5.127 -33.508 15.381 -944.984 -1064.906 -3584.915 0.180 0.431 -0.082 -0.13 0.54 -0.83 0.07
1 8.31 831 1.149 -9.280 3.994 6.561 -32.532 18.158 -1019.936 -1019.936 -3659.866 0.270 0.331 -0.261 -0.14 0.54 -0.83 0.07
1 8.32 832 1.302 -9.189 4.109 7.324 -32.410 18.677 -1064.906 -1094.887 -3509.963 0.109 0.241 -0.371 -0.14 0.54 -0.83 0.08
1 8.33 833 1.379 -9.022 4.056 8.423 -31.799 19.348 -1064.906 -1094.887 -3509.963 0.024 0.074 -0.312 -0.14 0.54 -0.83 0.08
1 8.34 834 1.575 -9.055 3.975 10.773 -30.365 19.928 -944.984 -1094.887 -3509.963 -0.179 0.110 -0.223 -0.14 0.54 -0.83 0.08
1 8.35 835 1.389 -8.658 3.922 14.191 -28.809 18.280 -944.984 -1094.887 -3509.963 0.000 -0.284 -0.158 -0.14 0.54 -0.83 0.08
1 8.36 836 1.561 -8.686 3.850 14.160 -28.015 17.853 -989.955 -1094.887 -3629.885 -0.179 -0.249 -0.071 -0.14 0.54 -0.83 0.08
1 8.37 837 1.528 -8.701 3.850 11.871 -28.961 16.754 -989.955 -1094.887 -3629.885 -0.152 -0.229 -0.054 -0.14 0.54 -0.83 0.09
1 8.38 838 1.796 -8.691 3.793 5.463 -31.433 14.648 -1079.896 -1229.949 -3719.977 -0.427 -0.230 0.025 -0.14 0.53 -0.83 0.09
1 8.39 839 2.035 -8.706 3.941 3.784 -30.426 13.031 -1019.936 -1169.988 -3629.885 -0.663 -0.215 -0.122 -0.14 0.53 -0.83 0.09
1 8.40 840 2.093 -8.586 3.975 4.547 -27.222 10.162 -1019.936 -1169.988 -3629.885 -0.715 -0.333 -0.154 -0.15 0.53 -0.83 0.09
1 8.41 841 2.102 -8.533 3.965 6.531 -22.034 8.301 -1094.887 -1169.988 -3509.963 -0.717 -0.383 -0.140 -0.15 0.53 -0.83 0.1
1 8.42 842 1.896 -8.514 4.027 3.784 -17.334 3.754 -1169.988 -1064.906 -3659.866 -0.502 -0.397 -0.194 -0.15 0.53 -0.83 0.1
1 8.43 843 1.681 -8.777 3.903 0.092 -15.625 2.350 -1064.906 -1139.857 -3449.853 -0.275 -0.129 -0.064 -0.15 0.53 -0.83 0.1
1 8.44 844 1.504 -8.979 3.826 -3.021 -16.022 0.977 -1064.906 -1139.857 -3449.853 -0.088 0.074 0.015 -0.15 0.53 -0.83 0.1
1 8.45 845 1.346 -9.074 3.721 0.183 -17.273 0.671 -1094.887 -1169.988 -3449.853 0.090 0.170 0.111 -0.15 0.53 -0.83 0.1
1 8.46 846 1.346 -9.055 3.850 1.862 -17.883 0.061 -1169.988 -1214.958 -3449.853 0.100 0.151 -0.020 -0.15 0.53 -0.83 0.1
1 8.47 847 1.508 -8.959 3.845 1.801 -18.951 -1.251 -1169.988 -1214.958 -3449.853 -0.052 0.057 -0.016 -0.15 0.53 -0.83 0.1
1 8.48 848 1.575 -9.065 3.812 2.075 -20.203 -2.655 -1259.929 -1049.916 -3599.905 -0.105 0.164 0.017 -0.15 0.53 -0.83 0.1
1 8.49 849 1.710 -9.213 3.884 1.160 -22.003 -5.585 -989.955 -1259.929 -3704.986 -0.221 0.315 -0.056 -0.16 0.53 -0.83 0.1
1 8.50 850 2.126 -9.228 4.018 2.533 -21.698 -8.209 -1154.998 -1229.949 -3644.875 -0.616 0.332 -0.193 -0.16 0.53 -0.83 0.1
1 8.51 851 2.040 -9.400 4.065 3.998 -18.860 -9.094 -1154.998 -1229.949 -3644.875 -0.503 0.509 -0.241 -0.16 0.53 -0.83 0.1
1 8.52 852 2.021 -9.280 4.137 5.554 -14.648 -11.749 -1169.988 -1094.887 -3629.885 -0.428 0.402 -0.306 -0.16 0.53 -0.83 0.1
1 8.53 853 1.882 -9.098 3.965 5.402 -14.618 -11.780 -1274.919 -1169.988 -3584.915 -0.260 0.228 -0.127 -0.16 0.53 -0.83 0.1
1 8.54 854 1.700 -9.223 4.032 1.984 -15.472 -14.069 -1274.919 -1169.988 -3584.915 -0.050 0.359 -0.190 -0.16 0.53 -0.83 0.1
1 8.55 855 1.762 -9.352 4.056 0.671 -16.968 -13.916 -1394.991 -1214.958 -3659.866 -0.083 0.494 -0.214 -0.17 0.53 -0.83 0.1
1 8.56 856 1.671 -9.252 4.070 3.876 -15.045 -10.773 -1304.900 -1199.968 -3644.875 0.036 0.399 -0.229 -0.17 0.53 -0.83 0.1
1 8.57 857 1.753 -8.773 3.984 10.071 -14.130 -10.773 -1229.949 -1124.867 -3494.973 -0.023 -0.073 -0.138 -0.17 0.52 -0.83 0.1
1 8.58 858 1.791 -8.572 4.018 6.531 -15.869 -11.261 -1229.949 -1124.867 -3494.973 -0.038 -0.265 -0.160 -0.17 0.52 -0.83 0.1
1 8.59 859 2.011 -8.260 3.927 3.113 -16.632 -10.376 -1394.991 -1169.988 -3479.983 -0.233 -0.567 -0.060 -0.17 0.52 -0.83 0.1
1 8.60 860 2.078 -8.141 3.970 0.580 -15.717 -11.261 -1304.900 -1049.916 -3494.973 -0.247 -0.674 -0.097 -0.17 0.52 -0.83 0.1
1 8.61 861 2.155 -8.093 3.783 -1.465 -15.137 -11.871 -1304.900 -1049.916 -3494.973 -0.295 -0.716 0.088 -0.17 0.52 -0.83 0.1
1 8.62 862 2.361 -8.112 3.740 -2.533 -14.069 -12.116 -1229.949 -1124.867 -3569.924 -0.472 -0.693 0.127 -0.18 0.52 -0.83 0.09
1 8.63 863 2.299 -8.107 3.702 -3.632 -13.641 -12.634 -1319.890 -1214.958 -3584.915 -0.380 -0.693 0.161 -0.18 0.52 -0.83 0.09
1 8.64 864 2.447 -8.208 3.716 -3.235 -11.261 -13.428 -1394.991 -1259.929 -3629.885 -0.499 -0.589 0.140 -0.18 0.52 -0.83 0.09
1 8.65 865 2.605 -8.356 3.716 -4.578 -10.101 -13.153 -1394.991 -1259.929 -3629.885 -0.627 -0.437 0.134 -0.18 0.52 -0.83 0.09
1 8.66 866 2.787 -8.471 3.697 -6.500 -9.735 -11.414 -1259.929 -1349.871 -3569.924 -0.780 -0.318 0.146 -0.18 0.52 -0.83 0.09
1 8.67 867 3.002 -8.375 3.544 -14.374 -13.214 -11.444 -1364.861 -1304.900 -3539.944 -0.938 -0.411 0.274 -0.18 0.52 -0.83 0.09
1 8.68 868 2.993 -8.495 3.840 -18.433 -13.001 -11.414 -1364.861 -1304.900 -3539.944 -0.897 -0.295 -0.047 -0.19 0.52 -0.83 0.09
1 8.69 869 3.261 -8.442 3.730 -16.510 -9.613 -11.231 -1349.871 -1259.929 -3584.915 -1.136 -0.352 0.036 -0.19 0.52 -0.83 0.09
1 8.70 870 3.141 -8.591 3.802 -12.726 -4.669 -11.505 -1574.874 -1139.857 -3509.963 -0.987 -0.206 -0.058 -0.19 0.52 -0.83 0.09
1 8.71 871 2.974 -8.466 3.812 -8.972 -0.793 -12.451 -1469.942 -1259.929 -3479.983 -0.793 -0.330 -0.083 -0.19 0.52 -0.83 0.09
1 8.72 872 2.864 -8.303 3.816 -10.040 0.732 -12.360 -1469.942 -1259.929 -3479.983 -0.658 -0.491 -0.098 -0.19 0.52 -0.83 0.09
1 8.73 873 2.648 -8.370 3.754 -13.794 1.801 -12.146 -1544.894 -1169.988 -3404.882 -0.419 -0.423 -0.046 -0.19 0.52 -0.83 0.08
1 8.74 874 2.729 -8.533 3.869 -17.090 3.357 -11.871 -1424.972 -1169.988 -3554.934 -0.480 -0.260 -0.174 -0.19 0.52 -0.83 0.08
1 8.75 875 2.691 -8.572 3.678 -19.867 2.533 -9.796 -1424.972 -1169.988 -3554.934 -0.405 -0.229 -0.022 -0.19 0.53 -0.82 0.08
1 8.76 876 2.476 -8.581 3.816 -20.569 2.563 -8.270 -1439.962 -1229.949 -3539.944 -0.174 -0.225 -0.184 -0.19 0.53 -0.82 0.08
1 8.77 877 2.504 -8.730 3.802 -20.386 2.258 -7.507 -1409.981 -1229.949 -3494.973 -0.190 -0.083 -0.194 -0.19 0.53 -0.82 0.08
1 8.78 878 2.581 -8.653 3.764 -20.752 2.136 -7.172 -1334.880 -1304.900 -3464.993 -0.255 -0.167 -0.180 -0.19 0.53 -0.82 0.08
1 8.79 879 2.413 -8.686 3.898 -21.179 3.662 -5.341 -1334.880 -1304.900 -3464.993 -0.077 -0.140 -0.337 -0.19 0.53 -0.82 0.08
1 8.80 880 2.294 -8.935 3.912 -20.844 3.784 -5.249 -1514.913 -1199.968 -3359.911 0.050 0.102 -0.374 -0.19 0.53 -0.82 0.07
1 8.81 881 2.428 -9.026 3.912 -20.783 3.326 -4.700 -1409.981 -1124.867 -3464.993 -0.079 0.185 -0.397 -0.19 0.53 -0.82 0.07
1 8.82 882 2.385 -9.151 3.769 -17.304 2.014 -2.838 -1409.981 -1124.867 -3464.993 -0.027 0.295 -0.298 -0.19 0.53 -0.82 0.07
1 8.83 883 2.265 -9.060 3.826 -12.573 2.441 -1.495 -1499.923 -989.955 -3449.853 0.095 0.197 -0.374 -0.19 0.53 -0.82 0.07
1 8.84 884 2.303 -9.065 3.711 -10.498 2.594 -0.916 -1424.972 -1019.936 -3329.931 0.057 0.197 -0.270 -0.19 0.54 -0.82 0.07
1 8.85 885 2.117 -8.921 3.563 -10.834 1.648 -1.801 -1424.972 -1019.936 -3329.931 0.243 0.050 -0.132 -0.19 0.54 -0.82 0.07
1 8.86 886 2.188 -8.749 3.328 -10.315 -2.167 -2.686 -1514.913 -1004.945 -3494.973 0.173 -0.127 0.091 -0.19 0.54 -0.82 0.07
1 8.87 887 1.987 -8.763 3.395 -10.590 -5.524 -3.845 -1499.923 -1169.988 -3449.853 0.377 -0.116 0.013 -0.19 0.54 -0.82 0.07
1 8.88 888 2.169 -8.935 3.328 -10.864 -8.392 -3.876 -1394.991 -1019.936 -3479.983 0.202 0.053 0.066 -0.19 0.54 -0.82 0.07
1 8.89 889 2.188 -8.945 3.285 -12.207 -9.888 -1.434 -1394.991 -1019.936 -3479.983 0.200 0.054 0.075 -0.2 0.54 -0.82 0.07
1 8.90 890 2.342 -8.816 3.390 -11.597 -8.637 0.336 -1424.972 -944.984 -3404.882 0.053 -0.080 -0.049 -0.2 0.54 -0.82 0.07
1 8.91 891 2.399 -8.931 3.357 -11.597 -8.728 0.000 -1424.972 -1019.936 -3449.853 0.000 0.030 -0.032 -0.2 0.54 -0.82 0.07
1 8.92 892 2.208 -8.897 3.065 -12.451 -10.590 0.427 -1424.972 -1019.936 -3449.853 0.197 -0.009 0.243 -0.2 0.54 -0.81 0.07
1 8.93 893 2.318 -8.940 3.026 -13.489 -13.489 2.563 -1604.854 -1019.936 -3404.882 0.092 0.028 0.260 -0.2 0.54 -0.81 0.07
1 8.94 894 2.629 -8.931 3.089 -12.878 -11.749 3.235 -1559.884 -929.994 -3419.872 -0.215 0.011 0.175 -0.2 0.54 -0.81 0.07
1 8.95 895 2.753 -8.940 3.031 -14.069 -9.338 4.211 -1484.933 -1079.896 -3419.872 -0.336 0.014 0.211 -0.2 0.54 -0.81 0.07
1 8.96 896 2.710 -9.003 2.878 -15.259 -5.463 6.226 -1484.933 -1079.896 -3419.872 -0.290 0.061 0.320 -0.2 0.54 -0.81 0.07
1 8.97 897 2.686 -8.926 2.988 -15.350 -5.127 6.866 -1544.894 -1019.936 -3329.931 -0.270 -0.025 0.187 -0.2 0.55 -0.81 0.07
1 8.98 898 2.715 -8.998 2.835 -15.167 -6.134 7.416 -1604.854 -989.955 -3404.882 -0.302 0.037 0.316 -0.2 0.55 -0.81 0.07
1 8.99 899 2.878 -8.859 2.605 -15.472 -7.294 7.172 -1604.854 -989.955 -3404.882 -0.469 -0.111 0.522 -0.2 0.55 -0.81 0.08
1 9.00 900 2.801 -8.868 2.682 -18.066 -4.944 6.836 -1424.972 -1064.906 -3224.999 -0.394 -0.111 0.420 -0.2 0.55 -0.81 0.08
1 9.01 901 3.022 -8.988 2.734 -20.203 -1.678 7.080 -1589.864 -1004.945 -3209.859 -0.617 -0.001 0.341 -0.2 0.55 -0.81 0.08
1 9.02 902 2.897 -9.074 2.648 -21.362 2.106 7.568 -1424.972 -989.955 -3224.999 -0.495 0.075 0.399 -0.2 0.55 -0.81 0.08
1 9.03 903 3.002 -9.026 2.619 -20.386 4.761 8.240 -1424.972 -989.955 -3224.999 -0.606 0.016 0.397 -0.2 0.55 -0.81 0.08
1 9.04 904 2.715 -8.974 2.600 -18.768 7.599 8.514 -1409.981 -929.994 -3359.911 -0.336 -0.060 0.362 -0.2 0.55 -0.8 0.08
1 9.05 905 2.447 -9.060 2.442 -20.477 8.606 8.362 -1514.913 -884.874 -3284.960 -0.080 0.015 0.496 -0.2 0.56 -0.8 0.08
1 9.06 906 2.538 -9.089 2.413 -22.492 9.094 8.453 -1514.913 -884.874 -3284.960 -0.183 0.032 0.497 -0.2 0.56 -0.8 0.08
1 9.07 907 2.413 -9.299 2.380 -22.736 8.331 8.698 -1394.991 -914.854 -3224.999 -0.072 0.230 0.501 -0.2 0.56 -0.8 0.08
1 9.08 908 2.437 -9.208 2.279 -21.820 7.446 8.759 -1589.864 -884.874 -3314.940 -0.110 0.125 0.570 -0.2 0.56 -0.8 0.07
1 9.09 909 2.423 -9.204 2.404 -19.867 7.111 8.453 -1424.972 -794.932 -3149.898 -0.109 0.107 0.415 -0.2 0.56 -0.8 0.07
1 9.10 910 2.509 -9.213 2.337 -20.935 7.629 8.789 -1424.972 -794.932 -3149.898 -0.208 0.105 0.454 -0.2 0.56 -0.8 0.07
1 9.11 911 2.581 -9.438 2.332 -23.254 11.292 8.575 -1409.981 -779.942 -3209.859 -0.307 0.307 0.403 -0.2 0.57 -0.8 0.07
1 9.12 912 2.500 -9.534 2.471 -22.675 14.587 9.399 -1439.962 -1004.945 -3314.940 -0.240 0.390 0.234 -0.2 0.57 -0.8 0.07
1 9.13 913 2.509 -9.501 2.279 -19.440 15.839 9.644 -1439.962 -1004.945 -3314.940 -0.266 0.344 0.399 -0.2 0.57 -0.79 0.07
1 9.14 914 2.332 -9.414 2.279 -17.548 15.381 8.331 -1469.942 -839.903 -3194.869 -0.106 0.247 0.375 -0.2 0.57 -0.79 0.07
1 9.15 915 2.519 -9.659 2.361 -18.524 15.015 5.859 -1439.962 -779.942 -3209.859 -0.308 0.482 0.273 -0.19 0.57 -0.79 0.07
1 9.16 916 2.586 -9.831 2.208 -18.250 15.045 5.157 -1424.972 -839.903 -3224.999 -0.388 0.645 0.405 -0.19 0.57 -0.79 0.07
1 9.17 917 2.442 -9.908 2.284 -15.015 17.242 5.341 -1424.972 -839.903 -3224.999 -0.255 0.713 0.306 -0.19 0.57 -0.79 0.07
1 9.18 918 2.514 -9.414 2.246 -12.573 17.883 4.791 -1364.861 -779.942 -3134.908 -0.338 0.211 0.326 -0.19 0.58 -0.79 0.07
1 9.19 919 2.270 -9.213 2.083 -12.390 17.181 3.815 -1409.981 -854.893 -3239.989 -0.116 -0.002 0.464 -0.19 0.58 -0.79 0.07
1 9.20 920 2.174 -9.366 2.251 -15.350 16.815 2.594 -1409.981 -854.893 -3239.989 -0.030 0.146 0.283 -0.19 0.58 -0.79 0.07
1 9.21 921 2.270 -9.673 2.064 -19.043 16.144 3.113 -1229.949 -854.893 -3134.908 -0.135 0.445 0.452 -0.19 0.58 -0.79 0.07
1 9.22 922 2.294 -9.946 2.342 -19.409 16.266 3.876 -1484.933 -734.971 -3134.908 -0.168 0.709 0.150 -0.19 0.58 -0.79 0.07
1 9.23 923 2.418 -10.080 2.500 -15.076 16.785 4.089 -1334.880 -629.890 -3059.957 -0.303 0.835 -0.030 -0.19 0.58 -0.79 0.07
1 9.24 924 2.351 -10.185 2.643 -12.268 16.541 1.343 -1334.880 -629.890 -3059.957 -0.246 0.934 -0.191 -0.19 0.58 -0.79 0.07
1 9.25 925 2.418 -10.271 2.634 -12.054 16.083 -1.740 -1424.972 -839.903 -3224.999 -0.320 1.015 -0.194 -0.18 0.58 -0.79 0.07
1 9.26 926 2.102 -10.152 2.667 -7.935 14.221 -3.235 -1334.880 -734.971 -3239.989 -0.008 0.889 -0.246 -0.18 0.59 -0.79 0.06
1 9.27 927 1.973 -9.951 2.571 -2.869 13.214 -3.998 -1334.880 -734.971 -3239.989 0.122 0.688 -0.153 -0.18 0.59 -0.79 0.06
1 9.28 928 1.935 -9.845 2.662 -1.556 12.726 -4.456 -1199.968 -749.961 -3254.979 0.160 0.583 -0.241 -0.18 0.59 -0.79 0.06
1 9.29 929 2.045 -9.917 2.782 -3.479 12.604 -4.578 -1199.968 -749.961 -3254.979 0.050 0.656 -0.357 -0.18 0.59 -0.79 0.06
1 9.30 930 2.021 -9.932 2.600 -2.045 14.191 -2.319 -1364.861 -809.922 -3164.888 0.075 0.671 -0.173 -0.18 0.59 -0.79 0.06
1 9.31 931 2.107 -9.706 2.471 0.336 14.526 -1.343 -1364.861 -809.922 -3164.888 -0.013 0.446 -0.040 -0.18 0.59 -0.79 0.06
1 9.32 932 2.150 -9.501 2.332 3.265 14.923 -1.953 -1259.929 -584.919 -3284.960 -0.060 0.241 0.105 -0.18 0.59 -0.79 0.06
1 9.33 933 2.016 -9.132 2.155 3.998 12.482 -3.723 -1139.857 -794.932 -3299.950 0.071 -0.123 0.302 -0.18 0.59 -0.79 0.06
1 9.34 934 2.370 -8.998 2.275 1.221 10.345 -6.195 -1139.857 -794.932 -3299.950 -0.280 -0.254 0.191 -0.18 0.59 -0.79 0.06
1 9.35 935 2.418 -9.132 2.342 -2.686 8.453 -5.951 -1349.871 -794.932 -3194.869 -0.321 -0.117 0.128 -0.18 0.59 -0.79 0.06
1 9.36 936 2.576 -9.386 2.366 -4.730 9.399 -6.073 -1349.871 -794.932 -3194.869 -0.470 0.138 0.103 -0.18 0.59 -0.79 0.06
1 9.37 937 2.509 -9.381 2.337 -0.183 13.672 -5.646 -1229.949 -704.991 -3164.888 -0.395 0.135 0.130 -0.18 0.59 -0.79 0.05
1 9.38 938 2.198 -9.170 2.308 3.387 15.533 -5.890 -1229.949 -704.991 -3164.888 -0.077 -0.073 0.161 -0.18 0.59 -0.79 0.05
1 9.39 939 1.786 -9.189 2.270 3.571 14.893 -8.240 -1139.857 -749.961 -3149.898 0.341 -0.050 0.209 -0.18 0.59 -0.79 0.05
1 9.40 940 1.585 -9.472 2.385 -0.641 9.460 -10.529 -1349.871 -644.880 -3224.999 0.556 0.240 0.112 -0.18 0.58 -0.79 0.05
1 9.41 941 1.671 -9.481 2.236 -1.312 7.111 -11.017 -1349.871 -644.880 -3224.999 0.479 0.252 0.263 -0.18 0.58 -0.79 0.05
1 9.42 942 1.652 -9.592 2.289 4.303 3.296 -10.407 -1274.919 -719.981 -3149.898 0.508 0.366 0.212 -0.18 0.58 -0.79 0.05
1 9.43 943 1.896 -9.424 2.361 7.782 1.740 -9.216 -1274.919 -719.981 -3149.898 0.274 0.203 0.149 -0.18 0.58 -0.79 0.05
1 9.44 944 1.935 -9.419 2.342 5.463 -0.427 -6.439 -1274.919 -749.961 -3329.931 0.245 0.203 0.180 -0.18 0.58 -0.79 0.05
1 9.45 945 1.944 -9.299 2.255 3.754 -1.282 -4.395 -1274.919 -749.961 -3329.931 0.244 0.088 0.275 -0.18 0.58 -0.79 0.05
1 9.46 946 2.030 -9.314 2.313 2.441 -1.587 -3.357 -1319.890 -839.903 -3194.869 0.165 0.106 0.223 -0.18 0.58 -0.79 0.05
1 9.47 947 2.112 -9.486 2.337 2.380 -2.563 -2.594 -1259.929 -779.942 -3104.927 0.088 0.280 0.201 -0.18 0.58 -0.79 0.05
1 9.48 948 2.155 -9.371 2.327 2.869 -4.120 -0.641 -1259.929 -779.942 -3104.927 0.052 0.168 0.216 -0.18 0.58 -0.79 0.05
1 9.49 949 2.140 -9.299 2.346 3.693 -4.822 0.458 -1169.988 -869.883 -3149.898 0.070 0.098 0.200 -0.18 0.58 -0.79 0.05
1 9.50 950 2.351 -9.328 2.528 3.845 -3.723 1.831 -1169.988 -869.883 -3149.898 -0.140 0.128 0.022 -0.18 0.58 -0.79 0.05
1 9.51 951 2.284 -9.587 2.346 2.747 -2.228 2.350 -1079.896 -884.874 -3209.859 -0.072 0.388 0.208 -0.18 0.58 -0.79 0.05
1 9.52 952 2.370 -9.625 2.121 4.028 -0.183 3.143 -1319.890 -719.981 -3224.999 -0.160 0.427 0.437 -0.18 0.58 -0.79 0.05
1 9.53 953 2.399 -9.797 2.246 5.859 -0.916 3.326 -1319.890 -914.854 -3194.869 -0.191 0.600 0.316 -0.18 0.58 -0.79 0.05
1 9.54 954 2.447 -9.496 2.313 5.219 -1.801 2.747 -1184.978 -734.971 -3059.957 -0.241 0.299 0.255 -0.18 0.58 -0.79 0.05
1 9.55 955 2.615 -9.390 2.471 4.883 -3.052 4.150 -1184.978 -734.971 -3059.957 -0.412 0.196 0.107 -0.18 0.58 -0.79 0.05
1 9.56 956 2.782 -9.271 2.471 7.050 -0.519 3.693 -1274.919 -944.984 -3254.979 -0.581 0.077 0.114 -0.18 0.58 -0.79 0.05
1 9.57 957 2.859 -9.304 2.318 6.256 0.732 2.716 -1274.919 -944.984 -3254.979 -0.658 0.114 0.277 -0.18 0.58 -0.79 0.05
1 9.58 958 3.022 -9.405 2.322 3.418 2.014 2.747 -1199.968 -794.932 -3194.869 -0.819 0.217 0.280 -0.18 0.58 -0.79 0.05
1 9.59 959 2.959 -9.290 2.284 0.916 4.517 3.448 -1259.929 -809.922 -3314.940 -0.756 0.103 0.321 -0.18 0.58 -0.79 0.05
1 9.60 960 2.964 -9.280 2.107 1.831 6.012 2.777 -1184.978 -809.922 -3164.888 -0.760 0.094 0.500 -0.18 0.58 -0.79 0.05
1 9.61 961 3.002 -9.161 2.251 3.998 7.507 -0.092 -1169.988 -719.981 -3194.869 -0.799 -0.025 0.359 -0.18 0.58 -0.79 0.05
1 9.62 962 3.007 -9.165 2.394 2.930 9.369 -1.373 -1169.988 -719.981 -3194.869 -0.801 -0.018 0.221 -0.18 0.58 -0.79 0.05
1 9.63 963 2.744 -9.218 2.260 -2.045 14.099 -3.967 -1304.900 -734.971 -3239.989 -0.527 0.041 0.367 -0.18 0.58 -0.79 0.05
1 9.64 964 2.710 -9.362 2.428 -3.571 16.205 -4.334 -1304.900 -734.971 -3239.989 -0.488 0.186 0.200 -0.18 0.58 -0.79 0.05
1 9.65 965 2.595 -9.764 2.327 -3.296 17.883 -4.425 -1274.919 -914.854 -3254.979 -0.369 0.589 0.300 -0.18 0.58 -0.79 0.05
1 9.66 966 2.457 -9.817 2.471 -0.671 20.599 -4.547 -1319.890 -644.880 -3224.999 -0.229 0.642 0.158 -0.18 0.58 -0.79 0.05
1 9.67 967 2.289 -9.347 2.509 6.073 22.430 -6.134 -1019.936 -674.860 -3194.869 -0.061 0.175 0.126 -0.18 0.58 -0.8 0.05
1 9.68 968 2.054 -9.223 2.548 6.287 21.729 -7.660 -1154.998 -854.893 -3284.960 0.174 0.055 0.103 -0.18 0.58 -0.8 0.05
1 9.69 969 2.093 -9.309 2.480 4.517 19.989 -8.789 -1154.998 -854.893 -3284.960 0.138 0.146 0.186 -0.18 0.58 -0.8 0.04
1 9.70 970 2.236 -9.208 2.452 1.465 18.402 -10.223 -1229.949 -659.870 -3239.989 0.003 0.055 0.239 -0.17 0.58 -0.8 0.04
1 9.71 971 2.322 -9.314 2.533 1.740 18.982 -10.773 -1229.949 -659.870 -3239.989 -0.075 0.165 0.167 -0.17 0.58 -0.8 0.04
1 9.72 972 2.437 -9.347 2.466 2.014 19.898 -10.193 -1244.939 -869.883 -3404.882 -0.181 0.203 0.243 -0.17 0.58 -0.8 0.04
1 9.73 973 2.361 -9.299 2.399 3.693 20.569 -9.796 -1199.968 -749.961 -3224.999 -0.097 0.160 0.320 -0.17 0.58 -0.8 0.04
1 9.74 974 2.399 -9.218 2.519 4.669 20.477 -7.874 -1094.887 -794.932 -3224.999 -0.130 0.084 0.212 -0.17 0.58 -0.8 0.04
1 9.75 975 2.337 -9.022 2.514 3.571 19.135 -7.202 -1169.988 -794.932 -3299.950 -0.064 -0.107 0.231 -0.17 0.58 -0.8 0.04
1 9.76 976 2.768 -9.376 2.658 2.960 19.501 -6.928 -1169.988 -794.932 -3299.950 -0.491 0.251 0.098 -0.17 0.57 -0.8 0.03
1 9.77 977 2.643 -9.386 2.835 6.500 25.269 -4.639 -1169.988 -869.883 -3299.950 -0.361 0.270 -0.055 -0.17 0.57 -0.8 0.03
1 9.78 978 2.543 -9.295 2.753 9.705 27.557 -3.418 -1169.988 -869.883 -3299.950 -0.262 0.185 0.047 -0.17 0.57 -0.8 0.03
1 9.79 979 2.404 -9.041 2.758 8.698 27.374 -1.556 -1109.877 -659.870 -3389.892 -0.127 -0.063 0.066 -0.17 0.57 -0.8 0.03
1 9.80 980 2.275 -9.036 2.744 5.463 27.069 -1.862 -1244.939 -749.961 -3224.999 -0.006 -0.063 0.102 -0.16 0.57 -0.8 0.03
1 9.81 981 2.155 -9.127 2.806 0.702 27.618 -0.732 -1229.949 -929.994 -3314.940 0.105 0.031 0.057 -0.16 0.57 -0.8 0.03
1 9.82 982 2.045 -9.280 2.701 -0.397 27.710 0.702 -1064.906 -944.984 -3404.882 0.206 0.186 0.175 -0.16 0.57 -0.8 0.03
1 9.83 983 1.882 -9.266 2.830 -1.984 26.215 2.502 -1064.906 -944.984 -3404.882 0.357 0.172 0.056 -0.16 0.57 -0.8 0.03
1 9.84 984 1.642 -9.242 2.883 -3.357 24.567 5.249 -1004.945 -809.922 -3239.989 0.562 0.144 0.016 -0.16 0.57 -0.8 0.02
1 9.85 985 1.580 -9.141 2.916 -3.571 23.163 5.676 -1004.945 -809.922 -3239.989 0.603 0.040 -0.012 -0.15 0.57 -0.8 0.02
1 9.86 986 1.489 -9.003 2.868 -2.686 19.836 5.768 -1109.877 -854.893 -3239.989 0.673 -0.103 0.040 -0.15 0.57 -0.8 0.02
1 9.87 987 1.595 -9.151 3.002 -1.160 18.127 6.012 -974.965 -809.922 -3359.911 0.547 0.042 -0.089 -0.15 0.57 -0.81 0.02
1 9.88 988 1.547 -9.319 2.959 0.458 15.472 6.622 -1034.926 -929.994 -3239.989 0.575 0.208 -0.039 -0.15 0.57 -0.81 0.02
1 9.89 989 1.676 -9.314 3.079 2.930 14.465 8.270 -1034.926 -809.922 -3239.989 0.426 0.201 -0.151 -0.15 0.57 -0.81 0.02
1 9.90 990 1.461 -9.165 3.022 4.272 13.641 10.620 -1034.926 -809.922 -3239.989 0.622 0.051 -0.084 -0.15 0.57 -0.81 0.02
1 9.91 991 1.398 -9.161 3.266 5.646 13.153 12.482 -1019.936 -989.955 -3299.950 0.662 0.045 -0.315 -0.15 0.57 -0.81 0.02
1 9.92 992 1.312 -9.314 3.333 4.334 13.855 15.472 -1019.936 -989.955 -3299.950 0.693 0.196 -0.353 -0.14 0.57 -0.81 0.02
1 9.93 993 1.192 -9.400 3.366 3.540 14.252 17.151 -1004.945 -779.942 -3284.960 0.779 0.279 -0.373 -0.14 0.57 -0.81 0.03
1 9.94 994 1.058 -9.558 3.256 3.296 13.458 17.731 -1004.945 -854.893 -3239.989 0.878 0.434 -0.250 -0.14 0.57 -0.81 0.03
1 9.95 995 1.101 -9.472 3.122 5.280 10.559 16.754 -1004.945 -854.893 -3239.989 0.798 0.344 -0.104 -0.14 0.57 -0.81 0.03
1 9.96 996 1.073 -9.280 3.060 7.660 4.791 14.069 -899.864 -959.975 -3284.960 0.795 0.150 -0.029 -0.14 0.57 -0.81 0.03
1 9.97 997 1.173 -9.146 3.184 6.744 0.580 12.939 -899.864 -959.975 -3284.960 0.666 0.015 -0.139 -0.14 0.57 -0.81 0.03
1 9.98 998 1.331 -9.017 3.204 4.425 -1.160 13.458 -869.883 -1019.936 -3254.979 0.485 -0.115 -0.146 -0.14 0.57 -0.81 0.03
1 9.99 999 1.451 -9.199 3.342 -1.526 -1.770 17.853 -869.883 -1019.936 -3254.979 0.320 0.063 -0.269 -0.13 0.57 -0.81 0.03
1 10.00 1000 1.657 -9.328 3.314 -3.113 -0.244 21.851 -989.955 -989.955 -3299.950 0.088 0.188 -0.240 -0.13 0.57 -0.81 0.03
1 10.01 1001 1.657 -9.386 3.280 -3.174 0.763 25.269 -944.984 -914.854 -3329.931 0.056 0.238 -0.209 -0.13 0.57 -0.81 0.04
