COL1	TIME	ACC_X	ACC_Y	ACC_Z	GYR_X	GYR_Y	GYR_Z	MAG_X	MAG_Y	MAG_Z	LACC_X	LACC_Y	LACC_Z	QUAT_X	QUAT_Y	QUAT_Z	QUAT_W
1 0.00 0 -0.378 -9.941 0.235 -0.214 0.732 0.916 88.292 3379.398 -2816.965 -0.027 0.150 -0.179 -0.01 0.71 -0.71 0.04
1 0.01 1 -0.330 -9.927 0.235 0.671 0.305 1.251 -46.620 3409.379 -2741.864 -0.075 0.135 -0.178 -0.01 0.7 -0.71 0.04
1 0.02 2 -0.388 -9.802 0.192 2.167 0.671 1.038 -46.620 3409.379 -2741.864 -0.019 0.011 -0.132 -0.01 0.7 -0.71 0.04
1 0.03 3 -0.297 -9.783 0.268 0.580 -0.702 0.763 -1.499 3469.340 -2786.834 -0.111 -0.008 -0.204 -0.01 0.7 -0.71 0.04
1 0.04 4 -0.397 -9.917 0.158 -2.075 -1.892 0.366 -31.629 3424.369 -2756.854 -0.009 0.126 -0.093 -0.01 0.7 -0.71 0.04
1 0.05 5 -0.350 -9.879 0.105 -0.702 -1.038 -0.305 -31.629 3424.369 -2756.854 -0.057 0.088 -0.042 -0.01 0.7 -0.71 0.04
1 0.06 6 -0.369 -9.869 0.287 0.000 -1.556 0.732 -46.620 3454.350 -2696.893 -0.038 0.078 -0.225 -0.01 0.7 -0.71 0.04
1 0.07 7 -0.235 -9.970 0.187 -0.732 -1.282 0.610 118.273 3499.320 -2681.903 -0.173 0.179 -0.122 -0.01 0.7 -0.71 0.04
1 0.08 8 -0.163 -9.936 0.316 -0.549 -1.312 1.434 148.253 3589.412 -2651.922 -0.244 0.145 -0.251 -0.01 0.7 -0.71 0.04
1 0.09 9 -0.148 -9.984 0.273 0.000 -1.740 1.251 148.253 3589.412 -2651.922 -0.260 0.193 -0.207 -0.01 0.7 -0.71 0.04
1 0.10 10 -0.287 -9.821 0.158 -0.244 -2.045 1.129 -1.499 3424.369 -2681.903 -0.120 0.030 -0.090 -0.01 0.7 -0.71 0.04
1 0.11 11 -0.182 -9.884 0.350 -0.153 -1.984 0.977 73.302 3544.291 -2756.854 -0.226 0.092 -0.281 -0.01 0.7 -0.71 0.04
1 0.12 12 -0.254 -9.793 0.215 -1.099 -1.160 2.106 73.302 3544.291 -2756.854 -0.154 0.001 -0.146 -0.01 0.7 -0.71 0.04
1 0.13 13 -0.268 -9.970 0.206 0.092 -2.106 1.831 -1.499 3424.369 -2651.922 -0.141 0.179 -0.137 -0.01 0.7 -0.71 0.04
1 0.14 14 -0.263 -9.764 0.211 -1.068 -2.014 1.343 -76.600 3499.320 -2681.903 -0.149 -0.027 -0.140 -0.01 0.7 -0.71 0.04
1 0.15 15 -0.235 -9.841 0.196 -2.441 -1.343 0.488 -1.499 3544.291 -2726.874 -0.178 0.049 -0.126 -0.01 0.7 -0.71 0.04
1 0.16 16 -0.077 -9.888 0.163 -3.113 -0.641 0.610 -1.499 3544.291 -2726.874 -0.335 0.097 -0.096 -0.01 0.7 -0.71 0.04
1 0.17 17 -0.187 -10.037 0.230 -2.808 -0.336 0.732 -1.499 3334.428 -2651.922 -0.224 0.246 -0.167 -0.01 0.7 -0.71 0.04
1 0.18 18 -0.220 -9.884 0.091 -1.709 -0.946 1.709 -16.639 3379.398 -2771.844 -0.191 0.092 -0.031 -0.01 0.7 -0.71 0.04
1 0.19 19 -0.110 -9.773 0.244 -0.153 -1.343 1.587 -16.639 3379.398 -2771.844 -0.301 -0.018 -0.185 -0.01 0.7 -0.71 0.04
1 0.20 20 -0.201 -9.970 0.115 -0.549 -1.526 1.678 -1.499 3394.389 -2681.903 -0.211 0.179 -0.055 -0.01 0.7 -0.71 0.04
1 0.21 21 -0.211 -9.898 0.268 -1.221 -0.580 1.740 -1.499 3394.389 -2726.874 -0.202 0.107 -0.208 -0.01 0.7 -0.71 0.04
1 0.22 22 -0.187 -9.932 0.201 -0.366 -1.099 1.404 43.322 3364.408 -2756.854 -0.227 0.140 -0.142 -0.01 0.7 -0.71 0.04
1 0.23 23 -0.306 -9.979 0.086 -0.580 -1.678 1.404 43.322 3364.408 -2756.854 -0.108 0.188 -0.027 -0.01 0.7 -0.71 0.04
1 0.24 24 -0.259 -9.912 0.129 -0.305 -2.258 1.068 43.322 3424.369 -2861.936 -0.157 0.121 -0.070 -0.01 0.7 -0.71 0.04
1 0.25 25 -0.259 -9.984 0.120 0.336 -2.899 1.099 -16.639 3454.350 -2741.864 -0.157 0.193 -0.060 -0.01 0.7 -0.71 0.04
1 0.26 26 -0.168 -9.850 0.211 0.275 -2.655 -0.214 -16.639 3454.350 -2741.864 -0.248 0.059 -0.149 -0.01 0.7 -0.71 0.04
1 0.27 27 -0.283 -9.893 0.211 -0.214 -2.197 -0.641 -31.629 3589.412 -2786.834 -0.131 0.102 -0.148 -0.01 0.7 -0.71 0.04
1 0.28 28 -0.211 -9.773 0.115 -0.183 -1.953 0.153 43.322 3469.340 -2651.922 -0.198 -0.018 -0.050 -0.01 0.7 -0.71 0.04
1 0.29 29 -0.230 -9.831 0.163 -1.251 -1.038 1.038 -31.629 3394.389 -2786.834 -0.178 0.040 -0.098 -0.01 0.7 -0.71 0.04
1 0.30 30 -0.283 -9.960 0.129 -2.838 -0.885 1.221 -31.629 3394.389 -2786.834 -0.126 0.169 -0.067 -0.01 0.7 -0.71 0.04
1 0.31 31 -0.254 -10.061 0.129 -2.838 -1.251 1.221 -151.551 3334.428 -2651.922 -0.154 0.269 -0.070 -0.01 0.7 -0.71 0.04
1 0.32 32 -0.302 -10.013 0.359 -1.556 -0.793 1.190 -46.620 3349.418 -2621.942 -0.107 0.222 -0.303 -0.01 0.71 -0.71 0.04
1 0.33 33 -0.225 -9.951 0.239 -0.397 0.031 2.045 -46.620 3349.418 -2621.942 -0.185 0.159 -0.183 -0.01 0.71 -0.71 0.04
1 0.34 34 -0.249 -9.999 0.101 -0.214 -0.610 0.946 -151.551 3469.340 -2606.952 -0.163 0.207 -0.044 -0.01 0.7 -0.71 0.04
1 0.35 35 -0.287 -9.941 0.172 0.275 -1.862 1.221 -31.629 3469.340 -2831.955 -0.125 0.150 -0.115 -0.01 0.7 -0.71 0.04
1 0.36 36 -0.177 -9.927 0.125 0.732 -2.411 0.031 58.312 3409.379 -2621.942 -0.236 0.136 -0.064 -0.01 0.7 -0.71 0.04
1 0.37 37 0.038 -9.855 0.129 -0.427 -1.709 -0.031 58.312 3409.379 -2621.942 -0.450 0.064 -0.068 -0.01 0.7 -0.71 0.04
1 0.38 38 -0.062 -9.826 0.177 -0.763 -0.549 0.244 58.312 3559.431 -2741.864 -0.346 0.035 -0.115 -0.01 0.7 -0.71 0.04
1 0.39 39 -0.072 -9.850 0.263 -0.458 -0.366 0.916 -1.499 3544.291 -2651.922 -0.334 0.059 -0.200 -0.01 0.7 -0.71 0.04
1 0.40 40 -0.158 -9.898 0.177 -1.007 -0.366 0.824 -1.499 3544.291 -2651.922 -0.246 0.107 -0.113 -0.01 0.7 -0.71 0.04
1 0.41 41 -0.259 -9.908 0.182 0.275 -0.397 0.763 88.292 3379.398 -2666.913 -0.144 0.116 -0.118 -0.01 0.7 -0.71 0.04
1 0.42 42 -0.259 -9.879 0.230 0.000 -0.214 1.465 118.273 3334.428 -2651.922 -0.143 0.087 -0.165 -0.01 0.7 -0.71 0.04
1 0.43 43 -0.220 -9.922 0.096 -0.946 -0.336 1.465 118.273 3334.428 -2651.922 -0.183 0.130 -0.031 -0.01 0.7 -0.71 0.04
1 0.44 44 -0.168 -9.888 0.220 -1.495 0.610 1.801 28.332 3409.379 -2621.942 -0.237 0.097 -0.157 -0.01 0.7 -0.71 0.04
1 0.45 45 -0.335 -9.898 0.172 -0.793 -0.732 1.038 -1.499 3364.408 -2681.903 -0.071 0.107 -0.111 -0.01 0.7 -0.71 0.04
1 0.46 46 -0.215 -10.046 0.172 -0.092 -1.160 1.007 58.312 3484.330 -2666.913 -0.190 0.255 -0.110 -0.01 0.7 -0.71 0.04
1 0.47 47 -0.263 -9.965 0.129 -0.580 -1.068 0.397 58.312 3484.330 -2666.913 -0.142 0.174 -0.067 -0.01 0.7 -0.71 0.04
1 0.48 48 -0.172 -9.912 0.110 -0.061 -0.305 0.702 -46.620 3454.350 -2621.942 -0.231 0.121 -0.047 -0.01 0.7 -0.71 0.04
1 0.49 49 -0.244 -10.013 0.187 0.153 -0.092 1.831 43.322 3499.320 -2831.955 -0.158 0.221 -0.123 -0.01 0.7 -0.71 0.04
1 0.50 50 -0.168 -9.864 0.235 0.488 -1.129 1.160 43.322 3499.320 -2831.955 -0.234 0.073 -0.170 -0.01 0.7 -0.71 0.04
1 0.51 51 -0.153 -9.740 0.235 -0.061 -0.488 1.007 -46.620 3409.379 -2621.942 -0.249 -0.052 -0.165 -0.01 0.7 -0.71 0.04
1 0.52 52 -0.067 -9.778 0.340 -1.495 0.458 1.038 -1.499 3289.307 -2681.903 -0.333 -0.013 -0.270 -0.01 0.7 -0.71 0.04
1 0.53 53 -0.278 -10.051 0.254 -2.258 1.007 0.916 -1.499 3394.389 -2756.854 -0.122 0.260 -0.184 -0.01 0.7 -0.71 0.04
1 0.54 54 -0.134 -9.999 0.081 -2.289 0.763 0.610 -1.499 3394.389 -2756.854 -0.265 0.207 -0.014 -0.01 0.7 -0.71 0.04
1 0.55 55 -0.158 -10.051 0.192 -1.099 -0.214 1.160 88.292 3304.297 -2696.893 -0.240 0.260 -0.127 -0.01 0.7 -0.71 0.04
1 0.56 56 -0.249 -9.869 0.110 1.373 0.519 1.251 43.322 3469.340 -2906.906 -0.149 0.078 -0.046 -0.01 0.7 -0.71 0.04
1 0.57 57 -0.292 -9.994 0.211 0.824 0.824 1.831 43.322 3469.340 -2906.906 -0.107 0.202 -0.144 -0.01 0.7 -0.71 0.04
1 0.58 58 -0.072 -9.788 0.168 1.038 -0.854 0.549 -76.600 3424.369 -2681.903 -0.329 -0.004 -0.096 -0.01 0.7 -0.71 0.04
1 0.59 59 -0.201 -9.836 0.311 -0.458 0.061 0.641 58.312 3349.418 -2696.893 -0.198 0.044 -0.238 -0.01 0.7 -0.71 0.04
1 0.60 60 -0.211 -9.955 0.196 -2.045 0.671 0.580 -76.600 3364.408 -2651.922 -0.187 0.164 -0.122 -0.01 0.7 -0.71 0.04
1 0.61 61 -0.177 -9.927 0.311 -1.617 0.641 1.251 -76.600 3364.408 -2651.922 -0.219 0.135 -0.238 -0.01 0.7 -0.71 0.04
1 0.62 62 -0.249 -9.860 0.144 0.244 0.275 0.793 -76.600 3424.369 -2606.952 -0.147 0.068 -0.070 -0.01 0.7 -0.71 0.04
1 0.63 63 -0.273 -9.908 0.235 0.793 -0.793 1.221 28.332 3484.330 -2666.913 -0.123 0.116 -0.160 -0.01 0.7 -0.71 0.04
1 0.64 64 -0.340 -9.740 0.302 -0.732 -0.946 1.251 28.332 3484.330 -2666.913 -0.057 -0.052 -0.224 -0.01 0.7 -0.71 0.04
1 0.65 65 -0.249 -10.094 0.081 -1.556 -0.732 0.885 133.263 3529.301 -2591.961 -0.148 0.303 -0.002 -0.01 0.7 -0.71 0.04
1 0.66 66 -0.192 -9.927 0.163 -1.190 -1.312 0.549 43.322 3544.291 -2906.906 -0.206 0.135 -0.085 -0.01 0.7 -0.71 0.04
1 0.67 67 -0.139 -9.989 0.144 1.129 -2.289 0.092 -181.532 3424.369 -2531.851 -0.258 0.197 -0.065 -0.01 0.7 -0.71 0.04
1 0.68 68 -0.235 -9.979 0.268 1.770 -0.854 0.275 -181.532 3424.369 -2531.851 -0.161 0.188 -0.187 -0.01 0.7 -0.71 0.04
1 0.69 69 -0.206 -9.970 0.172 0.671 -0.061 0.946 58.312 3484.330 -2666.913 -0.188 0.178 -0.087 -0.01 0.7 -0.71 0.04
1 0.70 70 -0.244 -9.927 0.192 0.275 1.038 1.648 73.302 3589.412 -2756.854 -0.149 0.135 -0.105 -0.01 0.7 -0.71 0.04
1 0.71 71 -0.215 -9.802 0.139 0.488 0.488 1.617 73.302 3589.412 -2756.854 -0.178 0.011 -0.051 -0.01 0.7 -0.71 0.04
1 0.72 72 -0.115 -9.898 0.206 -0.671 0.824 1.190 -16.639 3349.418 -2666.913 -0.279 0.106 -0.117 -0.01 0.7 -0.71 0.04
1 0.73 73 -0.129 -9.836 0.326 -1.343 0.885 1.404 43.322 3469.340 -2651.922 -0.265 0.044 -0.238 -0.01 0.7 -0.71 0.04
1 0.74 74 -0.239 -9.951 0.259 -1.312 0.458 1.190 28.332 3409.379 -2696.893 -0.154 0.159 -0.172 -0.01 0.7 -0.71 0.04
1 0.75 75 -0.153 -9.908 0.297 0.366 0.671 0.977 28.332 3409.379 -2696.893 -0.240 0.116 -0.210 -0.01 0.7 -0.71 0.04
1 0.76 76 -0.239 -9.936 0.239 -0.153 0.153 0.671 -46.620 3529.301 -2696.893 -0.152 0.145 -0.152 -0.01 0.7 -0.71 0.04
1 0.77 77 -0.402 -9.917 0.235 -1.129 0.458 1.373 73.302 3469.340 -2681.903 0.011 0.125 -0.146 -0.01 0.7 -0.71 0.04
1 0.78 78 -0.340 -9.999 0.196 -2.014 0.427 1.831 73.302 3469.340 -2681.903 -0.053 0.207 -0.109 -0.01 0.7 -0.71 0.04
1 0.79 79 -0.239 -9.898 0.139 -1.099 -1.007 1.617 283.315 3484.330 -2591.961 -0.156 0.106 -0.055 -0.01 0.7 -0.71 0.04
1 0.80 80 -0.273 -10.018 0.196 0.427 -2.197 0.946 43.322 3469.340 -2786.834 -0.125 0.226 -0.112 -0.01 0.7 -0.71 0.04
1 0.81 81 -0.139 -9.927 0.335 1.282 -2.014 0.916 -31.629 3394.389 -2726.874 -0.259 0.135 -0.249 -0.01 0.7 -0.71 0.04
1 0.82 82 -0.134 -9.869 0.215 1.221 -0.031 0.763 -31.629 3394.389 -2726.874 -0.264 0.078 -0.126 -0.01 0.7 -0.71 0.04
1 0.83 83 -0.134 -10.094 0.321 -0.153 0.793 1.312 -91.590 3304.297 -2696.893 -0.264 0.303 -0.229 -0.01 0.7 -0.71 0.04
1 0.84 84 -0.259 -10.080 0.220 -0.061 0.366 1.068 118.273 3424.369 -2681.903 -0.139 0.288 -0.128 -0.01 0.7 -0.71 0.04
1 0.85 85 -0.278 -9.960 0.120 0.519 0.427 1.129 118.273 3424.369 -2681.903 -0.120 0.169 -0.027 -0.01 0.7 -0.71 0.04
1 0.86 86 -0.182 -9.941 0.139 2.136 -0.366 1.129 88.292 3559.431 -2741.864 -0.215 0.150 -0.044 -0.01 0.7 -0.71 0.04
1 0.87 87 -0.249 -9.836 0.374 0.854 -1.068 1.160 208.214 3349.418 -2621.942 -0.149 0.044 -0.273 -0.01 0.7 -0.71 0.04
1 0.88 88 -0.168 -9.740 0.306 -0.977 -0.702 0.122 88.292 3409.379 -2621.942 -0.229 -0.051 -0.204 -0.01 0.7 -0.71 0.04
1 0.89 89 -0.125 -9.850 0.283 -1.038 0.244 0.061 88.292 3409.379 -2621.942 -0.271 0.059 -0.179 -0.01 0.7 -0.71 0.04
1 0.90 90 -0.206 -9.898 0.297 -0.854 -0.732 -0.397 -91.590 3379.398 -2741.864 -0.188 0.106 -0.192 -0.01 0.7 -0.71 0.04
1 0.91 91 -0.125 -9.994 0.345 0.092 -0.580 0.458 148.253 3499.320 -2651.922 -0.268 0.202 -0.239 -0.01 0.7 -0.71 0.04
1 0.92 92 -0.345 -9.927 0.192 0.214 -0.336 0.916 148.253 3499.320 -2651.922 -0.046 0.135 -0.084 -0.01 0.7 -0.71 0.03
1 0.93 93 -0.326 -9.946 0.177 1.617 0.000 1.434 -106.581 3259.327 -2681.903 -0.064 0.154 -0.069 -0.01 0.7 -0.71 0.03
1 0.94 94 -0.120 -9.893 0.268 1.465 0.183 1.343 -106.581 3259.327 -2681.903 -0.271 0.102 -0.157 -0.01 0.7 -0.71 0.03
1 0.95 95 -0.215 -9.769 0.235 -0.763 1.129 1.617 58.312 3349.418 -2621.942 -0.177 -0.023 -0.118 -0.01 0.7 -0.71 0.04
1 0.96 96 -0.306 -9.864 0.326 -1.038 0.793 2.014 58.312 3349.418 -2621.942 -0.088 0.073 -0.210 -0.01 0.7 -0.71 0.04
1 0.97 97 -0.182 -9.984 0.402 -0.488 0.580 1.648 28.332 3529.301 -2666.913 -0.214 0.193 -0.286 -0.01 0.7 -0.71 0.04
1 0.98 98 -0.263 -9.999 0.244 0.275 -0.366 1.404 88.292 3529.301 -2666.913 -0.133 0.207 -0.127 -0.01 0.7 -0.71 0.03
1 0.99 99 -0.110 -9.879 0.125 1.099 -0.366 1.190 88.292 3529.301 -2666.913 -0.285 0.088 -0.006 -0.01 0.7 -0.71 0.03
1 1.00 100 -0.067 -9.850 0.311 -0.031 0.519 0.061 28.332 3559.431 -2591.961 -0.328 0.059 -0.191 -0.01 0.7 -0.71 0.03
1 1.01 101 -0.172 -9.869 0.163 -0.641 0.763 0.824 28.332 3559.431 -2591.961 -0.221 0.078 -0.041 -0.01 0.7 -0.71 0.03
1 1.02 102 -0.134 -9.970 0.287 -0.153 -1.099 0.610 -106.581 3424.369 -2726.874 -0.256 0.178 -0.164 -0.01 0.7 -0.71 0.03
1 1.03 103 -0.172 -9.845 0.283 -1.007 -0.458 0.488 -106.581 3424.369 -2726.874 -0.216 0.054 -0.159 -0.01 0.7 -0.71 0.03
1 1.04 104 -0.259 -9.941 0.330 -1.678 0.519 0.397 -121.571 3379.398 -2666.913 -0.128 0.150 -0.206 -0.01 0.7 -0.71 0.03
1 1.05 105 -0.292 -9.888 0.259 -1.404 0.824 0.854 58.312 3379.398 -2771.844 -0.094 0.097 -0.135 -0.01 0.7 -0.71 0.03
1 1.06 106 -0.201 -9.864 0.172 -0.549 0.061 1.404 58.312 3379.398 -2771.844 -0.186 0.073 -0.050 -0.01 0.7 -0.71 0.03
1 1.07 107 -0.172 -9.903 0.206 -0.366 -0.885 0.946 43.322 3424.369 -2681.903 -0.215 0.111 -0.083 -0.01 0.7 -0.71 0.03
1 1.08 108 -0.283 -9.831 0.345 0.122 -1.587 0.641 43.322 3424.369 -2681.903 -0.103 0.039 -0.221 -0.01 0.7 -0.71 0.03
1 1.09 109 -0.196 -9.869 0.330 -0.397 -0.549 0.031 28.332 3454.350 -2696.893 -0.189 0.078 -0.205 -0.01 0.7 -0.71 0.03
1 1.10 110 -0.172 -9.836 0.259 -0.641 -0.854 0.305 28.332 3454.350 -2696.893 -0.211 0.044 -0.131 -0.01 0.7 -0.71 0.03
1 1.11 111 -0.129 -9.917 0.120 -0.519 -1.465 0.854 -106.581 3424.369 -2726.874 -0.253 0.125 0.009 -0.01 0.7 -0.71 0.03
1 1.12 112 -0.148 -9.869 0.239 -1.068 -0.366 1.160 148.253 3469.340 -2786.834 -0.233 0.078 -0.111 -0.01 0.7 -0.71 0.03
1 1.13 113 -0.259 -9.764 0.263 -1.556 -0.183 1.038 148.253 3469.340 -2786.834 -0.123 -0.028 -0.136 -0.01 0.7 -0.71 0.03
1 1.14 114 -0.330 -10.003 0.153 -1.709 0.061 0.793 118.273 3394.389 -2651.922 -0.051 0.212 -0.026 -0.01 0.7 -0.71 0.03
1 1.15 115 -0.268 -10.066 0.134 -0.977 0.092 1.434 118.273 3394.389 -2651.922 -0.112 0.274 -0.009 -0.01 0.7 -0.71 0.03
1 1.16 116 -0.225 -9.845 0.225 -0.031 -0.153 1.770 88.292 3529.301 -2621.942 -0.158 0.054 -0.101 -0.01 0.7 -0.71 0.03
1 1.17 117 -0.230 -9.994 0.374 -0.275 -0.061 1.495 88.292 3529.301 -2621.942 -0.154 0.202 -0.249 -0.01 0.7 -0.71 0.03
1 1.18 118 -0.120 -10.003 0.326 -1.251 0.763 1.221 88.292 3454.350 -2741.864 -0.264 0.212 -0.201 -0.01 0.7 -0.71 0.03
1 1.19 119 -0.134 -9.927 0.263 -0.366 0.031 0.519 -16.639 3304.297 -2741.864 -0.250 0.135 -0.139 -0.01 0.7 -0.71 0.03
1 1.20 120 -0.230 -9.932 0.134 0.397 -0.366 0.763 -16.639 3304.297 -2741.864 -0.153 0.140 -0.009 -0.01 0.7 -0.71 0.03
1 1.21 121 -0.254 -9.845 0.172 1.770 -0.214 1.251 118.273 3469.340 -2786.834 -0.127 0.054 -0.047 -0.01 0.7 -0.71 0.03
1 1.22 122 -0.163 -9.802 0.139 1.343 -0.275 1.434 118.273 3469.340 -2786.834 -0.218 0.010 -0.010 -0.01 0.7 -0.71 0.03
1 1.23 123 -0.182 -9.845 0.125 -0.366 -0.305 1.129 28.332 3454.350 -2741.864 -0.200 0.054 0.006 -0.01 0.7 -0.71 0.03
1 1.24 124 -0.206 -9.960 0.249 -2.197 -0.610 0.244 58.312 3409.379 -2696.893 -0.174 0.168 -0.118 -0.01 0.7 -0.71 0.03
1 1.25 125 -0.211 -9.941 0.302 -1.038 0.397 0.641 -16.639 3409.379 -2816.965 -0.168 0.149 -0.174 -0.01 0.7 -0.71 0.03
1 1.26 126 -0.244 -9.845 0.259 0.702 0.793 1.068 88.292 3409.379 -2741.864 -0.134 0.053 -0.129 -0.01 0.7 -0.71 0.03
1 1.27 127 -0.321 -9.831 0.292 0.763 0.519 1.190 88.292 3409.379 -2741.864 -0.059 0.039 -0.161 -0.01 0.7 -0.71 0.03
1 1.28 128 -0.235 -9.850 0.239 0.305 -0.122 1.068 43.322 3469.340 -2756.854 -0.146 0.058 -0.106 -0.01 0.7 -0.71 0.03
1 1.29 129 -0.163 -9.874 0.273 -0.671 -0.092 1.770 43.322 3469.340 -2756.854 -0.218 0.082 -0.139 -0.01 0.7 -0.71 0.03
1 1.30 130 -0.211 -9.869 0.306 -0.061 0.275 1.160 -46.620 3349.418 -2696.893 -0.171 0.078 -0.172 -0.01 0.7 -0.71 0.03
1 1.31 131 -0.134 -9.817 0.297 -0.244 0.916 1.862 73.302 3424.369 -2756.854 -0.247 0.025 -0.160 -0 0.7 -0.71 0.03
1 1.32 132 -0.268 -9.716 0.230 -0.671 0.702 1.740 28.332 3379.398 -2741.864 -0.114 -0.076 -0.092 -0 0.7 -0.71 0.03
1 1.33 133 -0.230 -9.864 0.326 -2.380 0.366 1.007 28.332 3529.301 -2771.844 -0.153 0.073 -0.190 -0 0.7 -0.71 0.03
1 1.34 134 -0.230 -9.893 0.350 -2.808 0.916 1.526 28.332 3529.301 -2771.844 -0.153 0.102 -0.217 -0 0.7 -0.71 0.03
1 1.35 135 -0.230 -10.037 0.350 -2.960 1.556 0.854 58.312 3484.330 -2591.961 -0.153 0.245 -0.220 -0 0.7 -0.71 0.03
1 1.36 136 -0.268 -9.903 0.144 -0.763 0.061 1.495 58.312 3484.330 -2591.961 -0.116 0.111 -0.017 -0 0.7 -0.71 0.03
1 1.37 137 -0.201 -9.893 0.153 0.458 -1.099 1.251 -1.499 3424.369 -2906.906 -0.184 0.102 -0.028 -0 0.7 -0.71 0.03
1 1.38 138 -0.139 -9.850 0.311 0.763 -1.770 1.038 148.253 3424.369 -2651.922 -0.248 0.059 -0.185 -0 0.7 -0.71 0.03
1 1.39 139 -0.148 -9.826 0.230 -1.373 -1.312 1.465 58.312 3379.398 -2741.864 -0.238 0.035 -0.101 -0 0.7 -0.71 0.03
1 1.40 140 -0.273 -9.855 0.268 -1.068 -1.099 1.251 -16.639 3304.297 -2771.844 -0.114 0.063 -0.140 -0 0.7 -0.71 0.03
1 1.41 141 -0.268 -9.797 0.235 -0.519 -2.289 0.977 -16.639 3304.297 -2771.844 -0.119 0.006 -0.107 -0 0.7 -0.71 0.03
1 1.42 142 -0.192 -9.903 0.345 0.549 -2.655 1.099 88.292 3349.418 -2771.844 -0.196 0.111 -0.216 -0 0.7 -0.71 0.03
1 1.43 143 -0.239 -9.893 0.220 0.336 -2.319 0.610 88.292 3349.418 -2771.844 -0.148 0.102 -0.089 -0 0.7 -0.71 0.03
1 1.44 144 -0.134 -9.884 0.268 -0.977 -0.824 1.434 43.322 3364.408 -2726.874 -0.253 0.092 -0.136 -0 0.7 -0.71 0.03
1 1.45 145 -0.196 -9.754 0.407 -1.099 -1.007 0.610 43.322 3469.340 -2576.971 -0.191 -0.037 -0.274 -0 0.7 -0.71 0.03
1 1.46 146 -0.354 -9.711 0.297 -0.031 -2.502 -1.343 43.322 3394.389 -2726.874 -0.031 -0.080 -0.163 -0 0.7 -0.71 0.03
1 1.47 147 -0.350 -9.682 0.302 -1.801 -2.441 -2.075 58.312 3349.418 -2621.942 -0.033 -0.109 -0.167 -0 0.7 -0.71 0.03
1 1.48 148 -0.330 -9.764 0.350 -4.089 -1.740 -2.655 58.312 3349.418 -2621.942 -0.048 -0.028 -0.217 -0.01 0.7 -0.71 0.03
1 1.49 149 -0.263 -9.898 0.287 -6.012 -0.885 -2.075 118.273 3364.408 -2831.955 -0.111 0.106 -0.160 -0.01 0.7 -0.71 0.03
1 1.50 150 -0.172 -9.912 0.297 -5.707 -0.671 -1.495 118.273 3364.408 -2831.955 -0.198 0.120 -0.176 -0.01 0.7 -0.71 0.03
1 1.51 151 0.034 -9.879 0.302 -2.991 -0.610 -0.641 73.302 3499.320 -2651.922 -0.400 0.086 -0.188 -0.01 0.7 -0.71 0.03
1 1.52 152 0.038 -9.730 0.364 -1.648 0.183 -1.343 73.302 3499.320 -2756.854 -0.401 -0.062 -0.255 -0.01 0.7 -0.71 0.03
1 1.53 153 -0.326 -9.769 0.393 -3.235 1.617 -3.082 58.312 3559.431 -2591.961 -0.027 -0.024 -0.286 -0.01 0.7 -0.71 0.03
1 1.54 154 -0.168 -9.836 0.431 -3.265 1.465 -2.960 73.302 3334.428 -2756.854 -0.179 0.042 -0.326 -0.01 0.7 -0.71 0.03
1 1.55 155 -0.254 -10.185 0.316 -4.761 1.190 -3.723 73.302 3334.428 -2756.854 -0.087 0.392 -0.216 -0.01 0.7 -0.71 0.03
1 1.56 156 -0.134 -10.339 0.330 -3.632 0.793 -2.289 148.253 3424.369 -2681.903 -0.201 0.545 -0.235 -0.01 0.7 -0.71 0.03
1 1.57 157 0.024 -10.473 0.503 -0.854 1.312 0.336 148.253 3424.369 -2681.903 -0.356 0.679 -0.410 -0.01 0.7 -0.71 0.03
1 1.58 158 0.354 -10.142 0.421 1.862 6.012 4.669 28.332 3454.350 -2666.913 -0.685 0.348 -0.327 -0.01 0.7 -0.71 0.03
1 1.59 159 0.330 -10.013 0.460 1.648 9.491 6.409 193.224 3469.340 -2831.955 -0.662 0.219 -0.361 -0.01 0.7 -0.71 0.03
1 1.60 160 0.134 -9.831 0.182 2.777 8.270 7.111 133.263 3484.330 -2696.893 -0.475 0.037 -0.074 -0 0.7 -0.71 0.03
1 1.61 161 0.014 -9.864 0.153 2.258 5.463 6.287 -31.629 3424.369 -2726.874 -0.361 0.071 -0.041 -0 0.7 -0.71 0.03
1 1.62 162 0.201 -10.051 -0.014 0.427 -0.793 2.197 -31.629 3424.369 -2726.874 -0.551 0.258 0.128 -0 0.7 -0.71 0.03
1 1.63 163 0.460 -10.085 0.034 1.129 -0.763 0.732 58.312 3379.398 -2741.864 -0.809 0.292 0.080 -0 0.7 -0.71 0.03
1 1.64 164 0.455 -9.826 0.048 0.946 3.601 1.343 58.312 3379.398 -2741.864 -0.800 0.033 0.067 -0 0.7 -0.71 0.03
1 1.65 165 0.369 -9.912 0.153 1.404 7.050 2.228 193.224 3334.428 -2756.854 -0.710 0.119 -0.038 -0 0.7 -0.71 0.03
1 1.66 166 0.187 -9.898 -0.057 1.617 6.866 4.639 118.273 3424.369 -2681.903 -0.527 0.105 0.175 -0 0.7 -0.71 0.03
1 1.67 167 0.239 -9.917 -0.057 1.526 5.096 4.425 118.273 3424.369 -2681.903 -0.582 0.124 0.176 -0 0.7 -0.71 0.03
1 1.68 168 0.431 -10.013 0.057 3.143 3.784 3.204 43.322 3469.340 -2681.903 -0.778 0.220 0.064 -0 0.7 -0.71 0.03
1 1.69 169 0.450 -10.046 0.268 4.334 4.944 2.533 43.322 3469.340 -2681.903 -0.796 0.253 -0.143 -0 0.7 -0.71 0.03
1 1.70 170 0.469 -10.027 0.206 3.479 7.751 2.228 -76.600 3334.428 -2651.922 -0.812 0.234 -0.074 -0 0.7 -0.71 0.03
1 1.71 171 0.340 -10.209 0.168 3.143 10.773 2.563 -76.600 3334.428 -2651.922 -0.680 0.416 -0.031 0 0.7 -0.71 0.02
1 1.72 172 0.048 -10.085 0.192 4.608 11.963 3.540 -1.499 3424.369 -2651.922 -0.387 0.292 -0.050 0 0.7 -0.71 0.02
1 1.73 173 0.005 -10.018 0.034 5.859 10.986 4.150 73.302 3469.340 -2531.851 -0.345 0.225 0.114 0 0.7 -0.71 0.02
1 1.74 174 0.220 -9.960 0.192 6.592 8.637 5.066 73.302 3469.340 -2531.851 -0.564 0.168 -0.035 0 0.7 -0.71 0.02
1 1.75 175 0.488 -10.022 0.354 5.798 7.446 4.913 73.302 3424.369 -2651.922 -0.839 0.230 -0.182 0 0.7 -0.71 0.02
1 1.76 176 0.426 -10.118 0.278 6.073 6.439 4.456 73.302 3424.369 -2651.922 -0.778 0.326 -0.096 0 0.7 -0.71 0.02
1 1.77 177 0.589 -10.123 0.283 7.568 7.080 3.845 43.322 3544.291 -2786.834 -0.941 0.331 -0.090 0 0.7 -0.71 0.02
1 1.78 178 0.359 -9.999 0.335 8.118 7.996 2.838 43.322 3544.291 -2786.834 -0.710 0.207 -0.131 0 0.7 -0.71 0.02
1 1.79 179 0.105 -9.874 0.311 7.568 9.460 2.869 193.224 3394.389 -2681.903 -0.456 0.083 -0.095 0.01 0.7 -0.71 0.02
1 1.80 180 -0.196 -9.936 0.302 5.341 8.392 4.456 88.292 3454.350 -2741.864 -0.156 0.145 -0.074 0.01 0.7 -0.71 0.02
1 1.81 181 -0.086 -9.788 0.211 4.761 7.599 5.310 88.292 3454.350 -2741.864 -0.270 -0.003 0.026 0.01 0.7 -0.72 0.02
1 1.82 182 -0.048 -9.831 0.211 4.913 5.432 6.104 -31.629 3469.340 -2786.834 -0.315 0.041 0.033 0.01 0.7 -0.72 0.02
1 1.83 183 0.077 -9.999 0.364 6.348 5.341 7.202 133.263 3484.330 -2741.864 -0.454 0.209 -0.105 0.01 0.7 -0.72 0.02
1 1.84 184 0.067 -10.037 0.541 6.531 7.751 8.301 58.312 3409.379 -2741.864 -0.452 0.248 -0.273 0.01 0.7 -0.72 0.02
1 1.85 185 0.000 -10.022 0.464 6.958 7.874 8.148 58.312 3409.379 -2741.864 -0.395 0.234 -0.185 0.01 0.7 -0.72 0.02
1 1.86 186 -0.206 -10.142 0.383 8.423 7.721 7.874 133.263 3409.379 -2741.864 -0.199 0.355 -0.092 0.01 0.7 -0.72 0.02
1 1.87 187 -0.096 -10.027 0.397 8.423 6.042 7.477 193.224 3289.307 -2681.903 -0.319 0.241 -0.093 0.01 0.7 -0.72 0.02
1 1.88 188 -0.148 -10.104 0.407 7.904 6.165 7.294 193.224 3289.307 -2681.903 -0.276 0.318 -0.089 0.01 0.7 -0.72 0.02
1 1.89 189 0.072 -10.123 0.412 6.653 6.897 7.385 208.214 3349.418 -2876.926 -0.504 0.338 -0.081 0.01 0.69 -0.72 0.02
1 1.90 190 0.148 -10.204 0.479 8.759 6.195 6.531 148.253 3289.307 -2861.936 -0.595 0.421 -0.128 0.01 0.69 -0.72 0.02
1 1.91 191 0.129 -10.090 0.579 11.169 6.134 5.402 298.306 3169.385 -2756.854 -0.581 0.307 -0.214 0.01 0.69 -0.72 0.02
1 1.92 192 0.077 -10.118 0.666 13.306 6.958 5.951 298.306 3169.385 -2756.854 -0.533 0.336 -0.282 0.02 0.69 -0.72 0.02
1 1.93 193 -0.029 -10.085 0.709 12.665 7.813 6.165 223.354 3424.369 -2936.887 -0.433 0.304 -0.304 0.02 0.69 -0.72 0.02
1 1.94 194 -0.115 -10.113 0.670 12.421 8.392 7.202 163.244 3529.301 -2816.965 -0.353 0.334 -0.247 0.02 0.69 -0.72 0.02
1 1.95 195 -0.158 -10.147 0.642 13.580 8.972 7.172 163.244 3529.301 -2816.965 -0.319 0.369 -0.198 0.02 0.69 -0.72 0.02
1 1.96 196 -0.086 -10.075 0.618 14.374 10.071 7.599 283.315 3409.379 -2816.965 -0.399 0.298 -0.153 0.02 0.69 -0.72 0.02
1 1.97 197 -0.163 -10.075 0.623 15.472 10.376 7.324 298.306 3364.408 -2756.854 -0.341 0.301 -0.115 0.02 0.69 -0.73 0.02
1 1.98 198 -0.292 -10.008 0.819 15.320 10.254 6.256 253.335 3289.307 -2966.867 -0.221 0.236 -0.288 0.02 0.69 -0.73 0.02
1 1.99 199 -0.397 -10.008 0.929 14.710 9.247 5.402 253.335 3289.307 -2966.867 -0.124 0.238 -0.374 0.02 0.69 -0.73 0.02
1 2.00 200 -0.474 -9.927 0.800 12.909 9.705 6.348 238.345 3349.418 -2876.926 -0.055 0.158 -0.222 0.02 0.69 -0.73 0.02
1 2.01 201 -0.517 -9.989 0.637 13.489 9.888 8.392 208.214 3199.366 -2876.926 -0.023 0.222 -0.039 0.02 0.68 -0.73 0.02
1 2.02 202 -0.493 -9.793 0.661 14.954 10.437 10.468 208.214 3199.366 -2876.926 -0.060 0.028 -0.043 0.02 0.68 -0.73 0.02
1 2.03 203 -0.273 -9.711 0.541 15.320 11.353 11.383 208.214 3304.297 -2741.864 -0.296 -0.051 0.099 0.03 0.68 -0.73 0.02
1 2.04 204 -0.321 -9.692 0.694 14.374 12.024 11.078 193.224 3169.385 -2936.887 -0.281 -0.066 -0.012 0.03 0.68 -0.73 0.02
1 2.05 205 -0.388 -9.635 0.637 13.031 12.177 10.986 193.224 3169.385 -2936.887 -0.214 -0.123 0.046 0.03 0.68 -0.73 0.02
1 2.06 206 -0.460 -9.778 0.661 10.101 11.719 8.362 415.679 3381.197 -3022.481 -0.171 0.025 0.056 0.03 0.68 -0.73 0.01
1 2.07 207 -0.445 -9.850 0.589 10.712 11.963 7.202 205.666 3201.165 -2917.399 -0.196 0.098 0.140 0.03 0.68 -0.73 0.01
1 2.08 208 -0.627 -10.008 0.565 12.787 12.970 8.057 370.708 3336.227 -2932.390 -0.026 0.258 0.179 0.03 0.68 -0.73 0.01
1 2.09 209 -0.809 -9.936 0.479 15.472 12.939 8.362 370.708 3336.227 -2932.390 0.143 0.189 0.282 0.03 0.68 -0.73 0.01
1 2.10 210 -0.972 -9.903 0.594 14.954 11.688 8.911 385.699 3201.165 -2812.468 0.291 0.158 0.186 0.03 0.68 -0.73 0.01
1 2.11 211 -1.082 -9.869 0.747 14.221 10.864 9.003 370.708 3336.227 -3007.491 0.385 0.127 0.053 0.04 0.68 -0.74 0.01
1 2.12 212 -1.221 -9.850 0.843 12.543 10.651 9.705 400.689 3216.155 -2962.520 0.489 0.113 -0.005 0.04 0.68 -0.74 0.01
1 2.13 213 -1.250 -9.769 0.848 12.299 10.986 11.078 400.689 3216.155 -2962.520 0.499 0.035 0.007 0.04 0.67 -0.74 0.01
1 2.14 214 -1.240 -9.764 0.819 12.665 10.986 12.299 445.660 3351.217 -2992.500 0.467 0.033 0.053 0.04 0.67 -0.74 0.01
1 2.15 215 -1.235 -9.769 0.891 13.123 10.407 13.794 385.699 3276.266 -2917.399 0.439 0.042 -0.001 0.04 0.67 -0.74 0.01
1 2.16 216 -1.101 -9.659 0.872 12.390 11.505 15.747 385.699 3276.266 -2917.399 0.280 -0.065 0.035 0.04 0.67 -0.74 0.01
1 2.17 217 -1.121 -9.687 0.747 11.383 15.045 17.883 610.702 3291.256 -2932.390 0.272 -0.032 0.176 0.05 0.67 -0.74 0.01
1 2.18 218 -1.001 -9.572 0.852 10.651 17.578 19.196 415.679 3231.295 -3067.452 0.122 -0.143 0.085 0.05 0.67 -0.74 0.01
1 2.19 219 -1.178 -9.635 0.771 10.284 18.311 18.066 430.669 3216.155 -3007.491 0.234 -0.072 0.190 0.05 0.67 -0.74 0.01
1 2.20 220 -1.312 -9.726 0.646 10.223 19.836 17.639 430.669 3216.155 -3007.491 0.337 0.023 0.326 0.05 0.67 -0.74 0.01
1 2.21 221 -1.101 -9.630 0.704 10.620 19.653 16.052 355.718 3276.266 -3022.481 0.097 -0.069 0.278 0.06 0.67 -0.74 0.01
1 2.22 222 -1.255 -9.472 0.704 11.566 20.294 15.595 445.660 3276.266 -2992.500 0.221 -0.223 0.290 0.06 0.67 -0.74 0.01
1 2.23 223 -1.355 -9.515 0.776 11.047 19.104 14.526 445.660 3276.266 -2992.500 0.295 -0.176 0.230 0.06 0.67 -0.74 0.01
1 2.24 224 -1.422 -9.678 0.895 10.040 18.860 13.489 640.683 3141.204 -3112.422 0.336 -0.009 0.121 0.06 0.67 -0.74 0.01
1 2.25 225 -1.441 -9.587 0.848 10.284 18.127 12.482 520.611 3126.213 -2947.530 0.329 -0.096 0.181 0.06 0.67 -0.74 0.01
1 2.26 226 -1.571 -9.606 0.747 11.261 18.555 12.146 520.611 3126.213 -2947.530 0.435 -0.072 0.293 0.07 0.67 -0.74 0.01
1 2.27 227 -1.748 -9.477 0.642 9.613 15.778 13.428 535.601 3096.233 -3082.442 0.564 -0.193 0.420 0.07 0.66 -0.74 0.01
1 2.28 228 -1.609 -9.596 0.608 6.958 13.458 14.282 550.591 3126.213 -3067.452 0.398 -0.070 0.461 0.07 0.66 -0.74 0.01
1 2.29 229 -1.753 -9.587 0.613 6.836 11.749 14.374 505.621 3096.233 -3187.523 0.514 -0.075 0.461 0.07 0.66 -0.74 0.01
1 2.30 230 -1.872 -9.611 0.570 6.104 11.536 12.848 505.621 3096.233 -3187.523 0.607 -0.047 0.508 0.07 0.66 -0.74 0.02
1 2.31 231 -1.834 -9.587 0.484 3.265 9.674 13.489 550.591 3126.213 -2947.530 0.543 -0.067 0.598 0.07 0.66 -0.74 0.02
1 2.32 232 -1.891 -9.596 0.512 0.580 7.782 13.245 715.634 3141.204 -3007.491 0.575 -0.054 0.568 0.08 0.66 -0.74 0.02
1 2.33 233 -1.762 -9.721 0.536 -0.336 6.470 12.787 715.634 3141.204 -3007.491 0.420 0.073 0.540 0.08 0.66 -0.74 0.02
1 2.34 234 -1.930 -9.817 0.532 -0.092 4.578 14.587 640.683 3216.155 -3112.422 0.539 0.174 0.533 0.08 0.66 -0.74 0.02
1 2.35 235 -1.911 -9.927 0.527 -0.702 2.960 15.961 580.572 3021.282 -3037.471 0.494 0.288 0.532 0.08 0.66 -0.74 0.02
1 2.36 236 -1.906 -9.817 0.383 1.373 1.251 14.954 640.683 3216.155 -3082.442 0.462 0.181 0.670 0.08 0.66 -0.74 0.02
1 2.37 237 -1.968 -9.620 0.555 3.479 0.366 14.374 640.683 3216.155 -3082.442 0.499 -0.012 0.496 0.08 0.66 -0.74 0.02
1 2.38 238 -1.805 -9.635 0.584 2.991 -0.214 13.001 745.614 3081.243 -3067.452 0.312 0.006 0.468 0.08 0.66 -0.74 0.02
1 2.39 239 -1.724 -9.520 0.781 -0.580 -0.244 12.543 790.585 3066.252 -3082.442 0.210 -0.105 0.272 0.08 0.66 -0.74 0.02
1 2.40 240 -1.834 -9.649 0.670 -0.336 -0.183 11.383 790.585 3066.252 -3082.442 0.300 0.027 0.379 0.08 0.66 -0.74 0.02
1 2.41 241 -1.939 -9.414 0.656 2.075 -0.031 8.301 715.634 3096.233 -3082.442 0.370 -0.203 0.389 0.09 0.66 -0.74 0.02
1 2.42 242 -2.026 -9.386 0.608 3.235 -0.671 6.439 685.653 3171.184 -3112.422 0.443 -0.229 0.438 0.09 0.66 -0.74 0.02
1 2.43 243 -1.973 -9.520 0.560 1.556 -1.984 6.256 760.604 3066.252 -3007.491 0.378 -0.093 0.486 0.09 0.66 -0.74 0.03
1 2.44 244 -1.963 -9.596 0.584 -0.244 -3.113 4.822 760.604 3066.252 -3007.491 0.358 -0.015 0.461 0.09 0.66 -0.74 0.03
1 2.45 245 -1.848 -9.462 0.479 -0.031 -4.334 2.472 790.585 3171.184 -2902.409 0.235 -0.148 0.563 0.09 0.66 -0.74 0.03
1 2.46 246 -1.695 -9.357 0.599 1.282 -7.050 0.275 835.706 2946.181 -2932.390 0.077 -0.253 0.441 0.09 0.66 -0.74 0.03
1 2.47 247 -1.489 -9.524 0.666 -0.610 -8.545 -1.740 838.554 2943.932 -2936.437 -0.130 -0.085 0.374 0.09 0.66 -0.74 0.03
1 2.48 248 -1.513 -9.453 0.546 -2.563 -9.460 -3.601 853.694 3198.916 -2996.398 -0.097 -0.159 0.489 0.09 0.66 -0.74 0.03
1 2.49 249 -1.566 -9.568 0.627 -2.380 -9.277 -4.700 763.603 3093.984 -2966.417 -0.036 -0.045 0.404 0.09 0.66 -0.74 0.03
1 2.50 250 -1.537 -9.553 0.642 -1.099 -10.315 -6.409 853.694 3049.014 -3026.378 -0.053 -0.062 0.387 0.08 0.66 -0.74 0.03
1 2.51 251 -1.748 -9.539 0.776 -1.556 -10.254 -6.592 853.694 3049.014 -3026.378 0.169 -0.078 0.251 0.08 0.66 -0.74 0.03
1 2.52 252 -1.733 -9.659 0.771 -2.319 -9.827 -6.683 628.690 3153.945 -2996.398 0.164 0.039 0.253 0.08 0.66 -0.74 0.03
1 2.53 253 -1.805 -9.750 0.785 -2.350 -9.033 -5.859 643.681 3168.936 -3011.388 0.246 0.128 0.235 0.08 0.66 -0.74 0.03
1 2.54 254 -1.896 -9.668 0.795 -2.106 -7.965 -6.012 643.681 3168.936 -3011.388 0.346 0.045 0.223 0.08 0.66 -0.74 0.03
1 2.55 255 -1.815 -9.716 0.819 -0.977 -6.989 -5.646 673.661 3049.014 -2951.427 0.273 0.091 0.196 0.08 0.66 -0.74 0.03
1 2.56 256 -1.982 -9.644 0.819 -0.427 -6.683 -5.157 838.554 3064.004 -3041.369 0.455 0.017 0.193 0.08 0.66 -0.74 0.03
1 2.57 257 -1.968 -9.702 0.771 -0.336 -7.568 -5.035 508.619 3168.936 -2966.417 0.447 0.074 0.241 0.08 0.67 -0.74 0.03
1 2.58 258 -1.954 -9.874 0.838 -0.916 -7.965 -3.601 508.619 3168.936 -2966.417 0.437 0.245 0.173 0.08 0.67 -0.74 0.03
1 2.59 259 -1.891 -9.788 0.848 -1.160 -7.416 -3.143 718.632 3259.027 -2936.437 0.379 0.158 0.163 0.08 0.67 -0.74 0.03
1 2.60 260 -1.911 -9.864 0.862 0.305 -5.341 -2.533 778.593 2958.922 -3101.330 0.401 0.234 0.147 0.08 0.67 -0.74 0.03
1 2.61 261 -1.906 -9.687 0.819 1.617 -4.211 -2.228 778.593 2958.922 -3101.330 0.398 0.057 0.191 0.08 0.67 -0.74 0.03
1 2.62 262 -2.021 -9.788 0.991 1.434 -4.791 -1.617 748.612 3078.994 -3026.378 0.515 0.157 0.021 0.08 0.67 -0.74 0.03
1 2.63 263 -2.073 -9.793 0.857 -0.397 -5.737 -2.380 583.570 3064.004 -3011.388 0.568 0.162 0.159 0.08 0.67 -0.74 0.03
1 2.64 264 -2.121 -9.893 0.852 -1.190 -6.256 -2.472 553.589 3153.945 -3101.330 0.616 0.263 0.163 0.08 0.67 -0.74 0.03
1 2.65 265 -2.083 -10.046 0.867 -1.007 -5.707 -1.007 553.589 3153.945 -3101.330 0.579 0.416 0.147 0.07 0.67 -0.74 0.03
1 2.66 266 -2.246 -9.951 0.809 -0.305 -4.364 -0.031 613.550 2988.903 -3086.339 0.739 0.320 0.203 0.07 0.67 -0.74 0.03
1 2.67 267 -2.126 -9.932 0.709 0.641 -4.822 1.038 583.570 3138.955 -2966.417 0.615 0.302 0.302 0.07 0.67 -0.74 0.03
1 2.68 268 -2.097 -9.659 0.666 -0.977 -3.571 2.289 583.570 3138.955 -2966.417 0.581 0.029 0.345 0.07 0.67 -0.74 0.03
1 2.69 269 -1.882 -9.534 0.747 -2.136 -3.265 3.052 538.599 3213.906 -2936.437 0.360 -0.094 0.261 0.07 0.67 -0.74 0.03
1 2.70 270 -1.710 -9.663 0.570 -3.448 -3.113 4.211 538.599 3213.906 -2936.437 0.179 0.036 0.435 0.07 0.67 -0.74 0.03
1 2.71 271 -1.915 -9.716 0.397 -3.021 -4.913 4.272 538.599 3064.004 -3191.421 0.371 0.090 0.594 0.07 0.67 -0.74 0.04
1 2.72 272 -1.805 -9.682 0.431 -1.953 -5.829 3.845 538.599 3064.004 -3191.421 0.253 0.056 0.554 0.07 0.67 -0.74 0.04
1 2.73 273 -1.733 -9.630 0.441 -1.801 -6.104 3.510 628.690 3153.945 -2996.398 0.174 0.004 0.539 0.07 0.67 -0.74 0.04
1 2.74 274 -1.863 -9.639 0.402 -2.563 -5.890 4.211 613.550 3138.955 -2936.437 0.298 0.014 0.571 0.07 0.67 -0.74 0.04
1 2.75 275 -1.781 -9.639 0.278 -3.937 -4.608 4.944 613.550 3138.955 -2936.437 0.209 0.015 0.688 0.07 0.67 -0.74 0.04
1 2.76 276 -1.844 -9.568 0.306 -3.845 -5.096 4.608 553.589 3049.014 -3026.378 0.263 -0.057 0.651 0.07 0.67 -0.74 0.04
1 2.77 277 -1.824 -9.381 0.287 -2.655 -7.202 2.472 553.589 3049.014 -3026.378 0.235 -0.243 0.661 0.07 0.67 -0.74 0.04
1 2.78 278 -1.978 -9.323 0.053 -2.960 -12.207 -1.099 538.599 3019.033 -3011.388 0.381 -0.300 0.881 0.07 0.67 -0.74 0.04
1 2.79 279 -1.906 -9.165 -0.187 -4.852 -16.815 -2.625 538.599 3019.033 -3011.388 0.310 -0.459 1.113 0.07 0.67 -0.74 0.04
1 2.80 280 -1.801 -9.146 -0.120 -6.104 -18.799 -4.974 613.550 3064.004 -2966.417 0.208 -0.480 1.034 0.07 0.67 -0.74 0.04
1 2.81 281 -1.484 -9.161 0.005 -6.805 -18.799 -6.012 598.560 3123.965 -2996.398 -0.100 -0.468 0.898 0.07 0.67 -0.74 0.04
1 2.82 282 -1.446 -9.764 0.479 -9.888 -18.066 -5.737 598.560 3123.965 -2996.398 -0.127 0.132 0.410 0.07 0.67 -0.74 0.04
1 2.83 283 -1.111 -11.354 1.346 -21.759 -21.332 1.038 613.550 3093.984 -3041.369 -0.452 1.719 -0.472 0.07 0.67 -0.74 0.04
1 2.84 284 -0.862 -12.340 1.681 -29.938 -20.966 7.935 613.550 3093.984 -3041.369 -0.694 2.702 -0.830 0.07 0.67 -0.74 0.05
1 2.85 285 -0.781 -12.422 1.896 -3.815 -8.209 8.972 553.589 3123.965 -3026.378 -0.795 2.781 -1.111 0.06 0.68 -0.73 0.05
1 2.86 286 -1.417 -11.387 1.480 20.813 0.336 6.592 553.589 3123.965 -3026.378 -0.169 1.749 -0.689 0.06 0.67 -0.73 0.05
1 2.87 287 -2.006 -10.544 1.121 20.325 1.404 5.737 598.560 3123.965 -3101.330 0.410 0.911 -0.296 0.07 0.67 -0.73 0.05
1 2.88 288 -2.145 -9.994 0.733 2.350 -7.263 2.380 598.560 3198.916 -2996.398 0.541 0.363 0.115 0.07 0.67 -0.74 0.05
1 2.89 289 -2.107 -9.750 0.469 -13.062 -20.996 -4.425 598.560 3198.916 -2996.398 0.499 0.120 0.378 0.06 0.67 -0.74 0.05
1 2.90 290 -2.059 -10.295 0.287 -16.815 -28.473 -14.374 478.638 3123.965 -2996.398 0.461 0.662 0.541 0.06 0.67 -0.73 0.05
1 2.91 291 -2.069 -10.501 0.498 -7.843 -25.635 -10.986 478.638 3123.965 -2996.398 0.490 0.863 0.307 0.06 0.67 -0.73 0.05
1 2.92 292 -1.791 -10.482 0.690 0.092 -23.377 -3.052 508.619 2988.903 -2906.307 0.231 0.840 0.102 0.06 0.68 -0.73 0.05
1 2.93 293 -0.872 -9.673 1.025 2.563 -30.853 -0.427 434.417 3093.385 -3012.587 -0.680 0.029 -0.226 0.06 0.68 -0.73 0.06
1 2.94 294 -0.115 -9.151 1.173 5.646 -37.903 -9.064 464.397 2988.303 -3012.587 -1.424 -0.493 -0.361 0.05 0.68 -0.73 0.06
1 2.95 295 0.369 -9.208 1.437 6.866 -38.635 -18.280 404.287 3093.385 -3012.587 -1.877 -0.439 -0.604 0.05 0.67 -0.73 0.06
1 2.96 296 0.215 -9.462 1.753 3.296 -33.234 -19.684 404.287 3093.385 -3012.587 -1.678 -0.190 -0.898 0.05 0.67 -0.73 0.06
1 2.97 297 -0.426 -9.812 1.992 -3.937 -21.729 -10.712 464.397 3063.404 -2967.617 -0.992 0.154 -1.121 0.04 0.67 -0.74 0.06
1 2.98 298 -0.929 -10.056 2.045 -3.845 -20.355 -5.829 464.397 3063.404 -2967.617 -0.458 0.395 -1.165 0.04 0.67 -0.74 0.06
1 2.99 299 -1.255 -9.836 1.920 2.197 -23.499 -2.777 524.358 3198.316 -2952.626 -0.113 0.172 -1.034 0.04 0.67 -0.74 0.06
1 3.00 300 -0.919 -9.611 2.188 16.144 -28.442 -0.580 449.407 3153.346 -2997.597 -0.430 -0.052 -1.262 0.04 0.67 -0.74 0.06
1 3.01 301 -0.431 -9.481 2.299 19.257 -26.245 0.793 374.306 2988.303 -2937.636 -0.913 -0.178 -1.332 0.04 0.67 -0.74 0.06
1 3.02 302 0.172 -9.232 2.404 15.808 -24.780 1.556 359.316 3003.293 -2922.646 -1.508 -0.424 -1.394 0.03 0.67 -0.74 0.06
1 3.03 303 0.579 -9.060 2.557 8.514 -21.607 0.519 359.316 3003.293 -2922.646 -1.904 -0.593 -1.511 0.03 0.67 -0.74 0.07
1 3.04 304 0.546 -8.983 2.327 -2.441 -9.979 -6.500 149.303 2988.303 -2862.535 -1.854 -0.670 -1.255 0.03 0.67 -0.74 0.07
1 3.05 305 0.235 -9.007 2.380 -5.402 -2.319 -11.505 149.303 2988.303 -2862.535 -1.518 -0.648 -1.295 0.03 0.67 -0.74 0.07
1 3.06 306 -0.182 -9.419 2.236 -8.148 2.106 -14.404 329.335 3138.355 -3012.587 -1.074 -0.239 -1.147 0.03 0.67 -0.74 0.07
1 3.07 307 -0.862 -9.721 2.097 -8.087 3.510 -12.146 299.355 3018.284 -3087.539 -0.338 0.055 -1.015 0.03 0.67 -0.74 0.06
1 3.08 308 -0.819 -10.118 2.112 -6.531 0.549 -9.857 119.322 3138.355 -3012.587 -0.362 0.450 -1.034 0.03 0.67 -0.74 0.06
1 3.09 309 -0.613 -10.214 2.045 -5.096 -1.404 -8.423 239.394 3153.346 -3132.659 -0.551 0.543 -0.969 0.02 0.67 -0.74 0.06
1 3.10 310 -0.335 -10.056 2.145 0.092 -0.977 -8.606 239.394 3153.346 -3132.659 -0.811 0.383 -1.068 0.02 0.67 -0.74 0.06
1 3.11 311 0.125 -9.879 1.992 4.791 0.488 -9.369 119.322 2988.303 -3012.587 -1.251 0.205 -0.905 0.02 0.67 -0.74 0.06
1 3.12 312 0.369 -9.582 1.877 6.409 5.280 -12.054 119.322 2988.303 -3012.587 -1.472 -0.093 -0.775 0.02 0.67 -0.74 0.06
1 3.13 313 0.297 -9.520 1.705 3.235 6.226 -15.198 224.404 3138.355 -3087.539 -1.374 -0.157 -0.587 0.02 0.67 -0.74 0.06
1 3.14 314 0.235 -9.453 1.762 0.946 8.514 -18.158 164.293 3003.293 -2952.626 -1.280 -0.226 -0.634 0.02 0.66 -0.74 0.06
1 3.15 315 -0.034 -9.587 1.652 1.312 8.942 -19.318 194.423 3063.404 -3012.587 -0.942 -0.098 -0.515 0.02 0.66 -0.75 0.05
1 3.16 316 0.014 -9.663 1.619 2.380 7.263 -19.104 164.293 3048.414 -2997.597 -0.955 -0.024 -0.476 0.02 0.66 -0.75 0.05
1 3.17 317 0.148 -9.606 1.604 3.815 5.035 -18.738 164.293 3048.414 -2997.597 -1.055 -0.084 -0.455 0.02 0.66 -0.75 0.05
1 3.18 318 0.244 -9.711 1.724 3.571 4.150 -18.677 239.394 3048.414 -2952.626 -1.117 0.019 -0.566 0.02 0.66 -0.75 0.05
1 3.19 319 0.311 -9.697 1.556 0.854 6.409 -17.700 239.394 3048.414 -2952.626 -1.149 0.003 -0.390 0.02 0.66 -0.75 0.05
1 3.20 320 0.096 -9.615 1.437 0.549 9.003 -16.327 119.322 3018.284 -3117.519 -0.899 -0.081 -0.266 0.01 0.66 -0.75 0.05
1 3.21 321 0.182 -9.577 1.456 0.641 10.895 -14.221 254.384 3063.404 -3162.640 -0.954 -0.122 -0.282 0.01 0.66 -0.75 0.04
1 3.22 322 -0.029 -9.510 1.269 1.984 13.794 -11.444 74.352 3018.284 -2967.617 -0.692 -0.192 -0.091 0.01 0.66 -0.75 0.04
1 3.23 323 0.048 -9.448 1.212 1.984 14.252 -9.918 254.384 3138.355 -3042.568 -0.750 -0.255 -0.032 0.01 0.66 -0.75 0.04
1 3.24 324 0.043 -9.453 1.039 1.648 15.472 -9.766 254.384 3138.355 -3042.568 -0.727 -0.252 0.142 0.01 0.66 -0.75 0.04
1 3.25 325 -0.196 -9.501 0.963 0.885 17.456 -8.209 224.404 2943.333 -2967.617 -0.472 -0.205 0.218 0.01 0.66 -0.75 0.04
1 3.26 326 -0.153 -9.601 0.972 1.923 18.250 -5.707 224.404 2943.333 -2967.617 -0.503 -0.106 0.207 0.01 0.66 -0.75 0.03
1 3.27 327 -0.077 -9.740 0.872 3.143 18.250 -4.517 209.414 3078.395 -2997.597 -0.570 0.033 0.307 0.02 0.66 -0.75 0.03
1 3.28 328 0.105 -9.697 0.891 5.798 18.494 -2.350 119.322 2943.333 -2967.617 -0.744 -0.011 0.289 0.02 0.66 -0.75 0.03
1 3.29 329 0.211 -9.520 0.876 6.714 20.111 -0.061 149.303 3093.385 -3117.519 -0.842 -0.187 0.312 0.02 0.66 -0.75 0.03
1 3.30 330 0.148 -9.515 0.943 4.517 20.722 -0.336 209.414 2958.323 -3072.548 -0.778 -0.192 0.250 0.02 0.66 -0.75 0.03
1 3.31 331 -0.010 -9.424 0.919 1.984 21.515 0.854 209.414 2958.323 -3072.548 -0.618 -0.283 0.276 0.02 0.66 -0.75 0.03
1 3.32 332 -0.206 -9.433 0.819 0.336 19.562 0.977 149.303 3063.404 -2967.617 -0.421 -0.273 0.376 0.02 0.66 -0.75 0.02
1 3.33 333 -0.316 -9.462 0.737 -0.732 18.677 0.153 149.303 3063.404 -2967.617 -0.312 -0.245 0.453 0.02 0.66 -0.75 0.02
1 3.34 334 -0.527 -9.390 0.680 -2.533 13.001 -0.488 164.293 3153.346 -3027.578 -0.103 -0.317 0.504 0.02 0.66 -0.75 0.02
1 3.35 335 -0.656 -9.376 0.608 -2.930 8.759 -1.068 254.384 3168.336 -2907.656 0.026 -0.333 0.568 0.02 0.66 -0.75 0.02
1 3.36 336 -0.512 -9.022 0.589 -4.425 3.174 -1.282 374.306 3168.336 -3087.539 -0.118 -0.689 0.570 0.02 0.66 -0.75 0.02
1 3.37 337 -0.445 -9.208 0.637 -6.378 2.014 -1.465 149.303 3093.385 -3012.587 -0.182 -0.504 0.510 0.02 0.66 -0.75 0.02
1 3.38 338 -0.345 -9.338 0.455 -12.543 -0.610 -0.153 149.303 3093.385 -3012.587 -0.280 -0.377 0.674 0.02 0.66 -0.75 0.02
1 3.39 339 -0.244 -9.175 0.464 -12.634 -1.465 2.258 194.423 3093.385 -2937.636 -0.379 -0.542 0.641 0.02 0.67 -0.75 0.02
1 3.40 340 -0.201 -9.343 0.297 -12.360 -5.219 1.160 194.423 3093.385 -2937.636 -0.422 -0.378 0.786 0.02 0.67 -0.74 0.02
1 3.41 341 0.287 -9.462 0.139 -9.674 -12.878 2.106 134.312 2958.323 -3027.578 -0.907 -0.260 0.921 0.02 0.67 -0.74 0.02
1 3.42 342 0.464 -9.204 0.120 -8.362 -12.665 3.326 299.355 3063.404 -2862.535 -1.079 -0.522 0.918 0.02 0.67 -0.74 0.02
1 3.43 343 0.670 -8.964 0.148 -11.108 -7.629 5.219 299.355 3063.404 -2862.535 -1.280 -0.763 0.872 0.02 0.67 -0.74 0.02
1 3.44 344 0.646 -9.357 0.034 -24.048 5.493 7.599 194.423 3018.284 -2967.617 -1.255 -0.376 0.937 0.02 0.67 -0.74 0.02
1 3.45 345 0.699 -9.606 -0.215 -32.562 11.444 8.759 194.423 3018.284 -2967.617 -1.311 -0.131 1.139 0.02 0.67 -0.74 0.02
1 3.46 346 0.699 -9.936 -0.196 -31.738 14.130 9.857 209.414 3198.316 -3027.578 -1.317 0.194 1.061 0.02 0.67 -0.74 0.02
1 3.47 347 0.378 -10.080 -0.196 -24.017 14.435 6.317 209.414 3198.316 -3027.578 -1.001 0.333 1.007 0.02 0.68 -0.74 0.02
1 3.48 348 -0.445 -10.219 0.091 -13.336 10.803 0.977 74.352 3258.277 -2907.656 -0.178 0.469 0.678 0.02 0.68 -0.73 0.02
1 3.49 349 -0.776 -10.195 0.019 -10.834 10.986 1.831 299.355 3018.284 -2862.535 0.155 0.443 0.721 0.02 0.68 -0.73 0.02
1 3.50 350 -0.891 -10.061 -0.239 -8.881 11.963 6.134 299.355 3018.284 -2862.535 0.267 0.307 0.958 0.03 0.68 -0.73 0.02
1 3.51 351 -0.771 -9.735 -0.048 -8.789 13.580 10.254 119.322 3138.355 -2787.584 0.120 -0.020 0.726 0.03 0.68 -0.73 0.02
1 3.52 352 -0.479 -9.860 -0.053 -14.893 13.275 11.322 119.322 3138.355 -2787.584 -0.190 0.105 0.708 0.03 0.68 -0.73 0.02
1 3.53 353 -0.254 -10.018 -0.019 -22.308 11.536 10.376 314.345 3003.293 -2742.613 -0.432 0.262 0.643 0.03 0.68 -0.73 0.02
1 3.54 354 -0.230 -10.104 -0.010 -26.337 11.780 7.477 314.345 3003.293 -2742.613 -0.468 0.346 0.592 0.03 0.69 -0.73 0.02
1 3.55 355 -0.115 -10.228 -0.120 -26.856 14.313 6.622 329.335 2988.303 -2757.604 -0.591 0.469 0.656 0.03 0.69 -0.73 0.02
1 3.56 356 -0.254 -10.583 -0.029 -22.492 17.181 7.935 329.335 3393.339 -2727.623 -0.460 0.821 0.519 0.03 0.69 -0.72 0.02
1 3.57 357 -0.431 -10.966 0.273 -22.095 15.472 3.082 329.335 3393.339 -2727.623 -0.292 1.203 0.176 0.03 0.69 -0.72 0.02
1 3.58 358 -0.527 -11.713 0.986 -21.484 9.674 -3.967 314.345 3123.365 -2817.564 -0.200 1.949 -0.576 0.03 0.69 -0.72 0.02
1 3.59 359 -0.905 -13.743 1.805 -30.792 2.747 -33.997 314.345 3228.297 -2667.662 0.206 3.974 -1.466 0.03 0.69 -0.72 0.02
1 3.60 360 -0.857 -13.753 1.551 -20.569 -0.763 -37.140 284.365 3198.316 -2772.594 0.213 3.978 -1.258 0.03 0.7 -0.72 0.01
1 3.61 361 -1.049 -12.556 1.044 13.428 0.061 -20.783 284.365 3198.316 -2772.594 0.454 2.778 -0.768 0.03 0.7 -0.72 0.01
1 3.62 362 -0.747 -11.789 0.412 19.379 4.303 -12.146 254.384 3213.307 -2652.522 0.180 2.011 -0.110 0.03 0.7 -0.72 0.01
1 3.63 363 0.283 -11.248 0.393 -9.399 3.510 -2.319 374.306 3288.408 -2652.522 -0.834 1.469 -0.068 0.03 0.69 -0.72 0.01
1 3.64 364 0.843 -11.670 0.369 -25.757 8.148 -0.427 374.306 3288.408 -2652.522 -1.390 1.890 -0.051 0.03 0.69 -0.72 0.01
1 3.65 365 1.039 -11.469 0.230 -23.254 14.038 3.906 239.394 3273.268 -2847.545 -1.586 1.688 0.054 0.03 0.7 -0.72 0.01
1 3.66 366 0.857 -10.750 0.062 -3.662 21.698 12.207 284.365 3153.346 -2697.643 -1.421 0.969 0.161 0.03 0.7 -0.72 0.01
1 3.67 367 0.972 -10.248 0.168 1.831 25.543 15.411 194.423 3138.355 -2727.623 -1.550 0.467 0.051 0.03 0.7 -0.71 0.01
1 3.68 368 0.589 -9.764 0.527 2.686 27.924 15.930 194.423 3138.355 -2727.623 -1.181 -0.016 -0.308 0.04 0.7 -0.71 0.01
1 3.69 369 0.101 -9.472 0.771 3.265 29.541 15.167 134.312 3303.398 -2817.564 -0.707 -0.307 -0.549 0.04 0.7 -0.72 0.01
1 3.70 370 -0.163 -9.347 0.977 3.906 29.022 16.296 389.296 3153.346 -2817.564 -0.461 -0.430 -0.749 0.04 0.7 -0.72 0
1 3.71 371 -0.589 -9.065 1.231 3.906 26.856 16.876 389.296 3153.346 -2817.564 -0.057 -0.711 -0.995 0.04 0.7 -0.72 0
1 3.72 372 -0.757 -8.993 1.441 5.310 26.825 15.076 329.335 3288.408 -2682.652 0.087 -0.781 -1.196 0.04 0.7 -0.72 0
1 3.73 373 -1.077 -8.672 1.801 10.284 26.489 11.108 374.306 3168.336 -2652.522 0.361 -1.098 -1.526 0.05 0.7 -0.72 0
1 3.74 374 -1.216 -8.390 1.997 14.038 27.924 5.096 434.417 3168.336 -2727.623 0.481 -1.378 -1.697 0.05 0.69 -0.72 0
1 3.75 375 -1.264 -8.610 2.179 14.618 29.511 -0.854 434.417 3168.336 -2727.623 0.521 -1.156 -1.854 -0.05 -0.69 0.72 0
1 3.76 376 -1.523 -8.605 2.231 13.336 31.311 -5.676 419.427 3198.316 -2847.545 0.777 -1.160 -1.875 -0.05 -0.69 0.72 0
1 3.77 377 -1.714 -8.586 2.255 11.871 30.121 -9.277 449.407 3123.365 -2562.581 0.970 -1.178 -1.869 -0.06 -0.69 0.72 0
1 3.78 378 -1.810 -8.710 2.011 11.841 25.513 -11.231 453.904 3120.217 -2569.026 1.070 -1.053 -1.596 -0.06 -0.69 0.72 0.01
1 3.79 379 -1.772 -8.935 1.839 9.308 21.576 -12.054 648.927 3135.208 -2689.098 1.038 -0.827 -1.396 -0.06 -0.69 0.72 0.01
1 3.80 380 -1.762 -9.750 1.575 2.380 16.754 -10.590 543.846 3255.279 -2794.030 1.045 -0.012 -1.092 -0.06 -0.69 0.72 0.01
1 3.81 381 -1.858 -9.932 1.374 1.221 13.397 -9.033 423.924 3075.247 -2704.088 1.146 0.170 -0.882 -0.06 -0.69 0.72 0.01
1 3.82 382 -1.700 -10.324 1.475 2.960 5.219 -1.495 423.924 3075.247 -2704.088 0.987 0.563 -0.974 -0.06 -0.69 0.72 0.01
1 3.83 383 -1.599 -10.228 1.231 6.775 -0.916 3.357 513.865 3090.237 -2734.069 0.879 0.468 -0.718 -0.06 -0.69 0.73 0.01
1 3.84 384 -1.499 -10.133 1.259 7.263 -5.585 5.768 333.833 3135.208 -2659.118 0.766 0.374 -0.730 -0.06 -0.68 0.73 0.01
1 3.85 385 -1.461 -10.358 1.403 2.319 -8.484 9.644 333.833 3135.208 -2659.118 0.714 0.601 -0.857 -0.06 -0.68 0.73 0.01
1 3.86 386 -1.738 -10.621 1.283 -1.801 -9.094 13.519 468.895 3210.309 -2689.098 0.974 0.867 -0.726 -0.06 -0.68 0.73 0.01
1 3.87 387 -2.006 -10.463 1.192 0.610 -9.033 16.998 333.833 3165.338 -2614.147 1.219 0.711 -0.630 -0.06 -0.68 0.73 0.01
1 3.88 388 -2.222 -10.037 1.116 13.031 -6.958 20.599 378.953 3090.237 -2689.098 1.371 0.291 -0.535 -0.06 -0.68 0.73 0
1 3.89 389 -2.538 -9.706 1.121 16.571 -4.456 23.895 378.953 3090.237 -2689.098 1.646 -0.034 -0.513 -0.06 -0.68 0.73 0
1 3.90 390 -2.648 -9.472 1.058 15.503 -3.815 26.856 318.842 3270.270 -2569.026 1.709 -0.262 -0.422 -0.07 -0.68 0.73 0
1 3.91 391 -2.552 -9.228 0.915 12.299 -3.876 29.053 558.836 3120.217 -2824.160 1.559 -0.499 -0.253 0.07 0.68 -0.73 0
1 3.92 392 -2.322 -9.352 0.915 4.730 -1.740 30.609 558.836 3120.217 -2824.160 1.274 -0.368 -0.234 0.07 0.68 -0.73 0
1 3.93 393 -1.935 -9.280 0.532 4.730 0.366 30.579 393.943 3150.198 -2749.059 0.831 -0.433 0.159 0.07 0.68 -0.73 0.01
1 3.94 394 -1.839 -9.343 0.623 8.026 1.282 28.046 483.885 3045.266 -2674.108 0.681 -0.364 0.075 0.07 0.68 -0.73 0.01
1 3.95 395 -1.528 -9.299 0.488 10.681 0.671 22.705 513.865 3090.237 -2689.098 0.279 -0.394 0.231 0.08 0.68 -0.73 0.01
1 3.96 396 -1.566 -9.343 0.369 11.383 -2.350 18.555 513.865 3090.237 -2689.098 0.283 -0.345 0.366 0.08 0.68 -0.73 0.01
1 3.97 397 -1.489 -9.271 0.388 10.590 -4.944 15.839 798.830 2940.334 -2839.150 0.177 -0.412 0.361 0.08 0.68 -0.73 0.01
1 3.98 398 -1.451 -9.194 0.326 8.881 -8.240 13.001 558.836 3075.247 -2779.040 0.115 -0.484 0.437 0.08 0.67 -0.73 0.02
1 3.99 399 -1.374 -9.184 0.335 9.857 -10.376 9.583 558.836 3075.247 -2779.040 0.020 -0.490 0.440 0.08 0.67 -0.73 0.02
1 4.00 400 -1.312 -9.137 0.302 12.756 -12.238 6.226 468.895 3090.237 -2764.049 -0.055 -0.535 0.488 0.08 0.67 -0.73 0.02
1 4.01 401 -1.326 -9.266 0.120 10.651 -14.282 6.104 513.865 3210.309 -2944.082 -0.049 -0.403 0.689 0.08 0.67 -0.74 0.02
1 4.02 402 -1.461 -9.218 -0.010 8.179 -16.754 4.761 513.865 3210.309 -2944.082 0.078 -0.449 0.834 0.08 0.67 -0.74 0.02
1 4.03 403 -1.652 -9.204 -0.038 11.292 -18.982 2.014 588.966 3135.208 -2764.049 0.261 -0.460 0.886 0.08 0.67 -0.74 0.02
1 4.04 404 -1.556 -9.376 -0.153 9.644 -21.942 4.669 648.927 3090.237 -2689.098 0.162 -0.286 1.016 0.07 0.67 -0.74 0.02
1 4.05 405 -1.475 -8.955 -0.311 8.514 -23.316 5.341 543.846 2865.233 -2914.102 0.074 -0.705 1.185 0.07 0.67 -0.74 0.03
1 4.06 406 -1.259 -8.380 -0.522 12.360 -25.177 2.472 543.846 2865.233 -2914.102 -0.147 -1.278 1.406 0.07 0.67 -0.74 0.03
1 4.07 407 -1.130 -8.284 -0.517 7.996 -28.931 2.960 513.865 2940.334 -2794.030 -0.276 -1.372 1.426 0.07 0.67 -0.74 0.03
1 4.08 408 -0.891 -7.939 -0.168 -0.305 -22.766 3.143 393.943 2955.325 -2854.141 -0.515 -1.715 1.097 0.07 0.67 -0.74 0.03
1 4.09 409 -0.814 -7.872 -0.187 -5.371 -11.993 2.014 393.943 2955.325 -2854.141 -0.593 -1.781 1.123 0.07 0.67 -0.74 0.03
1 4.10 410 -0.795 -7.710 -0.503 -14.587 1.953 1.862 543.846 3015.286 -2794.030 -0.616 -1.945 1.423 0.07 0.67 -0.74 0.03
1 4.11 411 -0.800 -7.571 -0.680 -20.233 6.195 -0.092 468.895 3090.237 -2869.131 -0.613 -2.085 1.575 0.07 0.67 -0.74 0.03
1 4.12 412 -0.934 -7.552 -1.202 -23.193 7.721 -3.662 438.914 3015.286 -2689.098 -0.479 -2.108 2.064 0.07 0.67 -0.74 0.03
1 4.13 413 -0.900 -7.547 -1.523 -27.832 5.066 -7.294 438.914 3015.286 -2689.098 -0.506 -2.117 2.347 0.07 0.67 -0.74 0.03
1 4.14 414 -0.886 -7.671 -1.542 -32.715 0.397 -10.986 378.953 2940.334 -2764.049 -0.509 -1.997 2.322 0.07 0.68 -0.73 0.03
1 4.15 415 -0.450 -8.064 -0.038 -35.126 -8.453 -19.013 438.914 2910.204 -2764.049 -0.927 -1.611 0.768 0.07 0.68 -0.73 0.03
1 4.16 416 0.081 -11.449 2.308 -45.166 -14.008 -15.991 438.914 2910.204 -2764.049 -1.431 1.767 -1.629 0.06 0.68 -0.73 0.03
1 4.17 417 1.365 -17.459 5.282 -102.356 -5.585 17.822 363.963 3075.247 -2779.040 -2.683 7.761 -4.779 0.06 0.69 -0.72 0.03
1 4.18 418 1.226 -16.937 3.960 -37.018 18.463 23.834 393.943 3000.295 -2674.108 -2.574 7.237 -3.593 0.06 0.69 -0.72 0.04
1 4.19 419 0.215 -13.135 2.251 59.998 27.985 16.754 378.953 2985.305 -2584.017 -1.598 3.439 -1.905 0.06 0.69 -0.72 0.04
1 4.20 420 -1.159 -9.970 0.771 85.877 18.585 3.632 378.953 2985.305 -2584.017 -0.246 0.281 -0.322 0.07 0.69 -0.72 0.03
1 4.21 421 -2.208 -8.337 0.144 25.787 -4.059 -17.456 378.953 3090.237 -2509.065 0.805 -1.346 0.414 0.07 0.68 -0.73 0.03
1 4.22 422 -3.496 -10.995 1.164 -95.948 -24.139 -47.272 513.865 3255.279 -2734.069 2.127 1.307 -0.600 0.07 0.68 -0.73 0.03
1 4.23 423 -4.865 -13.623 1.322 -109.803 -8.209 -44.464 513.865 3255.279 -2734.069 3.553 3.922 -0.871 0.06 0.69 -0.72 0.03
1 4.24 424 -6.101 -13.815 0.991 -26.093 9.491 -9.064 423.924 3000.295 -2629.137 4.900 4.091 -0.813 0.06 0.7 -0.71 0.03
1 4.25 425 -5.344 -12.230 1.049 14.069 -8.362 8.850 423.924 3120.217 -2524.056 4.149 2.504 -0.892 0.06 0.7 -0.71 0.03
1 4.26 426 -3.611 -11.028 1.796 16.266 -32.806 14.404 393.943 3195.318 -2494.075 2.399 1.305 -1.611 0.06 0.7 -0.71 0.03
1 4.27 427 -1.417 -11.109 2.576 0.214 -39.795 9.094 393.943 3195.318 -2494.075 0.187 1.389 -2.366 0.06 0.7 -0.71 0.03
1 4.28 428 0.675 -12.106 2.744 -11.963 -31.189 8.850 378.953 3135.208 -2479.085 -1.917 2.387 -2.531 0.05 0.7 -0.71 0.04
1 4.29 429 1.839 -11.641 2.313 6.134 -15.320 10.956 333.833 3135.208 -2479.085 -3.094 1.924 -2.112 0.05 0.7 -0.71 0.04
1 4.30 430 1.350 -10.233 2.078 27.863 -6.775 2.350 333.833 3135.208 -2479.085 -2.622 0.518 -1.874 0.05 0.7 -0.71 0.04
1 4.31 431 0.584 -9.146 1.949 31.220 -3.815 -4.730 318.842 3000.295 -2494.075 -1.863 -0.567 -1.708 0.05 0.7 -0.71 0.04
1 4.32 432 -0.330 -8.481 2.059 8.423 -10.010 -10.437 378.953 3135.208 -2584.017 -0.901 -1.236 -1.712 0.05 0.69 -0.72 0.04
1 4.33 433 -0.536 -8.610 2.121 -5.157 -16.754 -10.986 333.833 3165.338 -2434.114 -0.675 -1.108 -1.759 0.05 0.69 -0.72 0.04
1 4.34 434 -0.326 -8.749 2.002 -7.324 -22.827 -11.322 333.833 3165.338 -2434.114 -0.864 -0.972 -1.631 0.05 0.69 -0.72 0.04
1 4.35 435 -0.067 -8.868 1.925 0.305 -26.825 -12.756 153.950 3210.309 -2614.147 -1.098 -0.855 -1.546 0.04 0.69 -0.72 0.04
1 4.36 436 0.565 -8.935 2.198 12.054 -25.086 -13.123 303.852 3090.237 -2539.046 -1.702 -0.790 -1.797 0.04 0.69 -0.72 0.04
1 4.37 437 0.623 -9.031 2.203 6.866 -16.693 -16.571 303.852 3090.237 -2539.046 -1.729 -0.696 -1.769 0.04 0.69 -0.72 0.04
1 4.38 438 0.306 -9.189 1.978 -4.669 -4.730 -20.172 198.920 3060.256 -2539.046 -1.377 -0.541 -1.515 0.04 0.69 -0.72 0.04
1 4.39 439 -0.354 -9.592 1.599 -15.320 9.308 -16.998 258.881 3165.338 -2614.147 -0.638 -0.147 -1.131 0.03 0.69 -0.72 0.04
1 4.40 440 -0.924 -9.606 1.283 -13.001 11.871 -10.834 303.852 3060.256 -2539.046 -0.040 -0.136 -0.830 0.03 0.69 -0.72 0.04
1 4.41 441 -0.982 -9.443 1.144 -5.005 10.284 -6.470 303.852 3060.256 -2539.046 0.033 -0.301 -0.703 0.03 0.69 -0.72 0.04
1 4.42 442 -0.843 -9.161 1.384 4.608 6.653 -2.808 228.901 3090.237 -2659.118 -0.099 -0.584 -0.942 0.03 0.69 -0.72 0.04
1 4.43 443 -0.498 -9.036 1.341 9.064 0.977 -1.801 228.901 3015.286 -2404.134 -0.440 -0.708 -0.883 0.03 0.69 -0.72 0.04
1 4.44 444 0.172 -9.165 1.528 3.693 -4.852 -3.601 228.901 3015.286 -2404.134 -1.106 -0.578 -1.050 0.03 0.69 -0.72 0.04
1 4.45 445 0.546 -9.194 1.537 0.824 -5.615 -5.127 333.833 3165.338 -2584.017 -1.469 -0.550 -1.045 0.03 0.69 -0.72 0.04
1 4.46 446 0.670 -9.338 1.619 1.831 -3.601 -6.775 333.833 3165.338 -2584.017 -1.577 -0.407 -1.115 0.03 0.69 -0.72 0.04
1 4.47 447 0.297 -9.285 1.288 6.866 0.519 -9.399 138.959 3150.198 -2674.108 -1.160 -0.463 -0.759 0.03 0.69 -0.73 0.03
1 4.48 448 0.144 -9.218 1.293 8.118 1.434 -10.315 138.959 3150.198 -2674.108 -0.983 -0.531 -0.746 0.03 0.69 -0.73 0.03
1 4.49 449 -0.091 -9.572 1.250 8.209 2.930 -10.864 93.839 3195.318 -2599.157 -0.726 -0.177 -0.685 0.03 0.69 -0.73 0.03
1 4.50 450 -0.019 -9.625 1.058 8.484 3.876 -8.667 168.940 3225.299 -2524.056 -0.777 -0.125 -0.477 0.03 0.69 -0.73 0.03
1 4.51 451 -0.139 -9.568 0.718 11.353 2.930 -7.172 168.940 3225.299 -2524.056 -0.640 -0.183 -0.120 0.03 0.68 -0.73 0.03
1 4.52 452 -0.177 -9.510 0.589 10.925 1.862 -8.575 168.940 3150.198 -2674.108 -0.586 -0.241 0.027 0.03 0.68 -0.73 0.03
1 4.53 453 -0.201 -9.539 0.508 7.477 0.305 -8.209 168.940 3150.198 -2674.108 -0.546 -0.212 0.126 0.02 0.68 -0.73 0.03
1 4.54 454 -0.220 -9.754 0.536 3.174 -1.678 -5.463 153.950 2985.305 -2584.017 -0.496 0.002 0.114 0.02 0.68 -0.73 0.03
1 4.55 455 -0.110 -9.611 0.407 2.625 -2.930 -2.380 153.950 2985.305 -2584.017 -0.595 -0.142 0.247 0.02 0.68 -0.73 0.03
1 4.56 456 -0.153 -9.491 0.378 2.808 -4.822 -0.427 123.969 3060.256 -2539.046 -0.544 -0.262 0.278 0.02 0.68 -0.73 0.03
1 4.57 457 -0.168 -9.323 0.287 1.221 -6.714 0.793 243.891 3075.247 -2674.108 -0.525 -0.430 0.371 0.02 0.68 -0.73 0.03
1 4.58 458 -0.072 -9.314 0.330 -1.984 -7.843 2.136 243.891 3075.247 -2674.108 -0.618 -0.440 0.328 0.02 0.68 -0.73 0.03
1 4.59 459 0.182 -9.601 0.378 -4.272 -9.766 4.547 123.969 3090.237 -2584.017 -0.870 -0.153 0.275 0.02 0.68 -0.73 0.03
1 4.60 460 0.330 -9.419 0.374 -0.946 -8.209 7.751 123.969 3090.237 -2584.017 -1.018 -0.335 0.272 0.02 0.68 -0.73 0.03
1 4.61 461 0.570 -9.046 0.206 1.282 -5.005 10.437 153.950 3060.256 -2479.085 -1.265 -0.709 0.436 0.02 0.68 -0.73 0.03
1 4.62 462 0.766 -9.156 0.263 0.427 -3.052 10.956 153.950 3060.256 -2479.085 -1.467 -0.598 0.379 0.02 0.68 -0.73 0.03
1 4.63 463 0.709 -9.089 0.330 -1.129 -0.153 10.010 78.849 3135.208 -2539.046 -1.415 -0.665 0.311 0.02 0.68 -0.73 0.03
1 4.64 464 0.503 -9.328 0.268 -6.500 2.686 8.087 3.897 3090.237 -2584.017 -1.213 -0.425 0.367 0.02 0.68 -0.73 0.03
1 4.65 465 0.364 -9.726 0.029 -10.925 4.364 6.561 7.045 3086.789 -2591.062 -1.076 -0.029 0.593 0.02 0.68 -0.73 0.03
1 4.66 466 0.034 -9.793 -0.321 -8.881 7.507 7.751 292.010 2996.848 -2576.072 -0.746 0.037 0.921 0.02 0.68 -0.73 0.03
1 4.67 467 -0.019 -9.659 -0.273 -2.167 8.972 10.986 292.010 2996.848 -2576.072 -0.698 -0.098 0.852 0.02 0.69 -0.73 0.03
1 4.68 468 0.062 -9.117 -0.431 -0.702 10.529 13.947 172.088 3041.818 -2756.104 -0.804 -0.638 0.990 0.02 0.69 -0.73 0.03
1 4.69 469 0.101 -9.089 -0.498 -3.632 10.773 15.198 172.088 3041.818 -2756.104 -0.859 -0.666 1.046 0.02 0.69 -0.73 0.03
1 4.70 470 0.651 -9.429 -0.929 -19.836 3.113 9.277 172.088 3221.851 -2576.072 -1.424 -0.327 1.450 0.02 0.69 -0.72 0.03
1 4.71 471 0.843 -9.908 -0.876 -23.773 -1.038 3.235 217.059 2996.848 -2501.121 -1.617 0.150 1.355 0.02 0.69 -0.72 0.03
1 4.72 472 0.958 -10.453 -0.642 -21.027 1.617 -1.770 217.059 2996.848 -2501.121 -1.723 0.693 1.076 0.02 0.69 -0.72 0.03
1 4.73 473 0.330 -10.655 -0.565 -8.545 14.282 -1.862 202.068 2981.857 -2546.091 -1.079 0.891 0.961 0.02 0.69 -0.72 0.03
1 4.74 474 -0.211 -10.329 -0.493 -1.160 18.677 -0.366 202.068 2981.857 -2546.091 -0.523 0.564 0.864 0.02 0.69 -0.72 0.03
1 4.75 475 -0.771 -10.185 -0.441 0.885 18.829 -0.031 172.088 3191.871 -2531.101 0.044 0.419 0.798 0.02 0.69 -0.72 0.03
1 4.76 476 -1.116 -9.726 -0.421 -2.228 13.123 0.854 141.958 3191.871 -2531.101 0.389 -0.041 0.763 0.03 0.69 -0.72 0.03
1 4.77 477 -0.986 -9.893 -0.441 -6.073 8.240 1.282 202.068 3206.861 -2516.111 0.255 0.126 0.771 0.03 0.69 -0.72 0.03
1 4.78 478 -0.733 -9.970 -0.120 -8.759 3.571 2.655 292.010 3116.919 -2531.101 -0.004 0.203 0.433 0.03 0.7 -0.72 0.03
1 4.79 479 -0.417 -10.343 0.374 -12.116 1.526 2.045 292.010 3116.919 -2531.101 -0.325 0.576 -0.078 0.03 0.7 -0.72 0.03
1 4.80 480 0.000 -11.813 1.403 -22.766 7.690 -7.690 141.958 3041.818 -2576.072 -0.741 2.045 -1.129 0.03 0.7 -0.72 0.03
1 4.81 481 -0.359 -12.934 1.561 -27.435 15.533 -20.416 141.958 3041.818 -2576.072 -0.374 3.164 -1.319 0.03 0.7 -0.72 0.03
1 4.82 482 -0.713 -12.991 0.958 -15.839 16.480 -25.635 232.049 2981.857 -2441.010 0.005 3.219 -0.757 0.03 0.7 -0.71 0.02
1 4.83 483 -1.039 -11.133 0.302 22.522 11.871 -15.289 202.068 3086.789 -2486.130 0.397 1.356 -0.125 0.03 0.7 -0.71 0.02
1 4.84 484 -1.020 -10.971 0.048 11.200 11.719 -13.397 96.987 3071.799 -2351.068 0.401 1.192 0.160 0.03 0.7 -0.71 0.02
1 4.85 485 -0.484 -11.138 0.177 -10.956 9.674 -5.035 321.990 3116.919 -2501.121 -0.119 1.359 0.038 0.03 0.7 -0.71 0.02
1 4.86 486 0.086 -11.449 0.306 -23.865 8.759 0.458 321.990 3116.919 -2501.121 -0.684 1.670 -0.115 0.03 0.7 -0.71 0.02
1 4.87 487 0.728 -11.919 0.302 -25.086 7.813 2.075 7.045 3161.890 -2486.130 -1.327 2.138 -0.149 0.03 0.7 -0.71 0.02
1 4.88 488 0.986 -11.019 0.340 -1.740 8.392 5.981 7.045 3161.890 -2486.130 -1.590 1.238 -0.222 0.03 0.7 -0.71 0.02
1 4.89 489 1.049 -10.549 0.670 10.315 14.710 6.714 172.088 3191.871 -2426.020 -1.660 0.769 -0.563 0.03 0.7 -0.71 0.02
1 4.90 490 0.302 -10.061 1.073 7.843 22.492 8.575 172.088 3191.871 -2396.039 -0.924 0.282 -0.936 0.03 0.7 -0.71 0.01
1 4.91 491 -0.101 -9.994 1.235 6.775 25.299 8.728 172.088 3146.900 -2456.000 -0.526 0.215 -1.083 0.03 0.7 -0.71 0.01
1 4.92 492 -1.207 -9.975 1.307 5.157 28.168 9.949 262.029 3056.809 -2336.078 0.568 0.197 -1.141 0.03 0.7 -0.71 0.01
1 4.93 493 -1.432 -9.740 1.183 7.629 24.597 12.238 262.029 3056.809 -2336.078 0.774 -0.036 -1.001 0.04 0.7 -0.71 0.01
1 4.94 494 -1.427 -9.228 1.221 12.817 19.623 13.550 336.980 2981.857 -2411.029 0.744 -0.547 -1.020 0.04 0.7 -0.71 0.01
1 4.95 495 -0.862 -8.500 1.499 19.867 16.785 11.719 336.980 2981.857 -2411.029 0.153 -1.272 -1.271 0.04 0.7 -0.72 0.01
1 4.96 496 -0.618 -8.236 1.829 18.707 21.515 7.355 321.990 3221.851 -2396.039 -0.115 -1.533 -1.565 0.04 0.7 -0.72 0.01
1 4.97 497 -0.484 -8.126 1.863 11.871 28.504 2.777 217.059 3071.799 -2426.020 -0.262 -1.641 -1.572 0.04 0.7 -0.72 0.01
1 4.98 498 -1.015 -8.256 1.805 5.676 37.018 -5.371 321.990 3071.799 -2426.020 0.262 -1.510 -1.489 0.05 0.69 -0.72 0.01
1 4.99 499 -1.484 -8.294 1.307 4.730 36.347 -10.010 321.990 3116.919 -2456.000 0.739 -1.473 -0.987 0.05 0.69 -0.72 0.01
1 5.00 500 -2.050 -8.610 1.106 3.571 31.342 -12.054 321.990 3116.919 -2456.000 1.319 -1.157 -0.783 0.05 0.69 -0.72 0
1 5.01 501 -2.399 -9.161 0.943 0.702 23.468 -11.505 321.990 3116.919 -2351.068 1.680 -0.607 -0.616 0.05 0.69 -0.72 0
1 5.02 502 -2.322 -9.343 0.886 -1.709 12.543 -7.385 321.990 3116.919 -2351.068 1.605 -0.426 -0.555 0.05 0.69 -0.72 0
1 5.03 503 -1.671 -9.481 0.790 -1.160 -1.678 -3.357 321.990 3116.919 -2501.121 0.950 -0.286 -0.459 -0.05 -0.69 0.72 0
1 5.04 504 -1.346 -9.682 0.804 -3.632 -6.683 -3.357 532.003 2996.848 -2426.020 0.619 -0.085 -0.472 -0.05 -0.69 0.72 0
1 5.05 505 -1.346 -10.439 0.881 -11.017 -10.498 -0.031 298.905 3112.422 -2404.583 0.616 0.672 -0.556 0.05 0.69 -0.72 0
1 5.06 506 -1.470 -10.559 0.776 -8.179 -13.641 4.089 388.847 3082.442 -2419.574 0.735 0.791 -0.461 0.05 0.69 -0.72 0
1 5.07 507 -1.480 -10.377 0.804 0.275 -15.533 8.118 388.847 3082.442 -2419.574 0.735 0.610 -0.496 0.05 0.69 -0.72 0
1 5.08 508 -1.547 -10.157 0.838 6.195 -16.815 11.383 463.798 3067.452 -2359.613 0.785 0.391 -0.520 0.05 0.69 -0.72 0
1 5.09 509 -1.719 -9.951 1.015 3.906 -17.059 13.580 463.798 3067.452 -2359.613 0.935 0.188 -0.682 0.05 0.69 -0.72 0.01
1 5.10 510 -1.954 -9.754 1.034 -0.702 -15.045 15.900 328.886 3067.452 -2464.544 1.143 -0.006 -0.690 0.05 0.69 -0.72 0.01
1 5.11 511 -1.997 -9.764 0.991 0.854 -13.153 18.799 343.876 3052.461 -2269.671 1.157 0.006 -0.640 0.05 0.69 -0.72 0.01
1 5.12 512 -2.188 -9.726 0.824 5.188 -12.695 21.362 328.886 3067.452 -2539.646 1.275 -0.025 -0.454 0.05 0.69 -0.72 0.01
1 5.13 513 -2.179 -9.630 0.680 5.219 -12.085 21.637 208.814 3127.413 -2344.623 1.224 -0.116 -0.297 0.05 0.69 -0.72 0.02
1 5.14 514 -1.959 -9.390 0.599 6.378 -11.597 23.956 208.814 3127.413 -2344.623 0.962 -0.351 -0.203 0.05 0.69 -0.72 0.02
1 5.15 515 -1.901 -9.371 0.421 5.432 -10.712 24.323 328.886 3067.452 -2434.564 0.862 -0.365 -0.013 0.05 0.69 -0.72 0.02
1 5.16 516 -1.863 -9.419 0.546 4.334 -9.491 23.438 328.886 3067.452 -2434.564 0.781 -0.312 -0.127 0.05 0.69 -0.72 0.02
1 5.17 517 -1.662 -9.668 0.374 3.479 -9.949 21.240 418.827 3007.341 -2449.554 0.540 -0.058 0.055 0.05 0.69 -0.72 0.03
1 5.18 518 -1.748 -9.501 0.321 6.409 -10.284 18.616 463.798 2992.351 -2434.564 0.591 -0.221 0.114 0.06 0.69 -0.72 0.03
1 5.19 519 -1.590 -9.505 0.436 7.721 -11.536 16.296 463.798 2992.351 -2434.564 0.401 -0.212 0.009 0.06 0.69 -0.72 0.03
1 5.20 520 -1.446 -9.237 0.426 5.310 -13.397 13.550 343.876 3157.393 -2524.655 0.206 -0.473 0.045 0.06 0.69 -0.72 0.03
1 5.21 521 -1.240 -9.328 0.407 3.143 -14.221 10.407 343.876 3157.393 -2524.655 -0.020 -0.379 0.074 0.06 0.69 -0.72 0.03
1 5.22 522 -1.173 -9.410 0.326 0.946 -13.977 8.514 253.785 2992.351 -2359.613 -0.101 -0.295 0.162 0.06 0.69 -0.72 0.04
1 5.23 523 -1.212 -9.443 0.517 0.061 -13.763 6.805 253.785 2992.351 -2359.613 -0.073 -0.260 -0.027 0.06 0.69 -0.72 0.04
1 5.24 524 -1.216 -9.400 0.579 2.533 -14.221 4.364 418.827 2977.360 -2524.655 -0.077 -0.302 -0.086 0.06 0.69 -0.72 0.04
1 5.25 525 -1.073 -9.352 0.599 3.754 -15.198 2.899 343.876 3007.341 -2449.554 -0.226 -0.349 -0.099 0.05 0.69 -0.72 0.04
1 5.26 526 -1.106 -9.366 0.570 3.235 -14.893 1.801 343.876 3007.341 -2449.554 -0.195 -0.333 -0.061 0.05 0.69 -0.72 0.04
1 5.27 527 -1.269 -9.347 0.536 0.702 -11.871 1.465 268.925 3052.461 -2554.636 -0.034 -0.352 -0.012 0.05 0.69 -0.72 0.04
1 5.28 528 -1.221 -9.280 0.350 -2.411 -9.430 2.777 268.925 3052.461 -2554.636 -0.083 -0.418 0.177 0.05 0.69 -0.72 0.04
1 5.29 529 -1.370 -9.199 0.359 -5.676 -5.280 2.747 418.827 3127.413 -2419.574 0.062 -0.499 0.164 0.05 0.69 -0.72 0.04
1 5.30 530 -1.403 -9.400 0.148 -8.423 -1.465 3.723 418.827 3127.413 -2419.574 0.091 -0.298 0.366 0.05 0.69 -0.72 0.04
1 5.31 531 -1.413 -9.328 0.120 -12.543 2.258 5.280 388.847 3127.413 -2449.554 0.093 -0.370 0.378 0.05 0.69 -0.72 0.04
1 5.32 532 -1.451 -9.405 -0.053 -13.977 5.615 6.805 373.856 2992.351 -2404.583 0.121 -0.293 0.528 0.05 0.69 -0.72 0.04
1 5.33 533 -1.571 -9.630 -0.268 -13.947 5.035 5.035 373.856 2992.351 -2404.583 0.229 -0.067 0.718 0.05 0.69 -0.72 0.05
1 5.34 534 -1.719 -9.759 -0.182 -9.918 0.549 2.197 298.905 2992.351 -2434.564 0.360 0.062 0.582 0.05 0.69 -0.72 0.05
1 5.35 535 -1.710 -9.491 -0.292 -5.524 -0.305 1.343 298.905 2992.351 -2434.564 0.346 -0.206 0.676 0.05 0.69 -0.72 0.05
1 5.36 536 -1.968 -9.601 -0.436 -1.099 -6.104 -1.038 478.788 2977.360 -2494.675 0.603 -0.096 0.815 0.05 0.69 -0.72 0.05
1 5.37 537 -1.762 -9.577 -0.584 -7.599 -11.902 1.129 478.788 2977.360 -2494.675 0.394 -0.120 0.954 0.05 0.69 -0.72 0.05
1 5.38 538 -1.350 -9.615 -0.575 -10.956 -17.517 1.312 238.794 3007.341 -2494.675 -0.023 -0.081 0.927 0.05 0.69 -0.72 0.05
1 5.39 539 -0.848 -9.539 -0.761 -8.453 -23.651 -0.305 298.905 3067.452 -2404.583 -0.527 -0.159 1.094 0.05 0.69 -0.72 0.05
1 5.40 540 -0.359 -9.687 -0.469 -5.493 -22.430 -2.228 298.905 3067.452 -2404.583 -1.012 -0.011 0.785 0.05 0.69 -0.72 0.05
1 5.41 541 -0.235 -9.812 -0.263 -6.195 -19.104 -3.815 223.804 3112.422 -2329.632 -1.129 0.112 0.568 0.05 0.69 -0.72 0.05
1 5.42 542 -0.393 -9.649 -0.144 -6.470 -15.015 -7.477 223.804 2992.351 -2359.613 -0.939 -0.056 0.427 0.04 0.7 -0.72 0.05
1 5.43 543 -0.785 -9.750 -0.345 -3.937 -13.794 -9.979 178.833 2947.380 -2539.646 -0.528 0.042 0.619 0.04 0.7 -0.71 0.05
1 5.44 544 -1.010 -9.539 -0.484 -0.153 -15.228 -12.268 178.833 2947.380 -2539.646 -0.282 -0.172 0.752 0.04 0.7 -0.71 0.05
1 5.45 545 -1.030 -9.323 -0.417 0.824 -18.738 -13.825 208.814 2977.360 -2449.554 -0.241 -0.390 0.683 0.04 0.7 -0.71 0.05
1 5.46 546 -1.034 -9.108 -0.541 0.549 -20.630 -16.724 208.814 2932.390 -2494.675 -0.212 -0.609 0.807 0.04 0.7 -0.71 0.05
1 5.47 547 -0.895 -8.734 -0.742 -3.571 -22.522 -19.714 208.814 2932.390 -2494.675 -0.324 -0.986 1.006 0.03 0.7 -0.71 0.05
1 5.48 548 -0.824 -8.835 -0.838 -5.768 -21.545 -20.844 388.847 3052.461 -2269.671 -0.365 -0.889 1.095 0.03 0.7 -0.71 0.05
1 5.49 549 -0.872 -8.897 -1.063 -7.568 -15.778 -20.264 328.886 3067.452 -2464.544 -0.252 -0.835 1.297 0.03 0.7 -0.71 0.05
1 5.50 550 -0.953 -9.592 0.302 -11.658 -13.977 -17.883 223.804 3112.422 -2509.665 -0.138 -0.145 -0.087 0.03 0.7 -0.71 0.05
1 5.51 551 -0.963 -13.523 1.786 -38.391 -16.754 -3.113 223.804 3112.422 -2509.665 -0.104 3.783 -1.595 0.02 0.7 -0.71 0.05
1 5.52 552 -0.268 -15.836 2.227 -81.818 -18.372 25.940 178.833 3067.452 -2464.544 -0.805 6.095 -2.113 0.02 0.7 -0.71 0.06
1 5.53 553 0.163 -13.250 2.500 -7.721 -1.038 21.362 58.912 3082.442 -2449.554 -1.277 3.514 -2.487 0.02 0.71 -0.71 0.06
1 5.54 554 -0.977 -11.722 1.101 46.112 20.569 17.212 62.659 3078.994 -2456.899 -0.164 1.989 -1.069 0.02 0.71 -0.71 0.06
1 5.55 555 -1.949 -9.419 0.929 14.710 13.916 16.327 137.610 3004.043 -2426.919 0.785 -0.311 -0.827 0.03 0.7 -0.71 0.06
1 5.56 556 -2.145 -11.497 0.426 -42.297 -13.580 3.723 212.711 3199.066 -2246.886 0.935 1.773 -0.300 0.03 0.7 -0.71 0.06
1 5.57 557 -1.901 -12.422 0.469 -60.791 -21.607 3.357 107.630 2989.053 -2366.958 0.683 2.698 -0.415 0.03 0.7 -0.71 0.06
1 5.58 558 -1.590 -12.536 0.498 -22.156 -18.066 3.662 107.630 2989.053 -2366.958 0.365 2.813 -0.521 0.03 0.71 -0.7 0.06
1 5.59 559 -1.748 -11.852 0.690 14.130 -8.118 6.928 -27.132 3064.004 -2366.958 0.516 2.129 -0.726 0.03 0.71 -0.7 0.06
1 5.60 560 -2.026 -11.100 0.953 8.850 -8.698 4.242 272.672 3123.965 -2351.968 0.784 1.379 -0.965 0.03 0.71 -0.7 0.06
1 5.61 561 -1.944 -10.616 1.144 -20.386 -29.755 -4.944 272.672 3123.965 -2351.968 0.699 0.896 -1.149 0.02 0.71 -0.7 0.07
1 5.62 562 -1.355 -11.095 1.566 -16.510 -33.417 -8.362 347.624 2974.062 -2351.968 0.115 1.374 -1.591 0.02 0.71 -0.7 0.07
1 5.63 563 -1.049 -11.555 1.911 -0.336 -29.480 -6.592 107.630 3064.004 -2292.007 -0.180 1.832 -1.958 0.02 0.71 -0.7 0.07
1 5.64 564 -0.824 -10.822 2.006 21.484 -26.795 -0.458 2.698 3259.027 -2441.909 -0.391 1.098 -2.032 0.02 0.71 -0.7 0.07
1 5.65 565 -1.149 -10.243 2.217 24.048 -25.238 -0.122 2.698 3259.027 -2441.909 -0.065 0.518 -2.203 0.02 0.71 -0.7 0.07
1 5.66 566 -1.413 -9.841 2.313 16.876 -24.445 3.113 92.640 3244.037 -2276.867 0.200 0.116 -2.244 0.01 0.7 -0.71 0.07
1 5.67 567 -1.298 -9.572 2.164 11.810 -24.628 7.355 92.640 3244.037 -2276.867 0.078 -0.151 -2.052 0.01 0.7 -0.71 0.08
1 5.68 568 -0.374 -9.563 2.107 14.984 -27.374 10.651 92.640 3244.037 -2276.867 -0.859 -0.158 -1.957 0.01 0.7 -0.71 0.08
1 5.69 569 0.546 -9.213 2.136 20.477 -29.724 12.421 2.698 3214.056 -2336.978 -1.791 -0.506 -1.945 0.01 0.7 -0.71 0.08
1 5.70 570 1.389 -9.007 1.987 23.834 -28.015 11.841 227.702 3184.076 -2411.929 -2.642 -0.709 -1.749 0.01 0.7 -0.71 0.08
1 5.71 571 2.093 -8.667 2.155 16.754 -14.130 2.441 62.659 3154.095 -2381.948 -3.339 -1.047 -1.813 0.01 0.69 -0.71 0.08
1 5.72 572 1.954 -8.404 2.054 8.209 1.221 -8.026 62.659 3154.095 -2381.948 -3.176 -1.312 -1.675 0.01 0.69 -0.72 0.08
1 5.73 573 1.302 -8.710 1.786 -2.075 13.672 -17.700 17.688 3078.994 -2381.948 -2.486 -1.010 -1.386 0 0.69 -0.72 0.08
1 5.74 574 0.517 -9.065 1.417 -10.071 21.240 -22.430 2.698 3139.105 -2292.007 -1.653 -0.661 -1.015 0 0.69 -0.72 0.08
1 5.75 575 -0.134 -9.592 1.336 -13.489 20.996 -23.316 2.698 3139.105 -2292.007 -0.957 -0.140 -0.946 0 0.69 -0.72 0.08
1 5.76 576 -0.479 -9.893 1.068 -1.740 15.106 -17.609 -57.113 3049.014 -2456.899 -0.571 0.157 -0.693 0 0.69 -0.72 0.08
1 5.77 577 -0.436 -9.797 1.374 10.376 10.101 -12.238 62.659 3123.965 -2456.899 -0.583 0.058 -1.002 0 0.69 -0.72 0.07
1 5.78 578 0.187 -9.390 1.508 19.074 5.676 -8.087 47.669 3184.076 -2517.010 -1.162 -0.352 -1.091 0 0.69 -0.72 0.07
1 5.79 579 0.311 -9.410 1.532 17.761 5.615 -8.026 47.669 3184.076 -2517.010 -1.268 -0.333 -1.080 0 0.69 -0.72 0.07
1 5.80 580 0.503 -9.290 1.566 11.383 8.392 -7.935 62.659 3123.965 -2501.870 -1.437 -0.454 -1.084 0 0.69 -0.72 0.07
1 5.81 581 0.383 -9.189 1.628 8.606 11.719 -7.813 -27.132 3289.007 -2471.890 -1.296 -0.555 -1.123 -0 0.69 -0.72 0.07
1 5.82 582 -0.067 -9.366 1.575 7.843 14.282 -6.561 -27.132 3289.007 -2471.890 -0.826 -0.379 -1.051 -0 0.69 -0.72 0.07
1 5.83 583 -0.570 -9.357 1.413 7.019 13.245 -4.639 -27.132 3184.076 -2366.958 -0.308 -0.389 -0.870 -0 0.69 -0.72 0.07
1 5.84 584 -0.713 -9.424 1.499 10.040 10.590 -2.136 77.649 3108.975 -2546.991 -0.155 -0.322 -0.941 0 0.69 -0.72 0.06
1 5.85 585 -0.646 -9.481 1.499 12.054 9.125 -1.831 77.649 3108.975 -2546.991 -0.217 -0.263 -0.922 0 0.69 -0.72 0.06
1 5.86 586 -0.110 -9.620 1.647 13.916 7.965 0.458 62.659 3123.965 -2501.870 -0.748 -0.122 -1.024 0 0.68 -0.73 0.06
1 5.87 587 0.096 -9.544 1.537 16.205 9.766 1.465 47.669 2944.082 -2366.958 -0.951 -0.197 -0.885 0 0.68 -0.73 0.06
1 5.88 588 0.302 -9.462 1.422 16.785 10.468 0.580 17.688 3004.043 -2351.968 -1.153 -0.277 -0.740 0 0.68 -0.73 0.06
1 5.89 589 0.230 -9.448 1.389 15.686 10.925 -0.641 17.688 3004.043 -2351.968 -1.075 -0.290 -0.677 0 0.68 -0.73 0.06
1 5.90 590 0.163 -9.357 1.197 12.390 11.108 -2.380 212.711 2898.961 -2456.899 -1.000 -0.379 -0.459 0 0.68 -0.73 0.06
1 5.91 591 -0.062 -9.362 1.130 5.493 8.362 -3.815 -132.214 2929.092 -2532.000 -0.764 -0.374 -0.372 0 0.68 -0.73 0.06
1 5.92 592 -0.292 -9.333 0.953 4.822 8.331 -3.357 -132.214 2929.092 -2532.000 -0.524 -0.403 -0.184 0 0.68 -0.73 0.06
1 5.93 593 -0.335 -9.381 0.833 3.357 9.735 -1.221 47.669 3214.056 -2366.958 -0.466 -0.355 -0.048 0 0.68 -0.73 0.06
1 5.94 594 -0.168 -9.357 0.895 1.617 9.796 1.190 77.649 2914.102 -2517.010 -0.631 -0.379 -0.106 0 0.68 -0.73 0.06
1 5.95 595 -0.115 -9.328 0.680 0.916 10.223 2.930 182.731 3064.004 -2471.890 -0.683 -0.407 0.110 0 0.68 -0.73 0.06
1 5.96 596 -0.048 -9.290 0.546 1.099 11.078 2.075 182.731 3064.004 -2471.890 -0.751 -0.445 0.244 0 0.68 -0.73 0.05
1 5.97 597 0.019 -9.366 0.508 0.092 12.421 1.923 62.659 2974.062 -2426.919 -0.818 -0.369 0.282 0.01 0.68 -0.73 0.05
1 5.98 598 -0.067 -9.472 0.278 -2.563 12.268 2.075 62.659 3078.994 -2561.981 -0.730 -0.264 0.507 0.01 0.68 -0.73 0.05
1 5.99 599 -0.172 -9.587 0.335 -4.028 12.573 1.312 62.659 3078.994 -2561.981 -0.624 -0.150 0.442 0.01 0.68 -0.73 0.05
1 6.00 600 -0.354 -9.625 0.359 -4.730 10.620 0.610 137.610 2929.092 -2426.919 -0.440 -0.113 0.397 0.01 0.68 -0.73 0.05
1 6.01 601 -0.441 -9.563 0.235 -4.028 10.437 1.312 77.649 3064.004 -2441.909 -0.353 -0.176 0.511 0.01 0.68 -0.73 0.05
1 6.02 602 -0.551 -9.323 0.110 -1.984 8.545 3.662 17.688 3004.043 -2426.919 -0.246 -0.416 0.627 0.01 0.68 -0.73 0.05
1 6.03 603 -0.474 -9.414 0.048 -3.326 6.104 5.280 17.688 3004.043 -2426.919 -0.328 -0.326 0.681 0.01 0.68 -0.73 0.05
1 6.04 604 -0.239 -9.228 0.134 -6.805 3.357 6.928 92.640 3049.014 -2561.981 -0.570 -0.513 0.583 0.01 0.68 -0.73 0.05
1 6.05 605 0.029 -9.433 0.268 -11.505 4.822 8.148 77.649 3034.023 -2441.909 -0.845 -0.307 0.433 0.01 0.68 -0.73 0.05
1 6.06 606 0.125 -9.572 0.172 -13.672 7.843 8.087 77.649 3034.023 -2441.909 -0.947 -0.169 0.507 0.01 0.68 -0.73 0.05
1 6.07 607 -0.177 -9.807 0.225 -13.977 10.345 6.287 137.610 3078.994 -2501.870 -0.652 0.064 0.431 0.01 0.68 -0.73 0.05
1 6.08 608 -0.441 -9.793 0.192 -11.383 8.209 4.303 107.630 3108.975 -2471.890 -0.397 0.047 0.414 0.01 0.68 -0.73 0.05
1 6.09 609 -0.790 -9.979 0.168 -8.667 4.211 3.326 137.610 3123.965 -2456.899 -0.051 0.233 0.419 0.01 0.69 -0.73 0.05
1 6.10 610 -0.900 -10.022 0.225 -7.141 -0.153 1.495 137.610 3123.965 -2456.899 0.056 0.276 0.346 0.01 0.69 -0.73 0.05
1 6.11 611 -0.843 -10.181 0.283 -5.127 -5.981 2.747 107.630 3064.004 -2411.929 -0.003 0.433 0.275 0.01 0.69 -0.73 0.05
1 6.12 612 -0.771 -9.965 0.460 -2.228 -7.935 4.425 77.649 3108.975 -2441.909 -0.079 0.218 0.091 0.01 0.69 -0.72 0.05
1 6.13 613 -0.771 -9.721 0.354 -3.571 -4.120 6.775 77.649 3108.975 -2441.909 -0.084 -0.027 0.192 0.01 0.69 -0.72 0.05
1 6.14 614 -0.867 -9.649 0.259 -6.165 -0.580 8.026 167.591 3123.965 -2426.919 0.004 -0.098 0.283 0.01 0.69 -0.72 0.05
1 6.15 615 -0.785 -9.582 0.249 -11.322 0.336 9.155 152.601 3064.004 -2591.961 -0.101 -0.164 0.268 0.01 0.69 -0.72 0.05
1 6.16 616 -0.843 -9.654 0.043 -11.536 -1.678 10.223 107.630 2989.053 -2441.909 -0.056 -0.092 0.454 0.01 0.69 -0.72 0.05
1 6.17 617 -0.623 -9.702 0.000 -10.498 -5.371 10.590 107.630 2989.053 -2441.909 -0.291 -0.044 0.478 0.01 0.69 -0.72 0.05
1 6.18 618 -0.541 -9.716 -0.120 -11.902 -7.782 8.453 182.731 2989.053 -2336.978 -0.386 -0.029 0.579 0.01 0.69 -0.72 0.05
1 6.19 619 -0.125 -9.740 -0.062 -15.564 -8.240 7.446 212.711 3123.965 -2426.919 -0.811 -0.005 0.500 0.01 0.69 -0.72 0.06
1 6.20 620 0.029 -10.262 0.330 -22.034 -2.808 1.740 212.711 3123.965 -2426.919 -0.968 0.516 0.080 0.01 0.69 -0.72 0.06
1 6.21 621 -0.345 -10.880 0.661 -23.010 1.831 -2.594 137.610 3123.965 -2306.997 -0.592 1.132 -0.283 0.01 0.69 -0.72 0.06
1 6.22 622 -0.867 -11.809 1.001 -22.308 3.296 -18.677 107.630 3184.076 -2471.890 -0.046 2.056 -0.691 0.01 0.7 -0.72 0.06
1 6.23 623 -1.183 -12.010 0.862 -16.998 -2.197 -26.795 92.640 3274.017 -2381.948 0.302 2.253 -0.585 0.01 0.7 -0.72 0.05
1 6.24 624 -1.212 -11.445 0.795 1.648 -9.827 -22.553 92.640 3274.017 -2381.948 0.370 1.684 -0.537 0.01 0.7 -0.71 0.05
1 6.25 625 -0.967 -10.683 0.713 14.496 -10.590 -17.059 167.591 3154.095 -2381.948 0.158 0.921 -0.445 0.01 0.7 -0.71 0.05
1 6.26 626 -0.718 -10.224 0.517 11.597 -5.707 -12.543 257.682 2989.053 -2216.906 -0.067 0.460 -0.224 0.01 0.7 -0.72 0.05
1 6.27 627 -0.364 -10.147 0.512 -6.409 1.526 -9.033 257.682 2989.053 -2216.906 -0.404 0.382 -0.203 0.01 0.7 -0.72 0.05
1 6.28 628 -0.263 -10.434 0.469 -13.672 0.946 -8.575 182.731 3064.004 -2366.958 -0.488 0.668 -0.163 0 0.7 -0.72 0.05
1 6.29 629 0.014 -10.420 0.551 -10.742 -1.587 -7.751 182.731 3064.004 -2366.958 -0.750 0.652 -0.262 0 0.7 -0.72 0.05
1 6.30 630 0.110 -10.037 0.651 0.153 3.052 -5.524 2.698 3034.023 -2411.929 -0.813 0.266 -0.384 0 0.7 -0.72 0.05
1 6.31 631 0.000 -10.037 0.570 2.533 9.766 -3.967 2.698 3034.023 -2411.929 -0.689 0.265 -0.299 0 0.7 -0.72 0.05
1 6.32 632 -0.350 -9.994 0.862 2.441 12.756 -1.770 107.630 3108.975 -2292.007 -0.331 0.221 -0.586 0 0.7 -0.72 0.05
1 6.33 633 -0.565 -10.228 0.891 2.106 13.855 -1.587 137.610 3199.066 -2381.948 -0.110 0.456 -0.609 0 0.7 -0.72 0.05
1 6.34 634 -0.685 -10.621 0.972 2.045 13.977 0.793 137.610 3199.066 -2381.948 0.012 0.848 -0.684 0 0.7 -0.72 0.04
1 6.35 635 -0.450 -10.578 1.144 5.585 12.329 5.127 92.640 3049.014 -2351.968 -0.225 0.806 -0.850 0.01 0.7 -0.72 0.04
1 6.36 636 -0.215 -10.214 1.326 12.512 12.360 7.935 92.640 3049.014 -2351.968 -0.466 0.443 -1.021 0.01 0.7 -0.72 0.04
1 6.37 637 -0.211 -9.864 1.609 15.747 14.496 7.751 152.601 3184.076 -2292.007 -0.489 0.096 -1.252 0.01 0.69 -0.72 0.04
1 6.38 638 -0.014 -9.620 1.733 12.939 16.480 7.263 152.601 3184.076 -2292.007 -0.693 -0.146 -1.346 0.01 0.69 -0.72 0.04
1 6.39 639 -0.168 -9.501 1.930 9.522 20.294 4.791 152.601 2989.053 -2336.978 -0.546 -0.265 -1.516 0.01 0.69 -0.72 0.04
1 6.40 640 -0.278 -9.218 1.872 7.111 24.292 1.801 182.731 3108.975 -2366.958 -0.438 -0.546 -1.436 0.01 0.69 -0.72 0.04
1 6.41 641 -0.666 -8.926 1.777 9.155 24.658 -0.549 182.731 3108.975 -2366.958 -0.050 -0.837 -1.321 0.01 0.69 -0.72 0.04
1 6.42 642 -1.173 -8.811 1.561 13.886 20.935 -4.059 227.702 3184.076 -2441.909 0.458 -0.951 -1.083 0.01 0.69 -0.72 0.04
1 6.43 643 -1.575 -8.955 1.432 12.817 17.273 -5.829 227.702 3184.076 -2441.909 0.862 -0.806 -0.927 0.02 0.69 -0.72 0.04
1 6.44 644 -1.767 -9.338 1.106 4.822 10.498 -5.463 167.591 3078.994 -2246.886 1.057 -0.421 -0.557 0.02 0.69 -0.73 0.03
1 6.45 645 -1.939 -9.299 1.149 3.357 8.301 -5.524 167.591 3078.994 -2246.886 1.228 -0.459 -0.590 0.02 0.69 -0.73 0.03
1 6.46 646 -1.676 -9.457 0.915 3.662 2.655 -5.951 92.640 3154.095 -2306.997 0.964 -0.300 -0.348 0.02 0.69 -0.73 0.03
1 6.47 647 -1.331 -9.462 0.690 5.402 0.397 -4.395 167.591 3154.095 -2532.000 0.620 -0.295 -0.114 0.02 0.69 -0.73 0.03
1 6.48 648 -1.235 -9.448 0.484 3.693 -3.265 -3.418 167.591 3154.095 -2532.000 0.526 -0.309 0.100 0.02 0.69 -0.73 0.03
1 6.49 649 -1.255 -9.860 0.340 -2.533 -7.721 0.153 272.672 3078.994 -2276.867 0.545 0.103 0.248 0.02 0.69 -0.73 0.03
1 6.50 650 -1.619 -10.085 0.172 -5.432 -10.681 2.869 272.672 3078.994 -2276.867 0.907 0.328 0.413 0.02 0.69 -0.73 0.03
1 6.51 651 -1.733 -10.018 0.220 -3.448 -14.160 5.707 302.653 3184.076 -2411.929 1.014 0.261 0.357 0.02 0.69 -0.73 0.04
1 6.52 652 -1.791 -10.099 0.383 -0.061 -16.235 9.399 167.591 3154.095 -2456.899 1.043 0.344 0.184 0.02 0.69 -0.73 0.04
1 6.53 653 -1.853 -9.836 0.517 0.000 -16.480 13.580 107.630 3139.105 -2441.909 1.083 0.083 0.050 0.02 0.69 -0.73 0.04
1 6.54 654 -1.571 -9.836 0.690 0.793 -15.503 15.991 92.640 3154.095 -2306.997 0.774 0.085 -0.121 0.02 0.69 -0.73 0.04
1 6.55 655 -1.422 -9.797 0.800 0.397 -13.336 18.433 92.640 3154.095 -2306.997 0.596 0.049 -0.227 0.02 0.69 -0.73 0.04
1 6.56 656 -1.331 -9.730 0.910 1.129 -8.881 19.318 137.610 3123.965 -2501.870 0.473 -0.015 -0.334 0.02 0.69 -0.73 0.05
1 6.57 657 -1.346 -9.821 0.862 2.258 -6.653 19.562 137.610 3123.965 -2501.870 0.456 0.079 -0.282 0.02 0.69 -0.73 0.05
1 6.58 658 -1.403 -9.740 0.781 4.120 -6.195 19.409 212.711 3078.994 -2456.899 0.482 0.001 -0.195 0.02 0.69 -0.73 0.05
1 6.59 659 -1.494 -9.831 0.895 5.310 -8.942 19.348 152.601 2989.053 -2366.958 0.509 0.099 -0.292 0.02 0.68 -0.73 0.05
1 6.60 660 -1.245 -9.750 0.790 6.500 -11.932 17.761 227.702 3064.004 -2366.958 0.229 0.022 -0.175 0.02 0.68 -0.73 0.05
1 6.61 661 -1.255 -9.908 0.867 6.500 -13.489 16.235 182.731 3214.056 -2411.929 0.212 0.184 -0.238 0.02 0.68 -0.73 0.06
1 6.62 662 -1.192 -9.783 0.867 7.782 -14.648 15.625 182.731 3214.056 -2411.929 0.126 0.063 -0.224 0.02 0.68 -0.73 0.06
1 6.63 663 -1.130 -9.644 0.761 9.857 -14.313 15.839 137.610 2974.062 -2456.899 0.041 -0.073 -0.102 0.02 0.68 -0.73 0.06
1 6.64 664 -0.886 -9.678 0.733 7.324 -15.076 16.785 137.610 2974.062 -2456.899 -0.226 -0.035 -0.056 0.02 0.68 -0.73 0.06
1 6.65 665 -0.915 -9.673 0.718 5.035 -12.970 16.602 212.711 3004.043 -2426.919 -0.220 -0.037 -0.026 0.02 0.68 -0.73 0.06
1 6.66 666 -0.905 -9.860 0.637 3.418 -8.423 16.205 -12.142 3049.014 -2501.870 -0.271 0.157 0.075 0.02 0.68 -0.73 0.07
1 6.67 667 -1.044 -9.807 0.536 2.563 -6.622 16.296 302.653 3064.004 -2471.890 -0.154 0.107 0.180 0.02 0.68 -0.73 0.07
1 6.68 668 -1.077 -9.615 0.445 3.815 -1.801 16.357 317.643 3078.994 -2456.899 -0.142 -0.082 0.276 0.02 0.68 -0.73 0.07
1 6.69 669 -1.154 -9.496 0.383 1.434 0.763 15.350 317.643 3078.994 -2456.899 -0.088 -0.198 0.341 0.02 0.68 -0.73 0.07
1 6.70 670 -1.221 -9.453 0.431 -3.174 4.181 14.801 272.672 3154.095 -2532.000 -0.043 -0.239 0.292 0.02 0.68 -0.73 0.07
1 6.71 671 -1.437 -9.457 0.335 -4.974 9.277 13.916 272.672 3154.095 -2532.000 0.151 -0.232 0.380 0.02 0.68 -0.73 0.07
1 6.72 672 -1.513 -9.524 0.412 -5.829 9.583 14.038 242.692 2974.062 -2532.000 0.205 -0.162 0.292 0.03 0.68 -0.73 0.07
1 6.73 673 -1.619 -9.568 0.302 -4.791 9.033 12.939 257.682 3108.975 -2441.909 0.287 -0.117 0.390 0.03 0.68 -0.73 0.07
1 6.74 674 -1.810 -9.438 0.239 -2.258 6.073 10.376 257.682 3108.975 -2441.909 0.435 -0.242 0.430 0.03 0.68 -0.73 0.07
1 6.75 675 -1.872 -9.443 0.105 -3.326 2.441 9.583 167.591 2974.062 -2501.870 0.479 -0.235 0.556 0.03 0.68 -0.73 0.07
1 6.76 676 -1.853 -9.405 -0.053 -2.441 -1.678 7.446 167.591 2974.062 -2501.870 0.443 -0.271 0.706 0.03 0.68 -0.73 0.07
1 6.77 677 -1.887 -9.223 -0.292 0.488 -5.585 4.547 317.643 3078.994 -2456.899 0.463 -0.452 0.938 0.03 0.68 -0.73 0.07
1 6.78 678 -1.848 -9.026 -0.412 2.228 -10.010 2.014 317.643 3078.994 -2456.899 0.416 -0.647 1.054 0.03 0.68 -0.73 0.07
1 6.79 679 -1.810 -9.046 -0.129 -3.693 -14.282 0.458 302.653 3108.975 -2336.978 0.372 -0.627 0.769 0.03 0.68 -0.73 0.07
1 6.80 680 -1.906 -9.108 -0.034 -5.127 -15.839 -0.854 347.624 3154.095 -2456.899 0.465 -0.565 0.666 0.03 0.68 -0.73 0.08
1 6.81 681 -1.465 -9.481 -0.287 -10.559 -20.783 -0.092 377.604 3139.105 -2411.929 0.023 -0.193 0.897 0.03 0.68 -0.72 0.08
1 6.82 682 -1.130 -9.448 -0.579 -9.338 -24.841 -1.740 242.692 3078.994 -2501.870 -0.311 -0.227 1.172 0.03 0.68 -0.72 0.08
1 6.83 683 -0.886 -9.534 -0.560 -4.150 -27.405 -2.563 242.692 3078.994 -2501.870 -0.549 -0.143 1.139 0.03 0.69 -0.72 0.08
1 6.84 684 -0.675 -9.453 -0.508 -1.862 -28.504 -3.510 272.672 2974.062 -2456.899 -0.750 -0.226 1.079 0.02 0.69 -0.72 0.08
1 6.85 685 -0.508 -9.486 -0.455 -4.700 -27.496 -5.249 272.672 2974.062 -2456.899 -0.903 -0.195 1.021 0.02 0.69 -0.72 0.08
1 6.86 686 -0.393 -9.448 -0.517 -6.897 -22.705 -7.751 227.702 3184.076 -2336.978 -1.002 -0.237 1.073 0.02 0.69 -0.72 0.08
1 6.87 687 -0.498 -9.486 -0.627 -5.188 -20.050 -10.498 227.702 3064.004 -2621.942 -0.877 -0.202 1.170 0.02 0.69 -0.72 0.08
1 6.88 688 -0.699 -9.170 -0.771 -1.495 -17.273 -14.130 332.633 3108.975 -2411.929 -0.627 -0.526 1.291 0.01 0.69 -0.72 0.08
1 6.89 689 -0.752 -9.070 -0.804 -1.373 -14.862 -15.839 257.682 3184.076 -2471.890 -0.547 -0.630 1.317 0.01 0.69 -0.72 0.08
1 6.90 690 -0.723 -9.012 -0.603 -5.005 -13.702 -16.602 257.682 3184.076 -2471.890 -0.547 -0.692 1.106 0.01 0.69 -0.72 0.08
1 6.91 691 -0.718 -10.104 0.340 -13.428 -12.909 -14.191 227.702 3139.105 -2411.929 -0.523 0.395 0.146 0.01 0.69 -0.72 0.08
1 6.92 692 -0.464 -12.503 1.537 -32.684 -12.482 -4.303 227.702 3139.105 -2411.929 -0.754 2.790 -1.078 0.01 0.69 -0.72 0.08
1 6.93 693 0.014 -13.777 2.380 -31.342 -1.648 13.825 212.711 3049.014 -2381.948 -1.231 4.061 -1.975 0.01 0.69 -0.72 0.08
1 6.94 694 -0.215 -12.623 2.002 11.627 13.886 10.315 182.731 3214.056 -2411.929 -1.019 2.907 -1.651 0.01 0.69 -0.71 0.08
1 6.95 695 -0.972 -11.153 1.259 32.806 21.118 6.134 182.731 3214.056 -2411.929 -0.280 1.439 -0.909 0.01 0.69 -0.71 0.08
1 6.96 696 -2.385 -9.922 0.311 -4.028 14.252 1.373 377.604 3184.076 -2411.929 1.114 0.214 0.108 0.01 0.69 -0.72 0.08
1 6.97 697 -2.686 -10.765 -0.316 -33.203 2.228 -3.784 377.604 3184.076 -2411.929 1.408 1.057 0.715 0.01 0.69 -0.72 0.08
1 6.98 698 -2.998 -11.627 -0.374 -42.603 -3.296 -5.646 92.640 3049.014 -2532.000 1.722 1.916 0.716 0.01 0.69 -0.71 0.08
1 6.99 699 -3.093 -11.675 -0.378 -22.736 -4.303 -2.045 92.640 3049.014 -2532.000 1.825 1.961 0.663 0.01 0.7 -0.71 0.08
1 7.00 700 -2.950 -10.947 -0.029 4.700 -3.448 4.791 137.610 3078.994 -2426.919 1.683 1.232 0.290 0.01 0.7 -0.71 0.08
1 7.01 701 -2.332 -10.583 0.488 -3.479 -10.864 6.226 137.610 3244.037 -2501.870 1.060 0.869 -0.222 0.01 0.7 -0.71 0.08
1 7.02 702 -1.571 -10.497 0.852 -13.245 -18.860 2.838 137.610 3244.037 -2501.870 0.290 0.784 -0.585 0.01 0.7 -0.71 0.08
1 7.03 703 -0.431 -10.578 1.350 -7.843 -19.836 -6.317 212.711 3244.037 -2426.919 -0.855 0.866 -1.105 0.01 0.7 -0.71 0.09
1 7.04 704 -0.024 -10.913 1.791 2.594 -10.162 -11.169 212.711 3244.037 -2426.919 -1.243 1.199 -1.543 0.01 0.7 -0.71 0.09
1 7.05 705 -0.551 -10.937 1.853 8.637 -2.869 -10.407 317.643 3154.095 -2306.997 -0.694 1.220 -1.591 0.01 0.7 -0.71 0.09
1 7.06 706 -0.977 -10.707 1.834 9.155 -3.113 -9.674 317.643 3154.095 -2306.997 -0.253 0.989 -1.559 0.01 0.7 -0.71 0.08
1 7.07 707 -1.422 -10.554 1.786 8.575 -9.064 -8.667 47.669 3139.105 -2292.007 0.207 0.834 -1.496 0 0.7 -0.71 0.08
1 7.08 708 -1.413 -10.123 1.638 10.834 -20.966 -4.883 107.630 3259.027 -2441.909 0.210 0.402 -1.333 0 0.7 -0.71 0.08
1 7.09 709 -0.579 -9.922 1.623 13.519 -26.764 -3.082 107.630 3259.027 -2441.909 -0.615 0.201 -1.290 0 0.69 -0.71 0.09
1 7.10 710 0.699 -9.501 2.059 17.670 -27.802 0.427 182.731 3139.105 -2366.958 -1.878 -0.220 -1.654 -0 0.69 -0.72 0.09
1 7.11 711 0.905 -9.228 2.088 19.806 -21.820 -0.397 182.731 3139.105 -2366.958 -2.071 -0.492 -1.638 -0 0.69 -0.72 0.09
1 7.12 712 1.274 -8.591 2.208 14.343 -11.078 -4.852 47.669 3139.105 -2366.958 -2.420 -1.129 -1.714 -0 0.69 -0.72 0.09
1 7.13 713 0.728 -8.562 2.208 3.723 4.211 -9.094 47.669 3139.105 -2366.958 -1.847 -1.160 -1.682 -0.01 0.69 -0.72 0.09
1 7.14 714 0.115 -8.710 1.839 -8.698 14.404 -14.008 167.591 3154.095 -2351.968 -1.205 -1.014 -1.300 -0.01 0.69 -0.72 0.09
1 7.15 715 -0.670 -9.352 1.432 -18.982 19.714 -16.724 2.698 3214.056 -2366.958 -0.395 -0.376 -0.907 -0.01 0.69 -0.72 0.09
1 7.16 716 -0.723 -9.745 1.259 -14.648 19.928 -17.517 2.698 3214.056 -2366.958 -0.314 0.013 -0.755 -0.01 0.69 -0.72 0.08
1 7.17 717 -0.532 -9.960 1.413 -4.913 19.562 -15.106 2.698 3214.056 -2411.929 -0.479 0.225 -0.929 -0.01 0.69 -0.72 0.08
1 7.18 718 -0.038 -10.061 1.523 3.204 20.477 -10.071 77.649 3214.056 -2366.958 -0.926 0.320 -1.042 -0.01 0.69 -0.72 0.08
1 7.19 719 0.283 -9.879 1.470 3.815 22.247 -8.240 2.698 3214.056 -2366.958 -1.228 0.137 -0.980 -0.01 0.69 -0.72 0.08
1 7.20 720 0.512 -9.917 1.623 3.754 23.468 -7.263 2.698 3214.056 -2366.958 -1.439 0.174 -1.124 -0.01 0.69 -0.72 0.07
1 7.21 721 0.536 -9.553 1.724 6.073 24.231 -6.989 212.711 3379.099 -2381.948 -1.444 -0.191 -1.213 -0 0.69 -0.72 0.07
1 7.22 722 0.589 -9.299 1.724 6.226 24.445 -6.317 17.688 3244.037 -2456.899 -1.477 -0.446 -1.198 -0 0.69 -0.72 0.07
1 7.23 723 0.455 -9.266 1.853 4.822 25.482 -6.439 17.688 3244.037 -2456.899 -1.325 -0.480 -1.313 -0 0.69 -0.72 0.07
1 7.24 724 0.225 -9.213 1.815 2.869 25.787 -7.599 -12.142 3199.066 -2426.919 -1.077 -0.534 -1.261 -0 0.69 -0.72 0.07
1 7.25 725 -0.096 -9.208 1.633 4.791 23.651 -9.613 152.601 3259.027 -2411.929 -0.721 -0.540 -1.056 -0 0.69 -0.72 0.06
1 7.26 726 -0.139 -9.256 1.705 8.392 21.057 -10.101 167.591 3199.066 -2456.899 -0.660 -0.493 -1.113 -0 0.69 -0.73 0.06
1 7.27 727 -0.235 -9.299 1.628 10.834 17.120 -11.078 167.591 3199.066 -2456.899 -0.547 -0.450 -1.017 0 0.68 -0.73 0.06
1 7.28 728 -0.101 -9.362 1.619 12.451 14.038 -11.627 107.630 3214.056 -2471.890 -0.662 -0.388 -0.984 0 0.68 -0.73 0.06
1 7.29 729 0.105 -9.333 1.623 12.512 13.733 -12.451 62.659 3154.095 -2456.899 -0.847 -0.417 -0.965 0 0.68 -0.73 0.05
1 7.30 730 -0.077 -9.601 1.365 10.162 16.968 -13.001 62.659 3154.095 -2456.899 -0.642 -0.149 -0.683 0 0.68 -0.73 0.05
1 7.31 731 -0.057 -9.826 1.111 8.209 17.487 -11.597 167.591 3274.017 -2426.919 -0.638 0.076 -0.409 0 0.68 -0.73 0.05
1 7.32 732 -0.388 -9.606 0.991 9.430 14.313 -8.972 77.649 3214.056 -2441.909 -0.270 -0.145 -0.260 0 0.68 -0.73 0.05
1 7.33 733 -0.713 -9.462 0.919 9.430 12.024 -8.270 92.640 3244.037 -2532.000 0.069 -0.288 -0.173 0 0.68 -0.73 0.05
1 7.34 734 -0.838 -9.424 0.824 5.768 8.453 -7.446 92.640 3244.037 -2532.000 0.205 -0.326 -0.064 0 0.68 -0.73 0.05
1 7.35 735 -1.063 -9.328 0.699 1.007 4.913 -5.127 92.640 3154.095 -2456.899 0.438 -0.422 0.068 0 0.68 -0.73 0.04
1 7.36 736 -0.929 -9.357 0.603 -0.702 0.854 -1.312 17.688 3154.095 -2501.870 0.307 -0.393 0.164 0 0.68 -0.73 0.04
1 7.37 737 -0.493 -9.611 0.479 -2.380 -3.448 2.014 17.688 3154.095 -2501.870 -0.131 -0.139 0.286 0 0.68 -0.73 0.04
1 7.38 738 -0.192 -9.841 0.508 -2.716 -5.005 4.852 2.698 3139.105 -2441.909 -0.435 0.090 0.252 0 0.68 -0.73 0.04
1 7.39 739 -0.029 -9.697 0.532 0.244 -4.486 7.172 107.630 3289.007 -2441.909 -0.603 -0.054 0.223 0 0.68 -0.73 0.05
1 7.40 740 0.302 -9.754 0.570 1.953 0.336 9.308 2.698 3289.007 -2366.958 -0.946 0.005 0.183 0 0.68 -0.73 0.05
1 7.41 741 0.201 -9.630 0.532 3.601 2.106 11.353 2.698 3289.007 -2366.958 -0.853 -0.119 0.223 0 0.68 -0.73 0.05
1 7.42 742 0.211 -9.611 0.541 2.930 3.876 9.216 92.640 3274.017 -2532.000 -0.873 -0.138 0.216 0 0.68 -0.73 0.05
1 7.43 743 -0.034 -9.682 0.618 -0.092 4.211 7.263 107.630 3214.056 -2366.958 -0.637 -0.065 0.141 0 0.68 -0.73 0.05
1 7.44 744 -0.292 -9.764 0.350 -3.693 6.531 7.690 107.630 3214.056 -2366.958 -0.384 0.017 0.407 0 0.68 -0.73 0.05
1 7.45 745 -0.340 -9.879 0.311 -1.465 3.204 10.559 2.698 3259.027 -2366.958 -0.343 0.131 0.437 0 0.68 -0.73 0.05
1 7.46 746 -0.230 -9.783 0.134 3.387 -1.617 9.735 167.591 3318.988 -2351.968 -0.466 0.036 0.607 0 0.68 -0.73 0.05
1 7.47 747 0.263 -9.395 0.206 6.531 -6.104 7.874 92.640 3154.095 -2381.948 -0.980 -0.350 0.539 0.01 0.68 -0.73 0.05
1 7.48 748 0.417 -9.122 0.062 3.357 -0.061 7.385 92.640 3154.095 -2381.948 -1.136 -0.622 0.689 0 0.68 -0.73 0.05
1 7.49 749 0.436 -9.252 -0.096 -4.181 5.859 7.935 182.731 3214.056 -2591.961 -1.160 -0.493 0.844 0.01 0.68 -0.73 0.05
1 7.50 750 0.335 -9.558 -0.469 -11.047 6.744 8.118 92.640 3274.017 -2456.899 -1.063 -0.187 1.202 0.01 0.68 -0.73 0.05
1 7.51 751 0.555 -9.592 -0.369 -15.106 5.798 3.845 92.640 3274.017 -2456.899 -1.287 -0.156 1.075 0.01 0.68 -0.73 0.05
1 7.52 752 0.603 -10.013 0.024 -18.372 12.848 -3.418 92.640 3154.095 -2561.981 -1.330 0.263 0.650 0.01 0.68 -0.73 0.05
1 7.53 753 0.254 -10.406 0.421 -15.991 17.151 -5.219 77.649 3333.978 -2471.890 -0.968 0.653 0.218 0.01 0.68 -0.73 0.05
1 7.54 754 -0.733 -10.137 0.402 -2.472 11.444 -6.226 77.649 3259.027 -2546.991 0.049 0.379 0.188 0.01 0.69 -0.73 0.04
1 7.55 755 -0.934 -10.113 0.244 2.899 7.294 -3.815 77.649 3259.027 -2546.991 0.260 0.354 0.342 0.01 0.69 -0.73 0.04
1 7.56 756 -1.216 -9.529 -0.187 -0.305 7.690 2.655 17.688 3274.017 -2381.948 0.542 -0.230 0.773 0.01 0.69 -0.73 0.04
1 7.57 757 -1.121 -9.213 -0.474 -7.782 7.538 9.491 212.711 3244.037 -2456.899 0.436 -0.546 1.051 0.01 0.69 -0.73 0.04
1 7.58 758 -0.986 -9.242 -0.512 -12.848 4.913 12.848 212.711 3244.037 -2456.899 0.281 -0.517 1.067 0.01 0.69 -0.73 0.04
1 7.59 759 -0.828 -9.936 0.091 -21.179 1.587 8.392 182.731 3333.978 -2366.958 0.101 0.177 0.435 0.01 0.69 -0.72 0.04
1 7.60 760 -1.331 -10.832 0.737 -27.100 4.608 0.671 167.591 3244.037 -2501.870 0.588 1.072 -0.247 0.01 0.69 -0.72 0.04
1 7.61 761 -1.954 -12.364 1.097 -32.318 9.735 -15.625 167.591 3244.037 -2501.870 1.204 2.603 -0.646 0.01 0.69 -0.72 0.04
1 7.62 762 -2.552 -12.316 0.608 -6.226 -0.153 -15.900 137.610 3199.066 -2381.948 1.849 2.548 -0.246 0.01 0.69 -0.72 0.04
1 7.63 763 -2.514 -11.081 0.397 26.917 -10.284 -7.507 152.601 3259.027 -2471.890 1.831 1.312 -0.030 0.01 0.69 -0.72 0.04
1 7.64 764 -1.987 -10.128 0.239 31.586 -14.893 -4.700 257.682 3394.089 -2336.978 1.315 0.360 0.174 0.01 0.69 -0.72 0.04
1 7.65 765 -1.350 -10.415 0.551 8.850 -17.029 -0.854 257.682 3394.089 -2336.978 0.679 0.649 -0.096 0.01 0.69 -0.72 0.04
1 7.66 766 -0.311 -11.785 0.862 -30.670 -14.343 2.167 167.591 3274.017 -2426.919 -0.364 2.019 -0.405 0.01 0.69 -0.72 0.04
1 7.67 767 0.292 -11.938 0.891 -24.353 -10.345 9.399 92.640 3318.988 -2276.867 -0.968 2.170 -0.472 0.01 0.69 -0.72 0.04
1 7.68 768 0.450 -11.497 0.781 -1.160 -3.601 14.374 92.640 3318.988 -2276.867 -1.137 1.729 -0.402 0.01 0.69 -0.72 0.04
1 7.69 769 0.306 -10.640 1.077 14.374 6.012 17.151 242.692 3123.965 -2426.919 -1.038 0.875 -0.695 0.01 0.69 -0.72 0.05
1 7.70 770 0.187 -10.391 1.494 11.353 9.125 16.510 227.702 3394.089 -2441.909 -0.941 0.629 -1.089 0.01 0.69 -0.72 0.05
1 7.71 771 -0.072 -10.051 1.513 7.416 10.925 16.846 302.653 3289.007 -2366.958 -0.700 0.291 -1.087 0.01 0.69 -0.72 0.05
1 7.72 772 -0.144 -9.826 1.556 6.195 14.710 18.494 302.653 3289.007 -2366.958 -0.648 0.068 -1.113 0.01 0.69 -0.72 0.05
1 7.73 773 -0.225 -9.678 1.528 6.531 15.808 20.538 167.591 3318.988 -2306.997 -0.592 -0.077 -1.068 0.01 0.69 -0.72 0.05
1 7.74 774 0.005 -9.290 1.724 9.552 16.174 22.766 152.601 3184.076 -2366.958 -0.850 -0.462 -1.247 0.01 0.69 -0.72 0.05
1 7.75 775 0.201 -9.060 1.748 10.315 15.595 20.569 152.601 3184.076 -2366.958 -1.076 -0.688 -1.251 0.02 0.69 -0.72 0.05
1 7.76 776 0.139 -8.543 1.834 11.505 19.623 13.397 212.711 3379.099 -2426.919 -1.060 -1.199 -1.291 0.02 0.69 -0.72 0.05
1 7.77 777 -0.527 -8.313 1.724 11.414 22.400 7.111 167.591 3318.988 -2276.867 -0.410 -1.426 -1.162 0.02 0.69 -0.73 0.05
1 7.78 778 -1.077 -8.275 1.743 11.139 21.729 1.587 302.653 3184.076 -2366.958 0.130 -1.462 -1.168 0.02 0.69 -0.73 0.05
1 7.79 779 -1.762 -8.193 1.575 9.552 16.083 -3.693 302.653 3184.076 -2366.958 0.813 -1.543 -0.987 0.02 0.69 -0.73 0.04
1 7.80 780 -2.155 -8.279 1.489 5.219 7.385 -7.202 257.682 3214.056 -2621.942 1.211 -1.457 -0.890 0.03 0.68 -0.73 0.04
1 7.81 781 -2.160 -8.821 1.250 -8.423 -5.310 -8.545 392.594 3348.968 -2456.899 1.227 -0.916 -0.646 0.03 0.68 -0.73 0.04
1 7.82 782 -1.772 -9.252 1.183 -15.228 -10.376 -6.805 392.594 3348.968 -2456.899 0.842 -0.486 -0.581 0.02 0.68 -0.73 0.04
1 7.83 783 -1.370 -9.979 1.063 -15.259 -14.038 -2.167 257.682 3214.056 -2336.978 0.443 0.241 -0.475 0.02 0.69 -0.73 0.04
1 7.84 784 -1.111 -10.353 0.905 -6.653 -16.480 4.364 317.643 3123.965 -2426.919 0.181 0.613 -0.345 0.02 0.69 -0.73 0.04
1 7.85 785 -0.977 -10.181 0.809 -0.153 -16.022 6.866 302.653 3259.027 -2366.958 0.039 0.441 -0.251 0.02 0.69 -0.73 0.05
1 7.86 786 -1.097 -10.113 0.809 3.876 -14.710 7.904 302.653 3259.027 -2366.958 0.149 0.376 -0.246 0.02 0.69 -0.73 0.05
1 7.87 787 -1.465 -9.903 0.838 2.777 -12.726 7.599 152.601 3333.978 -2366.958 0.507 0.167 -0.265 0.02 0.69 -0.73 0.05
1 7.88 788 -1.839 -9.807 0.694 -3.174 -12.634 7.629 272.672 3274.017 -2426.919 0.867 0.073 -0.115 0.02 0.69 -0.73 0.05
1 7.89 789 -2.011 -9.769 0.761 -5.066 -11.841 8.881 272.672 3274.017 -2426.919 1.024 0.036 -0.182 0.02 0.69 -0.73 0.05
1 7.90 790 -1.935 -9.783 0.661 -5.035 -11.780 10.284 257.682 3289.007 -2441.909 0.929 0.052 -0.085 0.02 0.69 -0.73 0.05
1 7.91 791 -1.623 -9.735 0.776 -2.563 -12.695 12.817 242.692 3274.017 -2456.899 0.574 0.008 -0.208 0.02 0.69 -0.73 0.06
1 7.92 792 -1.437 -9.682 0.862 -2.258 -11.505 13.672 272.672 3154.095 -2381.948 0.364 -0.042 -0.294 0.02 0.69 -0.73 0.06
1 7.93 793 -1.326 -9.577 0.814 -0.671 -9.888 13.275 272.672 3154.095 -2381.948 0.231 -0.145 -0.245 0.02 0.69 -0.73 0.06
1 7.94 794 -1.374 -9.625 0.737 0.061 -7.324 12.909 257.682 3394.089 -2366.958 0.258 -0.094 -0.166 0.02 0.69 -0.73 0.06
1 7.95 795 -1.437 -9.558 0.608 0.214 -5.951 11.780 242.692 3409.079 -2381.948 0.301 -0.159 -0.034 0.02 0.69 -0.73 0.06
1 7.96 796 -1.757 -9.496 0.608 1.190 -6.561 10.620 242.692 3409.079 -2381.948 0.603 -0.219 -0.031 0.02 0.69 -0.72 0.06
1 7.97 797 -1.786 -9.601 0.412 0.763 -8.667 9.796 212.711 3318.988 -2456.899 0.612 -0.111 0.168 0.02 0.69 -0.72 0.06
1 7.98 798 -1.647 -9.414 0.570 -1.099 -13.001 7.599 437.715 3289.007 -2517.010 0.439 -0.293 0.014 0.02 0.69 -0.72 0.07
1 7.99 799 -1.619 -9.362 0.488 -1.068 -15.289 6.104 182.731 3108.975 -2336.978 0.396 -0.344 0.096 0.02 0.69 -0.72 0.07
1 8.00 800 -1.566 -9.582 0.594 -2.045 -15.991 5.096 182.731 3108.975 -2336.978 0.332 -0.122 -0.009 0.02 0.69 -0.72 0.07
1 8.01 801 -1.551 -9.841 0.608 -2.686 -15.930 4.700 302.653 3333.978 -2411.929 0.309 0.137 -0.024 0.02 0.69 -0.72 0.07
1 8.02 802 -1.724 -9.764 0.637 -0.366 -16.174 3.510 407.734 3333.978 -2546.991 0.474 0.061 -0.053 0.02 0.69 -0.72 0.07
1 8.03 803 -1.609 -9.706 0.421 4.181 -16.846 3.876 407.734 3333.978 -2546.991 0.352 0.005 0.167 0.02 0.69 -0.72 0.07
1 8.04 804 -1.350 -9.692 0.560 4.272 -15.961 4.883 407.734 3289.007 -2411.929 0.087 -0.008 0.037 0.02 0.68 -0.72 0.07
1 8.05 805 -1.235 -9.587 0.632 5.676 -14.099 5.524 407.734 3289.007 -2411.929 -0.035 -0.112 -0.026 0.02 0.68 -0.72 0.07
1 8.06 806 -1.212 -9.429 0.555 5.127 -9.827 6.805 272.672 3274.017 -2426.919 -0.074 -0.266 0.073 0.02 0.68 -0.73 0.08
1 8.07 807 -1.121 -9.553 0.618 5.188 -7.355 6.744 272.672 3274.017 -2426.919 -0.175 -0.140 0.019 0.02 0.68 -0.73 0.08
1 8.08 808 -1.053 -9.529 0.637 7.294 -6.378 6.836 227.702 3259.027 -2546.991 -0.250 -0.162 0.009 0.02 0.68 -0.73 0.08
1 8.09 809 -1.068 -9.400 0.694 8.637 -3.784 6.012 242.692 3199.066 -2561.981 -0.244 -0.289 -0.035 0.02 0.68 -0.73 0.08
1 8.10 810 -1.073 -9.204 0.589 3.479 2.625 4.486 242.692 3199.066 -2561.981 -0.245 -0.484 0.083 0.02 0.68 -0.73 0.08
1 8.11 811 -1.125 -9.170 0.646 -4.089 8.698 4.242 242.692 3318.988 -2501.870 -0.198 -0.516 0.033 0.02 0.68 -0.73 0.08
1 8.12 812 -1.255 -9.256 0.632 -8.637 14.099 4.059 242.692 3318.988 -2501.870 -0.074 -0.430 0.043 0.02 0.68 -0.73 0.08
1 8.13 813 -1.834 -9.376 0.421 -8.789 15.442 2.533 317.643 3244.037 -2456.899 0.491 -0.310 0.222 0.02 0.68 -0.73 0.08
1 8.14 814 -2.093 -9.596 0.388 -6.866 10.193 1.038 317.643 3244.037 -2456.899 0.742 -0.090 0.238 0.02 0.68 -0.73 0.08
1 8.15 815 -2.193 -9.793 0.330 -6.683 3.357 0.916 332.633 3259.027 -2411.929 0.836 0.106 0.282 0.02 0.68 -0.72 0.08
1 8.16 816 -2.212 -9.625 0.527 -6.561 -1.160 0.610 392.594 3348.968 -2276.867 0.848 -0.061 0.073 0.02 0.68 -0.72 0.08
1 8.17 817 -2.054 -9.572 0.369 -1.343 -3.937 -0.824 392.594 3348.968 -2276.867 0.684 -0.113 0.222 0.02 0.69 -0.72 0.08
1 8.18 818 -1.930 -9.596 -0.043 -5.188 -9.430 0.946 392.594 3348.968 -2381.948 0.555 -0.089 0.632 0.02 0.69 -0.72 0.08
1 8.19 819 -1.710 -9.630 -0.292 -7.538 -15.259 0.427 392.594 3348.968 -2381.948 0.330 -0.055 0.872 0.02 0.69 -0.72 0.08
1 8.20 820 -1.298 -9.936 -0.182 -8.179 -21.759 0.092 212.711 3409.079 -2606.952 -0.085 0.250 0.735 0.02 0.69 -0.72 0.08
1 8.21 821 -1.034 -10.075 -0.081 -7.507 -23.438 1.312 212.711 3409.079 -2606.952 -0.347 0.388 0.622 0.02 0.69 -0.72 0.08
1 8.22 822 -0.828 -10.252 0.254 -5.463 -22.156 1.709 167.591 3244.037 -2501.870 -0.551 0.564 0.276 0.02 0.69 -0.72 0.08
1 8.23 823 -0.857 -10.774 0.527 -6.012 -19.348 3.265 302.653 3289.007 -2546.991 -0.519 1.086 -0.004 0.02 0.69 -0.72 0.08
1 8.24 824 -0.838 -10.937 0.637 -8.179 -15.259 5.920 302.653 3289.007 -2546.991 -0.539 1.248 -0.121 0.02 0.69 -0.72 0.08
1 8.25 825 -1.116 -10.525 0.718 9.186 -8.911 1.099 257.682 3259.027 -2546.991 -0.269 0.837 -0.209 0.02 0.69 -0.72 0.08
1 8.26 826 -1.374 -11.493 0.551 1.160 -8.270 5.798 257.682 3259.027 -2546.991 -0.009 1.805 -0.030 0.02 0.69 -0.72 0.09
1 8.27 827 -1.432 -11.004 0.402 -9.064 -10.223 8.087 272.822 3573.972 -2457.199 0.045 1.317 0.128 0.02 0.69 -0.72 0.09
1 8.28 828 -1.805 -10.090 0.283 11.322 -9.796 -1.190 317.793 3274.017 -2457.199 0.403 0.404 0.239 0.02 0.69 -0.72 0.09
1 8.29 829 -2.322 -9.960 0.268 4.211 -13.519 0.885 272.822 3409.079 -2502.170 0.921 0.276 0.271 0.02 0.69 -0.72 0.09
1 8.30 830 -2.418 -10.128 0.192 -16.876 -18.707 2.289 182.881 3439.060 -2592.111 1.010 0.445 0.347 0.01 0.69 -0.72 0.09
1 8.31 831 -2.054 -10.468 0.211 -23.010 -21.515 1.465 182.881 3439.060 -2592.111 0.637 0.784 0.299 0.01 0.69 -0.72 0.09
1 8.32 832 -1.662 -10.755 0.460 -7.782 -15.747 4.700 272.822 3318.988 -2562.131 0.238 1.071 0.021 0.01 0.69 -0.72 0.09
1 8.33 833 -1.513 -10.568 0.867 -3.937 -11.810 6.561 272.822 3318.988 -2562.131 0.084 0.884 -0.399 0.01 0.69 -0.72 0.09
1 8.34 834 -1.159 -10.640 1.183 -6.165 -12.299 7.050 182.881 3333.978 -2592.111 -0.278 0.957 -0.718 0.01 0.69 -0.72 0.09
1 8.35 835 -0.263 -10.904 1.298 -6.866 -16.846 7.843 257.832 3289.007 -2412.079 -1.190 1.223 -0.840 0.01 0.69 -0.72 0.1
1 8.36 836 -0.139 -10.789 1.374 0.122 -15.198 3.510 242.842 3318.988 -2532.150 -1.324 1.109 -0.921 0.01 0.69 -0.72 0.1
1 8.37 837 0.268 -10.947 1.609 5.371 -9.552 0.854 257.832 3394.089 -2472.189 -1.734 1.268 -1.150 0.01 0.69 -0.72 0.1
1 8.38 838 0.464 -10.793 1.446 4.883 -6.866 -0.427 257.832 3394.089 -2472.189 -1.931 1.115 -0.977 0.01 0.69 -0.72 0.1
1 8.39 839 0.383 -10.271 1.446 6.592 -5.585 -6.104 167.891 3379.099 -2457.199 -1.847 0.593 -0.968 0.01 0.69 -0.72 0.1
1 8.40 840 -0.038 -9.812 1.518 8.240 -3.174 -13.977 167.891 3379.099 -2457.199 -1.399 0.131 -1.021 0.01 0.69 -0.72 0.1
1 8.41 841 -0.292 -9.548 1.619 8.667 -0.275 -16.846 167.891 3318.988 -2457.199 -1.113 -0.136 -1.101 0.01 0.69 -0.72 0.1
1 8.42 842 -0.536 -9.003 1.815 7.446 1.953 -18.127 272.822 3318.988 -2382.098 -0.803 -0.689 -1.257 0 0.69 -0.72 0.09
1 8.43 843 -0.752 -8.792 1.743 7.050 2.411 -20.142 167.891 3318.988 -2457.199 -0.554 -0.904 -1.165 0 0.69 -0.72 0.09
1 8.44 844 -0.828 -8.897 1.757 6.561 0.732 -23.132 212.861 3318.988 -2457.199 -0.443 -0.802 -1.159 0 0.69 -0.72 0.09
1 8.45 845 -0.929 -9.084 1.829 4.242 -2.472 -24.658 212.861 3318.988 -2457.199 -0.305 -0.618 -1.213 0 0.68 -0.72 0.09
1 8.46 846 -0.929 -9.371 1.834 1.404 -4.883 -23.987 107.930 3469.040 -2547.141 -0.267 -0.335 -1.202 -0 0.68 -0.72 0.09
1 8.47 847 -0.776 -9.309 1.748 5.707 -6.592 -18.738 107.930 3469.040 -2547.141 -0.383 -0.401 -1.104 -0 0.68 -0.72 0.09
1 8.48 848 -0.690 -9.295 1.657 9.399 -5.890 -14.557 212.861 3318.988 -2607.102 -0.439 -0.418 -0.996 -0 0.68 -0.73 0.09
1 8.49 849 -0.627 -9.395 1.513 7.019 -3.662 -10.101 107.930 3514.011 -2592.111 -0.475 -0.319 -0.830 -0 0.68 -0.73 0.09
1 8.50 850 -0.493 -9.539 1.441 -3.693 1.282 -5.737 212.861 3348.968 -2607.102 -0.575 -0.177 -0.729 -0.01 0.68 -0.73 0.09
1 8.51 851 -0.488 -9.936 1.422 -10.284 4.578 -5.981 167.891 3409.079 -2457.199 -0.568 0.219 -0.712 -0.01 0.68 -0.73 0.09
1 8.52 852 -0.565 -10.233 1.326 -9.064 7.782 -6.256 167.891 3409.079 -2457.199 -0.479 0.514 -0.627 -0.01 0.68 -0.73 0.08
1 8.53 853 -0.570 -10.252 1.130 -2.991 10.651 -7.477 92.790 3274.017 -2457.199 -0.461 0.531 -0.439 -0.01 0.68 -0.73 0.08
1 8.54 854 -0.532 -9.917 1.097 9.308 12.268 -7.111 92.790 3274.017 -2457.199 -0.485 0.195 -0.405 -0.01 0.68 -0.73 0.08
1 8.55 855 -0.326 -9.697 1.231 10.681 9.644 -7.843 92.790 3379.099 -2457.199 -0.679 -0.026 -0.528 -0.01 0.68 -0.73 0.08
1 8.56 856 -0.220 -9.606 1.561 6.805 9.552 -9.552 152.900 3333.978 -2622.092 -0.770 -0.117 -0.841 -0.01 0.68 -0.73 0.08
1 8.57 857 0.072 -9.898 1.619 1.587 11.993 -11.078 152.900 3364.108 -2622.092 -1.023 0.173 -0.874 -0.01 0.68 -0.73 0.08
1 8.58 858 0.038 -9.788 1.484 3.906 12.939 -12.360 -11.992 3409.079 -2502.170 -0.967 0.061 -0.732 -0.01 0.68 -0.73 0.08
1 8.59 859 -0.067 -9.750 1.427 8.423 12.756 -10.956 -11.992 3409.079 -2502.170 -0.838 0.021 -0.664 -0.01 0.68 -0.73 0.07
1 8.60 860 -0.101 -9.697 1.370 11.902 11.231 -11.566 107.930 3364.108 -2697.193 -0.783 -0.032 -0.589 -0.01 0.68 -0.73 0.07
1 8.61 861 -0.038 -9.582 1.422 11.322 10.101 -11.780 107.930 3364.108 -2697.193 -0.824 -0.147 -0.620 -0.01 0.68 -0.73 0.07
1 8.62 862 -0.067 -9.592 1.279 11.078 8.759 -10.468 -56.963 3379.099 -2607.102 -0.773 -0.138 -0.457 -0.01 0.68 -0.73 0.07
1 8.63 863 0.120 -9.592 1.312 11.505 8.942 -9.644 17.838 3379.099 -2502.170 -0.939 -0.138 -0.471 -0.01 0.68 -0.73 0.07
1 8.64 864 0.311 -9.558 1.274 13.428 10.223 -10.162 92.790 3409.079 -2502.170 -1.092 -0.171 -0.393 -0.01 0.67 -0.74 0.07
1 8.65 865 0.335 -9.668 1.144 13.855 11.993 -9.583 107.930 3289.007 -2697.193 -1.094 -0.061 -0.241 -0.01 0.67 -0.74 0.07
1 8.66 866 0.177 -9.563 1.135 14.099 13.672 -9.369 107.930 3289.007 -2697.193 -0.915 -0.166 -0.210 -0.01 0.67 -0.74 0.06
1 8.67 867 0.062 -9.558 1.293 12.268 14.069 -10.162 152.900 3469.040 -2592.111 -0.782 -0.170 -0.347 -0.01 0.67 -0.74 0.06
1 8.68 868 -0.148 -9.419 1.082 10.742 13.275 -9.369 152.900 3469.040 -2592.111 -0.553 -0.308 -0.118 -0.01 0.67 -0.74 0.06
1 8.69 869 -0.287 -9.338 0.991 8.118 10.590 -9.308 242.842 3318.988 -2562.131 -0.397 -0.389 -0.011 -0.01 0.67 -0.74 0.06
1 8.70 870 -0.335 -9.237 0.848 6.348 8.301 -9.460 107.930 3469.040 -2622.092 -0.332 -0.489 0.145 -0.01 0.67 -0.74 0.06
1 8.71 871 -0.426 -9.103 0.685 2.228 4.272 -9.522 107.930 3469.040 -2622.092 -0.226 -0.624 0.318 -0.01 0.67 -0.74 0.06
1 8.72 872 -0.407 -9.429 0.733 -2.472 -2.472 -7.568 -26.982 3333.978 -2802.125 -0.216 -0.300 0.270 -0.01 0.67 -0.74 0.05
1 8.73 873 -0.215 -9.371 0.804 -2.838 -4.517 -6.317 -26.982 3333.978 -2802.125 -0.395 -0.359 0.193 -0.01 0.67 -0.74 0.05
1 8.74 874 -0.101 -9.414 0.843 -1.556 -3.235 -4.517 47.819 3289.007 -2652.072 -0.498 -0.317 0.150 -0.01 0.67 -0.74 0.05
1 8.75 875 -0.077 -9.558 0.833 -0.244 -0.671 -0.854 47.819 3289.007 -2652.072 -0.513 -0.174 0.156 -0.01 0.67 -0.74 0.05
1 8.76 876 0.034 -9.663 0.828 -0.336 6.012 4.395 107.930 3289.007 -2727.173 -0.619 -0.069 0.160 -0.01 0.67 -0.74 0.05
1 8.77 877 -0.057 -9.625 0.733 0.153 9.369 8.240 62.809 3318.988 -2757.154 -0.530 -0.107 0.254 -0.01 0.67 -0.74 0.05
1 8.78 878 -0.072 -9.448 0.656 0.824 11.139 11.047 62.809 3318.988 -2757.154 -0.523 -0.284 0.329 -0.01 0.67 -0.74 0.05
1 8.79 879 -0.077 -9.419 0.407 0.122 12.756 16.296 2.848 3514.011 -2697.193 -0.550 -0.312 0.573 -0 0.67 -0.74 0.05
1 8.80 880 0.043 -9.328 0.488 -1.190 15.015 18.921 2.848 3514.011 -2697.193 -0.694 -0.402 0.486 -0 0.67 -0.74 0.05
1 8.81 881 0.211 -9.376 0.393 -4.578 15.564 19.592 137.910 3409.079 -2637.082 -0.887 -0.353 0.574 -0 0.67 -0.74 0.05
1 8.82 882 0.196 -9.381 0.335 -6.134 14.954 21.118 137.910 3409.079 -2637.082 -0.899 -0.347 0.619 -0 0.67 -0.74 0.05
1 8.83 883 0.283 -9.414 0.340 -4.974 12.848 19.226 77.799 3439.060 -2727.173 -1.010 -0.313 0.599 0 0.67 -0.74 0.05
1 8.84 884 0.273 -9.290 0.158 -3.296 7.629 16.052 182.881 3394.089 -2652.072 -1.023 -0.437 0.770 0 0.67 -0.74 0.05
1 8.85 885 0.225 -9.433 0.096 -4.761 4.456 14.954 182.881 3394.089 -2652.072 -0.995 -0.293 0.822 0 0.67 -0.74 0.05
1 8.86 886 0.340 -9.783 0.225 -10.101 5.676 11.139 182.881 3289.007 -2697.193 -1.138 0.056 0.664 0.01 0.67 -0.74 0.05
1 8.87 887 0.168 -9.802 0.196 -10.040 9.338 9.888 182.881 3289.007 -2697.193 -0.974 0.074 0.672 0.01 0.68 -0.74 0.05
1 8.88 888 0.048 -9.769 0.134 -7.233 11.780 10.437 182.881 3333.978 -2772.144 -0.863 0.040 0.714 0.01 0.68 -0.74 0.05
1 8.89 889 -0.330 -9.783 0.273 -7.507 12.360 5.219 182.881 3333.978 -2772.144 -0.494 0.053 0.558 0.01 0.68 -0.73 0.05
1 8.90 890 -0.728 -10.113 0.072 -9.338 7.233 0.671 167.891 3379.099 -2637.082 -0.099 0.382 0.742 0.01 0.68 -0.73 0.05
1 8.91 891 -1.077 -10.027 -0.053 -8.942 2.350 0.061 167.891 3348.968 -2712.183 0.252 0.294 0.846 0.01 0.68 -0.73 0.05
1 8.92 892 -0.838 -10.085 -0.077 -10.345 3.876 2.014 167.891 3348.968 -2712.183 0.013 0.350 0.850 0.01 0.68 -0.73 0.05
1 8.93 893 -0.848 -10.401 -0.273 -13.855 5.646 5.524 227.852 3364.108 -2727.173 0.018 0.665 1.025 0.01 0.68 -0.73 0.05
1 8.94 894 -0.517 -10.501 -0.464 -17.029 3.906 8.118 227.852 3364.108 -2622.092 -0.331 0.763 1.157 0.01 0.68 -0.73 0.05
1 8.95 895 -0.421 -10.602 -0.268 -15.930 0.702 9.705 257.832 3289.007 -2727.173 -0.437 0.862 0.927 0.01 0.68 -0.73 0.05
1 8.96 896 -0.326 -10.588 -0.125 -13.489 -0.916 9.430 257.832 3289.007 -2727.173 -0.544 0.846 0.753 0.01 0.68 -0.73 0.05
1 8.97 897 -0.460 -10.995 0.297 -12.787 1.648 7.111 302.803 3439.060 -2652.072 -0.419 1.253 0.306 0.01 0.68 -0.73 0.05
1 8.98 898 -1.235 -11.919 1.044 -20.416 4.425 -7.935 332.933 3259.027 -2727.173 0.347 2.176 -0.461 0.01 0.69 -0.73 0.05
1 8.99 899 -1.590 -12.709 0.781 -24.506 1.129 -19.806 332.933 3259.027 -2727.173 0.707 2.964 -0.226 0.01 0.69 -0.72 0.05
1 9.00 900 -1.824 -11.354 0.283 9.430 -13.611 -8.575 212.861 3379.099 -2607.102 0.990 1.602 0.220 0.01 0.69 -0.72 0.05
1 9.01 901 -1.935 -10.999 0.268 15.106 -15.747 -8.728 212.861 3379.099 -2607.102 1.114 1.248 0.255 0.01 0.69 -0.72 0.05
1 9.02 902 -1.144 -11.172 0.201 -6.409 -16.998 -6.073 347.923 3318.988 -2502.170 0.340 1.420 0.337 0.01 0.69 -0.72 0.05
1 9.03 903 -0.666 -11.071 0.584 -17.883 -14.557 1.312 347.923 3318.988 -2502.170 -0.131 1.318 -0.060 0.01 0.69 -0.72 0.05
1 9.04 904 -0.397 -11.564 0.431 -20.203 -11.200 3.418 257.832 3364.108 -2622.092 -0.401 1.810 0.067 0.01 0.69 -0.72 0.05
1 9.05 905 -0.034 -11.320 0.072 -16.113 -11.475 4.364 167.891 3409.079 -2562.131 -0.769 1.564 0.398 0.01 0.69 -0.72 0.05
1 9.06 906 0.259 -10.396 0.077 -2.594 -11.719 7.935 167.891 3409.079 -2562.131 -1.068 0.640 0.375 0.01 0.69 -0.72 0.05
1 9.07 907 0.010 -10.051 0.168 -1.007 -5.981 9.705 137.910 3529.001 -2532.150 -0.825 0.295 0.278 0.01 0.69 -0.72 0.05
1 9.08 908 0.019 -9.750 0.163 -9.308 -0.214 13.428 107.930 3364.108 -2622.092 -0.849 -0.006 0.270 0.01 0.69 -0.72 0.06
1 9.09 909 -0.239 -9.941 0.153 -10.895 1.099 12.939 167.891 3409.079 -2607.102 -0.604 0.186 0.262 0.01 0.69 -0.72 0.06
1 9.10 910 -0.345 -9.884 0.421 -6.287 0.916 11.139 167.891 3409.079 -2607.102 -0.514 0.129 -0.023 0.01 0.69 -0.72 0.06
1 9.11 911 -0.474 -9.826 0.541 -0.153 1.740 9.766 332.933 3439.060 -2622.092 -0.396 0.073 -0.150 0.01 0.69 -0.72 0.06
1 9.12 912 -0.728 -9.730 0.733 3.021 2.350 7.050 242.842 3604.102 -2562.131 -0.152 -0.022 -0.339 0.01 0.69 -0.72 0.06
1 9.13 913 -0.958 -9.730 0.929 5.066 3.052 5.646 242.842 3604.102 -2562.131 0.069 -0.021 -0.529 0.01 0.69 -0.72 0.06
1 9.14 914 -1.082 -9.711 1.274 6.073 2.625 4.822 272.822 3484.030 -2562.131 0.185 -0.039 -0.864 0.01 0.69 -0.72 0.06
1 9.15 915 -1.197 -9.740 1.331 5.310 1.465 5.096 257.832 3469.040 -2727.173 0.292 -0.009 -0.909 0.01 0.69 -0.72 0.06
1 9.16 916 -1.140 -9.793 1.681 1.343 3.632 7.446 257.832 3543.991 -2592.111 0.215 0.047 -1.230 0.01 0.69 -0.72 0.06
1 9.17 917 -1.144 -9.740 1.815 -1.373 5.676 11.871 257.832 3543.991 -2592.111 0.206 -0.004 -1.355 0.01 0.69 -0.72 0.06
1 9.18 918 -1.058 -9.592 1.997 -0.946 5.188 16.541 227.852 3394.089 -2592.111 0.098 -0.150 -1.529 0.01 0.69 -0.72 0.06
1 9.19 919 -0.800 -9.223 2.035 2.380 5.157 18.982 242.842 3484.030 -2502.170 -0.187 -0.516 -1.558 0.01 0.69 -0.72 0.06
1 9.20 920 -0.225 -8.912 2.279 8.118 5.676 19.684 242.842 3484.030 -2502.170 -0.790 -0.823 -1.786 0.01 0.69 -0.72 0.06
1 9.21 921 -0.091 -8.615 2.327 8.118 7.446 18.585 332.933 3588.962 -2592.111 -0.951 -1.116 -1.811 0.02 0.69 -0.72 0.06
1 9.22 922 0.148 -8.466 2.571 7.294 9.155 17.059 242.842 3409.079 -2607.102 -1.214 -1.261 -2.029 0.02 0.69 -0.72 0.06
1 9.23 923 0.292 -8.227 2.418 4.425 13.123 10.468 422.875 3379.099 -2637.082 -1.396 -1.493 -1.836 0.02 0.69 -0.73 0.06
1 9.24 924 0.268 -8.346 2.088 1.709 16.419 4.059 422.875 3379.099 -2637.082 -1.386 -1.372 -1.501 0.02 0.69 -0.73 0.06
1 9.25 925 -0.259 -8.533 1.724 -4.578 17.944 -2.319 467.845 3439.060 -2652.072 -0.864 -1.185 -1.139 0.02 0.69 -0.73 0.06
1 9.26 926 -0.776 -9.175 1.250 -12.268 15.381 -7.629 482.835 3409.079 -2682.203 -0.342 -0.544 -0.678 0.02 0.69 -0.73 0.06
1 9.27 927 -1.226 -10.032 1.025 -16.968 10.101 -8.759 482.835 3409.079 -2682.203 0.122 0.310 -0.470 0.02 0.69 -0.72 0.06
1 9.28 928 -1.475 -10.683 0.895 -9.460 -0.519 -2.533 452.855 3454.050 -2682.203 0.383 0.959 -0.363 0.02 0.69 -0.72 0.06
1 9.29 929 -1.398 -10.444 0.876 2.625 -3.693 3.143 407.884 3364.108 -2592.111 0.309 0.718 -0.357 0.02 0.69 -0.72 0.06
1 9.30 930 -1.154 -9.855 0.972 12.512 -3.174 9.155 437.865 3514.011 -2727.173 0.050 0.132 -0.434 0.02 0.69 -0.72 0.06
1 9.31 931 -1.288 -9.841 0.972 8.667 -0.366 10.193 437.865 3514.011 -2727.173 0.170 0.121 -0.413 0.03 0.69 -0.72 0.06
1 9.32 932 -1.551 -9.750 1.068 -0.885 1.312 11.505 437.865 3588.962 -2592.111 0.417 0.032 -0.496 0.03 0.69 -0.73 0.06
1 9.33 933 -1.844 -10.080 1.159 -7.721 2.991 12.573 467.845 3543.991 -2622.092 0.690 0.365 -0.588 0.03 0.69 -0.73 0.06
1 9.34 934 -2.212 -10.109 0.895 -7.935 3.998 13.794 467.845 3543.991 -2622.092 1.034 0.396 -0.333 0.03 0.69 -0.72 0.06
1 9.35 935 -2.279 -9.802 0.690 4.211 3.784 15.015 272.822 3484.030 -2682.203 1.073 0.093 -0.134 0.03 0.69 -0.72 0.06
1 9.36 936 -2.313 -9.371 0.670 9.338 2.350 15.533 467.845 3514.011 -2727.173 1.076 -0.334 -0.111 0.03 0.69 -0.72 0.06
1 9.37 937 -2.203 -9.295 0.723 6.165 1.068 14.435 467.845 3514.011 -2727.173 0.934 -0.406 -0.151 0.03 0.69 -0.72 0.06
1 9.38 938 -2.131 -9.424 0.972 -4.547 1.678 14.648 497.826 3514.011 -2652.072 0.805 -0.268 -0.386 0.03 0.68 -0.73 0.06
1 9.39 939 -2.021 -9.654 0.833 -7.355 2.380 14.221 467.845 3543.991 -2697.193 0.666 -0.035 -0.254 0.04 0.68 -0.72 0.06
1 9.40 940 -2.179 -9.711 0.785 -2.533 2.319 13.763 392.894 3409.079 -2637.082 0.798 0.026 -0.214 0.04 0.69 -0.72 0.06
1 9.41 941 -2.212 -9.673 0.675 4.364 -0.122 11.749 392.894 3409.079 -2637.082 0.807 -0.009 -0.103 0.04 0.69 -0.72 0.06
1 9.42 942 -2.203 -9.386 0.776 7.172 -7.660 7.843 422.875 3454.050 -2637.082 0.774 -0.292 -0.195 0.04 0.68 -0.72 0.07
1 9.43 943 -2.198 -9.213 0.771 5.646 -11.353 5.463 482.835 3409.079 -2712.183 0.751 -0.461 -0.177 0.04 0.68 -0.73 0.07
1 9.44 944 -2.246 -9.199 0.819 4.211 -14.160 2.106 482.835 3409.079 -2712.183 0.784 -0.473 -0.213 0.04 0.68 -0.73 0.07
1 9.45 945 -2.241 -9.323 0.575 2.380 -18.036 -0.763 377.904 3394.089 -2697.193 0.765 -0.345 0.051 0.04 0.68 -0.73 0.07
1 9.46 946 -2.524 -9.170 0.412 7.813 -23.682 -3.387 452.855 3409.079 -2637.082 1.045 -0.497 0.223 0.04 0.68 -0.73 0.07
1 9.47 947 -2.490 -9.050 0.330 13.886 -29.175 -3.326 557.787 3409.079 -2682.203 1.012 -0.615 0.323 0.04 0.68 -0.73 0.07
1 9.48 948 -2.519 -8.959 0.091 16.602 -32.684 -1.404 557.787 3409.079 -2682.203 1.040 -0.705 0.589 0.03 0.68 -0.73 0.07
1 9.49 949 -2.246 -8.806 0.239 14.984 -31.189 0.946 422.875 3484.030 -2682.203 0.763 -0.855 0.468 0.03 0.68 -0.73 0.08
1 9.50 950 -2.308 -8.950 0.077 4.761 -23.163 3.723 557.787 3454.050 -2637.082 0.820 -0.709 0.655 0.03 0.68 -0.73 0.08
1 9.51 951 -2.126 -8.773 0.005 -0.549 -19.318 5.035 557.787 3454.050 -2637.082 0.629 -0.884 0.738 0.03 0.68 -0.73 0.08
1 9.52 952 -1.877 -8.897 -0.144 -5.859 -19.501 4.334 452.855 3318.988 -2712.183 0.357 -0.756 0.882 0.03 0.68 -0.73 0.08
1 9.53 953 -1.853 -9.012 -0.153 -13.397 -19.165 4.303 452.855 3454.050 -2682.203 0.325 -0.641 0.879 0.03 0.68 -0.73 0.08
1 9.54 954 -1.686 -9.371 -0.086 -18.524 -17.883 3.693 347.923 3484.030 -2817.115 0.150 -0.282 0.788 0.03 0.68 -0.73 0.08
1 9.55 955 -1.666 -9.486 -0.096 -18.646 -16.419 4.120 347.923 3484.030 -2817.115 0.126 -0.169 0.768 0.03 0.68 -0.73 0.09
1 9.56 956 -1.571 -9.639 0.101 -16.876 -15.137 4.547 437.865 3514.011 -2697.193 0.024 -0.016 0.543 0.03 0.68 -0.72 0.09
1 9.57 957 -1.666 -9.874 0.259 -12.451 -14.252 2.686 527.806 3348.968 -2607.102 0.114 0.218 0.361 0.03 0.68 -0.72 0.09
1 9.58 958 -1.671 -9.884 0.153 -12.482 -16.296 2.319 527.806 3348.968 -2607.102 0.114 0.227 0.448 0.03 0.68 -0.72 0.09
1 9.59 959 -1.642 -9.898 0.081 -12.329 -19.684 1.312 437.865 3259.027 -2727.173 0.082 0.241 0.501 0.03 0.69 -0.72 0.09
1 9.60 960 -1.302 -9.860 -0.086 -8.575 -26.428 -0.610 407.884 3543.991 -2772.144 -0.258 0.200 0.637 0.02 0.69 -0.72 0.09
1 9.61 961 -1.202 -9.898 -0.062 -7.660 -28.748 -0.977 347.923 3348.968 -2787.134 -0.353 0.237 0.603 0.02 0.69 -0.72 0.09
1 9.62 962 -0.996 -9.740 -0.101 -7.660 -29.724 -1.587 347.923 3348.968 -2787.134 -0.553 0.078 0.632 0.02 0.69 -0.72 0.09
1 9.63 963 -0.800 -9.793 0.072 -8.057 -29.541 -2.899 317.793 3454.050 -2682.203 -0.740 0.128 0.451 0.02 0.69 -0.72 0.09
1 9.64 964 -0.867 -9.515 0.029 -6.805 -26.154 -4.547 422.875 3649.073 -2682.203 -0.660 -0.152 0.485 0.02 0.69 -0.72 0.1
1 9.65 965 -0.771 -9.721 0.000 -6.256 -24.780 -5.829 422.875 3649.073 -2682.203 -0.742 0.052 0.506 0.01 0.69 -0.72 0.1
1 9.66 966 -0.977 -9.582 -0.182 -8.423 -23.041 -6.866 422.875 3454.050 -2637.082 -0.521 -0.090 0.681 0.01 0.69 -0.72 0.1
1 9.67 967 -1.178 -9.462 -0.378 -11.139 -20.783 -9.308 227.852 3543.991 -2772.144 -0.285 -0.216 0.852 0.01 0.69 -0.72 0.1
1 9.68 968 -1.250 -9.577 -0.733 -14.679 -19.714 -11.261 242.842 3573.972 -2712.183 -0.195 -0.105 1.187 0.01 0.69 -0.72 0.1
1 9.69 969 -1.475 -9.592 -0.690 -15.472 -19.959 -12.116 242.842 3573.972 -2712.183 0.049 -0.095 1.118 0.01 0.69 -0.72 0.1
1 9.70 970 -1.690 -9.659 -0.690 -14.526 -19.562 -12.604 242.842 3573.972 -2562.131 0.285 -0.032 1.091 0 0.69 -0.71 0.1
1 9.71 971 -1.662 -9.659 -0.809 -12.787 -19.165 -12.238 212.861 3604.102 -2757.154 0.274 -0.035 1.185 0 0.69 -0.71 0.1
1 9.72 972 -1.604 -10.209 0.034 -12.817 -20.783 -9.247 212.861 3604.102 -2757.154 0.234 0.512 0.320 0 0.69 -0.71 0.1
1 9.73 973 -1.494 -12.460 1.125 -30.945 -26.856 1.770 257.832 3514.011 -2622.092 0.136 2.760 -0.791 -0 0.69 -0.71 0.1
1 9.74 974 -0.488 -13.437 1.671 -43.457 -27.252 27.710 242.842 3649.073 -2607.102 -0.890 3.737 -1.438 -0 0.7 -0.71 0.1
1 9.75 975 -0.086 -12.479 1.302 5.859 -13.580 22.247 227.852 3469.040 -2727.173 -1.332 2.784 -1.111 -0 0.7 -0.71 0.11
1 9.76 976 -0.584 -11.919 0.608 23.621 -2.960 16.541 227.852 3469.040 -2727.173 -0.865 2.229 -0.395 -0 0.7 -0.71 0.11
1 9.77 977 -1.293 -10.544 0.560 8.118 -2.411 11.139 227.852 3694.043 -2727.173 -0.179 0.859 -0.316 -0 0.7 -0.71 0.11
1 9.78 978 -1.341 -10.913 0.407 -16.510 -11.169 4.608 317.793 3604.102 -2682.203 -0.143 1.229 -0.157 -0 0.7 -0.71 0.11
1 9.79 979 -0.723 -11.976 0.321 -36.286 -23.468 0.824 317.793 3604.102 -2682.203 -0.765 2.292 -0.101 -0 0.7 -0.71 0.11
1 9.80 980 -0.781 -11.109 0.412 -8.148 -15.533 -4.700 182.881 3469.040 -2697.193 -0.710 1.425 -0.243 -0 0.7 -0.7 0.11
1 9.81 981 -1.508 -10.540 0.077 9.613 -4.211 -10.071 107.930 3543.991 -2652.072 0.037 0.852 0.086 -0.01 0.7 -0.7 0.11
1 9.82 982 -1.719 -10.468 0.268 1.160 -4.700 -9.796 167.891 3679.053 -2607.102 0.262 0.778 -0.097 -0.01 0.7 -0.7 0.11
1 9.83 983 -1.571 -10.468 0.637 -20.386 -14.069 -9.583 167.891 3679.053 -2607.102 0.127 0.776 -0.482 -0.01 0.7 -0.7 0.11
1 9.84 984 -1.101 -10.611 0.752 -14.710 -22.644 -12.909 212.861 3649.073 -2637.082 -0.328 0.917 -0.619 -0.01 0.7 -0.7 0.11
1 9.85 985 -0.488 -10.683 0.972 1.556 -26.459 -16.357 17.838 3724.024 -2637.082 -0.917 0.985 -0.846 -0.01 0.7 -0.7 0.11
1 9.86 986 -0.115 -10.286 1.686 17.334 -20.691 -14.832 17.838 3724.024 -2637.082 -1.258 0.584 -1.540 -0.01 0.7 -0.7 0.11
1 9.87 987 -0.464 -9.984 1.987 15.747 -13.489 -10.468 182.881 3619.092 -2622.092 -0.876 0.278 -1.805 -0.02 0.7 -0.7 0.11
1 9.88 988 -1.087 -9.740 2.040 3.723 -10.040 -3.906 137.910 3754.004 -2502.170 -0.210 0.029 -1.788 -0.02 0.7 -0.71 0.11
1 9.89 989 -1.188 -9.668 1.805 2.136 -11.261 -3.357 167.891 3649.073 -2532.150 -0.101 -0.043 -1.534 -0.02 0.7 -0.71 0.11
1 9.90 990 -1.207 -9.582 1.978 9.918 -17.242 -0.427 167.891 3649.073 -2532.150 -0.078 -0.129 -1.685 -0.02 0.7 -0.71 0.11
1 9.91 991 -0.623 -9.429 2.021 17.914 -18.951 2.167 62.809 3649.073 -2637.082 -0.662 -0.281 -1.694 -0.02 0.69 -0.71 0.11
1 9.92 992 -0.077 -9.213 2.059 23.316 -20.660 5.524 47.819 3739.014 -2802.125 -1.208 -0.495 -1.687 -0.02 0.69 -0.71 0.12
1 9.93 993 0.761 -8.916 1.949 21.668 -20.935 6.836 47.819 3739.014 -2802.125 -2.046 -0.790 -1.526 -0.02 0.69 -0.71 0.12
1 9.94 994 1.470 -8.600 1.930 13.458 -15.686 -0.397 77.799 3588.962 -2652.072 -2.750 -1.104 -1.459 -0.02 0.69 -0.71 0.12
1 9.95 995 1.499 -8.763 1.872 4.761 -4.822 -8.270 77.799 3588.962 -2652.072 -2.762 -0.942 -1.364 -0.02 0.69 -0.72 0.12
1 9.96 996 0.804 -9.481 1.518 -10.437 10.925 -17.212 77.799 3694.043 -2727.173 -1.999 -0.231 -0.982 -0.03 0.69 -0.72 0.12
1 9.97 997 0.148 -9.754 1.413 -12.085 17.975 -21.057 77.799 3694.043 -2727.173 -1.302 0.037 -0.888 -0.03 0.69 -0.72 0.11
1 9.98 998 -0.498 -10.118 1.207 -6.714 21.271 -22.247 -11.992 3604.102 -2637.082 -0.614 0.395 -0.694 -0.03 0.69 -0.72 0.11
1 9.99 999 -0.872 -10.099 1.173 3.418 20.783 -19.135 47.819 3543.991 -2622.092 -0.205 0.372 -0.665 -0.03 0.69 -0.72 0.11
1 10.00 1000 -0.675 -9.989 1.293 10.498 17.975 -17.395 47.819 3543.991 -2622.092 -0.373 0.259 -0.775 -0.03 0.69 -0.72 0.11
1 10.01 1001 -0.402 -9.740 1.417 12.146 14.526 -17.517 107.930 3694.043 -2622.092 -0.619 0.008 -0.880 -0.03 0.69 -0.72 0.1
1 10.02 1002 -0.105 -9.783 1.470 11.017 14.618 -17.883 107.930 3694.043 -2622.092 -0.888 0.050 -0.909 -0.03 0.69 -0.72 0.1
1 10.03 1003 -0.091 -9.888 1.389 10.132 16.205 -19.226 2.848 3588.962 -2727.173 -0.872 0.153 -0.806 -0.03 0.69 -0.72 0.1
1 10.04 1004 -0.148 -9.769 1.302 14.771 13.550 -20.020 -11.992 3649.073 -2787.134 -0.746 0.030 -0.678 -0.03 0.68 -0.72 0.1
1 10.05 1005 -0.350 -9.553 1.302 16.785 10.315 -20.935 62.809 3573.972 -2787.134 -0.509 -0.187 -0.651 -0.03 0.68 -0.72 0.09
1 10.06 1006 -0.397 -9.534 1.293 16.419 8.209 -20.660 167.891 3484.030 -2817.115 -0.427 -0.207 -0.612 -0.03 0.68 -0.73 0.09
1 10.07 1007 -0.469 -9.266 1.077 13.886 5.829 -20.538 167.891 3484.030 -2817.115 -0.322 -0.476 -0.369 -0.03 0.68 -0.73 0.09
1 10.08 1008 -0.402 -9.438 0.886 9.247 5.371 -18.402 -131.914 3573.972 -2817.115 -0.357 -0.305 -0.156 -0.03 0.68 -0.73 0.09
1 10.09 1009 -0.259 -9.453 0.862 8.423 5.524 -17.212 -133.263 3574.871 -2813.667 -0.469 -0.292 -0.115 -0.03 0.68 -0.73 0.09
1 10.10 1010 -0.211 -9.644 0.848 9.888 4.852 -14.954 -193.224 3724.773 -2813.667 -0.489 -0.101 -0.088 -0.03 0.68 -0.73 0.09
