COL1	TIME	ACC_X	ACC_Y	ACC_Z	GYR_X	GYR_Y	GYR_Z	MAG_X	MAG_Y	MAG_Z	LACC_X	LACC_Y	LACC_Z	QUAT_X	QUAT_Y	QUAT_Z	QUAT_W
1 0.00 0 -0.230 -10.051 0.929 -0.122 -0.427 0.580 -194.873 -209.863 -2264.875 0.087 0.307 0.105 -0.03 0.67 -0.74 0.05
1 0.01 1 -0.254 -9.850 1.116 -0.061 -0.641 0.549 -299.955 -239.994 -2414.927 0.111 0.106 -0.082 -0.03 0.67 -0.74 0.05
1 0.02 2 -0.110 -9.812 1.006 0.763 -0.519 0.488 -179.883 -149.902 -2324.985 -0.033 0.068 0.029 -0.03 0.67 -0.74 0.05
1 0.03 3 -0.057 -9.745 1.039 -0.153 -1.038 0.366 -179.883 -149.902 -2324.985 -0.085 0.001 -0.002 -0.03 0.67 -0.74 0.05
1 0.04 4 -0.187 -9.860 1.010 -1.099 -1.129 0.885 -179.883 -254.984 -2384.946 0.045 0.116 0.027 -0.03 0.67 -0.74 0.05
1 0.05 5 -0.086 -9.960 1.058 -1.099 -1.221 0.366 -179.883 -254.984 -2384.946 -0.056 0.216 -0.020 -0.03 0.67 -0.74 0.05
1 0.06 6 -0.110 -9.912 1.020 -0.122 -0.854 0.519 -209.863 -224.854 -2354.966 -0.032 0.169 0.018 -0.03 0.67 -0.74 0.05
1 0.07 7 -0.192 -9.831 1.039 0.366 -0.946 0.702 -254.984 -179.883 -2324.985 0.050 0.087 -0.001 -0.03 0.67 -0.74 0.05
1 0.08 8 -0.067 -9.965 1.106 -0.122 -0.854 0.610 -179.883 -224.854 -2354.966 -0.075 0.221 -0.067 -0.03 0.67 -0.74 0.05
1 0.09 9 -0.148 -9.845 1.044 -1.404 -0.671 0.946 -209.863 -104.932 -2459.897 0.007 0.102 -0.004 -0.03 0.67 -0.74 0.05
1 0.10 10 -0.163 -9.927 1.053 -1.770 -0.885 0.702 -209.863 -104.932 -2459.897 0.022 0.183 -0.014 -0.03 0.67 -0.74 0.05
1 0.11 11 -0.105 -9.845 1.034 -1.740 -0.702 0.580 -284.964 -224.854 -2354.966 -0.035 0.102 0.005 -0.03 0.67 -0.74 0.05
1 0.12 12 -0.101 -10.008 1.034 -0.732 -0.946 1.404 -284.964 -224.854 -2354.966 -0.040 0.265 0.006 -0.03 0.67 -0.74 0.05
1 0.13 13 -0.125 -9.879 1.068 0.061 -0.702 0.671 -194.873 -239.994 -2339.976 -0.015 0.135 -0.028 -0.03 0.67 -0.74 0.05
1 0.14 14 -0.225 -10.027 0.977 0.366 -0.885 1.251 -179.883 -299.955 -2354.966 0.086 0.284 0.064 -0.03 0.67 -0.74 0.05
1 0.15 15 -0.019 -9.817 1.101 0.275 -0.336 0.244 -254.984 -179.883 -2429.917 -0.121 0.073 -0.060 -0.03 0.67 -0.74 0.05
1 0.16 16 -0.201 -9.898 1.116 -0.763 -0.793 1.617 -359.916 -299.955 -2459.897 0.062 0.155 -0.073 -0.03 0.67 -0.74 0.05
1 0.17 17 -0.115 -9.936 1.092 -0.122 -1.099 0.580 -359.916 -299.955 -2459.897 -0.024 0.193 -0.050 -0.03 0.67 -0.74 0.05
1 0.18 18 -0.086 -9.912 1.044 -0.397 -1.160 0.946 -269.974 -284.964 -2369.956 -0.053 0.169 -0.002 -0.03 0.67 -0.74 0.05
1 0.19 19 -0.134 -9.903 0.881 1.556 -1.038 0.092 -269.974 -284.964 -2369.956 -0.004 0.160 0.164 -0.03 0.67 -0.74 0.05
1 0.20 20 -0.177 -9.817 1.121 0.824 -0.946 0.488 -194.873 -209.863 -2369.956 0.040 0.074 -0.073 -0.03 0.67 -0.74 0.05
1 0.21 21 -0.182 -9.864 1.149 0.061 -0.183 1.007 -224.854 -164.893 -2414.927 0.045 0.122 -0.101 -0.03 0.67 -0.74 0.05
1 0.22 22 -0.177 -9.922 1.039 -0.519 -0.763 0.336 -224.854 -164.893 -2414.927 0.040 0.179 0.010 -0.03 0.67 -0.74 0.05
1 0.23 23 -0.110 -9.951 1.020 0.092 -1.190 0.336 -284.964 -224.854 -2384.946 -0.027 0.208 0.029 -0.03 0.67 -0.74 0.04
1 0.24 24 -0.105 -9.759 1.063 1.770 -0.183 0.275 -284.964 -224.854 -2384.946 -0.032 0.016 -0.014 -0.03 0.67 -0.74 0.04
1 0.25 25 -0.024 -9.912 1.164 2.533 1.526 0.336 -209.863 -179.883 -2459.897 -0.113 0.170 -0.112 -0.03 0.67 -0.74 0.04
1 0.26 26 0.163 -9.773 1.053 1.251 1.709 -0.092 -209.863 -179.883 -2459.897 -0.297 0.032 0.007 -0.03 0.67 -0.74 0.04
1 0.27 27 0.120 -9.841 1.010 0.641 2.441 -1.434 -269.974 -14.990 -2339.976 -0.250 0.099 0.052 -0.03 0.67 -0.74 0.04
1 0.28 28 0.081 -9.759 1.068 0.305 1.587 -1.801 -179.883 -224.854 -2384.946 -0.207 0.018 -0.003 -0.03 0.67 -0.74 0.04
1 0.29 29 0.211 -9.692 1.044 0.793 1.587 -2.319 -179.883 -224.854 -2384.946 -0.332 -0.049 0.022 -0.03 0.67 -0.74 0.04
1 0.30 30 0.168 -9.759 0.958 -0.122 2.380 -2.441 -209.863 -254.984 -2279.865 -0.282 0.018 0.111 -0.03 0.67 -0.74 0.04
1 0.31 31 0.115 -9.850 1.025 -1.434 3.815 -3.357 -209.863 -254.984 -2279.865 -0.222 0.109 0.046 -0.03 0.67 -0.74 0.04
1 0.32 32 0.139 -9.831 0.929 -0.671 3.540 -4.456 -209.863 -104.932 -2354.966 -0.239 0.090 0.140 -0.03 0.67 -0.74 0.04
1 0.33 33 0.029 -9.912 0.996 1.282 3.479 -4.364 -209.863 -104.932 -2354.966 -0.120 0.171 0.073 -0.03 0.67 -0.74 0.04
1 0.34 34 0.110 -9.884 0.991 3.510 4.395 -4.700 -194.873 -14.990 -2414.927 -0.183 0.143 0.084 -0.03 0.67 -0.74 0.04
1 0.35 35 0.230 -9.836 1.101 2.075 5.829 -5.310 -284.964 -254.984 -2279.865 -0.293 0.096 -0.021 -0.03 0.67 -0.74 0.04
1 0.36 36 0.067 -9.965 0.977 0.824 5.493 -5.951 -284.964 -254.984 -2279.865 -0.120 0.225 0.107 -0.03 0.67 -0.74 0.04
1 0.37 37 0.096 -9.936 1.044 0.183 4.517 -6.622 -284.964 -224.854 -2459.897 -0.138 0.197 0.042 -0.03 0.67 -0.74 0.04
1 0.38 38 0.081 -9.965 1.053 2.930 3.021 -6.622 -284.964 -224.854 -2459.897 -0.113 0.226 0.035 -0.03 0.67 -0.74 0.04
1 0.39 39 0.148 -9.908 1.097 4.334 3.235 -7.751 -329.935 -254.984 -2354.966 -0.168 0.169 -0.004 -0.03 0.67 -0.74 0.04
1 0.40 40 0.148 -9.826 1.039 4.547 3.296 -8.270 -329.935 -254.984 -2354.966 -0.156 0.088 0.061 -0.03 0.67 -0.74 0.04
1 0.41 41 0.196 -9.946 1.207 3.723 2.228 -9.644 -209.863 -104.932 -2429.917 -0.174 0.210 -0.091 -0.03 0.66 -0.75 0.03
1 0.42 42 0.278 -10.109 1.264 3.937 2.930 -8.881 -374.906 -209.863 -2414.927 -0.239 0.373 -0.142 -0.03 0.66 -0.75 0.03
1 0.43 43 0.129 -9.970 1.159 3.998 2.472 -8.484 -374.906 -209.863 -2414.927 -0.076 0.235 -0.028 -0.03 0.66 -0.75 0.03
1 0.44 44 0.206 -9.999 1.245 5.280 2.655 -8.179 -254.984 -299.955 -2429.917 -0.138 0.265 -0.106 -0.03 0.66 -0.75 0.03
1 0.45 45 0.182 -10.118 1.188 6.470 1.495 -7.996 -254.984 -299.955 -2429.917 -0.101 0.386 -0.039 -0.03 0.66 -0.75 0.03
1 0.46 46 0.421 -10.109 1.298 8.606 -0.671 -9.064 -269.974 -119.922 -2414.927 -0.326 0.378 -0.137 -0.03 0.66 -0.75 0.03
1 0.47 47 0.484 -10.094 1.312 8.118 -1.373 -8.453 -269.974 -119.922 -2414.927 -0.372 0.366 -0.136 -0.04 0.66 -0.75 0.03
1 0.48 48 0.503 -10.027 1.441 9.888 -1.160 -7.904 -344.925 -284.964 -2414.927 -0.359 0.303 -0.238 -0.04 0.66 -0.75 0.03
1 0.49 49 0.488 -9.908 1.456 12.726 -2.380 -7.385 -389.896 -149.902 -2324.985 -0.328 0.185 -0.234 -0.04 0.66 -0.75 0.03
1 0.50 50 0.488 -9.773 1.331 14.771 -3.296 -7.202 -389.896 -149.902 -2324.985 -0.313 0.054 -0.087 -0.04 0.66 -0.75 0.03
1 0.51 51 0.781 -9.592 1.398 15.045 -3.967 -6.653 -224.854 -209.863 -2369.956 -0.591 -0.124 -0.130 -0.04 0.66 -0.75 0.03
1 0.52 52 0.881 -9.381 1.475 12.634 -3.845 -3.632 -329.935 -224.854 -2249.884 -0.676 -0.331 -0.182 -0.04 0.66 -0.75 0.03
1 0.53 53 1.034 -9.127 1.432 9.918 -2.167 -2.167 -344.925 -314.945 -2474.888 -0.816 -0.582 -0.117 -0.04 0.66 -0.75 0.03
1 0.54 54 0.963 -9.098 1.264 7.172 -0.061 0.153 -344.925 -314.945 -2474.888 -0.734 -0.608 0.068 -0.04 0.66 -0.75 0.03
1 0.55 55 0.723 -9.213 1.149 4.150 0.946 0.763 -344.925 -239.994 -2549.989 -0.487 -0.491 0.197 -0.04 0.66 -0.75 0.03
1 0.56 56 0.814 -9.496 1.140 -0.549 1.282 3.662 -359.916 -299.955 -2609.950 -0.569 -0.207 0.218 -0.04 0.65 -0.75 0.03
1 0.57 57 0.929 -9.568 1.279 -2.930 -0.061 5.035 -359.916 -299.955 -2609.950 -0.684 -0.135 0.078 -0.04 0.66 -0.75 0.03
1 0.58 58 0.982 -9.735 1.192 -2.991 0.885 5.371 -374.906 -359.916 -2519.858 -0.739 0.032 0.160 -0.04 0.66 -0.75 0.03
1 0.59 59 0.900 -9.860 1.082 -0.275 1.648 5.585 -269.974 -209.863 -2519.858 -0.659 0.156 0.268 -0.04 0.66 -0.75 0.03
1 0.60 60 0.747 -9.687 1.212 3.662 4.639 5.951 -374.906 -359.916 -2369.956 -0.509 -0.016 0.139 -0.04 0.66 -0.75 0.03
1 0.61 61 0.565 -9.721 1.288 5.188 5.554 6.439 -374.906 -359.916 -2369.956 -0.331 0.018 0.067 -0.04 0.66 -0.75 0.03
1 0.62 62 0.522 -9.702 1.053 3.082 4.425 7.751 -284.964 -419.876 -2384.946 -0.293 -0.001 0.309 -0.04 0.65 -0.75 0.03
1 0.63 63 0.393 -9.630 1.101 -2.045 2.777 8.423 -344.925 -164.893 -2624.940 -0.182 -0.072 0.267 -0.04 0.65 -0.75 0.03
1 0.64 64 0.546 -9.864 1.121 -5.798 2.808 8.423 -344.925 -164.893 -2624.940 -0.345 0.162 0.244 -0.04 0.65 -0.75 0.03
1 0.65 65 0.388 -9.750 1.063 -7.263 2.472 8.484 -389.896 -329.935 -2354.966 -0.196 0.045 0.291 -0.04 0.66 -0.75 0.03
1 0.66 66 0.397 -9.908 1.049 -6.409 2.838 7.904 -299.955 -434.867 -2474.888 -0.216 0.202 0.295 -0.04 0.66 -0.75 0.03
1 0.67 67 0.235 -10.027 1.202 -2.594 1.770 7.813 -344.925 -164.893 -2519.858 -0.064 0.320 0.133 -0.04 0.66 -0.75 0.03
1 0.68 68 0.172 -9.817 1.044 0.763 0.610 6.866 -344.925 -164.893 -2519.858 -0.011 0.109 0.285 -0.04 0.66 -0.75 0.03
1 0.69 69 0.024 -9.936 1.164 1.343 1.129 5.981 -359.916 -254.984 -2459.897 0.128 0.228 0.165 -0.04 0.66 -0.75 0.03
1 0.70 70 -0.043 -9.970 1.259 0.641 0.580 4.334 -194.873 -314.945 -2474.888 0.179 0.262 0.072 -0.04 0.66 -0.75 0.03
1 0.71 71 -0.153 -10.075 1.154 0.000 -0.458 3.204 -194.873 -314.945 -2474.888 0.283 0.367 0.178 -0.04 0.66 -0.75 0.03
1 0.72 72 -0.225 -10.032 1.140 0.397 -1.892 2.777 -254.984 -329.935 -2459.897 0.350 0.324 0.192 -0.04 0.66 -0.75 0.03
1 0.73 73 -0.201 -10.099 1.279 1.190 -2.136 2.197 -269.974 -209.863 -2474.888 0.321 0.391 0.054 -0.04 0.66 -0.75 0.03
1 0.74 74 -0.163 -10.042 1.183 1.221 -2.075 1.434 -284.964 -299.955 -2534.999 0.278 0.334 0.152 -0.04 0.66 -0.75 0.03
1 0.75 75 -0.235 -10.099 1.221 1.465 -3.662 0.885 -284.964 -299.955 -2534.999 0.346 0.391 0.116 -0.04 0.66 -0.75 0.03
1 0.76 76 -0.125 -10.080 1.197 1.251 -6.226 0.122 -164.893 -239.994 -2414.927 0.234 0.373 0.142 -0.04 0.66 -0.75 0.03
1 0.77 77 -0.096 -10.022 1.226 1.770 -8.759 -0.916 -344.925 -359.916 -2414.927 0.206 0.315 0.115 -0.04 0.66 -0.75 0.03
1 0.78 78 0.105 -9.903 1.451 4.242 -8.240 -2.075 -344.925 -359.916 -2414.927 0.011 0.197 -0.103 -0.04 0.66 -0.75 0.03
1 0.79 79 0.077 -10.008 1.360 5.066 -7.874 -2.960 -389.896 -254.984 -2564.979 0.046 0.303 -0.004 -0.04 0.66 -0.75 0.03
1 0.80 80 0.024 -9.778 1.417 5.280 -8.606 -3.510 -269.974 -359.916 -2444.907 0.105 0.075 -0.053 -0.04 0.65 -0.75 0.04
1 0.81 81 0.091 -9.836 1.446 4.852 -10.193 -3.510 -269.974 -284.964 -2549.989 0.045 0.133 -0.073 -0.04 0.65 -0.75 0.04
1 0.82 82 0.239 -9.615 1.374 4.639 -11.810 -3.418 -269.974 -284.964 -2549.989 -0.096 -0.086 0.008 -0.04 0.65 -0.75 0.04
1 0.83 83 0.306 -9.726 1.480 4.150 -11.536 -4.181 -299.955 -284.964 -2474.888 -0.154 0.026 -0.090 -0.04 0.65 -0.75 0.04
1 0.84 84 0.359 -9.682 1.446 3.723 -10.620 -4.364 -374.906 -239.994 -2444.907 -0.197 -0.016 -0.049 -0.04 0.65 -0.75 0.04
1 0.85 85 0.187 -9.730 1.484 3.998 -9.613 -4.852 -374.906 -239.994 -2444.907 -0.001 0.034 -0.073 -0.04 0.65 -0.76 0.04
1 0.86 86 0.211 -9.726 1.489 4.730 -8.514 -4.517 -344.925 -359.916 -2519.858 -0.015 0.031 -0.069 -0.05 0.65 -0.76 0.04
1 0.87 87 0.330 -9.663 1.475 5.310 -8.789 -4.639 -389.896 -494.978 -2429.917 -0.124 -0.030 -0.046 -0.05 0.65 -0.76 0.04
1 0.88 88 0.326 -9.740 1.322 6.256 -8.392 -4.150 -374.906 -314.945 -2519.858 -0.109 0.049 0.117 -0.05 0.65 -0.76 0.04
1 0.89 89 0.302 -9.635 1.408 4.974 -7.141 -4.272 -374.906 -314.945 -2519.858 -0.074 -0.055 0.039 -0.05 0.65 -0.76 0.04
1 0.90 90 0.354 -9.812 1.504 3.143 -4.272 -3.448 -374.906 -359.916 -2519.858 -0.116 0.123 -0.049 -0.05 0.65 -0.76 0.04
1 0.91 91 0.359 -9.984 1.499 1.099 -2.869 -2.350 -359.916 -254.984 -2564.979 -0.113 0.297 -0.038 -0.05 0.65 -0.76 0.04
1 0.92 92 0.369 -10.104 1.551 2.106 -0.427 -0.610 -359.916 -254.984 -2564.979 -0.112 0.418 -0.085 -0.05 0.65 -0.76 0.04
1 0.93 93 0.287 -10.137 1.504 3.387 1.190 0.549 -344.925 -239.994 -2594.959 -0.028 0.452 -0.032 -0.05 0.65 -0.76 0.04
1 0.94 94 0.259 -10.133 1.642 6.470 4.334 1.465 -389.896 -179.883 -2534.999 0.001 0.448 -0.163 -0.05 0.65 -0.76 0.04
1 0.95 95 0.148 -9.965 1.523 8.606 6.256 1.495 -389.896 -179.883 -2534.999 0.109 0.283 -0.031 -0.05 0.65 -0.76 0.04
1 0.96 96 0.034 -9.979 1.710 11.688 9.430 2.747 -419.876 -359.916 -2594.959 0.221 0.299 -0.202 -0.05 0.65 -0.76 0.04
1 0.97 97 -0.072 -10.032 1.686 10.651 10.742 3.418 -464.997 -299.955 -2564.979 0.320 0.355 -0.159 -0.05 0.65 -0.76 0.04
1 0.98 98 0.072 -9.936 1.801 9.491 11.383 4.578 -269.974 -389.896 -2519.858 0.169 0.262 -0.254 -0.05 0.65 -0.76 0.04
1 0.99 99 -0.062 -9.874 1.628 8.026 10.986 4.608 -269.974 -389.896 -2519.858 0.292 0.202 -0.065 -0.05 0.65 -0.76 0.04
1 1.00 100 -0.110 -9.730 1.465 8.240 11.536 4.944 -389.896 -299.955 -2684.901 0.318 0.063 0.126 -0.04 0.65 -0.76 0.04
1 1.01 101 -0.321 -9.644 1.398 9.125 13.825 3.967 -344.925 -314.945 -2594.959 0.518 -0.021 0.207 -0.04 0.65 -0.76 0.04
1 1.02 102 -0.666 -9.615 1.149 11.078 15.076 3.662 -344.925 -314.945 -2594.959 0.851 -0.048 0.471 -0.04 0.64 -0.76 0.04
1 1.03 103 -0.895 -9.376 1.212 11.627 13.947 3.601 -419.876 -434.867 -2444.907 1.068 -0.285 0.424 -0.04 0.64 -0.76 0.04
1 1.04 104 -1.173 -9.376 1.053 8.911 10.590 2.411 -164.893 -389.896 -2474.888 1.331 -0.283 0.598 -0.04 0.64 -0.76 0.04
1 1.05 105 -0.982 -9.477 1.034 5.341 7.690 1.648 -299.955 -314.945 -2594.959 1.126 -0.180 0.629 -0.04 0.64 -0.76 0.03
1 1.06 106 -0.972 -9.884 1.097 -1.831 5.737 2.655 -299.955 -314.945 -2594.959 1.103 0.228 0.573 -0.04 0.64 -0.76 0.03
1 1.07 107 -0.934 -10.219 0.848 -7.874 3.021 3.632 -329.935 -329.935 -2534.999 1.040 0.560 0.806 -0.04 0.64 -0.76 0.04
1 1.08 108 -1.073 -10.267 0.570 -1.282 -0.916 2.411 -284.964 -329.935 -2564.979 1.168 0.605 1.069 -0.04 0.64 -0.76 0.04
1 1.09 109 -1.212 -10.018 0.532 10.925 -4.761 0.702 -284.964 -329.935 -2564.979 1.297 0.355 1.103 -0.04 0.64 -0.76 0.04
1 1.10 110 -1.322 -9.912 0.503 17.059 -7.935 -0.641 -374.906 -359.916 -2624.940 1.399 0.252 1.143 -0.04 0.64 -0.76 0.04
1 1.11 111 -1.058 -9.817 0.512 10.223 -13.947 1.068 -299.955 -389.896 -2594.959 1.130 0.159 1.152 -0.04 0.64 -0.76 0.04
1 1.12 112 -0.824 -9.884 0.685 -1.099 -16.754 3.754 -254.984 -329.935 -2564.979 0.890 0.228 0.990 -0.04 0.64 -0.76 0.04
1 1.13 113 -0.508 -10.243 0.694 -8.881 -19.836 5.707 -254.984 -329.935 -2564.979 0.567 0.586 0.976 -0.04 0.64 -0.76 0.04
1 1.14 114 -0.081 -10.161 0.785 -6.470 -20.783 5.920 -254.984 -224.854 -2714.881 0.127 0.499 0.850 -0.04 0.64 -0.76 0.04
1 1.15 115 0.201 -9.979 0.843 7.080 -15.381 5.188 -329.935 -299.955 -2564.979 -0.159 0.316 0.787 -0.04 0.64 -0.76 0.04
1 1.16 116 -0.086 -9.864 0.809 11.963 -10.712 5.035 -329.935 -299.955 -2564.979 0.126 0.202 0.829 -0.04 0.64 -0.76 0.04
1 1.17 117 -0.048 -9.639 0.852 9.918 -8.942 5.798 -344.925 -359.916 -2699.891 0.083 -0.020 0.798 -0.04 0.64 -0.76 0.04
1 1.18 118 -0.239 -9.481 0.771 1.434 -11.749 6.104 -209.863 -419.876 -2714.881 0.269 -0.177 0.888 -0.04 0.64 -0.76 0.05
1 1.19 119 -0.096 -9.467 0.819 -2.106 -12.543 5.371 -359.916 -494.978 -2564.979 0.118 -0.191 0.840 -0.04 0.64 -0.76 0.05
1 1.20 120 0.010 -9.572 0.670 -1.678 -12.024 4.639 -359.916 -494.978 -2564.979 0.007 -0.087 0.982 -0.04 0.64 -0.76 0.05
1 1.21 121 0.096 -9.592 0.713 1.129 -9.918 3.082 -344.925 -464.997 -2549.989 -0.082 -0.070 0.931 -0.04 0.64 -0.76 0.05
1 1.22 122 0.038 -9.410 0.761 3.723 -6.439 2.289 -269.974 -359.916 -2624.940 -0.026 -0.252 0.877 -0.04 0.64 -0.76 0.05
1 1.23 123 -0.091 -9.405 0.785 2.655 -5.219 1.801 -269.974 -359.916 -2624.940 0.104 -0.257 0.854 -0.04 0.64 -0.76 0.05
1 1.24 124 -0.239 -9.371 0.757 0.214 -5.219 1.648 -284.964 -494.978 -2564.979 0.252 -0.291 0.881 -0.04 0.64 -0.76 0.05
1 1.25 125 -0.206 -9.501 0.713 -1.648 -6.256 1.068 -434.867 -494.978 -2534.999 0.217 -0.163 0.918 -0.04 0.64 -0.76 0.05
1 1.26 126 -0.201 -9.510 0.599 -2.960 -9.216 -0.671 -344.925 -389.896 -2444.907 0.212 -0.154 1.025 -0.04 0.64 -0.76 0.05
1 1.27 127 -0.206 -9.678 0.536 -1.404 -9.216 -1.831 -344.925 -389.896 -2444.907 0.219 0.011 1.077 -0.04 0.64 -0.76 0.05
1 1.28 128 -0.134 -9.443 0.455 0.092 -7.935 -2.319 -464.997 -419.876 -2609.950 0.151 -0.225 1.149 -0.04 0.65 -0.76 0.05
1 1.29 129 -0.187 -9.424 0.335 -0.641 -9.155 -3.479 -359.916 -449.857 -2504.868 0.214 -0.246 1.256 -0.05 0.65 -0.76 0.05
1 1.30 130 -0.321 -9.443 0.445 -1.434 -10.742 -4.059 -359.916 -449.857 -2504.868 0.355 -0.228 1.137 -0.05 0.65 -0.76 0.05
1 1.31 131 -0.163 -9.443 0.551 -3.357 -11.780 -4.120 -299.955 -359.916 -2549.989 0.205 -0.230 1.022 -0.05 0.65 -0.76 0.05
1 1.32 132 -0.048 -9.663 0.383 -4.181 -10.407 -5.188 -389.896 -419.876 -2639.930 0.099 -0.011 1.177 -0.05 0.65 -0.76 0.05
1 1.33 133 0.048 -9.524 0.450 -4.059 -9.552 -4.578 -509.968 -329.935 -2684.901 0.014 -0.152 1.097 -0.05 0.65 -0.76 0.05
1 1.34 134 -0.081 -9.644 0.378 -3.174 -8.087 -5.219 -509.968 -329.935 -2684.901 0.153 -0.035 1.157 -0.05 0.65 -0.76 0.05
1 1.35 135 -0.215 -9.596 0.512 -2.869 -7.751 -5.493 -419.876 -284.964 -2594.959 0.298 -0.084 1.011 -0.05 0.65 -0.76 0.05
1 1.36 136 -0.464 -9.754 0.532 -5.066 -7.263 -6.226 -389.896 -494.978 -2609.950 0.567 0.070 0.969 -0.05 0.65 -0.76 0.05
1 1.37 137 -0.397 -9.706 0.512 -5.829 -8.240 -4.852 -389.896 -494.978 -2609.950 0.508 0.021 0.974 -0.05 0.65 -0.76 0.05
1 1.38 138 -0.527 -9.764 0.488 -3.601 -10.712 -4.761 -449.857 -359.916 -2444.907 0.644 0.076 0.984 -0.05 0.65 -0.76 0.05
1 1.39 139 -0.469 -9.750 0.402 -1.831 -12.909 -4.425 -449.857 -359.916 -2444.907 0.593 0.060 1.059 -0.05 0.65 -0.76 0.05
1 1.40 140 -0.311 -9.524 0.484 -1.099 -16.235 -3.235 -419.876 -239.994 -2669.911 0.441 -0.166 0.969 -0.06 0.65 -0.76 0.05
1 1.41 141 -0.196 -9.443 0.460 -4.272 -16.632 -1.862 -419.876 -239.994 -2669.911 0.331 -0.249 0.986 -0.06 0.65 -0.76 0.05
1 1.42 142 -0.211 -9.501 0.450 -8.331 -16.174 -1.343 -359.916 -449.857 -2534.999 0.351 -0.193 0.986 -0.06 0.65 -0.76 0.06
1 1.43 143 -0.230 -9.414 0.479 -11.871 -15.564 -0.031 -434.867 -329.935 -2534.999 0.375 -0.281 0.940 -0.06 0.65 -0.75 0.06
1 1.44 144 -0.493 -9.668 0.378 -15.045 -15.717 -0.702 -434.867 -329.935 -2534.999 0.642 -0.034 0.993 -0.06 0.65 -0.75 0.06
1 1.45 145 -0.699 -9.855 0.364 -15.106 -15.747 0.916 -569.929 -314.945 -2594.959 0.849 0.149 0.979 -0.06 0.65 -0.75 0.06
1 1.46 146 -0.498 -9.970 0.239 -13.641 -15.259 1.678 -569.929 -314.945 -2594.959 0.645 0.260 1.076 -0.06 0.66 -0.75 0.06
1 1.47 147 -0.623 -9.989 0.364 -12.177 -14.801 1.465 -389.896 -329.935 -2534.999 0.765 0.275 0.924 -0.06 0.66 -0.75 0.06
1 1.48 148 -0.627 -10.051 0.464 -6.744 -14.282 -0.671 -389.896 -329.935 -2534.999 0.767 0.334 0.801 -0.06 0.66 -0.75 0.06
1 1.49 149 -0.603 -10.104 0.584 -3.571 -13.947 -1.190 -434.867 -329.935 -2534.999 0.742 0.385 0.664 -0.06 0.66 -0.75 0.06
1 1.50 150 -0.335 -10.195 0.594 -0.427 -14.862 -1.221 -674.860 -539.948 -2444.907 0.474 0.474 0.643 -0.06 0.66 -0.75 0.06
1 1.51 151 -0.273 -10.324 0.694 0.031 -12.543 -1.251 -674.860 -539.948 -2444.907 0.414 0.602 0.533 -0.07 0.66 -0.75 0.06
1 1.52 152 -0.278 -10.367 0.632 1.923 -10.040 -2.075 -584.919 -329.935 -2504.868 0.421 0.645 0.592 -0.07 0.66 -0.75 0.06
1 1.53 153 -0.067 -10.391 0.517 6.500 -7.904 -2.502 -584.919 -329.935 -2504.868 0.214 0.669 0.708 -0.07 0.66 -0.75 0.07
1 1.54 154 0.038 -10.497 0.594 11.414 -6.836 -2.136 -569.929 -434.867 -2474.888 0.113 0.776 0.638 -0.07 0.66 -0.75 0.07
1 1.55 155 0.378 -10.607 1.101 15.381 -2.869 -0.214 -599.909 -314.945 -2519.858 -0.223 0.887 0.145 -0.07 0.66 -0.75 0.07
1 1.56 156 0.455 -11.133 1.614 13.123 1.770 3.510 -614.899 -374.906 -2504.868 -0.297 1.417 -0.348 -0.07 0.66 -0.75 0.07
1 1.57 157 0.397 -11.488 1.834 6.439 3.754 7.690 -584.919 -299.955 -2564.979 -0.241 1.774 -0.547 -0.07 0.66 -0.75 0.07
1 1.58 158 0.249 -11.454 1.647 5.951 -0.275 9.033 -584.919 -299.955 -2564.979 -0.114 1.743 -0.337 -0.07 0.65 -0.75 0.07
1 1.59 159 0.057 -10.784 1.480 25.940 -10.468 7.874 -659.870 -449.857 -2684.901 0.066 1.076 -0.146 -0.07 0.65 -0.75 0.07
1 1.60 160 0.105 -10.147 1.422 35.767 -17.426 6.348 -659.870 -449.857 -2684.901 0.011 0.445 -0.044 -0.07 0.65 -0.75 0.07
1 1.61 161 0.000 -9.788 1.518 33.692 -19.836 4.578 -614.899 -329.935 -2564.979 0.113 0.094 -0.086 -0.07 0.65 -0.75 0.07
1 1.62 162 -0.086 -10.410 1.657 0.427 -12.665 10.223 -494.978 -434.867 -2549.989 0.198 0.723 -0.179 -0.07 0.65 -0.76 0.07
1 1.63 163 -0.555 -11.301 1.647 -26.642 -7.355 14.984 -434.867 -419.876 -2564.979 0.657 1.616 -0.156 -0.07 0.65 -0.76 0.07
1 1.64 164 -0.919 -11.761 1.279 -31.921 -4.730 15.045 -659.870 -449.857 -2609.950 1.003 2.071 0.184 -0.07 0.65 -0.75 0.07
1 1.65 165 -1.144 -12.201 0.948 -14.648 -5.341 11.505 -659.870 -449.857 -2609.950 1.208 2.504 0.467 -0.07 0.65 -0.75 0.08
1 1.66 166 -0.723 -12.106 0.623 20.447 -10.620 4.211 -659.870 -449.857 -2609.950 0.762 2.405 0.771 -0.07 0.65 -0.75 0.08
1 1.67 167 -0.718 -11.804 0.666 31.098 -12.787 1.526 -659.870 -449.857 -2609.950 0.755 2.109 0.765 -0.07 0.65 -0.75 0.08
1 1.68 168 -0.680 -11.675 0.967 22.308 -14.801 4.334 -629.890 -464.997 -2549.989 0.718 1.987 0.510 -0.07 0.65 -0.75 0.08
1 1.69 169 -0.503 -11.861 1.231 2.350 -14.710 9.857 -539.948 -494.978 -2639.930 0.537 2.178 0.274 -0.07 0.65 -0.76 0.08
1 1.70 170 0.110 -12.331 1.930 -14.923 -11.627 13.458 -659.870 -494.978 -2429.917 -0.088 2.647 -0.427 -0.07 0.65 -0.76 0.08
1 1.71 171 0.613 -12.345 2.251 -3.143 -6.256 8.148 -584.919 -524.958 -2609.950 -0.607 2.658 -0.767 -0.07 0.65 -0.75 0.08
1 1.72 172 0.704 -11.579 2.404 31.769 1.709 -1.648 -584.919 -524.958 -2609.950 -0.713 1.894 -0.907 -0.07 0.65 -0.75 0.08
1 1.73 173 0.728 -11.181 2.480 40.711 3.357 -3.418 -569.929 -314.945 -2549.989 -0.732 1.505 -0.928 -0.07 0.64 -0.76 0.08
1 1.74 174 0.517 -9.845 2.682 44.312 1.709 -7.996 -569.929 -314.945 -2549.989 -0.513 0.181 -1.059 -0.07 0.64 -0.76 0.08
1 1.75 175 0.412 -9.352 2.672 33.569 1.160 -10.498 -690.000 -374.906 -2534.999 -0.390 -0.301 -0.980 -0.07 0.64 -0.76 0.08
1 1.76 176 0.354 -8.878 2.864 19.043 -0.122 -12.909 -584.919 -524.958 -2459.897 -0.313 -0.765 -1.117 -0.07 0.64 -0.76 0.08
1 1.77 177 0.196 -8.610 2.782 17.395 -1.709 -12.238 -494.978 -434.867 -2669.911 -0.134 -1.026 -0.995 -0.07 0.64 -0.76 0.08
1 1.78 178 0.555 -8.366 2.710 18.799 -9.491 -12.390 -524.958 -539.948 -2729.872 -0.472 -1.263 -0.888 -0.07 0.63 -0.77 0.08
1 1.79 179 1.077 -8.141 2.552 21.881 -13.275 -10.345 -524.958 -539.948 -2729.872 -0.970 -1.481 -0.693 -0.07 0.63 -0.77 0.08
1 1.80 180 1.480 -8.088 2.873 22.278 -7.965 -4.791 -734.971 -599.909 -2609.950 -1.334 -1.520 -0.947 -0.08 0.63 -0.77 0.08
1 1.81 181 1.532 -8.145 3.122 18.036 -2.441 0.763 -734.971 -599.909 -2609.950 -1.379 -1.456 -1.163 -0.08 0.63 -0.77 0.08
1 1.82 182 1.073 -8.390 3.151 12.909 -1.556 2.563 -704.991 -509.968 -2669.911 -0.914 -1.205 -1.161 -0.08 0.63 -0.77 0.08
1 1.83 183 0.661 -8.524 3.089 7.050 -3.906 3.937 -749.961 -584.919 -2669.911 -0.497 -1.065 -1.071 -0.08 0.63 -0.77 0.08
1 1.84 184 0.235 -9.103 2.753 1.648 -9.827 4.669 -659.870 -644.880 -2789.982 -0.069 -0.481 -0.716 -0.08 0.62 -0.77 0.08
1 1.85 185 0.091 -9.481 2.725 -1.038 -10.864 1.740 -749.961 -779.942 -2669.911 0.073 -0.101 -0.676 -0.08 0.62 -0.77 0.08
1 1.86 186 0.062 -9.769 2.840 -1.678 -9.308 -0.824 -749.961 -779.942 -2669.911 0.102 0.188 -0.786 -0.08 0.62 -0.77 0.08
1 1.87 187 0.316 -9.807 2.615 3.784 -8.179 -2.838 -629.890 -734.971 -2669.911 -0.147 0.227 -0.557 -0.08 0.62 -0.77 0.08
1 1.88 188 0.824 -9.376 2.471 16.205 -8.850 -3.723 -629.890 -734.971 -2669.911 -0.638 -0.197 -0.384 -0.08 0.62 -0.77 0.08
1 1.89 189 0.972 -9.041 2.413 19.043 -9.277 -3.601 -824.913 -584.919 -2774.992 -0.773 -0.526 -0.297 -0.08 0.62 -0.78 0.08
1 1.90 190 1.197 -8.777 2.413 13.733 -8.606 -3.906 -734.971 -644.880 -2819.963 -0.983 -0.782 -0.268 -0.08 0.62 -0.78 0.08
1 1.91 191 1.288 -8.773 2.423 -0.549 -7.080 -5.798 -704.991 -659.870 -2669.911 -1.056 -0.782 -0.256 -0.08 0.62 -0.78 0.08
1 1.92 192 1.427 -8.864 2.112 -6.805 -7.843 -4.425 -690.000 -794.932 -2819.963 -1.176 -0.689 0.062 -0.08 0.62 -0.78 0.08
1 1.93 193 1.398 -8.998 2.117 -7.141 -6.348 -4.089 -690.000 -794.932 -2819.963 -1.128 -0.555 0.053 -0.08 0.62 -0.78 0.08
1 1.94 194 1.408 -9.055 1.844 -4.120 -3.906 -4.334 -629.890 -734.971 -2669.911 -1.119 -0.499 0.317 -0.09 0.62 -0.78 0.08
1 1.95 195 1.513 -8.883 1.681 -0.610 -2.411 -5.615 -629.890 -734.971 -2669.911 -1.190 -0.673 0.470 -0.09 0.62 -0.78 0.08
1 1.96 196 1.437 -8.792 1.633 -1.404 -2.106 -6.470 -674.860 -884.874 -2699.891 -1.094 -0.763 0.516 -0.09 0.62 -0.78 0.08
1 1.97 197 1.441 -8.787 1.595 -1.526 -0.031 -6.866 -854.893 -779.942 -2729.872 -1.079 -0.768 0.552 -0.09 0.62 -0.78 0.08
1 1.98 198 1.499 -8.768 1.341 -1.099 2.686 -6.775 -854.893 -779.942 -2729.872 -1.117 -0.788 0.801 -0.09 0.62 -0.78 0.08
1 1.99 199 1.456 -8.485 1.446 -0.092 5.737 -4.730 -749.961 -704.991 -2774.992 -1.056 -1.070 0.692 -0.09 0.62 -0.78 0.08
1 2.00 200 1.508 -8.576 1.384 -1.709 7.202 -3.632 -749.961 -704.991 -2774.992 -1.094 -0.979 0.753 -0.09 0.62 -0.78 0.08
1 2.01 201 1.465 -8.279 1.283 -5.524 9.918 -3.296 -704.991 -704.991 -2699.891 -1.047 -1.275 0.854 -0.09 0.62 -0.78 0.08
1 2.02 202 1.561 -8.418 1.130 -10.407 13.245 -2.716 -704.991 -704.991 -2699.891 -1.138 -1.140 0.992 -0.09 0.62 -0.78 0.08
1 2.03 203 1.537 -8.548 1.010 -14.374 17.151 1.251 -704.991 -734.971 -2669.911 -1.117 -1.014 1.095 -0.09 0.62 -0.78 0.08
1 2.04 204 1.695 -8.533 0.929 -14.587 20.874 4.456 -734.971 -599.909 -2714.881 -1.282 -1.033 1.157 -0.09 0.62 -0.78 0.08
1 2.05 205 1.757 -8.447 0.694 -15.015 24.567 6.042 -734.971 -599.909 -2714.881 -1.357 -1.124 1.373 -0.09 0.62 -0.77 0.07
1 2.06 206 2.002 -8.308 0.445 -18.921 28.656 8.545 -734.971 -719.981 -2789.982 -1.618 -1.268 1.603 -0.08 0.62 -0.77 0.07
1 2.07 207 2.236 -8.414 0.412 -25.543 29.816 8.789 -734.971 -719.981 -2789.982 -1.872 -1.168 1.613 -0.08 0.62 -0.77 0.07
1 2.08 208 2.409 -8.241 0.249 -30.701 30.182 8.301 -824.913 -539.948 -2699.891 -2.065 -1.348 1.744 -0.08 0.63 -0.77 0.07
1 2.09 209 2.476 -8.385 0.249 -33.600 32.379 7.690 -824.913 -539.948 -2699.891 -2.153 -1.213 1.703 -0.08 0.63 -0.77 0.07
1 2.10 210 2.179 -8.691 0.019 -34.638 40.466 5.402 -749.961 -659.870 -2669.911 -1.895 -0.927 1.838 -0.08 0.63 -0.77 0.07
1 2.11 211 1.719 -8.629 -0.053 -31.983 46.509 3.296 -659.870 -719.981 -2639.930 -1.439 -1.001 1.851 -0.07 0.63 -0.77 0.07
1 2.12 212 1.068 -8.734 0.148 -27.405 50.354 2.045 -659.870 -719.981 -2639.930 -0.797 -0.904 1.601 -0.07 0.64 -0.76 0.06
1 2.13 213 0.278 -8.658 0.412 -23.834 48.493 0.732 -779.942 -659.870 -2624.940 -0.022 -0.988 1.302 -0.07 0.64 -0.76 0.06
1 2.14 214 -0.680 -9.007 0.953 -32.105 33.386 -1.984 -779.942 -659.870 -2624.940 0.925 -0.644 0.728 -0.07 0.64 -0.76 0.06
1 2.15 215 -0.857 -9.453 0.915 -40.894 16.663 -2.960 -599.909 -539.948 -2444.907 1.094 -0.207 0.719 -0.06 0.64 -0.76 0.06
1 2.16 216 -0.546 -9.663 1.154 -46.021 -2.991 -4.639 -599.909 -539.948 -2444.907 0.774 -0.018 0.350 -0.06 0.65 -0.76 0.06
1 2.17 217 0.129 -10.157 1.484 -45.105 -14.862 -4.730 -449.857 -704.991 -2594.959 0.105 0.465 -0.049 -0.06 0.65 -0.75 0.06
1 2.18 218 0.824 -10.530 1.508 -31.342 -10.681 -0.732 -569.929 -584.919 -2369.956 -0.580 0.830 -0.133 -0.07 0.65 -0.75 0.06
1 2.19 219 0.838 -10.588 1.523 -16.052 0.977 3.754 -569.929 -584.919 -2369.956 -0.588 0.882 -0.186 -0.07 0.65 -0.75 0.06
1 2.20 220 0.575 -10.386 1.283 7.355 16.541 10.132 -569.929 -539.948 -2369.956 -0.328 0.679 0.038 -0.07 0.65 -0.75 0.06
1 2.21 221 0.268 -10.051 1.010 16.235 17.151 12.421 -569.929 -539.948 -2369.956 -0.034 0.344 0.317 -0.07 0.65 -0.75 0.06
1 2.22 222 0.273 -9.304 0.900 15.320 11.902 13.306 -599.909 -539.948 -2474.888 -0.058 -0.400 0.449 -0.06 0.65 -0.75 0.06
1 2.23 223 0.522 -9.079 0.809 3.967 4.395 13.184 -599.909 -539.948 -2474.888 -0.329 -0.623 0.562 -0.06 0.65 -0.75 0.06
1 2.24 224 1.398 -9.237 1.015 -21.240 -5.859 11.749 -659.870 -524.958 -2384.946 -1.239 -0.466 0.350 -0.06 0.65 -0.75 0.06
1 2.25 225 1.681 -9.970 1.944 -33.875 -9.399 8.057 -734.971 -494.978 -2279.865 -1.527 0.261 -0.618 -0.06 0.65 -0.75 0.06
1 2.26 226 1.346 -11.641 2.198 -50.781 -9.491 -2.380 -734.971 -494.978 -2279.865 -1.186 1.926 -0.924 -0.06 0.66 -0.75 0.06
1 2.27 227 0.244 -13.082 2.437 -71.198 -14.038 -25.910 -599.909 -509.968 -2339.976 -0.070 3.357 -1.247 -0.06 0.66 -0.75 0.06
1 2.28 228 -0.488 -13.485 2.073 -13.733 -30.487 -50.385 -614.899 -494.978 -2384.946 0.715 3.748 -0.984 -0.07 0.66 -0.74 0.06
1 2.29 229 -0.464 -11.833 1.820 47.913 -29.724 -45.288 -614.899 -569.929 -2279.865 0.770 2.093 -0.774 -0.07 0.66 -0.74 0.06
1 2.30 230 0.393 -9.338 0.943 90.882 -13.855 -34.882 -614.899 -569.929 -2279.865 -0.010 -0.393 0.151 -0.08 0.66 -0.74 0.06
1 2.31 231 1.384 -7.695 -0.120 73.212 11.047 -30.304 -764.952 -374.906 -2279.865 -0.896 -1.997 1.481 -0.08 0.65 -0.75 0.06
1 2.32 232 1.954 -8.141 0.493 -0.275 13.702 -19.470 -854.893 -434.867 -2369.956 -1.424 -1.537 0.955 -0.08 0.65 -0.76 0.05
1 2.33 233 2.480 -9.553 1.355 -83.802 -2.075 8.362 -854.893 -434.867 -2369.956 -1.933 -0.128 0.064 -0.08 0.65 -0.75 0.05
1 2.34 234 2.878 -12.173 2.126 -150.513 -18.036 32.135 -690.000 -599.909 -2279.865 -2.337 2.470 -0.860 -0.08 0.65 -0.75 0.05
1 2.35 235 2.811 -15.424 1.982 -158.478 -22.522 14.771 -629.890 -584.919 -2339.976 -2.316 5.690 -0.956 -0.08 0.66 -0.74 0.05
1 2.36 236 3.108 -17.253 2.231 -57.892 -9.827 -18.280 -674.860 -389.896 -2369.956 -2.642 7.495 -1.456 -0.08 0.67 -0.73 0.06
1 2.37 237 2.926 -15.726 3.745 66.010 6.439 -24.414 -674.860 -389.896 -2369.956 -2.441 5.959 -3.100 -0.09 0.68 -0.73 0.06
1 2.38 238 1.915 -12.991 4.324 127.472 22.308 -13.306 -749.961 -209.863 -2189.923 -1.392 3.231 -3.622 -0.09 0.68 -0.73 0.06
1 2.39 239 0.220 -10.171 3.481 82.459 29.541 -16.419 -869.883 -329.935 -2174.933 0.340 0.445 -2.421 -0.09 0.66 -0.74 0.05
1 2.40 240 -0.895 -9.649 3.429 24.292 19.287 -24.506 -869.883 -329.935 -2174.933 1.478 -0.063 -2.255 -0.09 0.66 -0.75 0.05
1 2.41 241 -1.705 -9.735 3.338 -12.390 7.355 -21.729 -749.961 -359.916 -2264.875 2.313 0.029 -2.126 -0.09 0.66 -0.75 0.05
1 2.42 242 -2.040 -9.362 3.026 -7.813 1.587 -14.343 -824.913 -359.916 -2294.855 2.661 -0.343 -1.816 -0.09 0.66 -0.75 0.05
1 2.43 243 -1.705 -8.466 2.528 40.222 5.585 -12.543 -1004.945 -539.948 -2264.875 2.328 -1.237 -1.303 -0.09 0.66 -0.75 0.05
1 2.44 244 -1.125 -8.495 2.447 53.223 4.486 -10.559 -1004.945 -539.948 -2264.875 1.748 -1.200 -1.160 -0.09 0.65 -0.75 0.05
1 2.45 245 -0.311 -8.572 2.696 29.114 -2.655 -7.660 -749.961 -434.867 -2339.976 0.935 -1.111 -1.320 -0.09 0.65 -0.75 0.05
1 2.46 246 0.292 -9.074 2.792 -18.646 -14.069 -6.287 -704.991 -539.948 -2294.855 0.342 -0.598 -1.349 -0.09 0.65 -0.76 0.05
1 2.47 247 1.322 -10.453 2.744 -58.808 -24.902 -4.730 -704.991 -539.948 -2294.855 -0.673 0.773 -1.361 -0.09 0.65 -0.75 0.05
1 2.48 248 1.757 -11.301 2.710 -40.711 -18.921 2.380 -779.942 -584.919 -2369.956 -1.097 1.611 -1.407 -0.09 0.65 -0.75 0.05
1 2.49 249 1.642 -11.287 2.701 -1.495 -3.326 11.780 -749.961 -464.997 -2339.976 -0.985 1.590 -1.444 -0.09 0.65 -0.75 0.05
1 2.50 250 0.431 -10.319 2.696 42.297 22.980 13.611 -854.893 -464.997 -2114.972 0.208 0.623 -1.426 -0.09 0.65 -0.75 0.06
1 2.51 251 -0.690 -9.649 2.610 42.603 24.597 9.674 -854.893 -464.997 -2114.972 1.305 -0.041 -1.281 -0.09 0.65 -0.75 0.06
1 2.52 252 -1.374 -8.979 1.987 30.426 12.543 7.660 -779.942 -539.948 -2339.976 1.966 -0.702 -0.581 -0.09 0.65 -0.75 0.06
1 2.53 253 -1.350 -8.509 1.748 15.625 -3.845 8.392 -929.994 -434.867 -2339.976 1.917 -1.164 -0.280 -0.09 0.65 -0.76 0.06
1 2.54 254 -0.474 -8.423 1.686 -3.174 -17.120 11.719 -929.994 -434.867 -2339.976 1.004 -1.245 -0.176 -0.09 0.64 -0.76 0.06
1 2.55 255 0.278 -8.619 1.619 -11.444 -15.472 13.947 -869.883 -449.857 -2249.884 0.240 -1.051 -0.117 -0.09 0.64 -0.76 0.06
1 2.56 256 0.819 -8.873 1.590 -15.137 -8.972 15.656 -779.942 -584.919 -2294.855 -0.318 -0.801 -0.107 -0.09 0.65 -0.76 0.06
1 2.57 257 0.800 -8.974 1.484 -11.627 2.991 15.564 -764.952 -674.860 -2279.865 -0.318 -0.704 -0.021 -0.09 0.65 -0.76 0.06
1 2.58 258 0.168 -8.964 1.432 -4.272 8.759 13.336 -764.952 -674.860 -2279.865 0.294 -0.717 0.015 -0.09 0.65 -0.75 0.07
1 2.59 259 -0.201 -9.070 1.365 2.808 9.644 10.925 -869.883 -569.929 -2354.966 0.642 -0.614 0.075 -0.09 0.65 -0.75 0.07
1 2.60 260 -0.498 -9.079 1.393 5.585 8.240 10.803 -854.893 -539.948 -2339.976 0.897 -0.604 0.061 -0.08 0.65 -0.75 0.07
1 2.61 261 -0.709 -8.912 1.331 4.974 4.852 10.376 -854.893 -539.948 -2339.976 1.085 -0.771 0.133 -0.08 0.65 -0.76 0.07
1 2.62 262 -1.053 -8.682 1.125 4.059 1.556 8.331 -614.899 -599.909 -2174.933 1.407 -1.001 0.346 -0.08 0.65 -0.76 0.07
1 2.63 263 -0.977 -8.777 1.216 5.219 -1.343 7.324 -764.952 -599.909 -2354.966 1.314 -0.905 0.261 -0.08 0.65 -0.76 0.07
1 2.64 264 -0.867 -8.581 1.121 8.057 -6.592 6.928 -929.994 -509.968 -2369.956 1.185 -1.100 0.366 -0.08 0.65 -0.76 0.07
1 2.65 265 -0.737 -8.342 1.020 7.690 -9.705 6.836 -929.994 -509.968 -2369.956 1.049 -1.338 0.479 -0.08 0.65 -0.76 0.07
1 2.66 266 -0.579 -8.260 0.718 3.479 -12.421 5.493 -734.971 -524.958 -2354.966 0.883 -1.418 0.793 -0.08 0.64 -0.76 0.07
1 2.67 267 -0.474 -8.260 0.450 -1.007 -17.029 3.418 -794.932 -569.929 -2354.966 0.774 -1.417 1.069 -0.08 0.64 -0.76 0.07
1 2.68 268 -0.268 -8.141 0.168 -1.312 -20.966 -1.099 -794.932 -569.929 -2354.966 0.570 -1.537 1.349 -0.09 0.64 -0.76 0.08
1 2.69 269 -0.393 -7.978 0.110 0.458 -22.614 -4.272 -690.000 -494.978 -2324.985 0.703 -1.699 1.405 -0.09 0.64 -0.76 0.08
1 2.70 270 -0.512 -7.992 0.120 0.641 -23.499 -5.157 -869.883 -599.909 -2384.946 0.837 -1.684 1.397 -0.09 0.64 -0.76 0.08
1 2.71 271 -0.464 -7.925 0.211 -4.852 -22.278 -4.639 -869.883 -599.909 -2384.946 0.803 -1.751 1.307 -0.09 0.64 -0.76 0.08
1 2.72 272 -0.953 -8.093 0.450 -19.135 -19.257 -3.296 -824.913 -464.997 -2264.875 1.303 -1.584 1.057 -0.09 0.64 -0.76 0.08
1 2.73 273 -1.168 -8.318 0.211 -24.170 -21.332 -4.334 -794.932 -494.978 -2354.966 1.529 -1.363 1.271 -0.09 0.64 -0.75 0.08
1 2.74 274 -1.077 -8.543 -0.034 -24.475 -27.893 -7.690 -929.994 -629.890 -2264.875 1.450 -1.142 1.481 -0.1 0.65 -0.75 0.08
1 2.75 275 -0.747 -8.883 0.120 -21.240 -33.753 -10.834 -929.994 -629.890 -2264.875 1.161 -0.811 1.258 -0.1 0.65 -0.75 0.08
1 2.76 276 -0.139 -9.141 0.541 -19.623 -33.325 -14.435 -690.000 -569.929 -2324.985 0.573 -0.557 0.797 -0.1 0.65 -0.75 0.09
1 2.77 277 -0.048 -9.405 0.824 -17.822 -28.565 -15.472 -1004.945 -539.948 -2294.855 0.508 -0.297 0.480 -0.11 0.65 -0.75 0.09
1 2.78 278 -0.129 -9.702 1.015 -15.625 -23.041 -15.167 -1004.945 -539.948 -2294.855 0.615 -0.003 0.259 -0.11 0.65 -0.75 0.09
1 2.79 279 -0.105 -9.893 1.240 -11.688 -21.057 -17.700 -869.883 -419.876 -2204.914 0.616 0.187 0.009 -0.11 0.65 -0.75 0.09
1 2.80 280 0.402 -9.979 1.283 -5.798 -21.973 -16.113 -974.965 -539.948 -2189.923 0.134 0.272 -0.052 -0.11 0.65 -0.74 0.09
1 2.81 281 0.996 -9.917 1.346 -1.282 -22.430 -11.322 -1034.926 -509.968 -2339.976 -0.434 0.210 -0.126 -0.12 0.65 -0.74 0.09
1 2.82 282 1.537 -9.864 1.307 -2.228 -19.287 -5.981 -1034.926 -509.968 -2339.976 -0.951 0.158 -0.091 -0.12 0.65 -0.74 0.09
1 2.83 283 1.896 -9.908 0.934 -10.040 -9.735 -5.402 -1094.887 -449.857 -2174.933 -1.271 0.202 0.271 -0.12 0.65 -0.74 0.09
1 2.84 284 1.791 -10.219 0.474 -12.909 -4.028 -6.287 -974.965 -584.919 -2159.943 -1.146 0.512 0.713 -0.12 0.65 -0.74 0.09
1 2.85 285 1.513 -10.449 0.230 -13.275 -1.740 -6.775 -974.965 -584.919 -2159.943 -0.848 0.741 0.934 -0.13 0.65 -0.74 0.09
1 2.86 286 1.221 -10.889 -0.043 -13.245 -0.092 -7.385 -929.994 -629.890 -2159.943 -0.537 1.180 1.181 -0.13 0.65 -0.74 0.09
1 2.87 287 0.651 -11.325 -0.263 -15.015 4.486 -8.118 -1064.906 -719.981 -2129.962 0.045 1.614 1.383 -0.13 0.65 -0.74 0.09
1 2.88 288 0.091 -11.861 -0.675 -14.160 5.096 -8.423 -1169.988 -494.978 -2204.914 0.617 2.149 1.774 -0.13 0.65 -0.74 0.09
1 2.89 289 -0.359 -11.732 -0.857 -8.301 3.113 -8.057 -1169.988 -494.978 -2204.914 1.080 2.018 1.937 -0.13 0.65 -0.74 0.09
1 2.90 290 -1.063 -11.933 0.283 3.143 2.106 -2.991 -1079.896 -464.997 -2084.992 1.807 2.220 0.782 -0.13 0.65 -0.74 0.09
1 2.91 291 -0.943 -13.743 1.374 -2.594 4.303 6.042 -1079.896 -539.948 -2219.904 1.690 4.031 -0.304 -0.13 0.65 -0.74 0.09
1 2.92 292 -0.345 -15.252 1.441 -40.436 -12.787 21.057 -1079.896 -539.948 -2219.904 1.077 5.536 -0.385 -0.13 0.66 -0.74 0.09
1 2.93 293 0.431 -13.274 0.627 -46.265 -36.255 22.522 -1064.906 -524.958 -2099.982 0.272 3.549 0.357 -0.13 0.66 -0.74 0.09
1 2.94 294 1.528 -12.163 0.388 44.678 -25.635 16.663 -1034.926 -434.867 -2084.992 -0.848 2.431 0.546 -0.13 0.66 -0.73 0.09
1 2.95 295 2.691 -11.799 1.341 53.711 -20.477 30.151 -1154.998 -539.948 -2114.972 -2.030 2.070 -0.362 -0.13 0.66 -0.74 0.1
1 2.96 296 2.955 -10.999 2.303 12.665 -3.021 36.499 -1154.998 -539.948 -2114.972 -2.329 1.277 -1.242 -0.13 0.65 -0.74 0.1
1 2.97 297 2.725 -11.138 2.322 -27.191 23.956 37.323 -1109.877 -509.968 -2159.943 -2.207 1.411 -1.248 -0.13 0.65 -0.74 0.11
1 2.98 298 1.719 -12.034 1.647 -47.241 20.905 23.438 -1004.945 -509.968 -2114.972 -1.253 2.297 -0.634 -0.13 0.66 -0.74 0.11
1 2.99 299 0.508 -12.436 0.766 -18.646 6.622 12.665 -1004.945 -509.968 -2114.972 -0.073 2.692 0.186 -0.13 0.66 -0.73 0.11
1 3.00 300 -0.144 -12.211 0.953 23.071 4.334 8.850 -1079.896 -509.968 -2039.871 0.562 2.465 -0.010 -0.12 0.66 -0.73 0.11
1 3.01 301 -0.541 -11.713 2.006 34.332 11.169 11.810 -944.984 -374.906 -2204.914 0.946 1.971 -1.018 -0.12 0.66 -0.73 0.11
1 3.02 302 -1.073 -10.487 2.959 22.919 11.627 9.735 -944.984 -449.857 -2099.982 1.460 0.751 -1.915 -0.12 0.66 -0.74 0.11
1 3.03 303 -1.135 -9.989 3.007 20.874 4.517 7.019 -944.984 -449.857 -2099.982 1.505 0.256 -1.922 -0.12 0.66 -0.74 0.11
1 3.04 304 -0.771 -9.548 3.141 29.144 -3.632 8.606 -944.984 -524.958 -1994.900 1.103 -0.174 -1.960 -0.12 0.65 -0.74 0.11
1 3.05 305 0.364 -9.127 3.122 39.002 -9.064 15.228 -1034.926 -509.968 -2189.923 -0.056 -0.588 -1.871 -0.12 0.65 -0.74 0.11
1 3.06 306 2.318 -7.959 3.730 49.713 -6.256 23.956 -1034.926 -509.968 -2189.923 -2.035 -1.746 -2.396 -0.12 0.65 -0.74 0.11
1 3.07 307 3.376 -7.432 3.864 49.256 3.265 26.154 -1004.945 -434.867 -2159.943 -3.114 -2.260 -2.437 -0.12 0.64 -0.75 0.12
1 3.08 308 3.405 -7.585 3.366 31.403 16.754 29.999 -974.965 -539.948 -2114.972 -3.159 -2.093 -1.847 -0.12 0.64 -0.75 0.12
1 3.09 309 2.935 -7.777 3.156 6.683 22.492 32.227 -869.883 -494.978 -2174.933 -2.711 -1.890 -1.563 -0.12 0.64 -0.75 0.12
1 3.10 310 1.101 -8.840 3.022 -20.050 26.825 26.306 -869.883 -494.978 -2174.933 -0.906 -0.822 -1.393 -0.11 0.64 -0.75 0.12
1 3.11 311 -0.077 -9.841 3.409 -33.722 27.466 13.031 -944.984 -524.958 -2279.865 0.241 0.177 -1.786 -0.11 0.64 -0.75 0.12
1 3.12 312 -1.044 -10.434 3.251 -0.885 18.066 -5.524 -839.903 -674.860 -2174.933 1.173 0.761 -1.689 -0.11 0.64 -0.75 0.12
1 3.13 313 -0.934 -10.142 3.074 41.107 11.566 -10.345 -839.903 -674.860 -2174.933 1.071 0.471 -1.496 -0.11 0.64 -0.75 0.12
1 3.14 314 -0.364 -9.338 3.338 72.846 9.003 -10.986 -764.952 -644.880 -2204.914 0.512 -0.320 -1.678 -0.11 0.64 -0.76 0.12
1 3.15 315 0.259 -8.481 3.591 76.630 12.054 -11.108 -764.952 -644.880 -2204.914 -0.101 -1.154 -1.806 -0.11 0.63 -0.76 0.11
1 3.16 316 0.718 -8.035 3.606 35.858 14.740 -10.956 -989.955 -494.978 -2099.982 -0.546 -1.576 -1.699 -0.11 0.63 -0.76 0.11
1 3.17 317 0.905 -8.414 3.467 3.662 10.712 -8.911 -989.955 -494.978 -2099.982 -0.716 -1.181 -1.478 -0.1 0.62 -0.77 0.11
1 3.18 318 1.058 -9.108 3.199 -11.932 4.425 -6.622 -869.883 -719.981 -2324.985 -0.853 -0.479 -1.179 -0.1 0.62 -0.77 0.11
1 3.19 319 1.317 -9.754 2.892 -7.141 2.502 -6.348 -899.864 -629.890 -2369.956 -1.079 0.167 -0.877 -0.11 0.62 -0.77 0.11
1 3.20 320 1.619 -9.740 2.471 23.590 7.446 -6.348 -899.864 -629.890 -2369.956 -1.362 0.156 -0.439 -0.11 0.62 -0.77 0.11
1 3.21 321 1.748 -9.228 2.643 46.723 11.047 -7.935 -944.984 -644.880 -2354.966 -1.473 -0.345 -0.562 -0.11 0.62 -0.77 0.11
1 3.22 322 1.604 -8.686 2.662 56.397 13.702 -11.444 -944.984 -644.880 -2354.966 -1.309 -0.868 -0.502 -0.11 0.62 -0.77 0.11
1 3.23 323 1.302 -8.404 2.749 42.664 14.923 -13.397 -854.893 -584.919 -2414.927 -0.982 -1.129 -0.500 -0.11 0.61 -0.78 0.11
1 3.24 324 0.747 -8.538 2.418 23.590 11.993 -11.841 -854.893 -584.919 -2414.927 -0.404 -0.976 -0.094 -0.11 0.61 -0.78 0.11
1 3.25 325 0.589 -8.859 2.447 8.667 6.622 -10.956 -899.864 -809.922 -2264.875 -0.229 -0.644 -0.078 -0.11 0.61 -0.78 0.11
1 3.26 326 0.637 -9.199 2.442 4.913 2.197 -9.949 -839.903 -794.932 -2324.985 -0.260 -0.298 -0.052 -0.11 0.61 -0.78 0.1
1 3.27 327 1.030 -9.247 2.078 18.616 4.089 -6.073 -839.903 -794.932 -2324.985 -0.622 -0.242 0.338 -0.11 0.6 -0.78 0.1
1 3.28 328 1.178 -9.223 1.647 29.724 8.606 -3.418 -1004.945 -809.922 -2414.927 -0.760 -0.257 0.800 -0.11 0.6 -0.78 0.1
1 3.29 329 1.580 -8.792 1.642 32.318 13.184 -2.686 -1004.945 -809.922 -2414.927 -1.155 -0.677 0.847 -0.11 0.6 -0.79 0.1
1 3.30 330 1.757 -8.260 1.614 20.386 15.625 0.122 -1079.896 -734.971 -2519.858 -1.325 -1.197 0.918 -0.11 0.6 -0.79 0.1
1 3.31 331 1.772 -8.145 1.341 10.040 14.923 3.082 -1079.896 -734.971 -2519.858 -1.333 -1.303 1.222 -0.11 0.6 -0.79 0.1
1 3.32 332 1.647 -8.021 1.006 2.869 16.083 4.608 -839.903 -869.883 -2384.946 -1.217 -1.423 1.577 -0.1 0.6 -0.79 0.1
1 3.33 333 1.580 -7.992 0.723 -0.061 18.982 4.913 -824.913 -704.991 -2519.858 -1.162 -1.450 1.869 -0.1 0.6 -0.79 0.1
1 3.34 334 1.398 -8.069 0.843 -3.235 22.400 6.744 -824.913 -704.991 -2519.858 -1.010 -1.373 1.752 -0.1 0.6 -0.79 0.1
1 3.35 335 0.948 -8.270 0.761 -9.918 27.863 10.162 -869.883 -794.932 -2459.897 -0.582 -1.175 1.827 -0.1 0.6 -0.79 0.1
1 3.36 336 0.603 -8.356 0.570 -13.519 28.626 11.414 -869.883 -794.932 -2459.897 -0.262 -1.093 2.006 -0.1 0.6 -0.79 0.1
1 3.37 337 0.551 -8.481 0.378 -15.961 24.384 12.421 -704.991 -884.874 -2474.888 -0.237 -0.975 2.179 -0.09 0.6 -0.79 0.1
1 3.38 338 0.742 -8.825 0.402 -20.508 23.895 12.482 -824.913 -809.922 -2444.907 -0.454 -0.637 2.133 -0.09 0.6 -0.79 0.1
1 3.39 339 0.479 -8.883 0.613 -21.759 28.839 13.489 -824.913 -929.994 -2369.956 -0.217 -0.587 1.896 -0.09 0.6 -0.79 0.1
1 3.40 340 0.120 -8.854 0.594 -18.494 33.325 14.801 -690.000 -839.903 -2534.999 0.118 -0.627 1.873 -0.09 0.61 -0.79 0.1
1 3.41 341 -0.201 -8.864 0.599 -13.001 32.715 13.794 -690.000 -839.903 -2534.999 0.375 -0.637 1.800 -0.08 0.61 -0.78 0.09
1 3.42 342 -0.201 -8.959 0.795 -7.996 20.142 11.200 -824.913 -704.991 -2339.976 0.346 -0.547 1.580 -0.08 0.61 -0.78 0.09
1 3.43 343 0.072 -8.720 0.814 -10.468 11.688 10.162 -824.913 -704.991 -2339.976 0.049 -0.792 1.539 -0.08 0.61 -0.78 0.09
1 3.44 344 0.115 -8.586 1.030 -13.153 9.277 8.637 -854.893 -779.942 -2369.956 -0.011 -0.930 1.309 -0.08 0.61 -0.78 0.09
1 3.45 345 0.182 -8.686 1.149 -15.259 9.186 6.348 -749.961 -659.870 -2339.976 -0.092 -0.834 1.171 -0.08 0.61 -0.78 0.09
1 3.46 346 -0.340 -8.811 1.269 -11.292 8.514 5.249 -779.942 -854.893 -2219.904 0.418 -0.715 1.030 -0.08 0.61 -0.78 0.09
1 3.47 347 -0.522 -8.754 1.006 -5.127 3.754 4.669 -599.909 -809.922 -2294.855 0.589 -0.778 1.272 -0.08 0.61 -0.78 0.09
1 3.48 348 -0.273 -8.514 0.608 -0.916 -3.357 3.876 -599.909 -809.922 -2294.855 0.322 -1.022 1.649 -0.08 0.62 -0.78 0.09
1 3.49 349 0.067 -8.466 0.302 -1.556 -7.599 2.930 -704.991 -884.874 -2369.956 -0.019 -1.070 1.956 -0.08 0.62 -0.78 0.09
1 3.50 350 0.680 -8.524 0.206 -17.365 -8.362 1.526 -704.991 -884.874 -2369.956 -0.631 -1.015 2.042 -0.08 0.62 -0.78 0.1
1 3.51 351 0.939 -8.610 0.086 -32.837 -9.430 2.960 -674.860 -779.942 -2264.875 -0.888 -0.936 2.132 -0.08 0.62 -0.78 0.1
1 3.52 352 1.073 -8.945 1.192 -44.006 -13.672 7.080 -629.890 -779.942 -2339.976 -1.023 -0.612 0.974 -0.08 0.62 -0.78 0.1
1 3.53 353 0.215 -9.917 2.476 -48.248 -5.981 3.967 -674.860 -704.991 -2294.855 -0.165 0.345 -0.377 -0.08 0.62 -0.77 0.1
1 3.54 354 -1.456 -11.876 3.529 -67.688 1.068 -17.304 -690.000 -794.932 -2249.884 1.508 2.288 -1.501 -0.08 0.62 -0.77 0.1
1 3.55 355 -2.337 -14.098 3.548 -82.978 -17.883 -40.253 -690.000 -794.932 -2249.884 2.407 4.492 -1.607 -0.08 0.63 -0.77 0.1
1 3.56 356 -2.112 -15.151 1.743 -29.816 -80.963 -58.777 -674.860 -584.919 -2159.943 2.329 5.506 -0.019 -0.09 0.64 -0.76 0.09
1 3.57 357 0.254 -13.116 1.020 37.262 -99.640 -50.995 -674.860 -584.919 -2159.943 0.074 3.470 0.682 -0.1 0.63 -0.76 0.09
1 3.58 358 3.012 -10.559 1.010 88.654 -84.107 -25.635 -690.000 -494.978 -2174.933 -2.589 0.930 0.765 -0.11 0.63 -0.76 0.1
1 3.59 359 4.683 -8.988 2.313 81.604 -39.398 1.038 -854.893 -584.919 -2114.972 -4.211 -0.613 -0.406 -0.11 0.62 -0.77 0.1
1 3.60 360 4.587 -10.195 4.793 -49.744 3.998 13.947 -1079.896 -659.870 -2219.904 -4.084 0.615 -2.788 -0.11 0.62 -0.77 0.1
1 3.61 361 2.725 -12.752 4.401 -144.562 -19.959 5.951 -914.854 -644.880 -2279.865 -2.241 3.165 -2.426 -0.11 0.62 -0.77 0.1
1 3.62 362 1.561 -14.476 3.060 -146.302 -57.373 -10.284 -914.854 -644.880 -2279.865 -1.086 4.853 -1.268 -0.12 0.63 -0.76 0.1
1 3.63 363 2.150 -14.481 2.801 -57.129 -67.597 -20.233 -974.965 -584.919 -2189.923 -1.607 4.801 -1.367 -0.13 0.64 -0.75 0.1
1 3.64 364 3.108 -12.010 3.438 80.445 -21.698 -10.132 -974.965 -584.919 -2189.923 -2.528 2.337 -1.973 -0.13 0.64 -0.75 0.11
1 3.65 365 2.380 -9.979 3.601 93.994 17.029 -10.834 -989.955 -524.958 -2069.852 -1.783 0.329 -2.004 -0.13 0.63 -0.75 0.11
1 3.66 366 0.752 -8.821 3.735 48.340 29.724 -24.994 -944.984 -419.876 -1994.900 -0.138 -0.807 -2.009 -0.13 0.63 -0.76 0.11
1 3.67 367 -1.695 -9.520 3.601 -32.959 2.441 -34.271 -1109.877 -464.997 -2114.972 2.349 -0.093 -1.808 -0.13 0.63 -0.76 0.1
1 3.68 368 -1.872 -10.626 3.251 -52.368 -17.517 -25.299 -1094.887 -449.857 -1994.900 2.567 1.013 -1.474 -0.13 0.63 -0.76 0.1
1 3.69 369 -1.393 -11.550 2.820 -45.044 -24.231 -17.059 -1094.887 -449.857 -1994.900 2.124 1.928 -1.109 -0.13 0.63 -0.76 0.1
1 3.70 370 -0.287 -12.015 2.409 -20.569 -20.386 -11.108 -974.965 -584.919 -2159.943 1.054 2.383 -0.770 -0.14 0.63 -0.76 0.1
1 3.71 371 0.833 -11.119 2.485 14.130 -10.712 0.153 -974.965 -584.919 -2159.943 -0.027 1.484 -0.889 -0.14 0.63 -0.76 0.1
1 3.72 372 1.322 -10.310 2.667 16.968 -6.165 8.942 -1139.857 -524.958 -2099.982 -0.515 0.678 -1.047 -0.14 0.63 -0.76 0.1
1 3.73 373 1.197 -9.687 2.485 3.754 -4.059 15.259 -1034.926 -629.890 -2114.972 -0.402 0.059 -0.840 -0.14 0.63 -0.76 0.1
1 3.74 374 0.924 -9.132 2.275 -12.390 -2.899 17.181 -1079.896 -629.890 -2039.871 -0.147 -0.497 -0.623 -0.14 0.63 -0.76 0.11
1 3.75 375 0.335 -9.184 1.815 -21.607 1.495 14.191 -1019.936 -524.958 -2204.914 0.422 -0.448 -0.179 -0.14 0.63 -0.76 0.11
1 3.76 376 0.000 -9.395 1.690 -17.456 2.228 12.939 -1019.936 -524.958 -2204.914 0.735 -0.244 -0.082 -0.14 0.63 -0.76 0.11
1 3.77 377 0.043 -9.242 1.633 -10.986 -0.183 11.749 -1139.857 -644.880 -2069.852 0.670 -0.403 -0.049 -0.14 0.63 -0.75 0.11
1 3.78 378 0.038 -9.189 1.551 -5.859 -2.991 9.003 -1139.857 -644.880 -2069.852 0.634 -0.462 0.009 -0.14 0.63 -0.75 0.11
1 3.79 379 0.455 -8.672 1.671 -4.608 -0.397 5.951 -929.994 -464.997 -1964.920 0.205 -0.981 -0.114 -0.14 0.63 -0.75 0.11
1 3.80 380 0.474 -8.706 1.753 -10.986 4.730 6.561 -1199.968 -494.978 -2069.852 0.176 -0.949 -0.201 -0.14 0.63 -0.75 0.11
1 3.81 381 0.268 -8.777 1.925 -17.914 10.803 8.270 -1199.968 -494.978 -2069.852 0.371 -0.880 -0.388 -0.14 0.63 -0.75 0.11
1 3.82 382 -0.436 -9.041 1.796 -21.790 14.008 11.108 -1094.887 -419.876 -2129.962 1.058 -0.621 -0.281 -0.14 0.64 -0.75 0.11
1 3.83 383 -0.637 -9.151 1.733 -16.022 11.658 10.681 -1094.887 -419.876 -2129.962 1.238 -0.517 -0.245 -0.14 0.64 -0.75 0.11
1 3.84 384 -0.656 -9.055 1.590 -7.813 5.829 9.338 -1079.896 -464.997 -2084.992 1.232 -0.617 -0.123 -0.14 0.64 -0.75 0.11
1 3.85 385 -0.508 -8.873 1.341 0.122 1.251 8.423 -1079.896 -464.997 -2084.992 1.039 -0.803 0.117 -0.13 0.64 -0.75 0.11
1 3.86 386 -0.134 -8.567 1.403 8.118 2.441 7.751 -1079.896 -434.867 -2159.943 0.647 -1.109 0.064 -0.13 0.64 -0.75 0.12
1 3.87 387 -0.172 -8.270 1.226 7.843 4.364 7.141 -974.965 -464.997 -2114.972 0.672 -1.405 0.256 -0.13 0.64 -0.75 0.12
1 3.88 388 -0.254 -8.141 1.188 4.547 3.906 4.547 -974.965 -464.997 -2114.972 0.744 -1.532 0.306 -0.13 0.64 -0.75 0.12
1 3.89 389 -0.474 -8.251 1.192 0.824 -1.587 2.502 -1019.936 -419.876 -1874.979 0.959 -1.422 0.308 -0.13 0.64 -0.75 0.12
1 3.90 390 -0.374 -8.279 0.977 -1.984 -3.540 1.801 -1019.936 -419.876 -1874.979 0.856 -1.392 0.527 -0.13 0.64 -0.75 0.12
1 3.91 391 -0.374 -8.303 0.881 -2.777 -5.432 -0.031 -1169.988 -299.955 -2099.982 0.855 -1.369 0.622 -0.13 0.64 -0.75 0.12
1 3.92 392 -0.326 -8.131 0.613 1.007 -9.460 -1.648 -1169.988 -299.955 -2099.982 0.814 -1.541 0.888 -0.13 0.64 -0.75 0.12
1 3.93 393 -0.139 -8.327 0.570 7.233 -10.712 -2.167 -1094.887 -449.857 -2069.852 0.634 -1.343 0.941 -0.13 0.64 -0.75 0.12
1 3.94 394 -0.014 -8.016 0.608 7.660 -8.484 -1.312 -1019.936 -374.906 -2024.881 0.516 -1.652 0.916 -0.14 0.64 -0.75 0.12
1 3.95 395 -0.244 -7.805 0.685 0.671 -6.897 -2.930 -1019.936 -374.906 -2024.881 0.751 -1.861 0.849 -0.14 0.63 -0.75 0.12
1 3.96 396 -0.776 -8.064 0.575 -9.338 -9.705 -5.066 -1019.936 -449.857 -2174.933 1.290 -1.602 0.958 -0.14 0.63 -0.75 0.12
1 3.97 397 -1.001 -8.050 0.402 -12.451 -12.634 -5.615 -1019.936 -449.857 -2174.933 1.525 -1.617 1.119 -0.14 0.64 -0.75 0.12
1 3.98 398 -1.106 -8.414 0.431 -14.740 -15.991 -6.714 -1139.857 -494.978 -2069.852 1.643 -1.255 1.073 -0.14 0.64 -0.75 0.12
1 3.99 399 -1.226 -8.907 0.532 -18.463 -18.494 -7.568 -1139.857 -494.978 -2069.852 1.777 -0.765 0.952 -0.14 0.64 -0.75 0.12
1 4.00 400 -0.781 -9.831 0.656 -29.785 -22.492 -5.585 -1154.998 -539.948 -2039.871 1.350 0.151 0.761 -0.14 0.64 -0.75 0.12
1 4.01 401 -0.441 -10.468 0.838 -33.844 -23.895 -4.364 -989.955 -569.929 -2174.933 1.014 0.780 0.526 -0.15 0.64 -0.74 0.12
1 4.02 402 -0.192 -11.081 0.891 -27.771 -22.461 -4.852 -989.955 -569.929 -2174.933 0.770 1.386 0.418 -0.15 0.64 -0.74 0.13
1 4.03 403 -0.096 -11.114 0.881 -7.751 -19.379 -7.050 -1064.906 -419.876 -1874.979 0.688 1.415 0.392 -0.15 0.64 -0.74 0.13
1 4.04 404 0.115 -10.449 0.953 23.651 -18.433 -9.399 -1019.936 -374.906 -1949.930 0.494 0.751 0.318 -0.15 0.64 -0.74 0.13
1 4.05 405 0.292 -9.965 0.905 30.548 -19.013 -9.033 -1079.896 -314.945 -2039.871 0.335 0.272 0.395 -0.15 0.64 -0.74 0.13
1 4.06 406 0.479 -9.548 0.771 24.536 -20.905 -5.859 -1079.896 -314.945 -2039.871 0.162 -0.138 0.568 -0.15 0.64 -0.74 0.13
1 4.07 407 0.752 -9.285 0.488 10.345 -21.332 -2.899 -1154.998 -509.968 -1964.920 -0.087 -0.393 0.902 -0.16 0.64 -0.74 0.13
1 4.08 408 1.207 -9.371 0.144 -11.658 -19.013 1.038 -1184.978 -314.945 -2039.871 -0.535 -0.308 1.237 -0.16 0.64 -0.74 0.13
1 4.09 409 1.250 -9.735 -0.062 -20.416 -15.228 0.977 -1184.978 -314.945 -2039.871 -0.570 0.052 1.412 -0.16 0.64 -0.74 0.13
1 4.10 410 1.135 -10.358 -0.441 -22.644 -9.674 -0.031 -1109.877 -464.997 -2009.891 -0.447 0.670 1.749 -0.16 0.64 -0.74 0.13
1 4.11 411 0.441 -11.239 -0.709 -15.106 -5.005 -1.221 -1199.968 -374.906 -2069.852 0.254 1.546 1.973 -0.16 0.64 -0.74 0.13
1 4.12 412 -0.215 -11.464 -0.752 -8.667 -5.066 -1.068 -1169.988 -449.857 -1994.900 0.915 1.767 1.984 -0.16 0.64 -0.74 0.13
1 4.13 413 -0.623 -11.320 -0.445 1.251 -6.561 -1.160 -1169.988 -449.857 -1994.900 1.326 1.622 1.663 -0.16 0.64 -0.74 0.13
1 4.14 414 -0.651 -11.703 1.480 12.421 -1.282 0.366 -1259.929 -284.964 -2114.972 1.358 2.005 -0.263 -0.17 0.64 -0.74 0.13
1 4.15 415 0.623 -15.678 2.308 -24.567 -7.568 24.414 -1079.896 -314.945 -1964.920 0.075 5.982 -1.063 -0.17 0.64 -0.74 0.14
1 4.16 416 1.077 -13.561 1.920 -60.944 -24.384 37.750 -1079.896 -314.945 -1964.920 -0.420 3.855 -0.734 -0.17 0.64 -0.74 0.14
1 4.17 417 0.532 -11.196 0.800 6.042 -16.937 27.557 -1169.988 -419.876 -1994.900 0.077 1.478 0.313 -0.17 0.64 -0.73 0.14
1 4.18 418 1.144 -11.066 0.872 71.167 -13.245 20.142 -1304.900 -284.964 -1904.959 -0.569 1.351 0.281 -0.17 0.64 -0.73 0.14
1 4.19 419 2.337 -10.621 2.586 33.417 -26.123 31.494 -1259.929 -359.916 -2009.891 -1.788 0.918 -1.326 -0.16 0.64 -0.74 0.15
1 4.20 420 2.385 -11.244 3.515 -26.001 1.801 37.659 -1259.929 -359.916 -2009.891 -1.873 1.547 -2.187 -0.16 0.64 -0.74 0.15
1 4.21 421 2.246 -13.422 2.849 -78.858 25.910 43.305 -1169.988 -299.955 -2069.852 -1.785 3.722 -1.537 -0.16 0.64 -0.74 0.15
1 4.22 422 1.135 -14.088 1.164 -54.688 20.813 28.839 -974.965 -434.867 -2084.992 -0.805 4.354 -0.075 -0.16 0.65 -0.73 0.15
1 4.23 423 -0.177 -12.604 -0.062 31.952 11.810 3.571 -974.965 -434.867 -2084.992 0.471 2.863 1.103 -0.16 0.65 -0.73 0.15
1 4.24 424 -0.536 -12.101 1.001 85.419 7.965 -12.665 -1109.877 -314.945 -2009.891 0.832 2.369 0.115 -0.16 0.65 -0.73 0.15
1 4.25 425 -1.168 -11.464 2.533 71.015 12.451 -9.735 -1004.945 -314.945 -1934.939 1.483 1.749 -1.287 -0.16 0.64 -0.74 0.15
1 4.26 426 -2.174 -10.736 3.146 -3.693 10.986 -0.031 -1109.877 -389.896 -1934.939 2.499 1.033 -1.810 -0.15 0.64 -0.74 0.15
1 4.27 427 -1.700 -10.674 2.543 -25.513 -6.531 1.373 -1109.877 -389.896 -1934.939 2.025 0.973 -1.193 -0.15 0.64 -0.74 0.15
1 4.28 428 0.062 -10.712 2.294 -14.313 -25.055 6.134 -1109.877 -389.896 -2039.871 0.263 1.006 -0.976 -0.15 0.64 -0.74 0.15
1 4.29 429 3.271 -10.228 3.414 25.604 -17.426 17.426 -1034.926 -464.997 -1964.920 -2.959 0.520 -2.117 -0.16 0.64 -0.74 0.15
1 4.30 430 4.334 -9.486 3.931 45.715 8.850 19.928 -1034.926 -464.997 -1964.920 -4.047 -0.217 -2.586 -0.16 0.64 -0.74 0.16
1 4.31 431 3.855 -8.825 3.381 56.397 30.640 18.677 -1199.968 -419.876 -1919.949 -3.600 -0.868 -1.960 -0.15 0.64 -0.74 0.16
1 4.32 432 2.409 -8.117 2.883 56.366 36.774 16.266 -1229.949 -314.945 -2114.972 -2.158 -1.561 -1.358 -0.15 0.63 -0.74 0.16
1 4.33 433 0.623 -7.944 2.672 28.351 27.344 7.263 -1064.906 -254.984 -2129.962 -0.382 -1.718 -1.053 -0.15 0.63 -0.75 0.16
1 4.34 434 -0.125 -8.552 2.921 -3.815 18.707 -2.625 -1064.906 -254.984 -2129.962 0.345 -1.101 -1.248 -0.15 0.63 -0.75 0.16
1 4.35 435 -0.177 -9.232 2.801 -25.269 13.062 -12.726 -1064.906 -449.857 -2099.982 0.394 -0.420 -1.120 -0.14 0.63 -0.75 0.16
1 4.36 436 -0.010 -9.673 2.255 -22.736 6.317 -20.325 -989.955 -299.955 -2129.962 0.260 0.013 -0.622 -0.15 0.63 -0.75 0.15
1 4.37 437 0.196 -9.817 2.102 0.061 4.395 -25.879 -989.955 -299.955 -2129.962 0.089 0.157 -0.472 -0.15 0.63 -0.75 0.15
1 4.38 438 0.378 -9.505 1.906 37.140 8.057 -24.597 -1079.896 -434.867 -2114.972 -0.054 -0.147 -0.243 -0.15 0.63 -0.75 0.15
1 4.39 439 0.441 -8.816 2.078 45.715 8.667 -18.951 -869.883 -449.857 -1994.900 -0.083 -0.824 -0.351 -0.15 0.62 -0.75 0.15
1 4.40 440 0.306 -7.973 2.126 32.990 7.813 -14.099 -1019.936 -419.876 -2129.962 0.076 -1.653 -0.328 -0.15 0.62 -0.76 0.15
1 4.41 441 0.393 -7.820 2.064 17.334 6.653 -12.909 -1019.936 -419.876 -2129.962 0.010 -1.795 -0.208 -0.15 0.62 -0.76 0.15
1 4.42 442 0.809 -7.801 1.791 1.190 4.639 -11.780 -899.864 -539.948 -2189.923 -0.388 -1.806 0.098 -0.15 0.62 -0.76 0.15
1 4.43 443 1.073 -8.021 1.628 -10.742 4.028 -10.681 -1064.906 -524.958 -2129.962 -0.634 -1.584 0.270 -0.15 0.62 -0.76 0.14
1 4.44 444 1.269 -8.370 1.528 -13.886 7.019 -8.911 -1064.906 -524.958 -2129.962 -0.799 -1.238 0.340 -0.15 0.62 -0.76 0.14
1 4.45 445 1.331 -8.356 1.542 -5.127 10.437 -7.355 -1079.896 -389.896 -2264.875 -0.850 -1.255 0.310 -0.15 0.62 -0.76 0.14
1 4.46 446 1.279 -8.323 1.619 6.104 13.580 -7.019 -1064.906 -494.978 -2174.933 -0.788 -1.289 0.232 -0.15 0.62 -0.76 0.14
1 4.47 447 1.125 -8.337 1.590 14.740 15.961 -7.965 -1064.906 -494.978 -2174.933 -0.626 -1.271 0.276 -0.15 0.62 -0.76 0.14
1 4.48 448 0.872 -8.461 1.403 14.038 14.069 -8.087 -1034.926 -284.964 -2264.875 -0.364 -1.141 0.489 -0.15 0.62 -0.76 0.14
1 4.49 449 0.852 -8.433 1.446 7.996 9.399 -5.707 -1019.936 -524.958 -2174.933 -0.336 -1.164 0.471 -0.15 0.62 -0.76 0.14
1 4.50 450 1.001 -8.682 1.408 0.854 5.768 -2.014 -1079.896 -509.968 -2159.943 -0.477 -0.911 0.526 -0.15 0.62 -0.76 0.14
1 4.51 451 1.197 -8.615 1.168 -0.458 4.547 1.221 -1079.896 -509.968 -2159.943 -0.666 -0.977 0.769 -0.15 0.62 -0.76 0.14
1 4.52 452 1.537 -8.481 0.828 8.057 12.939 4.242 -1079.896 -509.968 -2339.976 -1.012 -1.110 1.116 -0.15 0.62 -0.76 0.14
1 4.53 453 1.604 -8.284 0.613 12.848 20.050 6.928 -944.984 -374.906 -2249.884 -1.089 -1.304 1.348 -0.14 0.62 -0.76 0.14
1 4.54 454 1.676 -7.973 0.292 13.275 27.374 9.949 -944.984 -374.906 -2249.884 -1.178 -1.611 1.691 -0.14 0.62 -0.76 0.14
1 4.55 455 1.417 -7.671 0.120 2.197 33.020 12.024 -914.854 -419.876 -2354.966 -0.943 -1.910 1.885 -0.14 0.61 -0.76 0.13
1 4.56 456 1.183 -7.513 -0.048 -8.911 32.684 12.207 -989.955 -599.909 -2249.884 -0.735 -2.067 2.064 -0.14 0.62 -0.76 0.13
1 4.57 457 1.030 -7.628 -0.024 -20.447 29.297 13.092 -989.955 -374.906 -2324.985 -0.608 -1.954 2.034 -0.13 0.62 -0.76 0.13
1 4.58 458 1.068 -7.848 -0.144 -28.168 22.644 15.839 -989.955 -374.906 -2324.985 -0.673 -1.740 2.131 -0.13 0.62 -0.76 0.13
1 4.59 459 1.269 -8.241 0.034 -39.246 16.205 18.341 -854.893 -434.867 -2339.976 -0.933 -1.366 1.871 -0.13 0.62 -0.76 0.13
1 4.60 460 1.183 -8.447 0.067 -43.762 18.555 18.372 -824.913 -284.964 -2219.904 -0.877 -1.172 1.780 -0.13 0.62 -0.76 0.13
1 4.61 461 1.058 -8.414 0.263 -39.154 22.125 17.365 -824.913 -284.964 -2219.904 -0.784 -1.219 1.522 -0.13 0.63 -0.76 0.13
1 4.62 462 0.512 -8.624 0.541 -25.421 25.726 15.015 -1004.945 -314.945 -2189.923 -0.268 -1.018 1.193 -0.12 0.63 -0.76 0.13
1 4.63 463 0.010 -8.988 1.106 -10.437 21.515 9.857 -974.965 -314.945 -2189.923 0.209 -0.660 0.598 -0.12 0.63 -0.76 0.13
1 4.64 464 -0.120 -9.199 1.355 -13.184 14.221 8.301 -854.893 -284.964 -2219.904 0.318 -0.452 0.334 -0.12 0.63 -0.75 0.13
1 4.65 465 -0.158 -9.357 1.446 -22.369 3.296 6.348 -854.893 -284.964 -2219.904 0.339 -0.298 0.224 -0.12 0.63 -0.75 0.13
1 4.66 466 0.273 -9.620 1.427 -31.159 -15.625 3.143 -944.984 -299.955 -2249.884 -0.111 -0.047 0.171 -0.12 0.64 -0.75 0.13
1 4.67 467 1.173 -9.855 1.231 -25.238 -23.560 1.495 -839.903 -299.955 -2174.933 -1.008 0.180 0.322 -0.12 0.64 -0.75 0.13
1 4.68 468 1.470 -9.788 0.824 -15.595 -20.874 0.488 -839.903 -299.955 -2174.933 -1.294 0.108 0.693 -0.12 0.64 -0.75 0.13
1 4.69 469 1.360 -9.663 0.120 -6.775 -5.768 2.899 -749.961 -359.916 -1964.920 -1.171 -0.020 1.373 -0.12 0.64 -0.75 0.13
1 4.70 470 0.809 -8.931 -0.814 5.096 17.792 7.904 -929.994 -119.922 -2084.992 -0.615 -0.755 2.294 -0.12 0.64 -0.75 0.13
1 4.71 471 0.330 -8.572 -0.809 6.500 23.560 10.315 -779.942 -389.896 -2114.972 -0.141 -1.115 2.282 -0.12 0.64 -0.75 0.13
1 4.72 472 0.436 -8.490 0.670 -1.770 21.423 12.054 -779.942 -389.896 -2114.972 -0.263 -1.196 0.807 -0.12 0.64 -0.75 0.13
1 4.73 473 0.235 -9.381 2.945 -22.339 18.158 13.306 -899.864 -284.964 -2114.972 -0.104 -0.309 -1.484 -0.12 0.64 -0.75 0.13
1 4.74 474 -1.834 -13.245 3.845 -115.357 -1.404 -6.836 -659.870 -179.883 -2174.933 1.951 3.543 -2.467 -0.12 0.64 -0.74 0.13
1 4.75 475 -2.452 -15.185 1.346 -138.245 -37.201 -38.391 -659.870 -179.883 -2174.933 2.594 5.458 -0.157 -0.12 0.65 -0.74 0.13
1 4.76 476 -1.125 -15.989 0.613 -68.604 -72.754 -63.599 -659.870 -494.978 -2129.962 1.345 6.243 0.389 -0.13 0.66 -0.73 0.12
1 4.77 477 2.701 -13.695 2.969 76.111 -52.368 -55.115 -779.942 -89.941 -2009.891 -2.371 3.946 -2.033 -0.13 0.66 -0.73 0.12
1 4.78 478 3.539 -12.168 3.529 111.756 3.815 -34.973 -869.883 -179.883 -1994.900 -3.109 2.430 -2.513 -0.14 0.65 -0.73 0.12
1 4.79 479 2.696 -11.363 2.902 77.179 33.814 -24.811 -869.883 -179.883 -1994.900 -2.204 1.647 -1.724 -0.14 0.65 -0.74 0.12
1 4.80 480 2.337 -10.516 2.538 18.707 9.277 -21.545 -1064.906 -74.951 -1919.949 -1.780 0.828 -1.171 -0.14 0.64 -0.75 0.12
1 4.81 481 3.381 -10.343 3.812 -17.212 -23.560 -15.991 -1079.896 -164.893 -2114.972 -2.792 0.655 -2.459 -0.14 0.64 -0.74 0.12
1 4.82 482 4.396 -11.488 5.406 -46.021 -16.937 -7.233 -1079.896 -164.893 -2114.972 -3.784 1.794 -4.105 -0.15 0.64 -0.74 0.12
1 4.83 483 3.002 -12.460 4.262 -49.622 8.209 -15.350 -974.965 -239.994 -2114.972 -2.375 2.758 -3.032 -0.15 0.64 -0.74 0.12
1 4.84 484 0.235 -12.972 3.242 2.350 29.266 -37.537 -1109.877 -89.941 -2114.972 0.420 3.264 -2.076 -0.15 0.65 -0.74 0.12
1 4.85 485 -0.919 -12.479 3.553 45.593 31.372 -42.572 -1109.877 -209.863 -2009.891 1.622 2.773 -2.397 -0.15 0.65 -0.74 0.11
1 4.86 486 -1.748 -11.751 3.486 59.570 25.848 -38.971 -1109.877 -209.863 -2009.891 2.509 2.056 -2.272 -0.15 0.64 -0.74 0.11
1 4.87 487 -1.906 -11.047 3.218 42.603 14.832 -33.295 -1019.936 -179.883 -2099.982 2.722 1.369 -1.913 -0.15 0.64 -0.74 0.11
1 4.88 488 -1.365 -10.511 2.892 3.235 -1.495 -21.820 -944.984 -224.854 -2174.933 2.272 0.856 -1.477 -0.15 0.64 -0.75 0.1
1 4.89 489 -0.757 -10.913 2.806 -12.177 -3.082 -8.362 -944.984 -224.854 -2174.933 1.693 1.261 -1.391 -0.15 0.64 -0.75 0.1
1 4.90 490 -0.508 -11.311 2.480 -18.005 0.305 4.150 -1109.877 -209.863 -2039.871 1.453 1.657 -1.086 -0.15 0.64 -0.75 0.1
1 4.91 491 -0.187 -11.287 2.160 -10.193 2.045 13.733 -1109.877 -209.863 -2039.871 1.124 1.629 -0.788 -0.15 0.64 -0.75 0.1
1 4.92 492 0.005 -10.784 1.824 7.416 -0.458 18.524 -1064.906 -329.935 -2129.962 0.911 1.122 -0.462 -0.15 0.64 -0.75 0.11
1 4.93 493 -0.072 -10.042 1.642 13.550 -5.920 16.724 -1064.906 -329.935 -2129.962 0.961 0.379 -0.271 -0.15 0.64 -0.75 0.11
1 4.94 494 0.110 -9.477 1.556 14.526 -9.644 14.648 -1079.896 -284.964 -2159.943 0.752 -0.186 -0.165 -0.15 0.64 -0.75 0.11
1 4.95 495 0.417 -9.113 1.585 11.719 -9.766 15.350 -1034.926 -209.863 -2159.943 0.396 -0.548 -0.150 -0.15 0.64 -0.75 0.11
1 4.96 496 0.843 -8.706 1.556 2.197 -6.073 19.501 -1034.926 -209.863 -2159.943 -0.057 -0.955 -0.107 -0.15 0.64 -0.75 0.11
1 4.97 497 0.781 -8.648 1.547 -4.089 -1.404 19.379 -1064.906 -224.854 -2129.962 -0.021 -1.014 -0.094 -0.15 0.64 -0.75 0.12
1 4.98 498 0.498 -8.725 1.470 -7.385 3.265 17.090 -1064.906 -224.854 -2129.962 0.235 -0.940 -0.023 -0.15 0.64 -0.75 0.12
1 4.99 499 -0.134 -9.137 1.346 -7.996 8.911 17.273 -1139.857 -179.883 -2129.962 0.842 -0.531 0.093 -0.15 0.64 -0.75 0.12
1 5.00 500 -0.594 -9.108 1.216 -6.317 9.827 19.257 -1139.857 -179.883 -2129.962 1.273 -0.563 0.213 -0.15 0.64 -0.75 0.12
1 5.01 501 -0.967 -9.146 1.250 -2.991 7.538 20.569 -1034.926 -164.893 -2114.972 1.612 -0.529 0.171 -0.15 0.64 -0.75 0.12
1 5.02 502 -1.111 -8.854 1.097 2.594 3.448 18.127 -914.854 -179.883 -2099.982 1.716 -0.824 0.320 -0.14 0.64 -0.75 0.12
1 5.03 503 -0.599 -8.370 1.092 8.209 -4.517 16.724 -914.854 -179.883 -2099.982 1.134 -1.310 0.337 -0.14 0.64 -0.75 0.12
1 5.04 504 -0.345 -8.016 1.092 6.989 -8.453 16.144 -989.955 -254.984 -2204.914 0.858 -1.664 0.350 -0.14 0.64 -0.75 0.12
1 5.05 505 -0.053 -7.901 1.111 2.441 -8.789 14.832 -989.955 -254.984 -2204.914 0.546 -1.778 0.340 -0.14 0.64 -0.75 0.13
1 5.06 506 0.254 -7.997 1.111 -2.625 -7.080 13.153 -989.955 -224.854 -2279.865 0.221 -1.683 0.342 -0.14 0.64 -0.75 0.13
1 5.07 507 0.139 -8.107 0.986 -3.906 -2.625 11.017 -989.955 -224.854 -2279.865 0.319 -1.574 0.462 -0.14 0.64 -0.75 0.13
1 5.08 508 -0.077 -8.279 0.857 -1.282 -2.319 9.827 -1004.945 -44.971 -2189.923 0.520 -1.403 0.587 -0.14 0.64 -0.75 0.13
1 5.09 509 -0.407 -8.246 0.570 2.686 -5.585 7.690 -974.965 -44.971 -2219.904 0.836 -1.438 0.872 -0.14 0.64 -0.75 0.13
1 5.10 510 -0.474 -8.193 0.484 8.484 -11.353 3.632 -974.965 -44.971 -2219.904 0.888 -1.489 0.972 -0.14 0.64 -0.75 0.13
1 5.11 511 -0.374 -7.920 0.340 10.254 -14.618 1.709 -974.965 -209.863 -2159.943 0.787 -1.760 1.130 -0.14 0.64 -0.75 0.13
1 5.12 512 -0.445 -7.901 0.306 7.996 -17.365 1.160 -974.965 -209.863 -2159.943 0.862 -1.777 1.179 -0.14 0.64 -0.75 0.13
1 5.13 513 -0.393 -7.848 0.273 1.556 -20.783 -1.251 -974.965 -14.990 -2264.875 0.814 -1.828 1.222 -0.14 0.64 -0.75 0.13
1 5.14 514 -0.441 -7.825 0.297 -9.705 -26.978 -3.174 -929.994 -89.941 -2264.875 0.871 -1.851 1.197 -0.14 0.63 -0.75 0.13
1 5.15 515 -0.441 -7.667 0.215 -12.939 -29.022 -4.700 -974.965 -119.922 -2264.875 0.882 -2.011 1.266 -0.15 0.64 -0.75 0.14
1 5.16 516 -0.555 -7.834 0.316 -12.299 -28.992 -6.012 -914.854 -104.932 -2249.884 1.011 -1.845 1.147 -0.15 0.64 -0.75 0.14
1 5.17 517 -0.694 -7.810 0.139 -11.444 -28.992 -6.226 -914.854 -104.932 -2249.884 1.183 -1.873 1.286 -0.15 0.64 -0.74 0.14
1 5.18 518 -0.934 -7.743 0.139 -13.397 -28.473 -6.836 -1094.887 -29.980 -2279.865 1.439 -1.942 1.269 -0.15 0.64 -0.74 0.14
1 5.19 519 -0.800 -8.016 0.287 -20.294 -29.602 -7.263 -1094.887 -29.980 -2279.865 1.323 -1.671 1.097 -0.16 0.64 -0.74 0.14
1 5.20 520 -0.627 -8.447 0.345 -30.731 -30.975 -6.622 -1034.926 -119.922 -2159.943 1.169 -1.244 1.005 -0.16 0.64 -0.74 0.14
1 5.21 521 0.077 -9.055 0.536 -47.272 -33.661 -6.470 -1064.906 -74.951 -2174.933 0.482 -0.642 0.762 -0.16 0.64 -0.74 0.14
1 5.22 522 0.709 -9.606 0.781 -48.554 -31.769 -10.040 -1094.887 -29.980 -2324.985 -0.132 -0.100 0.449 -0.16 0.64 -0.74 0.14
1 5.23 523 1.116 -9.955 1.006 -39.887 -23.377 -13.062 -1079.896 -164.893 -2114.972 -0.521 0.242 0.146 -0.17 0.64 -0.73 0.14
1 5.24 524 1.370 -10.348 0.996 -26.428 -9.552 -13.947 -1079.896 -164.893 -2114.972 -0.721 0.625 0.044 -0.17 0.65 -0.73 0.14
1 5.25 525 1.192 -10.583 0.742 -13.306 1.343 -13.306 -1094.887 -29.980 -2129.962 -0.516 0.859 0.274 -0.17 0.65 -0.73 0.14
1 5.26 526 0.910 -10.578 0.201 -4.059 2.533 -11.810 -1094.887 -29.980 -2129.962 -0.212 0.854 0.801 -0.17 0.65 -0.73 0.14
1 5.27 527 0.910 -10.444 -0.081 -2.075 -4.822 -12.054 -1079.896 -44.971 -2159.943 -0.191 0.721 1.075 -0.17 0.65 -0.73 0.14
1 5.28 528 1.226 -10.228 -0.043 -1.862 -8.606 -14.282 -1034.926 44.971 -2084.992 -0.485 0.506 1.027 -0.17 0.65 -0.73 0.14
1 5.29 529 1.341 -10.516 -0.340 -6.836 -2.106 -12.695 -1079.896 -44.971 -2114.972 -0.574 0.794 1.313 -0.18 0.65 -0.73 0.14
1 5.30 530 1.082 -10.947 -0.790 -13.550 7.629 -8.820 -1169.988 -179.883 -2069.852 -0.290 1.226 1.747 -0.18 0.65 -0.73 0.14
1 5.31 531 0.302 -11.062 -1.293 -18.616 13.733 -4.364 -1169.988 -179.883 -2069.852 0.509 1.340 2.223 -0.18 0.65 -0.73 0.14
1 5.32 532 -0.891 -11.459 -1.384 -21.332 13.947 0.671 -1109.877 44.971 -2189.923 1.712 1.733 2.263 -0.18 0.65 -0.73 0.13
1 5.33 533 -1.733 -12.225 -0.091 -19.745 10.590 8.820 -1109.877 44.971 -2189.923 2.550 2.496 0.942 -0.18 0.65 -0.73 0.13
1 5.34 534 -2.188 -13.901 1.058 -20.477 7.599 15.320 -1199.968 -29.980 -2204.914 2.989 4.169 -0.234 -0.18 0.65 -0.72 0.13
1 5.35 535 -1.561 -15.707 0.814 -42.694 -11.505 25.330 -944.984 0.000 -2174.933 2.336 5.969 -0.024 -0.18 0.65 -0.72 0.13
1 5.36 536 0.029 -13.169 0.345 -22.888 -38.178 25.116 -1169.988 74.951 -2129.962 0.710 3.423 0.371 -0.18 0.66 -0.72 0.13
1 5.37 537 0.436 -12.460 0.115 45.044 -24.872 25.238 -1139.857 0.000 -1994.900 0.268 2.707 0.544 -0.18 0.66 -0.72 0.14
1 5.38 538 1.245 -12.048 0.369 58.106 -21.393 40.436 -1139.857 0.000 -1994.900 -0.573 2.296 0.333 -0.18 0.66 -0.72 0.14
1 5.39 539 1.197 -11.124 1.097 15.289 -16.571 54.352 -1139.857 0.000 -1994.900 -0.649 1.375 -0.265 -0.17 0.65 -0.72 0.15
1 5.40 540 1.130 -12.029 1.666 -55.573 13.763 41.748 -1139.857 0.000 -1994.900 -0.656 2.273 -0.869 -0.17 0.66 -0.72 0.15
1 5.41 541 0.589 -13.834 0.977 -69.153 12.512 29.083 -1109.877 14.990 -2039.871 -0.173 4.069 -0.269 -0.17 0.66 -0.72 0.15
1 5.42 542 0.177 -14.438 0.254 -37.567 -1.892 18.860 -1019.936 149.902 -2204.914 0.199 4.664 0.359 -0.17 0.66 -0.71 0.15
1 5.43 543 -0.187 -13.039 1.188 42.114 -0.641 13.153 -1034.926 89.941 -2039.871 0.539 3.263 -0.608 -0.17 0.66 -0.71 0.15
1 5.44 544 -0.517 -11.593 2.260 55.084 8.270 11.139 -1019.936 149.902 -2099.982 0.851 1.819 -1.633 -0.17 0.66 -0.71 0.15
1 5.45 545 -1.221 -10.750 2.825 40.619 14.435 3.052 -1019.936 149.902 -2099.982 1.538 0.981 -2.115 -0.17 0.66 -0.72 0.16
1 5.46 546 -1.393 -10.391 2.835 18.951 9.613 -2.869 -989.955 -104.932 -2024.881 1.702 0.627 -2.055 -0.16 0.66 -0.72 0.16
1 5.47 547 0.101 -10.353 2.308 1.343 -17.700 5.280 -989.955 -104.932 -2024.881 0.215 0.593 -1.479 -0.16 0.66 -0.72 0.16
1 5.48 548 2.155 -9.908 2.974 5.981 -26.276 16.083 -944.984 0.000 -2174.933 -1.852 0.149 -2.130 -0.16 0.66 -0.72 0.16
1 5.49 549 3.965 -9.366 3.539 19.287 -17.242 19.470 -944.984 0.000 -2069.852 -3.675 -0.390 -2.667 -0.16 0.65 -0.72 0.16
1 5.50 550 4.999 -8.763 3.271 36.682 2.411 18.158 -1019.936 74.951 -2174.933 -4.710 -0.989 -2.344 -0.16 0.65 -0.72 0.16
1 5.51 551 3.994 -7.901 2.231 56.458 17.395 14.710 -854.893 119.922 -2114.972 -3.713 -1.844 -1.233 -0.16 0.65 -0.72 0.16
1 5.52 552 2.423 -7.671 2.404 48.096 27.039 12.054 -854.893 119.922 -2114.972 -2.133 -2.063 -1.308 -0.16 0.65 -0.73 0.16
1 5.53 553 0.838 -8.040 2.615 18.707 34.088 6.531 -1004.945 44.971 -2264.875 -0.556 -1.685 -1.434 -0.16 0.64 -0.73 0.16
1 5.54 554 -0.656 -9.079 2.428 -35.584 27.191 -7.111 -1004.945 44.971 -2264.875 0.915 -0.642 -1.217 -0.16 0.64 -0.73 0.16
1 5.55 555 -0.781 -9.994 1.973 -46.936 15.076 -17.151 -929.994 119.922 -2084.992 1.046 0.267 -0.809 -0.15 0.65 -0.73 0.15
1 5.56 556 -0.321 -10.453 1.671 -27.435 7.263 -22.553 -779.942 14.990 -2219.904 0.605 0.720 -0.564 -0.15 0.65 -0.73 0.15
1 5.57 557 0.340 -10.228 1.513 8.209 9.857 -23.438 -779.942 14.990 -2219.904 -0.028 0.494 -0.429 -0.16 0.65 -0.73 0.15
1 5.58 558 0.929 -9.247 1.513 46.204 23.438 -17.273 -929.994 -14.990 -2219.904 -0.584 -0.484 -0.399 -0.16 0.65 -0.73 0.15
1 5.59 559 1.231 -8.524 1.690 45.471 27.741 -12.787 -929.994 -14.990 -2219.904 -0.857 -1.198 -0.508 -0.15 0.64 -0.73 0.15
1 5.60 560 1.111 -7.968 1.695 27.374 24.109 -10.620 -929.994 44.971 -2219.904 -0.716 -1.743 -0.437 -0.15 0.64 -0.74 0.14
1 5.61 561 1.116 -7.901 1.542 3.174 18.005 -9.644 -929.994 44.971 -2219.904 -0.696 -1.800 -0.216 -0.15 0.64 -0.74 0.14
1 5.62 562 1.154 -8.370 1.274 -19.318 9.796 -8.545 -929.994 -14.990 -2264.875 -0.722 -1.332 0.039 -0.15 0.64 -0.74 0.14
1 5.63 563 1.250 -8.849 1.374 -23.346 9.552 -7.538 -839.903 -74.951 -2354.966 -0.806 -0.856 -0.090 -0.15 0.64 -0.74 0.14
1 5.64 564 1.125 -9.165 1.326 -16.937 11.993 -5.890 -839.903 -74.951 -2354.966 -0.665 -0.543 -0.072 -0.15 0.64 -0.74 0.14
1 5.65 565 1.149 -9.146 1.389 5.524 16.632 -4.547 -899.864 119.922 -2294.855 -0.677 -0.564 -0.152 -0.15 0.64 -0.74 0.14
1 5.66 566 1.068 -8.983 1.322 21.515 17.822 -3.540 -899.864 119.922 -2294.855 -0.585 -0.725 -0.079 -0.15 0.64 -0.74 0.13
1 5.67 567 1.020 -8.639 1.384 29.236 19.104 -4.425 -944.984 0.000 -2204.914 -0.529 -1.066 -0.110 -0.15 0.64 -0.74 0.13
1 5.68 568 1.125 -8.600 1.432 22.003 19.623 -1.617 -944.984 0.000 -2204.914 -0.624 -1.091 -0.068 -0.15 0.64 -0.74 0.13
1 5.69 569 1.264 -8.619 1.417 16.541 19.226 0.183 -869.883 149.902 -2204.914 -0.764 -1.068 -0.022 -0.15 0.64 -0.74 0.13
1 5.70 570 1.370 -8.653 1.101 3.082 20.142 4.120 -1034.926 -44.971 -2264.875 -0.873 -1.032 0.310 -0.14 0.64 -0.75 0.13
1 5.71 571 1.207 -8.706 0.900 1.526 21.271 5.341 -1034.926 -44.971 -2264.875 -0.714 -0.979 0.517 -0.14 0.64 -0.75 0.13
1 5.72 572 1.149 -8.414 0.383 16.663 24.384 1.923 -1004.945 44.971 -2294.855 -0.661 -1.270 1.040 -0.14 0.64 -0.75 0.13
1 5.73 573 1.144 -8.150 0.249 23.743 28.412 0.336 -1004.945 44.971 -2294.855 -0.664 -1.531 1.197 -0.14 0.64 -0.75 0.13
1 5.74 574 1.231 -8.093 0.125 19.226 30.701 3.754 -734.971 0.000 -2384.946 -0.755 -1.583 1.359 -0.14 0.64 -0.75 0.13
1 5.75 575 0.972 -7.714 0.139 5.646 29.938 7.568 -734.971 0.000 -2384.946 -0.506 -1.956 1.379 -0.14 0.64 -0.75 0.12
1 5.76 576 0.895 -7.777 -0.215 -19.135 25.116 10.712 -899.864 44.971 -2369.956 -0.465 -1.894 1.746 -0.13 0.64 -0.75 0.12
1 5.77 577 0.675 -8.131 -0.129 -32.837 22.308 11.627 -914.854 -74.951 -2354.966 -0.265 -1.545 1.628 -0.13 0.64 -0.75 0.12
1 5.78 578 0.642 -8.366 -0.421 -37.537 17.761 11.200 -914.854 -74.951 -2354.966 -0.252 -1.319 1.871 -0.13 0.64 -0.75 0.12
1 5.79 579 0.632 -8.768 -0.412 -35.156 15.228 11.169 -704.991 -119.922 -2369.956 -0.263 -0.925 1.809 -0.13 0.64 -0.75 0.12
1 5.80 580 0.599 -9.496 -0.139 -29.541 13.947 13.428 -854.893 44.971 -2339.976 -0.249 -0.205 1.487 -0.13 0.64 -0.74 0.12
1 5.81 581 0.402 -9.510 0.057 -24.353 13.916 14.099 -734.971 -29.980 -2324.985 -0.071 -0.199 1.236 -0.13 0.65 -0.74 0.12
1 5.82 582 0.259 -9.371 0.306 -14.832 13.733 12.634 -734.971 -29.980 -2324.985 0.052 -0.344 0.940 -0.12 0.65 -0.74 0.12
1 5.83 583 -0.158 -9.462 0.618 -1.862 13.580 9.338 -734.971 29.980 -2279.865 0.431 -0.260 0.585 -0.12 0.65 -0.74 0.12
1 5.84 584 -0.498 -9.659 1.149 9.216 11.383 7.507 -794.932 29.980 -2384.946 0.755 -0.063 0.060 -0.12 0.65 -0.74 0.12
1 5.85 585 -0.733 -9.659 1.216 7.233 5.981 7.080 -794.932 29.980 -2384.946 0.972 -0.062 0.007 -0.12 0.65 -0.74 0.12
1 5.86 586 -0.517 -9.644 1.039 5.249 -5.646 4.761 -749.961 44.971 -2339.976 0.740 -0.075 0.195 -0.12 0.65 -0.74 0.12
1 5.87 587 0.144 -9.208 0.982 10.162 -17.792 1.251 -659.870 0.000 -2279.865 0.070 -0.510 0.261 -0.12 0.65 -0.74 0.12
1 5.88 588 0.747 -9.165 0.824 15.564 -13.489 1.190 -690.000 -29.980 -2354.966 -0.534 -0.552 0.432 -0.12 0.65 -0.74 0.12
1 5.89 589 0.819 -8.935 0.469 17.029 -4.242 3.632 -690.000 -29.980 -2354.966 -0.602 -0.779 0.808 -0.12 0.65 -0.74 0.12
1 5.90 590 0.723 -8.811 0.067 14.160 4.822 9.705 -749.961 -14.990 -2339.976 -0.504 -0.900 1.233 -0.12 0.65 -0.74 0.12
1 5.91 591 0.354 -8.524 -0.737 3.937 7.446 15.717 -659.870 -29.980 -2249.884 -0.160 -1.184 2.067 -0.12 0.65 -0.74 0.12
1 5.92 592 0.527 -8.236 -0.977 -6.531 4.334 14.923 -659.870 -29.980 -2249.884 -0.356 -1.471 2.310 -0.12 0.65 -0.74 0.12
1 5.93 593 1.097 -8.241 -0.599 -19.135 2.228 11.444 -764.952 0.000 -2384.946 -0.947 -1.468 1.920 -0.12 0.65 -0.74 0.12
1 5.94 594 1.427 -8.931 1.058 -34.485 5.035 10.803 -690.000 0.000 -2354.966 -1.293 -0.783 0.230 -0.12 0.65 -0.74 0.12
1 5.95 595 0.096 -12.297 2.533 -66.834 23.529 9.644 -764.952 104.932 -2504.868 0.026 2.576 -1.300 -0.11 0.65 -0.74 0.12
1 5.96 596 -2.102 -15.007 2.050 -107.727 19.135 -13.763 -764.952 104.932 -2504.868 2.210 5.276 -0.900 -0.11 0.65 -0.74 0.12
1 5.97 597 -2.437 -15.582 0.857 -78.003 -13.641 -57.343 -569.929 164.893 -2219.904 2.551 5.834 0.147 -0.11 0.66 -0.73 0.12
1 5.98 598 -0.249 -14.356 1.317 56.488 -49.622 -79.926 -690.000 29.980 -2324.985 0.558 4.598 -0.464 -0.12 0.66 -0.73 0.11
1 5.99 599 1.791 -12.369 1.887 114.258 -25.391 -50.110 -690.000 29.980 -2324.985 -1.364 2.626 -0.924 -0.13 0.66 -0.73 0.11
1 6.00 600 2.854 -11.105 2.878 117.829 16.632 -18.829 -614.899 104.932 -2204.914 -2.361 1.384 -1.737 -0.13 0.65 -0.74 0.11
1 6.01 601 1.106 -11.900 4.180 36.621 35.919 -13.123 -869.883 254.984 -2384.946 -0.594 2.199 -2.883 -0.13 0.65 -0.74 0.11
1 6.02 602 -0.302 -11.813 2.840 -68.360 -34.210 -40.161 -824.913 119.922 -2444.907 0.835 2.117 -1.524 -0.13 0.65 -0.75 0.11
1 6.03 603 1.542 -12.024 3.017 -28.748 -72.205 -37.537 -824.913 119.922 -2444.907 -0.950 2.319 -1.795 -0.13 0.65 -0.74 0.1
1 6.04 604 4.276 -12.106 3.529 17.822 -56.976 -15.076 -764.952 29.980 -2384.946 -3.611 2.396 -2.375 -0.14 0.65 -0.74 0.1
1 6.05 605 5.622 -12.034 3.170 24.628 -14.069 -4.639 -824.913 119.922 -2339.976 -4.898 2.334 -1.974 -0.14 0.65 -0.74 0.11
1 6.06 606 3.477 -11.296 3.036 11.444 34.058 -10.651 -824.913 119.922 -2339.976 -2.746 1.600 -1.814 -0.14 0.65 -0.74 0.11
1 6.07 607 1.173 -10.774 3.553 25.360 40.497 -20.172 -1004.945 119.922 -2264.875 -0.429 1.083 -2.305 -0.14 0.65 -0.74 0.1
1 6.08 608 -0.498 -10.319 3.472 43.915 34.760 -28.534 -1019.936 224.854 -2504.868 1.269 0.637 -2.172 -0.14 0.64 -0.75 0.1
1 6.09 609 -1.729 -9.989 2.926 43.884 19.806 -28.107 -854.893 119.922 -2369.956 2.538 0.320 -1.552 -0.14 0.64 -0.75 0.1
1 6.10 610 -1.695 -9.884 2.725 19.928 13.550 -21.942 -854.893 119.922 -2369.956 2.528 0.229 -1.265 -0.14 0.64 -0.75 0.1
1 6.11 611 -1.494 -10.075 2.447 -6.409 5.737 -13.092 -869.883 224.854 -2354.966 2.339 0.430 -0.934 -0.14 0.64 -0.75 0.1
1 6.12 612 -1.001 -10.353 2.212 -21.057 -4.028 -2.930 -704.991 164.893 -2369.956 1.840 0.705 -0.708 -0.14 0.64 -0.75 0.1
1 6.13 613 -0.383 -10.616 2.131 -20.630 -11.932 6.805 -704.991 164.893 -2369.956 1.212 0.963 -0.656 -0.14 0.64 -0.75 0.1
1 6.14 614 0.603 -10.348 2.102 -6.561 -13.031 13.245 -824.913 164.893 -2474.888 0.214 0.691 -0.649 -0.14 0.64 -0.75 0.1
1 6.15 615 0.828 -10.046 1.930 3.113 -6.378 15.076 -1064.906 224.854 -2459.897 -0.031 0.387 -0.478 -0.14 0.64 -0.75 0.1
1 6.16 616 0.412 -9.496 1.767 9.369 2.258 16.754 -944.984 179.883 -2459.897 0.365 -0.163 -0.304 -0.14 0.64 -0.75 0.1
1 6.17 617 0.316 -9.098 1.671 9.735 4.028 16.480 -944.984 179.883 -2459.897 0.437 -0.560 -0.191 -0.14 0.64 -0.75 0.1
1 6.18 618 0.053 -8.806 1.714 6.714 3.052 16.937 -1019.936 104.932 -2459.897 0.674 -0.851 -0.216 -0.14 0.64 -0.75 0.1
1 6.19 619 -0.024 -8.643 1.590 1.953 0.641 16.510 -869.883 -74.951 -2354.966 0.722 -1.014 -0.076 -0.13 0.64 -0.75 0.1
1 6.20 620 -0.254 -8.624 1.417 -5.310 -3.174 13.855 -869.883 -74.951 -2354.966 0.902 -1.035 0.102 -0.13 0.64 -0.75 0.1
1 6.21 621 -0.187 -8.725 1.523 -7.172 -3.967 14.404 -929.994 119.922 -2444.907 0.817 -0.937 -0.011 -0.13 0.64 -0.75 0.11
1 6.22 622 -0.374 -8.849 1.614 -8.850 -1.007 16.876 -839.903 104.932 -2429.917 0.980 -0.816 -0.111 -0.13 0.64 -0.75 0.11
1 6.23 623 -0.670 -8.921 1.475 -10.590 1.617 19.196 -839.903 104.932 -2429.917 1.249 -0.747 0.016 -0.13 0.64 -0.75 0.11
1 6.24 624 -0.872 -8.777 1.422 -9.277 0.031 19.104 -974.965 119.922 -2474.888 1.413 -0.895 0.056 -0.13 0.64 -0.75 0.11
1 6.25 625 -0.924 -8.725 1.350 -3.021 -4.730 17.731 -944.984 74.951 -2384.946 1.428 -0.952 0.115 -0.13 0.64 -0.75 0.11
1 6.26 626 -0.694 -8.500 1.336 4.486 -8.911 17.212 -839.903 179.883 -2534.999 1.164 -1.179 0.125 -0.13 0.64 -0.75 0.11
1 6.27 627 -0.503 -8.035 1.331 5.829 -10.864 18.250 -839.903 179.883 -2534.999 0.922 -1.644 0.146 -0.13 0.64 -0.75 0.11
1 6.28 628 -0.354 -8.016 1.192 1.617 -10.742 17.731 -974.965 89.941 -2369.956 0.751 -1.663 0.293 -0.13 0.64 -0.75 0.12
1 6.29 629 -0.321 -7.973 1.274 -4.517 -10.132 16.266 -824.913 284.964 -2444.907 0.695 -1.706 0.213 -0.13 0.64 -0.75 0.12
1 6.30 630 -0.417 -8.179 1.140 -9.247 -9.522 15.289 -824.913 284.964 -2444.907 0.770 -1.502 0.339 -0.13 0.64 -0.75 0.12
1 6.31 631 -0.603 -8.442 0.862 -12.177 -11.749 13.031 -914.854 149.902 -2504.868 0.938 -1.242 0.603 -0.13 0.64 -0.75 0.12
1 6.32 632 -0.713 -8.562 0.752 -9.369 -14.801 9.705 -794.932 179.883 -2354.966 1.032 -1.125 0.696 -0.13 0.64 -0.75 0.12
1 6.33 633 -0.781 -8.663 0.728 -3.296 -17.883 6.226 -854.893 164.893 -2414.927 1.088 -1.027 0.705 -0.13 0.64 -0.75 0.12
1 6.34 634 -0.527 -8.643 0.637 0.916 -20.447 1.709 -854.893 164.893 -2414.927 0.828 -1.048 0.790 -0.13 0.64 -0.75 0.12
1 6.35 635 -0.283 -8.414 0.603 2.960 -24.292 -1.129 -824.913 119.922 -2414.927 0.591 -1.276 0.828 -0.13 0.64 -0.75 0.13
1 6.36 636 -0.034 -8.308 0.350 1.709 -25.147 -2.869 -704.991 284.964 -2414.927 0.351 -1.381 1.087 -0.13 0.64 -0.75 0.13
1 6.37 637 -0.206 -8.136 0.268 -0.031 -25.757 -4.852 -704.991 284.964 -2414.927 0.535 -1.553 1.170 -0.13 0.64 -0.75 0.13
1 6.38 638 -0.206 -8.169 0.273 -1.526 -25.116 -6.195 -779.942 119.922 -2444.907 0.551 -1.519 1.165 -0.13 0.64 -0.75 0.13
1 6.39 639 -0.330 -8.174 0.259 -9.247 -25.055 -6.134 -824.913 89.941 -2219.904 0.691 -1.514 1.176 -0.13 0.64 -0.75 0.13
1 6.40 640 -0.330 -8.447 0.230 -16.846 -26.123 -7.904 -1004.945 239.994 -2414.927 0.707 -1.242 1.193 -0.14 0.64 -0.75 0.13
1 6.41 641 -0.546 -8.624 0.081 -23.163 -27.832 -10.376 -1004.945 239.994 -2414.927 0.941 -1.067 1.319 -0.14 0.64 -0.74 0.13
1 6.42 642 -0.445 -9.146 0.292 -25.879 -28.473 -14.587 -914.854 179.883 -2429.917 0.888 -0.553 1.037 -0.14 0.64 -0.74 0.13
1 6.43 643 -0.335 -9.433 0.421 -23.987 -28.656 -16.419 -944.984 224.854 -2384.946 0.801 -0.271 0.863 -0.15 0.64 -0.74 0.13
1 6.44 644 0.115 -9.759 0.508 -21.515 -29.846 -18.311 -944.984 224.854 -2384.946 0.376 0.051 0.735 -0.15 0.64 -0.74 0.13
1 6.45 645 0.522 -9.841 0.709 -14.282 -29.663 -19.379 -1004.945 119.922 -2414.927 -0.000 0.129 0.498 -0.15 0.64 -0.74 0.13
1 6.46 646 1.092 -9.970 1.125 1.068 -24.109 -18.402 -1004.945 89.941 -2264.875 -0.536 0.258 0.059 -0.15 0.64 -0.74 0.13
1 6.47 647 1.269 -9.884 1.269 6.836 -14.038 -16.388 -1109.877 314.945 -2294.855 -0.677 0.173 -0.090 -0.16 0.64 -0.74 0.13
1 6.48 648 1.221 -9.927 1.188 6.958 -5.554 -14.099 -1109.877 314.945 -2294.855 -0.595 0.219 -0.000 -0.16 0.64 -0.74 0.13
1 6.49 649 1.226 -9.975 0.857 2.228 -2.472 -10.101 -1139.857 329.935 -2249.884 -0.548 0.273 0.347 -0.16 0.64 -0.74 0.13
1 6.50 650 0.876 -9.994 0.623 -7.111 -3.113 -4.883 -1244.939 104.932 -2249.884 -0.184 0.292 0.575 -0.16 0.64 -0.74 0.13
1 6.51 651 0.862 -10.200 0.259 -9.369 -4.456 -5.096 -1244.939 104.932 -2249.884 -0.158 0.497 0.925 -0.16 0.64 -0.74 0.13
1 6.52 652 1.039 -10.348 -0.215 -8.087 -2.960 -6.134 -1169.988 254.984 -2279.865 -0.324 0.644 1.379 -0.16 0.64 -0.74 0.13
1 6.53 653 0.785 -10.592 -0.522 -0.885 4.059 -6.500 -1184.978 209.863 -2414.927 -0.058 0.887 1.666 -0.16 0.64 -0.74 0.13
1 6.54 654 0.359 -10.741 -0.790 -0.458 8.789 -5.066 -1154.998 209.863 -2264.875 0.380 1.034 1.920 -0.16 0.64 -0.74 0.13
1 6.55 655 -0.249 -10.951 -1.020 -5.981 8.179 -5.157 -1154.998 209.863 -2264.875 0.996 1.244 2.139 -0.16 0.64 -0.74 0.13
1 6.56 656 -0.819 -11.335 -1.499 -14.008 2.960 -3.998 -1154.998 209.863 -2264.875 1.579 1.625 2.591 -0.16 0.65 -0.73 0.13
1 6.57 657 -1.374 -11.234 -1.513 -16.998 -7.904 -6.012 -1229.949 239.994 -2339.976 2.145 1.523 2.581 -0.17 0.65 -0.73 0.13
1 6.58 658 -0.886 -12.460 0.843 -4.730 -14.191 -8.057 -1229.949 239.994 -2339.976 1.672 2.748 0.207 -0.17 0.65 -0.73 0.13
1 6.59 659 0.426 -15.204 1.733 -19.226 -17.914 4.272 -1034.926 209.863 -2189.923 0.372 5.492 -0.692 -0.17 0.65 -0.73 0.13
1 6.60 660 1.920 -13.461 1.738 -42.084 -25.360 30.396 -1169.988 299.955 -2204.914 -1.132 3.743 -0.744 -0.17 0.65 -0.73 0.13
1 6.61 661 1.877 -12.307 1.149 24.994 -2.838 30.090 -1259.929 314.945 -2219.904 -1.126 2.579 -0.229 -0.17 0.65 -0.73 0.13
1 6.62 662 2.112 -11.962 1.111 58.685 2.167 33.630 -1259.929 314.945 -2219.904 -1.404 2.232 -0.179 -0.17 0.65 -0.73 0.13
1 6.63 663 1.710 -11.244 1.585 42.572 -6.348 41.016 -1199.968 224.854 -2099.982 -1.048 1.519 -0.570 -0.17 0.65 -0.73 0.14
1 6.64 664 0.670 -12.120 2.088 -25.787 8.606 37.872 -1139.857 329.935 -2279.865 -0.126 2.398 -0.978 -0.16 0.65 -0.73 0.14
1 6.65 665 -0.575 -12.441 1.264 -63.629 11.658 24.292 -1139.857 329.935 -2279.865 1.066 2.710 -0.209 -0.16 0.65 -0.73 0.14
1 6.66 666 -1.350 -12.254 0.441 -40.253 -3.784 4.303 -1199.968 224.854 -2129.962 1.812 2.513 0.524 -0.16 0.65 -0.73 0.14
1 6.67 667 -1.298 -12.201 1.010 16.296 -22.492 -9.827 -1199.968 224.854 -2129.962 1.762 2.456 -0.084 -0.16 0.65 -0.73 0.14
1 6.68 668 -1.676 -11.473 2.859 55.786 -16.846 -9.033 -1184.978 239.994 -2084.992 2.161 1.733 -1.891 -0.16 0.65 -0.73 0.14
1 6.69 669 -1.820 -10.611 3.395 43.427 -2.441 -3.357 -1184.978 239.994 -2084.992 2.325 0.881 -2.347 -0.16 0.65 -0.73 0.14
1 6.70 670 -1.810 -9.960 3.405 24.872 1.892 1.038 -1184.978 314.945 -2084.992 2.325 0.238 -2.284 -0.16 0.64 -0.73 0.15
1 6.71 671 -1.030 -9.362 3.261 18.005 -9.522 5.188 -1109.877 239.994 -2189.923 1.525 -0.351 -2.050 -0.16 0.64 -0.73 0.15
1 6.72 672 1.724 -9.208 3.462 29.541 -33.142 20.569 -1109.877 239.994 -2189.923 -1.248 -0.499 -2.202 -0.16 0.64 -0.74 0.15
1 6.73 673 3.515 -8.974 3.620 37.476 -31.830 30.853 -1094.887 299.955 -2249.884 -3.060 -0.726 -2.297 -0.16 0.64 -0.74 0.15
1 6.74 674 4.104 -8.873 3.500 36.438 -14.313 38.361 -1094.887 299.955 -2249.884 -3.671 -0.817 -2.104 -0.16 0.63 -0.74 0.16
1 6.75 675 3.405 -8.715 2.820 20.905 16.510 35.034 -1004.945 164.893 -2339.976 -2.999 -0.966 -1.355 -0.16 0.63 -0.74 0.16
1 6.76 676 2.375 -8.983 2.729 4.761 22.858 22.461 -1004.945 164.893 -2339.976 -1.997 -0.691 -1.214 -0.16 0.63 -0.74 0.16
1 6.77 677 1.140 -9.864 3.036 -9.399 20.416 8.209 -1079.896 89.941 -2264.875 -0.783 0.193 -1.495 -0.16 0.63 -0.74 0.16
1 6.78 678 0.239 -10.564 2.935 -15.595 13.733 -1.892 -1034.926 164.893 -2264.875 0.109 0.892 -1.391 -0.16 0.63 -0.74 0.16
1 6.79 679 -0.431 -10.640 2.437 4.822 1.129 -8.331 -1034.926 164.893 -2264.875 0.787 0.965 -0.919 -0.16 0.63 -0.74 0.16
1 6.80 680 -0.096 -9.893 2.126 30.579 -2.716 -11.810 -1109.877 284.964 -2369.956 0.467 0.221 -0.590 -0.16 0.63 -0.74 0.16
1 6.81 681 0.378 -9.151 2.227 48.828 -3.052 -14.343 -1109.877 284.964 -2369.956 0.008 -0.511 -0.632 -0.16 0.63 -0.75 0.16
1 6.82 682 1.087 -8.514 2.447 46.600 1.831 -14.679 -989.955 179.883 -2279.865 -0.677 -1.133 -0.773 -0.16 0.62 -0.75 0.16
1 6.83 683 1.326 -8.275 2.279 16.937 10.498 -10.071 -989.955 179.883 -2279.865 -0.892 -1.359 -0.536 -0.16 0.62 -0.75 0.15
1 6.84 684 1.288 -8.409 2.131 -2.136 7.904 -7.111 -1064.906 29.980 -2249.884 -0.836 -1.217 -0.349 -0.16 0.62 -0.75 0.15
1 6.85 685 1.417 -8.768 1.868 -11.597 0.671 -7.233 -1004.945 -44.971 -2219.904 -0.956 -0.857 -0.080 -0.16 0.62 -0.75 0.15
1 6.86 686 2.045 -9.103 1.872 -6.256 -1.129 -10.223 -1004.945 -44.971 -2219.904 -1.550 -0.524 -0.110 -0.16 0.62 -0.75 0.15
1 6.87 687 2.217 -9.290 1.901 2.594 2.991 -12.116 -974.965 44.971 -2339.976 -1.695 -0.337 -0.143 -0.16 0.62 -0.75 0.15
1 6.88 688 2.231 -9.065 1.848 13.794 8.789 -12.848 -974.965 44.971 -2339.976 -1.679 -0.558 -0.080 -0.16 0.62 -0.75 0.15
1 6.89 689 2.198 -8.868 1.848 25.177 12.054 -13.367 -989.955 104.932 -2354.966 -1.615 -0.748 -0.051 -0.16 0.62 -0.76 0.15
1 6.90 690 1.829 -8.356 2.045 32.105 14.923 -12.634 -1109.877 119.922 -2444.907 -1.216 -1.250 -0.204 -0.16 0.62 -0.76 0.15
1 6.91 691 1.480 -8.193 2.117 26.917 14.954 -11.780 -1034.926 -44.971 -2414.927 -0.839 -1.401 -0.223 -0.16 0.61 -0.76 0.14
1 6.92 692 1.317 -8.150 2.002 17.761 14.313 -10.010 -1154.998 14.990 -2414.927 -0.662 -1.434 -0.063 -0.16 0.61 -0.76 0.14
1 6.93 693 1.149 -8.054 2.006 9.857 13.367 -8.331 -1154.998 14.990 -2414.927 -0.473 -1.517 -0.016 -0.16 0.61 -0.76 0.14
1 6.94 694 1.207 -8.318 1.834 8.179 13.214 -3.296 -1184.978 44.971 -2369.956 -0.523 -1.251 0.171 -0.16 0.61 -0.76 0.14
1 6.95 695 1.188 -8.179 1.518 9.979 16.754 0.763 -1184.978 44.971 -2369.956 -0.504 -1.386 0.503 -0.16 0.61 -0.76 0.14
1 6.96 696 1.331 -8.184 1.508 13.062 20.264 3.418 -1094.887 29.980 -2504.868 -0.654 -1.378 0.532 -0.16 0.61 -0.76 0.14
1 6.97 697 1.791 -8.208 1.480 7.996 22.675 7.599 -1259.929 119.922 -2414.927 -1.125 -1.350 0.583 -0.15 0.61 -0.77 0.14
1 6.98 698 1.872 -8.279 1.322 -3.479 22.492 10.162 -1079.896 14.990 -2444.907 -1.222 -1.275 0.759 -0.15 0.61 -0.77 0.14
1 6.99 699 2.006 -8.361 1.317 -13.733 23.621 11.597 -1079.896 44.971 -2414.927 -1.377 -1.194 0.767 -0.15 0.61 -0.77 0.14
1 7.00 700 1.844 -8.409 1.188 -18.555 25.726 13.825 -1079.896 44.971 -2414.927 -1.263 -1.157 0.861 -0.15 0.61 -0.77 0.14
1 7.01 701 1.695 -8.615 0.838 -14.954 28.565 15.717 -1004.945 14.990 -2339.976 -1.145 -0.957 1.191 -0.15 0.61 -0.76 0.14
1 7.02 702 1.322 -8.595 0.776 -9.766 30.975 18.097 -1004.945 14.990 -2339.976 -0.805 -0.981 1.240 -0.14 0.61 -0.76 0.13
1 7.03 703 1.274 -8.557 0.723 -10.803 27.374 15.900 -1109.877 -14.990 -2414.927 -0.791 -1.023 1.282 -0.14 0.61 -0.76 0.13
1 7.04 704 1.398 -8.859 0.522 -19.989 20.142 14.160 -974.965 -44.971 -2474.888 -0.945 -0.726 1.469 -0.14 0.62 -0.76 0.13
1 7.05 705 1.322 -8.935 0.575 -26.245 21.515 15.289 -929.994 89.941 -2369.956 -0.894 -0.656 1.392 -0.14 0.62 -0.76 0.13
1 7.06 706 0.967 -8.931 0.541 -25.513 27.588 15.900 -929.994 14.990 -2414.927 -0.560 -0.670 1.382 -0.13 0.62 -0.76 0.13
1 7.07 707 0.206 -9.213 0.819 -20.142 30.304 14.221 -929.994 14.990 -2414.927 0.178 -0.397 1.060 -0.13 0.62 -0.76 0.13
1 7.08 708 -1.044 -9.472 1.092 -11.932 19.043 8.789 -839.903 -74.951 -2384.946 1.376 -0.153 0.722 -0.13 0.63 -0.76 0.13
1 7.09 709 -1.441 -9.275 1.212 -3.143 7.172 4.913 -839.903 -74.951 -2384.946 1.750 -0.354 0.585 -0.13 0.63 -0.76 0.13
1 7.10 710 -1.384 -9.165 1.427 6.073 -4.578 -0.488 -899.864 119.922 -2369.956 1.675 -0.465 0.366 -0.13 0.63 -0.76 0.13
1 7.11 711 -1.188 -8.854 1.580 10.101 -13.702 -3.326 -869.883 74.951 -2429.917 1.471 -0.775 0.222 -0.13 0.63 -0.76 0.13
1 7.12 712 -0.517 -8.595 1.092 4.852 -15.808 -1.373 -914.854 29.980 -2249.884 0.799 -1.031 0.725 -0.13 0.63 -0.76 0.13
1 7.13 713 0.153 -8.505 0.785 -0.458 -10.651 4.120 -1019.936 -104.932 -2279.865 0.130 -1.120 1.040 -0.13 0.62 -0.76 0.13
1 7.14 714 0.704 -8.256 0.330 -4.547 -3.540 10.803 -1019.936 -104.932 -2279.865 -0.420 -1.368 1.497 -0.13 0.62 -0.76 0.13
1 7.15 715 1.164 -8.136 0.144 -9.338 4.852 16.113 -944.984 29.980 -2459.897 -0.912 -1.492 1.669 -0.13 0.63 -0.76 0.13
1 7.16 716 1.178 -8.653 1.231 -23.377 15.320 17.670 -944.984 29.980 -2459.897 -0.954 -0.979 0.561 -0.13 0.63 -0.76 0.13
1 7.17 717 0.302 -9.946 1.848 -44.647 19.898 14.008 -944.984 -74.951 -2384.946 -0.107 0.306 -0.096 -0.13 0.63 -0.76 0.13
1 7.18 718 -1.197 -11.713 2.174 -78.797 16.357 1.404 -944.984 74.951 -2324.985 1.374 2.059 -0.498 -0.12 0.63 -0.75 0.13
1 7.19 719 -2.964 -13.312 1.279 -75.135 -16.815 -33.569 -779.942 14.990 -2264.875 3.145 3.638 0.275 -0.12 0.64 -0.75 0.13
1 7.20 720 -2.385 -13.398 0.852 -34.943 -39.215 -54.779 -899.864 164.893 -2219.904 2.609 3.706 0.581 -0.13 0.64 -0.75 0.13
1 7.21 721 -0.469 -12.005 1.144 20.142 -49.500 -55.054 -899.864 164.893 -2219.904 0.777 2.305 0.220 -0.13 0.64 -0.74 0.13
1 7.22 722 1.331 -10.559 2.241 65.094 -34.424 -37.567 -929.994 89.941 -2114.972 -0.928 0.864 -0.868 -0.14 0.64 -0.74 0.13
1 7.23 723 2.639 -9.338 2.739 60.181 8.148 -17.670 -929.994 89.941 -2114.972 -2.115 -0.321 -1.168 -0.14 0.63 -0.75 0.13
1 7.24 724 2.864 -9.726 2.370 -1.862 4.639 -20.386 -989.955 224.854 -2174.933 -2.300 0.082 -0.721 -0.14 0.63 -0.75 0.13
1 7.25 725 3.395 -10.453 3.002 -57.068 -15.167 -17.578 -1034.926 14.990 -2294.855 -2.782 0.810 -1.372 -0.15 0.63 -0.75 0.12
1 7.26 726 4.281 -11.909 4.353 -65.186 -18.341 9.064 -1094.887 29.980 -2279.865 -3.632 2.253 -2.812 -0.15 0.63 -0.75 0.12
1 7.27 727 3.529 -12.963 4.171 -46.997 1.282 10.437 -1139.857 0.000 -2099.982 -2.881 3.291 -2.732 -0.15 0.64 -0.75 0.12
1 7.28 728 2.246 -13.288 2.844 -23.865 15.930 -11.383 -1139.857 0.000 -2099.982 -1.613 3.604 -1.482 -0.15 0.64 -0.74 0.12
1 7.29 729 1.350 -12.934 2.725 7.904 16.510 -31.799 -1139.857 -74.951 -2279.865 -0.712 3.244 -1.404 -0.15 0.64 -0.74 0.12
1 7.30 730 0.163 -11.220 3.256 50.934 20.660 -25.513 -1139.857 -74.951 -2279.865 0.560 1.544 -1.880 -0.15 0.64 -0.75 0.12
1 7.31 731 -0.230 -10.190 3.338 47.699 25.910 -17.761 -1019.936 149.902 -2129.962 0.983 0.529 -1.879 -0.15 0.63 -0.75 0.12
1 7.32 732 -0.455 -9.524 3.515 22.125 24.689 -18.768 -1109.877 119.922 -2114.972 1.226 -0.124 -1.983 -0.15 0.63 -0.75 0.12
1 7.33 733 -0.474 -9.501 3.323 -4.486 17.304 -20.081 -1109.877 119.922 -2114.972 1.261 -0.140 -1.751 -0.15 0.63 -0.75 0.11
1 7.34 734 -0.383 -10.291 2.974 -23.895 15.076 -9.979 -1169.988 -74.951 -2174.933 1.185 0.652 -1.398 -0.15 0.63 -0.75 0.11
1 7.35 735 -0.532 -10.889 2.615 -23.346 18.219 -4.974 -1169.988 -74.951 -2174.933 1.340 1.248 -1.056 -0.15 0.63 -0.75 0.11
1 7.36 736 -0.345 -11.210 2.399 -13.886 18.036 -4.822 -1139.857 0.000 -2204.914 1.155 1.564 -0.867 -0.15 0.63 -0.75 0.11
1 7.37 737 0.057 -11.153 2.389 -1.648 13.245 -6.165 -1139.857 0.000 -2204.914 0.763 1.504 -0.883 -0.15 0.63 -0.75 0.11
1 7.38 738 0.560 -10.468 2.543 11.627 6.256 -0.366 -1184.978 -89.941 -2114.972 0.266 0.821 -1.024 -0.15 0.63 -0.75 0.11
1 7.39 739 0.565 -10.061 2.289 10.468 8.179 2.838 -1109.877 89.941 -2189.923 0.258 0.418 -0.747 -0.15 0.63 -0.75 0.11
1 7.40 740 0.469 -9.946 2.332 3.357 12.817 4.242 -1109.877 89.941 -2189.923 0.346 0.306 -0.769 -0.15 0.63 -0.75 0.11
1 7.41 741 -0.101 -9.831 2.279 -5.585 17.639 6.561 -1094.887 149.902 -2249.884 0.904 0.192 -0.706 -0.15 0.63 -0.75 0.11
1 7.42 742 -0.508 -9.922 2.030 -6.195 17.059 7.996 -1094.887 149.902 -2249.884 1.295 0.281 -0.456 -0.14 0.63 -0.75 0.11
1 7.43 743 -0.541 -9.898 1.777 -1.495 14.038 8.453 -1229.949 44.971 -2114.972 1.307 0.255 -0.203 -0.14 0.63 -0.75 0.11
1 7.44 744 -0.527 -9.644 1.915 2.777 10.712 7.996 -1229.949 44.971 -2114.972 1.243 -0.001 -0.333 -0.14 0.63 -0.75 0.11
1 7.45 745 -0.321 -9.572 1.868 4.395 11.047 8.423 -1109.877 -44.971 -2219.904 1.015 -0.072 -0.275 -0.14 0.63 -0.75 0.11
1 7.46 746 -0.211 -9.218 1.753 2.838 12.939 10.620 -1094.887 -29.980 -2204.914 0.882 -0.427 -0.149 -0.14 0.63 -0.75 0.11
1 7.47 747 -0.426 -9.094 1.733 -0.854 13.001 11.963 -1094.887 -29.980 -2204.914 1.073 -0.552 -0.124 -0.14 0.63 -0.75 0.11
1 7.48 748 -0.450 -9.017 1.599 -3.418 12.390 12.268 -989.955 29.980 -2129.962 1.070 -0.630 0.013 -0.14 0.63 -0.75 0.11
1 7.49 749 -0.532 -9.055 1.456 -1.984 9.857 12.512 -989.955 29.980 -2129.962 1.124 -0.593 0.156 -0.13 0.63 -0.75 0.11
1 7.50 750 -0.541 -9.022 1.547 -0.305 7.080 12.939 -1019.936 0.000 -2174.933 1.105 -0.628 0.064 -0.13 0.63 -0.75 0.11
1 7.51 751 -0.532 -8.916 1.422 0.305 4.852 13.092 -1019.936 0.000 -2174.933 1.068 -0.735 0.190 -0.13 0.63 -0.75 0.11
1 7.52 752 -0.455 -8.825 1.417 0.214 3.357 11.841 -1109.877 14.990 -2219.904 0.937 -0.828 0.200 -0.13 0.63 -0.75 0.12
1 7.53 753 -0.364 -8.754 1.451 1.526 2.625 9.918 -1139.857 29.980 -2354.966 0.823 -0.901 0.169 -0.13 0.63 -0.75 0.12
1 7.54 754 -0.302 -8.749 1.326 2.197 3.601 8.240 -1139.857 29.980 -2354.966 0.741 -0.906 0.297 -0.13 0.63 -0.75 0.12
1 7.55 755 -0.383 -8.696 1.571 1.953 3.540 6.561 -989.955 0.000 -2174.933 0.806 -0.959 0.057 -0.13 0.63 -0.75 0.12
1 7.56 756 -0.718 -8.959 1.331 1.099 2.106 2.167 -929.994 -14.990 -2264.875 1.130 -0.695 0.301 -0.13 0.63 -0.75 0.12
1 7.57 757 -0.532 -8.959 1.322 -0.549 -0.458 1.282 -929.994 -164.893 -2189.923 0.933 -0.695 0.313 -0.13 0.63 -0.75 0.12
1 7.58 758 -0.661 -8.916 1.212 -0.977 -3.754 -0.153 -929.994 -164.893 -2189.923 1.053 -0.738 0.422 -0.13 0.63 -0.75 0.12
1 7.59 759 -0.493 -8.974 1.149 1.678 -6.897 -2.472 -989.955 -29.980 -2204.914 0.878 -0.682 0.483 -0.13 0.63 -0.75 0.12
1 7.60 760 -0.555 -8.892 1.039 6.683 -7.782 -4.791 -854.893 -209.863 -2219.904 0.943 -0.762 0.599 -0.13 0.63 -0.75 0.12
1 7.61 761 -0.766 -8.686 1.053 6.165 -9.277 -6.287 -854.893 -209.863 -2219.904 1.158 -0.966 0.593 -0.13 0.63 -0.75 0.12
1 7.62 762 -0.685 -8.447 0.771 3.784 -11.688 -7.141 -929.994 14.990 -2264.875 1.086 -1.204 0.883 -0.13 0.63 -0.75 0.12
1 7.63 763 -0.785 -8.619 0.742 -4.700 -16.968 -6.683 -989.955 -29.980 -2249.884 1.201 -1.030 0.916 -0.13 0.63 -0.75 0.12
1 7.64 764 -0.771 -8.754 0.828 -10.376 -17.914 -7.629 -1079.896 -44.971 -2339.976 1.202 -0.896 0.826 -0.13 0.63 -0.75 0.12
1 7.65 765 -0.790 -8.835 0.670 -15.442 -18.127 -7.080 -1079.896 -44.971 -2339.976 1.237 -0.816 0.971 -0.13 0.63 -0.75 0.12
1 7.66 766 -0.603 -9.041 0.541 -17.120 -17.059 -8.850 -944.984 -149.902 -2204.914 1.063 -0.614 1.076 -0.13 0.63 -0.75 0.12
1 7.67 767 -0.426 -9.074 0.397 -12.299 -20.020 -10.284 -989.955 -104.932 -2279.865 0.906 -0.589 1.161 -0.14 0.63 -0.75 0.12
1 7.68 768 -0.287 -9.304 0.397 -10.834 -22.186 -11.780 -989.955 -104.932 -2279.865 0.782 -0.363 1.135 -0.14 0.63 -0.75 0.12
1 7.69 769 -0.034 -9.429 0.555 -12.512 -23.773 -13.336 -1064.906 -74.951 -2324.985 0.546 -0.241 0.953 -0.14 0.64 -0.75 0.12
1 7.70 770 0.168 -9.587 0.761 -14.771 -24.384 -14.313 -1064.906 -74.951 -2129.962 0.368 -0.086 0.720 -0.14 0.64 -0.75 0.13
1 7.71 771 0.359 -9.529 0.848 -11.383 -23.468 -15.045 -1079.896 44.971 -2159.943 0.202 -0.146 0.606 -0.15 0.64 -0.75 0.13
1 7.72 772 0.723 -9.410 0.943 -6.714 -21.607 -14.587 -1079.896 44.971 -2159.943 -0.136 -0.268 0.486 -0.15 0.64 -0.75 0.13
1 7.73 773 1.006 -9.505 0.996 -6.073 -20.538 -12.360 -1199.968 -149.902 -2279.865 -0.392 -0.173 0.417 -0.15 0.64 -0.75 0.13
1 7.74 774 1.159 -9.472 1.341 -12.543 -13.275 -8.301 -1154.998 164.893 -2159.943 -0.496 -0.207 0.045 -0.15 0.64 -0.74 0.13
1 7.75 775 1.006 -9.563 1.374 -17.090 -6.958 -6.226 -1154.998 164.893 -2159.943 -0.324 -0.118 -0.009 -0.16 0.64 -0.74 0.13
1 7.76 776 0.843 -9.807 1.212 -19.104 -1.709 -5.524 -1184.978 -89.941 -2189.923 -0.147 0.124 0.128 -0.16 0.64 -0.74 0.13
1 7.77 777 0.455 -9.869 0.766 -17.487 -1.251 -6.836 -1154.998 -89.941 -2189.923 0.253 0.183 0.545 -0.16 0.64 -0.74 0.13
1 7.78 778 0.330 -10.157 0.450 -10.498 -5.463 -11.108 -1139.857 -149.902 -2279.865 0.389 0.468 0.834 -0.16 0.64 -0.74 0.13
1 7.79 779 0.340 -10.200 0.436 -7.385 -6.104 -11.536 -1139.857 -149.902 -2279.865 0.394 0.509 0.826 -0.16 0.64 -0.74 0.13
1 7.80 780 0.311 -10.430 0.302 -8.118 -4.669 -9.125 -1094.887 -104.932 -2069.852 0.439 0.738 0.942 -0.16 0.64 -0.74 0.13
1 7.81 781 0.345 -10.702 0.407 -11.322 -1.068 -6.775 -1259.929 14.990 -2189.923 0.428 1.008 0.798 -0.16 0.64 -0.74 0.12
1 7.82 782 -0.168 -10.755 0.043 -12.421 1.953 -3.235 -1259.929 14.990 -2189.923 0.945 1.057 1.136 -0.16 0.64 -0.74 0.12
1 7.83 783 -0.555 -10.683 0.340 -5.615 3.082 -2.441 -1199.968 -29.980 -2249.884 1.331 0.983 0.816 -0.16 0.64 -0.74 0.12
1 7.84 784 -0.699 -11.205 0.833 -0.946 2.747 1.587 -1184.978 -14.990 -2264.875 1.468 1.503 0.310 -0.16 0.64 -0.74 0.12
1 7.85 785 -0.153 -12.570 1.125 -13.306 -1.556 10.742 -1319.890 0.000 -2129.962 0.918 2.867 0.016 -0.16 0.64 -0.74 0.13
1 7.86 786 0.220 -12.412 0.699 -38.574 -15.839 22.797 -1319.890 0.000 -2129.962 0.525 2.704 0.414 -0.16 0.65 -0.74 0.13
1 7.87 787 0.177 -11.545 0.345 -6.989 -18.158 16.113 -1199.968 74.951 -2129.962 0.538 1.829 0.711 -0.16 0.65 -0.73 0.13
1 7.88 788 0.713 -11.038 0.412 29.663 -16.144 12.024 -1199.968 -74.951 -2204.914 -0.036 1.319 0.650 -0.16 0.65 -0.73 0.13
1 7.89 789 0.924 -10.607 0.661 34.851 -14.496 17.120 -1199.968 -74.951 -2204.914 -0.266 0.893 0.454 -0.16 0.65 -0.73 0.13
1 7.90 790 0.728 -10.434 1.097 -6.165 -4.395 24.811 -1274.919 -74.951 -2099.982 -0.096 0.721 0.042 -0.16 0.64 -0.73 0.14
1 7.91 791 0.479 -10.755 0.709 -34.119 2.808 25.848 -1304.900 -164.893 -2159.943 0.117 1.037 0.409 -0.16 0.65 -0.73 0.14
1 7.92 792 0.393 -11.497 0.565 -39.673 -2.106 19.806 -1154.998 89.941 -2114.972 0.166 1.771 0.497 -0.16 0.65 -0.73 0.14
1 7.93 793 0.057 -11.761 0.354 -16.602 -5.035 14.496 -1154.998 89.941 -2114.972 0.471 2.026 0.646 -0.16 0.65 -0.73 0.14
1 7.94 794 -0.177 -11.569 0.474 10.742 -4.272 13.428 -1319.890 -29.980 -2099.982 0.684 1.830 0.492 -0.16 0.65 -0.73 0.14
1 7.95 795 -0.656 -11.416 1.063 21.210 -3.723 15.259 -1139.857 -104.932 -2024.881 1.144 1.677 -0.089 -0.16 0.65 -0.73 0.14
1 7.96 796 -1.197 -11.196 1.891 -0.549 -8.972 20.172 -1139.857 -104.932 -2024.881 1.640 1.460 -0.864 -0.16 0.65 -0.73 0.15
1 7.97 797 -1.125 -10.846 1.896 -15.961 -17.273 15.320 -1259.929 -89.941 -2159.943 1.542 1.108 -0.877 -0.16 0.65 -0.73 0.15
1 7.98 798 -0.493 -10.856 2.030 -11.841 -24.048 8.545 -1169.988 0.000 -2069.852 0.894 1.115 -1.035 -0.16 0.65 -0.73 0.15
1 7.99 799 0.326 -10.822 1.925 7.141 -26.032 6.195 -1169.988 0.000 -2069.852 0.069 1.080 -0.941 -0.16 0.65 -0.73 0.15
1 8.00 800 1.322 -10.252 2.763 27.405 -19.135 14.832 -1229.949 44.971 -2084.992 -0.933 0.511 -1.761 -0.16 0.65 -0.73 0.15
1 8.01 801 1.355 -9.754 3.137 26.672 -10.193 17.029 -1109.877 -14.990 -2039.871 -0.981 0.017 -2.095 -0.16 0.65 -0.73 0.15
1 8.02 802 1.274 -9.299 3.318 25.116 -5.341 14.191 -1334.880 -44.971 -2114.972 -0.914 -0.433 -2.223 -0.16 0.65 -0.73 0.16
1 8.03 803 1.164 -9.055 3.069 29.450 -7.965 9.247 -1334.880 -44.971 -2114.972 -0.823 -0.664 -1.861 -0.16 0.64 -0.73 0.16
1 8.04 804 1.532 -8.600 2.916 39.703 -16.480 11.139 -1229.949 -44.971 -2264.875 -1.194 -1.110 -1.641 -0.16 0.64 -0.73 0.16
1 8.05 805 2.188 -8.212 2.978 40.894 -18.677 15.625 -1109.877 -89.941 -2189.923 -1.855 -1.489 -1.630 -0.16 0.64 -0.74 0.16
1 8.06 806 3.046 -8.069 3.299 36.163 -16.083 18.463 -1109.877 -89.941 -2189.923 -2.719 -1.622 -1.878 -0.16 0.63 -0.74 0.16
1 8.07 807 2.926 -8.198 3.256 20.355 -9.552 21.210 -1244.939 -74.951 -2204.914 -2.603 -1.483 -1.768 -0.16 0.63 -0.74 0.17
1 8.08 808 2.021 -8.696 2.749 7.446 -4.395 21.912 -1094.887 -29.980 -2279.865 -1.704 -0.977 -1.209 -0.16 0.63 -0.74 0.17
1 8.09 809 0.939 -9.242 2.509 -3.387 -1.862 18.829 -1109.877 -119.922 -2294.855 -0.634 -0.427 -0.940 -0.16 0.63 -0.74 0.17
1 8.10 810 0.125 -9.821 2.361 -8.942 -1.068 10.040 -1109.877 -119.922 -2294.855 0.163 0.154 -0.782 -0.16 0.63 -0.74 0.17
1 8.11 811 -0.259 -10.908 2.279 -6.073 -2.167 -2.350 -1139.857 -74.951 -2279.865 0.528 1.238 -0.711 -0.16 0.63 -0.74 0.17
1 8.12 812 -0.081 -10.947 2.260 7.965 -6.683 -4.547 -1169.988 -149.902 -2279.865 0.357 1.276 -0.695 -0.16 0.63 -0.74 0.17
1 8.13 813 0.201 -10.520 2.299 27.466 -8.179 -3.876 -1169.988 -149.902 -2279.865 0.084 0.854 -0.713 -0.16 0.63 -0.74 0.17
1 8.14 814 0.642 -9.912 2.198 41.840 -8.545 -3.357 -1064.906 -179.883 -2324.985 -0.348 0.254 -0.563 -0.16 0.62 -0.74 0.17
1 8.15 815 1.312 -9.285 2.251 35.584 -9.064 -5.798 -1064.906 0.000 -2354.966 -1.008 -0.361 -0.548 -0.16 0.62 -0.75 0.17
1 8.16 816 1.528 -9.199 2.155 20.660 -10.284 -5.310 -1229.949 -44.971 -2219.904 -1.207 -0.436 -0.390 -0.16 0.62 -0.75 0.17
1 8.17 817 1.317 -9.189 1.844 8.514 -11.444 -5.157 -1229.949 -44.971 -2219.904 -0.977 -0.437 -0.038 -0.16 0.62 -0.75 0.17
1 8.18 818 1.192 -9.534 1.714 6.012 -10.895 -6.592 -1259.929 -314.945 -2339.976 -0.811 -0.085 0.119 -0.17 0.62 -0.75 0.17
1 8.19 819 1.121 -9.740 1.681 12.726 -9.033 -7.111 -1229.949 -209.863 -2294.855 -0.718 0.123 0.163 -0.17 0.61 -0.75 0.17
1 8.20 820 1.274 -9.735 1.647 19.989 -7.629 -7.050 -1229.949 -209.863 -2294.855 -0.852 0.124 0.218 -0.17 0.61 -0.75 0.17
1 8.21 821 1.202 -9.740 1.590 23.468 -7.202 -6.622 -1184.978 -284.964 -2369.956 -0.761 0.135 0.305 -0.17 0.61 -0.75 0.17
1 8.22 822 1.283 -9.491 1.633 22.919 -6.470 -6.317 -1229.949 -119.922 -2444.907 -0.823 -0.106 0.296 -0.17 0.61 -0.75 0.17
1 8.23 823 1.125 -9.386 1.441 22.461 -6.317 -5.310 -1244.939 -299.955 -2354.966 -0.647 -0.204 0.520 -0.17 0.61 -0.76 0.17
1 8.24 824 1.063 -9.084 1.480 21.698 -5.310 -2.686 -1244.939 -299.955 -2354.966 -0.568 -0.498 0.514 -0.17 0.61 -0.76 0.17
1 8.25 825 1.135 -8.931 1.365 21.698 -2.747 -1.007 -1274.919 -299.955 -2504.868 -0.616 -0.638 0.688 -0.17 0.6 -0.76 0.17
1 8.26 826 1.331 -8.835 1.542 18.677 -0.824 -0.488 -1199.968 -254.984 -2384.946 -0.805 -0.727 0.539 -0.17 0.6 -0.76 0.17
1 8.27 827 1.398 -8.734 1.604 13.367 1.892 2.350 -1199.968 -254.984 -2384.946 -0.865 -0.822 0.501 -0.17 0.6 -0.76 0.17
1 8.28 828 1.326 -8.519 1.461 8.728 4.761 4.364 -1109.877 -239.994 -2474.888 -0.790 -1.034 0.661 -0.17 0.6 -0.76 0.17
1 8.29 829 1.475 -8.615 1.461 4.120 7.660 6.317 -1244.939 -329.935 -2459.897 -0.943 -0.935 0.673 -0.17 0.6 -0.76 0.17
1 8.30 830 1.489 -8.634 1.168 1.465 10.010 7.721 -1259.929 -314.945 -2594.959 -0.963 -0.915 0.972 -0.17 0.6 -0.76 0.17
1 8.31 831 1.724 -8.538 1.221 -1.984 14.282 10.895 -1259.929 -314.945 -2594.959 -1.207 -1.011 0.922 -0.17 0.6 -0.76 0.17
1 8.32 832 1.705 -8.706 1.269 -6.805 16.937 13.489 -1199.968 -299.955 -2504.868 -1.219 -0.847 0.865 -0.17 0.6 -0.76 0.17
1 8.33 833 1.853 -8.864 1.164 -13.611 16.174 14.404 -1109.877 -389.896 -2444.907 -1.382 -0.694 0.951 -0.17 0.6 -0.76 0.17
1 8.34 834 1.839 -8.888 1.173 -15.595 12.451 14.435 -1109.877 -389.896 -2444.907 -1.381 -0.676 0.914 -0.16 0.61 -0.76 0.17
1 8.35 835 1.710 -8.806 1.101 -11.139 13.031 14.282 -1394.991 -224.854 -2639.930 -1.265 -0.764 0.962 -0.16 0.61 -0.76 0.17
1 8.36 836 1.451 -8.715 1.121 -5.402 22.705 15.106 -1199.968 -374.906 -2429.917 -1.020 -0.859 0.925 -0.16 0.61 -0.76 0.17
1 8.37 837 0.929 -8.940 1.135 -7.996 29.327 15.930 -1154.998 -284.964 -2519.858 -0.515 -0.637 0.900 -0.16 0.61 -0.76 0.17
1 8.38 838 0.469 -9.137 1.125 -15.167 31.036 16.205 -1154.998 -284.964 -2519.858 -0.078 -0.444 0.898 -0.16 0.61 -0.76 0.17
1 8.39 839 0.101 -9.266 1.140 -22.492 27.771 17.151 -1109.877 -359.916 -2414.927 0.262 -0.321 0.862 -0.16 0.61 -0.76 0.16
1 8.40 840 -0.306 -9.314 1.202 -22.308 20.630 17.212 -1064.906 -299.955 -2429.917 0.603 -0.290 0.728 -0.15 0.61 -0.76 0.16
1 8.41 841 -0.268 -9.501 1.384 -18.921 16.113 16.541 -1064.906 -299.955 -2429.917 0.531 -0.111 0.511 -0.15 0.62 -0.76 0.16
1 8.42 842 -0.067 -9.477 1.499 -18.860 13.062 16.388 -1139.857 -254.984 -2504.868 0.298 -0.141 0.367 -0.15 0.62 -0.75 0.16
1 8.43 843 -0.101 -9.635 1.604 -20.081 8.423 15.411 -1139.857 -254.984 -2504.868 0.303 0.010 0.233 -0.15 0.62 -0.75 0.16
1 8.44 844 -0.077 -9.721 1.288 -20.508 6.134 15.930 -1109.877 -284.964 -2519.858 0.252 0.091 0.519 -0.15 0.62 -0.75 0.16
1 8.45 845 -0.053 -9.649 1.437 -15.839 8.148 16.937 -1109.877 -284.964 -2519.858 0.203 0.012 0.339 -0.15 0.62 -0.75 0.16
1 8.46 846 -0.134 -9.740 1.523 -10.651 11.414 19.470 -1034.926 -239.994 -2474.888 0.257 0.098 0.226 -0.14 0.62 -0.75 0.16
1 8.47 847 -0.244 -9.515 1.379 -8.118 14.130 20.660 -1064.906 -329.935 -2279.865 0.301 -0.133 0.337 -0.14 0.63 -0.75 0.16
1 8.48 848 -0.201 -9.414 1.518 -12.116 9.430 18.921 -1064.906 -329.935 -2279.865 0.223 -0.237 0.184 -0.14 0.63 -0.75 0.16
1 8.49 849 -0.101 -9.845 1.959 -20.569 4.425 15.503 -1154.998 -284.964 -2339.976 0.093 0.191 -0.277 -0.14 0.63 -0.75 0.17
1 8.50 850 -0.163 -10.659 1.997 -35.278 -1.129 11.383 -1154.998 -284.964 -2339.976 0.133 0.999 -0.348 -0.14 0.63 -0.75 0.17
1 8.51 851 -0.407 -11.440 2.006 -40.833 -10.071 3.021 -974.965 -164.893 -2474.888 0.364 1.771 -0.412 -0.14 0.63 -0.74 0.17
1 8.52 852 -0.800 -11.909 2.160 -23.834 -12.909 -5.768 -974.965 -164.893 -2474.888 0.753 2.230 -0.626 -0.14 0.63 -0.74 0.17
1 8.53 853 -1.010 -12.201 2.227 -11.078 -12.390 -13.977 -1064.906 -74.951 -2384.946 0.974 2.516 -0.734 -0.14 0.64 -0.74 0.17
1 8.54 854 -1.164 -11.655 1.753 2.167 -16.296 -17.517 -914.854 -179.883 -2279.865 1.178 1.967 -0.280 -0.14 0.64 -0.74 0.16
1 8.55 855 -0.656 -10.679 1.571 32.379 -28.412 -15.411 -914.854 -179.883 -2279.865 0.703 0.994 -0.069 -0.14 0.63 -0.74 0.17
1 8.56 856 0.474 -9.644 1.844 35.950 -26.306 -10.590 -1139.857 -254.984 -2324.985 -0.399 -0.031 -0.289 -0.15 0.63 -0.74 0.17
1 8.57 857 0.915 -9.165 1.997 20.752 -18.066 -4.150 -1139.857 -254.984 -2324.985 -0.819 -0.502 -0.390 -0.15 0.63 -0.74 0.17
1 8.58 858 1.365 -9.280 1.987 -3.326 -13.367 -2.655 -1154.998 -359.916 -2474.888 -1.254 -0.382 -0.354 -0.15 0.63 -0.75 0.17
1 8.59 859 1.551 -9.625 1.628 -28.870 -15.625 -5.585 -1154.998 -359.916 -2474.888 -1.422 -0.039 -0.004 -0.15 0.63 -0.74 0.17
1 8.60 860 1.513 -10.142 1.652 -24.109 -14.496 -2.075 -1109.877 -314.945 -2369.956 -1.361 0.473 -0.064 -0.15 0.63 -0.74 0.17
1 8.61 861 1.729 -10.022 1.614 -7.019 -10.986 -0.824 -1064.906 -299.955 -2384.946 -1.556 0.347 -0.063 -0.15 0.63 -0.74 0.17
1 8.62 862 1.920 -9.888 2.016 13.428 -6.287 -7.416 -1064.906 -299.955 -2384.946 -1.712 0.213 -0.471 -0.16 0.63 -0.74 0.17
1 8.63 863 1.829 -10.166 2.557 12.085 -1.801 -10.620 -944.984 -329.935 -2279.865 -1.593 0.495 -0.988 -0.16 0.63 -0.74 0.17
1 8.64 864 1.288 -10.410 2.840 1.770 2.686 -8.514 -944.984 -329.935 -2279.865 -1.023 0.744 -1.249 -0.16 0.63 -0.74 0.16
1 8.65 865 0.182 -10.516 2.662 -6.470 5.188 -6.134 -1139.857 -224.854 -2354.966 0.095 0.850 -1.071 -0.16 0.63 -0.74 0.16
1 8.66 866 -0.972 -10.731 2.394 -0.763 -2.258 -7.294 -944.984 -374.906 -2429.917 1.259 1.064 -0.811 -0.16 0.63 -0.74 0.16
1 8.67 867 -1.030 -10.477 2.595 12.573 -11.231 -7.629 -1274.919 -74.951 -2324.985 1.327 0.810 -1.015 -0.16 0.63 -0.74 0.16
1 8.68 868 -0.627 -9.951 2.820 26.093 -16.083 -6.073 -1139.857 -299.955 -2429.917 0.940 0.286 -1.226 -0.16 0.63 -0.74 0.16
1 8.69 869 -0.278 -9.228 2.854 32.929 -15.076 -3.082 -1139.857 -299.955 -2429.917 0.606 -0.420 -1.165 -0.16 0.62 -0.75 0.16
1 8.70 870 -0.235 -8.619 2.648 29.389 -9.064 -1.312 -1169.988 -299.955 -2429.917 0.565 -1.018 -0.900 -0.16 0.62 -0.75 0.17
1 8.71 871 -0.512 -8.342 2.552 20.844 -10.223 -3.357 -1169.988 -299.955 -2429.917 0.846 -1.286 -0.755 -0.16 0.62 -0.75 0.17
1 8.72 872 -0.675 -8.481 2.423 9.186 -16.266 -6.439 -1139.857 -224.854 -2504.868 1.017 -1.141 -0.594 -0.16 0.62 -0.75 0.17
1 8.73 873 -0.891 -8.653 2.476 0.061 -22.522 -8.270 -1139.857 -224.854 -2504.868 1.242 -0.965 -0.630 -0.16 0.62 -0.75 0.17
1 8.74 874 -1.049 -9.094 2.404 -2.106 -27.100 -9.766 -1139.857 -299.955 -2354.966 1.412 -0.523 -0.553 -0.16 0.62 -0.75 0.17
1 8.75 875 -0.953 -9.462 2.275 -0.153 -26.611 -9.705 -1109.877 -464.997 -2519.858 1.329 -0.154 -0.424 -0.16 0.62 -0.75 0.17
1 8.76 876 -0.963 -9.893 2.356 3.052 -26.611 -9.522 -1109.877 -464.997 -2519.858 1.364 0.280 -0.495 -0.17 0.61 -0.75 0.17
1 8.77 877 -0.939 -10.046 2.447 9.247 -28.656 -6.531 -1184.978 -314.945 -2594.959 1.350 0.436 -0.575 -0.17 0.61 -0.75 0.17
1 8.78 878 -0.934 -10.295 2.351 13.092 -31.006 -3.967 -1184.978 -314.945 -2594.959 1.353 0.689 -0.461 -0.17 0.61 -0.75 0.17
1 8.79 879 -0.824 -10.281 2.275 14.099 -32.013 -1.007 -1274.919 -224.854 -2504.868 1.247 0.679 -0.363 -0.17 0.61 -0.75 0.17
1 8.80 880 -0.757 -10.166 2.342 11.719 -34.119 4.425 -1409.981 -284.964 -2549.989 1.181 0.568 -0.408 -0.17 0.61 -0.75 0.18
1 8.81 881 -0.646 -10.099 2.040 9.796 -37.659 7.446 -1484.933 -284.964 -2549.989 1.067 0.505 -0.087 -0.17 0.61 -0.75 0.18
1 8.82 882 -0.599 -9.946 1.939 9.705 -41.321 8.423 -1274.919 -329.935 -2429.917 1.013 0.354 0.028 -0.17 0.61 -0.75 0.18
1 8.83 883 -0.536 -9.745 1.887 9.583 -45.166 10.376 -1274.919 -329.935 -2429.917 0.945 0.156 0.094 -0.18 0.61 -0.75 0.18
1 8.84 884 -0.345 -9.524 1.863 5.463 -46.082 14.069 -1439.962 -359.916 -2474.888 0.735 -0.061 0.140 -0.18 0.6 -0.75 0.19
1 8.85 885 -0.359 -9.596 1.695 -1.129 -46.692 15.472 -1439.962 -359.916 -2474.888 0.738 0.011 0.311 -0.18 0.6 -0.75 0.19
1 8.86 886 -0.694 -9.706 1.619 -6.897 -47.882 16.480 -1274.919 -329.935 -2534.999 1.060 0.119 0.380 -0.18 0.6 -0.75 0.2
1 8.87 887 -0.651 -9.592 1.614 -8.148 -49.988 15.869 -1484.933 -509.968 -2594.959 1.002 0.001 0.370 -0.18 0.6 -0.75 0.2
1 8.88 888 -0.996 -9.841 1.504 -3.143 -50.995 14.801 -1394.991 -419.876 -2504.868 1.332 0.246 0.465 -0.19 0.6 -0.75 0.2
1 8.89 889 -1.053 -9.817 1.408 -0.854 -52.185 15.381 -1499.923 -254.984 -2534.999 1.375 0.220 0.550 -0.19 0.6 -0.75 0.2
1 8.90 890 -1.116 -9.821 1.389 -1.434 -54.749 14.893 -1499.923 -254.984 -2534.999 1.421 0.223 0.563 -0.19 0.6 -0.75 0.21
1 8.91 891 -1.269 -9.970 1.537 -1.862 -58.441 13.825 -1484.933 -314.945 -2519.858 1.546 0.367 0.399 -0.19 0.6 -0.74 0.22
1 8.92 892 -1.149 -9.917 1.465 0.153 -64.759 13.397 -1484.933 -314.945 -2519.858 1.414 0.313 0.465 -0.2 0.6 -0.74 0.22
1 8.93 893 -1.073 -9.841 1.599 2.411 -66.986 13.580 -1574.874 -374.906 -2534.999 1.327 0.235 0.327 -0.2 0.6 -0.74 0.22
1 8.94 894 -1.053 -9.721 1.590 4.822 -69.245 12.970 -1634.985 -389.896 -2369.956 1.300 0.115 0.337 -0.2 0.6 -0.74 0.23
1 8.95 895 -0.742 -9.606 1.614 6.195 -73.059 11.444 -1589.864 -389.896 -2444.907 0.982 0.001 0.317 -0.2 0.6 -0.74 0.23
1 8.96 896 -0.809 -9.611 1.571 4.578 -76.233 11.810 -1544.894 -299.955 -2459.897 1.046 0.007 0.366 -0.21 0.6 -0.74 0.24
1 8.97 897 -0.761 -9.601 1.518 3.876 -79.346 12.299 -1544.894 -299.955 -2459.897 0.997 -0.002 0.422 -0.21 0.6 -0.74 0.24
1 8.98 898 -0.872 -9.577 1.250 3.571 -83.405 11.475 -1679.956 -494.978 -2354.966 1.106 -0.026 0.692 -0.21 0.6 -0.73 0.24
1 8.99 899 -0.541 -9.558 1.207 7.751 -90.149 9.308 -1679.956 -494.978 -2354.966 0.779 -0.044 0.738 -0.22 0.59 -0.73 0.25
1 9.00 900 -0.412 -9.410 1.188 8.057 -92.896 9.766 -1634.985 -239.994 -2339.976 0.658 -0.191 0.762 -0.23 0.59 -0.73 0.26
1 9.01 901 -0.393 -9.309 1.034 7.568 -94.086 9.430 -1679.956 -524.958 -2429.917 0.648 -0.291 0.920 -0.23 0.59 -0.73 0.26
1 9.02 902 -0.196 -9.376 1.039 5.096 -95.642 9.705 -1889.969 -389.896 -2369.956 0.463 -0.223 0.918 -0.23 0.59 -0.73 0.27
1 9.03 903 -0.330 -9.486 1.044 2.563 -95.459 8.850 -1844.998 -359.916 -2414.927 0.609 -0.113 0.912 -0.24 0.59 -0.73 0.27
1 9.04 904 -0.570 -9.386 1.073 1.282 -96.253 8.606 -1844.998 -359.916 -2414.927 0.860 -0.214 0.879 -0.24 0.58 -0.72 0.28
1 9.05 905 -0.747 -9.472 1.106 2.258 -97.901 7.874 -1919.949 -434.867 -2414.927 1.050 -0.129 0.838 -0.25 0.58 -0.72 0.28
1 9.06 906 -0.862 -9.295 0.886 8.118 -102.021 7.843 -1919.949 -434.867 -2414.927 1.187 -0.307 1.051 -0.26 0.58 -0.72 0.29
1 9.07 907 -0.800 -9.376 0.867 5.951 -105.133 6.439 -1994.900 -359.916 -2414.927 1.137 -0.225 1.070 -0.26 0.58 -0.72 0.29
1 9.08 908 -0.824 -9.376 0.733 -0.763 -109.192 4.913 -2114.972 -434.867 -2339.976 1.176 -0.225 1.199 -0.27 0.58 -0.71 0.3
1 9.09 909 -0.637 -9.558 0.814 -5.127 -115.113 4.730 -2114.972 -434.867 -2339.976 1.007 -0.046 1.101 -0.27 0.57 -0.71 0.3
1 9.10 910 -0.508 -9.769 0.656 -0.671 -119.110 4.639 -2279.865 -449.857 -2249.884 0.898 0.162 1.238 -0.28 0.57 -0.71 0.31
1 9.11 911 -0.369 -9.927 0.761 3.448 -119.568 4.730 -2279.865 -449.857 -2249.884 0.781 0.317 1.115 -0.28 0.57 -0.71 0.31
1 9.12 912 -0.441 -10.042 0.809 6.348 -118.103 5.310 -2309.995 -419.876 -2129.962 0.875 0.430 1.055 -0.29 0.57 -0.7 0.32
1 9.13 913 -0.378 -9.874 0.924 5.981 -117.951 7.385 -2309.995 -419.876 -2129.962 0.852 0.262 0.928 -0.3 0.56 -0.7 0.33
1 9.14 914 -0.206 -10.123 0.905 2.686 -119.568 10.315 -2414.927 -419.876 -2129.962 0.695 0.511 0.939 -0.31 0.56 -0.69 0.34
1 9.15 915 0.043 -10.070 0.967 -0.824 -118.805 12.268 -2279.865 -374.906 -2099.982 0.460 0.456 0.864 -0.31 0.56 -0.69 0.34
1 9.16 916 0.306 -10.204 0.986 -2.380 -118.195 12.451 -2609.950 -419.876 -2069.852 0.209 0.588 0.828 -0.32 0.55 -0.69 0.35
1 9.17 917 0.407 -10.310 1.092 -0.458 -115.143 12.848 -2744.862 -524.958 -2069.852 0.121 0.690 0.705 -0.32 0.55 -0.68 0.35
1 9.18 918 0.670 -10.190 1.044 4.181 -110.199 13.062 -2744.862 -524.958 -2069.852 -0.130 0.569 0.739 -0.33 0.55 -0.68 0.36
1 9.19 919 0.737 -10.027 1.106 6.836 -106.018 11.871 -2459.897 -329.935 -2069.852 -0.185 0.405 0.667 -0.33 0.55 -0.68 0.36
1 9.20 920 0.723 -9.941 1.044 7.813 -103.272 10.681 -2459.897 -329.935 -2069.852 -0.143 0.319 0.723 -0.34 0.54 -0.67 0.37
1 9.21 921 0.623 -9.951 1.077 3.143 -103.089 9.308 -2684.901 -524.958 -1949.930 -0.028 0.329 0.685 -0.35 0.54 -0.67 0.37
1 9.22 922 0.426 -10.051 1.092 0.549 -100.312 9.522 -2714.881 -494.978 -1814.868 0.184 0.428 0.660 -0.35 0.54 -0.67 0.38
1 9.23 923 0.263 -10.257 1.274 -0.214 -96.100 12.329 -2714.881 -494.978 -1814.868 0.359 0.633 0.465 -0.35 0.53 -0.67 0.38
1 9.24 924 0.034 -10.564 1.360 -0.366 -92.194 16.571 -2819.963 -449.857 -1814.868 0.593 0.937 0.366 -0.36 0.53 -0.66 0.39
1 9.25 925 0.053 -10.626 1.628 -2.411 -91.706 18.677 -2819.963 -449.857 -1814.868 0.571 0.997 0.085 -0.36 0.53 -0.66 0.39
1 9.26 926 0.555 -10.961 2.054 -3.967 -92.865 19.989 -2864.934 -419.876 -1769.897 0.062 1.329 -0.354 -0.37 0.53 -0.66 0.39
1 9.27 927 1.173 -10.956 2.026 -2.350 -95.459 20.599 -2864.934 -419.876 -1769.897 -0.562 1.322 -0.339 -0.37 0.53 -0.65 0.4
1 9.28 928 1.805 -10.540 1.858 6.775 -96.588 23.804 -2939.885 -494.978 -1694.946 -1.204 0.901 -0.190 -0.38 0.52 -0.65 0.41
1 9.29 929 2.045 -10.094 2.083 14.923 -89.539 24.750 -2954.875 -464.997 -1649.975 -1.454 0.456 -0.409 -0.38 0.52 -0.64 0.41
1 9.30 930 2.030 -9.515 2.174 22.003 -80.811 24.750 -2954.875 -464.997 -1649.975 -1.447 -0.120 -0.480 -0.38 0.52 -0.64 0.42
1 9.31 931 1.705 -9.022 2.155 23.132 -76.630 19.745 -2954.875 -314.945 -1604.854 -1.123 -0.608 -0.430 -0.38 0.51 -0.64 0.42
1 9.32 932 1.030 -8.959 2.136 8.820 -74.097 13.763 -2954.875 -314.945 -1604.854 -0.445 -0.664 -0.381 -0.39 0.51 -0.64 0.42
1 9.33 933 0.464 -9.352 2.346 -3.693 -72.510 13.336 -3209.859 -359.916 -1604.854 0.126 -0.268 -0.575 -0.39 0.51 -0.64 0.43
1 9.34 934 0.148 -9.615 2.030 -11.444 -74.799 15.472 -3209.859 -359.916 -1604.854 0.446 -0.005 -0.262 -0.39 0.51 -0.64 0.43
1 9.35 935 0.297 -9.960 1.853 -10.773 -80.475 15.808 -3029.976 -314.945 -1469.942 0.291 0.332 -0.122 -0.4 0.5 -0.63 0.44
1 9.36 936 0.704 -10.305 2.030 -2.197 -84.473 17.578 -3104.927 -389.896 -1529.903 -0.118 0.674 -0.315 -0.4 0.5 -0.63 0.44
1 9.37 937 0.867 -10.377 2.126 3.265 -81.330 19.379 -3104.927 -389.896 -1529.903 -0.284 0.745 -0.416 -0.4 0.5 -0.62 0.44
1 9.38 938 0.776 -10.362 2.059 9.186 -76.752 20.508 -3194.869 -419.876 -1439.962 -0.199 0.731 -0.346 -0.41 0.5 -0.62 0.45
1 9.39 939 0.220 -10.334 1.911 15.442 -75.104 21.942 -3179.878 -464.997 -1349.871 0.349 0.703 -0.186 -0.41 0.5 -0.62 0.45
1 9.40 940 0.053 -10.185 2.112 17.944 -79.987 23.834 -3224.999 -374.906 -1259.929 0.504 0.558 -0.369 -0.41 0.49 -0.62 0.45
1 9.41 941 0.283 -9.654 2.227 18.738 -84.473 26.184 -3224.999 -374.906 -1259.929 0.259 0.029 -0.463 -0.41 0.49 -0.62 0.46
1 9.42 942 0.872 -9.625 2.246 16.907 -83.985 27.618 -3254.979 -239.994 -1349.871 -0.347 0.004 -0.458 -0.41 0.49 -0.61 0.46
1 9.43 943 1.336 -9.548 2.208 6.226 -78.705 28.351 -3299.950 -224.854 -1259.929 -0.843 -0.067 -0.380 -0.42 0.48 -0.61 0.47
1 9.44 944 1.365 -9.649 2.069 1.221 -76.111 26.611 -3299.950 -224.854 -1259.929 -0.884 0.034 -0.236 -0.42 0.48 -0.61 0.48
1 9.45 945 1.532 -9.841 1.757 1.434 -75.897 25.269 -3329.931 -209.863 -1394.991 -1.060 0.225 0.074 -0.42 0.48 -0.6 0.48
1 9.46 946 1.781 -9.836 1.614 7.385 -79.590 23.895 -3224.999 -329.935 -1229.949 -1.316 0.219 0.216 -0.42 0.48 -0.6 0.48
1 9.47 947 2.097 -9.773 1.748 11.658 -79.682 22.766 -3179.878 -164.893 -1139.857 -1.635 0.158 0.086 -0.43 0.48 -0.6 0.49
1 9.48 948 2.155 -9.702 1.791 11.078 -78.522 22.430 -3179.878 -164.893 -1139.857 -1.692 0.088 0.052 -0.43 0.47 -0.6 0.49
1 9.49 949 2.308 -9.639 1.657 9.827 -79.254 21.545 -3269.970 -254.984 -1184.978 -1.842 0.028 0.198 -0.43 0.47 -0.59 0.49
1 9.50 950 2.050 -9.414 1.494 10.498 -79.956 19.379 -3299.950 -374.906 -1049.916 -1.571 -0.193 0.378 -0.43 0.46 -0.59 0.5
1 9.51 951 1.738 -9.285 1.513 14.801 -78.339 18.066 -3299.950 -374.906 -1049.916 -1.252 -0.320 0.369 -0.44 0.46 -0.59 0.5
1 9.52 952 1.815 -9.156 1.456 14.893 -76.386 16.602 -3419.872 -299.955 -1049.916 -1.319 -0.446 0.442 -0.44 0.46 -0.59 0.5
1 9.53 953 1.599 -9.089 1.580 10.681 -75.928 15.259 -3329.931 -209.863 -989.955 -1.094 -0.510 0.330 -0.44 0.46 -0.58 0.51
1 9.54 954 1.465 -9.366 1.365 0.244 -77.301 14.252 -3344.921 -299.955 -869.883 -0.950 -0.230 0.553 -0.44 0.45 -0.58 0.51
1 9.55 955 1.082 -9.510 1.197 -1.709 -78.278 14.526 -3344.921 -299.955 -869.883 -0.556 -0.087 0.715 -0.45 0.45 -0.58 0.51
1 9.56 956 0.723 -9.711 1.197 1.068 -81.269 14.893 -3344.921 -179.883 -929.994 -0.188 0.112 0.704 -0.45 0.45 -0.58 0.51
1 9.57 957 0.646 -9.687 1.183 5.951 -83.649 15.472 -3539.944 -284.964 -809.922 -0.101 0.086 0.706 -0.45 0.44 -0.57 0.52
1 9.58 958 0.656 -9.539 1.135 10.193 -88.105 17.700 -3539.944 -284.964 -809.922 -0.109 -0.061 0.756 -0.46 0.44 -0.57 0.52
1 9.59 959 0.795 -9.625 1.197 8.362 -89.875 20.142 -3674.856 -299.955 -824.913 -0.246 0.025 0.697 -0.46 0.44 -0.56 0.53
1 9.60 960 0.872 -9.376 0.919 6.622 -89.814 21.240 -3524.954 -179.883 -749.961 -0.324 -0.224 0.975 -0.46 0.44 -0.56 0.53
1 9.61 961 1.197 -9.395 1.025 1.740 -88.654 23.834 -3584.915 -284.964 -629.890 -0.652 -0.205 0.865 -0.46 0.43 -0.56 0.53
1 9.62 962 1.116 -9.692 0.972 -5.310 -86.914 26.611 -3584.915 -284.964 -629.890 -0.576 0.089 0.906 -0.47 0.43 -0.55 0.54
1 9.63 963 1.039 -9.649 0.800 -6.256 -88.532 27.466 -3464.993 -209.863 -584.919 -0.508 0.042 1.061 -0.47 0.43 -0.55 0.54
1 9.64 964 0.776 -9.678 0.632 -1.068 -91.614 26.123 -3374.901 -224.854 -494.978 -0.264 0.062 1.188 -0.48 0.43 -0.54 0.55
1 9.65 965 0.852 -9.620 0.661 3.784 -91.492 26.886 -3374.901 -224.854 -494.978 -0.350 0.001 1.145 -0.48 0.42 -0.54 0.55
1 9.66 966 0.934 -9.615 0.699 4.669 -91.980 27.649 -3494.973 -179.883 -644.880 -0.441 -0.005 1.099 -0.48 0.42 -0.54 0.55
1 9.67 967 1.144 -9.577 0.776 2.319 -93.262 28.259 -3389.892 -44.971 -404.886 -0.662 -0.045 1.017 -0.48 0.42 -0.53 0.56
1 9.68 968 1.250 -9.620 0.704 -4.913 -96.070 30.274 -3494.973 -104.932 -434.867 -0.778 -0.005 1.077 -0.49 0.42 -0.53 0.56
1 9.69 969 1.365 -9.467 0.766 -7.843 -97.962 30.274 -3494.973 -104.932 -434.867 -0.905 -0.162 0.997 -0.49 0.41 -0.52 0.56
1 9.70 970 1.235 -9.539 0.924 -8.148 -96.558 28.809 -3509.963 -89.941 -524.958 -0.786 -0.095 0.815 -0.49 0.41 -0.52 0.56
1 9.71 971 1.159 -9.706 0.666 -6.287 -96.283 28.473 -3659.866 -44.971 -344.925 -0.719 0.068 1.050 -0.49 0.41 -0.51 0.57
1 9.72 972 0.886 -9.678 0.766 -6.348 -99.213 28.687 -3659.866 -44.971 -344.925 -0.467 0.031 0.907 -0.5 0.4 -0.51 0.57
1 9.73 973 0.838 -9.740 0.785 -8.392 -103.089 30.029 -3374.901 -74.951 -209.863 -0.431 0.089 0.867 -0.5 0.4 -0.5 0.58
1 9.74 974 0.852 -10.013 0.867 -11.231 -106.446 29.938 -3509.963 -119.922 -149.902 -0.459 0.357 0.761 -0.51 0.4 -0.5 0.58
1 9.75 975 0.972 -9.908 0.862 -14.191 -108.704 29.541 -3494.973 -74.951 -134.912 -0.591 0.246 0.737 -0.51 0.4 -0.49 0.58
1 9.76 976 0.761 -9.922 0.900 -10.315 -108.063 30.182 -3494.973 -74.951 -134.912 -0.393 0.255 0.667 -0.51 0.39 -0.49 0.59
1 9.77 977 0.670 -9.860 0.776 -4.486 -107.636 30.792 -3494.973 0.000 0.000 -0.317 0.188 0.764 -0.52 0.39 -0.48 0.59
1 9.78 978 0.709 -9.635 0.704 -0.061 -107.605 31.464 -3374.901 74.951 134.912 -0.371 -0.041 0.818 -0.52 0.39 -0.48 0.59
1 9.79 979 0.905 -9.568 0.637 -0.854 -108.338 33.173 -3374.901 74.951 134.912 -0.603 -0.112 0.864 -0.53 0.38 -0.47 0.6
1 9.80 980 0.953 -9.539 0.685 -8.453 -108.002 34.332 -3344.921 0.000 104.932 -0.670 -0.144 0.801 -0.53 0.38 -0.46 0.6
1 9.81 981 0.824 -9.793 0.517 -11.688 -105.683 35.431 -3374.901 -29.980 179.883 -0.561 0.106 0.946 -0.53 0.38 -0.46 0.61
1 9.82 982 0.986 -9.692 0.565 -11.414 -100.586 36.316 -3374.901 -29.980 179.883 -0.748 0.001 0.871 -0.53 0.38 -0.45 0.61
1 9.83 983 1.212 -9.711 0.718 -6.561 -90.180 36.469 -3224.999 149.902 209.863 -0.998 0.016 0.693 -0.54 0.37 -0.45 0.61
1 9.84 984 1.355 -9.970 0.742 -6.989 -84.564 37.140 -3419.872 104.932 359.916 -1.169 0.271 0.652 -0.54 0.37 -0.44 0.61
1 9.85 985 1.044 -10.267 0.848 -11.353 -81.330 36.133 -3269.970 104.932 434.867 -0.885 0.565 0.530 -0.54 0.37 -0.44 0.62
1 9.86 986 0.939 -10.415 1.025 -13.458 -79.895 33.203 -3269.970 104.932 434.867 -0.833 0.707 0.309 -0.55 0.37 -0.43 0.62
1 9.87 987 0.541 -10.894 0.991 -10.437 -79.834 25.635 -3089.937 74.951 434.867 -0.457 1.182 0.320 -0.55 0.36 -0.42 0.62
1 9.88 988 0.623 -10.908 1.212 -2.350 -78.339 20.660 -3134.908 314.945 629.890 -0.556 1.195 0.085 -0.55 0.36 -0.42 0.63
1 9.89 989 0.996 -10.899 1.255 4.700 -75.501 17.212 -3134.908 314.945 629.890 -0.942 1.185 0.042 -0.55 0.36 -0.41 0.63
