COL1	TIME	ACC_X	ACC_Y	ACC_Z	GYR_X	GYR_Y	GYR_Z	MAG_X	MAG_Y	MAG_Z	LACC_X	LACC_Y	LACC_Z	QUAT_X	QUAT_Y	QUAT_Z	QUAT_W
1 0.00 0 -0.508 -9.869 0.311 -4.791 -1.434 -1.678 711.586 3287.208 -2805.572 -0.202 0.106 0.144 -0.07 -0.69 0.72 0.03
1 0.01 1 -0.474 -9.802 0.498 -6.561 0.336 0.397 666.616 3437.261 -2910.654 -0.229 0.037 -0.059 -0.07 -0.69 0.72 0.03
1 0.02 2 -0.498 -9.740 0.340 -6.226 1.038 0.214 666.616 3437.261 -2910.654 -0.203 -0.026 0.089 -0.07 -0.69 0.72 0.03
1 0.03 3 -0.474 -9.898 0.249 -6.195 0.580 -0.763 756.557 3422.271 -3000.595 -0.225 0.132 0.170 -0.07 -0.69 0.72 0.03
1 0.04 4 -0.594 -9.788 0.297 -5.127 0.183 -0.610 756.557 3422.271 -3000.595 -0.103 0.021 0.112 -0.07 -0.69 0.72 0.03
1 0.05 5 -0.570 -9.769 0.407 -5.493 0.336 -1.282 681.606 3452.251 -2820.562 -0.125 0.002 -0.006 -0.07 -0.69 0.72 0.03
1 0.06 6 -0.666 -9.788 0.340 -6.989 0.916 -0.549 681.606 3452.251 -2820.562 -0.027 0.020 0.051 -0.07 -0.69 0.72 0.03
1 0.07 7 -0.555 -9.730 0.488 -7.416 0.488 -0.824 666.616 3497.222 -2835.553 -0.135 -0.038 -0.108 -0.07 -0.69 0.72 0.03
1 0.08 8 -0.532 -9.903 0.374 -7.141 -1.312 -0.092 681.606 3377.150 -3075.546 -0.154 0.133 -0.015 -0.07 -0.69 0.72 0.03
1 0.09 9 -0.493 -9.932 0.326 -6.653 -1.740 0.153 681.606 3377.150 -3075.546 -0.191 0.162 0.023 -0.07 -0.69 0.72 0.03
1 0.10 10 -0.469 -9.826 0.431 -4.334 -1.770 -0.061 681.606 3422.271 -2865.533 -0.214 0.056 -0.091 -0.07 -0.69 0.72 0.03
1 0.11 11 -0.431 -9.917 0.268 -3.967 -1.251 -0.092 681.606 3422.271 -2865.533 -0.250 0.147 0.067 -0.07 -0.69 0.72 0.03
1 0.12 12 -0.450 -9.769 0.283 -4.944 -1.526 0.153 681.606 3347.169 -2865.533 -0.229 -0.002 0.047 -0.07 -0.69 0.72 0.03
1 0.13 13 -0.436 -9.908 0.215 -6.531 -0.977 -1.495 681.606 3347.169 -2865.533 -0.241 0.136 0.106 -0.07 -0.69 0.72 0.03
1 0.14 14 -0.484 -9.898 0.350 -6.470 -1.434 -1.404 756.557 3422.271 -2865.533 -0.190 0.126 -0.037 -0.07 -0.69 0.72 0.03
1 0.15 15 -0.388 -9.908 0.273 -5.493 -2.136 -1.434 681.606 3482.231 -2895.514 -0.281 0.135 0.029 -0.07 -0.69 0.72 0.03
1 0.16 16 -0.421 -9.730 0.287 -4.089 -2.350 -1.343 681.606 3482.231 -2895.514 -0.239 -0.043 -0.001 -0.07 -0.69 0.72 0.03
1 0.17 17 -0.369 -9.802 0.340 -3.998 -1.495 -0.854 651.625 3377.150 -2790.582 -0.288 0.028 -0.058 -0.07 -0.69 0.72 0.03
1 0.18 18 -0.297 -9.922 0.244 -4.028 -1.556 -1.099 651.625 3377.150 -2790.582 -0.356 0.148 0.032 -0.07 -0.69 0.72 0.03
1 0.19 19 -0.498 -9.888 0.412 -4.944 -1.282 -1.129 606.505 3347.169 -2970.615 -0.152 0.114 -0.142 -0.07 -0.69 0.72 0.03
1 0.20 20 -0.455 -9.716 0.426 -5.768 -2.167 -0.946 726.577 3512.212 -3000.595 -0.192 -0.059 -0.164 -0.07 -0.69 0.72 0.03
1 0.21 21 -0.302 -9.864 0.259 -5.280 -2.411 -1.709 741.567 3392.140 -2910.654 -0.342 0.089 -0.004 -0.07 -0.69 0.72 0.03
1 0.22 22 -0.455 -9.869 0.249 -5.981 -1.709 -2.106 681.606 3452.251 -2970.615 -0.184 0.093 -0.002 -0.07 -0.69 0.72 0.03
1 0.23 23 -0.517 -9.855 0.364 -6.165 -0.580 -2.563 681.606 3452.251 -2970.615 -0.112 0.078 -0.134 -0.07 -0.7 0.71 0.03
1 0.24 24 -0.508 -9.874 0.206 -5.768 -1.099 -2.014 666.616 3467.241 -2880.523 -0.117 0.097 0.016 -0.07 -0.7 0.71 0.03
1 0.25 25 -0.464 -9.922 0.311 -5.035 -2.075 -1.373 666.616 3467.241 -2880.523 -0.156 0.144 -0.098 -0.07 -0.7 0.71 0.03
1 0.26 26 -0.488 -9.917 0.177 -4.303 -2.533 -0.427 726.577 3512.212 -2820.562 -0.129 0.139 0.030 -0.07 -0.7 0.71 0.03
1 0.27 27 -0.498 -9.869 0.278 -3.998 -3.204 -0.244 666.616 3542.192 -2955.625 -0.119 0.091 -0.078 -0.07 -0.7 0.71 0.03
1 0.28 28 -0.498 -9.960 0.326 -4.089 -1.495 0.671 711.586 3497.222 -2910.654 -0.118 0.182 -0.131 -0.07 -0.7 0.71 0.03
1 0.29 29 -0.345 -10.013 0.326 -4.486 -0.824 1.282 591.515 3467.241 -2805.572 -0.270 0.234 -0.136 -0.07 -0.7 0.71 0.03
1 0.30 30 -0.388 -9.826 0.220 -5.219 -0.336 0.336 591.515 3467.241 -2805.572 -0.227 0.047 -0.036 -0.07 -0.7 0.71 0.03
1 0.31 31 -0.306 -9.941 0.096 -5.280 -1.770 -0.916 681.606 3482.231 -2790.582 -0.306 0.162 0.073 -0.07 -0.7 0.71 0.03
1 0.32 32 -0.412 -9.831 0.168 -5.585 -2.686 -0.763 681.606 3482.231 -2790.582 -0.197 0.051 -0.007 -0.07 -0.7 0.71 0.03
1 0.33 33 -0.426 -9.831 0.153 -5.341 -2.747 -0.336 606.505 3512.212 -2895.514 -0.180 0.051 -0.001 -0.07 -0.7 0.71 0.03
1 0.34 34 -0.417 -9.802 0.158 -5.951 -2.380 -0.031 801.528 3497.222 -2730.621 -0.189 0.022 -0.015 -0.07 -0.7 0.71 0.03
1 0.35 35 -0.546 -9.917 0.168 -4.242 -3.174 0.763 756.557 3632.134 -2820.562 -0.058 0.137 -0.033 -0.07 -0.7 0.71 0.03
1 0.36 36 -0.306 -9.869 0.268 -3.754 -3.754 1.038 591.515 3542.192 -3060.556 -0.297 0.089 -0.139 -0.07 -0.7 0.71 0.03
1 0.37 37 -0.316 -9.960 0.230 -3.784 -2.838 0.732 591.515 3542.192 -3060.556 -0.288 0.180 -0.107 -0.07 -0.7 0.71 0.03
1 0.38 38 -0.359 -9.864 0.330 -4.272 -2.228 0.977 576.524 3512.212 -2820.562 -0.243 0.084 -0.217 -0.07 -0.7 0.71 0.03
1 0.39 39 -0.407 -9.812 0.249 -5.798 -1.617 0.854 576.524 3512.212 -2820.562 -0.194 0.031 -0.141 -0.07 -0.7 0.71 0.03
1 0.40 40 -0.522 -9.831 0.177 -5.798 -1.740 0.610 726.577 3632.134 -2865.533 -0.079 0.050 -0.076 -0.07 -0.7 0.71 0.03
1 0.41 41 -0.464 -9.912 0.273 -5.554 -1.526 -1.068 771.547 3572.173 -2835.553 -0.135 0.131 -0.180 -0.07 -0.7 0.71 0.03
1 0.42 42 -0.445 -9.831 0.206 -5.341 -1.068 -0.580 666.616 3572.173 -2835.553 -0.152 0.050 -0.119 -0.07 -0.7 0.71 0.03
1 0.43 43 -0.417 -9.706 0.302 -6.012 -1.129 0.336 591.515 3542.192 -2835.553 -0.178 -0.075 -0.222 -0.07 -0.7 0.71 0.03
1 0.44 44 -0.570 -9.663 0.292 -6.653 -0.549 0.214 591.515 3542.192 -2835.553 -0.024 -0.118 -0.220 -0.07 -0.7 0.71 0.03
1 0.45 45 -0.599 -9.773 0.335 -6.805 -1.862 0.549 741.567 3392.140 -2835.553 0.005 -0.008 -0.280 -0.07 -0.7 0.71 0.03
1 0.46 46 -0.532 -9.812 0.254 -7.019 -1.648 0.824 741.567 3392.140 -2835.553 -0.062 0.030 -0.208 -0.07 -0.7 0.71 0.03
1 0.47 47 -0.498 -9.932 0.163 -6.805 -1.801 1.923 681.606 3482.231 -2895.514 -0.096 0.150 -0.125 -0.07 -0.7 0.71 0.03
1 0.48 48 -0.479 -9.855 0.311 -6.989 -1.678 2.747 561.534 3572.173 -2880.523 -0.117 0.073 -0.283 -0.07 -0.7 0.71 0.03
1 0.49 49 -0.541 -9.912 0.287 -6.683 -1.038 2.869 666.616 3392.140 -2775.592 -0.058 0.131 -0.267 -0.07 -0.7 0.71 0.03
1 0.50 50 -0.464 -9.864 0.350 -6.531 -1.495 3.082 636.485 3437.261 -2955.625 -0.138 0.083 -0.337 -0.07 -0.7 0.71 0.03
1 0.51 51 -0.393 -9.793 0.369 -5.524 -1.099 2.960 636.485 3437.261 -2955.625 -0.213 0.011 -0.363 -0.07 -0.7 0.71 0.03
1 0.52 52 -0.354 -9.802 0.388 -3.632 -0.061 2.716 666.616 3572.173 -2730.621 -0.258 0.021 -0.392 -0.07 -0.7 0.71 0.03
1 0.53 53 -0.532 -9.745 0.244 -4.211 0.427 3.052 666.616 3572.173 -2730.621 -0.083 -0.036 -0.251 -0.07 -0.7 0.71 0.03
1 0.54 54 -0.517 -9.654 0.259 -6.256 -0.031 3.052 771.547 3572.173 -2730.621 -0.100 -0.127 -0.271 -0.07 -0.7 0.71 0.03
1 0.55 55 -0.512 -9.630 0.311 -8.240 -0.854 2.625 651.625 3587.163 -2895.514 -0.108 -0.150 -0.331 -0.07 -0.7 0.71 0.03
1 0.56 56 -0.383 -9.682 0.326 -9.369 -0.793 2.808 681.606 3512.212 -2640.530 -0.241 -0.098 -0.356 -0.07 -0.7 0.71 0.03
1 0.57 57 -0.579 -9.817 0.306 -7.721 -1.007 2.960 591.515 3467.241 -2880.523 -0.047 0.037 -0.348 -0.07 -0.71 0.71 0.03
1 0.58 58 -0.412 -9.932 0.254 -5.768 -0.397 3.845 591.515 3467.241 -2880.523 -0.218 0.152 -0.304 -0.07 -0.71 0.7 0.03
1 0.59 59 -0.417 -9.927 0.321 -4.334 -0.641 4.364 636.485 3647.274 -2775.592 -0.218 0.147 -0.378 -0.07 -0.71 0.7 0.03
1 0.60 60 -0.536 -9.941 0.244 -3.815 -1.312 4.364 636.485 3647.274 -2775.592 -0.109 0.163 -0.307 -0.07 -0.71 0.7 0.03
1 0.61 61 -0.570 -10.027 0.302 -4.700 -1.678 4.974 651.625 3557.183 -2820.562 -0.082 0.249 -0.368 -0.07 -0.71 0.7 0.02
1 0.62 62 -0.551 -9.994 0.254 -5.188 -0.397 4.791 546.544 3557.183 -2715.631 -0.108 0.216 -0.324 -0.07 -0.71 0.7 0.02
1 0.63 63 -0.575 -10.003 0.326 -5.493 0.366 4.181 546.544 3557.183 -2715.631 -0.089 0.226 -0.401 -0.07 -0.71 0.7 0.02
1 0.64 64 -0.555 -10.056 0.129 -5.402 1.312 3.113 636.485 3617.144 -2835.553 -0.113 0.279 -0.210 -0.07 -0.71 0.7 0.02
1 0.65 65 -0.512 -10.090 0.148 -5.341 0.824 3.479 636.485 3617.144 -2835.553 -0.160 0.313 -0.236 -0.07 -0.71 0.7 0.02
1 0.66 66 -0.651 -10.109 0.211 -6.226 0.671 3.204 606.505 3587.163 -2745.611 -0.024 0.332 -0.304 -0.07 -0.71 0.7 0.02
1 0.67 67 -0.608 -10.051 0.321 -5.768 0.305 3.876 606.505 3587.163 -2745.611 -0.076 0.276 -0.426 -0.07 -0.71 0.7 0.02
1 0.68 68 -0.565 -10.042 0.235 -5.768 0.549 3.418 681.606 3677.254 -2745.611 -0.124 0.267 -0.346 -0.07 -0.71 0.7 0.02
1 0.69 69 -0.522 -10.003 0.330 -5.798 1.556 1.984 651.625 3632.134 -2715.631 -0.170 0.229 -0.447 -0.07 -0.71 0.7 0.02
1 0.70 70 -0.560 -10.080 0.283 -4.578 1.617 1.373 651.625 3632.134 -2715.631 -0.133 0.305 -0.404 -0.07 -0.71 0.7 0.02
1 0.71 71 -0.670 -9.912 0.359 -3.235 1.190 1.160 726.577 3677.254 -2820.562 -0.024 0.138 -0.484 -0.07 -0.71 0.7 0.02
1 0.72 72 -0.532 -10.070 0.450 -3.357 0.153 1.068 726.577 3677.254 -2820.562 -0.164 0.296 -0.577 -0.07 -0.71 0.7 0.02
1 0.73 73 -0.651 -10.157 0.369 -4.883 -0.946 0.854 666.616 3722.225 -2595.559 -0.045 0.382 -0.496 -0.07 -0.71 0.7 0.02
1 0.74 74 -0.613 -10.190 0.359 -5.219 -1.221 0.854 666.616 3722.225 -2595.559 -0.083 0.416 -0.489 -0.07 -0.71 0.7 0.02
1 0.75 75 -0.469 -10.262 0.417 -3.510 -0.946 0.763 771.547 3692.245 -2700.641 -0.227 0.488 -0.553 -0.07 -0.71 0.7 0.02
1 0.76 76 -0.464 -10.166 0.364 -0.763 -1.007 1.373 501.573 3752.206 -2715.631 -0.232 0.392 -0.500 -0.07 -0.71 0.7 0.02
1 0.77 77 -0.397 -10.080 0.421 0.549 -0.031 1.648 501.573 3752.206 -2715.631 -0.299 0.306 -0.554 -0.07 -0.71 0.7 0.02
1 0.78 78 -0.517 -9.994 0.378 0.275 0.214 1.587 711.586 3572.173 -2700.641 -0.180 0.219 -0.506 -0.07 -0.71 0.7 0.02
1 0.79 79 -0.412 -10.070 0.421 -1.892 1.434 1.709 711.586 3572.173 -2700.641 -0.286 0.296 -0.545 -0.07 -0.71 0.7 0.02
1 0.80 80 -0.450 -10.008 0.393 -1.465 2.350 1.556 636.485 3647.274 -2700.641 -0.248 0.234 -0.514 -0.07 -0.71 0.7 0.02
1 0.81 81 -0.584 -10.133 0.460 -0.244 2.167 1.068 636.485 3647.274 -2700.641 -0.114 0.358 -0.579 -0.07 -0.71 0.7 0.02
1 0.82 82 -0.517 -10.037 0.421 1.984 0.641 0.580 606.505 3632.134 -2685.650 -0.180 0.262 -0.533 -0.07 -0.71 0.7 0.02
1 0.83 83 -0.417 -10.104 0.479 2.777 0.916 1.160 756.557 3512.212 -2610.549 -0.280 0.329 -0.583 -0.07 -0.71 0.7 0.02
1 0.84 84 -0.369 -10.128 0.474 3.082 0.702 0.793 756.557 3512.212 -2610.549 -0.327 0.353 -0.570 -0.07 -0.71 0.7 0.02
1 0.85 85 -0.426 -10.080 0.484 3.540 0.916 1.801 636.485 3497.222 -2700.641 -0.269 0.305 -0.571 -0.07 -0.71 0.7 0.02
1 0.86 86 -0.397 -10.061 0.464 2.808 1.526 1.801 711.586 3692.245 -2730.621 -0.298 0.286 -0.543 -0.07 -0.71 0.7 0.02
1 0.87 87 -0.407 -10.113 0.623 2.380 2.106 1.648 756.557 3557.183 -2790.582 -0.289 0.338 -0.692 -0.07 -0.71 0.7 0.02
1 0.88 88 -0.417 -10.022 0.469 3.021 2.686 2.563 756.557 3557.183 -2790.582 -0.280 0.247 -0.531 -0.07 -0.71 0.7 0.02
1 0.89 89 -0.464 -10.109 0.522 3.082 2.838 2.808 711.586 3497.222 -2805.572 -0.234 0.334 -0.567 -0.08 -0.7 0.71 0.02
1 0.90 90 -0.417 -10.042 0.445 3.265 3.876 3.632 606.505 3707.235 -2610.549 -0.284 0.267 -0.481 -0.08 -0.7 0.71 0.03
1 0.91 91 -0.292 -10.022 0.613 3.693 4.517 4.089 606.505 3707.235 -2610.549 -0.412 0.248 -0.640 -0.08 -0.7 0.71 0.03
1 0.92 92 -0.388 -10.037 0.584 4.150 5.249 4.150 756.557 3422.271 -2790.582 -0.319 0.262 -0.602 -0.08 -0.7 0.71 0.03
1 0.93 93 -0.383 -10.013 0.517 2.838 5.585 3.815 786.538 3632.134 -2865.533 -0.327 0.239 -0.526 -0.08 -0.7 0.71 0.03
1 0.94 94 -0.517 -9.927 0.541 2.350 5.951 3.754 636.485 3572.173 -2805.572 -0.196 0.153 -0.542 -0.08 -0.7 0.71 0.03
1 0.95 95 -0.579 -9.989 0.498 1.862 5.707 2.747 636.485 3572.173 -2805.572 -0.138 0.215 -0.492 -0.08 -0.7 0.71 0.03
1 0.96 96 -0.488 -9.994 0.407 1.984 6.134 2.563 726.577 3632.134 -2820.562 -0.235 0.221 -0.389 -0.08 -0.7 0.71 0.03
1 0.97 97 -0.484 -9.941 0.479 2.502 5.920 1.862 756.557 3557.183 -2610.549 -0.241 0.168 -0.455 -0.08 -0.7 0.71 0.03
1 0.98 98 -0.340 -10.018 0.618 5.341 4.761 0.458 756.557 3557.183 -2610.549 -0.386 0.245 -0.586 -0.08 -0.7 0.71 0.03
1 0.99 99 -0.493 -10.152 0.565 6.653 4.730 1.801 801.528 3692.245 -2625.540 -0.231 0.379 -0.521 -0.08 -0.7 0.71 0.03
1 1.00 100 -0.599 -10.003 0.656 7.446 4.456 0.092 756.557 3557.183 -2745.611 -0.126 0.230 -0.598 -0.08 -0.7 0.71 0.03
1 1.01 101 -0.541 -9.979 0.393 7.477 5.859 -0.092 756.557 3512.212 -2685.650 -0.181 0.206 -0.320 -0.08 -0.7 0.71 0.03
1 1.02 102 -0.680 -10.176 0.402 7.324 5.768 0.610 756.557 3512.212 -2685.650 -0.041 0.403 -0.316 -0.08 -0.7 0.71 0.03
1 1.03 103 -0.718 -10.066 0.431 7.080 4.791 0.763 711.586 3572.173 -2730.621 -0.002 0.293 -0.331 -0.08 -0.7 0.71 0.03
1 1.04 104 -0.484 -9.999 0.460 6.348 3.662 0.824 726.577 3587.163 -2685.650 -0.238 0.226 -0.336 -0.08 -0.7 0.71 0.03
1 1.05 105 -0.498 -9.999 0.292 6.531 2.838 0.793 726.577 3587.163 -2685.650 -0.223 0.226 -0.156 -0.08 -0.7 0.71 0.03
1 1.06 106 -0.512 -9.927 0.283 7.233 2.869 0.549 786.538 3632.134 -2715.631 -0.209 0.154 -0.136 -0.08 -0.7 0.71 0.03
1 1.07 107 -0.661 -9.994 0.369 6.531 3.662 -1.312 771.547 3692.245 -2805.572 -0.058 0.221 -0.210 -0.08 -0.7 0.71 0.03
1 1.08 108 -0.642 -9.922 0.464 9.186 3.204 -0.366 711.586 3497.222 -2655.520 -0.075 0.150 -0.294 -0.08 -0.7 0.71 0.03
1 1.09 109 -0.594 -9.927 0.326 9.705 1.678 -0.275 711.586 3497.222 -2655.520 -0.121 0.155 -0.142 -0.08 -0.7 0.71 0.03
1 1.10 110 -0.517 -9.917 0.426 10.254 1.709 -0.946 726.577 3482.231 -2715.631 -0.197 0.145 -0.226 -0.08 -0.69 0.71 0.03
1 1.11 111 -0.575 -9.888 0.484 9.216 2.441 -1.587 726.577 3557.183 -2820.562 -0.133 0.117 -0.252 -0.08 -0.69 0.71 0.03
1 1.12 112 -0.570 -9.927 0.354 10.620 2.625 -1.099 726.577 3557.183 -2820.562 -0.135 0.155 -0.108 -0.08 -0.69 0.72 0.03
1 1.13 113 -0.613 -9.879 0.445 9.949 1.923 -2.197 636.485 3617.144 -2835.553 -0.089 0.108 -0.182 -0.08 -0.69 0.72 0.03
1 1.14 114 -0.599 -9.783 0.402 9.247 1.831 -2.869 771.547 3437.261 -2805.572 -0.099 0.012 -0.124 -0.08 -0.69 0.72 0.03
1 1.15 115 -0.527 -9.836 0.393 8.942 1.251 -3.082 741.567 3572.173 -2955.625 -0.166 0.065 -0.100 -0.08 -0.69 0.72 0.03
1 1.16 116 -0.407 -9.773 0.374 9.338 0.458 -2.686 741.567 3572.173 -2955.625 -0.279 0.002 -0.068 -0.08 -0.69 0.72 0.03
1 1.17 117 -0.436 -9.831 0.417 10.315 1.221 -1.587 606.505 3587.163 -2820.562 -0.244 0.060 -0.098 -0.08 -0.69 0.72 0.03
1 1.18 118 -0.479 -9.730 0.407 10.193 0.916 -1.312 756.557 3377.150 -2895.514 -0.197 -0.041 -0.073 -0.08 -0.69 0.72 0.03
1 1.19 119 -0.479 -9.750 0.383 9.338 2.136 -2.197 756.557 3377.150 -2895.514 -0.189 -0.021 -0.017 -0.08 -0.69 0.72 0.04
1 1.20 120 -0.464 -9.879 0.493 9.277 2.258 -2.258 606.505 3632.134 -2715.631 -0.199 0.109 -0.113 -0.08 -0.69 0.72 0.04
1 1.21 121 -0.345 -9.836 0.388 8.942 3.204 -2.502 801.528 3542.192 -2805.572 -0.314 0.066 0.006 -0.08 -0.69 0.72 0.04
1 1.22 122 -0.402 -9.831 0.436 9.033 3.784 -2.014 741.567 3572.173 -2805.572 -0.251 0.061 -0.029 -0.08 -0.69 0.72 0.04
1 1.23 123 -0.354 -9.850 0.517 9.430 2.869 -2.899 741.567 3572.173 -2805.572 -0.294 0.081 -0.097 -0.08 -0.69 0.72 0.04
1 1.24 124 -0.493 -9.793 0.441 9.277 2.472 -3.906 711.586 3497.222 -2955.625 -0.149 0.023 -0.007 -0.08 -0.69 0.72 0.04
1 1.25 125 -0.278 -9.783 0.536 8.942 1.801 -2.930 786.538 3347.169 -2970.615 -0.357 0.014 -0.089 -0.08 -0.69 0.72 0.04
1 1.26 126 -0.215 -9.706 0.570 8.209 2.106 -2.930 786.538 3347.169 -2970.615 -0.407 -0.062 -0.096 -0.08 -0.69 0.72 0.04
1 1.27 127 -0.292 -9.678 0.455 8.850 2.594 -2.808 726.577 3452.251 -2820.562 -0.324 -0.091 0.032 -0.08 -0.68 0.72 0.04
1 1.28 128 -0.383 -9.697 0.570 9.094 3.174 -3.571 801.528 3317.189 -2985.605 -0.227 -0.071 -0.070 -0.08 -0.68 0.72 0.04
1 1.29 129 -0.426 -9.869 0.474 7.538 2.075 -3.235 801.528 3317.189 -2985.605 -0.177 0.101 0.039 -0.08 -0.68 0.72 0.04
1 1.30 130 -0.192 -9.821 0.551 9.003 1.892 -1.953 756.557 3422.271 -2970.615 -0.406 0.054 -0.027 -0.08 -0.68 0.72 0.04
1 1.31 131 -0.378 -9.745 0.503 9.979 1.740 -1.434 786.538 3482.231 -2940.634 -0.215 -0.023 0.032 -0.08 -0.68 0.72 0.04
1 1.32 132 -0.359 -9.754 0.565 9.460 1.221 -0.519 636.485 3467.241 -2985.605 -0.229 -0.013 -0.016 -0.08 -0.68 0.73 0.04
1 1.33 133 -0.330 -9.702 0.594 7.324 1.556 0.397 636.485 3467.241 -2985.605 -0.255 -0.064 -0.017 -0.08 -0.68 0.73 0.04
1 1.34 134 -0.230 -9.687 0.579 5.951 1.190 0.366 681.606 3347.169 -2895.514 -0.355 -0.078 0.008 -0.08 -0.68 0.73 0.04
1 1.35 135 -0.335 -9.659 0.532 5.707 1.404 0.153 726.577 3482.231 -2940.634 -0.248 -0.106 0.064 -0.08 -0.68 0.73 0.04
1 1.36 136 -0.287 -9.893 0.532 7.690 1.129 -0.916 726.577 3482.231 -2940.634 -0.293 0.129 0.074 -0.08 -0.68 0.73 0.04
1 1.37 137 -0.278 -9.836 0.651 7.935 0.336 -0.549 771.547 3437.261 -2835.553 -0.300 0.072 -0.036 -0.08 -0.68 0.73 0.04
1 1.38 138 -0.369 -9.908 0.589 7.172 -1.740 1.007 786.538 3587.163 -2895.514 -0.206 0.145 0.039 -0.08 -0.68 0.73 0.04
1 1.39 139 -0.148 -9.769 0.575 6.714 -1.099 1.495 801.528 3392.140 -2955.625 -0.425 0.006 0.064 -0.08 -0.68 0.73 0.04
1 1.40 140 -0.220 -9.716 0.642 3.479 -0.977 1.648 801.528 3392.140 -2955.625 -0.352 -0.045 0.015 -0.08 -0.68 0.73 0.04
1 1.41 141 -0.220 -9.802 0.546 2.869 -1.221 1.862 576.524 3422.271 -3045.566 -0.351 0.041 0.116 -0.08 -0.68 0.73 0.04
1 1.42 142 -0.306 -9.654 0.599 3.876 -0.671 3.326 576.524 3422.271 -2970.615 -0.267 -0.107 0.068 -0.08 -0.68 0.73 0.04
1 1.43 143 -0.340 -9.682 0.527 4.334 -0.854 3.540 576.524 3422.271 -2970.615 -0.236 -0.077 0.145 -0.08 -0.68 0.73 0.04
1 1.44 144 -0.230 -9.544 0.527 4.425 -1.373 3.326 666.616 3497.222 -2835.553 -0.349 -0.216 0.151 -0.08 -0.68 0.73 0.04
1 1.45 145 -0.359 -9.726 0.498 4.150 -2.808 2.075 726.577 3422.271 -3075.546 -0.222 -0.033 0.186 -0.08 -0.68 0.73 0.04
1 1.46 146 -0.579 -9.884 0.560 3.357 -2.625 1.068 741.567 3362.160 -2835.553 -0.004 0.125 0.129 -0.08 -0.68 0.73 0.04
1 1.47 147 -0.350 -9.855 0.589 3.601 -3.754 1.160 741.567 3362.160 -2835.553 -0.233 0.097 0.105 -0.08 -0.68 0.73 0.04
1 1.48 148 -0.431 -9.960 0.532 2.716 -4.181 0.793 681.606 3347.169 -3000.595 -0.152 0.203 0.172 -0.08 -0.68 0.73 0.04
1 1.49 149 -0.340 -10.037 0.541 2.411 -4.913 1.068 606.505 3512.212 -3000.595 -0.243 0.280 0.165 -0.08 -0.68 0.73 0.04
1 1.50 150 -0.268 -9.788 0.589 1.495 -3.937 1.831 606.505 3512.212 -3000.595 -0.314 0.031 0.119 -0.08 -0.68 0.73 0.04
1 1.51 151 -0.393 -9.831 0.484 -1.740 -2.167 2.228 771.547 3467.241 -3135.507 -0.190 0.074 0.225 -0.08 -0.68 0.73 0.04
1 1.52 152 -0.306 -9.711 0.402 -3.998 -2.136 1.495 756.557 3257.228 -3180.628 -0.277 -0.046 0.301 -0.08 -0.68 0.73 0.04
1 1.53 153 -0.369 -9.721 0.374 -3.357 -2.594 0.061 636.485 3362.160 -3030.576 -0.215 -0.037 0.322 -0.08 -0.68 0.73 0.04
1 1.54 154 -0.383 -9.649 0.421 -2.563 -2.747 -1.678 636.485 3362.160 -3030.576 -0.199 -0.109 0.267 -0.08 -0.68 0.73 0.04
1 1.55 155 -0.129 -9.778 0.479 -1.495 -2.960 -1.984 666.616 3392.140 -3060.556 -0.443 0.019 0.199 -0.08 -0.68 0.73 0.04
1 1.56 156 -0.105 -9.845 0.421 -2.258 -2.686 -1.038 891.619 3302.199 -3120.517 -0.461 0.085 0.252 -0.08 -0.68 0.73 0.04
1 1.57 157 -0.263 -9.797 0.546 -1.984 -2.045 -1.007 891.619 3302.199 -3120.517 -0.299 0.036 0.122 -0.08 -0.68 0.73 0.04
1 1.58 158 -0.359 -9.750 0.417 -2.563 -2.075 0.061 711.586 3392.140 -3135.507 -0.199 -0.012 0.247 -0.08 -0.68 0.73 0.04
1 1.59 159 -0.340 -9.807 0.608 -2.533 -3.174 -0.244 516.563 3467.241 -2985.605 -0.215 0.045 0.050 -0.08 -0.68 0.73 0.04
1 1.60 160 -0.421 -9.807 0.541 -4.456 -2.136 -0.275 756.557 3257.228 -2970.615 -0.131 0.044 0.112 -0.08 -0.68 0.73 0.04
1 1.61 161 -0.263 -9.769 0.455 -5.798 -1.160 -0.977 756.557 3257.228 -2970.615 -0.286 0.006 0.192 -0.08 -0.68 0.73 0.04
1 1.62 162 -0.292 -9.773 0.455 -6.165 -1.312 -0.702 726.577 3482.231 -3000.595 -0.254 0.010 0.183 -0.08 -0.68 0.73 0.04
1 1.63 163 -0.206 -9.797 0.517 -5.859 -2.106 -1.526 591.515 3437.261 -3030.576 -0.334 0.032 0.100 -0.08 -0.68 0.73 0.04
1 1.64 164 -0.326 -9.831 0.603 -5.768 -2.045 -1.831 591.515 3437.261 -3030.576 -0.209 0.064 0.004 -0.08 -0.68 0.73 0.04
1 1.65 165 -0.345 -9.884 0.464 -6.195 -1.801 -2.441 651.625 3452.251 -2940.634 -0.185 0.116 0.133 -0.08 -0.68 0.73 0.04
1 1.66 166 -0.464 -9.893 0.570 -5.249 -1.587 -2.502 636.485 3362.160 -2910.654 -0.060 0.125 0.018 -0.08 -0.68 0.73 0.04
1 1.67 167 -0.426 -9.908 0.555 -5.280 -2.380 -4.059 651.625 3422.271 -3075.546 -0.094 0.139 0.024 -0.08 -0.68 0.73 0.04
1 1.68 168 -0.369 -9.932 0.474 -5.005 -2.930 -2.899 651.625 3422.271 -3075.546 -0.144 0.162 0.098 -0.08 -0.68 0.73 0.04
1 1.69 169 -0.326 -9.932 0.517 -4.608 -2.869 -3.357 606.505 3422.271 -2970.615 -0.181 0.161 0.047 -0.07 -0.68 0.73 0.04
1 1.70 170 -0.292 -9.821 0.532 -5.463 -3.479 -3.632 756.557 3452.251 -2895.514 -0.202 0.049 0.017 -0.07 -0.68 0.73 0.04
1 1.71 171 -0.292 -9.860 0.532 -6.744 -3.204 -3.357 756.557 3452.251 -2895.514 -0.195 0.087 0.008 -0.07 -0.68 0.73 0.04
1 1.72 172 -0.249 -9.879 0.455 -6.866 -3.693 -3.052 756.557 3422.271 -2895.514 -0.232 0.105 0.075 -0.07 -0.68 0.72 0.04
1 1.73 173 -0.330 -9.965 0.460 -6.714 -3.204 -3.326 756.557 3422.271 -2895.514 -0.144 0.190 0.060 -0.07 -0.68 0.72 0.04
1 1.74 174 -0.249 -10.090 0.603 -4.028 -3.418 -2.899 711.586 3467.241 -2985.605 -0.218 0.314 -0.092 -0.07 -0.68 0.72 0.04
1 1.75 175 -0.182 -10.018 0.579 -2.869 -4.822 -3.448 711.586 3467.241 -2985.605 -0.279 0.242 -0.075 -0.07 -0.68 0.72 0.04
1 1.76 176 -0.057 -10.061 0.637 -3.326 -3.510 -1.923 726.577 3452.251 -3000.595 -0.396 0.284 -0.136 -0.07 -0.69 0.72 0.04
1 1.77 177 -0.244 -9.927 0.551 -5.798 -2.838 -2.136 741.567 3467.241 -2835.553 -0.197 0.149 -0.058 -0.07 -0.69 0.72 0.04
1 1.78 178 -0.321 -9.855 0.618 -6.165 -2.625 -1.373 741.567 3467.241 -2835.553 -0.116 0.077 -0.134 -0.07 -0.69 0.72 0.04
1 1.79 179 -0.220 -9.864 0.455 -6.866 -4.639 -2.319 666.616 3497.222 -2985.605 -0.213 0.086 0.021 -0.07 -0.69 0.72 0.04
1 1.80 180 -0.268 -9.884 0.594 -5.890 -3.967 -1.282 666.616 3497.222 -2985.605 -0.161 0.104 -0.127 -0.07 -0.69 0.72 0.04
1 1.81 181 -0.192 -9.826 0.560 -2.686 -3.021 -0.641 666.616 3467.241 -2910.654 -0.234 0.046 -0.100 -0.07 -0.69 0.72 0.04
1 1.82 182 -0.125 -9.826 0.603 -1.129 -4.120 -1.099 666.616 3467.241 -2910.654 -0.298 0.046 -0.146 -0.07 -0.69 0.72 0.04
1 1.83 183 0.062 -9.845 0.718 -1.709 -4.150 -0.336 726.577 3422.271 -2820.562 -0.480 0.065 -0.262 -0.07 -0.69 0.72 0.04
1 1.84 184 0.062 -9.797 0.594 -3.601 -2.808 -1.282 651.625 3347.169 -2970.615 -0.471 0.017 -0.140 -0.07 -0.69 0.72 0.04
1 1.85 185 0.005 -9.836 0.704 -4.791 -2.228 -0.427 651.625 3347.169 -2970.615 -0.409 0.054 -0.255 -0.07 -0.69 0.72 0.04
1 1.86 186 -0.057 -9.869 0.508 -5.096 -1.007 -0.793 606.505 3557.183 -2820.562 -0.341 0.087 -0.065 -0.07 -0.69 0.72 0.04
1 1.87 187 -0.206 -9.697 0.474 -4.425 -1.923 -0.580 606.505 3557.183 -2820.562 -0.189 -0.085 -0.038 -0.07 -0.69 0.72 0.04
1 1.88 188 -0.215 -9.845 0.450 -3.052 -4.425 0.702 651.625 3587.163 -2940.634 -0.177 0.063 -0.020 -0.07 -0.69 0.72 0.04
1 1.89 189 -0.211 -9.908 0.642 -3.021 -5.524 1.709 651.625 3587.163 -2940.634 -0.181 0.125 -0.216 -0.07 -0.69 0.72 0.04
1 1.90 190 -0.081 -9.941 0.737 -3.967 -5.920 1.556 606.505 3482.231 -3045.566 -0.311 0.158 -0.314 -0.07 -0.69 0.72 0.04
1 1.91 191 -0.057 -10.003 0.484 -2.991 -5.463 1.038 591.515 3497.222 -2910.654 -0.334 0.220 -0.064 -0.07 -0.69 0.72 0.04
1 1.92 192 -0.005 -10.099 0.651 -1.404 -5.646 0.671 591.515 3497.222 -2910.654 -0.385 0.316 -0.236 -0.07 -0.69 0.72 0.04
1 1.93 193 -0.062 -10.099 0.723 -1.007 -5.951 1.312 711.586 3392.140 -2880.523 -0.325 0.316 -0.308 -0.07 -0.69 0.72 0.04
1 1.94 194 -0.067 -10.056 0.699 -2.838 -4.852 2.472 711.586 3392.140 -2880.523 -0.319 0.272 -0.283 -0.07 -0.69 0.72 0.04
1 1.95 195 0.072 -9.951 0.728 -5.066 -3.784 3.571 591.515 3497.222 -2910.654 -0.459 0.167 -0.315 -0.07 -0.69 0.72 0.04
1 1.96 196 -0.153 -9.812 0.809 -4.608 -2.106 6.195 651.625 3302.199 -2865.533 -0.236 0.028 -0.402 -0.07 -0.69 0.72 0.04
1 1.97 197 -0.163 -9.869 0.713 -4.242 -1.770 6.073 666.616 3497.222 -2985.605 -0.233 0.086 -0.311 -0.07 -0.69 0.72 0.04
1 1.98 198 -0.244 -9.797 0.737 -3.479 -3.021 5.981 756.557 3587.163 -2865.533 -0.158 0.014 -0.338 -0.07 -0.69 0.72 0.04
1 1.99 199 -0.254 -10.037 0.747 -5.981 -3.326 4.150 756.557 3587.163 -2865.533 -0.162 0.254 -0.354 -0.07 -0.69 0.72 0.04
1 2.00 200 -0.172 -10.233 0.637 -5.707 -3.876 3.357 576.524 3557.183 -2970.615 -0.248 0.450 -0.250 -0.07 -0.69 0.72 0.04
1 2.01 201 -0.072 -10.128 0.575 -2.838 -6.073 2.716 576.524 3557.183 -2970.615 -0.350 0.344 -0.194 -0.07 -0.69 0.72 0.04
1 2.02 202 -0.057 -10.133 0.632 1.984 -7.568 2.472 666.616 3497.222 -3030.576 -0.366 0.349 -0.252 -0.07 -0.69 0.72 0.04
1 2.03 203 0.043 -9.999 0.828 2.777 -6.165 2.808 606.505 3302.199 -2865.533 -0.468 0.215 -0.443 -0.07 -0.69 0.72 0.04
1 2.04 204 0.541 -9.639 0.685 12.299 -10.529 -2.411 516.563 3437.261 -2880.523 -0.965 -0.144 -0.292 -0.07 -0.69 0.72 0.04
1 2.05 205 0.407 -9.836 0.972 2.747 -6.622 0.061 636.485 3572.173 -2955.625 -0.823 0.053 -0.562 -0.07 -0.69 0.72 0.04
1 2.06 206 -0.120 -9.568 0.781 1.190 -2.930 -1.312 636.485 3572.173 -2955.625 -0.286 -0.215 -0.357 -0.07 -0.69 0.72 0.04
1 2.07 207 -0.369 -10.046 1.020 1.953 5.096 -2.411 726.577 3512.212 -2820.562 -0.025 0.264 -0.587 -0.07 -0.69 0.72 0.04
1 2.08 208 -0.378 -10.133 0.809 3.143 2.686 0.549 726.577 3512.212 -2820.562 -0.013 0.350 -0.369 -0.07 -0.69 0.72 0.04
1 2.09 209 -0.460 -10.190 0.795 3.845 -3.082 -0.214 441.612 3497.222 -2910.654 0.068 0.408 -0.346 -0.07 -0.69 0.72 0.04
1 2.10 210 -0.067 -10.118 0.776 0.549 -5.310 2.686 606.505 3482.231 -3075.546 -0.326 0.337 -0.319 -0.07 -0.69 0.72 0.04
1 2.11 211 -0.086 -10.018 0.704 -4.761 -6.958 2.655 651.625 3422.271 -2970.615 -0.310 0.236 -0.245 -0.06 -0.69 0.72 0.04
1 2.12 212 -0.244 -10.204 0.623 -5.920 -2.136 6.775 681.606 3422.271 -2820.562 -0.153 0.423 -0.169 -0.06 -0.69 0.72 0.04
1 2.13 213 -0.153 -9.917 0.728 -1.434 -1.007 4.669 681.606 3422.271 -2820.562 -0.250 0.136 -0.280 -0.06 -0.69 0.72 0.04
1 2.14 214 0.000 -9.678 0.656 2.197 0.458 4.669 486.583 3362.160 -2880.523 -0.415 -0.103 -0.206 -0.07 -0.69 0.72 0.04
1 2.15 215 0.034 -9.568 0.675 0.977 -1.068 6.165 486.583 3362.160 -2880.523 -0.452 -0.213 -0.220 -0.07 -0.69 0.72 0.04
1 2.16 216 0.019 -9.462 0.733 -1.373 -1.892 3.845 486.583 3467.241 -2880.523 -0.442 -0.318 -0.274 -0.07 -0.69 0.72 0.04
1 2.17 217 -0.043 -9.735 0.685 -2.808 -2.594 0.488 546.544 3587.163 -3075.546 -0.381 -0.045 -0.227 -0.07 -0.69 0.72 0.04
1 2.18 218 0.201 -10.109 0.713 -3.693 -4.028 3.754 546.544 3512.212 -2970.615 -0.623 0.328 -0.258 -0.06 -0.69 0.72 0.04
1 2.19 219 0.239 -10.152 0.694 0.092 -4.730 3.265 636.485 3392.140 -2880.523 -0.662 0.371 -0.243 -0.06 -0.69 0.72 0.04
1 2.20 220 0.259 -10.152 0.886 2.808 -0.763 3.296 636.485 3392.140 -2880.523 -0.681 0.371 -0.434 -0.06 -0.69 0.72 0.04
1 2.21 221 -0.215 -9.917 0.527 2.563 0.885 2.960 726.577 3557.183 -3000.595 -0.206 0.137 -0.060 -0.06 -0.69 0.72 0.04
1 2.22 222 -0.321 -9.778 0.594 0.519 -3.876 2.380 726.577 3557.183 -3000.595 -0.102 -0.001 -0.124 -0.06 -0.69 0.72 0.04
1 2.23 223 -0.383 -9.951 0.675 -1.953 -5.829 2.686 591.515 3437.261 -2835.553 -0.043 0.171 -0.205 -0.06 -0.69 0.72 0.04
1 2.24 224 -0.254 -9.869 0.675 -2.838 -3.571 4.517 711.586 3467.241 -2880.523 -0.176 0.090 -0.206 -0.06 -0.69 0.72 0.04
1 2.25 225 -0.292 -9.797 0.589 2.014 -1.312 5.280 576.524 3557.183 -2865.533 -0.144 0.018 -0.122 -0.06 -0.69 0.72 0.04
1 2.26 226 -0.211 -9.615 0.570 4.700 -0.458 4.974 546.544 3422.271 -2865.533 -0.232 -0.163 -0.101 -0.07 -0.69 0.72 0.04
1 2.27 227 -0.508 -9.505 0.575 2.167 -3.143 3.387 546.544 3422.271 -2865.533 0.059 -0.273 -0.097 -0.07 -0.69 0.72 0.04
1 2.28 228 -0.426 -9.596 0.570 -5.341 -6.012 4.272 726.577 3377.150 -2790.582 -0.032 -0.181 -0.088 -0.07 -0.69 0.72 0.03
1 2.29 229 -0.469 -9.884 0.656 -7.141 -5.554 4.547 726.577 3377.150 -2790.582 0.005 0.106 -0.181 -0.07 -0.69 0.72 0.03
1 2.30 230 -0.541 -10.008 0.613 -5.402 -6.104 5.310 726.577 3512.212 -2865.533 0.070 0.231 -0.147 -0.07 -0.69 0.72 0.03
1 2.31 231 -0.627 -10.209 0.632 -1.526 -7.751 7.172 666.616 3572.173 -3060.556 0.147 0.432 -0.172 -0.07 -0.69 0.72 0.03
1 2.32 232 -0.484 -9.984 0.565 2.045 -8.606 7.416 471.593 3557.183 -2940.634 -0.008 0.207 -0.105 -0.07 -0.69 0.72 0.03
1 2.33 233 -0.393 -9.927 0.431 -1.312 -7.996 5.737 546.544 3512.212 -2895.514 -0.110 0.151 0.033 -0.07 -0.69 0.72 0.03
1 2.34 234 -0.311 -9.860 0.532 -3.571 -6.714 5.798 546.544 3512.212 -2895.514 -0.200 0.084 -0.068 -0.07 -0.69 0.72 0.03
1 2.35 235 -0.177 -9.812 0.455 -3.540 -7.538 7.294 606.505 3482.231 -2820.562 -0.340 0.036 0.004 -0.07 -0.69 0.72 0.03
1 2.36 236 -0.283 -9.807 0.469 -6.561 -5.707 7.599 606.505 3482.231 -2820.562 -0.252 0.032 -0.022 -0.07 -0.69 0.72 0.03
1 2.37 237 -0.388 -9.884 0.302 -6.744 -5.737 7.019 771.547 3467.241 -2730.621 -0.156 0.108 0.136 -0.07 -0.69 0.72 0.03
1 2.38 238 -0.407 -10.003 0.407 -6.256 -5.615 8.301 486.583 3542.192 -2910.654 -0.145 0.228 0.020 -0.07 -0.69 0.72 0.03
1 2.39 239 -0.579 -10.027 0.383 -3.296 -6.134 11.078 486.583 3542.192 -2910.654 0.016 0.252 0.036 -0.07 -0.69 0.72 0.03
1 2.40 240 -0.656 -9.893 0.469 -2.655 -7.233 11.932 711.586 3392.140 -2880.523 0.077 0.119 -0.054 -0.07 -0.69 0.72 0.03
1 2.41 241 -0.728 -9.841 0.374 -3.937 -7.050 10.895 711.586 3392.140 -2880.523 0.131 0.067 0.039 -0.07 -0.69 0.72 0.03
1 2.42 242 -0.493 -9.788 0.488 -4.425 -7.172 11.261 636.485 3497.222 -2880.523 -0.120 0.016 -0.081 -0.07 -0.69 0.72 0.02
1 2.43 243 -0.508 -9.879 0.575 -6.683 -4.944 9.827 636.485 3497.222 -2880.523 -0.137 0.108 -0.179 -0.07 -0.69 0.72 0.02
1 2.44 244 -0.479 -9.864 0.393 -9.522 -3.815 10.895 636.485 3497.222 -2880.523 -0.180 0.094 -0.007 -0.07 -0.69 0.72 0.02
1 2.45 245 -0.498 -9.802 0.503 -9.216 -3.418 12.207 636.485 3497.222 -2985.605 -0.176 0.033 -0.130 -0.07 -0.69 0.72 0.02
1 2.46 246 -0.565 -9.750 0.421 -9.522 -2.228 12.054 636.485 3497.222 -2985.605 -0.125 -0.019 -0.061 -0.07 -0.69 0.72 0.02
1 2.47 247 -0.565 -9.778 0.393 -9.064 0.153 11.505 636.485 3497.222 -2955.625 -0.142 0.010 -0.045 -0.07 -0.69 0.72 0.02
1 2.48 248 -0.565 -9.721 0.421 -9.430 1.190 11.810 636.485 3497.222 -2955.625 -0.159 -0.047 -0.087 -0.07 -0.69 0.72 0.02
1 2.49 249 -0.737 -9.730 0.297 -10.376 2.960 12.512 711.586 3617.144 -2910.654 -0.003 -0.036 0.023 -0.07 -0.69 0.72 0.02
1 2.50 250 -0.848 -9.659 0.321 -12.665 4.425 10.834 711.586 3617.144 -2910.654 0.089 -0.107 -0.016 -0.07 -0.69 0.72 0.02
1 2.51 251 -1.020 -9.577 0.105 -15.167 4.456 8.148 486.583 3542.192 -2775.592 0.231 -0.187 0.161 -0.07 -0.69 0.72 0.02
1 2.52 252 -1.106 -9.582 0.196 -15.900 2.625 7.629 726.577 3452.251 -2820.562 0.303 -0.182 0.046 -0.07 -0.69 0.72 0.02
1 2.53 253 -0.967 -9.520 0.010 -18.829 1.862 6.348 726.577 3452.251 -2820.562 0.151 -0.244 0.207 -0.07 -0.7 0.71 0.02
1 2.54 254 -1.034 -9.687 0.081 -18.036 2.136 6.683 801.528 3467.241 -2775.592 0.206 -0.076 0.105 -0.07 -0.7 0.71 0.02
1 2.55 255 -0.982 -9.874 -0.024 -15.625 1.434 6.592 801.528 3467.241 -2775.592 0.143 0.111 0.183 -0.08 -0.7 0.71 0.02
1 2.56 256 -1.168 -9.778 -0.072 -14.923 1.709 4.517 786.538 3632.134 -2745.611 0.318 0.016 0.205 -0.08 -0.7 0.71 0.02
1 2.57 257 -1.188 -9.831 -0.043 -14.313 1.160 5.341 786.538 3632.134 -2745.611 0.329 0.069 0.153 -0.08 -0.7 0.71 0.02
1 2.58 258 -1.087 -9.817 0.000 -15.350 1.953 5.127 771.547 3617.144 -2985.605 0.211 0.056 0.064 -0.08 -0.7 0.71 0.01
1 2.59 259 -1.049 -9.812 -0.086 -16.266 1.556 5.890 501.573 3587.163 -2820.562 0.164 0.052 0.126 -0.08 -0.7 0.71 0.01
1 2.60 260 -1.092 -9.678 -0.230 -17.944 1.465 5.554 501.573 3587.163 -2820.562 0.197 -0.081 0.245 -0.08 -0.7 0.71 0.01
1 2.61 261 -1.058 -9.788 -0.168 -19.257 0.671 7.172 636.485 3497.222 -2700.641 0.153 0.030 0.154 -0.08 -0.7 0.71 0.01
1 2.62 262 -1.207 -9.917 -0.302 -20.355 1.343 5.585 801.528 3572.173 -2700.641 0.290 0.160 0.256 -0.08 -0.7 0.71 0.01
1 2.63 263 -1.221 -9.994 -0.254 -18.280 1.251 7.355 741.567 3572.173 -2730.621 0.294 0.238 0.176 -0.08 -0.71 0.7 0.01
1 2.64 264 -1.317 -10.042 -0.259 -16.693 0.183 7.294 741.567 3572.173 -2730.621 0.378 0.287 0.151 -0.08 -0.71 0.7 0.01
1 2.65 265 -1.111 -10.008 -0.283 -15.228 -0.244 8.575 786.538 3557.183 -2820.562 0.148 0.257 0.123 -0.08 -0.71 0.7 0.01
1 2.66 266 -1.135 -9.807 -0.287 -14.435 -0.641 10.407 861.489 3632.134 -2685.650 0.156 0.058 0.105 -0.08 -0.71 0.7 0.01
1 2.67 267 -1.188 -9.812 -0.407 -14.221 0.183 9.308 861.489 3632.134 -2685.650 0.193 0.065 0.202 -0.08 -0.71 0.7 0.01
1 2.68 268 -1.255 -9.659 -0.474 -13.855 1.282 9.216 891.619 3587.163 -2745.611 0.244 -0.087 0.246 -0.08 -0.71 0.7 0.01
1 2.69 269 -1.346 -9.745 -0.555 -10.651 1.282 8.026 741.567 3722.225 -2655.520 0.321 0.002 0.306 -0.08 -0.71 0.7 0.01
1 2.70 270 -1.274 -9.941 -0.426 -9.338 0.946 8.179 876.479 3647.274 -2700.641 0.235 0.200 0.158 -0.08 -0.71 0.7 0.01
1 2.71 271 -1.135 -10.027 -0.369 -7.507 -0.427 9.644 876.479 3647.274 -2700.641 0.082 0.288 0.084 -0.09 -0.71 0.7 0.01
1 2.72 272 -1.183 -9.955 -0.383 -4.730 0.061 6.531 876.479 3647.274 -2520.608 0.101 0.220 0.076 -0.09 -0.71 0.7 0.01
1 2.73 273 -1.063 -9.965 -0.369 -3.967 0.061 4.608 681.606 3557.183 -2745.611 -0.028 0.231 0.055 -0.09 -0.71 0.7 0.01
1 2.74 274 -1.164 -9.960 -0.522 -3.113 1.862 4.059 681.606 3557.183 -2745.611 0.069 0.227 0.201 -0.09 -0.71 0.7 0.01
1 2.75 275 -1.279 -9.888 -0.555 -3.296 1.190 4.150 831.508 3692.245 -2550.588 0.178 0.156 0.228 -0.09 -0.71 0.7 0.01
1 2.76 276 -1.417 -9.702 -0.632 -1.709 -0.336 0.549 666.616 3797.176 -2775.592 0.310 -0.030 0.299 -0.09 -0.71 0.69 0.01
1 2.77 277 -1.499 -9.903 -0.541 -0.580 -0.519 -0.519 756.557 3632.134 -2715.631 0.386 0.172 0.202 -0.09 -0.71 0.69 0.01
1 2.78 278 -1.360 -9.975 -0.512 -0.854 -1.648 0.427 756.557 3632.134 -2715.631 0.246 0.244 0.171 -0.09 -0.71 0.69 0.01
1 2.79 279 -1.480 -9.946 -0.565 -1.404 -2.319 2.838 786.538 3677.254 -2640.530 0.362 0.216 0.222 -0.09 -0.71 0.69 0.01
1 2.80 280 -1.413 -9.908 -0.412 0.458 -5.005 3.113 786.538 3677.254 -2745.611 0.281 0.179 0.064 -0.09 -0.71 0.69 0
1 2.81 281 -1.408 -9.912 -0.388 2.045 -6.012 2.136 786.538 3677.254 -2745.611 0.270 0.185 0.041 -0.09 -0.71 0.69 0
1 2.82 282 -1.374 -9.975 -0.369 1.831 -6.134 3.204 906.609 3692.245 -2550.588 0.230 0.248 0.026 -0.09 -0.71 0.69 0
1 2.83 283 -1.508 -9.697 -0.359 -1.038 -6.256 3.906 771.547 3722.225 -2700.641 0.357 -0.029 0.018 -0.09 -0.71 0.69 0
1 2.84 284 -1.523 -9.879 -0.053 1.740 -5.859 4.242 801.528 3617.144 -2700.641 0.363 0.154 -0.287 -0.09 -0.71 0.69 0
1 2.85 285 -1.379 -9.898 -0.316 0.824 -5.310 6.012 801.528 3617.144 -2700.641 0.210 0.174 -0.019 -0.09 -0.71 0.69 0
1 2.86 286 -1.470 -9.783 -0.326 4.913 -7.050 5.554 801.528 3542.192 -2655.520 0.291 0.060 -0.006 -0.09 -0.71 0.7 0
1 2.87 287 -1.269 -9.735 -0.196 5.951 -6.104 7.965 891.619 3677.254 -2745.611 0.069 0.014 -0.118 0.09 0.71 -0.7 0
1 2.88 288 -1.283 -9.663 -0.402 2.716 -6.561 8.148 891.619 3677.254 -2745.611 0.071 -0.057 0.097 0.09 0.71 -0.7 0
1 2.89 289 -1.255 -9.577 -0.306 0.366 -9.064 5.890 741.567 3617.144 -2655.520 0.030 -0.141 0.005 0.09 0.71 -0.7 0
1 2.90 290 -1.279 -9.505 -0.393 -0.397 -10.925 3.296 891.619 3587.163 -2535.598 0.045 -0.212 0.093 0.09 0.71 -0.7 0
1 2.91 291 -1.437 -9.769 -0.330 -0.763 -10.468 1.617 891.619 3677.254 -2685.650 0.197 0.052 0.032 0.09 0.71 -0.7 0
1 2.92 292 -1.451 -9.797 -0.354 -0.244 -11.383 0.671 891.619 3677.254 -2685.650 0.208 0.081 0.057 0.09 0.71 -0.7 0
1 2.93 293 -1.398 -9.845 -0.407 1.007 -11.688 0.732 726.577 3512.212 -2640.530 0.152 0.129 0.111 0.09 0.71 -0.7 0
1 2.94 294 -1.417 -9.793 -0.345 0.305 -12.177 2.136 681.606 3587.163 -2745.611 0.169 0.077 0.051 0.09 0.71 -0.7 0.01
1 2.95 295 -1.231 -9.682 -0.397 -0.305 -12.756 2.258 681.606 3587.163 -2745.611 -0.028 -0.032 0.108 0.09 0.71 -0.7 0.01
1 2.96 296 -1.130 -9.630 -0.474 0.702 -12.299 1.648 876.479 3572.173 -2625.540 -0.131 -0.084 0.186 0.08 0.71 -0.7 0.01
1 2.97 297 -1.092 -9.678 -0.335 -0.153 -12.024 0.153 681.606 3587.163 -2640.530 -0.171 -0.036 0.050 0.08 0.71 -0.7 0.01
1 2.98 298 -1.116 -9.711 -0.508 -2.350 -9.613 0.824 771.547 3572.173 -2775.592 -0.146 -0.003 0.223 0.08 0.71 -0.7 0.01
1 2.99 299 -1.302 -9.510 -0.512 -6.775 -9.277 0.336 771.547 3572.173 -2775.592 0.039 -0.204 0.223 0.08 0.71 -0.7 0.01
1 3.00 300 -1.063 -9.520 -0.651 -7.538 -11.444 0.732 741.567 3542.192 -2700.641 -0.202 -0.194 0.354 0.08 0.71 -0.7 0.01
1 3.01 301 -1.259 -9.721 -0.737 -5.310 -11.231 1.984 861.489 3557.183 -2715.631 -0.007 0.008 0.428 0.08 0.71 -0.7 0.01
1 3.02 302 -1.437 -9.716 -0.761 -0.793 -8.331 3.967 861.489 3557.183 -2715.631 0.164 0.004 0.437 0.08 0.71 -0.7 0.01
1 3.03 303 -1.508 -9.644 -0.910 0.092 -10.651 3.113 726.577 3752.206 -2685.650 0.229 -0.066 0.583 0.08 0.71 -0.7 0.01
1 3.04 304 -1.374 -9.481 -0.795 -0.732 -13.367 1.312 756.557 3632.134 -2745.611 0.088 -0.228 0.466 0.08 0.71 -0.7 0.01
1 3.05 305 -1.221 -9.453 -0.833 -3.967 -13.336 -0.397 756.557 3632.134 -2745.611 -0.068 -0.257 0.502 0.08 0.71 -0.69 0.01
1 3.06 306 -1.106 -9.553 -0.891 -7.996 -10.437 -2.289 726.577 3707.235 -2685.650 -0.183 -0.156 0.550 0.08 0.71 -0.69 0.02
1 3.07 307 -1.240 -9.644 -0.905 -6.317 -8.667 -4.303 771.547 3647.274 -2655.520 -0.045 -0.065 0.552 0.08 0.72 -0.69 0.02
1 3.08 308 -1.346 -9.735 -0.910 -2.777 -9.308 -6.531 726.577 3587.163 -2745.611 0.067 0.026 0.545 0.08 0.72 -0.69 0.02
1 3.09 309 -1.336 -9.606 -0.982 0.702 -11.688 -7.507 726.577 3587.163 -2745.611 0.075 -0.105 0.604 0.08 0.72 -0.69 0.02
1 3.10 310 -1.336 -9.563 -0.943 1.892 -12.909 -6.714 876.479 3617.144 -2655.520 0.085 -0.150 0.565 0.08 0.72 -0.69 0.02
1 3.11 311 -1.489 -9.534 -0.905 0.519 -12.726 -7.996 771.547 3647.274 -2625.540 0.247 -0.180 0.528 0.07 0.72 -0.69 0.02
1 3.12 312 -1.595 -9.587 -0.929 -2.228 -14.343 -10.284 771.547 3647.274 -2625.540 0.362 -0.128 0.550 0.07 0.72 -0.69 0.02
1 3.13 313 -1.599 -9.692 -0.881 -5.463 -17.365 -9.430 681.606 3632.134 -2790.582 0.379 -0.024 0.496 0.07 0.72 -0.69 0.02
1 3.14 314 -1.532 -9.659 -0.967 -5.768 -18.066 -10.284 726.577 3587.163 -2535.598 0.323 -0.058 0.573 0.07 0.72 -0.69 0.02
1 3.15 315 -1.437 -9.778 -0.924 -5.341 -19.470 -9.674 666.616 3542.192 -2655.520 0.238 0.060 0.522 0.07 0.72 -0.69 0.02
1 3.16 316 -1.331 -9.745 -0.929 -6.714 -19.287 -7.233 666.616 3542.192 -2655.520 0.154 0.025 0.508 0.07 0.72 -0.69 0.02
1 3.17 317 -1.341 -9.807 -1.044 -6.805 -18.555 -5.859 651.625 3587.163 -2745.611 0.171 0.087 0.613 0.07 0.72 -0.69 0.02
1 3.18 318 -1.312 -9.778 -1.159 -7.019 -18.341 -5.859 756.557 3707.235 -2685.650 0.149 0.058 0.716 0.06 0.72 -0.69 0.02
1 3.19 319 -1.413 -9.673 -1.106 -7.996 -19.531 -7.599 756.557 3707.235 -2685.650 0.257 -0.048 0.651 0.06 0.72 -0.69 0.02
1 3.20 320 -1.432 -9.826 -1.197 -6.317 -20.050 -9.552 591.515 3797.176 -2730.621 0.284 0.105 0.730 0.06 0.72 -0.69 0.02
1 3.21 321 -1.528 -9.860 -1.178 -6.348 -20.142 -9.277 681.606 3707.235 -2715.631 0.391 0.138 0.698 0.06 0.72 -0.69 0.02
1 3.22 322 -1.518 -9.898 -1.116 -4.852 -20.722 -6.531 546.544 3707.235 -2745.611 0.391 0.175 0.625 0.06 0.72 -0.69 0.02
1 3.23 323 -1.451 -9.869 -1.073 -3.113 -21.545 -6.165 546.544 3707.235 -2745.611 0.331 0.146 0.572 0.06 0.72 -0.69 0.02
1 3.24 324 -1.384 -9.970 -1.197 -0.458 -21.454 -6.744 606.505 3587.163 -2640.530 0.276 0.246 0.687 0.05 0.72 -0.69 0.03
1 3.25 325 -1.494 -9.812 -1.298 3.113 -22.278 -4.974 441.612 3692.245 -2550.588 0.391 0.087 0.787 0.05 0.72 -0.69 0.03
1 3.26 326 -1.235 -9.850 -1.326 5.035 -24.597 -5.402 441.612 3692.245 -2550.588 0.136 0.125 0.819 0.05 0.72 -0.69 0.03
1 3.27 327 -1.221 -9.888 -1.355 4.974 -25.391 -6.653 591.515 3797.176 -2625.540 0.126 0.163 0.854 0.05 0.72 -0.69 0.03
1 3.28 328 -1.039 -10.066 -1.283 2.045 -26.245 -6.653 486.583 3692.245 -2595.559 -0.049 0.339 0.788 0.05 0.72 -0.69 0.03
1 3.29 329 -1.111 -10.018 -1.269 0.183 -24.750 -4.486 486.583 3722.225 -2625.540 0.030 0.290 0.775 0.05 0.72 -0.69 0.03
1 3.30 330 -1.149 -9.864 -1.140 0.488 -20.172 -4.303 486.583 3722.225 -2625.540 0.075 0.136 0.645 0.05 0.72 -0.69 0.03
1 3.31 331 -1.542 -10.032 -1.240 3.387 -15.930 -2.808 381.501 3542.192 -2730.621 0.476 0.303 0.744 0.04 0.72 -0.69 0.03
1 3.32 332 -1.753 -9.955 -1.532 5.798 -16.785 -3.174 396.492 3557.183 -2640.530 0.687 0.226 1.039 0.04 0.72 -0.69 0.04
1 3.33 333 -1.762 -10.195 -1.959 6.683 -22.186 -6.348 396.492 3557.183 -2640.530 0.697 0.465 1.471 0.04 0.72 -0.69 0.04
1 3.34 334 -1.657 -10.520 -2.217 5.035 -28.687 -8.942 471.593 3632.134 -2715.631 0.595 0.790 1.733 0.04 0.72 -0.69 0.04
1 3.35 335 -1.642 -10.607 -1.532 1.740 -27.466 -10.254 426.622 3587.163 -2610.549 0.589 0.875 1.053 0.04 0.72 -0.69 0.04
1 3.36 336 -1.705 -10.770 -1.283 7.111 -22.583 -12.909 276.570 3632.134 -2610.549 0.663 1.036 0.811 0.04 0.72 -0.69 0.04
1 3.37 337 -1.805 -11.220 -1.015 16.510 -20.355 -10.834 276.570 3632.134 -2610.549 0.780 1.484 0.554 0.03 0.72 -0.69 0.04
1 3.38 338 -0.804 -12.723 0.110 15.015 -27.557 12.054 351.521 3557.183 -2565.579 -0.204 2.984 -0.515 0.03 0.72 -0.69 0.04
1 3.39 339 -0.259 -12.790 0.383 0.519 -26.459 29.877 396.492 3632.134 -2715.631 -0.777 3.053 -0.767 0.03 0.72 -0.69 0.04
1 3.40 340 0.397 -12.436 -0.048 -0.732 -7.416 33.936 396.492 3632.134 -2715.631 -1.482 2.704 -0.334 0.03 0.72 -0.69 0.05
1 3.41 341 0.177 -12.264 -0.479 7.538 10.559 29.938 336.531 3617.144 -2835.553 -1.311 2.537 0.100 0.03 0.72 -0.69 0.05
1 3.42 342 -0.139 -11.876 -0.397 4.608 12.421 18.250 276.570 3482.231 -2715.631 -1.035 2.153 0.027 0.03 0.72 -0.69 0.05
1 3.43 343 -0.393 -11.483 0.043 3.540 1.526 4.425 336.531 3572.173 -2625.540 -0.804 1.763 -0.410 0.04 0.72 -0.69 0.05
1 3.44 344 -0.230 -11.488 0.345 11.749 1.129 2.747 336.531 3572.173 -2625.540 -0.977 1.769 -0.708 0.04 0.72 -0.69 0.05
1 3.45 345 -0.177 -11.277 0.445 13.702 13.306 3.723 426.622 3677.254 -2535.598 -1.034 1.559 -0.795 0.04 0.72 -0.69 0.05
1 3.46 346 -0.584 -10.319 -0.263 6.866 31.738 -3.754 351.521 3632.134 -2790.582 -0.632 0.600 -0.056 0.04 0.72 -0.69 0.05
1 3.47 347 -1.360 -9.381 -0.728 1.495 30.487 -11.536 351.521 3632.134 -2790.582 0.160 -0.340 0.412 0.04 0.72 -0.69 0.05
1 3.48 348 -2.097 -8.816 -0.953 -0.244 22.858 -20.325 336.531 3617.144 -2655.520 0.920 -0.908 0.630 0.04 0.72 -0.69 0.04
1 3.49 349 -2.318 -8.854 -0.670 -1.495 15.045 -27.252 336.531 3617.144 -2655.520 1.169 -0.873 0.338 0.04 0.72 -0.69 0.04
1 3.50 350 -2.366 -8.868 0.110 -2.289 5.890 -25.208 306.550 3572.173 -2700.641 1.249 -0.862 -0.450 0.04 0.72 -0.69 0.04
1 3.51 351 -2.270 -8.849 0.273 1.526 4.334 -19.684 306.550 3572.173 -2700.641 1.182 -0.884 -0.618 0.04 0.72 -0.69 0.04
1 3.52 352 -1.906 -8.624 0.225 8.484 2.777 -12.665 351.521 3587.163 -2535.598 0.841 -1.112 -0.567 0.04 0.72 -0.69 0.04
1 3.53 353 -1.121 -8.193 0.397 13.397 -2.747 -2.869 441.612 3542.192 -2655.520 0.076 -1.546 -0.706 0.04 0.72 -0.69 0.04
1 3.54 354 -0.680 -8.332 0.843 8.179 -3.204 1.526 441.612 3542.192 -2655.520 -0.362 -1.408 -1.132 0.04 0.72 -0.7 0.04
1 3.55 355 -0.235 -8.361 1.053 0.244 -1.770 2.808 426.622 3587.163 -2640.530 -0.811 -1.379 -1.333 0.04 0.72 -0.7 0.04
1 3.56 356 0.235 -8.801 1.159 -5.951 -1.862 2.014 351.521 3587.163 -2715.631 -1.284 -0.938 -1.440 0.04 0.72 -0.7 0.04
1 3.57 357 0.632 -9.539 1.355 -8.881 -1.495 0.977 351.521 3587.163 -2715.631 -1.679 -0.201 -1.641 0.04 0.72 -0.7 0.04
1 3.58 358 0.785 -9.850 1.178 -6.928 3.021 2.411 36.126 3498.121 -2656.869 -1.822 0.109 -1.465 0.04 0.72 -0.7 0.04
1 3.59 359 0.599 -9.898 1.307 -5.859 6.897 3.448 471.293 3483.581 -2747.710 -1.625 0.156 -1.594 0.04 0.72 -0.7 0.04
1 3.60 360 0.254 -9.706 1.398 -8.514 11.932 7.355 201.319 3558.682 -2792.681 -1.268 -0.037 -1.683 0.04 0.72 -0.7 0.04
1 3.61 361 0.354 -9.505 1.197 -8.606 11.566 9.460 201.319 3558.682 -2792.681 -1.370 -0.238 -1.485 0.04 0.72 -0.7 0.04
1 3.62 362 -0.010 -9.352 0.742 -1.556 8.881 5.524 306.250 3468.590 -2882.622 -1.009 -0.390 -1.033 0.04 0.72 -0.7 0.04
1 3.63 363 -0.316 -9.553 0.421 7.050 6.012 -0.610 306.250 3468.590 -2882.622 -0.701 -0.190 -0.703 0.04 0.72 -0.7 0.03
1 3.64 364 -0.029 -9.797 0.627 7.141 1.434 -4.700 321.241 3303.548 -2792.681 -0.979 0.053 -0.892 0.04 0.72 -0.7 0.03
1 3.65 365 0.101 -10.037 0.623 2.258 1.129 -5.280 321.241 3303.548 -2792.681 -1.095 0.291 -0.870 0.04 0.71 -0.7 0.03
1 3.66 366 0.388 -10.147 0.857 -2.167 4.608 -6.073 396.192 3588.662 -2822.661 -1.367 0.399 -1.093 0.04 0.71 -0.7 0.03
1 3.67 367 0.541 -10.262 0.646 -4.883 10.010 -7.050 261.280 3573.672 -2882.622 -1.503 0.512 -0.878 0.04 0.71 -0.7 0.03
1 3.68 368 0.680 -10.324 0.479 2.380 17.273 -9.430 261.280 3573.672 -2882.622 -1.597 0.570 -0.710 0.04 0.71 -0.7 0.03
1 3.69 369 0.479 -10.166 0.311 11.322 18.433 -13.550 261.280 3543.691 -2732.720 -1.368 0.409 -0.532 0.04 0.71 -0.7 0.03
1 3.70 370 0.522 -9.922 0.235 17.792 15.564 -19.165 261.280 3543.691 -2732.720 -1.377 0.161 -0.434 0.04 0.71 -0.7 0.03
1 3.71 371 0.484 -9.730 0.215 17.792 10.986 -22.858 201.319 3483.581 -2642.628 -1.298 -0.034 -0.386 0.04 0.71 -0.7 0.02
1 3.72 372 0.824 -9.524 0.340 9.674 7.690 -29.480 186.329 3438.610 -2657.619 -1.593 -0.244 -0.484 0.03 0.71 -0.7 0.02
1 3.73 373 0.891 -9.505 0.565 3.174 8.362 -32.288 351.221 3483.581 -2642.628 -1.607 -0.268 -0.689 0.03 0.71 -0.7 0.02
1 3.74 374 1.044 -9.635 0.555 -0.366 10.040 -33.173 186.329 3498.571 -2702.739 -1.701 -0.143 -0.670 0.03 0.71 -0.7 0.02
1 3.75 375 0.804 -9.663 0.225 2.106 13.977 -32.532 186.329 3498.571 -2702.739 -1.340 -0.121 -0.331 0.03 0.71 -0.7 0.01
1 3.76 376 0.651 -9.548 0.259 4.852 14.313 -32.440 231.299 3468.590 -2732.720 -1.127 -0.239 -0.359 0.03 0.71 -0.7 0.01
1 3.77 377 0.618 -9.524 0.259 7.294 12.939 -30.975 231.299 3468.590 -2732.720 -1.036 -0.266 -0.348 0.02 0.71 -0.7 0.01
1 3.78 378 0.637 -9.438 0.067 10.345 12.207 -28.046 171.188 3423.620 -2792.681 -1.002 -0.355 -0.143 0.02 0.71 -0.7 0
1 3.79 379 0.685 -9.228 -0.125 11.139 13.672 -23.560 276.270 3513.561 -2717.729 -1.002 -0.567 0.065 0.02 0.71 -0.7 0
1 3.80 380 0.699 -9.146 -0.005 8.728 16.022 -19.836 141.208 3378.649 -2642.628 -0.972 -0.650 -0.037 -0.02 -0.71 0.71 0
1 3.81 381 0.742 -9.026 -0.067 4.944 17.975 -17.609 186.329 3543.691 -2807.671 -0.977 -0.771 0.038 -0.02 -0.71 0.71 0
1 3.82 382 0.613 -9.094 -0.062 2.686 18.555 -15.411 186.329 3543.691 -2807.671 -0.813 -0.704 0.042 -0.02 -0.71 0.71 0.01
1 3.83 383 0.584 -8.964 -0.206 0.916 18.860 -10.925 171.188 3303.548 -2717.729 -0.728 -0.835 0.191 -0.02 -0.71 0.71 0.01
1 3.84 384 0.723 -9.022 -0.225 1.862 20.081 -9.369 171.188 3303.548 -2717.729 -0.845 -0.778 0.210 -0.02 -0.71 0.71 0.01
1 3.85 385 0.599 -9.026 -0.182 1.923 20.447 -8.392 111.228 3498.571 -2657.619 -0.701 -0.773 0.168 -0.02 -0.71 0.71 0.01
1 3.86 386 0.484 -8.940 -0.254 1.251 19.074 -8.545 171.188 3483.581 -2822.661 -0.567 -0.859 0.240 -0.02 -0.71 0.71 0.02
1 3.87 387 0.378 -8.983 -0.536 -1.495 16.785 -11.139 231.299 3393.639 -2777.690 -0.444 -0.816 0.523 -0.02 -0.71 0.71 0.02
1 3.88 388 0.163 -9.199 -0.627 -2.136 12.604 -12.665 201.319 3348.668 -2897.612 -0.209 -0.601 0.610 -0.02 -0.71 0.71 0.02
1 3.89 389 0.383 -9.467 -0.924 -2.808 8.637 -12.054 201.319 3348.668 -2897.612 -0.408 -0.333 0.899 -0.02 -0.71 0.71 0.02
1 3.90 390 0.613 -9.936 -0.852 -6.409 4.517 -7.385 111.228 3393.639 -2882.622 -0.599 0.136 0.805 -0.02 -0.71 0.71 0.02
1 3.91 391 0.852 -10.248 -0.737 -11.688 4.913 0.366 111.228 3393.639 -2882.622 -0.825 0.448 0.672 -0.02 -0.71 0.7 0.02
1 3.92 392 1.049 -10.497 -0.551 -15.839 10.651 6.287 201.319 3453.600 -2792.681 -1.019 0.697 0.461 -0.02 -0.71 0.7 0.02
1 3.93 393 0.895 -10.655 -0.637 -15.961 18.341 8.606 246.290 3378.649 -2747.710 -0.869 0.855 0.520 -0.02 -0.71 0.7 0.02
1 3.94 394 0.623 -10.741 -0.594 -1.373 19.348 16.266 141.208 3348.668 -2822.661 -0.602 0.942 0.451 -0.02 -0.71 0.7 0.03
1 3.95 395 0.517 -10.339 -0.608 16.785 14.404 17.944 171.188 3348.668 -2687.749 -0.518 0.540 0.457 -0.03 -0.71 0.7 0.03
1 3.96 396 0.575 -9.706 -0.584 28.504 8.789 20.783 171.188 3348.668 -2687.749 -0.597 -0.093 0.448 -0.03 -0.71 0.7 0.03
1 3.97 397 0.790 -9.022 -0.474 26.184 7.050 22.888 171.188 3453.600 -2567.677 -0.866 -0.778 0.416 -0.03 -0.71 0.7 0.02
1 3.98 398 0.991 -9.022 -0.417 15.533 10.895 22.919 171.188 3453.600 -2567.677 -1.095 -0.778 0.391 -0.03 -0.71 0.71 0.02
1 3.99 399 1.034 -9.007 -0.460 4.181 15.503 23.834 141.208 3483.581 -2792.681 -1.166 -0.792 0.450 -0.03 -0.71 0.71 0.02
1 4.00 400 0.790 -9.103 -0.326 -2.625 18.524 23.651 186.329 3393.639 -2702.739 -0.949 -0.696 0.315 -0.03 -0.71 0.71 0.02
1 4.01 401 0.412 -9.328 -0.584 -4.150 18.402 21.393 171.188 3423.620 -2687.749 -0.597 -0.470 0.566 -0.04 -0.71 0.71 0.02
1 4.02 402 0.105 -9.304 -0.718 -0.031 10.803 15.320 246.290 3453.600 -2792.681 -0.316 -0.493 0.689 -0.04 -0.71 0.71 0.02
1 4.03 403 0.029 -9.304 -0.790 5.188 2.594 12.299 246.290 3453.600 -2792.681 -0.261 -0.493 0.754 -0.04 -0.71 0.71 0.02
1 4.04 404 0.441 -9.256 -0.742 9.216 -7.446 13.031 396.192 3348.668 -2792.681 -0.706 -0.540 0.712 -0.04 -0.71 0.71 0.02
1 4.05 405 0.838 -9.486 -0.479 6.836 -6.287 15.167 396.192 3348.668 -2792.681 -1.118 -0.310 0.457 -0.04 -0.71 0.71 0.02
1 4.06 406 0.986 -9.544 -0.464 -1.160 -1.709 16.205 201.319 3423.620 -2642.628 -1.282 -0.252 0.446 -0.04 -0.71 0.71 0.02
1 4.07 407 1.025 -9.745 -0.484 -9.033 2.930 16.419 261.280 3438.610 -2732.720 -1.336 -0.050 0.457 -0.04 -0.71 0.71 0.02
1 4.08 408 1.173 -10.166 -1.001 -13.886 4.181 18.127 321.241 3423.620 -2687.749 -1.499 0.372 0.954 -0.04 -0.71 0.71 0.02
1 4.09 409 1.288 -10.200 -1.240 -10.071 2.380 16.815 276.270 3378.649 -2792.681 -1.631 0.406 1.167 -0.04 -0.71 0.7 0.02
1 4.10 410 1.379 -10.492 -1.532 0.641 3.418 15.228 276.270 3378.649 -2792.681 -1.736 0.699 1.434 -0.04 -0.71 0.7 0.02
1 4.11 411 1.456 -10.588 -1.441 6.409 8.148 16.846 261.280 3363.659 -2657.619 -1.823 0.795 1.330 -0.04 -0.71 0.7 0.02
1 4.12 412 1.427 -10.530 -1.355 3.815 13.367 20.660 261.280 3363.659 -2657.619 -1.825 0.739 1.245 -0.05 -0.71 0.7 0.02
1 4.13 413 1.504 -10.664 -1.259 0.214 15.869 24.475 471.293 3228.597 -2642.628 -1.919 0.874 1.142 -0.05 -0.71 0.7 0.02
1 4.14 414 1.652 -10.453 -1.508 -0.092 15.442 25.604 381.202 3468.590 -2627.638 -2.105 0.665 1.390 -0.05 -0.71 0.7 0.02
1 4.15 415 1.935 -10.401 -1.944 3.021 15.167 26.367 396.192 3303.548 -2792.681 -2.418 0.614 1.821 -0.05 -0.71 0.7 0.02
1 4.16 416 2.208 -9.754 -1.058 1.282 21.149 24.384 516.264 3438.610 -2702.739 -2.714 -0.032 0.926 -0.05 -0.71 0.7 0.02
1 4.17 417 1.647 -10.066 0.010 -2.716 34.302 16.327 516.264 3438.610 -2702.739 -2.171 0.281 -0.153 -0.06 -0.71 0.7 0.02
1 4.18 418 -0.388 -10.975 1.025 -1.923 52.490 -17.822 426.322 3378.649 -2492.726 -0.144 1.191 -1.179 -0.06 -0.71 0.7 0.02
1 4.19 419 -3.582 -12.843 0.029 -43.152 19.501 -57.709 426.322 3378.649 -2492.726 3.145 3.055 -0.220 -0.06 -0.71 0.7 0.03
1 4.20 420 -2.528 -14.122 -1.144 -64.392 -15.381 -67.291 501.273 3348.668 -2717.729 2.183 4.331 0.878 -0.06 -0.71 0.7 0.03
1 4.21 421 -1.053 -15.400 -0.943 -59.784 -32.776 -59.143 441.312 3393.639 -2657.619 0.808 5.610 0.579 -0.05 -0.72 0.69 0.03
1 4.22 422 0.110 -15.146 0.292 -22.064 -28.168 -31.067 441.312 3393.639 -2657.619 -0.278 5.358 -0.733 -0.05 -0.72 0.69 0.03
1 4.23 423 0.297 -12.762 1.346 0.122 -12.146 7.690 426.322 3453.600 -2567.677 -0.431 2.973 -1.806 -0.04 -0.72 0.69 0.03
1 4.24 424 0.421 -11.488 1.168 -14.740 -12.878 23.346 426.322 3453.600 -2567.677 -0.560 1.700 -1.627 -0.04 -0.72 0.69 0.03
1 4.25 425 0.699 -10.793 1.202 -15.930 -18.616 26.764 231.299 3498.571 -2552.687 -0.869 1.006 -1.677 -0.04 -0.72 0.69 0.03
1 4.26 426 1.489 -10.171 1.283 4.822 -17.639 23.743 231.299 3498.571 -2552.687 -1.733 0.387 -1.785 -0.05 -0.72 0.69 0.03
1 4.27 427 2.155 -9.362 1.523 5.249 -13.672 32.532 441.312 3393.639 -2657.619 -2.425 -0.423 -2.001 -0.05 -0.72 0.69 0.02
1 4.28 428 2.552 -8.528 2.251 -9.735 5.829 39.215 381.202 3393.639 -2597.658 -2.859 -1.256 -2.710 -0.05 -0.72 0.69 0.02
1 4.29 429 1.868 -7.777 2.418 -19.959 38.666 35.523 381.202 3393.639 -2597.658 -2.210 -2.006 -2.880 -0.05 -0.72 0.69 0.02
1 4.30 430 0.340 -7.168 1.877 -13.611 65.003 25.360 261.280 3498.571 -2477.736 -0.720 -2.612 -2.360 -0.05 -0.72 0.69 0.02
1 4.31 431 -2.251 -6.594 0.910 14.648 63.202 4.852 261.280 3498.571 -2477.736 1.843 -3.185 -1.410 -0.06 -0.72 0.69 0.03
1 4.32 432 -3.132 -6.852 0.359 28.870 38.239 -4.883 501.273 3453.600 -2612.648 2.717 -2.926 -0.849 -0.06 -0.72 0.69 0.03
1 4.33 433 -3.050 -7.259 0.441 27.954 12.329 -9.766 501.273 3453.600 -2612.648 2.643 -2.522 -0.894 -0.06 -0.72 0.69 0.03
1 4.34 434 -2.610 -8.744 0.972 -14.282 -4.700 -19.592 516.264 3393.639 -2522.707 2.238 -1.041 -1.364 -0.06 -0.72 0.69 0.03
1 4.35 435 -2.203 -10.252 1.279 -61.951 -4.578 -26.398 561.234 3243.587 -2477.736 1.854 0.468 -1.704 -0.06 -0.72 0.69 0.03
1 4.36 436 -1.753 -11.761 1.662 -97.260 -0.946 -24.597 561.234 3243.587 -2477.736 1.429 1.980 -2.183 -0.06 -0.72 0.69 0.03
1 4.37 437 -1.245 -12.632 1.288 -88.135 4.639 -10.590 501.273 3303.548 -2567.677 0.954 2.860 -1.958 -0.06 -0.73 0.68 0.04
1 4.38 438 -1.178 -11.952 0.201 7.050 11.658 20.203 501.273 3303.548 -2567.677 0.896 2.188 -0.985 -0.06 -0.73 0.68 0.04
1 4.39 439 -1.523 -10.181 -0.014 67.322 7.263 33.905 546.244 3513.561 -2492.726 1.219 0.418 -0.787 -0.06 -0.73 0.68 0.04
1 4.40 440 -1.896 -8.543 -0.091 89.234 -2.899 35.309 546.244 3513.561 -2492.726 1.547 -1.224 -0.630 -0.06 -0.73 0.68 0.03
1 4.41 441 -1.920 -7.384 0.172 44.922 -13.550 31.067 381.202 3393.639 -2552.687 1.458 -2.394 -0.644 -0.07 -0.72 0.69 0.03
1 4.42 442 -1.551 -7.456 0.450 -13.794 -14.221 29.053 561.234 3438.610 -2447.605 1.043 -2.322 -0.874 -0.07 -0.72 0.69 0.03
1 4.43 443 -1.015 -8.165 0.493 -64.606 -10.071 28.229 561.234 3438.610 -2447.605 0.462 -1.609 -0.958 -0.07 -0.72 0.69 0.03
1 4.44 444 -0.709 -9.050 0.148 -87.677 -3.815 29.175 411.332 3363.659 -2522.707 0.112 -0.715 -0.721 -0.07 -0.72 0.69 0.02
1 4.45 445 -0.599 -9.884 -0.048 -76.416 1.892 28.076 411.332 3363.659 -2522.707 -0.042 0.130 -0.652 -0.07 -0.73 0.68 0.02
1 4.46 446 -1.259 -10.291 -0.196 -19.836 2.045 20.966 426.322 3423.620 -2612.648 0.579 0.547 -0.600 -0.07 -0.73 0.68 0.02
1 4.47 447 -1.753 -10.022 -0.081 15.900 -1.678 13.977 426.322 3423.620 -2612.648 1.038 0.284 -0.755 -0.07 -0.73 0.68 0.02
1 4.48 448 -2.227 -9.477 -0.038 32.745 -9.949 6.134 561.234 3498.571 -2372.654 1.460 -0.263 -0.730 -0.07 -0.73 0.68 0.02
1 4.49 449 -2.164 -9.017 -0.024 22.186 -13.825 6.378 501.273 3588.662 -2387.645 1.377 -0.725 -0.692 -0.07 -0.73 0.68 0.01
1 4.50 450 -1.906 -8.749 -0.019 5.096 -13.184 9.308 501.273 3588.662 -2387.645 1.095 -0.994 -0.664 -0.07 -0.73 0.68 0.01
1 4.51 451 -1.374 -8.701 0.029 -9.766 -8.240 12.726 591.215 3318.688 -2402.635 0.538 -1.040 -0.705 -0.07 -0.73 0.68 0.01
1 4.52 452 -1.370 -8.691 -0.048 -19.928 -2.441 10.407 576.225 3348.668 -2357.664 0.509 -1.046 -0.643 -0.08 -0.73 0.68 0.01
1 4.53 453 -1.700 -8.912 -0.283 -17.395 -5.035 4.303 441.312 3438.610 -2402.635 0.823 -0.823 -0.437 -0.08 -0.73 0.68 0.01
1 4.54 454 -1.781 -9.161 -0.407 -10.132 -12.451 -1.648 441.312 3438.610 -2402.635 0.892 -0.571 -0.337 -0.08 -0.73 0.68 0.01
1 4.55 455 -1.748 -9.357 -0.441 -2.747 -22.369 -5.707 381.202 3213.606 -2522.707 0.851 -0.373 -0.318 -0.08 -0.73 0.68 0.01
1 4.56 456 -1.571 -9.572 -0.177 2.502 -29.846 -8.820 471.293 3483.581 -2432.615 0.673 -0.157 -0.575 -0.07 -0.73 0.68 0
1 4.57 457 -1.259 -9.477 -0.134 2.350 -28.320 -8.606 471.293 3483.581 -2432.615 0.367 -0.255 -0.606 -0.07 -0.73 0.68 0
1 4.58 458 -1.178 -9.505 -0.182 1.007 -24.567 -7.233 516.264 3243.587 -2372.654 0.291 -0.227 -0.547 -0.07 -0.73 0.68 0
1 4.59 459 -0.919 -9.357 -0.263 -0.824 -22.095 -6.561 471.293 3423.620 -2357.664 0.039 -0.377 -0.458 -0.07 -0.73 0.68 0
1 4.60 460 -0.963 -9.505 -0.345 -1.465 -19.226 -7.965 441.312 3393.639 -2447.605 0.088 -0.229 -0.372 0.06 0.73 -0.68 0
1 4.61 461 -1.010 -9.477 -0.479 -0.366 -17.090 -9.979 441.312 3393.639 -2447.605 0.145 -0.259 -0.235 0.06 0.73 -0.68 0
1 4.62 462 -1.010 -9.553 -0.618 0.244 -15.381 -12.726 441.312 3393.639 -2597.658 0.156 -0.184 -0.093 0.06 0.73 -0.68 0
1 4.63 463 -1.475 -9.912 -0.699 5.035 -13.611 -21.362 441.312 3438.610 -2447.605 0.658 0.172 -0.005 0.06 0.73 -0.68 0
1 4.64 464 -1.772 -10.056 -0.575 15.717 -16.724 -23.895 441.312 3438.610 -2447.605 0.982 0.312 -0.117 0.06 0.73 -0.68 0
1 4.65 465 -1.604 -9.955 -0.508 23.132 -18.799 -23.834 411.782 3469.939 -2299.652 0.841 0.208 -0.154 0.05 0.73 -0.68 0
1 4.66 466 -1.499 -9.793 -0.244 22.034 -18.951 -23.987 381.801 3364.858 -2269.671 0.764 0.040 -0.380 0.05 0.73 -0.68 0
1 4.67 467 -1.465 -9.639 -0.306 11.536 -20.081 -25.452 261.729 3319.887 -2599.606 0.759 -0.117 -0.282 0.05 0.73 -0.69 0
1 4.68 468 -1.331 -9.620 -0.527 7.660 -22.247 -24.811 261.729 3319.887 -2599.606 0.654 -0.140 -0.037 0.05 0.73 -0.69 0
1 4.69 469 -1.144 -9.630 -0.905 8.575 -23.193 -26.856 321.840 3454.949 -2494.675 0.497 -0.133 0.357 0.05 0.73 -0.69 0
1 4.70 470 -1.221 -9.721 -1.197 13.519 -32.501 -30.762 321.840 3379.848 -2494.675 0.643 -0.048 0.678 0.04 0.72 -0.69 0
1 4.71 471 -1.001 -9.979 -1.001 12.634 -36.804 -33.264 321.840 3379.848 -2494.675 0.462 0.207 0.500 0.04 0.72 -0.69 0
1 4.72 472 -0.886 -10.085 -0.891 14.984 -38.269 -31.586 231.749 3439.959 -2374.753 0.390 0.309 0.409 0.03 0.72 -0.69 0
1 4.73 473 -0.843 -10.257 -0.795 16.724 -34.577 -30.151 186.778 3289.907 -2479.685 0.387 0.479 0.336 0.03 0.72 -0.69 0
1 4.74 474 -1.063 -10.401 -0.546 16.388 -27.496 -25.391 186.778 3289.907 -2479.685 0.646 0.619 0.111 0.03 0.72 -0.69 0
1 4.75 475 -1.417 -10.760 -0.876 14.008 -21.790 -17.548 186.778 3289.907 -2479.685 1.031 0.976 0.466 0.02 0.72 -0.69 0
1 4.76 476 -1.154 -10.683 -1.216 17.456 -23.346 -12.024 66.407 3380.748 -2721.327 0.788 0.898 0.826 0.02 0.72 -0.69 0.01
1 4.77 477 -0.857 -10.535 -1.437 21.423 -25.086 -8.850 141.358 3455.849 -2436.363 0.510 0.748 1.072 0.02 0.72 -0.69 0.01
1 4.78 478 -0.508 -10.267 -1.279 14.069 -24.109 -6.317 141.358 3455.849 -2436.363 0.180 0.477 0.966 0.02 0.72 -0.7 0.01
1 4.79 479 -0.565 -10.315 -1.235 4.578 -21.423 -5.524 6.296 3320.787 -2526.304 0.243 0.525 0.934 0.01 0.72 -0.7 0.01
1 4.80 480 -0.723 -10.640 -1.537 -4.303 -17.273 -6.134 -53.515 3380.748 -2571.275 0.407 0.850 1.233 0.01 0.72 -0.7 0.01
1 4.81 481 -0.852 -10.803 -1.681 -7.446 -18.677 -7.843 21.286 3155.894 -2616.246 0.543 1.013 1.361 0.01 0.72 -0.7 0.01
1 4.82 482 -0.986 -10.798 -1.762 -3.387 -26.428 -11.200 21.286 3155.894 -2616.246 0.687 1.009 1.428 0.01 0.72 -0.69 0.01
1 4.83 483 -1.298 -10.726 -1.494 3.174 -29.663 -10.315 -53.515 3350.767 -2616.246 1.014 0.936 1.154 0.01 0.72 -0.69 0.01
1 4.84 484 -1.121 -10.789 -0.881 7.660 -28.565 -10.681 -68.505 3290.806 -2451.353 0.851 0.998 0.545 0.01 0.72 -0.69 0.01
1 4.85 485 -0.364 -13.274 -0.589 17.456 -40.650 -3.418 -68.505 3290.806 -2451.353 0.121 3.482 0.283 0 0.72 -0.7 0.02
1 4.86 486 1.767 -14.447 1.437 10.651 -63.172 19.836 6.296 3320.787 -2451.353 -2.014 4.654 -1.714 -0 0.72 -0.7 0.02
1 4.87 487 3.012 -14.428 2.284 -10.407 -40.436 51.788 -23.535 3290.806 -2526.304 -3.305 4.636 -2.552 -0 0.72 -0.7 0.02
1 4.88 488 2.026 -13.580 1.082 -6.866 13.367 46.295 -53.515 3425.868 -2496.324 -2.399 3.792 -1.365 -0 0.72 -0.7 0.03
1 4.89 489 0.220 -12.766 -0.053 4.730 32.898 22.492 -53.515 3425.868 -2496.324 -0.653 2.980 -0.236 0 0.72 -0.7 0.03
1 4.90 490 -1.020 -10.659 0.541 -6.775 17.853 7.385 -23.535 3320.787 -2451.353 0.560 0.874 -0.825 0 0.72 -0.7 0.03
1 4.91 491 -1.135 -9.692 1.049 -22.461 11.688 0.366 -8.544 3230.845 -2436.363 0.662 -0.092 -1.339 0.01 0.72 -0.7 0.03
1 4.92 492 -1.528 -9.103 1.063 -31.403 8.514 -8.423 -8.544 3230.845 -2436.363 1.049 -0.679 -1.407 0.01 0.72 -0.69 0.03
1 4.93 493 -1.719 -9.113 1.006 -35.278 2.838 -4.608 -8.544 3350.767 -2466.343 1.246 -0.668 -1.389 0.01 0.72 -0.69 0.03
1 4.94 494 -1.824 -8.667 0.963 -34.760 -3.876 0.488 6.296 3365.757 -2601.255 1.347 -1.112 -1.389 0.01 0.72 -0.69 0.03
1 4.95 495 -1.796 -7.959 0.939 -26.611 -8.545 1.251 6.296 3365.757 -2601.255 1.306 -1.818 -1.405 0.01 0.72 -0.69 0.03
1 4.96 496 -1.183 -7.202 0.685 -5.615 -20.569 -2.930 -23.535 3395.888 -2601.255 0.692 -2.573 -1.186 0.01 0.72 -0.69 0.03
1 4.97 497 -0.345 -6.680 0.589 13.031 -33.020 -1.526 6.296 3365.757 -2451.353 -0.144 -3.094 -1.104 0 0.73 -0.69 0.03
1 4.98 498 0.670 -6.747 0.895 34.393 -42.420 1.984 -128.466 3485.829 -2466.343 -1.159 -3.028 -1.396 0 0.72 -0.69 0.03
1 4.99 499 1.604 -7.212 1.307 43.152 -37.323 9.399 -128.466 3485.829 -2466.343 -2.097 -2.565 -1.761 0 0.72 -0.69 0.03
1 5.00 500 2.088 -8.591 1.413 7.263 -8.728 16.754 -8.544 3380.748 -2496.324 -2.616 -1.189 -1.750 -0 0.72 -0.69 0.04
1 5.01 501 1.901 -10.315 1.322 -45.532 6.348 17.120 81.397 3365.757 -2526.304 -2.446 0.536 -1.660 -0 0.72 -0.69 0.04
1 5.02 502 1.556 -12.182 1.456 -98.999 13.062 15.595 81.397 3365.757 -2526.304 -2.107 2.407 -1.873 -0 0.72 -0.69 0.04
1 5.03 503 1.441 -13.509 1.561 -108.612 14.648 11.810 -98.486 3365.757 -2526.304 -2.013 3.742 -2.138 0 0.73 -0.68 0.04
1 5.04 504 1.250 -13.193 0.570 -10.193 9.613 1.801 -53.515 3350.767 -2361.262 -1.836 3.437 -1.296 0 0.73 -0.68 0.04
1 5.05 505 1.212 -11.426 0.110 74.982 2.502 -4.181 -98.486 3440.858 -2271.320 -1.802 1.674 -0.884 0 0.73 -0.68 0.04
1 5.06 506 0.996 -9.309 0.038 124.115 -1.556 -8.118 -99.835 3442.957 -2273.719 -1.582 -0.449 -0.731 0 0.73 -0.68 0.04
1 5.07 507 0.536 -6.714 0.350 103.546 1.404 -13.947 -144.806 3397.986 -2228.748 -1.082 -3.066 -0.676 0 0.72 -0.69 0.04
1 5.08 508 0.350 -6.086 0.661 36.896 7.568 -21.607 -24.884 3472.938 -2408.631 -0.871 -3.698 -0.854 0 0.71 -0.7 0.04
1 5.09 509 0.254 -6.321 0.766 -41.504 12.878 -27.222 -24.884 3472.938 -2408.631 -0.741 -3.465 -0.934 -0 0.71 -0.7 0.04
1 5.10 510 0.393 -7.432 0.196 -99.182 15.442 -32.379 -54.864 3187.973 -2648.625 -0.836 -2.355 -0.453 -0 0.72 -0.7 0.03
1 5.11 511 0.455 -9.754 -0.541 -105.805 9.552 -35.706 20.087 3232.944 -2543.693 -0.847 -0.029 0.124 -0 0.72 -0.69 0.03
1 5.12 512 0.867 -10.947 -0.704 -60.272 1.312 -31.128 -144.806 3292.905 -2303.699 -1.202 1.170 0.122 -0 0.73 -0.69 0.03
1 5.13 513 1.350 -11.287 -0.474 -1.312 -2.655 -24.384 -144.806 3292.905 -2303.699 -1.629 1.515 -0.219 -0.01 0.73 -0.68 0.03
1 5.14 514 1.872 -11.157 0.110 52.704 3.784 -16.663 -84.845 3457.947 -2363.660 -2.082 1.382 -0.776 -0.01 0.73 -0.68 0.02
1 5.15 515 1.853 -10.027 0.455 47.669 15.625 -15.045 -309.848 3353.016 -2318.689 -2.039 0.247 -1.041 -0.01 0.73 -0.69 0.02
1 5.16 516 1.408 -9.366 0.302 20.844 26.611 -15.961 -309.848 3353.016 -2318.689 -1.553 -0.419 -0.818 -0.01 0.73 -0.69 0.02
1 5.17 517 0.910 -8.955 -0.144 -6.928 30.975 -13.184 5.097 3442.957 -2378.650 -1.017 -0.832 -0.347 -0.01 0.72 -0.69 0.02
1 5.18 518 0.383 -8.754 -0.522 -19.501 27.191 -8.118 -129.815 3307.895 -2213.758 -0.462 -1.033 0.018 -0.01 0.72 -0.69 0.01
1 5.19 519 0.192 -8.907 -0.623 -11.780 16.022 -2.625 -234.747 3382.996 -2393.641 -0.256 -0.878 0.089 -0.01 0.73 -0.69 0.01
1 5.20 520 0.441 -8.840 -0.354 0.366 9.399 0.580 -234.747 3382.996 -2393.641 -0.498 -0.944 -0.201 -0.01 0.73 -0.69 0.01
1 5.21 521 0.934 -8.955 -0.014 10.193 8.240 4.517 -129.815 3382.996 -2468.742 -0.988 -0.829 -0.546 -0.01 0.73 -0.69 0.01
1 5.22 522 1.504 -9.122 0.206 10.803 17.029 7.141 -144.806 3247.934 -2378.650 -1.558 -0.664 -0.729 -0.01 0.73 -0.69 0.01
1 5.23 523 1.504 -9.170 -0.048 3.387 24.384 8.026 -144.806 3247.934 -2378.650 -1.557 -0.617 -0.457 -0.01 0.73 -0.69 0.01
1 5.24 524 1.465 -9.371 -0.239 -3.601 29.053 9.064 -99.835 3397.986 -2348.670 -1.516 -0.416 -0.259 -0 0.72 -0.69 0.01
1 5.25 525 1.159 -9.438 -0.555 -4.913 29.205 11.932 -69.854 3292.905 -2453.751 -1.211 -0.349 0.052 -0 0.73 -0.69 0.01
1 5.26 526 0.848 -9.132 -0.895 2.655 26.154 16.541 5.097 3323.035 -2453.751 -0.907 -0.655 0.386 -0 0.73 -0.69 0.01
1 5.27 527 0.862 -9.208 -0.939 9.308 25.299 16.724 5.097 3323.035 -2453.751 -0.935 -0.578 0.428 0 0.73 -0.69 0
1 5.28 528 0.733 -9.113 -0.785 10.803 25.757 16.144 -99.835 3292.905 -2483.732 -0.821 -0.674 0.283 0 0.73 -0.69 0
1 5.29 529 0.512 -9.280 -0.627 1.801 22.278 19.623 20.087 3307.895 -2438.611 -0.635 -0.507 0.145 0.01 0.72 -0.69 0
1 5.30 530 0.374 -9.395 -0.354 -6.989 19.409 25.910 20.087 3307.895 -2438.611 -0.522 -0.392 -0.130 0.01 0.72 -0.69 0
1 5.31 531 0.536 -9.735 -0.081 -13.214 20.783 29.846 -9.744 3353.016 -2393.641 -0.720 -0.050 -0.416 0.01 0.72 -0.69 0
1 5.32 532 0.618 -9.644 -0.201 -16.754 23.224 34.058 -9.744 3262.924 -2318.689 -0.840 -0.140 -0.316 0.01 0.73 -0.69 0
1 5.33 533 0.536 -9.587 -0.326 -13.763 24.933 36.682 110.028 3368.006 -2303.699 -0.803 -0.195 -0.215 0.02 0.73 -0.69 0
1 5.34 534 0.498 -9.108 -0.939 0.000 26.337 35.950 110.028 3368.006 -2303.699 -0.811 -0.671 0.380 0.02 0.73 -0.69 0
1 5.35 535 0.340 -8.945 -1.346 9.064 25.360 31.555 5.097 3397.986 -2378.650 -0.699 -0.832 0.780 0.02 0.73 -0.69 0
1 5.36 536 0.086 -9.003 -1.288 9.705 21.149 22.369 184.979 3397.986 -2303.699 -0.520 -0.772 0.737 0.03 0.73 -0.69 0
1 5.37 537 0.330 -9.730 -0.915 3.387 14.771 18.677 184.979 3397.986 -2303.699 -0.790 -0.044 0.368 0.03 0.73 -0.69 0
1 5.38 538 0.493 -10.410 -0.852 1.556 8.270 18.616 305.351 3399.186 -2380.899 -0.974 0.638 0.305 0.03 0.73 -0.69 0
1 5.39 539 0.742 -10.458 -0.895 8.362 5.646 18.341 305.351 3399.186 -2380.899 -1.243 0.686 0.349 0.03 0.73 -0.69 0
1 5.40 540 0.867 -10.080 -0.924 10.956 16.510 13.733 200.270 3354.215 -2245.837 -1.383 0.308 0.390 0.03 0.73 -0.69 0.01
1 5.41 541 0.589 -10.185 -1.279 -0.458 22.186 9.430 200.270 3354.215 -2245.837 -1.115 0.413 0.758 0.03 0.72 -0.69 0
1 5.42 542 0.685 -10.401 -1.753 -11.047 19.898 10.742 140.309 3429.166 -2365.909 -1.214 0.629 1.230 0.04 0.72 -0.69 0
1 5.43 543 0.752 -10.650 -2.093 -15.503 16.571 13.428 245.240 3354.215 -2320.938 -1.287 0.880 1.549 0.04 0.73 -0.69 0
1 5.44 544 1.188 -10.884 -2.533 -7.935 14.771 21.362 245.240 3354.215 -2320.938 -1.756 1.119 1.935 0.04 0.73 -0.69 0
1 5.45 545 1.504 -10.880 -2.610 0.946 14.923 24.597 200.270 3384.195 -2320.938 -2.104 1.117 2.002 0.04 0.73 -0.68 0
1 5.46 546 1.695 -10.875 -2.136 6.195 14.618 27.069 200.270 3384.195 -2320.938 -2.332 1.114 1.530 0.04 0.73 -0.68 0
1 5.47 547 1.743 -10.702 -0.512 7.141 14.618 25.848 155.299 3444.306 -2380.899 -2.419 0.944 -0.084 0.05 0.73 -0.69 0
1 5.48 548 0.096 -11.655 0.919 16.876 41.718 -11.688 155.299 3444.306 -2380.899 -0.805 1.899 -1.505 0.05 0.73 -0.69 0.01
1 5.49 549 -2.749 -12.857 1.164 -11.963 43.671 -50.354 275.221 3429.166 -2290.958 2.044 3.099 -1.729 0.05 0.73 -0.69 0
1 5.50 550 -3.783 -13.580 -1.092 -57.129 18.372 -70.740 395.292 3429.166 -2440.860 3.148 3.818 0.518 -0.05 -0.73 0.69 0
1 5.51 551 -1.896 -15.505 -1.422 -93.964 -40.680 -78.858 395.292 3429.166 -2440.860 1.485 5.745 0.650 -0.04 -0.73 0.68 0.01
1 5.52 552 -0.359 -15.218 -0.259 -57.831 -48.371 -46.539 470.244 3459.296 -2365.909 0.049 5.465 -0.642 -0.04 -0.74 0.67 0.01
1 5.53 553 0.417 -13.585 1.149 -10.559 -40.039 -10.559 470.244 3459.296 -2365.909 -0.678 3.836 -2.116 -0.03 -0.74 0.67 0.01
1 5.54 554 1.053 -12.058 1.882 13.062 -24.567 16.571 170.289 3489.277 -2395.889 -1.315 2.309 -2.852 -0.03 -0.74 0.67 0.01
1 5.55 555 1.212 -10.961 2.562 9.949 -4.059 26.856 95.338 3429.166 -2320.938 -1.508 1.211 -3.509 -0.03 -0.74 0.67 0.01
1 5.56 556 0.991 -10.410 2.227 -0.031 2.686 20.081 185.279 3444.306 -2125.915 -1.330 0.660 -3.156 -0.03 -0.74 0.67 0
1 5.57 557 1.063 -9.783 1.690 -8.667 5.096 24.994 110.328 3399.186 -2230.847 -1.434 0.034 -2.616 -0.03 -0.74 0.67 0
1 5.58 558 1.264 -8.821 1.719 -11.597 17.365 25.696 110.328 3399.186 -2230.847 -1.689 -0.928 -2.628 -0.03 -0.74 0.67 0
1 5.59 559 0.163 -7.657 1.231 -2.075 32.562 9.674 65.357 3354.215 -2245.837 -0.612 -2.090 -2.146 -0.04 -0.74 0.67 0
1 5.60 560 -1.259 -7.183 0.690 15.564 35.584 -5.005 65.357 3354.215 -2245.837 0.807 -2.564 -1.604 -0.04 -0.74 0.67 0
1 5.61 561 -2.102 -7.068 0.177 27.954 21.545 -11.932 245.240 3384.195 -2245.837 1.665 -2.682 -1.065 -0.04 -0.74 0.67 0
1 5.62 562 -2.241 -7.168 0.421 23.224 4.700 -14.038 110.328 3504.267 -2305.948 1.825 -2.586 -1.268 -0.04 -0.74 0.68 0.01
1 5.63 563 -1.963 -8.524 0.737 -18.738 0.641 -19.989 170.289 3489.277 -2290.958 1.569 -1.234 -1.558 -0.04 -0.74 0.68 0.01
1 5.64 564 -1.714 -9.970 1.058 -58.594 3.021 -25.269 230.250 3474.287 -2305.948 1.349 0.212 -1.893 -0.04 -0.74 0.68 0.01
1 5.65 565 -1.671 -11.761 1.159 -87.036 1.770 -26.306 230.250 3474.287 -2305.948 1.336 2.008 -2.060 -0.04 -0.74 0.67 0.01
1 5.66 566 -1.417 -12.905 0.603 -58.014 2.197 -7.050 170.289 3354.215 -2110.925 1.146 3.176 -1.744 -0.03 -0.75 0.66 0.01
1 5.67 567 -1.710 -11.995 0.254 5.096 2.533 10.223 170.289 3354.215 -2110.925 1.443 2.273 -1.458 -0.03 -0.75 0.66 0.01
1 5.68 568 -2.112 -10.415 -0.024 66.345 -1.038 22.217 35.227 3474.287 -2125.915 1.825 0.690 -1.149 -0.03 -0.75 0.66 0.01
1 5.69 569 -2.524 -8.825 0.019 95.337 -8.453 28.320 185.279 3474.287 -2050.814 2.194 -0.912 -1.074 -0.03 -0.74 0.67 0.01
1 5.70 570 -2.595 -7.269 -0.086 66.498 -22.827 28.198 230.250 3504.267 -2050.814 2.205 -2.481 -0.818 -0.04 -0.74 0.67 0.01
1 5.71 571 -2.208 -7.054 0.163 15.106 -28.931 29.511 155.299 3474.287 -2200.866 1.773 -2.705 -0.952 -0.04 -0.73 0.68 0
1 5.72 572 -1.623 -7.360 0.110 -37.537 -29.236 29.266 155.299 3474.287 -2200.866 1.141 -2.400 -0.854 -0.04 -0.73 0.68 0
1 5.73 573 -0.824 -8.940 -0.038 -79.865 -23.712 29.419 380.302 3444.306 -2305.948 0.246 -0.804 -0.836 0.04 0.74 -0.67 0.01
1 5.74 574 -0.670 -9.903 -0.096 -71.930 -17.212 30.060 380.302 3444.306 -2305.948 0.045 0.173 -0.892 0.04 0.74 -0.67 0.01
1 5.75 575 -0.781 -10.439 -0.206 -40.161 -12.573 29.114 170.289 3429.166 -2215.856 0.107 0.722 -0.871 0.04 0.74 -0.67 0.01
1 5.76 576 -0.824 -10.243 -0.388 2.319 -13.123 23.377 350.322 3384.195 -2185.876 0.107 0.533 -0.725 0.04 0.75 -0.67 0.01
1 5.77 577 -1.140 -9.726 -0.297 36.743 -18.738 14.679 230.250 3504.267 -2155.896 0.389 0.015 -0.790 0.04 0.74 -0.67 0.02
1 5.78 578 -1.432 -8.801 -0.225 53.650 -26.001 2.075 380.302 3504.267 -2230.847 0.657 -0.915 -0.790 0.04 0.74 -0.67 0.02
1 5.79 579 -1.374 -8.414 -0.177 38.025 -26.642 -1.984 380.302 3504.267 -2230.847 0.587 -1.311 -0.750 0.04 0.74 -0.67 0.02
1 5.80 580 -1.322 -8.461 -0.081 -2.869 -20.691 -1.556 275.221 3519.257 -2185.876 0.530 -1.271 -0.746 0.04 0.74 -0.68 0.02
1 5.81 581 -1.255 -8.552 -0.177 -21.607 -15.381 1.190 275.221 3519.257 -2185.876 0.461 -1.179 -0.660 0.03 0.74 -0.68 0.02
1 5.82 582 -1.226 -8.892 -0.302 -25.391 -12.482 2.930 245.240 3519.257 -2245.837 0.428 -0.836 -0.569 0.03 0.74 -0.67 0.02
1 5.83 583 -1.274 -8.969 -0.579 -15.595 -14.374 1.373 260.230 3549.238 -2380.899 0.468 -0.756 -0.322 0.03 0.74 -0.67 0.03
1 5.84 584 -1.350 -9.568 -0.666 12.665 -27.069 -11.688 245.240 3489.277 -2245.837 0.539 -0.156 -0.249 0.03 0.74 -0.67 0.03
1 5.85 585 -1.106 -9.558 -0.402 34.027 -33.783 -8.881 200.270 3384.195 -2215.856 0.300 -0.167 -0.497 0.03 0.74 -0.67 0.03
1 5.86 586 -0.800 -9.031 -0.125 34.424 -30.426 -2.380 200.270 3384.195 -2215.856 0.001 -0.699 -0.725 0.03 0.74 -0.68 0.03
1 5.87 587 -0.766 -8.844 -0.086 17.883 -22.522 -2.136 245.240 3354.215 -2320.938 -0.032 -0.891 -0.703 0.03 0.73 -0.68 0.03
1 5.88 588 -0.862 -9.141 -0.125 -11.536 -14.862 -7.324 245.240 3354.215 -2320.938 0.069 -0.598 -0.614 0.02 0.73 -0.68 0.03
1 5.89 589 -0.838 -9.534 -0.536 -14.832 -14.862 -7.416 305.351 3504.267 -2275.817 0.053 -0.205 -0.216 0.02 0.73 -0.68 0.03
1 5.90 590 -0.752 -9.524 -0.661 -6.012 -14.313 -5.096 65.357 3489.277 -2290.958 -0.025 -0.214 -0.108 0.02 0.73 -0.68 0.03
1 5.91 591 -0.599 -9.501 -0.670 9.583 -12.939 -3.967 200.270 3459.296 -2365.909 -0.172 -0.239 -0.099 0.02 0.73 -0.68 0.03
1 5.92 592 -0.599 -9.022 -0.895 23.560 -6.775 -5.585 185.279 3444.306 -2275.817 -0.167 -0.720 0.148 0.02 0.73 -0.68 0.03
1 5.93 593 -0.977 -9.156 -0.900 19.165 -4.639 -9.522 185.279 3444.306 -2275.817 0.220 -0.589 0.185 0.02 0.73 -0.68 0.04
1 5.94 594 -1.259 -9.453 -0.948 8.606 -4.913 -15.564 65.357 3564.228 -2320.938 0.514 -0.295 0.263 0.02 0.73 -0.68 0.03
1 5.95 595 -1.609 -10.343 -0.900 -2.991 -9.583 -26.581 65.357 3564.228 -2320.938 0.908 0.591 0.233 0.02 0.73 -0.68 0.03
1 5.96 596 -1.805 -10.860 -0.704 -3.113 -12.634 -28.412 185.279 3444.306 -2275.817 1.138 1.106 0.031 0.01 0.73 -0.68 0.03
1 5.97 597 -1.801 -10.990 -0.493 8.087 -16.357 -25.910 80.348 3579.218 -2275.817 1.174 1.233 -0.180 0.01 0.73 -0.68 0.03
1 5.98 598 -1.781 -10.760 -0.469 24.201 -18.616 -20.660 80.348 3579.218 -2275.817 1.190 1.000 -0.184 0.01 0.73 -0.68 0.03
1 5.99 599 -1.729 -9.984 -0.881 35.889 -22.186 -10.590 155.299 3444.306 -2305.948 1.165 0.220 0.270 0.01 0.73 -0.68 0.03
1 6.00 600 -1.389 -9.438 -1.087 32.196 -23.590 -5.127 155.299 3444.306 -2305.948 0.838 -0.330 0.529 0.01 0.73 -0.69 0.03
1 6.01 601 -1.212 -9.079 -1.159 20.783 -24.506 -5.096 95.338 3429.166 -2290.958 0.660 -0.692 0.651 0 0.73 -0.69 0.03
1 6.02 602 -0.905 -8.979 -1.346 3.021 -28.259 -6.348 95.338 3429.166 -2290.958 0.353 -0.795 0.883 0 0.72 -0.69 0.04
1 6.03 603 -0.963 -9.620 -1.633 -3.723 -30.243 -6.775 170.289 3384.195 -2290.958 0.415 -0.153 1.167 0 0.72 -0.69 0.04
1 6.04 604 -0.986 -10.113 -1.772 -3.174 -30.121 -5.676 -24.584 3579.218 -2410.879 0.444 0.340 1.294 -0 0.72 -0.69 0.04
1 6.05 605 -1.077 -10.420 -1.705 3.723 -26.886 -2.991 -24.584 3579.218 -2410.879 0.537 0.647 1.218 -0 0.72 -0.69 0.04
1 6.06 606 -1.393 -10.430 -1.532 10.773 -22.339 -1.282 -9.594 3489.277 -2290.958 0.851 0.657 1.048 -0 0.72 -0.69 0.04
1 6.07 607 -1.834 -10.204 -1.949 9.766 -22.492 -4.028 -9.594 3489.277 -2290.958 1.286 0.431 1.476 -0.01 0.72 -0.69 0.04
1 6.08 608 -1.877 -10.315 -2.231 2.777 -25.696 -7.050 -84.545 3519.257 -2395.889 1.326 0.541 1.767 -0.01 0.72 -0.69 0.05
1 6.09 609 -1.963 -10.094 -2.715 -0.885 -30.396 -11.841 -84.545 3519.257 -2395.889 1.410 0.321 2.248 -0.01 0.72 -0.69 0.05
1 6.10 610 -1.872 -10.449 -1.858 -6.775 -34.821 -17.914 20.237 3309.244 -2290.958 1.333 0.676 1.360 -0.01 0.72 -0.69 0.05
1 6.11 611 -1.231 -12.321 -1.609 -0.458 -42.511 -13.733 -144.506 3579.218 -2275.817 0.705 2.549 1.091 -0.02 0.73 -0.69 0.05
1 6.12 612 0.364 -15.481 0.354 14.710 -59.601 3.845 -145.855 3581.167 -2277.616 -0.878 5.708 -0.861 -0.02 0.72 -0.69 0.05
1 6.13 613 2.998 -17.076 3.314 4.456 -67.475 39.887 -85.894 3431.265 -2367.708 -3.533 7.303 -3.795 -0.02 0.72 -0.69 0.06
1 6.14 614 2.763 -15.572 1.523 -15.137 36.316 76.508 -85.894 3431.265 -2367.708 -3.379 5.804 -2.003 -0.02 0.72 -0.69 0.06
1 6.15 615 0.144 -13.633 -0.316 5.035 59.204 45.807 -205.816 3431.265 -2292.756 -0.874 3.873 -0.190 -0.02 0.72 -0.69 0.07
1 6.16 616 -1.350 -11.981 0.014 12.726 31.952 13.672 -205.816 3431.265 -2292.756 0.543 2.228 -0.528 -0.01 0.73 -0.69 0.07
1 6.17 617 -1.523 -9.831 1.393 -14.130 9.979 -5.585 -25.783 3476.235 -2382.698 0.686 0.080 -1.894 -0.01 0.72 -0.69 0.06
1 6.18 618 -1.939 -9.400 1.384 -29.907 13.214 -17.700 -25.783 3506.216 -2412.678 1.111 -0.351 -1.899 -0.01 0.73 -0.69 0.06
1 6.19 619 -2.476 -9.644 0.776 -42.175 12.634 -24.384 -25.783 3506.216 -2412.678 1.671 -0.107 -1.328 -0.01 0.73 -0.68 0.06
1 6.20 620 -2.830 -9.659 0.340 -46.417 -0.580 -19.653 4.047 3401.134 -2352.717 2.049 -0.091 -0.948 -0.01 0.73 -0.68 0.06
1 6.21 621 -2.495 -9.314 0.512 -33.569 -17.212 -10.803 4.047 3401.134 -2352.717 1.723 -0.433 -1.178 -0.01 0.73 -0.68 0.06
1 6.22 622 -1.513 -8.117 0.848 3.143 -38.056 -4.761 -55.764 3461.245 -2322.737 0.740 -1.628 -1.544 -0.01 0.73 -0.68 0.06
1 6.23 623 -0.263 -7.159 0.991 21.942 -43.671 0.702 -55.764 3461.245 -2322.737 -0.511 -2.586 -1.683 -0.01 0.73 -0.68 0.06
1 6.24 624 1.331 -6.268 1.216 38.269 -40.466 7.996 -55.764 3431.265 -2292.756 -2.121 -3.481 -1.825 -0.02 0.73 -0.68 0.07
1 6.25 625 2.006 -6.469 1.628 45.471 -31.799 11.841 19.038 3521.206 -2322.737 -2.813 -3.282 -2.171 -0.02 0.73 -0.68 0.07
1 6.26 626 2.533 -7.082 1.532 31.433 -16.754 18.463 19.038 3521.206 -2322.737 -3.362 -2.671 -2.007 -0.02 0.72 -0.69 0.07
1 6.27 627 2.749 -8.586 1.006 -6.104 -2.380 23.804 -25.783 3446.255 -2352.717 -3.608 -1.167 -1.443 -0.02 0.72 -0.69 0.08
1 6.28 628 2.844 -11.679 1.580 -94.208 12.512 23.316 -100.884 3476.235 -2232.646 -3.727 1.930 -2.042 -0.02 0.72 -0.69 0.08
1 6.29 629 2.155 -13.580 2.452 -133.454 25.208 11.169 -130.865 3431.265 -2442.659 -3.060 3.839 -3.027 -0.01 0.73 -0.68 0.08
1 6.30 630 1.437 -14.418 1.858 -99.030 28.748 -13.580 -130.865 3431.265 -2442.659 -2.362 4.692 -2.626 -0.01 0.73 -0.67 0.08
1 6.31 631 0.814 -13.221 0.685 -8.911 25.024 -11.841 -25.783 3626.138 -2277.616 -1.724 3.509 -1.626 -0.01 0.74 -0.67 0.07
1 6.32 632 0.292 -9.769 -0.230 127.747 1.678 -17.670 -100.884 3581.167 -2232.646 -1.157 0.048 -0.668 -0.01 0.74 -0.67 0.07
1 6.33 633 0.192 -8.050 -0.038 164.460 -11.841 -21.607 -100.884 3581.167 -2232.646 -1.023 -1.691 -0.648 -0.01 0.73 -0.68 0.07
1 6.34 634 0.627 -6.670 0.072 142.640 -14.374 -18.585 -85.894 3431.265 -2187.675 -1.428 -3.087 -0.512 -0.01 0.72 -0.69 0.07
1 6.35 635 1.053 -5.742 1.044 68.207 -4.059 -19.135 -205.816 3521.206 -2217.655 -1.828 -4.025 -1.293 -0.02 0.72 -0.69 0.07
1 6.36 636 1.422 -6.503 1.422 -77.332 20.935 -23.163 34.028 3626.138 -2232.646 -2.167 -3.267 -1.605 -0.02 0.71 -0.7 0.07
1 6.37 637 1.240 -8.078 0.886 -141.602 31.830 -27.130 34.028 3626.138 -2232.646 -1.950 -1.692 -1.151 -0.02 0.72 -0.69 0.07
1 6.38 638 0.843 -10.037 0.254 -147.522 32.410 -28.198 -145.855 3476.235 -2382.698 -1.512 0.271 -0.715 -0.02 0.72 -0.69 0.06
1 6.39 639 0.819 -12.163 -0.010 -57.404 20.081 -23.377 -85.894 3461.245 -2367.708 -1.388 2.417 -0.843 -0.02 0.74 -0.67 0.06
1 6.40 640 0.982 -12.350 0.306 24.536 12.543 -16.327 -85.894 3461.245 -2367.708 -1.516 2.607 -1.215 -0.02 0.74 -0.67 0.05
1 6.41 641 1.441 -11.550 0.728 82.794 11.414 -10.132 -85.894 3566.177 -2367.708 -1.952 1.800 -1.575 -0.02 0.74 -0.67 0.05
1 6.42 642 1.551 -10.080 0.867 100.251 17.853 -6.958 -145.855 3506.216 -2307.747 -2.047 0.319 -1.580 -0.02 0.73 -0.68 0.05
1 6.43 643 1.264 -8.184 0.570 68.299 27.741 -8.148 -205.816 3521.206 -2367.708 -1.741 -1.589 -1.132 -0.02 0.73 -0.68 0.05
1 6.44 644 0.728 -7.279 0.283 34.454 26.642 -11.261 -205.816 3521.206 -2367.708 -1.178 -2.501 -0.723 -0.02 0.72 -0.69 0.05
1 6.45 645 0.551 -6.977 0.048 5.432 22.644 -12.970 -160.845 3566.177 -2292.756 -0.983 -2.806 -0.427 -0.02 0.72 -0.69 0.05
1 6.46 646 0.680 -7.475 0.235 -21.240 17.456 -10.315 -145.855 3506.216 -2412.678 -1.074 -2.310 -0.613 -0.02 0.72 -0.69 0.04
1 6.47 647 0.833 -8.050 0.512 -32.410 20.111 -6.500 -145.855 3506.216 -2412.678 -1.212 -1.734 -0.928 -0.02 0.72 -0.69 0.04
1 6.48 648 0.857 -8.844 0.551 -38.086 24.445 -5.035 -205.816 3521.206 -2397.688 -1.226 -0.937 -1.019 -0.02 0.72 -0.69 0.04
1 6.49 649 0.800 -9.414 0.235 -35.339 29.358 -5.707 -55.764 3491.226 -2547.740 -1.154 -0.365 -0.758 -0.01 0.73 -0.69 0.04
1 6.50 650 0.661 -10.080 -0.326 -22.095 30.365 -7.324 -130.865 3641.128 -2247.636 -0.995 0.302 -0.242 -0.01 0.73 -0.69 0.04
1 6.51 651 0.378 -9.917 -1.001 10.407 23.132 -2.838 -130.865 3641.128 -2247.636 -0.692 0.140 0.408 -0.01 0.73 -0.68 0.03
1 6.52 652 0.306 -9.328 -1.082 28.809 18.524 3.967 -220.806 3476.235 -2352.717 -0.606 -0.450 0.495 -0.01 0.73 -0.68 0.03
1 6.53 653 0.397 -8.730 -0.934 33.569 17.059 9.705 -25.783 3581.167 -2202.665 -0.693 -1.050 0.379 -0.01 0.73 -0.69 0.03
1 6.54 654 0.694 -8.404 -0.541 10.986 16.724 14.587 -25.783 3581.167 -2202.665 -1.014 -1.379 0.069 -0.01 0.72 -0.69 0.03
1 6.55 655 0.934 -8.572 -0.560 -11.261 18.402 18.463 -250.787 3626.138 -2382.698 -1.276 -1.211 0.095 -0.01 0.72 -0.69 0.03
1 6.56 656 1.221 -9.419 -0.445 -27.741 19.684 24.139 -70.904 3581.167 -2382.698 -1.591 -0.362 -0.045 -0.01 0.72 -0.69 0.03
1 6.57 657 1.417 -10.133 -0.340 -21.210 22.614 33.142 -85.894 3491.226 -2442.659 -1.819 0.355 -0.193 -0 0.73 -0.69 0.03
1 6.58 658 1.154 -10.022 -0.330 18.036 17.975 29.846 -85.894 3491.226 -2442.659 -1.590 0.248 -0.225 -0 0.73 -0.69 0.03
1 6.59 659 1.034 -9.256 -0.431 34.241 13.641 26.306 -10.793 3491.226 -2472.639 -1.501 -0.518 -0.107 0 0.73 -0.69 0.03
1 6.60 660 0.963 -8.720 -0.594 26.489 13.763 24.353 19.038 3521.206 -2397.688 -1.457 -1.055 0.103 0 0.72 -0.69 0.03
1 6.61 661 0.623 -8.576 -0.656 -8.759 24.963 21.088 19.038 3521.206 -2397.688 -1.175 -1.198 0.222 0.01 0.72 -0.69 0.03
1 6.62 662 0.053 -9.218 -0.761 -25.696 26.795 17.609 -55.764 3461.245 -2442.659 -0.634 -0.554 0.304 0.01 0.72 -0.69 0.03
1 6.63 663 -0.196 -9.898 -0.929 -22.583 17.029 10.773 -25.783 3506.216 -2382.698 -0.402 0.129 0.428 0.01 0.72 -0.69 0.03
1 6.64 664 -0.043 -10.588 -0.982 1.801 1.984 10.040 34.028 3476.235 -2607.701 -0.565 0.821 0.448 0.01 0.73 -0.69 0.03
1 6.65 665 0.450 -10.391 -0.862 6.531 1.160 11.597 34.028 3476.235 -2607.701 -1.067 0.626 0.322 0.01 0.73 -0.69 0.03
1 6.66 666 0.546 -9.908 -0.977 4.089 8.728 14.526 138.959 3641.128 -2397.688 -1.173 0.142 0.445 0.01 0.73 -0.69 0.03
1 6.67 667 0.306 -9.922 -1.389 -2.808 11.475 12.238 34.028 3581.167 -2412.678 -0.946 0.157 0.862 0.01 0.73 -0.69 0.03
1 6.68 668 0.527 -9.932 -2.140 -8.820 1.312 11.261 34.028 3581.167 -2412.678 -1.187 0.169 1.588 0.02 0.73 -0.69 0.03
1 6.69 669 1.034 -10.219 -2.308 -7.080 -8.514 8.026 138.959 3521.206 -2442.659 -1.702 0.459 1.733 0.02 0.73 -0.69 0.03
1 6.70 670 1.690 -10.592 -2.255 -4.822 -7.935 11.139 184.080 3581.167 -2457.649 -2.360 0.833 1.659 0.02 0.73 -0.68 0.03
1 6.71 671 1.997 -10.688 -2.289 -6.439 -1.373 16.815 184.080 3581.167 -2457.649 -2.678 0.931 1.679 0.02 0.73 -0.68 0.03
1 6.72 672 2.361 -10.741 -1.192 -10.773 6.012 22.217 108.979 3656.118 -2457.649 -3.070 0.986 0.573 0.02 0.73 -0.68 0.03
1 6.73 673 2.322 -11.349 0.139 -11.627 13.825 14.710 274.021 3567.526 -2294.405 -3.064 1.598 -0.773 0.02 0.73 -0.68 0.04
1 6.74 674 1.015 -12.709 0.996 -6.531 33.814 -13.519 198.920 3642.627 -2444.308 -1.782 2.961 -1.650 0.02 0.73 -0.68 0.04
1 6.75 675 -2.188 -14.509 0.963 -22.217 43.091 -47.028 198.920 3642.627 -2444.308 1.432 4.762 -1.631 0.02 0.73 -0.68 0.03
1 6.76 676 -2.801 -16.118 -1.724 -88.013 -7.202 -96.588 183.930 3582.516 -2459.298 2.223 6.367 0.940 0.02 0.73 -0.68 0.02
1 6.77 677 -0.833 -16.147 -1.130 -89.752 -47.760 -77.179 183.930 3702.588 -2459.298 0.395 6.400 0.209 0.01 0.74 -0.67 0.02
1 6.78 678 0.690 -14.505 -0.091 -47.302 -45.746 -31.983 183.930 3702.588 -2459.298 -1.037 4.766 -0.947 0 0.74 -0.67 0.02
1 6.79 679 1.322 -12.656 0.517 -9.308 -26.428 1.678 228.901 3702.588 -2309.396 -1.642 2.922 -1.607 0 0.75 -0.67 0.02
1 6.80 680 1.853 -11.057 1.221 -2.686 -5.371 35.675 19.038 3717.578 -2249.285 -2.190 1.324 -2.317 0 0.75 -0.67 0.02
1 6.81 681 1.920 -10.583 1.791 -14.069 0.122 37.232 -25.933 3732.568 -2279.415 -2.305 0.852 -2.889 0 0.75 -0.67 0.02
1 6.82 682 1.528 -10.468 2.093 -14.618 1.740 26.581 -25.933 3732.568 -2279.415 -1.970 0.742 -3.207 0 0.75 -0.67 0.03
1 6.83 683 1.360 -9.706 2.208 -5.585 6.287 25.513 -10.943 3717.578 -2144.353 -1.867 -0.015 -3.336 0.01 0.75 -0.66 0.03
1 6.84 684 1.030 -8.457 2.351 -3.204 22.949 20.966 93.989 3642.627 -2189.324 -1.558 -1.266 -3.462 0.01 0.75 -0.67 0.03
1 6.85 685 0.139 -7.408 1.982 -0.946 50.873 8.606 93.989 3642.627 -2189.324 -0.678 -2.316 -3.076 0.01 0.75 -0.67 0.03
1 6.86 686 -1.537 -6.771 0.776 10.223 66.071 -5.066 78.999 3582.516 -2204.314 1.000 -2.953 -1.872 0.01 0.75 -0.67 0.02
1 6.87 687 -3.275 -6.637 -0.364 29.236 37.232 -19.592 243.891 3597.506 -2249.285 2.761 -3.090 -0.716 0.02 0.74 -0.67 0.02
1 6.88 688 -3.227 -7.068 -0.388 17.944 5.524 -24.628 228.901 3852.490 -2204.314 2.747 -2.665 -0.653 0.02 0.74 -0.67 0.02
1 6.89 689 -2.643 -7.973 0.139 -13.001 -13.062 -27.344 228.901 3852.490 -2204.314 2.200 -1.765 -1.147 0.02 0.74 -0.67 0.02
1 6.90 690 -1.508 -10.248 0.948 -67.993 -10.040 -31.189 348.973 3717.578 -2219.304 1.138 0.513 -2.019 0.01 0.74 -0.67 0.01
1 6.91 691 -0.728 -12.096 1.384 -86.426 0.427 -28.748 243.891 3762.549 -2069.402 0.393 2.371 -2.551 0.01 0.75 -0.66 0.01
1 6.92 692 -0.498 -13.173 1.154 -69.062 12.268 -12.634 243.891 3762.549 -2069.402 0.202 3.464 -2.448 0.01 0.75 -0.66 0.01
1 6.93 693 -0.752 -12.666 0.359 -16.480 21.362 11.932 93.989 3717.578 -2144.353 0.469 2.968 -1.739 0.01 0.76 -0.66 0.01
1 6.94 694 -1.513 -11.143 -0.067 49.469 21.912 29.236 78.999 3627.487 -2159.343 1.209 1.446 -1.314 0.01 0.76 -0.66 0.01
1 6.95 695 -2.500 -8.586 -0.594 103.607 4.089 30.090 78.999 3972.562 -2099.382 2.154 -1.123 -0.694 0.02 0.75 -0.66 0.01
1 6.96 696 -2.820 -7.513 -0.555 89.112 -13.062 21.759 78.699 3973.312 -2099.832 2.418 -2.212 -0.579 0.02 0.75 -0.66 0.01
1 6.97 697 -2.562 -7.202 -0.335 41.901 -22.705 20.905 108.679 3703.337 -2234.744 2.114 -2.538 -0.655 0.02 0.74 -0.67 0.01
1 6.98 698 -1.700 -7.537 0.067 -39.642 -24.963 21.790 153.650 3778.289 -2204.764 1.182 -2.207 -0.973 0.02 0.74 -0.67 0.02
1 6.99 699 -1.053 -8.471 0.172 -72.083 -20.081 23.621 153.650 3778.289 -2204.764 0.500 -1.264 -1.150 0.02 0.74 -0.67 0.02
1 7.00 700 -0.560 -9.678 0.101 -77.637 -10.407 26.032 273.722 3793.279 -2294.855 -0.032 -0.044 -1.189 0.02 0.75 -0.67 0.02
1 7.01 701 -0.737 -10.592 -0.254 -52.277 -2.899 23.865 78.699 3703.337 -2204.764 0.104 0.885 -0.934 0.02 0.75 -0.66 0.03
1 7.02 702 -0.828 -10.348 -0.589 18.921 1.892 21.790 153.650 3778.289 -2204.764 0.161 0.650 -0.650 0.02 0.75 -0.66 0.03
1 7.03 703 -1.370 -9.338 -0.690 46.204 -0.488 18.860 153.650 3778.289 -2204.764 0.671 -0.360 -0.538 0.02 0.75 -0.66 0.03
1 7.04 704 -2.006 -8.543 -0.690 46.478 -6.714 8.301 318.692 3763.298 -2069.852 1.276 -1.161 -0.472 0.02 0.75 -0.66 0.03
1 7.05 705 -2.112 -8.433 -0.421 10.376 -14.862 2.808 243.741 3913.351 -2144.803 1.345 -1.282 -0.616 0.02 0.74 -0.67 0.03
1 7.06 706 -1.954 -8.648 -0.503 -19.013 -13.184 4.944 243.741 3913.351 -2144.803 1.180 -1.067 -0.529 0.02 0.74 -0.67 0.03
1 7.07 707 -1.686 -8.619 -0.661 -36.804 -9.155 6.104 243.741 3718.328 -2294.855 0.897 -1.091 -0.404 0.02 0.74 -0.67 0.03
1 7.08 708 -1.872 -9.232 -0.862 -35.889 -10.498 -2.930 138.660 3763.298 -2294.855 1.075 -0.471 -0.259 0.02 0.75 -0.66 0.03
1 7.09 709 -1.494 -9.577 -1.044 -8.087 -19.989 -10.437 153.650 3928.341 -2204.764 0.695 -0.121 -0.118 0.02 0.75 -0.66 0.03
1 7.10 710 -1.173 -9.050 -1.001 34.760 -33.295 -8.972 153.650 3928.341 -2204.764 0.380 -0.649 -0.157 0.02 0.75 -0.66 0.04
1 7.11 711 -1.092 -8.744 -0.522 36.316 -34.363 -8.179 243.741 3763.298 -2189.773 0.303 -0.961 -0.588 0.02 0.75 -0.66 0.04
1 7.12 712 -0.862 -8.797 -0.350 1.801 -24.628 -11.322 168.640 3763.298 -2189.773 0.083 -0.920 -0.662 0.01 0.74 -0.67 0.04
1 7.13 713 -1.068 -9.295 -0.383 -18.127 -20.538 -14.008 168.640 3763.298 -2189.773 0.303 -0.423 -0.629 0.01 0.74 -0.67 0.04
1 7.14 714 -1.283 -9.615 -0.551 -24.353 -17.670 -14.130 93.689 3793.279 -2249.734 0.535 -0.101 -0.486 0.01 0.74 -0.67 0.04
1 7.15 715 -1.087 -10.214 -0.498 -15.167 -17.151 -14.862 93.689 3793.279 -2249.734 0.353 0.500 -0.568 0.01 0.74 -0.67 0.04
1 7.16 716 -1.068 -10.075 -0.742 9.766 -16.327 -14.618 108.679 3703.337 -2279.715 0.351 0.361 -0.334 0.01 0.74 -0.67 0.04
1 7.17 717 -1.006 -9.730 -0.742 21.637 -16.571 -13.031 108.679 3703.337 -2279.715 0.305 0.013 -0.321 0.01 0.74 -0.67 0.04
1 7.18 718 -1.010 -9.175 -0.761 22.583 -15.228 -13.062 168.640 3763.298 -2219.754 0.324 -0.547 -0.269 0 0.74 -0.67 0.04
1 7.19 719 -1.135 -8.931 -0.867 16.754 -14.282 -16.693 93.689 3763.298 -2294.855 0.463 -0.796 -0.126 0 0.74 -0.67 0.04
1 7.20 720 -1.097 -9.108 -1.154 1.892 -18.372 -23.285 93.689 3763.298 -2294.855 0.467 -0.626 0.207 -0 0.74 -0.67 0.04
1 7.21 721 -0.872 -9.323 -1.451 -0.122 -27.405 -26.093 33.728 3898.360 -2234.744 0.271 -0.412 0.506 -0 0.74 -0.67 0.04
1 7.22 722 -0.498 -9.726 -1.226 6.165 -37.628 -28.290 33.728 3898.360 -2234.744 -0.071 -0.012 0.282 -0.01 0.74 -0.67 0.04
1 7.23 723 -0.067 -10.128 -1.207 14.832 -41.351 -25.055 -146.155 3853.240 -2159.793 -0.467 0.387 0.275 -0.01 0.74 -0.67 0.04
1 7.24 724 0.263 -10.181 -0.881 25.910 -31.464 -16.357 -146.155 3853.240 -2159.793 -0.764 0.435 -0.023 -0.01 0.74 -0.67 0.05
1 7.25 725 -0.096 -10.022 -0.996 24.841 -20.294 -14.343 3.598 3808.269 -2279.715 -0.378 0.272 0.131 -0.02 0.74 -0.67 0.05
1 7.26 726 -0.464 -9.783 -1.221 22.156 -15.717 -9.644 -86.194 3793.279 -2324.835 0.015 0.028 0.396 -0.02 0.74 -0.68 0.05
1 7.27 727 -0.589 -9.908 -1.547 12.085 -21.088 -5.402 -86.194 3793.279 -2324.835 0.164 0.147 0.779 -0.02 0.73 -0.68 0.05
1 7.28 728 -0.718 -10.233 -1.887 7.874 -24.963 -2.960 -71.204 3658.217 -2384.796 0.297 0.471 1.131 -0.02 0.73 -0.68 0.05
1 7.29 729 -0.608 -10.339 -1.796 5.463 -24.109 -0.916 -71.204 3658.217 -2384.796 0.186 0.577 1.044 -0.02 0.73 -0.68 0.05
1 7.30 730 -0.570 -10.588 -1.705 5.554 -19.135 -0.519 -71.354 3778.588 -2534.999 0.145 0.826 0.955 -0.02 0.73 -0.68 0.05
1 7.31 731 -0.915 -10.516 -1.494 8.698 -8.789 2.808 -71.354 3853.540 -2385.096 0.487 0.754 0.748 -0.02 0.73 -0.68 0.05
1 7.32 732 -1.360 -10.286 -1.619 10.681 -5.493 2.869 -101.334 3703.637 -2460.047 0.929 0.523 0.885 -0.03 0.73 -0.68 0.05
1 7.33 733 -1.767 -10.018 -1.777 9.033 -5.219 1.038 -206.266 3793.579 -2445.057 1.326 0.254 1.054 -0.03 0.73 -0.68 0.05
1 7.34 734 -2.265 -9.812 -1.700 -4.272 -8.209 -3.143 -206.266 3793.579 -2445.057 1.805 0.049 0.982 -0.03 0.73 -0.68 0.06
1 7.35 735 -2.318 -10.683 -0.910 -11.017 -15.259 -4.364 -101.334 3778.588 -2415.077 1.850 0.922 0.176 -0.03 0.73 -0.68 0.06
1 7.36 736 -1.499 -12.867 -0.484 -5.219 -30.243 6.470 -101.334 3778.588 -2415.077 1.026 3.107 -0.267 -0.03 0.73 -0.68 0.06
1 7.37 737 1.097 -15.041 1.312 -3.052 -53.925 37.018 -206.266 3868.530 -2445.057 -1.594 5.283 -2.065 -0.03 0.73 -0.68 0.06
1 7.38 738 3.151 -16.363 3.050 -45.746 -8.362 83.466 -86.344 3943.631 -2475.038 -3.722 6.609 -3.809 -0.03 0.73 -0.68 0.07
1 7.39 739 2.275 -14.404 -0.302 -52.490 56.519 81.848 -161.295 3868.530 -2445.057 -2.963 4.662 -0.509 -0.02 0.74 -0.67 0.07
1 7.40 740 0.239 -12.297 -1.863 -19.623 65.033 44.861 -101.334 3778.588 -2534.999 -1.050 2.572 0.967 -0.02 0.74 -0.67 0.07
1 7.41 741 -0.872 -10.856 -1.374 1.953 41.809 14.557 -101.334 3778.588 -2534.999 -0.011 1.142 0.426 -0.01 0.74 -0.67 0.07
1 7.42 742 -1.652 -9.218 0.201 -11.841 25.421 -6.470 -11.393 3838.549 -2475.038 0.745 -0.492 -1.164 -0.01 0.74 -0.67 0.07
1 7.43 743 -2.231 -8.926 0.402 -30.274 18.127 -22.308 -11.393 3838.549 -2475.038 1.338 -0.784 -1.386 -0.01 0.74 -0.67 0.07
1 7.44 744 -2.619 -9.582 0.623 -44.403 8.453 -32.379 -11.393 3838.549 -2445.057 1.757 -0.126 -1.650 -0.01 0.74 -0.67 0.07
1 7.45 745 -2.624 -10.104 0.699 -48.859 -5.859 -26.795 93.539 3793.579 -2445.057 1.797 0.399 -1.784 -0.01 0.75 -0.66 0.06
1 7.46 746 -1.925 -9.879 1.288 -19.013 -20.538 0.732 -26.383 4078.543 -2534.999 1.115 0.179 -2.427 -0.01 0.75 -0.66 0.06
1 7.47 747 -1.006 -9.161 1.250 13.855 -19.898 15.533 63.559 3913.650 -2220.054 0.187 -0.536 -2.409 -0.01 0.75 -0.66 0.06
1 7.48 748 -0.014 -8.165 0.766 44.434 -19.592 21.545 63.559 3913.650 -2220.054 -0.833 -1.533 -1.896 -0.01 0.75 -0.66 0.07
1 7.49 749 1.053 -7.734 0.584 75.073 -25.452 17.639 3.598 3973.611 -2280.015 -1.967 -1.976 -1.549 -0.01 0.74 -0.67 0.07
1 7.50 750 1.456 -7.987 0.876 59.479 -16.724 22.766 3.598 3973.611 -2280.015 -2.400 -1.730 -1.728 -0.01 0.74 -0.67 0.07
1 7.51 751 1.413 -8.418 1.216 10.864 1.587 28.259 -101.334 3898.510 -2235.044 -2.395 -1.301 -1.993 -0.01 0.73 -0.67 0.08
1 7.52 752 1.092 -9.400 1.714 -55.634 18.768 28.290 -86.344 3868.530 -2505.018 -2.116 -0.315 -2.500 -0.01 0.73 -0.67 0.08
1 7.53 753 0.646 -10.851 1.887 -106.446 28.046 24.353 18.588 3793.579 -2324.985 -1.694 1.147 -2.763 -0.01 0.74 -0.67 0.08
1 7.54 754 0.771 -12.814 0.512 -86.334 18.555 13.489 -71.354 3973.611 -2354.966 -1.841 3.128 -1.547 -0 0.74 -0.66 0.08
1 7.55 755 1.053 -12.345 -0.268 -9.430 5.676 -0.580 -71.354 3973.611 -2354.966 -2.144 2.678 -0.914 -0 0.75 -0.66 0.08
1 7.56 756 1.106 -10.152 0.115 100.006 -2.594 -20.081 -11.393 3943.631 -2250.034 -2.181 0.479 -1.265 -0 0.75 -0.66 0.08
1 7.57 757 0.627 -8.634 0.378 117.585 0.671 -23.621 -11.393 3943.631 -2250.034 -1.663 -1.061 -1.363 -0 0.74 -0.67 0.07
1 7.58 758 0.374 -7.532 0.479 88.318 8.667 -24.292 63.559 3868.530 -2295.005 -1.366 -2.183 -1.291 -0 0.74 -0.67 0.07
1 7.59 759 0.225 -6.738 0.306 28.137 12.665 -26.917 -26.383 3898.510 -2354.966 -1.179 -2.991 -1.010 -0.01 0.73 -0.68 0.07
1 7.60 760 0.115 -7.288 -0.043 -56.122 14.771 -33.386 18.588 3913.650 -2445.057 -1.026 -2.445 -0.644 -0.01 0.73 -0.68 0.07
1 7.61 761 0.172 -8.064 -0.115 -80.384 15.442 -35.492 18.588 3943.631 -2549.989 -1.033 -1.669 -0.640 -0.01 0.73 -0.68 0.07
1 7.62 762 -0.048 -9.146 -0.278 -73.212 16.022 -35.950 18.588 3943.631 -2549.989 -0.758 -0.582 -0.594 -0.01 0.74 -0.67 0.06
1 7.63 763 -0.034 -9.793 -0.469 -42.084 13.428 -31.555 33.578 3778.588 -2309.995 -0.716 0.072 -0.519 -0.01 0.74 -0.67 0.06
1 7.64 764 0.345 -10.319 -0.383 12.299 5.280 -19.928 33.578 3778.588 -2309.995 -0.994 0.600 -0.694 -0.01 0.74 -0.66 0.06
1 7.65 765 0.733 -10.133 -0.072 32.959 1.953 -14.282 -101.334 3973.611 -2385.096 -1.347 0.408 -0.973 -0.01 0.74 -0.67 0.06
1 7.66 766 1.020 -9.884 0.263 34.546 5.646 -8.759 -161.295 3913.650 -2475.038 -1.606 0.151 -1.250 -0.02 0.74 -0.67 0.05
1 7.67 767 1.360 -9.443 0.239 21.820 13.672 -4.334 -131.314 3838.549 -2400.086 -1.921 -0.296 -1.170 -0.02 0.74 -0.67 0.05
1 7.68 768 1.082 -9.151 -0.067 -0.519 22.858 0.793 -146.305 3898.510 -2385.096 -1.622 -0.593 -0.830 -0.02 0.74 -0.67 0.05
1 7.69 769 0.757 -8.864 -0.316 -5.554 23.926 1.709 -146.305 3898.510 -2385.096 -1.280 -0.882 -0.572 -0.02 0.74 -0.67 0.05
1 7.70 770 0.579 -8.840 -0.685 -0.732 21.576 0.885 -11.393 3913.650 -2370.106 -1.090 -0.906 -0.208 -0.01 0.74 -0.67 0.05
1 7.71 771 0.268 -8.519 -0.479 12.817 17.639 1.617 -11.393 3913.650 -2370.106 -0.764 -1.228 -0.408 -0.01 0.74 -0.67 0.05
1 7.72 772 0.436 -8.543 -0.709 18.066 16.693 2.686 -86.344 3868.530 -2370.106 -0.932 -1.206 -0.158 -0.01 0.74 -0.67 0.04
1 7.73 773 0.469 -8.428 -0.656 16.296 17.395 2.838 138.510 3943.631 -2445.057 -0.968 -1.323 -0.185 -0.01 0.74 -0.67 0.04
1 7.74 774 0.599 -8.600 -0.599 6.439 16.480 2.686 138.510 3943.631 -2445.057 -1.099 -1.152 -0.222 -0.01 0.74 -0.68 0.04
1 7.75 775 0.867 -8.859 -0.713 -11.810 18.402 2.808 -26.383 3703.637 -2415.077 -1.369 -0.894 -0.104 -0.01 0.74 -0.68 0.04
1 7.76 776 0.929 -9.127 -0.972 -16.815 18.738 5.432 -26.383 3703.637 -2415.077 -1.434 -0.624 0.139 -0.01 0.74 -0.68 0.04
1 7.77 777 0.996 -9.544 -0.910 -15.259 17.853 10.315 93.539 4018.582 -2505.018 -1.496 -0.206 0.052 -0.01 0.74 -0.67 0.04
1 7.78 778 0.891 -9.721 -0.867 -5.829 19.531 17.639 93.539 4018.582 -2505.018 -1.398 -0.024 -0.036 -0 0.74 -0.67 0.04
1 7.79 779 0.867 -9.826 -0.867 0.427 20.203 20.233 3.598 3808.569 -2415.077 -1.388 0.083 -0.044 -0 0.74 -0.67 0.04
1 7.80 780 0.589 -9.793 -0.718 2.869 19.714 22.766 138.510 3913.650 -2445.057 -1.128 0.050 -0.192 -0 0.74 -0.67 0.04
1 7.81 781 0.508 -9.668 -0.517 2.167 19.348 24.780 138.510 3913.650 -2445.057 -1.069 -0.074 -0.388 0 0.74 -0.67 0.04
1 7.82 782 0.445 -9.534 -0.512 -1.740 19.440 33.295 183.480 3928.641 -2610.100 -1.034 -0.207 -0.390 0 0.74 -0.67 0.04
1 7.83 783 0.488 -9.137 -0.771 -7.385 22.247 37.384 183.480 3928.641 -2610.100 -1.115 -0.602 -0.132 0.01 0.74 -0.67 0.04
1 7.84 784 0.345 -9.252 -0.867 -12.909 25.818 40.436 153.500 4048.562 -2534.999 -1.015 -0.483 -0.045 0.01 0.74 -0.67 0.04
1 7.85 785 0.460 -9.371 -1.058 -15.778 31.983 41.657 153.500 4048.562 -2534.999 -1.177 -0.358 0.127 0.01 0.74 -0.67 0.04
1 7.86 786 -0.019 -9.486 -1.580 -1.282 28.137 31.281 138.510 3988.602 -2549.989 -0.791 -0.231 0.599 0.02 0.74 -0.67 0.04
1 7.87 787 0.254 -9.644 -1.523 17.517 19.836 24.994 258.582 4048.562 -2460.047 -1.098 -0.070 0.539 0.02 0.74 -0.67 0.04
1 7.88 788 0.479 -9.410 -1.470 30.701 11.322 20.508 258.582 4048.562 -2460.047 -1.347 -0.305 0.512 0.02 0.74 -0.67 0.04
1 7.89 789 0.781 -9.050 -1.532 34.851 8.331 15.930 183.480 3973.611 -2534.999 -1.668 -0.666 0.616 0.03 0.74 -0.67 0.04
1 7.90 790 1.144 -9.333 -1.350 27.496 12.634 5.554 183.480 3973.611 -2534.999 -2.040 -0.387 0.481 0.03 0.74 -0.67 0.04
1 7.91 791 1.226 -9.864 -1.623 11.017 18.127 0.092 273.572 3913.650 -2549.989 -2.116 0.140 0.793 0.03 0.74 -0.68 0.04
1 7.92 792 1.097 -10.583 -1.863 -4.242 22.949 -3.998 273.572 3913.650 -2549.989 -1.971 0.856 1.049 0.03 0.74 -0.68 0.04
1 7.93 793 0.905 -12.106 -1.801 -9.705 23.407 -3.998 348.823 4017.083 -2653.721 -1.747 2.378 0.959 0.03 0.74 -0.68 0.03
1 7.94 794 0.838 -12.584 -1.906 -4.334 23.651 -2.228 318.842 3912.151 -2578.620 -1.672 2.858 1.048 0.03 0.74 -0.67 0.03
1 7.95 795 0.948 -12.331 -2.016 5.920 24.902 1.221 318.842 3912.151 -2578.620 -1.777 2.604 1.152 0.03 0.74 -0.67 0.03
1 7.96 796 1.034 -11.842 -2.179 17.181 20.172 10.254 333.833 3927.142 -2563.630 -1.865 2.115 1.325 0.03 0.74 -0.68 0.03
1 7.97 797 1.370 -10.698 -1.705 25.696 16.998 22.644 333.833 3927.142 -2563.630 -2.217 0.969 0.878 0.03 0.74 -0.68 0.03
1 7.98 798 0.895 -10.396 -0.651 19.623 33.753 10.345 303.852 4047.063 -2638.731 -1.776 0.668 -0.140 0.04 0.73 -0.68 0.03
1 7.99 799 -1.231 -11.521 0.493 -1.709 52.033 -22.339 303.852 4047.063 -2638.731 0.347 1.791 -1.260 0.04 0.73 -0.68 0.03
1 8.00 800 -3.984 -13.178 -0.297 -47.943 23.041 -44.006 378.803 3927.142 -2563.630 3.194 3.444 -0.517 0.04 0.73 -0.68 0.02
1 8.01 801 -2.782 -14.098 -1.724 -56.519 -18.402 -56.153 408.934 3927.142 -2668.711 2.065 4.365 0.833 0.04 0.74 -0.67 0.01
1 8.02 802 -0.541 -14.543 -1.518 -53.345 -38.849 -47.669 408.934 3927.142 -2668.711 -0.097 4.812 0.544 0.03 0.74 -0.67 0.01
1 8.03 803 0.929 -13.509 -0.383 -22.644 -29.785 -16.052 438.914 3972.112 -2533.649 -1.512 3.781 -0.657 0.03 0.74 -0.67 0.01
1 8.04 804 0.498 -11.100 1.504 7.935 -1.221 14.252 258.881 4002.093 -2608.601 -1.073 1.374 -2.562 0.03 0.74 -0.67 0.01
1 8.05 805 -0.091 -10.329 1.963 -11.627 1.953 12.543 333.833 4152.145 -2458.698 -0.503 0.603 -3.010 0.03 0.74 -0.67 0.02
1 8.06 806 0.057 -10.444 1.863 -31.708 -8.789 9.125 333.833 4152.145 -2458.698 -0.672 0.720 -2.919 0.03 0.74 -0.67 0.02
1 8.07 807 0.661 -10.334 1.796 -36.774 -15.961 15.869 438.914 4002.093 -2563.630 -1.287 0.613 -2.870 0.03 0.74 -0.67 0.02
1 8.08 808 1.954 -9.199 1.810 -25.391 9.094 30.151 378.803 4077.044 -2488.679 -2.620 -0.513 -2.941 0.03 0.75 -0.66 0.02
1 8.09 809 1.480 -8.174 1.638 -7.904 42.816 31.281 378.803 4077.044 -2488.679 -2.171 -1.534 -2.780 0.03 0.75 -0.66 0.02
1 8.10 810 -0.211 -7.322 1.039 13.092 65.827 20.142 273.872 4017.083 -2443.708 -0.506 -2.385 -2.181 0.04 0.75 -0.66 0.02
1 8.11 811 -2.078 -6.570 0.249 30.792 59.326 2.655 243.891 4107.174 -2653.721 1.350 -3.138 -1.371 0.04 0.75 -0.67 0.01
1 8.12 812 -2.820 -6.953 0.062 28.504 15.442 -18.066 243.891 3987.103 -2473.688 2.103 -2.761 -1.141 0.04 0.74 -0.67 0.01
1 8.13 813 -2.552 -7.753 0.340 0.031 -3.967 -26.642 243.891 3987.103 -2473.688 1.862 -1.968 -1.374 0.04 0.74 -0.67 0.01
1 8.14 814 -2.112 -9.232 0.891 -45.197 -5.829 -31.769 438.914 3927.142 -2608.601 1.459 -0.492 -1.912 0.04 0.74 -0.67 0.01
1 8.15 815 -1.121 -12.125 0.915 -99.030 7.874 -27.802 348.823 4062.054 -2503.669 0.545 2.411 -2.080 0.04 0.75 -0.66 0.01
1 8.16 816 -0.804 -13.303 0.484 -87.647 15.320 -12.909 348.823 4062.054 -2503.669 0.267 3.606 -1.798 0.04 0.75 -0.66 0
1 8.17 817 -1.020 -12.915 -0.129 -30.212 17.517 6.531 348.823 4062.054 -2473.688 0.498 3.233 -1.299 0.04 0.76 -0.65 0
1 8.18 818 -1.499 -11.512 -0.536 41.199 14.160 22.308 333.833 4002.093 -2413.728 0.965 1.834 -0.911 0.04 0.76 -0.65 0
1 8.19 819 -2.078 -8.849 -0.733 102.845 3.632 32.532 408.934 4122.165 -2353.617 1.510 -0.839 -0.632 0.04 0.75 -0.66 0
1 8.20 820 -2.255 -7.518 -0.752 93.415 -3.723 31.738 408.934 4122.165 -2353.617 1.633 -2.186 -0.463 0.04 0.75 -0.66 0
1 8.21 821 -2.236 -6.819 -0.469 47.943 -9.064 30.518 333.833 4152.145 -2308.646 1.560 -2.899 -0.597 0.04 0.74 -0.67 0.01
1 8.22 822 -2.021 -6.857 -0.273 -43.060 -10.834 26.825 423.924 4182.125 -2368.607 1.254 -2.864 -0.698 0.05 0.74 -0.67 0.01
1 8.23 823 -1.686 -7.676 -0.503 -86.151 -11.932 26.093 423.924 4182.125 -2368.607 0.878 -2.034 -0.550 0.05 0.74 -0.67 0.01
1 8.24 824 -1.298 -8.983 -0.555 -98.358 -11.688 26.520 438.914 4047.063 -2608.601 0.449 -0.707 -0.631 0.05 0.75 -0.66 0.01
1 8.25 825 -1.034 -9.946 -0.651 -78.919 -9.583 27.191 378.803 4002.093 -2563.630 0.141 0.277 -0.674 0.05 0.75 -0.66 0.02
1 8.26 826 -1.097 -10.339 -0.651 -10.590 -6.226 19.409 333.833 4047.063 -2278.666 0.162 0.687 -0.769 0.05 0.75 -0.65 0.02
1 8.27 827 -1.317 -9.888 -0.886 30.701 -7.904 11.932 333.833 4047.063 -2278.666 0.350 0.244 -0.562 0.05 0.76 -0.65 0.02
1 8.28 828 -1.614 -9.299 -0.761 49.561 -13.123 5.432 348.823 4017.083 -2323.636 0.624 -0.348 -0.647 0.05 0.75 -0.65 0.02
1 8.29 829 -1.882 -8.734 -0.675 44.129 -20.447 0.519 483.885 4122.165 -2278.666 0.877 -0.922 -0.659 0.05 0.75 -0.66 0.02
1 8.30 830 -1.532 -8.246 -0.498 5.829 -26.123 -2.289 483.885 4122.165 -2278.666 0.511 -1.425 -0.715 0.05 0.75 -0.66 0.03
1 8.31 831 -1.259 -8.442 -0.316 -19.653 -22.949 0.977 558.836 4122.165 -2353.617 0.235 -1.228 -0.895 0.05 0.75 -0.66 0.03
1 8.32 832 -0.958 -8.619 -0.426 -29.205 -16.113 3.418 498.875 3987.103 -2443.708 -0.074 -1.047 -0.816 0.05 0.75 -0.66 0.03
1 8.33 833 -0.919 -8.883 -0.555 -22.553 -9.888 5.219 438.914 4047.063 -2383.597 -0.121 -0.777 -0.727 0.05 0.75 -0.66 0.03
1 8.34 834 -1.293 -9.074 -0.843 1.007 -12.909 2.808 438.914 4047.063 -2383.597 0.244 -0.582 -0.461 0.05 0.75 -0.66 0.03
1 8.35 835 -1.183 -8.988 -1.082 14.587 -19.318 -0.854 513.865 4152.145 -2308.646 0.125 -0.667 -0.221 0.05 0.75 -0.66 0.03
1 8.36 836 -1.135 -9.170 -0.996 20.599 -23.712 -6.622 513.865 4227.096 -2533.649 0.071 -0.487 -0.285 0.04 0.75 -0.66 0.03
1 8.37 837 -1.149 -9.347 -0.613 8.514 -20.477 -11.292 513.865 4227.096 -2533.649 0.097 -0.320 -0.603 0.04 0.75 -0.66 0.03
1 8.38 838 -1.212 -9.433 -0.436 -7.599 -15.595 -12.421 513.865 4317.188 -2458.698 0.172 -0.237 -0.767 0.04 0.75 -0.66 0.04
1 8.39 839 -1.494 -9.764 -0.512 -20.905 -12.817 -16.144 318.842 4182.125 -2548.640 0.469 0.093 -0.700 0.04 0.75 -0.66 0.04
1 8.40 840 -1.719 -10.362 -0.771 -15.656 -18.463 -25.086 483.885 4197.116 -2458.698 0.717 0.693 -0.465 0.04 0.75 -0.66 0.04
1 8.41 841 -1.599 -10.746 -0.919 18.982 -27.710 -19.898 483.885 4197.116 -2458.698 0.625 1.074 -0.325 0.03 0.75 -0.66 0.04
1 8.42 842 -1.283 -10.343 -0.776 35.339 -30.670 -17.365 393.793 4212.106 -2398.737 0.336 0.666 -0.445 0.03 0.75 -0.66 0.04
1 8.43 843 -1.188 -10.003 -0.852 36.987 -30.274 -16.693 378.803 4122.165 -2308.646 0.259 0.318 -0.315 0.03 0.75 -0.66 0.04
1 8.44 844 -0.996 -9.462 -0.781 20.264 -27.222 -16.907 378.803 4122.165 -2308.646 0.104 -0.240 -0.274 0.03 0.74 -0.67 0.04
1 8.45 845 -1.121 -9.381 -0.872 10.254 -23.987 -16.937 243.891 4137.155 -2398.737 0.249 -0.327 -0.152 0.02 0.74 -0.67 0.04
1 8.46 846 -1.149 -9.261 -1.101 4.028 -20.752 -18.372 318.842 4257.077 -2443.708 0.298 -0.450 0.094 0.02 0.74 -0.67 0.04
1 8.47 847 -1.331 -9.448 -1.312 5.341 -22.553 -18.158 318.842 4257.077 -2443.708 0.501 -0.266 0.313 0.02 0.74 -0.67 0.04
1 8.48 848 -1.106 -9.496 -1.379 12.390 -29.877 -18.066 228.901 4227.096 -2533.649 0.297 -0.220 0.389 0.02 0.74 -0.67 0.04
1 8.49 849 -1.125 -9.620 -1.245 16.296 -32.349 -17.731 228.901 4227.096 -2308.646 0.335 -0.099 0.271 0.01 0.74 -0.67 0.04
1 8.50 850 -1.068 -9.946 -1.427 16.968 -31.647 -15.717 183.930 4227.096 -2533.649 0.296 0.223 0.477 0.01 0.74 -0.67 0.04
1 8.51 851 -0.977 -10.118 -1.767 17.090 -30.975 -11.719 183.930 4227.096 -2533.649 0.223 0.391 0.843 0.01 0.74 -0.67 0.04
1 8.52 852 -1.053 -10.726 -1.877 15.839 -30.823 -14.465 198.920 4107.174 -2398.737 0.326 0.993 0.999 0.01 0.74 -0.67 0.05
1 8.53 853 -1.259 -11.172 -1.561 12.421 -25.665 -14.710 3.897 4347.168 -2563.630 0.551 1.435 0.705 0 0.74 -0.67 0.05
1 8.54 854 -1.619 -11.234 -1.738 8.331 -21.790 -10.193 3.897 4347.168 -2563.630 0.926 1.494 0.901 0 0.74 -0.67 0.05
1 8.55 855 -1.767 -11.138 -1.599 10.529 -24.292 -14.710 108.829 4197.116 -2533.649 1.088 1.396 0.777 -0 0.74 -0.68 0.05
1 8.56 856 -1.791 -10.995 -1.623 8.392 -24.017 -18.402 108.829 3972.112 -2533.649 1.134 1.250 0.820 -0 0.74 -0.68 0.05
1 8.57 857 -1.853 -10.688 -1.906 1.801 -23.316 -14.221 3.897 4197.116 -2413.728 1.221 0.940 1.120 -0.01 0.73 -0.68 0.05
1 8.58 858 -1.882 -10.238 -2.255 -1.007 -24.628 -11.139 3.897 4197.116 -2413.728 1.270 0.488 1.476 -0.01 0.73 -0.68 0.05
1 8.59 859 -1.623 -9.884 -1.911 -8.698 -30.457 -11.658 -68.056 4312.690 -2605.902 1.023 0.134 1.115 -0.01 0.74 -0.68 0.05
1 8.60 860 -0.986 -10.506 -1.178 -8.698 -36.408 -13.275 6.746 3967.615 -2665.863 0.393 0.758 0.362 -0.01 0.74 -0.67 0.05
1 8.61 861 -0.005 -12.915 -1.073 10.651 -49.896 -8.423 6.746 3967.615 -2665.863 -0.578 3.167 0.248 -0.02 0.74 -0.67 0.05
1 8.62 862 1.901 -15.161 0.776 29.419 -70.313 17.944 -23.085 4267.570 -2665.863 -2.485 5.410 -1.571 -0.02 0.73 -0.68 0.06
1 8.63 863 3.658 -15.443 2.471 1.312 -14.038 76.691 -98.036 3997.596 -2635.883 -4.296 5.692 -3.217 -0.02 0.73 -0.68 0.06
1 8.64 864 1.978 -13.413 0.742 -12.421 44.373 57.587 36.726 4222.599 -2530.951 -2.726 3.669 -1.473 -0.02 0.73 -0.68 0.07
1 8.65 865 -0.302 -12.034 -0.345 -15.198 52.033 17.700 36.726 4222.599 -2530.951 -0.541 2.299 -0.405 -0.01 0.73 -0.68 0.07
1 8.66 866 -2.035 -10.856 0.642 -14.618 24.170 -11.749 21.736 4252.580 -2695.994 1.166 1.128 -1.447 -0.01 0.74 -0.67 0.07
1 8.67 867 -2.734 -9.908 0.900 -18.707 11.322 -20.050 -23.085 4222.599 -2530.951 1.888 0.180 -1.732 -0.01 0.74 -0.67 0.06
1 8.68 868 -3.247 -9.496 0.742 -22.949 -3.876 -29.602 -23.085 4222.599 -2530.951 2.423 -0.233 -1.591 -0.01 0.74 -0.67 0.06
1 8.69 869 -3.438 -9.486 0.699 -31.067 -17.273 -29.114 66.707 4177.628 -2575.922 2.641 -0.242 -1.571 -0.01 0.74 -0.67 0.06
1 8.70 870 -3.184 -8.916 0.532 -34.271 -33.966 -8.881 81.697 3997.596 -2665.863 2.403 -0.810 -1.439 -0.01 0.74 -0.67 0.06
1 8.71 871 -2.169 -8.112 0.397 -19.013 -43.030 2.563 -143.157 4267.570 -2485.980 1.382 -1.611 -1.343 -0.01 0.74 -0.67 0.07
1 8.72 872 -0.991 -7.245 0.263 12.482 -52.185 11.261 -143.157 4267.570 -2485.980 0.181 -2.473 -1.230 -0.01 0.74 -0.67 0.07
1 8.73 873 1.058 -6.618 0.551 81.543 -64.209 16.235 -233.098 4132.658 -2320.938 -1.919 -3.105 -1.426 -0.02 0.74 -0.67 0.08
1 8.74 874 1.848 -6.637 0.747 97.107 -53.131 22.156 -53.065 4177.628 -2470.990 -2.743 -3.094 -1.483 -0.02 0.73 -0.68 0.08
1 8.75 875 2.830 -7.145 1.216 71.381 -30.090 27.313 -53.065 4177.628 -2470.990 -3.765 -2.593 -1.806 -0.02 0.73 -0.68 0.09
1 8.76 876 2.686 -8.390 1.001 7.721 -7.507 29.419 -98.036 4192.619 -2380.899 -3.665 -1.349 -1.501 -0.02 0.72 -0.68 0.09
1 8.77 877 2.208 -10.750 0.953 -84.107 4.395 27.954 -143.157 4072.697 -2530.951 -3.217 1.016 -1.468 -0.02 0.73 -0.68 0.09
1 8.78 878 1.748 -14.236 1.662 -168.946 17.365 14.618 -8.095 4132.658 -2620.893 -2.783 4.514 -2.333 -0.02 0.73 -0.68 0.09
1 8.79 879 1.690 -14.677 0.445 -106.903 18.158 0.946 -8.095 4132.658 -2620.893 -2.750 4.978 -1.365 -0.02 0.74 -0.67 0.09
1 8.80 880 1.489 -13.327 -0.642 22.003 5.280 -12.970 -8.095 4057.557 -2395.889 -2.536 3.649 -0.492 -0.02 0.75 -0.66 0.09
1 8.81 881 1.322 -10.880 -0.895 138.276 -9.308 -23.254 -8.095 4057.557 -2320.938 -2.338 1.180 -0.070 -0.02 0.74 -0.67 0.09
1 8.82 882 1.207 -7.781 -0.402 183.900 -20.355 -29.663 -8.095 4057.557 -2320.938 -2.175 -1.946 -0.292 -0.02 0.73 -0.68 0.09
1 8.83 883 1.250 -6.417 0.120 122.925 -17.029 -29.205 -23.085 4192.619 -2305.948 -2.176 -3.330 -0.553 -0.02 0.72 -0.69 0.09
1 8.84 884 1.384 -5.885 0.690 19.074 -0.458 -29.205 171.788 4102.677 -2500.971 -2.267 -3.871 -0.973 -0.02 0.72 -0.69 0.09
1 8.85 885 1.140 -6.364 0.747 -125.031 30.304 -29.389 -23.085 4042.566 -2785.935 -1.979 -3.395 -1.044 -0.03 0.72 -0.69 0.08
1 8.86 886 0.532 -8.701 -0.201 -161.774 38.941 -32.654 -23.085 4042.566 -2785.935 -1.326 -1.056 -0.257 -0.03 0.72 -0.69 0.08
1 8.87 887 0.105 -10.324 -1.020 -135.193 31.860 -34.210 -83.046 4012.586 -2650.873 -0.849 0.577 0.323 -0.03 0.73 -0.68 0.08
1 8.88 888 0.120 -11.742 -1.101 -12.848 3.815 -25.147 -98.036 4072.697 -2530.951 -0.752 2.017 0.062 -0.03 0.74 -0.66 0.07
1 8.89 889 0.608 -11.095 -0.498 65.155 -9.522 -16.388 -98.036 4072.697 -2530.951 -1.206 1.367 -0.528 -0.03 0.74 -0.67 0.07
1 8.90 890 1.140 -9.955 -0.005 103.607 -9.094 -9.949 -263.079 4252.580 -2365.909 -1.717 0.215 -0.904 -0.03 0.74 -0.67 0.07
1 8.91 891 1.676 -8.897 0.374 95.581 0.427 -5.127 -263.079 4252.580 -2365.909 -2.230 -0.859 -1.119 -0.03 0.73 -0.68 0.07
1 8.92 892 1.599 -7.729 0.249 27.680 20.996 -1.312 -218.108 4192.619 -2410.879 -2.130 -2.038 -0.859 -0.03 0.73 -0.68 0.07
1 8.93 893 1.231 -7.360 0.072 -16.937 27.802 0.366 -218.108 4192.619 -2410.879 -1.758 -2.410 -0.621 -0.03 0.73 -0.68 0.07
1 8.94 894 0.737 -7.561 -0.302 -40.436 25.116 1.740 -203.118 4132.658 -2545.941 -1.263 -2.209 -0.260 -0.03 0.73 -0.68 0.07
1 8.95 895 0.546 -8.241 -0.498 -32.471 14.130 1.709 -203.118 4102.677 -2500.971 -1.071 -1.521 -0.184 -0.03 0.73 -0.68 0.06
1 8.96 896 0.919 -8.797 -0.278 -12.268 9.491 2.411 -203.118 4102.677 -2500.971 -1.446 -0.962 -0.447 -0.03 0.73 -0.68 0.06
1 8.97 897 1.097 -9.204 0.096 4.791 11.200 4.395 -128.167 4327.681 -2470.990 -1.621 -0.555 -0.831 -0.03 0.73 -0.68 0.06
1 8.98 898 1.528 -9.524 0.215 12.665 16.754 6.653 -128.167 4327.681 -2470.990 -2.046 -0.235 -0.935 -0.03 0.73 -0.68 0.06
1 8.99 899 1.561 -9.836 0.201 6.348 24.078 10.498 -68.056 4147.648 -2485.980 -2.074 0.074 -0.898 -0.03 0.73 -0.68 0.06
1 9.00 900 1.370 -9.884 -0.101 -10.345 30.518 16.937 -68.056 4147.648 -2485.980 -1.882 0.121 -0.586 -0.02 0.73 -0.68 0.06
1 9.01 901 1.240 -9.773 -0.613 -11.871 30.274 20.722 -173.137 4072.697 -2410.879 -1.759 0.012 -0.081 -0.02 0.73 -0.68 0.06
1 9.02 902 1.039 -9.362 -0.924 -4.242 27.405 21.729 -203.118 4177.628 -2545.941 -1.571 -0.398 0.214 -0.02 0.73 -0.68 0.06
1 9.03 903 1.001 -9.012 -0.747 13.702 23.590 24.109 -203.118 4177.628 -2545.941 -1.569 -0.745 0.029 -0.02 0.73 -0.68 0.05
1 9.04 904 1.034 -8.763 -0.512 17.273 23.285 25.635 -8.095 4057.557 -2395.889 -1.625 -0.994 -0.186 -0.01 0.73 -0.68 0.05
1 9.05 905 1.116 -8.902 -0.431 11.322 25.452 27.527 -8.095 4057.557 -2395.889 -1.730 -0.855 -0.245 -0.01 0.73 -0.68 0.05
1 9.06 906 0.828 -9.012 -0.297 -2.533 27.588 28.320 111.677 4117.667 -2456.000 -1.469 -0.744 -0.368 -0.01 0.73 -0.68 0.05
1 9.07 907 0.886 -9.280 -0.402 -21.027 29.205 30.426 111.677 4117.667 -2456.000 -1.555 -0.474 -0.272 -0.01 0.73 -0.68 0.05
1 9.08 908 0.900 -9.726 -0.603 -24.780 28.198 33.264 36.726 4042.566 -2456.000 -1.600 -0.024 -0.100 -0 0.73 -0.68 0.05
1 9.09 909 0.924 -10.051 -0.690 -19.806 27.435 37.384 -23.085 4222.599 -2456.000 -1.658 0.307 -0.053 -0 0.73 -0.68 0.05
1 9.10 910 0.690 -10.765 -0.699 0.671 33.203 37.354 -23.085 4222.599 -2456.000 -1.502 1.031 -0.098 0 0.74 -0.68 0.05
1 9.11 911 0.273 -10.918 -1.034 21.607 37.750 29.663 156.798 4042.566 -2530.951 -1.128 1.188 0.243 0.01 0.74 -0.68 0.05
1 9.12 912 -0.172 -10.669 -1.269 30.609 41.596 19.867 156.798 4042.566 -2530.951 -0.719 0.939 0.510 0.01 0.73 -0.68 0.05
1 9.13 913 -0.656 -10.501 -1.130 20.386 37.720 17.029 141.808 4252.580 -2320.938 -0.255 0.771 0.406 0.02 0.73 -0.68 0.05
1 9.14 914 -0.565 -10.425 -0.915 3.418 24.445 15.808 246.739 4207.609 -2575.922 -0.364 0.695 0.207 0.02 0.73 -0.68 0.05
1 9.15 915 -0.254 -10.343 -1.183 3.571 20.599 17.578 351.971 4056.507 -2470.091 -0.694 0.615 0.477 0.02 0.73 -0.68 0.05
1 9.16 916 0.254 -10.090 -1.331 9.888 21.607 22.766 262.029 3996.546 -2409.980 -1.221 0.363 0.625 0.02 0.73 -0.68 0.05
1 9.17 917 0.445 -9.821 -1.528 12.909 27.832 24.414 262.029 3996.546 -2409.980 -1.436 0.097 0.827 0.02 0.73 -0.68 0.05
1 9.18 918 0.589 -9.524 -1.982 10.315 34.515 21.820 307.000 4311.491 -2634.983 -1.622 -0.197 1.297 0.03 0.73 -0.68 0.05
1 9.19 919 0.833 -9.424 -2.083 4.547 32.196 20.477 307.000 4311.491 -2634.983 -1.883 -0.295 1.396 0.03 0.73 -0.68 0.04
1 9.20 920 1.097 -9.457 -2.255 -3.784 27.039 15.778 247.039 4206.560 -2470.091 -2.157 -0.260 1.557 0.03 0.73 -0.68 0.04
1 9.21 921 1.561 -9.625 -2.155 -11.200 23.193 13.184 277.020 4131.458 -2470.091 -2.626 -0.090 1.432 0.04 0.73 -0.68 0.04
1 9.22 922 1.791 -10.329 -0.733 -16.174 24.139 9.033 411.932 4146.449 -2455.101 -2.854 0.616 -0.025 0.04 0.73 -0.68 0.04
1 9.23 923 1.489 -11.325 -0.230 -0.732 38.788 -0.153 546.994 4206.560 -2394.990 -2.543 1.614 -0.563 0.04 0.73 -0.68 0.04
1 9.24 924 -1.384 -12.259 1.025 8.148 67.719 -35.797 546.994 4206.560 -2394.990 0.386 2.543 -1.829 0.04 0.73 -0.68 0.03
1 9.25 925 -4.473 -12.862 0.579 -23.132 69.916 -72.724 426.922 4011.537 -2500.071 3.578 3.139 -1.413 0.04 0.74 -0.68 0.02
1 9.26 926 -4.544 -14.778 -1.906 -81.269 1.343 -89.142 426.922 4011.537 -2500.071 3.792 5.050 0.980 0.04 0.74 -0.67 0.02
1 9.27 927 -2.548 -14.552 -1.240 -73.822 -36.408 -61.798 442.062 4191.569 -2409.980 1.919 4.829 0.193 0.03 0.74 -0.67 0.01
1 9.28 928 -1.164 -13.489 -0.086 -29.419 -33.447 -27.344 426.922 4206.560 -2440.110 0.608 3.772 -1.053 0.03 0.75 -0.66 0.01
1 9.29 929 -0.249 -11.751 1.901 7.507 -3.967 13.763 201.918 4131.458 -2290.058 -0.282 2.035 -3.067 0.03 0.75 -0.66 0.01
1 9.30 930 0.158 -11.124 2.193 4.028 5.219 32.745 201.918 4251.530 -2185.126 -0.702 1.408 -3.350 0.03 0.75 -0.66 0.01
1 9.31 931 1.082 -10.731 1.839 -5.127 -5.798 40.100 201.918 4251.530 -2185.126 -1.669 1.016 -2.988 0.03 0.75 -0.66 0.02
1 9.32 932 2.715 -10.113 1.465 -5.219 -7.294 41.077 232.049 4221.550 -2200.117 -3.423 0.409 -2.628 0.03 0.75 -0.66 0.02
1 9.33 933 3.060 -9.620 1.422 3.510 12.634 32.501 232.049 4221.550 -2200.117 -3.804 -0.084 -2.569 0.03 0.75 -0.66 0.02
1 9.34 934 2.164 -8.849 1.255 15.320 42.481 23.132 307.000 4146.449 -2200.117 -2.922 -0.857 -2.376 0.03 0.75 -0.67 0.02
1 9.35 935 0.417 -7.796 0.862 29.755 62.866 11.505 336.980 4191.569 -2200.117 -1.172 -1.915 -1.944 0.04 0.74 -0.67 0.02
1 9.36 936 -1.461 -7.226 0.211 36.102 50.629 -8.637 411.932 4191.569 -2230.097 0.702 -2.489 -1.251 0.04 0.74 -0.67 0.02
1 9.37 937 -1.906 -7.508 0.383 17.029 32.196 -19.592 411.932 4116.468 -2350.019 1.164 -2.213 -1.374 0.04 0.74 -0.67 0.01
1 9.38 938 -2.002 -8.562 0.632 -17.792 21.759 -25.421 411.932 4116.468 -2350.019 1.291 -1.165 -1.593 0.04 0.74 -0.67 0.01
1 9.39 939 -1.949 -10.741 0.876 -70.801 25.635 -29.602 381.951 4116.468 -2305.048 1.317 1.017 -1.918 0.04 0.74 -0.67 0
1 9.40 940 -1.868 -12.144 0.728 -79.773 29.175 -23.865 381.951 4116.468 -2305.048 1.278 2.429 -1.877 0.04 0.75 -0.66 0
1 9.41 941 -2.097 -12.819 0.297 -55.054 28.656 -12.482 307.000 4146.449 -2230.097 1.545 3.117 -1.561 -0.04 -0.75 0.66 0
1 9.42 942 -2.284 -12.106 0.038 -3.387 22.339 4.608 426.922 4101.478 -2215.107 1.750 2.411 -1.369 -0.04 -0.75 0.66 0
1 9.43 943 -2.437 -10.884 -0.187 50.232 14.832 20.111 381.951 3996.546 -2125.016 1.895 1.188 -1.129 -0.05 -0.75 0.66 0
1 9.44 944 -2.447 -8.514 -0.034 82.184 6.104 34.821 411.932 4116.468 -2154.996 1.872 -1.192 -1.195 -0.05 -0.75 0.66 0
1 9.45 945 -2.308 -7.781 0.048 67.108 2.838 36.072 411.932 4116.468 -2154.996 1.670 -1.936 -1.148 -0.05 -0.74 0.67 0
1 9.46 946 -2.447 -7.341 0.110 25.238 0.885 36.163 321.990 4056.507 -2245.087 1.749 -2.384 -1.099 0.05 0.74 -0.67 0
1 9.47 947 -2.107 -7.777 0.029 -45.288 -4.669 32.593 321.990 4056.507 -2245.087 1.303 -1.944 -0.979 0.06 0.74 -0.67 0
1 9.48 948 -1.647 -8.825 -0.038 -71.015 -9.644 30.731 411.932 3966.566 -2350.019 0.795 -0.883 -0.991 0.06 0.74 -0.67 0.01
1 9.49 949 -1.188 -9.625 -0.201 -69.428 -9.522 30.182 381.951 4116.468 -2230.097 0.284 -0.067 -0.931 0.06 0.74 -0.66 0.01
1 9.50 950 -0.872 -10.214 -0.244 -42.603 -4.913 27.832 472.042 4131.458 -2245.087 -0.081 0.537 -0.974 0.06 0.75 -0.66 0.01
1 9.51 951 -0.828 -9.946 -0.268 17.944 -0.946 18.768 487.033 4191.569 -2095.035 -0.163 0.278 -0.989 0.06 0.75 -0.66 0.01
1 9.52 952 -1.192 -9.275 -0.283 46.448 -3.174 10.529 487.033 4191.569 -2095.035 0.171 -0.392 -0.955 0.06 0.75 -0.66 0.02
1 9.53 953 -1.537 -8.639 -0.177 54.291 -8.484 3.448 651.925 4206.560 -2215.107 0.497 -1.036 -0.992 0.06 0.75 -0.66 0.02
1 9.54 954 -1.911 -8.313 0.062 26.001 -12.268 -3.906 651.925 4206.560 -2215.107 0.859 -1.378 -1.076 0.06 0.74 -0.67 0.02
1 9.55 955 -1.901 -8.385 0.163 -6.561 -10.712 -6.012 442.062 4071.498 -2275.068 0.854 -1.309 -1.148 0.06 0.74 -0.67 0.02
1 9.56 956 -1.844 -8.744 0.192 -31.647 -6.592 -5.493 561.984 4191.569 -2275.068 0.804 -0.949 -1.196 0.06 0.74 -0.67 0.02
1 9.57 957 -1.724 -9.079 -0.048 -37.415 -3.235 -3.174 561.984 4191.569 -2275.068 0.688 -0.609 -1.003 0.06 0.74 -0.67 0.02
1 9.58 958 -1.772 -9.395 -0.517 -12.909 -4.822 -1.923 411.932 4071.498 -2305.048 0.733 -0.288 -0.577 0.06 0.74 -0.67 0.02
1 9.59 959 -1.973 -9.309 -0.623 11.871 -12.360 -2.838 411.932 4071.498 -2305.048 0.932 -0.371 -0.493 0.06 0.74 -0.67 0.02
1 9.60 960 -1.724 -9.108 -0.594 31.860 -20.660 -4.028 591.964 3966.566 -2154.996 0.679 -0.574 -0.508 0.06 0.74 -0.67 0.02
1 9.61 961 -1.499 -8.667 -0.340 30.701 -26.611 -2.319 591.964 3966.566 -2154.996 0.445 -1.025 -0.655 0.06 0.74 -0.67 0.02
1 9.62 962 -1.025 -8.710 -0.450 12.482 -25.024 -2.258 561.984 4071.498 -2230.097 -0.030 -0.986 -0.500 0.05 0.74 -0.67 0.02
1 9.63 963 -0.512 -8.974 -0.306 -8.118 -20.020 -2.258 502.023 4131.458 -2215.107 -0.543 -0.724 -0.629 0.05 0.74 -0.67 0.02
1 9.64 964 -0.426 -9.151 -0.474 -22.583 -12.756 -3.906 502.023 4131.458 -2215.107 -0.626 -0.546 -0.473 0.05 0.74 -0.67 0.03
1 9.65 965 -0.694 -9.659 -0.728 -23.926 -7.965 -13.458 426.922 4131.458 -2290.058 -0.348 -0.037 -0.250 0.05 0.74 -0.67 0.03
1 9.66 966 -0.886 -10.204 -0.862 8.728 -12.482 -19.165 426.922 4131.458 -2290.058 -0.131 0.509 -0.142 0.05 0.74 -0.67 0.03
1 9.67 967 -1.044 -10.056 -0.718 31.586 -15.472 -20.416 487.033 4041.517 -2230.097 0.055 0.357 -0.278 0.05 0.74 -0.67 0.03
1 9.68 968 -1.202 -9.553 -0.560 30.274 -13.031 -22.369 487.033 4041.517 -2230.097 0.271 -0.161 -0.335 0.04 0.74 -0.67 0.02
1 9.69 969 -1.111 -9.237 -0.498 22.430 -12.054 -22.949 336.980 4116.468 -2275.068 0.210 -0.484 -0.353 0.04 0.74 -0.68 0.02
1 9.70 970 -1.269 -9.343 -0.680 -2.228 -9.430 -25.238 381.951 3921.445 -2275.068 0.401 -0.383 -0.155 0.04 0.74 -0.68 0.02
1 9.71 971 -1.446 -9.797 -0.852 -5.157 -8.820 -26.215 381.951 3921.445 -2275.068 0.613 0.069 0.015 0.04 0.74 -0.68 0.02
1 9.72 972 -1.590 -10.037 -1.010 3.265 -10.803 -25.635 381.951 4041.517 -2230.097 0.790 0.306 0.170 0.04 0.74 -0.68 0.02
1 9.73 973 -1.810 -10.056 -0.843 16.510 -16.419 -23.438 381.951 4041.517 -2230.097 1.041 0.322 0.011 0.03 0.74 -0.68 0.02
1 9.74 974 -1.724 -9.903 -0.742 21.423 -22.888 -22.888 277.020 4131.458 -2245.087 0.982 0.165 -0.068 0.03 0.74 -0.68 0.02
1 9.75 975 -1.714 -9.769 -0.752 21.332 -26.550 -19.775 277.020 4131.458 -2245.087 0.995 0.026 -0.024 0.03 0.73 -0.68 0.02
1 9.76 976 -1.604 -9.788 -0.953 11.688 -26.398 -17.334 232.049 3996.546 -2275.068 0.921 0.038 0.240 0.03 0.73 -0.68 0.02
1 9.77 977 -1.695 -9.850 -1.030 3.937 -24.872 -18.616 67.006 3936.436 -2440.110 1.029 0.098 0.332 0.02 0.73 -0.68 0.02
1 9.78 978 -1.599 -10.315 -1.240 -0.244 -26.520 -19.562 67.006 3936.436 -2440.110 0.951 0.561 0.546 0.02 0.73 -0.68 0.03
1 9.79 979 -1.379 -10.530 -1.355 4.639 -31.647 -16.724 81.997 4041.517 -2380.000 0.750 0.775 0.661 0.02 0.73 -0.68 0.03
1 9.80 980 -1.121 -10.683 -1.298 17.242 -34.912 -15.167 111.977 3891.465 -2380.000 0.505 0.927 0.614 0.02 0.73 -0.68 0.03
1 9.81 981 -1.034 -10.559 -1.370 19.775 -34.912 -19.623 141.958 4101.478 -2365.009 0.436 0.799 0.711 0.01 0.73 -0.68 0.03
1 9.82 982 -1.116 -10.248 -1.480 20.905 -34.973 -19.562 141.958 4101.478 -2365.009 0.541 0.485 0.850 0.01 0.73 -0.68 0.03
1 9.83 983 -1.302 -10.061 -1.662 17.700 -38.788 -19.074 -7.795 4101.478 -2470.091 0.771 0.292 1.086 0 0.73 -0.69 0.03
1 9.84 984 -1.168 -9.960 -1.824 14.618 -40.161 -19.623 37.026 3966.566 -2305.048 0.658 0.189 1.269 0 0.73 -0.69 0.03
1 9.85 985 -1.010 -9.946 -1.978 8.942 -42.084 -16.846 37.026 3966.566 -2305.048 0.519 0.173 1.436 -0 0.73 -0.69 0.04
1 9.86 986 -0.733 -9.970 -1.915 6.317 -42.511 -15.900 111.977 3921.445 -2409.980 0.260 0.196 1.378 -0 0.73 -0.69 0.04
1 9.87 987 -0.867 -10.243 -1.489 8.850 -39.856 -18.768 7.045 3891.465 -2350.019 0.413 0.468 0.954 -0.01 0.73 -0.69 0.04
1 9.88 988 -0.570 -12.091 -0.225 19.989 -41.016 -18.890 -68.206 3892.064 -2305.348 0.139 2.315 -0.301 -0.01 0.73 -0.69 0.04
1 9.89 989 0.431 -13.782 0.924 27.435 -51.300 -1.221 -68.206 3892.064 -2305.348 -0.835 4.003 -1.423 -0.01 0.72 -0.69 0.04
1 9.90 990 2.088 -14.265 2.131 7.355 -58.136 18.250 21.736 3861.934 -2440.410 -2.486 4.484 -2.587 -0.02 0.72 -0.69 0.04
1 9.91 991 1.441 -13.509 0.809 -19.806 3.326 39.978 -128.167 3937.035 -2440.410 -1.921 3.730 -1.254 -0.02 0.72 -0.69 0.05
1 9.92 992 -0.110 -12.517 -0.278 -19.440 19.836 14.832 -128.167 3937.035 -2440.410 -0.421 2.743 -0.198 -0.02 0.72 -0.69 0.05
1 9.93 993 -1.111 -11.718 0.148 -12.573 8.423 -7.080 -218.108 3967.016 -2485.381 0.570 1.946 -0.653 -0.01 0.72 -0.69 0.05
1 9.94 994 -1.561 -10.726 0.713 -10.345 3.174 -10.101 -173.137 3922.045 -2530.352 1.033 0.955 -1.236 -0.01 0.73 -0.69 0.05
1 9.95 995 -1.705 -9.405 0.771 -11.780 -1.434 -9.369 -83.196 3937.035 -2500.371 1.192 -0.367 -1.309 -0.02 0.73 -0.69 0.05
1 9.96 996 -1.480 -8.873 0.283 -15.564 -11.139 -3.204 -83.196 3937.035 -2500.371 0.972 -0.898 -0.827 -0.02 0.73 -0.69 0.05
1 9.97 997 -1.168 -8.533 0.488 -22.278 -26.947 1.953 -83.196 3831.954 -2470.391 0.658 -1.238 -1.044 -0.02 0.73 -0.68 0.05
