COL1	TIME	ACC_X	ACC_Y	ACC_Z	GYR_X	GYR_Y	GYR_Z	MAG_X	MAG_Y	MAG_Z	LACC_X	LACC_Y	LACC_Z	QUAT_X	QUAT_Y	QUAT_Z	QUAT_W
1 0.00 0 -0.158 -9.850 0.872 -0.916 -0.946 3.052 101.184 2866.283 -2806.322 0.083 0.081 -0.101 -0.02 -0.68 0.73 0.01
1 0.01 1 -0.062 -9.903 0.824 -0.885 -1.495 3.265 101.184 2866.283 -2806.322 -0.017 0.134 -0.052 -0.02 -0.68 0.73 0.01
1 0.02 2 -0.038 -9.869 0.867 0.061 -1.617 3.357 131.165 2821.312 -2806.322 -0.044 0.100 -0.095 -0.02 -0.68 0.73 0.01
1 0.03 3 -0.043 -9.826 0.838 -0.854 -0.854 2.899 191.275 2806.322 -2776.341 -0.042 0.057 -0.064 -0.02 -0.68 0.73 0.01
1 0.04 4 -0.134 -9.941 0.723 -1.129 -0.763 2.502 191.275 2806.322 -2776.341 0.046 0.172 0.051 -0.02 -0.68 0.73 0.01
1 0.05 5 0.005 -9.826 0.718 -1.038 -1.129 2.289 56.213 2821.312 -2836.302 -0.095 0.057 0.057 -0.02 -0.68 0.73 0.01
1 0.06 6 -0.067 -9.941 0.661 -1.984 -0.580 2.136 191.275 2851.292 -2821.312 -0.023 0.172 0.113 -0.02 -0.68 0.73 0.01
1 0.07 7 -0.120 -9.927 0.699 -1.556 -0.244 1.648 191.275 2881.273 -2851.292 0.029 0.158 0.074 -0.02 -0.68 0.73 0.01
1 0.08 8 -0.153 -9.955 0.646 -1.312 0.000 1.373 191.275 2881.273 -2851.292 0.061 0.186 0.125 -0.02 -0.68 0.73 0.01
1 0.09 9 -0.053 -9.965 0.728 -1.312 0.458 1.892 161.295 2881.273 -2851.292 -0.040 0.196 0.043 -0.02 -0.68 0.73 0.01
1 0.10 10 -0.110 -9.893 0.828 -0.885 0.488 1.129 11.243 2731.371 -2821.312 0.016 0.124 -0.059 -0.02 -0.68 0.73 0.01
1 0.11 11 -0.148 -9.951 0.733 -0.854 -0.031 1.129 11.243 2731.371 -2821.312 0.054 0.181 0.037 -0.02 -0.68 0.73 0.01
1 0.12 12 -0.225 -9.965 0.790 -0.763 -0.427 0.580 161.295 2881.273 -2776.341 0.131 0.196 -0.021 -0.02 -0.68 0.73 0.01
1 0.13 13 -0.201 -9.864 0.723 -0.458 -0.458 0.122 191.275 2926.244 -2956.374 0.107 0.095 0.046 -0.02 -0.68 0.73 0.01
1 0.14 14 -0.067 -9.946 0.795 -0.458 -1.007 0.549 206.266 2866.283 -2836.302 -0.028 0.177 -0.026 -0.02 -0.68 0.73 0.01
1 0.15 15 -0.125 -9.898 0.862 0.092 -0.580 0.671 206.266 2866.283 -2836.302 0.030 0.129 -0.092 -0.02 -0.68 0.73 0.01
1 0.16 16 -0.115 -9.860 0.843 -0.214 -1.160 0.671 176.285 2821.312 -2836.302 0.021 0.091 -0.072 -0.02 -0.68 0.73 0.01
1 0.17 17 -0.067 -9.898 0.781 -0.671 -1.251 1.038 101.184 2911.253 -2836.302 -0.027 0.129 -0.009 -0.02 -0.68 0.73 0.01
1 0.18 18 -0.153 -9.730 0.828 -0.671 -1.556 0.946 101.184 2911.253 -2836.302 0.059 -0.039 -0.057 -0.02 -0.68 0.73 0.01
1 0.19 19 -0.067 -9.812 0.761 -1.038 -0.885 1.434 191.275 2881.273 -2956.374 -0.028 0.043 0.011 -0.02 -0.68 0.73 0.01
1 0.20 20 -0.115 -9.754 0.742 -0.488 -1.282 1.587 206.266 2821.312 -2806.322 0.020 -0.015 0.031 -0.02 -0.68 0.73 0.01
1 0.21 21 -0.091 -9.879 0.737 -1.282 -0.732 1.343 161.295 2926.244 -2926.244 -0.004 0.110 0.036 -0.02 -0.68 0.73 0.01
1 0.22 22 -0.077 -9.927 0.795 -0.763 -0.519 2.167 161.295 2926.244 -2926.244 -0.018 0.158 -0.022 -0.02 -0.68 0.73 0.01
1 0.23 23 -0.134 -9.735 0.843 -0.641 -0.397 2.411 101.184 2866.283 -2866.283 0.039 -0.034 -0.070 -0.02 -0.68 0.73 0.01
1 0.24 24 -0.201 -9.908 0.872 -0.610 -0.275 2.625 176.285 2866.283 -2986.354 0.104 0.139 -0.097 -0.02 -0.68 0.73 0.01
1 0.25 25 -0.187 -9.783 0.824 -1.862 -0.549 2.563 176.285 2866.283 -2986.354 0.087 0.014 -0.049 -0.02 -0.68 0.73 0.01
1 0.26 26 -0.201 -9.893 0.905 -1.099 -0.397 3.326 191.275 2731.371 -2746.361 0.099 0.124 -0.131 -0.02 -0.68 0.73 0.01
1 0.27 27 -0.187 -9.754 0.900 -0.702 -0.671 3.296 191.275 2776.341 -2746.361 0.080 -0.014 -0.126 -0.02 -0.68 0.73 0.01
1 0.28 28 -0.215 -9.606 0.891 -0.885 -1.465 3.967 161.295 2881.273 -2851.292 0.100 -0.163 -0.113 -0.02 -0.68 0.73 0.01
1 0.29 29 -0.211 -9.802 0.776 -1.373 -0.824 4.608 161.295 2881.273 -2851.292 0.090 0.034 0.003 -0.02 -0.68 0.73 0.01
1 0.30 30 -0.196 -9.821 0.733 -1.770 -0.854 4.303 101.184 2746.361 -2836.302 0.070 0.053 0.045 -0.02 -0.68 0.73 0.01
1 0.31 31 -0.139 -9.788 0.781 -1.770 0.031 3.815 176.285 2866.283 -2911.253 0.008 0.020 -0.004 -0.02 -0.68 0.73 0.01
1 0.32 32 -0.120 -9.745 0.680 -2.380 -0.336 2.899 176.285 2866.283 -2911.253 -0.015 -0.024 0.095 -0.02 -0.68 0.73 0.01
1 0.33 33 -0.187 -9.999 0.704 -2.350 0.336 2.502 206.266 2671.260 -2866.283 0.049 0.230 0.068 -0.02 -0.68 0.73 0.01
1 0.34 34 -0.148 -10.037 0.618 -1.923 0.397 2.625 251.236 2671.260 -2806.322 0.009 0.268 0.152 -0.02 -0.68 0.73 0.01
1 0.35 35 -0.105 -10.018 0.694 -1.617 1.587 1.221 251.236 2671.260 -2806.322 -0.037 0.249 0.074 -0.02 -0.68 0.73 0.01
1 0.36 36 -0.254 -10.113 0.670 -1.648 1.160 0.977 176.285 2791.332 -2866.283 0.110 0.344 0.095 -0.02 -0.68 0.73 0.01
1 0.37 37 -0.081 -9.975 0.704 0.122 0.793 0.885 131.165 2746.361 -2806.322 -0.062 0.205 0.060 -0.02 -0.68 0.73 0.01
1 0.38 38 -0.148 -9.927 0.824 -0.153 0.305 0.305 176.285 2791.332 -2761.351 0.005 0.158 -0.059 -0.02 -0.68 0.73 0.01
1 0.39 39 -0.129 -9.936 0.723 -0.397 0.854 0.244 176.285 2791.332 -2761.351 -0.013 0.167 0.043 -0.02 -0.68 0.73 0.01
1 0.40 40 -0.302 -9.764 0.857 -0.153 0.031 -0.122 116.174 2776.341 -2746.361 0.160 -0.005 -0.090 -0.02 -0.68 0.73 0.01
1 0.41 41 -0.254 -9.793 0.833 -0.763 -0.244 0.183 266.227 2701.390 -2896.263 0.113 0.024 -0.065 -0.02 -0.68 0.73 0.01
1 0.42 42 -0.225 -9.855 0.785 0.031 -0.488 0.275 266.227 2701.390 -2896.263 0.083 0.086 -0.017 -0.02 -0.68 0.73 0.01
1 0.43 43 -0.067 -9.807 0.661 -0.946 -1.556 0.610 56.213 2866.283 -2806.322 -0.075 0.038 0.110 -0.02 -0.68 0.73 0.01
1 0.44 44 -0.062 -9.788 0.867 -0.305 -1.160 0.183 86.194 2851.292 -2851.292 -0.079 0.019 -0.097 -0.02 -0.68 0.73 0.01
1 0.45 45 -0.182 -9.927 0.790 -0.916 -1.465 -0.092 86.194 2776.341 -2821.312 0.042 0.158 -0.019 -0.02 -0.68 0.73 0.01
1 0.46 46 -0.230 -9.831 0.790 -0.549 -1.740 0.183 86.194 2776.341 -2821.312 0.091 0.062 -0.019 -0.02 -0.68 0.73 0.01
1 0.47 47 -0.273 -10.022 0.891 -0.946 -1.465 0.244 236.246 2701.390 -2851.292 0.133 0.254 -0.120 -0.02 -0.68 0.73 0.01
1 0.48 48 -0.148 -9.946 0.895 -0.885 -1.678 0.336 131.165 2821.312 -2656.270 0.008 0.177 -0.124 -0.02 -0.68 0.73 0.01
1 0.49 49 -0.129 -9.917 0.795 -0.671 -1.831 0.000 131.165 2821.312 -2656.270 -0.012 0.149 -0.023 -0.02 -0.68 0.73 0.01
1 0.50 50 -0.263 -9.750 0.843 -1.434 -1.190 0.916 206.266 2821.312 -2866.283 0.122 -0.019 -0.070 -0.02 -0.68 0.73 0.01
1 0.51 51 -0.110 -9.850 0.752 -0.916 -1.160 0.916 161.295 2701.390 -2821.312 -0.031 0.082 0.022 -0.02 -0.68 0.73 0.01
1 0.52 52 -0.172 -9.773 0.857 -1.282 -0.824 0.763 116.174 2731.371 -2851.292 0.031 0.005 -0.083 -0.02 -0.68 0.73 0.01
1 0.53 53 -0.086 -9.855 0.800 -1.465 -1.099 0.610 116.174 2731.371 -2851.292 -0.055 0.087 -0.026 -0.02 -0.68 0.73 0.01
1 0.54 54 -0.072 -9.821 0.843 -1.099 -0.885 1.068 266.227 2731.371 -3001.345 -0.069 0.053 -0.069 -0.02 -0.68 0.73 0.01
1 0.55 55 -0.158 -9.764 0.848 -1.373 -0.488 1.068 206.266 2791.332 -2866.283 0.017 -0.004 -0.073 -0.02 -0.68 0.73 0.01
1 0.56 56 -0.163 -9.898 0.737 -1.404 -0.366 1.373 206.266 2791.332 -2866.283 0.022 0.130 0.037 -0.02 -0.68 0.73 0.01
1 0.57 57 -0.134 -9.836 0.747 -1.251 -0.214 1.160 161.295 2776.341 -2776.341 -0.007 0.067 0.028 -0.02 -0.68 0.73 0.01
1 0.58 58 -0.144 -9.951 0.766 -1.617 0.061 1.465 371.308 2656.270 -2851.292 0.003 0.182 0.008 -0.02 -0.68 0.73 0.01
1 0.59 59 -0.072 -10.046 0.804 -0.916 -0.244 0.702 191.275 2926.244 -2956.374 -0.070 0.278 -0.031 -0.02 -0.68 0.73 0.01
1 0.60 60 -0.034 -9.855 0.757 -0.122 0.305 0.732 191.275 2926.244 -2956.374 -0.108 0.087 0.017 -0.02 -0.68 0.73 0.01
1 0.61 61 -0.249 -9.821 0.757 -0.122 -0.397 0.061 176.285 2821.312 -2806.322 0.108 0.053 0.017 -0.02 -0.68 0.73 0.01
1 0.62 62 -0.354 -9.764 0.814 -0.702 -0.336 0.824 131.165 2866.283 -2941.234 0.214 -0.004 -0.040 -0.02 -0.68 0.73 0.01
1 0.63 63 -0.220 -9.932 0.905 -0.885 -0.031 0.732 131.165 2866.283 -2941.234 0.078 0.163 -0.131 -0.02 -0.68 0.73 0.01
1 0.64 64 -0.254 -9.807 0.785 -1.282 -0.183 0.793 191.275 2776.341 -2821.312 0.112 0.039 -0.011 -0.02 -0.68 0.73 0.01
1 0.65 65 -0.091 -9.754 0.713 -1.221 -0.244 1.587 206.266 2746.361 -2866.283 -0.052 -0.014 0.062 -0.02 -0.68 0.73 0.01
1 0.66 66 -0.134 -9.917 0.852 -1.251 -0.854 0.885 191.275 2731.371 -2776.341 -0.009 0.149 -0.077 -0.02 -0.68 0.73 0.01
1 0.67 67 -0.043 -10.099 0.781 -0.885 -0.854 1.221 191.275 2731.371 -2776.341 -0.101 0.331 -0.005 -0.02 -0.68 0.73 0.01
1 0.68 68 -0.206 -9.903 0.804 -0.885 -0.305 1.099 161.295 2926.244 -2851.292 0.062 0.135 -0.029 -0.02 -0.68 0.73 0.01
1 0.69 69 -0.196 -9.879 0.967 -1.190 -1.068 1.007 41.223 2776.341 -2821.312 0.053 0.111 -0.192 -0.02 -0.68 0.73 0.01
1 0.70 70 -0.239 -9.864 0.800 -1.038 -0.732 1.343 41.223 2776.341 -2821.312 0.096 0.096 -0.024 -0.02 -0.68 0.73 0.01
1 0.71 71 -0.148 -9.783 0.838 -0.763 -0.854 1.465 116.174 2851.292 -2821.312 0.004 0.015 -0.062 -0.02 -0.68 0.73 0.01
1 0.72 72 -0.177 -9.783 0.900 -1.373 -0.549 2.106 356.168 2791.332 -2866.283 0.032 0.015 -0.124 -0.02 -0.68 0.73 0.01
1 0.73 73 -0.057 -9.845 0.704 -1.190 -0.122 1.617 56.213 2866.283 -2866.283 -0.088 0.077 0.073 -0.02 -0.68 0.73 0.01
1 0.74 74 -0.062 -9.769 0.666 -1.770 -0.183 1.373 56.213 2866.283 -2866.283 -0.084 0.001 0.110 -0.02 -0.68 0.73 0.01
1 0.75 75 -0.096 -9.831 0.685 -2.106 0.275 1.953 281.217 2866.283 -2866.283 -0.050 0.063 0.090 -0.02 -0.68 0.73 0.01
1 0.76 76 -0.077 -9.984 0.781 -1.801 -0.092 1.495 206.266 2911.253 -3016.335 -0.071 0.216 -0.007 -0.02 -0.68 0.73 0.01
1 0.77 77 -0.283 -9.994 0.709 -1.251 -0.305 1.038 206.266 2911.253 -3016.335 0.135 0.225 0.064 -0.02 -0.68 0.73 0.01
1 0.78 78 -0.129 -9.984 0.876 -0.763 -0.580 0.458 236.246 2926.244 -2746.361 -0.019 0.216 -0.104 -0.02 -0.68 0.73 0.01
1 0.79 79 -0.115 -9.984 0.742 -0.885 0.000 0.702 236.246 2926.244 -2746.361 -0.033 0.216 0.030 -0.02 -0.68 0.73 0.01
1 0.80 80 -0.254 -9.836 0.781 -0.610 -0.427 0.549 56.213 2866.283 -2836.302 0.105 0.067 -0.008 -0.02 -0.68 0.73 0.01
1 0.81 81 -0.268 -9.932 0.795 -0.946 -0.122 0.977 56.213 2866.283 -2836.302 0.119 0.163 -0.022 -0.02 -0.68 0.73 0.01
1 0.82 82 -0.153 -9.788 0.848 -0.763 -0.519 0.946 296.207 2806.322 -2821.312 0.004 0.019 -0.075 -0.02 -0.68 0.73 0.01
1 0.83 83 -0.187 -9.898 0.852 -1.038 -0.763 1.801 161.295 2776.341 -2926.244 0.037 0.130 -0.080 -0.02 -0.68 0.73 0.01
1 0.84 84 -0.283 -9.927 0.666 -1.465 -0.641 1.312 161.295 2776.341 -2926.244 0.133 0.158 0.107 -0.02 -0.68 0.73 0.01
1 0.85 85 -0.201 -9.927 0.704 -1.282 -0.885 1.038 41.223 2806.322 -2926.244 0.051 0.158 0.068 -0.02 -0.68 0.73 0.01
1 0.86 86 -0.302 -9.888 0.728 -0.977 -0.519 1.312 41.223 2806.322 -2926.244 0.151 0.120 0.044 -0.02 -0.68 0.73 0.01
1 0.87 87 -0.168 -9.965 0.895 -0.488 -0.610 1.312 131.165 2866.283 -2836.302 0.015 0.197 -0.124 -0.02 -0.68 0.73 0.01
1 0.88 88 -0.163 -9.908 0.785 -0.580 -0.946 1.465 131.165 2866.283 -2836.302 0.011 0.139 -0.014 -0.02 -0.68 0.73 0.01
1 0.89 89 -0.239 -9.860 0.757 -0.610 -1.129 1.434 266.227 2851.292 -2896.263 0.087 0.091 0.015 -0.02 -0.68 0.73 0.01
1 0.90 90 -0.067 -9.797 0.848 -0.671 -0.916 1.038 236.246 2881.273 -2926.244 -0.086 0.029 -0.076 -0.02 -0.68 0.73 0.01
1 0.91 91 -0.215 -9.673 0.781 -0.580 -1.526 1.129 236.246 2881.273 -2926.244 0.062 -0.095 -0.009 -0.02 -0.68 0.73 0.01
1 0.92 92 -0.211 -9.884 0.718 -1.251 -1.678 1.099 236.246 2956.374 -2956.374 0.057 0.115 0.054 -0.02 -0.68 0.73 0.01
1 0.93 93 -0.263 -9.797 0.776 -1.678 -1.343 0.946 236.246 2956.374 -2956.374 0.110 0.029 -0.004 -0.02 -0.68 0.73 0.01
1 0.94 94 -0.263 -9.898 0.757 -1.404 -2.136 0.793 206.266 2791.332 -2761.351 0.108 0.130 0.015 -0.02 -0.68 0.73 0.01
1 0.95 95 -0.043 -9.797 0.766 -1.312 -2.319 0.946 206.266 2791.332 -2761.351 -0.113 0.029 0.006 -0.02 -0.68 0.73 0.01
1 0.96 96 -0.206 -9.908 0.819 -1.831 -1.709 0.854 206.266 2911.253 -2911.253 0.050 0.139 -0.047 -0.02 -0.68 0.73 0.01
1 0.97 97 -0.187 -9.908 0.757 -1.373 -1.678 1.465 281.217 2821.312 -2866.283 0.030 0.139 0.016 -0.02 -0.68 0.73 0.01
1 0.98 98 -0.153 -9.874 0.824 -1.343 -1.495 1.282 281.217 2821.312 -2866.283 -0.003 0.106 -0.051 -0.02 -0.68 0.73 0.01
1 0.99 99 -0.048 -9.826 0.718 -1.556 -1.221 1.953 131.165 2986.354 -2761.351 -0.108 0.058 0.055 -0.02 -0.68 0.73 0.01
1 1.00 100 -0.230 -9.927 0.781 -1.678 -1.068 1.312 131.165 2986.354 -2761.351 0.074 0.159 -0.007 -0.02 -0.68 0.73 0.01
1 1.01 101 -0.105 -9.912 0.742 -1.678 -1.099 1.282 116.174 2806.322 -3001.345 -0.050 0.144 0.031 -0.02 -0.68 0.73 0.01
1 1.02 102 -0.259 -9.951 0.790 -1.526 -0.122 1.465 206.266 2911.253 -2941.234 0.103 0.182 -0.017 -0.02 -0.68 0.73 0.01
1 1.03 103 -0.220 -9.927 0.699 -0.671 0.031 0.977 191.275 2926.244 -2701.240 0.064 0.159 0.074 -0.02 -0.68 0.73 0.01
1 1.04 104 -0.125 -9.769 0.704 -0.732 0.305 0.549 191.275 2776.341 -2956.374 -0.032 0.000 0.069 -0.02 -0.68 0.73 0.01
1 1.05 105 -0.263 -9.821 0.694 -1.465 -0.214 0.580 191.275 2776.341 -2956.374 0.107 0.053 0.078 -0.02 -0.68 0.73 0.01
1 1.06 106 -0.225 -9.970 0.790 -1.099 -0.336 0.183 176.285 2821.312 -2731.371 0.068 0.202 -0.018 -0.02 -0.68 0.73 0.01
1 1.07 107 -0.263 -9.826 0.694 -0.732 -0.397 0.854 176.285 2821.312 -2731.371 0.106 0.058 0.077 -0.02 -0.68 0.73 0.01
1 1.08 108 -0.311 -9.879 0.666 -0.641 -0.580 0.885 176.285 2911.253 -2761.351 0.153 0.111 0.106 -0.02 -0.68 0.73 0.01
1 1.09 109 -0.225 -9.826 0.704 -0.397 -0.671 1.312 101.184 2941.384 -2836.302 0.066 0.058 0.067 -0.02 -0.68 0.73 0.01
1 1.10 110 -0.177 -9.826 0.800 -0.916 -0.916 1.617 116.174 2776.341 -2956.374 0.017 0.058 -0.029 -0.02 -0.68 0.73 0.01
1 1.11 111 -0.211 -9.817 0.733 -0.458 -0.641 1.099 101.184 2746.361 -2806.322 0.051 0.048 0.038 -0.02 -0.68 0.73 0.01
1 1.12 112 -0.196 -9.788 0.713 -0.427 -0.549 1.068 101.184 2746.361 -2806.322 0.036 0.019 0.057 -0.02 -0.68 0.73 0.01
1 1.13 113 -0.148 -9.817 0.718 -0.641 -0.610 1.129 191.275 2806.322 -2851.292 -0.012 0.048 0.052 -0.02 -0.68 0.73 0.01
1 1.14 114 -0.201 -9.855 0.661 -1.282 -0.427 1.007 191.275 2806.322 -2851.292 0.041 0.086 0.109 -0.02 -0.68 0.73 0.01
1 1.15 115 -0.163 -9.826 0.790 -1.160 -0.519 1.831 206.266 2791.332 -2911.253 0.002 0.058 -0.021 -0.02 -0.68 0.73 0.01
1 1.16 116 -0.201 -9.826 0.661 -0.824 -1.099 1.373 131.165 2671.260 -2836.302 0.040 0.058 0.108 -0.02 -0.68 0.73 0.01
1 1.17 117 -0.172 -9.874 0.804 -0.793 -0.763 0.916 101.184 2791.332 -2806.322 0.011 0.106 -0.036 -0.02 -0.68 0.73 0.01
1 1.18 118 -0.077 -9.726 0.766 -1.617 -1.007 1.373 176.285 2791.332 -2806.322 -0.084 -0.043 0.002 -0.02 -0.68 0.73 0.01
1 1.19 119 -0.163 -9.898 0.761 -1.648 -1.129 1.129 176.285 2791.332 -2806.322 0.002 0.129 0.007 -0.02 -0.68 0.73 0.01
1 1.20 120 -0.163 -9.831 0.713 -1.740 -0.824 1.221 281.217 2791.332 -2806.322 0.002 0.062 0.055 -0.02 -0.68 0.73 0.01
1 1.21 121 -0.211 -9.917 0.771 -1.038 -1.404 0.488 281.217 2791.332 -2806.322 0.050 0.149 -0.003 -0.02 -0.68 0.73 0.01
1 1.22 122 -0.172 -9.941 0.757 -0.793 -1.770 0.458 281.217 2866.283 -2866.283 0.011 0.173 0.011 -0.02 -0.68 0.73 0.01
1 1.23 123 -0.024 -9.960 0.804 -1.221 -1.984 -0.305 101.184 2911.253 -2866.283 -0.137 0.192 -0.037 -0.02 -0.68 0.73 0.01
1 1.24 124 -0.235 -9.864 0.843 -0.793 -0.793 0.366 206.266 2746.361 -2866.283 0.075 0.096 -0.076 -0.02 -0.68 0.73 0.01
1 1.25 125 -0.201 -9.893 0.766 -1.495 -1.617 1.038 251.236 2866.283 -2731.371 0.041 0.125 0.001 -0.02 -0.68 0.73 0.01
1 1.26 126 -0.014 -9.783 0.785 -0.946 -1.068 0.580 251.236 2866.283 -2731.371 -0.145 0.015 -0.017 -0.02 -0.68 0.73 0.01
1 1.27 127 -0.182 -9.922 0.761 -1.465 -1.312 0.641 131.165 2716.380 -2866.283 0.023 0.153 0.007 -0.02 -0.68 0.73 0.01
1 1.28 128 -0.187 -9.932 0.752 -1.617 -0.885 1.068 131.165 2716.380 -2866.283 0.028 0.163 0.016 -0.02 -0.68 0.73 0.01
1 1.29 129 -0.244 -9.903 0.857 -1.068 -1.129 1.404 176.285 2821.312 -2911.253 0.086 0.134 -0.089 -0.02 -0.68 0.73 0.01
1 1.30 130 -0.215 -9.955 0.843 -1.221 -1.282 1.526 281.217 2911.253 -2761.351 0.057 0.187 -0.075 -0.02 -0.68 0.73 0.01
1 1.31 131 -0.239 -9.989 0.776 -1.007 -1.068 1.007 191.275 2806.322 -2896.263 0.081 0.220 -0.007 -0.02 -0.68 0.73 0.01
1 1.32 132 -0.230 -10.051 0.713 -0.641 -1.404 0.488 251.236 2911.253 -2866.283 0.070 0.283 0.055 -0.02 -0.68 0.73 0.01
1 1.33 133 -0.187 -9.869 0.771 -0.275 -0.671 0.854 251.236 2911.253 -2866.283 0.027 0.101 -0.003 -0.02 -0.68 0.73 0.01
1 1.34 134 -0.148 -9.812 0.876 -0.977 -0.885 0.946 236.246 2806.322 -2776.341 -0.012 0.043 -0.108 -0.02 -0.68 0.73 0.01
1 1.35 135 -0.144 -9.884 0.828 -1.038 -0.244 0.793 236.246 2806.322 -2776.341 -0.017 0.115 -0.060 -0.02 -0.68 0.73 0.01
1 1.36 136 -0.144 -10.037 0.781 -0.580 -0.458 0.793 236.246 2851.292 -2776.341 -0.016 0.268 -0.012 -0.02 -0.68 0.73 0.01
1 1.37 137 -0.177 -9.903 0.948 -0.275 -0.549 1.129 101.184 2821.312 -2866.283 0.017 0.134 -0.179 -0.02 -0.68 0.73 0.01
1 1.38 138 -0.168 -9.826 0.872 -0.366 -0.183 1.251 56.213 2866.283 -2836.302 0.008 0.058 -0.101 -0.02 -0.68 0.73 0.01
1 1.39 139 -0.110 -9.850 0.776 -0.549 0.427 1.373 206.266 2911.253 -2986.354 -0.049 0.082 -0.004 -0.02 -0.68 0.73 0.01
1 1.40 140 -0.134 -9.864 0.833 -1.099 0.671 1.068 206.266 2911.253 -2986.354 -0.025 0.096 -0.061 -0.02 -0.68 0.73 0.01
1 1.41 141 -0.163 -9.869 0.790 -0.885 0.488 0.732 191.275 2806.322 -2926.244 0.003 0.101 -0.017 -0.02 -0.68 0.73 0.01
1 1.42 142 -0.374 -9.821 0.891 -0.946 0.519 1.587 191.275 2806.322 -2926.244 0.214 0.053 -0.118 -0.02 -0.68 0.73 0.01
1 1.43 143 -0.330 -9.917 0.713 -0.763 -0.366 0.946 131.165 2911.253 -2731.371 0.169 0.149 0.060 -0.02 -0.68 0.73 0.01
1 1.44 144 -0.311 -9.975 0.852 -0.702 -0.122 0.610 251.236 2791.332 -2866.283 0.150 0.207 -0.079 -0.02 -0.68 0.73 0.01
1 1.45 145 -0.311 -9.845 0.709 -1.129 -0.458 0.854 251.236 2791.332 -2866.283 0.149 0.077 0.065 -0.02 -0.68 0.73 0.01
1 1.46 146 -0.211 -9.999 0.757 -0.061 -0.885 0.153 101.184 2866.283 -2866.283 0.047 0.231 0.017 -0.02 -0.68 0.73 0.01
1 1.47 147 -0.249 -9.879 0.910 -0.061 -1.587 0.671 101.184 2866.283 -2866.283 0.085 0.111 -0.137 -0.02 -0.68 0.73 0.01
1 1.48 148 -0.153 -9.812 0.757 -0.641 -1.892 0.183 131.165 2791.332 -2866.283 -0.011 0.044 0.017 -0.02 -0.68 0.73 0.01
1 1.49 149 -0.364 -9.750 0.848 0.183 -1.892 1.099 131.165 2791.332 -2866.283 0.199 -0.018 -0.074 -0.02 -0.68 0.73 0.01
1 1.50 150 -0.091 -9.821 0.675 -0.824 -1.495 0.793 161.295 2851.292 -2896.263 -0.074 0.054 0.101 -0.02 -0.68 0.73 0.01
1 1.51 151 -0.148 -9.826 0.781 -0.824 -1.007 1.526 251.236 2791.332 -2806.322 -0.016 0.058 -0.004 -0.02 -0.68 0.73 0.01
1 1.52 152 -0.187 -9.788 0.771 -0.793 -0.854 1.892 251.236 2791.332 -2806.322 0.023 0.020 0.005 -0.02 -0.68 0.73 0.01
1 1.53 153 -0.168 -9.845 0.785 -1.343 -0.885 1.373 251.236 2941.384 -2911.253 0.003 0.078 -0.009 -0.02 -0.68 0.73 0.01
1 1.54 154 -0.110 -9.750 0.862 -1.709 -0.336 1.556 251.236 2941.384 -2911.253 -0.055 -0.018 -0.085 -0.02 -0.68 0.73 0.01
1 1.55 155 -0.249 -9.951 0.718 -1.221 -0.641 1.129 101.184 2866.283 -2761.351 0.085 0.183 0.058 -0.02 -0.68 0.73 0.01
1 1.56 156 -0.244 -10.003 0.781 -1.404 -0.885 0.275 101.184 2866.283 -2761.351 0.080 0.236 -0.004 -0.02 -0.68 0.73 0.01
1 1.57 157 -0.283 -9.946 0.742 -0.793 -1.221 0.061 326.188 2791.332 -2866.283 0.119 0.178 0.033 -0.02 -0.68 0.73 0.01
1 1.58 158 -0.292 -9.932 0.862 -1.190 -1.465 -0.244 161.295 2581.318 -2896.263 0.129 0.164 -0.086 -0.02 -0.68 0.73 0.01
1 1.59 159 -0.249 -9.855 0.819 -0.732 -1.587 -0.031 161.295 2581.318 -2896.263 0.087 0.087 -0.043 -0.02 -0.68 0.73 0.01
1 1.60 160 -0.225 -9.908 0.905 -0.702 -1.953 0.427 296.207 2806.322 -2926.244 0.065 0.140 -0.128 -0.02 -0.68 0.73 0.01
1 1.61 161 -0.196 -9.754 0.876 -0.946 -1.526 1.678 296.207 2806.322 -2926.244 0.037 -0.013 -0.099 -0.02 -0.68 0.73 0.01
1 1.62 162 -0.153 -9.821 0.824 -1.282 -1.495 1.617 191.275 2806.322 -2746.361 -0.007 0.054 -0.045 -0.02 -0.68 0.73 0.01
1 1.63 163 -0.244 -9.936 0.675 -1.068 -1.343 2.228 191.275 2806.322 -2746.361 0.084 0.169 0.104 -0.02 -0.68 0.73 0.01
1 1.64 164 -0.350 -10.037 0.824 -0.427 -1.556 1.495 296.207 2776.341 -2851.292 0.189 0.269 -0.045 -0.02 -0.68 0.73 0.01
1 1.65 165 -0.230 -10.109 0.675 -0.122 -1.526 1.251 236.246 2776.341 -3001.345 0.069 0.341 0.103 -0.02 -0.68 0.73 0.01
1 1.66 166 -0.302 -9.941 0.790 0.488 -2.350 0.397 236.246 2776.341 -3001.345 0.141 0.173 -0.012 -0.02 -0.68 0.73 0.01
1 1.67 167 -0.321 -9.821 0.785 0.366 -1.862 -0.610 236.246 2926.244 -2746.361 0.160 0.054 -0.006 -0.02 -0.68 0.73 0.01
1 1.68 168 -0.302 -9.912 0.709 0.366 -1.953 -1.007 236.246 2881.273 -2896.263 0.145 0.145 0.075 -0.02 -0.68 0.73 0.01
1 1.69 169 -0.287 -10.022 0.785 0.031 -1.953 -1.587 176.285 2716.380 -2806.322 0.133 0.255 0.001 -0.02 -0.68 0.73 0.01
1 1.70 170 -0.369 -9.850 0.838 0.549 -2.380 -0.824 176.285 2716.380 -2806.322 0.218 0.083 -0.051 -0.02 -0.68 0.73 0.01
1 1.71 171 -0.105 -9.826 0.905 0.397 -3.662 -1.068 131.165 2911.253 -2836.302 -0.044 0.059 -0.116 -0.02 -0.68 0.73 0.01
1 1.72 172 -0.187 -9.716 0.776 0.549 -3.998 -0.366 236.246 2806.322 -2956.374 0.041 -0.051 0.017 -0.02 -0.68 0.73 0.01
1 1.73 173 -0.163 -9.754 0.819 0.183 -3.876 0.275 236.246 2806.322 -2956.374 0.019 -0.012 -0.024 -0.02 -0.68 0.74 0.01
1 1.74 174 -0.235 -9.735 0.862 0.244 -3.693 0.366 86.194 2926.244 -2851.292 0.093 -0.031 -0.066 -0.02 -0.68 0.74 0.01
1 1.75 175 -0.101 -9.869 0.910 0.305 -3.082 1.556 206.266 2821.312 -2941.234 -0.039 0.103 -0.110 -0.02 -0.68 0.74 0.01
1 1.76 176 -0.225 -9.740 0.795 0.000 -3.021 1.923 191.275 2731.371 -2821.312 0.086 -0.026 0.007 -0.02 -0.68 0.74 0.01
1 1.77 177 -0.201 -9.750 0.694 -0.458 -2.411 1.740 191.275 2731.371 -2821.312 0.061 -0.016 0.110 -0.02 -0.68 0.74 0.01
1 1.78 178 -0.225 -9.864 0.728 -0.427 -2.411 1.343 131.165 2641.279 -2836.302 0.084 0.099 0.077 -0.02 -0.68 0.74 0.01
1 1.79 179 -0.115 -9.850 0.718 -0.641 -2.106 1.526 131.165 2791.332 -2941.234 -0.026 0.084 0.086 -0.02 -0.68 0.74 0.01
1 1.80 180 0.024 -9.836 0.742 -0.183 -2.075 0.916 131.165 2791.332 -2941.234 -0.165 0.070 0.062 -0.02 -0.68 0.74 0.01
1 1.81 181 -0.072 -9.927 0.584 -0.824 -1.801 0.488 191.275 2806.322 -2851.292 -0.068 0.161 0.220 -0.02 -0.68 0.74 0.01
1 1.82 182 0.029 -9.960 0.757 -0.549 -0.977 0.854 41.223 2731.371 -2851.292 -0.168 0.194 0.045 -0.02 -0.68 0.74 0.01
1 1.83 183 0.048 -9.903 0.733 0.702 -0.183 1.221 56.213 2986.354 -2911.253 -0.186 0.137 0.069 -0.02 -0.68 0.74 0.01
1 1.84 184 -0.096 -9.917 0.709 0.885 -0.427 0.580 56.213 2986.354 -2911.253 -0.041 0.151 0.095 -0.02 -0.68 0.74 0.01
1 1.85 185 -0.306 -9.960 0.737 0.641 -1.007 0.244 191.275 2806.322 -2896.263 0.171 0.194 0.067 -0.02 -0.68 0.74 0.01
1 1.86 186 -0.364 -9.927 0.833 1.343 -1.404 0.275 86.194 2731.371 -2851.292 0.229 0.161 -0.026 -0.02 -0.68 0.74 0.01
1 1.87 187 -0.283 -9.836 0.761 0.885 -1.923 -0.275 86.194 2731.371 -2851.292 0.148 0.070 0.049 -0.02 -0.68 0.74 0.01
1 1.88 188 -0.187 -9.773 0.852 0.824 -1.892 -0.458 116.174 2776.341 -2926.244 0.053 0.008 -0.039 -0.02 -0.68 0.74 0.01
1 1.89 189 -0.196 -9.663 0.814 0.641 -2.167 0.580 236.246 2776.341 -2956.374 0.064 -0.102 0.002 -0.02 -0.68 0.74 0.01
1 1.90 190 -0.244 -9.711 0.680 0.549 -1.831 1.312 266.227 2806.322 -3031.325 0.113 -0.053 0.142 -0.02 -0.68 0.74 0.01
1 1.91 191 -0.139 -9.721 0.824 0.153 -2.014 1.282 266.227 2806.322 -3031.325 0.007 -0.044 -0.000 -0.02 -0.68 0.74 0.01
1 1.92 192 -0.134 -9.606 0.761 -0.336 -1.678 1.617 356.168 2866.283 -2911.253 0.002 -0.158 0.063 -0.02 -0.68 0.74 0.01
1 1.93 193 -0.283 -9.788 0.910 -0.549 -1.526 1.007 206.266 2911.253 -2986.354 0.150 0.023 -0.086 -0.02 -0.68 0.74 0.01
1 1.94 194 -0.182 -9.903 0.747 -1.099 -1.740 0.580 206.266 2911.253 -2986.354 0.048 0.138 0.077 -0.02 -0.68 0.74 0.01
1 1.95 195 -0.278 -9.716 0.666 -0.885 -1.465 -0.214 26.233 2791.332 -2941.234 0.144 -0.048 0.158 -0.02 -0.68 0.74 0.01
1 1.96 196 -0.522 -9.922 0.747 -1.068 -1.923 -1.068 206.266 2911.253 -3016.335 0.389 0.158 0.077 -0.02 -0.68 0.74 0.01
1 1.97 197 -0.397 -9.869 0.757 -1.190 -3.082 -0.702 131.165 2866.283 -2836.302 0.266 0.105 0.065 -0.02 -0.68 0.74 0.01
1 1.98 198 -0.211 -9.927 0.781 -2.167 -3.693 0.366 131.165 2866.283 -2836.302 0.080 0.162 0.040 -0.02 -0.68 0.74 0.01
1 1.99 199 -0.306 -10.018 0.694 -1.282 -4.456 0.305 161.295 2806.322 -2896.263 0.177 0.253 0.124 -0.02 -0.68 0.74 0.01
1 2.00 200 -0.292 -9.960 0.824 -0.244 -4.517 0.610 26.233 2866.283 -3016.335 0.163 0.195 -0.006 -0.02 -0.68 0.74 0.01
1 2.01 201 -0.498 -9.932 0.771 0.214 -4.944 1.801 26.233 2866.283 -3016.335 0.369 0.167 0.048 -0.02 -0.68 0.74 0.01
1 2.02 202 -0.340 -9.807 0.828 0.519 -4.761 2.747 236.246 2926.244 -2851.292 0.208 0.042 -0.008 -0.02 -0.68 0.74 0.01
1 2.03 203 -0.172 -9.845 0.872 1.129 -4.059 3.418 161.295 2806.322 -2926.244 0.036 0.081 -0.049 -0.02 -0.68 0.74 0.01
1 2.04 204 0.081 -9.730 0.939 1.129 -2.838 3.204 101.184 2791.332 -2836.302 -0.224 -0.033 -0.109 -0.02 -0.68 0.74 0.01
1 2.05 205 0.077 -9.821 0.915 0.305 -2.167 3.448 101.184 2791.332 -2836.302 -0.220 0.058 -0.081 -0.02 -0.68 0.74 0.01
1 2.06 206 0.034 -10.075 0.939 0.885 -1.495 1.953 101.184 2791.332 -2911.253 -0.177 0.312 -0.103 -0.02 -0.68 0.74 0.01
1 2.07 207 0.048 -9.946 0.824 1.221 -1.129 1.465 101.184 2821.312 -2911.253 -0.191 0.183 0.016 -0.02 -0.68 0.74 0.01
1 2.08 208 -0.029 -9.917 0.680 2.502 -0.763 0.122 101.184 2821.312 -2911.253 -0.112 0.154 0.163 -0.02 -0.68 0.74 0.01
1 2.09 209 -0.268 -9.908 0.704 1.617 -0.488 -1.160 116.174 2656.270 -2896.263 0.130 0.145 0.144 -0.02 -0.68 0.74 0.01
1 2.10 210 -0.345 -9.975 0.704 1.495 -0.885 -1.007 131.165 2791.332 -2911.253 0.210 0.213 0.147 -0.02 -0.68 0.74 0.01
1 2.11 211 -0.412 -9.898 0.737 1.740 -0.854 -1.099 131.165 2791.332 -2911.253 0.280 0.136 0.116 -0.02 -0.68 0.74 0.01
1 2.12 212 -0.469 -9.946 0.833 2.350 -1.587 -0.488 161.295 2776.341 -2926.244 0.340 0.184 0.026 -0.02 -0.68 0.74 0.01
1 2.13 213 -0.522 -9.869 0.704 2.502 -2.136 0.122 206.266 2941.384 -2866.283 0.393 0.108 0.160 -0.02 -0.67 0.74 0.01
1 2.14 214 -0.551 -9.826 0.795 2.106 -2.289 0.366 131.165 2746.361 -2941.234 0.421 0.066 0.073 -0.02 -0.67 0.74 0.01
1 2.15 215 -0.354 -9.807 0.843 2.045 -2.594 1.373 131.165 2746.361 -2941.234 0.222 0.047 0.029 -0.02 -0.67 0.74 0.01
1 2.16 216 -0.192 -9.879 0.963 1.709 -2.686 2.045 116.174 2701.390 -2851.292 0.058 0.119 -0.086 -0.02 -0.67 0.74 0.01
1 2.17 217 -0.235 -9.702 0.761 1.221 -2.197 1.190 41.223 2851.292 -2701.240 0.099 -0.058 0.118 -0.02 -0.67 0.74 0.01
1 2.18 218 -0.172 -9.615 0.728 1.007 -3.113 0.824 41.223 2851.292 -2701.240 0.037 -0.144 0.156 -0.02 -0.67 0.74 0.01
1 2.19 219 -0.158 -9.673 0.781 -0.427 -3.082 0.946 206.266 2821.312 -2761.351 0.025 -0.086 0.108 -0.02 -0.67 0.74 0.01
1 2.20 220 -0.306 -9.730 0.747 -0.183 -2.258 1.495 116.174 2806.322 -2851.292 0.174 -0.028 0.142 -0.02 -0.67 0.74 0.01
1 2.21 221 -0.330 -9.783 0.680 -0.641 -2.441 1.709 131.165 2746.361 -2836.302 0.197 0.024 0.209 -0.02 -0.67 0.74 0.01
1 2.22 222 -0.335 -9.898 0.709 -0.580 -2.014 2.502 131.165 2746.361 -2836.302 0.200 0.139 0.179 -0.02 -0.67 0.74 0.01
1 2.23 223 -0.196 -9.965 0.699 -0.549 -2.319 2.289 41.223 2851.292 -2926.244 0.058 0.206 0.188 -0.02 -0.67 0.74 0.01
1 2.24 224 -0.096 -9.946 0.804 -0.366 -1.984 2.411 206.266 2671.260 -2911.253 -0.044 0.187 0.082 -0.02 -0.67 0.74 0.01
1 2.25 225 -0.125 -9.975 0.776 -0.031 -1.556 1.465 206.266 2671.260 -2911.253 -0.017 0.216 0.111 -0.02 -0.67 0.74 0.01
1 2.26 226 -0.158 -10.008 0.790 1.099 -1.038 1.160 206.266 2866.283 -2866.283 0.016 0.249 0.098 -0.02 -0.67 0.74 0.01
1 2.27 227 -0.125 -9.869 0.785 0.336 -1.099 1.404 131.165 2716.380 -2911.253 -0.018 0.111 0.104 -0.02 -0.67 0.74 0.01
1 2.28 228 -0.115 -9.960 0.934 1.038 -1.343 1.312 176.285 2821.312 -2836.302 -0.028 0.202 -0.043 -0.02 -0.67 0.74 0.01
1 2.29 229 -0.144 -9.960 1.034 1.068 -0.610 1.648 176.285 2821.312 -2836.302 0.001 0.202 -0.141 -0.02 -0.67 0.74 0.01
1 2.30 230 -0.192 -9.955 0.996 1.282 -0.549 2.014 56.213 2716.380 -2986.354 0.048 0.198 -0.099 -0.02 -0.67 0.74 0.01
1 2.31 231 -0.091 -9.936 0.986 2.350 -0.061 2.380 26.233 2821.312 -2986.354 -0.054 0.179 -0.085 -0.02 -0.67 0.74 0.01
1 2.32 232 -0.077 -9.797 1.039 1.740 -0.061 2.319 26.233 2821.312 -2986.354 -0.070 0.041 -0.132 -0.02 -0.67 0.74 0.01
1 2.33 233 -0.120 -9.644 0.943 2.197 -1.007 2.258 161.295 2731.371 -2821.312 -0.028 -0.112 -0.032 -0.02 -0.67 0.74 0.01
1 2.34 234 -0.081 -9.711 0.795 1.373 -0.366 1.282 206.266 2791.332 -3016.335 -0.068 -0.044 0.125 -0.02 -0.67 0.74 0.01
1 2.35 235 -0.148 -9.673 1.034 1.312 -0.977 1.740 116.174 2806.322 -2821.312 -0.001 -0.082 -0.110 -0.02 -0.67 0.74 0.01
1 2.36 236 -0.287 -9.783 0.800 0.488 -1.465 2.106 116.174 2806.322 -2821.312 0.138 0.028 0.128 -0.02 -0.67 0.74 0.01
1 2.37 237 -0.215 -9.821 1.006 1.160 -0.824 2.167 251.236 2746.361 -3016.335 0.064 0.067 -0.076 -0.02 -0.67 0.74 0.01
1 2.38 238 -0.215 -9.864 0.862 0.519 -1.312 3.021 86.194 2851.292 -3001.345 0.062 0.110 0.071 -0.02 -0.67 0.74 0.01
1 2.39 239 -0.115 -9.793 1.173 1.434 -0.610 4.334 86.194 2851.292 -3001.345 -0.041 0.039 -0.237 -0.02 -0.67 0.74 0.01
1 2.40 240 -0.120 -9.855 0.982 0.854 0.031 4.639 191.275 2806.322 -2926.244 -0.041 0.101 -0.043 -0.02 -0.67 0.74 0.01
1 2.41 241 -0.034 -9.702 0.991 0.671 0.793 5.035 206.266 2746.361 -2941.234 -0.136 -0.051 -0.044 -0.02 -0.67 0.74 0.01
1 2.42 242 -0.187 -9.721 1.077 0.885 0.916 4.822 101.184 2641.279 -2806.322 0.013 -0.031 -0.127 -0.02 -0.67 0.74 0.01
1 2.43 243 -0.163 -9.572 0.929 0.336 0.488 4.242 101.184 2641.279 -2806.322 -0.016 -0.179 0.025 -0.02 -0.67 0.74 0.01
1 2.44 244 -0.077 -9.534 0.948 -0.641 0.641 4.425 206.266 2746.361 -2911.253 -0.106 -0.217 0.008 -0.02 -0.67 0.74 0.01
1 2.45 245 -0.115 -9.769 1.049 -1.862 0.000 3.357 101.184 2716.380 -2866.283 -0.072 0.017 -0.093 -0.02 -0.67 0.74 0.01
1 2.46 246 -0.393 -9.989 0.977 -2.289 -0.153 2.533 101.184 2716.380 -2866.283 0.204 0.237 -0.022 -0.02 -0.67 0.74 0.01
1 2.47 247 -0.326 -10.118 0.905 -1.343 -1.007 1.129 86.194 2701.390 -2956.374 0.134 0.366 0.047 -0.02 -0.67 0.74 0.01
1 2.48 248 -0.158 -10.109 0.977 -1.190 -1.221 -0.153 161.295 2806.322 -2926.244 -0.035 0.357 -0.025 -0.02 -0.67 0.74 0.01
1 2.49 249 -0.144 -10.118 0.929 -0.244 -1.373 -0.946 191.275 2851.292 -2926.244 -0.047 0.366 0.022 -0.02 -0.67 0.74 0.01
1 2.50 250 -0.230 -10.224 0.996 1.160 -2.411 -2.655 191.275 2851.292 -2926.244 0.044 0.472 -0.043 -0.02 -0.67 0.74 0.01
1 2.51 251 -0.278 -10.133 1.010 2.411 -3.815 -3.754 86.194 2731.371 -2956.374 0.098 0.381 -0.054 -0.02 -0.67 0.74 0.01
1 2.52 252 -0.292 -9.946 1.044 2.899 -5.035 -4.944 176.285 2716.380 -3016.335 0.120 0.195 -0.082 -0.02 -0.67 0.74 0.01
1 2.53 253 -0.326 -10.195 1.164 4.700 -9.033 -5.219 176.285 2716.380 -3016.335 0.163 0.444 -0.194 -0.02 -0.67 0.74 0.01
1 2.54 254 -0.412 -10.209 1.202 5.646 -10.590 -4.883 116.174 2656.270 -2926.244 0.258 0.460 -0.223 -0.02 -0.67 0.74 0.01
1 2.55 255 -0.134 -10.157 1.130 7.172 -11.902 -3.845 116.174 2656.270 -2926.244 -0.010 0.408 -0.140 -0.02 -0.67 0.74 0.01
1 2.56 256 0.168 -9.922 0.986 7.294 -11.993 -3.998 41.223 2731.371 -2956.374 -0.294 0.176 0.029 -0.02 -0.67 0.74 0.01
1 2.57 257 0.378 -9.697 0.910 7.141 -12.512 -2.655 41.223 2731.371 -2956.374 -0.494 -0.048 0.118 -0.01 -0.67 0.74 0.01
1 2.58 258 0.704 -9.716 0.776 6.470 -11.841 -2.502 11.243 2776.341 -2896.263 -0.809 -0.028 0.264 -0.01 -0.67 0.74 0.01
1 2.59 259 0.479 -9.654 0.608 5.798 -11.932 -2.441 176.285 2716.380 -2941.234 -0.571 -0.089 0.441 -0.01 -0.67 0.74 0.01
1 2.60 260 0.599 -9.826 0.460 6.073 -11.169 -1.465 176.285 2716.380 -2941.234 -0.679 0.084 0.597 -0.01 -0.67 0.74 0.01
1 2.61 261 0.833 -9.912 0.287 5.432 -9.491 -1.923 206.266 2746.361 -3091.286 -0.902 0.170 0.776 -0.01 -0.67 0.74 0.01
1 2.62 262 0.814 -9.893 0.421 4.883 -7.996 -1.343 206.266 2746.361 -3091.286 -0.872 0.152 0.647 -0.01 -0.67 0.74 0.01
1 2.63 263 0.632 -9.903 0.402 5.219 -5.371 -2.075 161.295 2656.270 -2926.244 -0.666 0.162 0.674 -0.01 -0.67 0.74 0.01
1 2.64 264 0.632 -9.879 0.378 4.639 -3.967 -2.838 161.295 2656.270 -2926.244 -0.655 0.139 0.701 -0.01 -0.67 0.75 0.01
1 2.65 265 0.445 -9.975 0.359 4.486 -3.418 -4.608 -63.559 2701.390 -3076.296 -0.457 0.235 0.723 -0.01 -0.67 0.75 0.01
1 2.66 266 0.330 -9.936 0.283 4.791 -3.387 -6.226 41.223 2611.299 -2896.263 -0.328 0.197 0.802 -0.01 -0.67 0.75 0.01
1 2.67 267 -0.053 -9.936 0.225 4.303 -4.272 -7.782 41.223 2611.299 -2896.263 0.069 0.197 0.862 -0.01 -0.67 0.75 0.01
1 2.68 268 -0.053 -10.022 0.321 5.096 -5.615 -9.399 101.184 2716.380 -2986.354 0.084 0.283 0.768 -0 -0.67 0.75 0.01
1 2.69 269 -0.235 -9.989 0.292 5.310 -7.050 -9.369 101.184 2716.380 -2986.354 0.281 0.250 0.799 -0 -0.67 0.75 0.01
1 2.70 270 0.139 -9.946 0.268 5.463 -7.263 -7.965 26.233 2866.283 -2986.354 -0.062 0.208 0.828 -0 -0.67 0.75 0.01
1 2.71 271 0.048 -9.893 0.283 6.165 -6.866 -6.836 26.233 2866.283 -2986.354 0.043 0.155 0.817 -0 -0.67 0.75 0.01
1 2.72 272 0.144 -9.778 0.345 5.981 -6.287 -6.287 -123.669 2671.260 -2911.253 -0.040 0.041 0.758 -0 -0.67 0.75 0.01
1 2.73 273 0.235 -9.659 0.412 5.768 -4.944 -5.096 11.243 2701.390 -2956.374 -0.119 -0.078 0.695 -0 -0.67 0.75 0.01
1 2.74 274 0.206 -9.390 0.484 4.852 -4.242 -4.272 11.243 2701.390 -2956.374 -0.080 -0.346 0.628 0 -0.67 0.75 0.01
1 2.75 275 0.374 -9.745 0.417 3.937 -2.594 -2.289 -33.578 2731.371 -2956.374 -0.238 0.009 0.698 0 -0.67 0.75 0.01
1 2.76 276 0.517 -9.855 0.268 4.150 -0.763 -2.563 -33.578 2731.371 -2956.374 -0.373 0.120 0.848 0 -0.67 0.75 0.01
1 2.77 277 0.464 -9.821 0.259 4.395 0.305 -1.984 41.223 2701.390 -3076.296 -0.311 0.087 0.860 0 -0.67 0.75 0.01
1 2.78 278 0.421 -9.884 0.330 5.890 2.258 -1.251 -3.598 2596.309 -2911.253 -0.255 0.150 0.792 0 -0.67 0.75 0.01
1 2.79 279 0.211 -9.970 0.383 6.622 3.967 -1.160 -33.578 2701.390 -3001.345 -0.040 0.236 0.745 0 -0.67 0.75 0.01
1 2.80 280 0.311 -9.797 0.455 6.775 4.395 -0.641 -138.660 2701.390 -3106.276 -0.137 0.065 0.679 0 -0.66 0.75 0.01
1 2.81 281 0.431 -9.726 0.469 7.446 5.096 -0.488 -138.660 2701.390 -3106.276 -0.254 -0.006 0.671 0 -0.66 0.75 0.01
1 2.82 282 0.330 -9.783 0.498 7.690 6.561 -0.214 41.223 2806.322 -3031.325 -0.150 0.052 0.650 0 -0.66 0.75 0.01
1 2.83 283 0.407 -9.773 0.536 7.904 7.172 0.000 41.223 2806.322 -3031.325 -0.224 0.044 0.620 0 -0.66 0.75 0.01
1 2.84 284 0.350 -9.845 0.565 8.179 8.087 -0.122 41.223 2776.341 -3001.345 -0.165 0.116 0.599 0 -0.66 0.75 0.01
1 2.85 285 0.455 -9.898 0.532 8.911 6.775 -0.519 -63.559 2701.390 -2956.374 -0.267 0.171 0.651 0 -0.66 0.75 0.01
1 2.86 286 0.393 -9.879 0.364 9.674 8.789 -0.977 -48.568 2596.309 -2941.234 -0.202 0.154 0.829 -0 -0.66 0.75 0.01
1 2.87 287 0.330 -9.855 0.345 9.979 9.399 -1.007 161.295 2536.348 -3151.247 -0.137 0.131 0.858 -0 -0.66 0.75 0.02
1 2.88 288 0.488 -9.582 0.283 9.491 10.559 -1.373 161.295 2536.348 -3151.247 -0.292 -0.141 0.931 -0 -0.66 0.75 0.02
1 2.89 289 0.445 -9.501 0.177 8.362 11.566 -1.312 -3.598 2671.260 -3016.335 -0.245 -0.221 1.045 -0 -0.66 0.75 0.02
1 2.90 290 0.541 -9.558 -0.038 6.378 11.810 -2.441 -3.598 2671.260 -3016.335 -0.336 -0.163 1.266 -0 -0.66 0.75 0.02
1 2.91 291 0.632 -9.659 -0.086 5.432 11.597 -3.021 -48.568 2596.309 -3016.335 -0.422 -0.062 1.316 -0 -0.66 0.75 0.02
1 2.92 292 0.713 -9.726 -0.029 5.280 12.604 -3.876 26.233 2566.328 -3016.335 -0.488 0.006 1.260 -0 -0.66 0.75 0.02
1 2.93 293 0.666 -9.764 0.081 6.439 13.367 -3.876 56.213 2716.380 -3046.315 -0.432 0.044 1.151 -0 -0.66 0.75 0.02
1 2.94 294 0.570 -9.793 -0.034 6.378 14.130 -3.815 11.243 2776.341 -3001.345 -0.328 0.074 1.268 -0 -0.66 0.75 0.02
1 2.95 295 0.426 -9.773 -0.105 7.263 14.343 -4.547 11.243 2776.341 -3001.345 -0.177 0.055 1.343 -0 -0.66 0.75 0.02
1 2.96 296 0.493 -9.702 0.038 7.813 15.106 -4.517 41.223 2776.341 -3106.276 -0.238 -0.016 1.203 -0 -0.66 0.75 0.03
1 2.97 297 0.546 -9.692 0.120 7.721 15.381 -4.517 41.223 2776.341 -3106.276 -0.283 -0.025 1.127 -0.01 -0.66 0.75 0.03
1 2.98 298 0.546 -9.855 -0.010 8.362 16.113 -5.127 161.295 2536.348 -3151.247 -0.276 0.139 1.260 -0.01 -0.66 0.75 0.03
1 2.99 299 0.330 -9.750 -0.158 8.362 16.144 -5.066 116.174 2581.318 -3076.296 -0.052 0.034 1.414 -0.01 -0.66 0.75 0.03
1 3.00 300 0.283 -9.611 -0.292 8.179 15.045 -6.012 101.184 2521.357 -3121.267 0.011 -0.103 1.557 -0.01 -0.66 0.75 0.03
1 3.01 301 0.340 -9.726 -0.311 7.233 14.038 -5.554 26.233 2671.260 -3121.267 -0.039 0.013 1.579 -0.01 -0.66 0.75 0.03
1 3.02 302 0.350 -9.706 -0.297 7.507 13.489 -5.310 26.233 2671.260 -3121.267 -0.041 -0.006 1.566 -0.01 -0.66 0.75 0.03
1 3.03 303 0.369 -9.654 0.148 7.965 12.360 -6.195 56.213 2596.309 -3046.315 -0.051 -0.058 1.122 -0.01 -0.66 0.75 0.04
1 3.04 304 -0.211 -10.214 1.250 6.836 5.035 -9.186 56.213 2596.309 -3046.315 0.538 0.503 0.025 -0.01 -0.66 0.75 0.04
1 3.05 305 -0.421 -11.138 1.700 7.416 -1.068 -13.641 56.213 2446.256 -3196.368 0.760 1.428 -0.417 -0.01 -0.66 0.75 0.04
1 3.06 306 -0.254 -11.608 2.241 12.116 -4.913 -17.212 101.184 2596.309 -3046.315 0.611 1.900 -0.947 -0.01 -0.66 0.75 0.04
1 3.07 307 0.397 -11.373 2.016 16.754 -4.211 -22.217 41.223 2581.318 -3151.247 0.020 1.673 -0.681 -0.01 -0.66 0.75 0.04
1 3.08 308 0.996 -10.506 1.705 18.829 2.777 -21.607 41.223 2581.318 -3031.325 -0.544 0.812 -0.342 -0 -0.66 0.75 0.04
1 3.09 309 1.116 -9.462 1.154 17.487 13.275 -20.355 41.223 2581.318 -3031.325 -0.629 -0.226 0.240 -0 -0.65 0.75 0.04
1 3.10 310 1.068 -9.204 0.939 8.789 19.379 -17.487 -48.568 2716.380 -3046.315 -0.549 -0.479 0.481 -0 -0.65 0.76 0.04
1 3.11 311 1.346 -9.860 0.474 -0.031 22.278 -14.374 -48.568 2716.380 -3046.315 -0.801 0.180 0.955 -0 -0.65 0.76 0.05
1 3.12 312 1.370 -10.913 0.958 -0.366 17.700 -8.759 -123.669 2566.328 -3016.335 -0.803 1.234 0.468 -0 -0.65 0.76 0.05
1 3.13 313 1.446 -11.967 1.422 -1.190 10.101 -11.169 -3.598 2566.328 -3091.286 -0.865 2.288 0.003 -0 -0.65 0.76 0.05
1 3.14 314 0.685 -13.461 1.810 6.073 2.106 -19.165 -33.578 2461.247 -3076.296 -0.064 3.785 -0.380 -0 -0.65 0.76 0.05
1 3.15 315 0.144 -13.020 1.872 14.954 0.031 -16.693 11.243 2386.295 -3106.276 0.507 3.349 -0.428 -0 -0.65 0.76 0.05
1 3.16 316 -0.364 -11.847 1.848 16.480 0.488 -12.329 11.243 2386.295 -3106.276 1.040 2.181 -0.379 -0 -0.65 0.76 0.06
1 3.17 317 -0.110 -10.908 2.069 11.139 0.336 -6.714 11.243 2461.247 -3181.377 0.803 1.248 -0.575 -0 -0.65 0.76 0.06
1 3.18 318 0.761 -10.841 2.212 4.517 -0.702 -2.258 11.243 2461.247 -3181.377 -0.058 1.184 -0.703 -0 -0.65 0.76 0.06
1 3.19 319 0.891 -10.770 2.188 4.791 2.686 2.502 116.174 2431.266 -3211.358 -0.184 1.113 -0.672 -0 -0.65 0.76 0.06
1 3.20 320 0.881 -10.252 2.040 6.042 3.754 6.744 -138.660 2461.247 -3076.296 -0.176 0.597 -0.516 -0 -0.65 0.76 0.06
1 3.21 321 0.848 -9.860 2.342 2.441 5.890 10.132 -138.660 2461.247 -3076.296 -0.150 0.206 -0.807 -0 -0.65 0.76 0.06
1 3.22 322 0.718 -9.615 2.241 -3.235 7.996 12.909 -48.568 2491.377 -3016.335 -0.049 -0.038 -0.689 -0 -0.65 0.76 0.06
1 3.23 323 0.560 -9.635 2.136 -4.791 11.017 13.702 -48.568 2491.377 -3016.335 0.089 -0.020 -0.581 -0 -0.65 0.76 0.06
1 3.24 324 0.201 -9.472 2.198 -5.920 15.381 13.763 -33.578 2506.367 -3181.377 0.426 -0.184 -0.644 -0.01 -0.65 0.76 0.06
1 3.25 325 -0.172 -9.295 2.088 -8.118 17.151 13.855 -33.578 2506.367 -3181.377 0.775 -0.363 -0.535 -0.01 -0.65 0.76 0.06
1 3.26 326 -0.517 -9.089 2.179 -8.942 17.426 13.794 56.213 2371.305 -3121.267 1.092 -0.571 -0.631 -0.01 -0.65 0.76 0.06
1 3.27 327 -0.627 -8.988 2.083 -10.376 15.747 11.963 116.174 2461.247 -3151.247 1.171 -0.674 -0.541 -0.01 -0.65 0.76 0.06
1 3.28 328 -0.656 -8.888 2.026 -9.949 12.909 9.186 116.174 2461.247 -3151.247 1.172 -0.778 -0.490 -0.01 -0.65 0.76 0.06
1 3.29 329 -0.646 -8.768 2.366 -9.369 8.148 6.805 11.243 2461.247 -3181.377 1.118 -0.902 -0.844 -0.02 -0.65 0.76 0.05
1 3.30 330 -0.474 -8.720 2.447 -10.986 4.272 5.859 11.243 2461.247 -3181.377 0.928 -0.951 -0.931 -0.02 -0.65 0.76 0.05
1 3.31 331 -0.402 -8.959 2.461 -12.360 1.617 5.432 -48.568 2566.328 -3091.286 0.841 -0.714 -0.953 -0.02 -0.65 0.76 0.05
1 3.32 332 -0.192 -9.285 2.169 -13.458 -1.099 7.996 -48.568 2566.328 -3091.286 0.616 -0.390 -0.670 -0.02 -0.65 0.76 0.05
1 3.33 333 -0.364 -9.366 2.054 -12.543 -3.510 11.108 101.184 2566.328 -3046.315 0.773 -0.312 -0.568 -0.02 -0.65 0.76 0.05
1 3.34 334 -0.814 -9.352 2.002 -12.146 -7.111 16.846 -33.578 2461.247 -3106.276 1.202 -0.329 -0.527 -0.02 -0.65 0.76 0.05
1 3.35 335 -0.872 -9.247 2.006 -12.970 -8.942 19.836 -33.578 2461.247 -3106.276 1.231 -0.437 -0.544 -0.02 -0.65 0.76 0.05
1 3.36 336 -0.704 -9.189 1.959 -14.069 -11.749 21.179 101.184 2521.357 -3091.286 0.994 -0.501 -0.523 -0.02 -0.65 0.76 0.05
1 3.37 337 -0.613 -9.132 1.987 -14.740 -11.871 22.614 101.184 2521.357 -3091.286 0.867 -0.561 -0.568 -0.02 -0.65 0.76 0.04
1 3.38 338 -0.417 -9.089 1.853 -15.533 -12.085 23.102 161.295 2611.299 -3031.325 0.634 -0.608 -0.449 -0.02 -0.65 0.75 0.04
1 3.39 339 -0.120 -8.945 1.882 -15.289 -12.024 22.400 161.295 2611.299 -3031.325 0.302 -0.755 -0.496 -0.02 -0.65 0.75 0.04
1 3.40 340 -0.177 -9.007 1.753 -16.754 -12.238 21.240 11.243 2611.299 -3001.345 0.328 -0.695 -0.384 -0.02 -0.66 0.75 0.04
1 3.41 341 -0.125 -9.031 1.686 -16.846 -12.848 20.020 116.174 2581.318 -3031.325 0.245 -0.675 -0.337 -0.02 -0.66 0.75 0.04
1 3.42 342 -0.105 -9.003 1.628 -15.778 -13.275 18.921 116.174 2581.318 -3031.325 0.198 -0.707 -0.300 -0.02 -0.66 0.75 0.03
1 3.43 343 -0.302 -8.921 1.551 -16.663 -14.252 17.761 41.223 2536.348 -3031.325 0.369 -0.791 -0.243 -0.02 -0.66 0.75 0.03
1 3.44 344 -0.254 -8.979 1.666 -16.266 -13.763 16.907 101.184 2596.309 -3121.267 0.273 -0.739 -0.398 -0.02 -0.66 0.75 0.03
1 3.45 345 -0.153 -9.012 1.566 -14.740 -12.695 14.465 206.266 2446.256 -3091.286 0.151 -0.708 -0.316 -0.02 -0.66 0.75 0.03
1 3.46 346 -0.206 -9.046 1.475 -13.947 -12.146 12.665 206.266 2446.256 -3091.286 0.185 -0.676 -0.242 -0.02 -0.66 0.75 0.03
1 3.47 347 -0.110 -9.122 1.571 -13.641 -10.712 10.345 101.184 2566.328 -2866.283 0.073 -0.602 -0.354 -0.02 -0.66 0.75 0.02
1 3.48 348 -0.330 -9.165 1.427 -13.306 -11.292 6.561 26.233 2566.328 -2911.253 0.282 -0.561 -0.226 -0.02 -0.66 0.75 0.02
1 3.49 349 -0.421 -9.323 1.427 -12.604 -11.231 4.334 26.233 2566.328 -2911.253 0.364 -0.405 -0.242 -0.02 -0.66 0.75 0.02
1 3.50 350 -0.570 -9.357 1.374 -11.963 -11.475 3.510 161.295 2581.318 -3031.325 0.506 -0.373 -0.204 -0.02 -0.66 0.75 0.02
1 3.51 351 -0.618 -9.505 1.417 -10.040 -11.780 3.387 161.295 2506.367 -2926.244 0.545 -0.227 -0.274 -0.02 -0.66 0.75 0.02
1 3.52 352 -0.690 -9.596 1.451 -9.094 -11.719 2.716 26.233 2596.309 -3046.315 0.613 -0.138 -0.318 -0.02 -0.66 0.75 0.02
1 3.53 353 -0.646 -9.730 1.341 -8.514 -11.871 3.601 26.233 2596.309 -3046.315 0.564 -0.005 -0.217 -0.02 -0.66 0.75 0.02
1 3.54 354 -0.651 -9.769 1.461 -8.484 -12.787 3.571 -48.568 2641.279 -2836.302 0.563 0.033 -0.346 -0.02 -0.67 0.75 0.02
1 3.55 355 -0.685 -9.735 1.393 -7.416 -12.238 3.906 101.184 2521.357 -2941.234 0.591 -0.002 -0.287 -0.02 -0.67 0.75 0.01
1 3.56 356 -0.670 -9.726 1.197 -5.890 -11.902 4.028 101.184 2521.357 -2941.234 0.570 -0.012 -0.097 -0.02 -0.67 0.75 0.01
1 3.57 357 -0.757 -9.735 1.188 -5.676 -12.329 4.486 86.194 2581.318 -2956.374 0.651 -0.003 -0.095 -0.02 -0.67 0.75 0.01
1 3.58 358 -0.986 -9.754 0.986 -4.456 -14.313 5.890 -63.559 2506.367 -2956.374 0.865 0.015 0.095 -0.02 -0.67 0.75 0.01
1 3.59 359 -1.053 -9.615 0.943 -3.784 -16.693 5.646 176.285 2596.309 -2986.354 0.921 -0.124 0.132 -0.02 -0.67 0.74 0.01
1 3.60 360 -0.881 -9.510 0.939 -3.418 -17.212 5.524 176.285 2596.309 -2986.354 0.738 -0.230 0.133 -0.02 -0.67 0.74 0.01
1 3.61 361 -0.685 -9.319 0.824 -3.723 -18.311 5.493 86.194 2581.318 -2851.292 0.532 -0.422 0.244 -0.02 -0.67 0.74 0.01
1 3.62 362 -0.613 -9.232 0.718 -4.150 -18.585 4.578 86.194 2611.299 -2776.341 0.452 -0.509 0.344 -0.02 -0.67 0.74 0.01
1 3.63 363 -0.302 -9.314 0.656 -5.035 -19.165 3.937 86.194 2611.299 -2776.341 0.135 -0.428 0.400 -0.02 -0.67 0.74 0
1 3.64 364 -0.254 -9.319 0.374 -5.615 -18.921 2.441 56.213 2596.309 -2866.283 0.084 -0.424 0.674 -0.01 -0.67 0.74 0
1 3.65 365 -0.230 -9.242 0.388 -6.409 -19.287 1.343 -3.598 2521.357 -2836.302 0.059 -0.501 0.650 -0.01 -0.67 0.74 0
1 3.66 366 -0.249 -9.295 0.172 -5.859 -20.477 -2.563 -48.568 2596.309 -2986.354 0.084 -0.451 0.842 0.01 0.67 -0.74 0
1 3.67 367 -0.263 -9.357 0.134 -6.592 -21.179 -4.272 -48.568 2596.309 -2986.354 0.107 -0.391 0.868 0.01 0.67 -0.74 0
1 3.68 368 -0.335 -9.362 0.091 -6.805 -20.996 -4.272 26.233 2641.279 -2911.253 0.189 -0.387 0.897 0.01 0.67 -0.74 0
1 3.69 369 -0.230 -9.366 0.062 -6.317 -21.759 -4.974 41.223 2536.348 -3001.345 0.094 -0.384 0.911 0.01 0.67 -0.74 0
1 3.70 370 -0.278 -9.228 0.120 -6.073 -22.217 -6.226 41.223 2536.348 -3001.345 0.153 -0.524 0.840 0.01 0.67 -0.74 0
1 3.71 371 -0.484 -9.534 0.086 -6.042 -22.400 -7.080 -108.679 2731.371 -2851.292 0.371 -0.219 0.860 0 0.67 -0.74 0
1 3.72 372 -0.479 -9.572 -0.029 -5.524 -22.919 -7.721 26.233 2596.309 -2806.322 0.379 -0.183 0.962 0 0.67 -0.74 0.01
1 3.73 373 -0.776 -9.706 0.067 -3.693 -24.262 -6.561 -138.660 2611.299 -2851.292 0.700 -0.051 0.841 -0 0.67 -0.74 0.01
1 3.74 374 -0.747 -9.711 0.158 -2.594 -24.933 -6.683 -138.660 2611.299 -2851.292 0.682 -0.047 0.740 -0 0.67 -0.74 0.01
1 3.75 375 -0.733 -9.759 0.378 -2.075 -26.550 -5.157 -63.559 2656.270 -2821.312 0.677 -0.000 0.513 -0 0.67 -0.74 0.01
1 3.76 376 -0.565 -9.759 0.306 -0.793 -27.405 -4.425 -78.549 2671.260 -2806.322 0.517 -0.001 0.578 -0.01 0.67 -0.74 0.01
1 3.77 377 -0.254 -9.625 0.546 0.061 -27.832 -4.547 -78.549 2671.260 -2806.322 0.215 -0.135 0.335 -0.01 0.67 -0.74 0.01
1 3.78 378 -0.144 -9.788 0.584 0.854 -26.520 -4.913 -138.660 2536.348 -2851.292 0.114 0.028 0.296 -0.01 0.67 -0.74 0.01
1 3.79 379 0.105 -9.817 0.579 2.411 -25.513 -4.639 -243.591 2731.371 -2896.263 -0.124 0.056 0.301 -0.01 0.67 -0.74 0.01
1 3.80 380 0.201 -9.668 0.388 1.099 -25.055 -5.737 -228.601 2671.260 -2806.322 -0.194 -0.092 0.496 -0.02 0.67 -0.74 0.02
1 3.81 381 0.048 -9.644 0.153 1.190 -25.543 -6.622 -228.601 2671.260 -2806.322 -0.027 -0.116 0.731 -0.02 0.67 -0.74 0.02
1 3.82 382 0.019 -9.592 0.043 0.366 -25.269 -7.324 -213.611 2581.318 -2821.312 0.018 -0.169 0.839 -0.02 0.67 -0.74 0.02
1 3.83 383 -0.450 -9.764 -0.263 -0.610 -25.971 -5.951 -288.562 2611.299 -2851.292 0.503 0.003 1.141 -0.02 0.67 -0.74 0.02
1 3.84 384 -0.599 -9.946 -0.474 -1.404 -28.107 -4.242 -288.562 2611.299 -2851.292 0.662 0.185 1.344 -0.02 0.67 -0.74 0.02
1 3.85 385 -0.910 -10.535 -0.694 0.488 -29.144 -2.289 -273.572 2641.279 -2686.250 0.981 0.773 1.553 -0.02 0.67 -0.74 0.02
1 3.86 386 -0.991 -10.650 -0.929 2.563 -29.572 -0.885 -303.552 2671.260 -2866.283 1.067 0.887 1.778 -0.03 0.68 -0.74 0.02
1 3.87 387 -1.001 -10.602 -0.761 5.249 -29.358 1.465 -303.552 2671.260 -2866.283 1.076 0.838 1.602 -0.03 0.68 -0.74 0.02
1 3.88 388 -0.704 -11.066 0.824 7.904 -26.428 3.845 -408.484 2597.058 -2806.622 0.771 1.303 0.016 -0.03 0.68 -0.74 0.03
1 3.89 389 0.316 -12.264 2.806 4.242 -20.233 8.209 -213.611 2582.068 -2956.674 -0.250 2.501 -1.954 -0.03 0.67 -0.74 0.03
1 3.90 390 1.781 -14.907 2.514 -5.188 -3.784 24.384 -378.503 2491.977 -2731.670 -1.729 5.144 -1.658 -0.03 0.67 -0.74 0.03
1 3.91 391 2.246 -15.869 1.959 12.238 9.674 41.657 -378.503 2491.977 -2731.670 -2.235 6.107 -1.106 -0.03 0.67 -0.74 0.03
1 3.92 392 1.901 -10.937 1.896 40.466 19.348 40.741 -408.484 2491.977 -2866.732 -1.955 1.177 -1.013 -0.03 0.67 -0.74 0.04
1 3.93 393 1.566 -9.275 1.805 27.802 18.341 35.584 -348.523 2522.107 -2761.651 -1.685 -0.478 -0.863 -0.03 0.67 -0.74 0.04
1 3.94 394 0.996 -10.176 2.978 4.425 16.357 33.478 -348.523 2522.107 -2761.651 -1.163 0.428 -1.984 -0.02 0.67 -0.74 0.04
1 3.95 395 -0.283 -13.983 2.050 -4.181 18.982 26.398 -348.523 2642.029 -2761.651 0.035 4.239 -1.031 -0.02 0.67 -0.74 0.04
1 3.96 396 -0.843 -13.724 1.130 17.426 17.548 25.574 -303.552 2567.078 -2866.732 0.555 3.982 -0.110 -0.02 0.67 -0.74 0.04
1 3.97 397 -1.575 -11.071 0.627 31.372 14.038 23.590 -213.611 2537.097 -2821.762 1.249 1.333 0.426 -0.01 0.67 -0.74 0.04
1 3.98 398 -1.858 -9.055 0.541 24.201 6.470 18.829 -213.611 2537.097 -2821.762 1.498 -0.676 0.560 -0.01 0.67 -0.74 0.04
1 3.99 399 -2.342 -9.003 0.752 9.308 3.906 13.947 -318.542 2507.117 -2776.641 1.945 -0.724 0.376 -0.01 0.67 -0.75 0.04
1 4.00 400 -3.362 -10.401 0.915 3.571 4.944 6.683 -153.500 2597.058 -2941.684 2.934 0.676 0.222 -0.01 0.66 -0.75 0.04
1 4.01 401 -2.145 -10.204 1.207 8.179 2.625 5.920 -153.500 2597.058 -2941.684 1.687 0.482 -0.066 -0.01 0.66 -0.75 0.04
1 4.02 402 0.101 -8.686 1.714 13.886 5.402 5.096 -168.490 2432.016 -2956.674 -0.583 -1.031 -0.544 -0.01 0.66 -0.75 0.05
1 4.03 403 0.943 -7.652 1.781 14.008 6.866 1.465 -153.500 2672.009 -2941.684 -1.430 -2.062 -0.585 -0.01 0.66 -0.75 0.05
1 4.04 404 1.250 -7.063 2.030 8.972 5.859 0.153 -63.559 2357.064 -2896.713 -1.737 -2.649 -0.813 -0.01 0.66 -0.75 0.04
1 4.05 405 0.986 -6.809 2.160 1.465 3.357 -0.763 -63.559 2357.064 -2896.713 -1.473 -2.901 -0.931 -0.01 0.66 -0.75 0.04
1 4.06 406 0.536 -6.905 2.083 -6.134 -0.946 -0.427 -303.552 2522.107 -2806.622 -1.020 -2.805 -0.854 -0.01 0.66 -0.75 0.04
1 4.07 407 -0.235 -7.705 1.978 -15.808 -5.127 1.556 -168.490 2612.048 -2821.762 -0.247 -2.007 -0.758 -0.01 0.66 -0.75 0.04
1 4.08 408 -0.555 -8.117 2.011 -19.989 -5.890 4.822 -168.490 2612.048 -2821.762 0.074 -1.598 -0.811 -0.01 0.66 -0.75 0.04
1 4.09 409 -1.121 -8.854 2.078 -22.064 -6.317 6.805 -63.559 2537.097 -2926.693 0.635 -0.863 -0.905 -0.01 0.66 -0.75 0.05
1 4.10 410 -1.686 -9.869 2.198 -23.071 -4.272 6.714 -78.549 2522.107 -2836.752 1.179 0.147 -1.075 -0.01 0.67 -0.75 0.05
1 4.11 411 -1.786 -10.444 2.050 -21.851 -2.838 4.913 -78.549 2491.977 -2761.651 1.264 0.720 -0.951 -0.01 0.67 -0.74 0.05
1 4.12 412 -1.235 -10.798 2.169 -18.707 -0.214 0.458 -78.549 2491.977 -2761.651 0.704 1.072 -1.096 -0.01 0.67 -0.74 0.05
1 4.13 413 -0.455 -10.559 2.251 -14.191 1.862 -3.326 -108.529 2507.117 -2821.762 -0.073 0.829 -1.203 -0.01 0.67 -0.74 0.05
1 4.14 414 0.488 -10.018 2.394 -12.726 5.463 -8.179 -153.500 2522.107 -2761.651 -1.009 0.286 -1.365 -0.01 0.67 -0.74 0.05
1 4.15 415 0.991 -9.831 2.399 -13.153 7.629 -10.590 -153.500 2522.107 -2761.651 -1.495 0.097 -1.378 -0.01 0.67 -0.74 0.05
1 4.16 416 0.728 -9.965 2.284 -12.329 9.369 -13.397 -198.621 2491.977 -2941.684 -1.208 0.229 -1.271 -0.01 0.67 -0.74 0.05
1 4.17 417 0.627 -9.807 2.169 -8.057 9.613 -18.158 -78.549 2402.035 -2866.732 -1.043 0.067 -1.169 -0.01 0.67 -0.74 0.04
1 4.18 418 0.407 -9.505 2.069 -6.683 9.216 -19.684 -48.568 2447.006 -2686.700 -0.786 -0.236 -1.069 -0.01 0.67 -0.74 0.04
1 4.19 419 0.340 -9.414 1.853 -4.700 8.667 -20.508 -48.568 2447.006 -2686.700 -0.683 -0.329 -0.854 -0.01 0.67 -0.74 0.04
1 4.20 420 0.354 -9.376 1.848 -5.402 8.148 -20.722 -228.601 2402.035 -2806.622 -0.662 -0.368 -0.849 -0.01 0.67 -0.74 0.04
1 4.21 421 0.407 -9.453 1.743 -5.005 7.996 -20.294 -138.510 2612.048 -2671.709 -0.678 -0.292 -0.743 -0.01 0.67 -0.74 0.03
1 4.22 422 0.259 -9.376 1.714 -3.113 8.362 -18.189 -138.510 2612.048 -2671.709 -0.495 -0.370 -0.715 -0.01 0.67 -0.74 0.03
1 4.23 423 0.326 -9.352 1.753 -1.831 8.270 -17.822 -153.500 2567.078 -2836.752 -0.531 -0.394 -0.751 -0.01 0.67 -0.74 0.03
1 4.24 424 0.503 -9.357 1.844 -0.488 7.263 -16.571 -213.611 2461.996 -2851.742 -0.647 -0.390 -0.832 -0.02 0.67 -0.74 0.03
1 4.25 425 0.623 -9.247 1.930 -0.366 7.721 -16.205 -228.601 2642.029 -2761.651 -0.737 -0.499 -0.911 -0.02 0.67 -0.74 0.03
1 4.26 426 0.723 -9.165 1.796 0.183 8.148 -16.113 -228.601 2642.029 -2761.651 -0.808 -0.580 -0.770 -0.02 0.67 -0.74 0.03
1 4.27 427 0.972 -9.170 1.772 -0.549 8.606 -16.357 -213.611 2582.068 -2701.690 -1.027 -0.575 -0.739 -0.02 0.67 -0.74 0.02
1 4.28 428 0.934 -9.151 1.733 -0.336 8.911 -15.228 -198.621 2447.006 -2656.719 -0.957 -0.594 -0.694 -0.02 0.67 -0.74 0.02
1 4.29 429 0.781 -9.290 1.542 1.068 9.522 -15.533 -198.621 2447.006 -2656.719 -0.773 -0.454 -0.495 -0.02 0.67 -0.74 0.02
1 4.30 430 0.546 -9.232 1.532 0.946 9.186 -15.472 -288.562 2537.097 -2776.641 -0.509 -0.511 -0.478 -0.02 0.67 -0.74 0.02
1 4.31 431 0.340 -9.304 1.374 1.129 8.637 -15.778 -288.562 2537.097 -2776.641 -0.275 -0.438 -0.312 -0.02 0.67 -0.74 0.02
1 4.32 432 0.259 -9.558 1.068 0.244 5.768 -16.480 -213.611 2657.019 -2701.690 -0.141 -0.182 0.006 -0.02 0.67 -0.74 0.01
1 4.33 433 0.594 -9.946 1.082 1.556 6.805 -17.181 -213.611 2657.019 -2701.690 -0.449 0.206 -0.005 -0.02 0.67 -0.74 0.01
1 4.34 434 0.613 -10.109 0.924 3.906 7.843 -17.212 -303.552 2522.107 -2731.670 -0.438 0.370 0.158 -0.02 0.67 -0.75 0.01
1 4.35 435 0.546 -10.109 0.824 6.439 8.637 -16.998 -303.552 2447.006 -2836.752 -0.342 0.372 0.266 -0.02 0.67 -0.75 0.01
1 4.36 436 0.445 -9.932 0.627 9.033 8.942 -15.747 -303.552 2447.006 -2836.752 -0.213 0.196 0.472 -0.02 0.67 -0.75 0.01
1 4.37 437 0.330 -9.802 0.474 9.125 9.583 -14.710 -198.621 2522.107 -2731.670 -0.072 0.069 0.637 -0.02 0.67 -0.75 0.01
1 4.38 438 0.254 -9.682 0.532 9.705 9.888 -14.893 -198.621 2522.107 -2731.670 0.028 -0.049 0.591 -0.02 0.66 -0.75 0.01
1 4.39 439 0.579 -9.534 0.469 11.475 12.116 -13.763 -348.523 2567.078 -2836.752 -0.254 -0.193 0.678 -0.03 0.66 -0.75 0
1 4.40 440 0.503 -9.323 0.464 12.177 13.702 -13.062 -348.523 2567.078 -2836.752 -0.156 -0.401 0.698 -0.03 0.66 -0.75 0
1 4.41 441 0.680 -9.314 0.532 11.627 14.313 -12.573 -393.494 2582.068 -2701.690 -0.314 -0.408 0.646 -0.03 0.66 -0.75 0
1 4.42 442 0.728 -9.213 0.646 12.604 15.595 -10.864 -288.562 2461.996 -2746.661 -0.343 -0.506 0.548 0.03 -0.66 0.75 0
1 4.43 443 0.670 -9.113 0.565 12.482 16.876 -10.376 -288.562 2461.996 -2746.661 -0.268 -0.604 0.646 0.03 -0.66 0.75 0
1 4.44 444 0.694 -8.998 0.417 12.329 19.623 -9.277 -213.611 2387.045 -2776.641 -0.275 -0.716 0.812 0.03 -0.66 0.75 0
1 4.45 445 0.685 -8.835 0.383 11.963 19.836 -7.477 -213.611 2387.045 -2776.641 -0.251 -0.876 0.863 0.02 -0.66 0.75 0.01
1 4.46 446 0.565 -8.710 0.086 10.986 22.492 -4.639 -273.572 2522.107 -2761.651 -0.111 -0.996 1.188 0.02 -0.66 0.75 0.01
1 4.47 447 0.536 -8.916 -0.077 10.071 23.407 -3.387 -273.572 2522.107 -2761.651 -0.079 -0.787 1.371 0.02 -0.66 0.75 0.01
1 4.48 448 0.570 -8.959 -0.144 8.362 23.773 -1.312 -348.523 2327.084 -2836.752 -0.111 -0.742 1.450 0.02 -0.66 0.75 0.01
1 4.49 449 0.560 -9.319 -0.125 7.843 23.285 -1.251 -288.562 2387.045 -2851.742 -0.101 -0.382 1.437 0.02 -0.66 0.75 0.01
1 4.50 450 0.508 -9.716 -0.038 8.453 22.400 -0.854 -288.562 2387.045 -2851.742 -0.049 0.016 1.355 0.02 -0.66 0.75 0.01
1 4.51 451 0.589 -9.893 -0.010 11.963 20.905 -1.617 -243.591 2461.996 -2776.641 -0.131 0.194 1.333 0.02 -0.66 0.75 0.01
1 4.52 452 0.536 -9.745 0.163 12.268 18.982 -3.571 -243.591 2461.996 -2776.641 -0.077 0.047 1.171 0.02 -0.66 0.75 0.02
1 4.53 453 0.239 -9.529 0.196 11.688 20.722 -3.693 -363.513 2461.996 -2851.742 0.222 -0.167 1.149 0.02 -0.66 0.75 0.02
1 4.54 454 -0.244 -9.362 0.125 10.162 16.998 -6.195 -288.562 2507.117 -2851.742 0.711 -0.331 1.243 0.02 -0.66 0.75 0.02
1 4.55 455 -0.287 -9.491 0.306 9.491 16.174 -8.026 -303.552 2327.084 -2806.622 0.758 -0.200 1.070 0.01 -0.66 0.75 0.02
1 4.56 456 -0.512 -9.941 0.350 8.087 16.846 -10.132 -318.542 2537.097 -2776.641 0.989 0.251 1.035 0.01 -0.66 0.76 0.02
1 4.57 457 -0.450 -9.936 0.201 9.949 18.951 -10.712 -318.542 2537.097 -2776.641 0.933 0.248 1.191 0.01 -0.65 0.76 0.02
1 4.58 458 -0.297 -9.663 -0.105 9.430 25.635 -7.813 -198.621 2402.035 -2866.732 0.785 -0.024 1.507 0.01 -0.65 0.76 0.02
1 4.59 459 0.072 -9.678 -0.474 7.050 30.487 -4.883 -198.621 2402.035 -2866.732 0.419 -0.008 1.883 0.01 -0.65 0.76 0.02
1 4.60 460 0.986 -9.927 -0.963 3.143 39.337 -0.519 -198.621 2567.078 -2911.703 -0.503 0.241 2.372 0.01 -0.65 0.76 0.03
1 4.61 461 1.293 -10.171 -0.819 3.418 42.206 -0.244 -198.621 2567.078 -2911.703 -0.814 0.483 2.220 0.01 -0.65 0.76 0.03
1 4.62 462 -1.461 -12.982 6.302 6.653 11.719 -9.583 -228.601 2491.977 -2806.622 1.942 3.295 -4.900 0 -0.65 0.76 0.03
1 4.63 463 -0.603 -19.552 2.696 -3.815 2.960 -48.340 -153.500 2402.035 -2836.752 1.114 9.867 -1.288 0.01 -0.65 0.76 0.03
1 4.64 464 -0.426 -16.645 4.065 46.600 6.165 -57.862 -153.500 2402.035 -2836.752 1.016 6.966 -2.646 0.01 -0.65 0.76 0.04
1 4.65 465 -1.987 -9.927 3.807 52.582 9.094 -45.563 -213.611 2282.113 -2821.762 2.658 0.265 -2.307 0.01 -0.65 0.76 0.04
1 4.66 466 -1.614 -10.406 1.944 -9.552 10.803 -41.046 -213.611 2282.113 -2821.762 2.352 0.760 -0.377 0.01 -0.65 0.76 0.04
1 4.67 467 1.063 -12.771 1.772 -17.822 11.383 -20.569 -303.552 2372.055 -2866.732 -0.287 3.131 -0.190 0.01 -0.65 0.76 0.05
1 4.68 468 1.403 -14.284 1.686 -2.991 12.604 -14.099 -168.490 2312.094 -2926.693 -0.578 4.642 -0.140 0.01 -0.65 0.76 0.05
1 4.69 469 1.959 -12.991 1.585 10.010 8.240 -6.378 -288.562 2357.064 -2821.762 -1.117 3.351 -0.037 0.01 -0.65 0.76 0.05
1 4.70 470 1.968 -10.602 1.891 14.954 7.507 -3.021 -228.601 2327.084 -2911.703 -1.119 0.966 -0.322 0.01 -0.65 0.76 0.05
1 4.71 471 1.542 -10.377 2.811 0.214 5.096 -3.845 -228.601 2327.084 -2911.703 -0.689 0.744 -1.221 0.01 -0.65 0.76 0.05
1 4.72 472 1.729 -11.612 2.835 -6.683 -2.106 -8.209 -393.494 2387.045 -2821.762 -0.864 1.981 -1.245 0.01 -0.65 0.76 0.05
1 4.73 473 2.495 -11.004 2.615 6.836 -0.336 -7.050 -393.494 2387.045 -2821.762 -1.615 1.373 -1.029 0.02 -0.65 0.76 0.05
1 4.74 474 1.159 -9.563 2.586 5.615 4.578 -4.150 -363.513 2236.993 -2851.742 -0.265 -0.065 -0.991 0.02 -0.65 0.76 0.05
1 4.75 475 0.532 -8.160 2.332 -0.214 -1.801 0.214 -408.484 2327.084 -2911.703 0.377 -1.462 -0.708 0.02 -0.65 0.76 0.05
1 4.76 476 0.819 -7.896 2.615 -7.355 -4.852 5.981 -243.591 2236.993 -2821.762 0.090 -1.726 -0.992 0.02 -0.65 0.76 0.05
1 4.77 477 1.441 -8.265 2.313 -12.512 -5.371 10.529 -303.552 2327.084 -2836.752 -0.540 -1.360 -0.703 0.02 -0.65 0.76 0.05
1 4.78 478 1.719 -8.591 2.088 -14.862 -5.981 12.573 -303.552 2327.084 -2836.752 -0.831 -1.039 -0.498 0.02 -0.65 0.76 0.05
1 4.79 479 1.824 -8.720 2.093 -13.153 -6.958 11.963 -228.601 2372.055 -2866.732 -0.945 -0.912 -0.517 0.02 -0.65 0.76 0.05
1 4.80 480 1.575 -8.457 2.035 -13.153 -8.698 13.062 -228.601 2372.055 -2866.732 -0.702 -1.179 -0.473 0.02 -0.65 0.76 0.05
1 4.81 481 1.537 -8.763 2.102 -17.304 -10.712 12.604 -153.500 2327.084 -2866.732 -0.671 -0.875 -0.553 0.02 -0.65 0.76 0.05
1 4.82 482 1.245 -9.074 2.294 -20.325 -11.200 10.681 -378.503 2372.055 -2866.732 -0.388 -0.567 -0.763 0.02 -0.65 0.76 0.05
1 4.83 483 0.646 -9.510 2.217 -19.806 -9.766 10.010 -198.621 2372.055 -2836.752 0.195 -0.140 -0.733 0.02 -0.65 0.76 0.04
1 4.84 484 0.283 -9.678 2.337 -19.226 -8.392 11.871 -363.513 2461.996 -2851.742 0.548 0.023 -0.875 0.02 -0.65 0.76 0.04
1 4.85 485 -0.091 -9.668 2.322 -18.219 -8.942 11.810 -363.513 2461.996 -2851.742 0.903 0.009 -0.881 0.02 -0.65 0.76 0.04
1 4.86 486 -0.268 -9.343 2.342 -17.578 -9.155 12.207 -198.621 2372.055 -2761.651 1.060 -0.321 -0.919 0.02 -0.65 0.76 0.04
1 4.87 487 -0.393 -9.127 2.222 -17.273 -9.613 12.787 -198.621 2372.055 -2761.651 1.163 -0.541 -0.818 0.02 -0.65 0.76 0.04
1 4.88 488 -0.378 -8.931 2.078 -17.883 -13.702 14.465 -378.503 2402.035 -2806.622 1.125 -0.742 -0.693 0.02 -0.66 0.75 0.04
1 4.89 489 -0.192 -8.902 2.198 -18.219 -16.388 14.404 -303.552 2491.977 -2866.732 0.913 -0.776 -0.832 0.02 -0.66 0.75 0.04
1 4.90 490 0.239 -9.055 2.179 -18.036 -19.684 17.059 -378.503 2402.035 -2731.670 0.435 -0.631 -0.855 0.02 -0.66 0.75 0.03
1 4.91 491 0.469 -9.137 2.107 -16.113 -22.339 18.585 -273.572 2402.035 -2761.651 0.182 -0.554 -0.803 0.02 -0.66 0.75 0.03
1 4.92 492 0.354 -8.959 2.150 -13.641 -24.017 19.470 -273.572 2402.035 -2761.651 0.274 -0.735 -0.863 0.02 -0.66 0.75 0.03
1 4.93 493 0.220 -8.720 2.241 -12.787 -25.971 20.111 -378.503 2491.977 -2761.651 0.384 -0.978 -0.968 0.02 -0.66 0.75 0.02
1 4.94 494 0.010 -8.643 2.169 -12.878 -27.161 19.989 -378.503 2491.977 -2761.651 0.570 -1.058 -0.908 0.02 -0.66 0.75 0.02
1 4.95 495 -0.158 -8.418 2.222 -12.604 -27.710 19.562 -228.601 2522.107 -2761.651 0.711 -1.286 -0.973 0.02 -0.66 0.75 0.02
1 4.96 496 -0.177 -8.241 2.164 -11.963 -28.504 19.440 -228.601 2447.006 -2761.651 0.708 -1.467 -0.935 0.02 -0.66 0.75 0.02
1 4.97 497 -0.168 -8.428 2.198 -12.146 -27.435 18.402 -228.601 2402.035 -2686.700 0.655 -1.287 -1.006 0.02 -0.66 0.75 0.01
1 4.98 498 -0.129 -8.500 2.026 -11.292 -27.039 18.127 -243.591 2701.990 -2566.628 0.596 -1.218 -0.852 0.02 -0.66 0.75 0.01
1 4.99 499 0.010 -8.844 2.011 -9.705 -25.482 16.419 -243.591 2701.990 -2566.628 0.438 -0.876 -0.853 0.02 -0.66 0.75 0.01
1 5.00 500 0.096 -9.089 1.757 -8.484 -23.834 14.343 -303.552 2567.078 -2686.700 0.331 -0.634 -0.606 0.02 -0.66 0.75 0.01
1 5.01 501 0.316 -8.888 1.810 -5.798 -22.705 12.177 -303.552 2567.078 -2686.700 0.094 -0.837 -0.664 0.03 -0.66 0.75 0
1 5.02 502 0.484 -8.979 1.470 -4.242 -19.623 10.132 -363.513 2461.996 -2701.690 -0.087 -0.746 -0.326 0.03 -0.66 0.75 0
1 5.03 503 0.551 -9.156 1.259 -2.991 -18.982 9.003 -288.562 2537.097 -2596.758 -0.163 -0.570 -0.118 -0.03 0.66 -0.75 0
1 5.04 504 0.330 -9.280 0.910 -1.068 -17.548 7.141 -318.542 2582.068 -2671.709 0.044 -0.446 0.228 -0.03 0.66 -0.75 0
1 5.05 505 0.469 -9.012 0.757 -0.427 -17.609 6.622 -393.494 2657.019 -2746.661 -0.100 -0.715 0.380 -0.03 0.66 -0.75 0
1 5.06 506 0.177 -8.950 0.522 -0.854 -16.419 6.775 -393.494 2657.019 -2746.661 0.187 -0.777 0.612 -0.03 0.66 -0.75 0.01
1 5.07 507 -0.024 -9.117 0.311 -3.632 -16.663 7.019 -303.552 2597.058 -2731.670 0.383 -0.611 0.818 -0.03 0.66 -0.75 0.01
1 5.08 508 -0.431 -9.261 -0.043 -5.035 -19.348 3.876 -303.552 2597.058 -2731.670 0.783 -0.468 1.162 -0.03 0.66 -0.75 0.01
1 5.09 509 -0.522 -9.175 -0.172 -5.188 -21.149 2.838 -348.523 2642.029 -2686.700 0.869 -0.556 1.277 -0.03 0.67 -0.75 0.01
1 5.10 510 -0.086 -8.787 -0.340 -6.042 -25.147 0.183 -348.523 2642.029 -2611.749 0.428 -0.946 1.429 -0.03 0.67 -0.75 0.01
1 5.11 511 0.110 -8.519 -0.297 -8.118 -25.879 -1.160 -348.523 2642.029 -2611.749 0.231 -1.216 1.368 -0.03 0.67 -0.74 0.01
1 5.12 512 0.038 -8.538 -0.311 -10.864 -25.421 -3.601 -363.513 2582.068 -2671.709 0.319 -1.199 1.358 -0.04 0.67 -0.74 0.02
1 5.13 513 -0.196 -8.720 -0.350 -11.108 -25.910 -5.951 -363.513 2582.068 -2671.709 0.566 -1.019 1.380 -0.04 0.67 -0.74 0.02
1 5.14 514 -0.311 -9.084 -0.249 -9.308 -27.618 -6.897 -408.484 2567.078 -2656.719 0.697 -0.656 1.262 -0.04 0.67 -0.74 0.02
1 5.15 515 -0.757 -9.366 -0.139 -7.629 -29.602 -6.744 -408.484 2567.078 -2656.719 1.153 -0.375 1.129 -0.04 0.67 -0.74 0.02
1 5.16 516 -0.656 -9.697 -0.153 -5.157 -31.677 -5.737 -468.595 2657.019 -2671.709 1.060 -0.046 1.125 -0.05 0.67 -0.74 0.02
1 5.17 517 -0.450 -9.338 -0.129 0.488 -34.485 -5.859 -438.614 2657.019 -2641.729 0.862 -0.407 1.086 -0.05 0.67 -0.74 0.02
1 5.18 518 -0.244 -8.849 -0.048 -1.190 -34.912 -3.693 -438.614 2657.019 -2641.729 0.664 -0.896 0.996 -0.05 0.67 -0.74 0.02
1 5.19 519 0.488 -8.907 0.043 -6.866 -36.713 -0.732 -468.595 2582.068 -2491.677 -0.055 -0.840 0.881 -0.05 0.67 -0.74 0.03
1 5.20 520 0.498 -9.563 0.316 -7.996 -35.584 0.916 -468.595 2582.068 -2491.677 -0.057 -0.185 0.590 -0.06 0.67 -0.74 0.03
1 5.21 521 0.661 -9.970 0.608 -7.019 -33.600 4.364 -453.604 2567.078 -2806.622 -0.216 0.220 0.281 -0.06 0.67 -0.74 0.03
1 5.22 522 0.704 -10.291 0.828 -3.754 -29.755 7.233 -453.604 2567.078 -2806.622 -0.259 0.540 0.047 -0.06 0.67 -0.74 0.03
1 5.23 523 0.934 -10.406 0.891 0.122 -26.917 8.331 -453.604 2642.029 -2551.638 -0.493 0.654 -0.020 -0.06 0.67 -0.74 0.03
1 5.24 524 1.480 -9.826 0.431 3.510 -19.135 10.132 -558.536 2567.078 -2611.749 -1.044 0.075 0.441 -0.06 0.67 -0.74 0.04
1 5.25 525 1.681 -9.161 -0.436 0.397 -17.090 10.437 -558.536 2567.078 -2611.749 -1.249 -0.591 1.313 -0.06 0.67 -0.74 0.04
1 5.26 526 1.666 -9.007 -0.963 -5.920 -18.280 10.132 -603.507 2747.110 -2476.687 -1.238 -0.744 1.838 -0.06 0.67 -0.74 0.04
1 5.27 527 0.527 -9.826 -1.700 -17.242 -23.804 10.803 -513.565 2701.990 -2566.628 -0.103 0.070 2.526 -0.07 0.67 -0.74 0.04
1 5.28 528 -0.584 -11.272 0.053 -13.733 -27.496 11.963 -513.565 2701.990 -2596.758 0.999 1.512 0.730 -0.07 0.67 -0.73 0.04
1 5.29 529 0.354 -14.524 3.175 -13.397 -23.560 20.264 -513.565 2701.990 -2596.758 0.044 4.761 -2.420 -0.07 0.68 -0.73 0.04
1 5.30 530 2.586 -20.509 2.768 -28.931 -7.324 52.155 -513.565 2657.019 -2596.758 -2.224 10.743 -2.039 -0.07 0.68 -0.73 0.05
1 5.31 531 3.395 -20.395 3.960 6.714 15.686 82.215 -573.526 2701.990 -2521.657 -3.123 10.623 -3.265 -0.07 0.68 -0.73 0.05
1 5.32 532 3.941 -12.987 3.438 25.147 30.548 81.116 -573.526 2701.990 -2521.657 -3.796 3.214 -2.716 -0.06 0.68 -0.73 0.05
1 5.33 533 3.984 -11.545 2.782 6.378 27.588 73.151 -543.546 2777.091 -2566.628 -3.966 1.775 -2.015 -0.05 0.68 -0.73 0.06
1 5.34 534 0.699 -11.694 2.064 -3.296 15.778 44.159 -603.507 2716.980 -2506.667 -0.887 1.927 -1.275 -0.04 0.68 -0.73 0.06
1 5.35 535 -0.345 -13.039 2.050 -13.062 8.392 26.428 -243.591 2612.048 -2596.758 0.098 3.274 -1.269 -0.04 0.68 -0.73 0.06
1 5.36 536 -2.083 -13.145 1.580 -0.885 9.338 12.665 -243.591 2612.048 -2596.758 1.802 3.379 -0.816 -0.04 0.68 -0.73 0.06
1 5.37 537 -3.730 -11.301 1.058 16.174 5.737 1.434 -228.601 2642.029 -2506.667 3.435 1.536 -0.287 -0.04 0.68 -0.73 0.06
1 5.38 538 -4.334 -9.955 1.547 17.334 -3.784 -5.646 -273.572 2716.980 -2581.768 4.041 0.192 -0.748 -0.04 0.68 -0.73 0.06
1 5.39 539 -3.812 -9.548 1.982 11.475 -6.470 -3.815 -273.572 2716.980 -2581.768 3.531 -0.213 -1.158 -0.04 0.68 -0.73 0.06
1 5.40 540 -3.256 -8.993 2.102 11.231 -4.120 3.571 -348.523 2867.032 -2551.638 2.958 -0.765 -1.250 -0.04 0.67 -0.73 0.06
1 5.41 541 -0.421 -7.820 2.792 9.827 2.563 12.054 -288.562 2657.019 -2596.758 0.066 -1.932 -1.885 -0.04 0.67 -0.74 0.07
1 5.42 542 0.642 -7.485 3.026 8.911 4.730 13.580 -363.513 2777.091 -2566.628 -1.015 -2.265 -2.104 -0.04 0.67 -0.74 0.07
1 5.43 543 1.992 -7.202 2.849 0.641 17.639 14.557 -363.513 2777.091 -2566.628 -2.387 -2.546 -1.918 -0.03 0.67 -0.74 0.07
1 5.44 544 2.169 -7.662 2.643 -5.981 21.088 11.719 -243.591 2701.990 -2641.729 -2.586 -2.085 -1.713 -0.03 0.67 -0.74 0.07
1 5.45 545 1.949 -8.481 2.375 -10.071 19.470 3.906 -363.513 2612.048 -2746.661 -2.382 -1.267 -1.456 -0.03 0.67 -0.74 0.07
1 5.46 546 0.718 -9.735 2.284 -7.385 15.320 -9.399 -363.513 2612.048 -2746.661 -1.146 -0.013 -1.374 -0.03 0.67 -0.74 0.07
1 5.47 547 -0.713 -9.778 2.260 -2.014 14.374 -17.395 -318.542 2732.120 -2671.709 0.311 0.029 -1.351 -0.03 0.67 -0.74 0.06
1 5.48 548 -1.973 -9.089 2.045 0.610 9.644 -21.729 -303.552 2642.029 -2611.749 1.626 -0.661 -1.119 -0.03 0.67 -0.74 0.06
1 5.49 549 -2.131 -8.825 2.011 -1.587 8.240 -21.790 -303.552 2716.980 -2611.749 1.806 -0.924 -1.076 -0.03 0.67 -0.74 0.06
1 5.50 550 -1.887 -8.835 1.695 -4.669 5.402 -20.477 -303.552 2716.980 -2611.749 1.580 -0.915 -0.755 -0.03 0.67 -0.74 0.06
1 5.51 551 -1.451 -8.663 1.513 -5.615 5.524 -17.273 -273.572 2822.062 -2581.768 1.162 -1.088 -0.572 -0.03 0.67 -0.74 0.06
1 5.52 552 -0.555 -8.447 1.389 -6.439 3.357 -14.557 -138.510 2657.019 -2641.729 0.283 -1.304 -0.450 -0.03 0.67 -0.74 0.06
1 5.53 553 0.259 -8.634 1.326 -8.423 4.608 -13.550 -138.510 2657.019 -2641.729 -0.508 -1.119 -0.397 -0.03 0.67 -0.74 0.06
1 5.54 554 1.235 -9.026 1.302 -9.308 6.928 -12.878 -363.513 2732.120 -2521.657 -1.464 -0.728 -0.385 -0.03 0.67 -0.74 0.05
1 5.55 555 1.437 -9.175 1.542 -6.958 8.881 -12.421 -213.611 2732.120 -2461.696 -1.637 -0.581 -0.632 -0.03 0.67 -0.74 0.05
1 5.56 556 1.130 -8.873 1.437 -6.317 10.864 -11.383 -288.562 2657.019 -2671.709 -1.271 -0.884 -0.536 -0.04 0.67 -0.74 0.05
1 5.57 557 0.742 -8.744 1.250 -6.622 11.963 -10.803 -288.562 2657.019 -2671.709 -0.856 -1.014 -0.353 -0.04 0.67 -0.74 0.05
1 5.58 558 0.503 -8.935 1.044 -8.270 12.238 -10.101 -318.542 2732.120 -2641.729 -0.593 -0.823 -0.152 -0.04 0.67 -0.74 0.05
1 5.59 559 0.421 -9.113 1.049 -8.118 11.566 -10.498 -288.562 2732.120 -2461.696 -0.491 -0.647 -0.165 -0.04 0.67 -0.74 0.05
1 5.60 560 0.330 -9.343 1.106 -6.592 11.963 -9.979 -288.562 2732.120 -2461.696 -0.380 -0.418 -0.231 -0.04 0.67 -0.74 0.04
1 5.61 561 0.292 -9.309 1.025 -5.951 11.993 -7.996 -363.513 2807.071 -2416.726 -0.324 -0.452 -0.156 -0.04 0.67 -0.74 0.04
1 5.62 562 0.115 -9.477 0.963 -4.547 11.353 -6.287 -138.510 2777.091 -2491.677 -0.131 -0.285 -0.100 -0.04 0.67 -0.74 0.04
1 5.63 563 0.254 -9.285 1.192 -3.448 11.200 -3.906 -213.611 2732.120 -2521.657 -0.249 -0.478 -0.338 -0.04 0.67 -0.74 0.04
1 5.64 564 0.436 -9.496 1.183 -2.625 11.566 -2.350 -213.611 2732.120 -2521.657 -0.424 -0.267 -0.329 -0.04 0.67 -0.74 0.04
1 5.65 565 0.536 -9.381 1.326 -1.068 12.878 -2.228 -213.611 2612.048 -2671.709 -0.518 -0.382 -0.472 -0.04 0.67 -0.74 0.04
1 5.66 566 0.642 -9.247 1.255 0.122 13.794 -1.221 -303.552 2716.980 -2611.749 -0.616 -0.516 -0.396 -0.03 0.67 -0.74 0.04
1 5.67 567 0.790 -9.137 1.240 1.465 14.954 -0.763 -303.552 2716.980 -2611.749 -0.758 -0.625 -0.376 -0.03 0.67 -0.74 0.03
1 5.68 568 0.915 -9.285 1.269 1.709 16.357 -2.014 -213.611 2807.071 -2641.729 -0.875 -0.476 -0.399 -0.03 0.67 -0.74 0.03
1 5.69 569 0.881 -9.228 1.245 2.563 17.822 -3.876 -108.529 2701.990 -2491.677 -0.833 -0.533 -0.368 -0.03 0.67 -0.74 0.03
1 5.70 570 0.886 -9.405 1.312 3.632 18.677 -5.585 -108.529 2701.990 -2491.677 -0.827 -0.355 -0.426 -0.03 0.67 -0.74 0.03
1 5.71 571 0.694 -9.386 1.101 5.646 19.714 -6.775 -138.510 2852.042 -2596.758 -0.607 -0.372 -0.194 -0.03 0.67 -0.74 0.03
1 5.72 572 0.551 -9.395 1.030 7.355 19.714 -7.843 -198.621 2822.062 -2551.638 -0.448 -0.361 -0.110 -0.03 0.67 -0.74 0.03
1 5.73 573 0.694 -9.304 1.111 7.751 19.287 -8.118 -198.621 2792.081 -2581.768 -0.578 -0.450 -0.177 -0.03 0.67 -0.74 0.02
1 5.74 574 0.737 -9.175 1.049 7.751 18.982 -8.789 -198.621 2792.081 -2581.768 -0.605 -0.578 -0.099 -0.03 0.67 -0.74 0.02
1 5.75 575 0.709 -9.386 0.929 8.667 18.829 -8.209 -363.513 2732.120 -2566.628 -0.560 -0.366 0.036 -0.03 0.67 -0.74 0.02
1 5.76 576 0.843 -9.371 0.651 9.491 18.341 -5.981 -213.611 2701.990 -2641.729 -0.679 -0.378 0.328 -0.03 0.67 -0.74 0.02
1 5.77 577 0.709 -9.371 0.397 10.071 20.691 -5.005 -213.611 2701.990 -2641.729 -0.532 -0.377 0.596 -0.03 0.67 -0.74 0.02
1 5.78 578 0.618 -9.443 0.397 10.407 21.454 -2.777 -273.572 2747.110 -2551.638 -0.422 -0.302 0.625 -0.03 0.67 -0.74 0.01
1 5.79 579 0.862 -9.343 0.321 10.345 22.827 -0.336 -243.591 2657.019 -2641.729 -0.662 -0.401 0.714 -0.03 0.67 -0.74 0.01
1 5.80 580 0.905 -9.472 0.235 10.773 25.574 0.336 -138.510 2777.091 -2851.742 -0.703 -0.270 0.813 -0.02 0.67 -0.74 0.01
1 5.81 581 0.948 -9.323 0.249 11.566 26.856 1.831 -138.510 2777.091 -2851.742 -0.744 -0.417 0.812 -0.02 0.67 -0.74 0.01
1 5.82 582 0.967 -9.271 0.302 12.360 27.039 1.434 -228.601 2672.009 -2656.719 -0.763 -0.468 0.773 -0.02 0.67 -0.74 0.01
1 5.83 583 1.274 -9.328 0.364 13.977 25.787 -0.031 -243.591 2777.091 -2596.758 -1.068 -0.409 0.727 -0.02 0.67 -0.75 0.01
1 5.84 584 1.370 -9.386 0.393 14.954 25.177 -1.373 -243.591 2777.091 -2596.758 -1.160 -0.349 0.715 -0.02 0.67 -0.75 0.01
1 5.85 585 0.939 -9.237 0.230 14.801 24.262 -4.334 -48.568 2642.029 -2476.687 -0.712 -0.493 0.916 -0.02 0.66 -0.75 0
1 5.86 586 0.771 -9.036 0.484 13.611 23.560 -5.768 -63.559 2807.071 -2671.709 -0.533 -0.692 0.680 -0.02 0.66 -0.75 0
1 5.87 587 0.330 -9.333 0.206 10.712 19.074 -11.292 -168.490 2657.019 -2821.762 -0.078 -0.393 0.972 0.02 -0.66 0.75 0
1 5.88 588 0.072 -9.706 0.000 12.817 18.829 -14.282 -168.490 2657.019 -2821.762 0.197 -0.017 1.190 0.02 -0.66 0.75 0
1 5.89 589 -0.192 -9.601 -0.536 14.862 21.484 -18.494 -153.500 2822.062 -2731.670 0.480 -0.120 1.741 0.02 -0.66 0.75 0.01
1 5.90 590 -0.388 -8.993 -1.235 17.914 28.290 -22.461 -288.562 2701.990 -2821.762 0.701 -0.726 2.454 0.01 -0.66 0.75 0.01
1 5.91 591 -0.441 -8.505 -1.504 14.343 34.149 -21.545 -288.562 2701.990 -2821.762 0.778 -1.212 2.737 0.01 -0.66 0.75 0.01
1 5.92 592 -1.259 -9.984 5.674 5.280 31.769 -16.815 -273.572 2792.081 -2761.651 1.646 0.274 -4.406 0.01 -0.66 0.75 0.02
1 5.93 593 -3.376 -11.670 5.229 2.197 1.465 -20.874 -198.621 2716.980 -2806.622 3.786 1.962 -3.954 0.01 -0.66 0.75 0.02
1 5.94 594 -1.437 -19.671 3.266 17.578 -6.195 -63.019 -243.591 2701.990 -2776.641 1.920 9.966 -1.995 0.02 -0.66 0.75 0.02
1 5.95 595 -1.777 -13.762 2.399 61.249 -11.749 -51.361 -243.591 2701.990 -2776.641 2.355 4.069 -1.079 0.02 -0.66 0.75 0.02
1 5.96 596 -3.189 -9.429 3.156 36.926 -10.468 -38.513 -123.520 2792.081 -2806.622 3.841 -0.248 -1.747 0.02 -0.65 0.76 0.02
1 5.97 597 -1.235 -10.712 1.724 -7.568 -13.916 -31.433 -288.562 2657.019 -2671.709 1.933 1.045 -0.273 0.03 -0.65 0.76 0.03
1 5.98 598 3.735 -13.810 2.619 -20.416 -18.189 -6.439 -288.562 2657.019 -2671.709 -3.007 4.144 -1.181 0.03 -0.65 0.76 0.03
1 5.99 599 3.888 -15.845 1.690 -21.271 -4.608 -6.989 -318.542 2777.091 -2851.742 -3.141 6.176 -0.279 0.03 -0.65 0.76 0.03
1 6.00 600 4.568 -12.886 2.308 7.355 -0.671 3.967 -273.572 2597.058 -2866.732 -3.802 3.214 -0.932 0.03 -0.65 0.75 0.03
1 6.01 601 3.812 -12.225 3.409 -5.585 3.815 6.561 -273.572 2822.062 -2731.670 -3.051 2.553 -2.024 0.03 -0.65 0.76 0.03
1 6.02 602 2.548 -13.571 3.658 -8.972 2.472 -1.892 -273.572 2822.062 -2731.670 -1.793 3.897 -2.283 0.03 -0.65 0.75 0.03
1 6.03 603 1.738 -13.140 3.563 5.493 3.693 -8.575 -228.601 2642.029 -2866.732 -0.977 3.466 -2.193 0.03 -0.66 0.75 0.03
1 6.04 604 0.244 -11.282 3.386 12.512 9.491 -5.585 -273.572 2716.980 -2941.684 0.530 1.611 -2.002 0.03 -0.65 0.75 0.03
1 6.05 605 -1.298 -8.825 2.902 7.507 8.514 -4.456 -273.572 2716.980 -2941.684 2.081 -0.842 -1.497 0.03 -0.65 0.76 0.03
1 6.06 606 -1.144 -8.016 2.385 1.740 5.280 0.458 -168.490 2732.120 -2896.713 1.929 -1.648 -0.957 0.03 -0.65 0.76 0.03
1 6.07 607 -0.345 -7.834 2.399 -7.446 0.671 9.033 -348.523 2672.009 -2911.703 1.117 -1.829 -0.961 0.03 -0.65 0.76 0.03
1 6.08 608 0.010 -8.097 2.188 -11.261 -2.838 12.726 -363.513 2657.019 -2896.713 0.749 -1.568 -0.762 0.03 -0.65 0.76 0.03
1 6.09 609 0.254 -8.682 2.121 -13.580 -7.416 14.923 -363.513 2657.019 -2896.713 0.488 -0.988 -0.711 0.03 -0.65 0.76 0.03
1 6.10 610 0.699 -9.237 1.915 -13.702 -11.353 15.411 -273.572 2716.980 -2866.732 0.022 -0.436 -0.522 0.03 -0.65 0.76 0.03
1 6.11 611 0.742 -9.486 1.858 -10.071 -14.496 17.059 -303.552 2597.058 -2866.732 -0.040 -0.191 -0.479 0.03 -0.65 0.75 0.02
1 6.12 612 0.747 -9.237 1.863 -7.507 -19.989 19.531 -303.552 2597.058 -2866.732 -0.066 -0.443 -0.493 0.03 -0.66 0.75 0.02
1 6.13 613 0.632 -9.347 1.729 -9.613 -21.454 20.935 -303.552 2747.110 -2806.622 0.027 -0.335 -0.367 0.03 -0.66 0.75 0.02
1 6.14 614 0.263 -9.457 2.212 -11.810 -23.132 22.369 -303.552 2747.110 -2806.622 0.373 -0.228 -0.860 0.03 -0.66 0.75 0.02
1 6.15 615 0.057 -9.184 2.150 -9.644 -18.646 24.872 -273.572 2792.081 -2836.752 0.518 -0.508 -0.823 0.03 -0.66 0.75 0.01
1 6.16 616 -0.172 -8.768 2.179 -7.965 -15.320 24.201 -273.572 2792.081 -2836.752 0.713 -0.928 -0.858 0.03 -0.66 0.75 0.01
1 6.17 617 -0.283 -8.212 2.217 -10.315 -13.916 22.858 -213.611 2777.091 -2896.713 0.788 -1.486 -0.901 0.03 -0.66 0.75 0.01
1 6.18 618 -0.254 -8.078 1.987 -12.756 -12.939 21.851 -228.601 2747.110 -2941.684 0.730 -1.623 -0.687 0.03 -0.66 0.75 0.01
1 6.19 619 -0.101 -8.035 1.882 -14.557 -13.641 20.386 -228.601 2747.110 -2941.684 0.549 -1.670 -0.602 0.03 -0.66 0.75 0
1 6.20 620 0.105 -8.131 1.939 -15.289 -14.099 15.472 -243.591 2777.091 -2746.661 0.318 -1.579 -0.680 0.03 -0.66 0.75 0
1 6.21 621 0.268 -8.131 1.801 -15.076 -14.862 11.871 -243.591 2777.091 -2746.661 0.136 -1.582 -0.563 0.03 -0.66 0.75 0
1 6.22 622 0.383 -8.155 2.011 -15.900 -15.442 7.751 -138.510 2701.990 -2776.641 -0.004 -1.565 -0.818 -0.03 0.66 -0.75 0
1 6.23 623 0.125 -8.256 1.978 -15.869 -15.411 7.111 -138.510 2701.990 -2776.641 0.249 -1.467 -0.807 -0.03 0.66 -0.75 0
1 6.24 624 -0.067 -8.437 1.959 -16.052 -14.374 5.890 -123.520 2792.081 -2806.622 0.435 -1.288 -0.811 -0.03 0.66 -0.75 0
1 6.25 625 -0.374 -8.754 1.915 -15.717 -14.160 5.890 -273.572 2747.110 -2686.700 0.737 -0.975 -0.791 -0.03 0.66 -0.75 0
1 6.26 626 -0.599 -8.907 2.021 -14.679 -14.252 5.829 -273.572 2747.110 -2686.700 0.955 -0.824 -0.915 -0.03 0.67 -0.75 0
1 6.27 627 -0.661 -9.017 1.820 -11.963 -15.869 7.202 -348.523 2987.104 -2656.719 1.006 -0.716 -0.728 -0.03 0.67 -0.75 0.01
1 6.28 628 -0.412 -8.979 1.719 -11.383 -16.480 7.172 -348.523 2987.104 -2656.719 0.744 -0.756 -0.639 -0.03 0.67 -0.75 0.01
1 6.29 629 -0.014 -8.878 1.346 -10.162 -16.022 7.507 -243.591 2926.993 -2701.690 0.322 -0.860 -0.286 -0.03 0.67 -0.74 0.01
1 6.30 630 0.192 -8.763 1.456 -10.284 -15.961 6.805 -243.591 2926.993 -2701.690 0.107 -0.976 -0.407 -0.03 0.67 -0.74 0.01
1 6.31 631 0.402 -9.103 1.235 -11.658 -17.304 6.012 -363.513 2882.022 -2851.742 -0.110 -0.638 -0.199 -0.03 0.67 -0.74 0.01
1 6.32 632 0.417 -9.419 1.159 -11.047 -16.968 5.157 -198.621 2941.983 -2686.700 -0.128 -0.323 -0.136 -0.03 0.67 -0.74 0.01
1 6.33 633 0.182 -9.486 0.910 -7.874 -16.998 3.601 -198.621 2941.983 -2686.700 0.104 -0.257 0.100 -0.03 0.67 -0.74 0.01
1 6.34 634 0.019 -9.481 0.694 -3.021 -17.090 1.038 -273.572 2747.110 -2731.670 0.267 -0.263 0.306 -0.03 0.67 -0.74 0.02
1 6.35 635 -0.105 -9.113 0.383 -0.977 -18.890 -0.214 -273.572 2747.110 -2731.670 0.393 -0.632 0.612 -0.03 0.67 -0.74 0.02
1 6.36 636 -0.292 -8.864 0.110 -1.404 -21.851 -3.113 -153.950 2864.634 -2805.422 0.586 -0.882 0.875 -0.04 0.67 -0.74 0.02
1 6.37 637 -0.283 -8.777 0.115 -1.923 -23.224 -4.456 -153.950 2864.634 -2805.422 0.583 -0.969 0.864 -0.04 0.67 -0.74 0.02
1 6.38 638 -0.326 -8.773 -0.024 -2.899 -26.886 -7.080 -483.885 2939.585 -2805.422 0.641 -0.974 1.000 -0.04 0.67 -0.74 0.02
1 6.39 639 -0.417 -8.797 -0.077 -5.035 -28.839 -7.111 -289.012 2804.673 -2670.510 0.748 -0.950 1.047 -0.04 0.67 -0.74 0.02
1 6.40 640 -0.484 -8.969 -0.038 -6.165 -29.358 -8.118 -289.012 2804.673 -2670.510 0.832 -0.777 1.001 -0.04 0.67 -0.74 0.02
1 6.41 641 -0.551 -9.180 -0.172 -6.134 -32.196 -7.965 -168.940 2954.725 -2775.442 0.914 -0.567 1.122 -0.05 0.67 -0.74 0.02
1 6.42 642 -0.594 -9.295 -0.340 -4.700 -33.722 -6.317 -168.940 2954.725 -2775.442 0.968 -0.454 1.274 -0.05 0.67 -0.74 0.02
1 6.43 643 -0.670 -9.017 -0.460 -3.021 -35.584 -6.775 -363.963 2849.644 -2820.413 1.053 -0.733 1.377 -0.05 0.67 -0.74 0.03
1 6.44 644 -0.656 -8.667 -0.493 -5.463 -37.872 -6.928 -348.973 2909.604 -2655.520 1.057 -1.084 1.381 -0.05 0.67 -0.74 0.03
1 6.45 645 -0.661 -8.634 -0.541 -8.850 -39.307 -6.561 -393.943 2879.624 -2670.510 1.079 -1.118 1.418 -0.06 0.67 -0.74 0.03
1 6.46 646 -0.551 -8.974 -0.479 -11.475 -39.917 -5.219 -468.895 2924.595 -2820.413 0.986 -0.779 1.341 -0.06 0.67 -0.74 0.03
1 6.47 647 -0.737 -9.261 -0.350 -11.902 -41.870 -3.540 -468.895 2924.595 -2820.413 1.183 -0.493 1.188 -0.06 0.67 -0.74 0.03
1 6.48 648 -0.369 -9.534 -0.196 -8.698 -44.434 -2.258 -363.963 2954.725 -2775.442 0.818 -0.222 1.008 -0.06 0.67 -0.73 0.04
1 6.49 649 0.436 -10.166 0.182 -6.958 -43.213 0.092 -363.963 2954.725 -2775.442 0.018 0.408 0.606 -0.07 0.67 -0.73 0.04
1 6.50 650 1.030 -10.449 0.431 -3.601 -40.650 4.120 -543.996 2954.725 -2700.491 -0.571 0.690 0.339 -0.07 0.68 -0.73 0.04
1 6.51 651 1.949 -10.468 0.680 2.106 -32.562 11.047 -543.996 2924.595 -2700.491 -1.487 0.708 0.073 -0.07 0.68 -0.73 0.04
1 6.52 652 2.337 -10.195 0.560 5.585 -28.107 14.648 -558.986 3014.686 -2655.520 -1.878 0.435 0.195 -0.07 0.68 -0.73 0.05
1 6.53 653 2.557 -10.171 0.421 6.866 -26.764 18.066 -558.986 2984.706 -2685.500 -2.104 0.411 0.342 -0.08 0.67 -0.73 0.05
1 6.54 654 2.375 -9.965 -0.034 5.463 -26.032 18.463 -558.986 2984.706 -2685.500 -1.928 0.206 0.804 -0.08 0.67 -0.73 0.05
1 6.55 655 1.101 -10.013 -0.862 1.770 -27.924 17.334 -558.986 3119.618 -2655.520 -0.662 0.253 1.634 -0.08 0.67 -0.73 0.05
1 6.56 656 -0.546 -10.645 -1.911 -2.441 -31.159 19.196 -558.986 3119.618 -2655.520 0.972 0.884 2.673 -0.08 0.67 -0.73 0.05
1 6.57 657 -1.556 -11.129 -1.240 -2.197 -32.196 23.132 -514.015 3029.676 -2640.530 1.959 1.365 1.981 -0.08 0.68 -0.73 0.06
1 6.58 658 -1.413 -13.030 2.950 -4.395 -28.809 28.137 -514.015 2924.595 -2670.510 1.788 3.265 -2.213 -0.08 0.68 -0.73 0.06
1 6.59 659 1.997 -21.951 2.404 -32.349 5.096 68.238 -633.937 3014.686 -2835.403 -1.720 12.180 -1.703 -0.08 0.68 -0.73 0.06
1 6.60 660 2.543 -17.890 2.528 28.107 27.710 87.921 -363.963 2954.725 -2745.461 -2.378 8.115 -1.857 -0.07 0.68 -0.73 0.07
1 6.61 661 2.327 -11.344 2.227 45.868 38.513 72.632 -363.963 2954.725 -2745.461 -2.293 1.572 -1.494 -0.07 0.68 -0.73 0.07
1 6.62 662 3.606 -10.176 2.504 10.681 28.015 55.969 -529.005 2939.585 -2685.500 -3.676 0.408 -1.716 -0.06 0.68 -0.73 0.07
1 6.63 663 2.457 -10.659 2.629 -3.235 23.651 27.802 -529.005 2939.585 -2685.500 -2.607 0.893 -1.831 -0.06 0.68 -0.73 0.07
1 6.64 664 -0.010 -12.422 2.413 -8.514 13.825 4.730 -393.943 2954.725 -2700.491 -0.194 2.656 -1.619 -0.05 0.68 -0.73 0.07
1 6.65 665 -0.225 -12.790 2.639 -4.456 9.186 -6.195 -393.943 2924.595 -2775.442 0.007 3.024 -1.854 -0.05 0.68 -0.73 0.07
1 6.66 666 -1.585 -11.076 2.289 9.430 5.829 -9.766 -363.963 2804.673 -2745.461 1.387 1.309 -1.508 -0.05 0.68 -0.73 0.07
1 6.67 667 -2.289 -9.659 2.686 13.702 -0.305 -6.226 -289.012 3104.627 -2820.413 2.106 -0.107 -1.888 -0.05 0.68 -0.73 0.07
1 6.68 668 -3.151 -9.275 2.916 9.674 -2.167 -0.946 -289.012 3104.627 -2820.413 2.969 -0.488 -2.090 -0.05 0.67 -0.73 0.07
1 6.69 669 -4.238 -9.094 2.797 8.453 -0.916 6.561 -153.950 3014.686 -2835.403 4.036 -0.667 -1.941 -0.05 0.67 -0.73 0.07
1 6.70 670 -4.243 -8.423 2.854 12.024 0.458 10.376 -153.950 3014.686 -2835.403 4.001 -1.334 -1.968 -0.05 0.67 -0.73 0.07
1 6.71 671 -1.810 -7.044 3.084 8.453 5.981 10.773 -348.973 2939.585 -2730.471 1.523 -2.708 -2.162 -0.05 0.67 -0.74 0.07
1 6.72 672 -0.627 -7.197 2.888 -0.214 10.956 10.529 -228.901 2939.585 -2835.403 0.312 -2.552 -1.942 -0.05 0.67 -0.74 0.08
1 6.73 673 0.426 -8.667 2.294 -10.162 14.587 8.972 -243.891 3104.627 -2775.442 -0.772 -1.081 -1.353 -0.04 0.67 -0.74 0.07
1 6.74 674 0.728 -9.228 2.169 -9.918 15.106 5.829 -393.943 2999.696 -2895.514 -1.084 -0.522 -1.238 -0.04 0.67 -0.74 0.07
1 6.75 675 1.087 -10.281 1.824 -8.667 17.487 1.129 -393.943 2999.696 -2895.514 -1.442 0.531 -0.898 -0.04 0.67 -0.74 0.07
1 6.76 676 0.747 -10.228 1.815 -4.913 18.677 -6.592 -228.901 2864.634 -2685.500 -1.090 0.478 -0.892 -0.04 0.67 -0.74 0.07
1 6.77 677 0.254 -9.726 1.638 -1.160 19.379 -13.214 -228.901 2864.634 -2685.500 -0.576 -0.025 -0.714 -0.04 0.67 -0.74 0.07
1 6.78 678 -0.464 -8.792 1.652 2.258 17.090 -16.083 -289.012 3029.676 -2850.543 0.168 -0.959 -0.722 -0.04 0.67 -0.74 0.07
1 6.79 679 -0.374 -8.351 1.609 1.251 15.839 -13.977 -289.012 3029.676 -2775.442 0.101 -1.400 -0.670 -0.04 0.67 -0.74 0.07
1 6.80 680 0.235 -8.505 1.547 -2.472 15.839 -12.695 -228.901 2909.604 -2760.452 -0.468 -1.247 -0.602 -0.04 0.67 -0.74 0.06
1 6.81 681 0.278 -8.706 1.470 -3.265 15.015 -11.231 -304.002 3014.686 -2835.403 -0.494 -1.047 -0.529 -0.04 0.67 -0.74 0.06
1 6.82 682 0.963 -8.959 1.518 -1.617 15.625 -7.538 -304.002 3014.686 -2835.403 -1.160 -0.793 -0.576 -0.04 0.67 -0.74 0.06
1 6.83 683 1.197 -8.993 1.547 -0.885 16.113 -7.172 -348.973 2939.585 -2835.403 -1.376 -0.760 -0.601 -0.04 0.67 -0.74 0.06
1 6.84 684 0.891 -8.988 1.733 -0.031 17.304 -7.172 -348.973 2939.585 -2835.403 -1.050 -0.764 -0.783 -0.04 0.67 -0.74 0.06
1 6.85 685 0.565 -9.266 1.733 2.106 16.449 -7.782 -274.021 2984.706 -2910.504 -0.706 -0.486 -0.775 -0.04 0.67 -0.74 0.05
1 6.86 686 0.239 -8.959 1.834 2.625 15.259 -8.637 -243.891 2954.725 -2850.543 -0.364 -0.792 -0.866 -0.04 0.67 -0.74 0.05
1 6.87 687 -0.019 -8.950 1.714 2.167 13.397 -8.789 -243.891 2954.725 -2850.543 -0.089 -0.800 -0.734 -0.04 0.67 -0.74 0.05
1 6.88 688 0.115 -9.060 1.824 2.625 11.139 -8.911 -168.940 3059.657 -2850.543 -0.195 -0.688 -0.822 -0.04 0.67 -0.74 0.05
1 6.89 689 0.215 -9.204 1.619 2.472 9.460 -8.301 -168.940 3059.657 -2850.543 -0.281 -0.544 -0.605 -0.04 0.67 -0.74 0.05
1 6.90 690 0.445 -9.151 1.580 2.197 8.606 -9.766 -108.979 3059.657 -2895.514 -0.495 -0.595 -0.556 -0.04 0.67 -0.74 0.05
1 6.91 691 0.627 -9.218 1.762 2.228 7.355 -10.284 -108.979 3059.657 -2895.514 -0.658 -0.527 -0.728 -0.04 0.67 -0.74 0.04
1 6.92 692 0.675 -9.242 1.537 2.625 7.446 -11.078 -138.959 3029.676 -2925.494 -0.686 -0.502 -0.492 -0.04 0.67 -0.74 0.04
1 6.93 693 0.623 -9.184 1.518 3.510 7.568 -12.634 -198.920 2984.706 -2805.422 -0.612 -0.559 -0.464 -0.04 0.67 -0.74 0.04
1 6.94 694 0.551 -9.232 1.379 2.563 7.080 -13.855 -198.920 2984.706 -2805.422 -0.516 -0.510 -0.314 -0.04 0.67 -0.74 0.04
1 6.95 695 0.263 -9.247 1.216 3.662 5.646 -15.137 -198.920 2864.634 -2835.403 -0.179 -0.493 -0.133 -0.04 0.67 -0.74 0.04
1 6.96 696 0.254 -9.237 0.967 3.876 4.517 -15.320 -198.920 2864.634 -2835.403 -0.145 -0.501 0.125 -0.04 0.67 -0.74 0.04
1 6.97 697 0.182 -9.089 0.852 4.486 3.998 -15.656 -318.992 3134.608 -2925.494 -0.047 -0.648 0.248 -0.04 0.67 -0.74 0.03
1 6.98 698 -0.067 -9.290 0.733 4.364 3.693 -15.015 -318.992 3134.608 -2925.494 0.227 -0.446 0.375 -0.04 0.66 -0.75 0.03
1 6.99 699 -0.014 -9.232 0.532 5.249 2.655 -12.970 -363.963 2924.595 -2850.543 0.196 -0.503 0.581 -0.04 0.66 -0.75 0.03
1 7.00 700 0.158 -9.314 0.508 5.219 3.326 -10.193 -289.012 3029.676 -2850.543 0.043 -0.420 0.611 -0.04 0.66 -0.75 0.03
1 7.01 701 0.096 -9.266 0.464 5.432 3.815 -8.942 -289.012 3029.676 -2850.543 0.121 -0.467 0.660 -0.04 0.66 -0.75 0.03
1 7.02 702 0.259 -9.228 0.306 5.981 3.754 -7.263 -274.021 3044.667 -2940.484 -0.027 -0.504 0.823 -0.04 0.66 -0.75 0.03
1 7.03 703 0.555 -9.285 0.115 6.653 5.951 -3.784 -198.920 3014.686 -2835.403 -0.303 -0.445 1.025 -0.04 0.66 -0.75 0.03
1 7.04 704 0.728 -9.252 0.048 7.202 8.423 -1.617 -318.992 2879.624 -2925.494 -0.469 -0.478 1.097 -0.04 0.66 -0.75 0.03
1 7.05 705 1.034 -9.094 0.120 7.996 11.566 -0.031 -318.992 2879.624 -2925.494 -0.770 -0.635 1.030 -0.04 0.66 -0.75 0.03
1 7.06 706 1.283 -9.055 0.225 6.897 16.296 2.167 -228.901 2909.604 -2910.504 -1.015 -0.673 0.931 -0.04 0.66 -0.75 0.03
1 7.07 707 1.221 -8.830 0.292 5.951 22.125 2.289 -393.943 3059.657 -2955.475 -0.950 -0.897 0.870 -0.04 0.66 -0.75 0.02
1 7.08 708 1.302 -8.514 0.168 3.723 23.346 0.885 -393.943 3059.657 -2955.475 -1.030 -1.212 1.000 -0.04 0.66 -0.75 0.02
1 7.09 709 1.264 -8.811 0.091 1.862 24.811 -1.495 -318.992 2954.725 -2955.475 -0.996 -0.914 1.086 -0.04 0.66 -0.75 0.02
1 7.10 710 1.001 -9.481 -0.057 2.563 23.926 -6.928 -378.953 3044.667 -2865.533 -0.723 -0.243 1.237 -0.04 0.66 -0.75 0.02
1 7.11 711 0.963 -9.874 0.077 4.883 23.590 -7.904 -408.934 3014.686 -3045.416 -0.670 0.150 1.102 -0.04 0.66 -0.75 0.02
1 7.12 712 0.795 -9.864 0.139 9.094 24.536 -10.345 -408.934 3014.686 -3045.416 -0.487 0.141 1.043 -0.03 0.66 -0.75 0.02
1 7.13 713 0.426 -9.960 0.230 12.054 25.848 -12.299 -198.920 2984.706 -3015.436 -0.101 0.238 0.961 -0.03 0.66 -0.75 0.01
1 7.14 714 0.110 -9.797 0.345 14.587 26.611 -14.282 -228.901 3014.686 -3045.416 0.232 0.078 0.860 -0.03 0.66 -0.75 0.01
1 7.15 715 -0.283 -9.194 0.144 17.273 28.778 -12.817 -228.901 3014.686 -3045.416 0.641 -0.523 1.080 -0.03 0.66 -0.75 0.01
1 7.16 716 -0.259 -8.902 -0.244 16.357 29.999 -9.552 -348.973 2939.585 -2940.484 0.630 -0.811 1.490 -0.03 0.66 -0.75 0.01
1 7.17 717 0.330 -8.686 -0.953 11.841 35.889 -6.012 -228.901 2984.706 -3015.436 0.052 -1.021 2.238 -0.03 0.66 -0.75 0
1 7.18 718 0.627 -8.868 -1.269 8.881 40.863 -6.897 -198.920 2909.604 -2985.455 -0.242 -0.837 2.568 -0.03 0.66 -0.75 0
1 7.19 719 1.015 -9.046 -0.345 4.272 45.349 -8.759 -198.920 2909.604 -2985.455 -0.624 -0.660 1.640 0.02 -0.66 0.75 0
1 7.20 720 -1.748 -11.244 5.837 -1.251 22.400 -17.273 -153.950 3014.686 -3090.537 2.152 1.537 -4.549 0.02 -0.66 0.75 0.01
1 7.21 721 -1.935 -16.770 1.724 -12.390 -7.874 -53.650 -138.959 2879.624 -3030.426 2.377 7.066 -0.429 0.02 -0.66 0.75 0.01
1 7.22 722 -1.686 -14.471 2.399 48.676 -5.676 -62.775 -138.959 2879.624 -3030.426 2.220 4.770 -1.114 0.03 -0.66 0.75 0.01
1 7.23 723 -3.103 -9.486 2.911 43.244 -7.904 -56.061 -198.920 2909.604 -3045.416 3.737 -0.201 -1.569 0.03 -0.66 0.75 0.02
1 7.24 724 0.757 -10.875 2.231 -19.196 -13.550 -30.884 -213.911 2954.725 -3000.445 0.015 1.212 -0.795 0.03 -0.65 0.76 0.02
1 7.25 725 2.299 -11.852 2.543 -24.048 -15.045 -16.510 -304.002 2984.706 -3090.537 -1.495 2.187 -1.136 0.04 -0.65 0.76 0.02
1 7.26 726 3.108 -15.367 2.155 -26.062 -2.136 -7.629 -304.002 2984.706 -3090.537 -2.289 5.697 -0.788 0.04 -0.65 0.75 0.02
1 7.27 727 3.635 -14.576 1.494 -5.554 -3.082 -0.214 -290.061 2844.397 -3102.229 -2.804 4.903 -0.158 0.04 -0.66 0.75 0.02
1 7.28 728 3.711 -12.292 2.548 0.641 0.549 6.897 -395.143 2919.348 -3147.200 -2.882 2.619 -1.213 0.04 -0.66 0.75 0.02
1 7.29 729 2.763 -12.460 3.237 -15.900 0.153 -1.343 -395.143 2919.348 -3147.200 -1.942 2.785 -1.906 0.04 -0.66 0.75 0.02
1 7.30 730 1.906 -12.982 3.007 -3.265 -0.092 -6.805 -275.071 2904.358 -3117.219 -1.083 3.305 -1.698 0.04 -0.66 0.75 0.02
1 7.31 731 0.464 -11.148 2.978 3.601 1.312 -8.759 -320.191 2919.348 -3177.180 0.368 1.470 -1.678 0.04 -0.66 0.75 0.02
1 7.32 732 -1.168 -8.739 2.366 -0.122 0.458 -6.805 -320.191 2994.299 -3207.161 2.024 -0.934 -1.048 0.04 -0.66 0.75 0.02
1 7.33 733 -0.728 -8.097 2.500 -7.263 -3.571 -2.563 -320.191 2994.299 -3207.161 1.581 -1.575 -1.174 0.04 -0.66 0.75 0.02
1 7.34 734 0.057 -8.318 2.734 -15.869 -4.364 1.740 -410.133 3009.290 -3042.268 0.800 -1.356 -1.422 0.04 -0.66 0.75 0.02
1 7.35 735 0.757 -9.184 2.466 -18.829 -7.141 3.723 -380.152 2979.309 -2937.187 0.100 -0.493 -1.178 0.04 -0.66 0.75 0.02
1 7.36 736 1.144 -10.382 2.035 -13.489 -9.766 5.707 -380.152 2979.309 -2937.187 -0.292 0.702 -0.764 0.04 -0.66 0.75 0.02
1 7.37 737 0.924 -10.080 1.719 -5.737 -13.519 9.613 -350.172 3039.270 -3087.239 -0.074 0.398 -0.463 0.04 -0.66 0.75 0.02
1 7.38 738 0.441 -9.390 1.781 -4.181 -20.599 14.130 -365.162 2919.348 -3147.200 0.402 -0.293 -0.532 0.04 -0.66 0.75 0.02
1 7.39 739 0.163 -9.644 2.279 -10.651 -27.405 21.057 -380.152 3069.400 -3012.138 0.642 -0.044 -1.041 0.04 -0.66 0.75 0.02
1 7.40 740 0.014 -9.893 2.097 -10.132 -27.374 24.750 -380.152 3069.400 -3012.138 0.760 0.201 -0.869 0.04 -0.66 0.75 0.01
1 7.41 741 -0.326 -9.582 2.217 -7.324 -24.933 26.398 -305.051 2934.338 -3117.219 1.065 -0.114 -0.998 0.04 -0.66 0.75 0.01
1 7.42 742 -0.632 -9.003 2.299 -6.805 -22.247 27.191 -545.195 3024.280 -3102.229 1.330 -0.697 -1.083 0.04 -0.66 0.75 0.01
1 7.43 743 -0.766 -8.667 2.313 -8.759 -21.332 27.039 -545.195 3024.280 -3102.229 1.421 -1.035 -1.100 0.04 -0.66 0.75 0
1 7.44 744 -0.402 -8.437 2.054 -11.322 -20.172 24.262 -305.051 3039.270 -2982.157 1.013 -1.269 -0.847 0.04 -0.66 0.75 0
1 7.45 745 -0.062 -8.299 1.901 -11.200 -19.318 22.125 -320.191 3099.381 -2997.147 0.637 -1.411 -0.706 -0.04 0.66 -0.75 0
1 7.46 746 0.244 -8.112 1.992 -11.536 -18.646 19.257 -320.191 3099.381 -2997.147 0.302 -1.602 -0.814 -0.04 0.66 -0.75 0
1 7.47 747 0.690 -7.935 1.968 -11.871 -18.372 15.991 -395.143 3174.332 -3027.128 -0.190 -1.786 -0.824 -0.04 0.66 -0.75 0.01
1 7.48 748 0.728 -7.853 2.040 -12.238 -17.822 14.679 -440.113 3054.260 -3072.249 -0.247 -1.870 -0.914 -0.04 0.66 -0.75 0.01
1 7.49 749 0.560 -7.978 1.992 -14.404 -17.273 14.252 -365.162 3174.332 -3072.249 -0.096 -1.748 -0.885 -0.04 0.66 -0.75 0.01
1 7.50 750 0.278 -8.112 1.992 -14.954 -17.273 13.001 -365.162 3174.332 -3072.249 0.170 -1.618 -0.907 -0.04 0.67 -0.75 0.01
1 7.51 751 0.182 -8.265 1.973 -14.771 -17.059 11.749 -350.172 2904.358 -3087.239 0.251 -1.467 -0.910 -0.04 0.67 -0.74 0.01
1 7.52 752 0.072 -8.418 1.920 -14.130 -15.717 10.590 -305.051 3144.352 -3042.268 0.348 -1.317 -0.878 -0.04 0.67 -0.74 0.01
1 7.53 753 0.062 -8.552 1.954 -13.123 -14.526 9.369 -305.051 3144.352 -3042.268 0.345 -1.186 -0.932 -0.04 0.67 -0.74 0.02
1 7.54 754 -0.038 -8.902 1.743 -12.939 -13.367 8.514 -292.459 3237.441 -3020.982 0.426 -0.841 -0.760 -0.04 0.67 -0.74 0.02
1 7.55 755 -0.062 -8.945 1.580 -11.719 -13.306 8.362 -352.420 3177.480 -2976.011 0.439 -0.799 -0.608 -0.04 0.67 -0.74 0.02
1 7.56 756 0.043 -9.151 1.484 -9.644 -14.038 8.240 -247.489 3117.369 -3141.054 0.321 -0.595 -0.524 -0.04 0.67 -0.74 0.02
1 7.57 757 0.158 -9.242 1.393 -8.911 -14.282 7.568 -247.489 3117.369 -3141.054 0.195 -0.505 -0.441 -0.04 0.67 -0.74 0.02
1 7.58 758 0.254 -9.429 1.106 -7.599 -14.343 6.928 -457.352 3132.359 -2976.011 0.090 -0.320 -0.162 -0.04 0.67 -0.74 0.02
1 7.59 759 0.345 -9.290 0.814 -4.425 -14.557 5.615 -292.459 3087.389 -2946.031 -0.008 -0.460 0.122 -0.04 0.67 -0.74 0.02
1 7.60 760 0.254 -9.252 0.603 -2.686 -15.167 4.456 -292.459 3087.389 -2946.031 0.077 -0.499 0.327 -0.04 0.67 -0.74 0.02
1 7.61 761 -0.067 -9.031 0.134 -0.854 -16.052 1.831 -142.407 3162.490 -2991.001 0.392 -0.720 0.787 -0.05 0.67 -0.74 0.03
1 7.62 762 -0.139 -8.988 -0.091 0.275 -17.914 -1.068 -352.420 3132.359 -3036.122 0.464 -0.764 1.007 -0.05 0.67 -0.74 0.03
1 7.63 763 -0.484 -8.888 -0.010 -0.183 -19.836 -3.967 -412.381 3177.480 -2901.060 0.813 -0.864 0.920 -0.05 0.67 -0.74 0.03
1 7.64 764 -0.474 -8.878 -0.110 -1.434 -20.050 -6.256 -412.381 3177.480 -2901.060 0.809 -0.874 1.014 -0.05 0.67 -0.74 0.03
1 7.65 765 -0.350 -8.926 -0.244 -2.838 -19.775 -7.385 -382.401 3177.480 -2931.041 0.696 -0.827 1.143 -0.05 0.67 -0.74 0.03
1 7.66 766 -0.498 -8.821 -0.345 -4.150 -19.653 -7.294 -352.420 3327.382 -3005.992 0.857 -0.932 1.235 -0.05 0.67 -0.74 0.03
1 7.67 767 -0.680 -8.907 -0.551 -3.876 -19.959 -7.507 -352.420 3327.382 -3005.992 1.050 -0.847 1.427 -0.05 0.67 -0.74 0.03
1 7.68 768 -0.460 -8.849 -0.498 -6.561 -23.071 -9.735 -367.411 3387.493 -2916.050 0.854 -0.906 1.348 -0.06 0.67 -0.74 0.03
1 7.69 769 -0.412 -8.730 -0.584 -8.240 -24.597 -8.850 -292.459 3237.441 -2916.050 0.821 -1.026 1.419 -0.06 0.67 -0.74 0.03
1 7.70 770 -0.139 -8.572 -0.460 -9.033 -28.076 -8.118 -547.443 3087.389 -2841.099 0.565 -1.185 1.281 -0.06 0.67 -0.74 0.03
1 7.71 771 -0.220 -8.734 -0.283 -10.590 -30.975 -7.507 -547.443 3087.389 -2841.099 0.664 -1.022 1.090 -0.06 0.67 -0.73 0.03
1 7.72 772 -0.412 -9.017 -0.316 -11.505 -32.532 -6.866 -442.362 3312.392 -2991.001 0.872 -0.740 1.106 -0.06 0.68 -0.73 0.03
1 7.73 773 -0.670 -9.793 -0.053 -9.857 -37.140 -2.319 -487.482 3252.431 -2931.041 1.140 0.034 0.817 -0.06 0.68 -0.73 0.03
1 7.74 774 -0.728 -10.075 -0.096 -5.920 -38.910 -0.824 -487.482 3252.431 -2931.041 1.201 0.315 0.836 -0.07 0.68 -0.73 0.04
1 7.75 775 -0.393 -10.066 -0.053 -0.519 -41.443 1.160 -622.395 3192.470 -2841.099 0.864 0.304 0.774 -0.07 0.68 -0.73 0.04
1 7.76 776 0.426 -9.975 0.000 2.319 -42.206 5.157 -547.443 3267.421 -2916.050 0.038 0.211 0.706 -0.07 0.68 -0.73 0.04
1 7.77 777 1.125 -10.094 0.134 2.777 -40.863 8.392 -487.482 3522.405 -2795.979 -0.665 0.330 0.569 -0.07 0.68 -0.73 0.05
1 7.78 778 1.417 -10.310 0.254 3.143 -37.720 11.536 -487.482 3522.405 -2795.979 -0.960 0.546 0.449 -0.08 0.68 -0.73 0.05
1 7.79 779 1.484 -10.362 0.220 5.219 -34.210 13.153 -607.404 3102.379 -3005.992 -1.033 0.598 0.483 -0.08 0.68 -0.73 0.05
1 7.80 780 1.331 -10.444 -0.187 8.881 -24.445 14.832 -682.355 3297.402 -2856.089 -0.886 0.680 0.894 -0.08 0.68 -0.73 0.05
1 7.81 781 0.862 -10.492 -0.809 9.888 -22.247 16.724 -682.355 3297.402 -2856.089 -0.427 0.728 1.524 -0.08 0.68 -0.73 0.05
1 7.82 782 0.603 -10.482 -1.317 8.240 -22.339 17.181 -726.277 3300.700 -2880.973 -0.183 0.718 2.038 -0.08 0.68 -0.73 0.06
1 7.83 783 -0.125 -10.942 -0.618 7.141 -18.036 20.386 -546.244 3180.628 -2910.954 0.504 1.176 1.334 -0.08 0.68 -0.73 0.06
1 7.84 784 0.067 -12.268 3.544 5.890 -10.956 24.689 -636.335 3285.709 -2925.944 0.283 2.501 -2.823 -0.08 0.68 -0.73 0.06
1 7.85 785 2.313 -16.736 3.189 -16.205 11.169 44.037 -636.335 3285.709 -2925.944 -2.002 6.968 -2.465 -0.08 0.68 -0.73 0.06
1 7.86 786 3.266 -19.169 2.174 -9.583 26.428 71.533 -546.244 3300.700 -2880.973 -3.032 9.396 -1.478 -0.08 0.68 -0.73 0.07
1 7.87 787 2.907 -13.528 2.145 44.281 41.596 71.564 -576.225 3225.599 -3016.035 -2.786 3.754 -1.438 -0.07 0.68 -0.73 0.07
1 7.88 788 3.108 -9.946 1.959 5.493 32.379 48.462 -576.225 3225.599 -3016.035 -3.091 0.177 -1.182 -0.07 0.68 -0.73 0.07
1 7.89 789 0.527 -11.052 1.044 -11.810 25.726 35.309 -576.225 3300.700 -2940.934 -0.577 1.285 -0.237 -0.06 0.67 -0.73 0.07
1 7.90 790 -2.126 -11.679 0.575 -7.629 13.306 16.876 -576.225 3300.700 -2940.934 2.027 1.912 0.222 -0.06 0.68 -0.73 0.07
1 7.91 791 -1.767 -12.781 1.824 -14.191 -2.563 4.181 -441.312 3420.622 -2880.973 1.624 3.012 -1.055 -0.06 0.68 -0.73 0.07
1 7.92 792 -2.308 -12.929 1.762 -9.155 -0.336 1.770 -441.312 3420.622 -2880.973 2.163 3.159 -1.012 -0.06 0.68 -0.73 0.07
1 7.93 793 -3.165 -11.919 1.724 2.045 -1.129 8.240 -456.303 3360.661 -2895.963 3.017 2.148 -0.981 -0.06 0.68 -0.73 0.07
1 7.94 794 -3.041 -10.358 2.260 5.798 -4.608 17.761 -516.264 3225.599 -2910.954 2.878 0.588 -1.510 -0.06 0.68 -0.73 0.07
1 7.95 795 -2.265 -9.692 3.165 0.336 -3.418 28.504 -516.264 3225.599 -2910.954 2.075 -0.077 -2.407 -0.05 0.68 -0.73 0.07
1 7.96 796 -1.638 -9.175 3.457 5.463 -2.533 31.830 -351.221 3435.612 -3001.045 1.393 -0.591 -2.681 -0.05 0.68 -0.73 0.08
1 7.97 797 -0.330 -8.346 3.457 8.911 -1.495 32.044 -351.221 3435.612 -3001.045 0.027 -1.416 -2.656 -0.05 0.68 -0.73 0.08
1 7.98 798 0.785 -7.743 3.544 3.906 4.028 24.719 -441.312 3300.700 -2910.954 -1.187 -2.011 -2.684 -0.05 0.67 -0.73 0.08
1 7.99 799 0.790 -8.327 3.017 -1.343 3.296 14.618 -441.312 3300.700 -2910.954 -1.224 -1.425 -2.152 -0.05 0.67 -0.73 0.08
1 8.00 800 0.800 -8.979 2.471 -5.646 3.082 6.836 -307.600 3232.644 -2787.134 -1.247 -0.772 -1.600 -0.05 0.67 -0.73 0.08
1 8.01 801 0.551 -9.520 2.078 -7.996 3.784 0.183 -367.561 3322.585 -2832.105 -0.994 -0.231 -1.202 -0.05 0.67 -0.73 0.08
1 8.02 802 -0.072 -10.066 1.714 -7.385 5.188 -7.172 -367.561 3322.585 -2832.105 -0.360 0.314 -0.839 -0.05 0.67 -0.73 0.08
1 8.03 803 -0.728 -9.888 1.671 -3.021 7.080 -15.442 -382.551 3307.595 -2847.095 0.315 0.136 -0.797 -0.05 0.67 -0.73 0.08
1 8.04 804 -0.599 -9.467 1.681 -0.549 6.226 -16.327 -382.551 3307.595 -2847.095 0.208 -0.286 -0.806 -0.05 0.67 -0.73 0.08
1 8.05 805 0.239 -9.117 1.566 -1.862 4.822 -13.947 -397.541 3292.605 -2877.076 -0.585 -0.636 -0.680 -0.05 0.67 -0.73 0.08
1 8.06 806 0.795 -9.098 1.456 -1.862 5.615 -13.245 -397.541 3292.605 -2877.076 -1.116 -0.656 -0.566 -0.05 0.67 -0.73 0.08
1 8.07 807 1.106 -9.232 1.302 0.702 6.561 -13.275 -247.489 3322.585 -2832.105 -1.400 -0.522 -0.408 -0.05 0.67 -0.73 0.08
1 8.08 808 1.231 -9.175 1.326 2.808 7.965 -12.482 -202.518 3232.644 -2817.115 -1.494 -0.580 -0.425 -0.05 0.67 -0.74 0.07
1 8.09 809 1.053 -8.931 1.432 4.639 9.247 -10.864 -202.518 3232.644 -2817.115 -1.288 -0.824 -0.520 -0.05 0.67 -0.74 0.07
1 8.10 810 0.627 -8.797 1.537 5.402 9.888 -11.566 -352.570 3232.644 -2922.046 -0.835 -0.957 -0.613 -0.05 0.67 -0.74 0.07
1 8.11 811 0.397 -8.955 1.547 5.341 10.071 -11.902 -352.570 3232.644 -2922.046 -0.580 -0.799 -0.609 -0.05 0.67 -0.74 0.07
1 8.12 812 0.101 -9.079 1.762 6.226 8.209 -12.970 -442.512 3247.634 -2832.105 -0.236 -0.672 -0.794 -0.05 0.67 -0.74 0.07
1 8.13 813 -0.024 -9.170 1.633 6.958 7.202 -13.092 -442.512 3247.634 -2832.105 -0.090 -0.580 -0.647 -0.05 0.67 -0.74 0.06
1 8.14 814 -0.168 -9.256 1.671 7.629 7.111 -13.367 -292.609 3367.556 -2802.125 0.075 -0.492 -0.668 -0.05 0.67 -0.74 0.06
1 8.15 815 -0.062 -9.146 1.676 8.881 7.050 -13.763 -367.561 3292.605 -2727.173 -0.010 -0.600 -0.654 -0.05 0.67 -0.74 0.06
1 8.16 816 0.010 -9.046 1.662 9.186 6.775 -14.954 -367.561 3292.605 -2727.173 -0.060 -0.699 -0.620 -0.05 0.67 -0.74 0.06
1 8.17 817 0.283 -8.806 1.724 7.172 5.188 -15.106 -457.502 3202.664 -2892.066 -0.310 -0.936 -0.662 -0.05 0.67 -0.74 0.06
1 8.18 818 0.661 -8.816 1.695 6.622 4.700 -13.733 -457.502 3202.664 -2892.066 -0.664 -0.925 -0.615 -0.05 0.66 -0.74 0.06
1 8.19 819 0.910 -8.998 1.839 5.219 4.181 -12.970 -472.492 3247.634 -2907.056 -0.888 -0.741 -0.742 -0.05 0.66 -0.74 0.06
1 8.20 820 0.838 -8.950 1.690 5.859 6.256 -13.825 -367.561 3172.533 -2982.157 -0.762 -0.785 -0.563 -0.05 0.66 -0.74 0.05
1 8.21 821 0.661 -8.955 1.441 5.981 6.744 -14.252 -532.603 3232.644 -2817.115 -0.557 -0.778 -0.299 -0.05 0.66 -0.75 0.05
1 8.22 822 0.776 -8.773 1.355 6.409 7.599 -14.221 -412.531 3307.595 -2847.095 -0.645 -0.958 -0.199 -0.06 0.66 -0.75 0.05
1 8.23 823 0.833 -8.572 1.097 5.737 7.141 -12.634 -412.531 3307.595 -2847.095 -0.677 -1.157 0.073 -0.06 0.66 -0.75 0.05
1 8.24 824 0.723 -8.763 0.848 3.265 6.989 -14.160 -367.561 3247.634 -2802.125 -0.547 -0.964 0.332 -0.06 0.66 -0.75 0.05
1 8.25 825 0.766 -9.036 0.766 2.899 8.087 -13.580 -367.561 3247.634 -2802.125 -0.568 -0.690 0.420 -0.06 0.66 -0.75 0.05
1 8.26 826 0.685 -9.256 0.632 3.174 9.766 -12.024 -517.613 3247.634 -3012.138 -0.464 -0.468 0.560 -0.06 0.66 -0.75 0.05
1 8.27 827 0.608 -9.314 0.431 5.859 12.146 -9.705 -607.554 3202.664 -2922.046 -0.345 -0.409 0.769 -0.06 0.66 -0.75 0.04
1 8.28 828 0.757 -9.165 0.546 6.683 13.977 -6.805 -472.492 3292.605 -2682.053 -0.477 -0.556 0.660 -0.06 0.66 -0.75 0.04
1 8.29 829 0.910 -8.873 0.532 5.676 16.419 -4.425 -577.574 3322.585 -2877.076 -0.618 -0.847 0.682 -0.06 0.66 -0.75 0.04
1 8.30 830 0.895 -8.974 0.484 6.317 19.318 -1.984 -577.574 3322.585 -2877.076 -0.596 -0.745 0.737 -0.06 0.66 -0.75 0.04
1 8.31 831 1.092 -8.864 0.335 5.646 22.919 1.038 -607.554 3082.592 -2847.095 -0.788 -0.854 0.892 -0.06 0.66 -0.75 0.04
1 8.32 832 1.212 -8.739 0.326 4.456 27.924 3.143 -607.554 3082.592 -2847.095 -0.907 -0.978 0.906 -0.05 0.66 -0.75 0.04
1 8.33 833 1.274 -8.380 0.211 3.693 29.755 4.517 -607.554 3307.595 -2922.046 -0.971 -1.337 1.025 -0.05 0.66 -0.75 0.04
1 8.34 834 1.202 -8.466 0.206 0.549 29.572 3.357 -397.541 3247.634 -2982.157 -0.905 -1.250 1.035 -0.05 0.66 -0.75 0.04
1 8.35 835 0.781 -8.686 -0.086 -2.014 26.703 2.014 -547.593 3217.654 -2877.076 -0.501 -1.030 1.334 -0.05 0.66 -0.75 0.03
1 8.36 836 0.239 -8.983 -0.139 -3.143 25.055 0.275 -397.541 3217.654 -2937.187 0.035 -0.733 1.386 -0.05 0.66 -0.75 0.03
1 8.37 837 -0.249 -9.271 -0.268 -1.953 21.820 0.000 -397.541 3217.654 -2937.187 0.520 -0.447 1.509 -0.05 0.66 -0.75 0.03
1 8.38 838 -0.412 -9.299 -0.374 -0.763 17.273 -0.916 -487.632 3082.592 -2997.147 0.678 -0.419 1.604 -0.04 0.66 -0.75 0.03
1 8.39 839 -0.948 -9.419 -0.235 -0.214 12.848 -3.357 -487.632 3082.592 -2997.147 1.211 -0.301 1.456 -0.04 0.66 -0.75 0.03
1 8.40 840 -0.848 -9.644 -0.163 1.343 10.590 -3.113 -247.489 3142.553 -2877.076 1.107 -0.077 1.375 -0.04 0.66 -0.75 0.03
1 8.41 841 -0.661 -9.505 -0.081 2.808 10.315 -1.434 -487.632 3232.644 -2847.095 0.917 -0.217 1.286 -0.04 0.66 -0.75 0.03
1 8.42 842 0.359 -9.290 -0.192 3.845 15.625 0.763 -367.561 3142.553 -2832.105 -0.113 -0.434 1.390 -0.04 0.66 -0.75 0.03
1 8.43 843 1.178 -9.151 -0.345 3.204 22.339 3.510 -367.561 3172.533 -3012.138 -0.936 -0.573 1.540 -0.04 0.66 -0.75 0.03
1 8.44 844 1.398 -9.376 1.159 1.953 30.212 5.219 -367.561 3172.533 -3012.138 -1.159 -0.348 0.033 -0.04 0.66 -0.75 0.02
1 8.45 845 -0.493 -10.789 4.880 -2.380 12.756 -1.740 -322.590 3247.634 -2982.157 0.730 1.064 -3.688 -0.04 0.66 -0.75 0.02
1 8.46 846 -1.504 -15.434 2.571 -12.970 -6.348 -32.196 -322.590 3247.634 -2982.157 1.755 5.710 -1.378 -0.04 0.66 -0.75 0.02
1 8.47 847 -1.710 -15.333 3.486 39.093 -5.829 -56.580 -457.502 3202.664 -3027.128 2.023 5.610 -2.303 -0.04 0.66 -0.75 0.02
1 8.48 848 -2.753 -11.210 3.007 37.140 -10.773 -49.988 -292.609 3067.602 -2877.076 3.154 1.496 -1.778 -0.04 0.66 -0.75 0.02
1 8.49 849 -0.244 -10.434 0.828 -9.552 -0.214 -31.006 -472.492 3172.533 -2802.125 0.795 0.738 0.483 -0.05 0.66 -0.75 0.01
1 8.50 850 1.925 -11.493 1.255 -28.748 1.648 -6.775 -607.554 3007.641 -2892.066 -1.348 1.795 0.035 -0.05 0.66 -0.75 0.01
1 8.51 851 3.381 -14.591 1.628 -38.391 5.066 2.991 -607.554 3007.641 -2892.066 -2.798 4.887 -0.385 -0.05 0.66 -0.75 0.01
1 8.52 852 4.765 -16.885 1.542 -24.323 5.005 5.829 -487.632 3037.621 -2817.115 -4.187 7.174 -0.352 -0.05 0.66 -0.75 0.01
1 8.53 853 4.880 -15.367 2.413 3.723 8.331 3.174 -487.632 3037.621 -2817.115 -4.309 5.653 -1.246 -0.05 0.66 -0.75 0.01
1 8.54 854 1.887 -13.020 3.520 1.404 8.148 -10.529 -382.551 3157.543 -2997.147 -1.318 3.308 -2.341 -0.05 0.66 -0.75 0.01
1 8.55 855 1.135 -13.149 3.467 3.326 2.167 -14.679 -442.512 3097.582 -2802.125 -0.554 3.439 -2.281 -0.05 0.66 -0.75 0.01
1 8.56 856 0.067 -11.651 3.462 11.932 7.446 -12.634 -487.632 3157.543 -2892.066 0.559 1.945 -2.256 -0.05 0.66 -0.75 0.01
1 8.57 857 -0.570 -10.837 3.371 11.261 10.651 -12.146 -457.502 3112.572 -2742.164 1.214 1.135 -2.146 -0.05 0.66 -0.75 0.01
1 8.58 858 -1.245 -8.969 2.902 9.064 6.287 -5.066 -457.502 3112.572 -2742.164 1.897 -0.729 -1.652 -0.05 0.66 -0.75 0.01
1 8.59 859 -0.608 -8.045 2.792 3.937 1.617 -0.305 -442.512 3067.602 -2937.187 1.252 -1.650 -1.515 -0.05 0.66 -0.75 0.01
1 8.60 860 -0.110 -8.059 2.974 -1.740 -2.777 2.777 -442.512 3067.602 -2937.187 0.750 -1.635 -1.686 -0.05 0.66 -0.75 0.01
1 8.61 861 0.340 -8.595 2.701 -6.775 -8.057 2.747 -547.593 3022.631 -2877.076 0.298 -1.099 -1.416 -0.05 0.66 -0.75 0.01
1 8.62 862 0.287 -8.969 2.198 -8.026 -11.414 1.831 -517.613 3172.533 -2832.105 0.350 -0.727 -0.921 -0.05 0.66 -0.75 0.01
1 8.63 863 -0.105 -9.266 2.097 -5.615 -13.672 4.120 -517.613 3172.533 -2832.105 0.742 -0.430 -0.822 -0.05 0.66 -0.75 0.01
1 8.64 864 -0.158 -9.314 2.073 -6.744 -16.663 13.550 -517.613 2992.650 -2757.154 0.779 -0.383 -0.800 -0.05 0.66 -0.75 0.01
1 8.65 865 -0.345 -9.343 2.006 -7.782 -17.700 19.867 -517.613 2992.650 -2757.154 0.942 -0.357 -0.737 -0.05 0.66 -0.75 0.01
1 8.66 866 -0.455 -9.228 2.026 -8.759 -18.189 24.567 -547.593 3067.602 -2802.125 1.019 -0.474 -0.761 -0.05 0.66 -0.75 0.01
1 8.67 867 -0.541 -9.003 2.069 -8.423 -17.578 27.649 -547.593 3067.602 -2802.125 1.065 -0.702 -0.811 -0.05 0.66 -0.75 0.02
1 8.68 868 -0.326 -8.787 2.026 -9.674 -14.984 29.602 -472.492 3067.602 -2937.187 0.805 -0.921 -0.774 -0.05 0.66 -0.75 0.02
1 8.69 869 -0.096 -8.773 2.026 -9.583 -12.543 28.687 -472.492 3142.553 -2937.187 0.529 -0.938 -0.780 -0.05 0.66 -0.75 0.02
1 8.70 870 0.081 -8.509 1.805 -8.545 -10.559 26.184 -472.492 3142.553 -2937.187 0.308 -1.204 -0.566 -0.05 0.66 -0.75 0.02
1 8.71 871 0.359 -8.083 1.839 -6.165 -8.820 19.287 -562.583 3082.592 -2742.164 -0.040 -1.635 -0.616 -0.05 0.66 -0.75 0.03
1 8.72 872 0.417 -8.006 1.753 -7.172 -9.338 14.221 -562.583 3082.592 -2742.164 -0.121 -1.713 -0.537 -0.05 0.66 -0.75 0.03
1 8.73 873 0.378 -7.896 1.887 -9.430 -9.857 9.552 -442.512 3022.631 -2832.105 -0.099 -1.825 -0.682 -0.05 0.66 -0.75 0.03
1 8.74 874 0.230 -8.323 1.882 -10.864 -9.125 5.371 -442.512 3022.631 -2832.105 0.041 -1.401 -0.691 -0.05 0.66 -0.75 0.03
1 8.75 875 -0.101 -8.768 1.844 -11.261 -9.735 2.594 -532.603 2977.660 -2742.164 0.367 -0.958 -0.668 -0.05 0.66 -0.75 0.03
1 8.76 876 -0.316 -8.955 1.753 -8.331 -10.498 0.763 -412.531 3037.621 -2787.134 0.582 -0.772 -0.589 -0.05 0.66 -0.75 0.03
1 8.77 877 -0.316 -8.720 1.762 -6.836 -10.407 0.122 -412.531 3037.621 -2787.134 0.581 -1.008 -0.605 -0.05 0.66 -0.75 0.03
1 8.78 878 -0.378 -8.586 1.700 -7.538 -9.796 0.061 -472.492 3172.533 -2727.173 0.642 -1.142 -0.547 -0.05 0.66 -0.75 0.03
1 8.79 879 -0.283 -8.696 1.733 -10.803 -8.881 -0.153 -577.574 3142.553 -2757.154 0.551 -1.034 -0.599 -0.05 0.66 -0.75 0.04
1 8.80 880 -0.172 -8.959 1.642 -11.017 -8.698 -0.153 -457.502 3157.543 -2637.082 0.443 -0.772 -0.521 -0.05 0.66 -0.75 0.04
1 8.81 881 -0.201 -9.290 1.504 -10.101 -7.629 -0.427 -457.502 3157.543 -2637.082 0.473 -0.443 -0.393 -0.05 0.66 -0.75 0.04
1 8.82 882 -0.206 -9.501 1.537 -8.118 -7.294 -1.526 -577.574 3142.553 -2727.173 0.478 -0.234 -0.436 -0.05 0.66 -0.74 0.04
1 8.83 883 -0.263 -9.371 1.480 -5.981 -7.507 -1.526 -622.544 3172.533 -2802.125 0.537 -0.364 -0.385 -0.05 0.66 -0.74 0.04
1 8.84 884 -0.034 -9.343 1.446 -5.096 -8.240 -2.258 -622.544 3172.533 -2802.125 0.309 -0.393 -0.357 -0.05 0.66 -0.74 0.04
1 8.85 885 -0.077 -9.247 1.235 -3.876 -8.484 -2.197 -532.603 3037.621 -2712.183 0.354 -0.489 -0.150 -0.05 0.66 -0.74 0.04
1 8.86 886 0.010 -9.467 1.144 -2.167 -8.362 -0.977 -577.574 3142.553 -2727.173 0.275 -0.269 -0.064 -0.06 0.66 -0.74 0.04
1 8.87 887 -0.153 -9.290 0.919 -1.495 -8.820 -0.641 -562.583 3082.592 -2787.134 0.441 -0.446 0.160 -0.06 0.66 -0.74 0.04
1 8.88 888 -0.263 -9.285 0.757 -0.885 -8.514 -0.580 -562.583 3082.592 -2787.134 0.552 -0.451 0.322 -0.06 0.66 -0.74 0.04
1 8.89 889 -0.340 -9.199 0.857 -1.892 -9.766 -0.671 -517.613 3172.533 -2577.121 0.629 -0.538 0.219 -0.06 0.66 -0.74 0.04
1 8.90 890 -0.551 -9.189 0.723 -1.648 -10.101 -0.214 -607.554 3082.592 -2637.082 0.840 -0.548 0.350 -0.06 0.66 -0.74 0.04
1 8.91 891 -0.661 -9.194 0.575 -2.106 -11.658 -1.434 -607.554 3082.592 -2637.082 0.948 -0.543 0.494 -0.06 0.66 -0.74 0.04
1 8.92 892 -0.599 -9.156 0.350 -2.594 -12.268 -2.533 -517.613 3097.582 -2577.121 0.884 -0.582 0.715 -0.06 0.67 -0.74 0.04
1 8.93 893 -0.350 -9.050 0.287 -1.434 -12.116 -4.669 -562.583 3082.592 -2787.134 0.639 -0.689 0.765 -0.06 0.67 -0.74 0.04
1 8.94 894 -0.378 -8.931 0.239 -1.953 -11.658 -5.615 -547.593 3022.631 -2727.173 0.673 -0.809 0.807 -0.06 0.67 -0.74 0.05
1 8.95 895 -0.359 -8.868 -0.091 -2.533 -12.207 -7.813 -547.593 3022.631 -2727.173 0.662 -0.872 1.129 -0.06 0.67 -0.74 0.05
1 8.96 896 -0.522 -8.926 -0.101 -2.106 -13.306 -10.864 -517.613 3022.631 -2652.072 0.836 -0.815 1.129 -0.06 0.67 -0.74 0.05
1 8.97 897 -0.374 -8.878 -0.211 -1.892 -15.595 -12.146 -652.525 3172.533 -2682.053 0.703 -0.863 1.229 -0.06 0.67 -0.74 0.05
1 8.98 898 -0.316 -9.141 -0.148 -3.113 -17.700 -12.421 -652.525 3172.533 -2682.053 0.663 -0.601 1.156 -0.07 0.67 -0.74 0.05
1 8.99 899 -0.206 -9.055 -0.134 -1.617 -18.829 -13.153 -547.593 3067.602 -2682.053 0.571 -0.687 1.130 -0.07 0.67 -0.74 0.05
1 9.00 900 -0.407 -8.983 0.120 -0.732 -21.607 -13.275 -771.697 2988.603 -2755.355 0.812 -0.759 0.859 -0.07 0.67 -0.74 0.05
1 9.01 901 -0.656 -9.089 0.168 -1.312 -22.980 -12.726 -771.697 3138.655 -2620.293 1.080 -0.654 0.804 -0.07 0.67 -0.74 0.05
1 9.02 902 -1.188 -9.070 0.254 -1.221 -27.710 -11.719 -771.697 3138.655 -2620.293 1.626 -0.673 0.710 -0.08 0.67 -0.74 0.05
1 9.03 903 -1.058 -9.156 0.335 -0.610 -30.762 -10.864 -711.586 3033.574 -2710.384 1.509 -0.587 0.623 -0.08 0.67 -0.74 0.05
1 9.04 904 -0.958 -9.357 0.369 -1.495 -32.837 -9.155 -741.567 3003.593 -2635.283 1.419 -0.386 0.583 -0.08 0.67 -0.74 0.05
1 9.05 905 -0.383 -9.395 0.048 -1.099 -35.156 -9.888 -741.567 3003.593 -2635.283 0.854 -0.348 0.897 -0.08 0.67 -0.74 0.05
1 9.06 906 0.134 -9.515 -0.144 -2.258 -36.011 -10.498 -696.596 3168.636 -2725.375 0.349 -0.228 1.080 -0.08 0.67 -0.74 0.06
1 9.07 907 0.474 -9.855 -0.225 -3.357 -36.102 -8.331 -876.629 2913.652 -2680.404 0.026 0.112 1.151 -0.09 0.67 -0.74 0.06
1 9.08 908 0.498 -9.994 -0.508 -3.326 -35.980 -3.754 -921.600 3063.554 -2680.404 0.034 0.249 1.405 -0.09 0.67 -0.74 0.06
1 9.09 909 0.354 -10.166 -0.771 -2.747 -35.401 -1.160 -921.600 3063.554 -2680.404 0.188 0.421 1.651 -0.09 0.67 -0.74 0.06
1 9.10 910 0.421 -10.549 -0.905 -1.129 -33.356 1.129 -921.600 2838.551 -2620.293 0.128 0.803 1.769 -0.1 0.67 -0.73 0.06
1 9.11 911 0.488 -10.817 -1.077 0.336 -29.633 5.524 -816.668 2973.613 -2665.414 0.063 1.070 1.925 -0.1 0.67 -0.73 0.07
1 9.12 912 0.326 -10.774 -0.977 3.357 -23.682 8.911 -816.668 2973.613 -2665.414 0.221 1.026 1.818 -0.1 0.67 -0.73 0.07
1 9.13 913 -0.172 -10.803 -0.953 5.951 -20.752 9.888 -876.629 3168.636 -2620.293 0.712 1.054 1.797 -0.1 0.67 -0.73 0.07
1 9.14 914 -0.445 -10.841 0.326 8.820 -18.646 9.888 -936.590 2943.632 -2665.414 0.975 1.093 0.526 -0.1 0.67 -0.73 0.07
1 9.15 915 1.963 -14.936 5.449 -8.698 3.174 22.888 -861.639 3153.646 -2455.400 -1.459 5.188 -4.577 -0.1 0.67 -0.73 0.07
1 9.16 916 4.042 -20.155 3.079 -20.538 27.893 53.620 -861.639 3153.646 -2455.400 -3.582 10.403 -2.227 -0.1 0.67 -0.73 0.08
1 9.17 917 3.879 -16.458 3.769 36.255 44.830 69.550 -1011.691 3003.593 -2635.283 -3.511 6.702 -2.925 -0.1 0.67 -0.73 0.08
1 9.18 918 3.879 -10.750 3.448 46.814 53.925 56.610 -861.639 3003.593 -2635.283 -3.617 0.997 -2.534 -0.09 0.67 -0.74 0.08
1 9.19 919 4.372 -9.682 2.677 7.874 39.673 51.758 -861.639 3003.593 -2635.283 -4.197 -0.068 -1.704 -0.08 0.67 -0.74 0.08
1 9.20 920 -0.283 -10.415 0.747 -7.751 20.172 30.609 -846.648 3093.535 -2575.322 0.378 0.665 0.232 -0.08 0.67 -0.74 0.08
1 9.21 921 -2.184 -11.588 0.455 -16.815 1.282 14.557 -786.688 2943.632 -2785.335 2.242 1.837 0.522 -0.08 0.67 -0.74 0.08
1 9.22 922 -2.797 -12.244 0.584 -10.712 -9.064 4.395 -786.688 2943.632 -2785.335 2.828 2.491 0.371 -0.08 0.67 -0.74 0.08
1 9.23 923 -3.946 -11.335 1.738 7.080 -3.815 -3.662 -636.635 3003.593 -2710.384 3.977 1.580 -0.800 -0.08 0.67 -0.74 0.08
1 9.24 924 -4.156 -10.607 2.289 7.355 -0.336 7.599 -696.596 2883.521 -2755.355 4.192 0.853 -1.338 -0.08 0.67 -0.74 0.08
1 9.25 925 -2.921 -10.238 2.624 2.563 3.784 24.017 -771.697 3093.535 -2575.322 2.941 0.485 -1.664 -0.08 0.67 -0.74 0.08
1 9.26 926 -1.662 -9.759 2.787 1.495 9.888 36.682 -771.697 3093.535 -2575.322 1.641 0.007 -1.822 -0.08 0.67 -0.74 0.09
1 9.27 927 0.383 -8.634 3.141 8.057 12.726 39.978 -891.619 3078.544 -2530.352 -0.474 -1.116 -2.158 -0.07 0.67 -0.74 0.09
1 9.28 928 1.767 -7.839 3.381 8.331 14.435 38.910 -741.567 2898.662 -2740.365 -1.922 -1.908 -2.372 -0.07 0.67 -0.74 0.09
1 9.29 929 2.346 -7.494 3.304 4.974 17.426 35.553 -741.567 2898.662 -2740.365 -2.553 -2.248 -2.264 -0.07 0.67 -0.74 0.09
1 9.30 930 2.088 -8.409 2.974 -5.310 20.233 25.604 -711.586 2973.613 -2710.384 -2.397 -1.330 -1.924 -0.06 0.67 -0.74 0.09
1 9.31 931 1.465 -9.467 2.715 -6.989 21.240 17.700 -576.674 3018.583 -2830.306 -1.802 -0.271 -1.666 -0.06 0.67 -0.74 0.09
1 9.32 932 0.532 -9.553 2.461 -5.127 25.696 10.468 -561.684 2973.613 -2815.316 -0.880 -0.184 -1.408 -0.06 0.67 -0.74 0.09
1 9.33 933 -0.263 -9.496 2.327 -7.996 31.677 2.716 -561.684 2973.613 -2815.316 -0.092 -0.241 -1.270 -0.06 0.67 -0.74 0.09
1 9.34 934 -0.905 -9.520 2.073 -7.660 37.506 -3.357 -546.694 2958.623 -2575.322 0.547 -0.217 -1.019 -0.06 0.67 -0.74 0.09
1 9.35 935 -0.857 -9.098 1.743 -7.507 40.894 -6.836 -576.674 2988.603 -2725.375 0.498 -0.639 -0.692 -0.05 0.67 -0.74 0.09
1 9.36 936 -0.244 -8.902 1.623 -8.575 40.772 -7.385 -576.674 2988.603 -2725.375 -0.116 -0.835 -0.578 -0.05 0.67 -0.74 0.09
1 9.37 937 0.642 -9.237 1.537 -11.017 39.734 -6.622 -516.563 2883.521 -2830.306 -0.991 -0.503 -0.510 -0.05 0.67 -0.74 0.08
1 9.38 938 0.881 -9.438 1.494 -10.254 40.436 -5.371 -441.612 3018.583 -2800.326 -1.219 -0.303 -0.479 -0.05 0.67 -0.74 0.08
1 9.39 939 0.560 -9.424 1.360 -7.751 41.596 -3.693 -471.593 2913.652 -2725.375 -0.886 -0.319 -0.357 -0.05 0.67 -0.74 0.08
1 9.40 940 0.263 -9.074 1.274 -6.073 41.657 -1.648 -471.593 2913.652 -2725.375 -0.582 -0.670 -0.278 -0.04 0.67 -0.74 0.07
1 9.41 941 0.364 -8.696 1.417 -6.348 41.992 -1.740 -516.563 2913.652 -2830.306 -0.680 -1.049 -0.428 -0.04 0.67 -0.74 0.07
1 9.42 942 0.259 -8.648 1.484 -8.026 42.847 -2.960 -456.603 3078.544 -2635.283 -0.574 -1.097 -0.504 -0.04 0.67 -0.74 0.07
1 9.43 943 0.177 -8.883 1.532 -9.094 43.671 -5.096 -456.603 3078.544 -2635.283 -0.494 -0.864 -0.563 -0.04 0.67 -0.74 0.07
1 9.44 944 0.225 -9.290 1.595 -9.430 42.542 -7.538 -396.642 2988.603 -2725.375 -0.528 -0.459 -0.647 -0.03 0.67 -0.74 0.06
1 9.45 945 0.263 -9.228 1.647 -9.155 42.450 -8.667 -366.811 3016.185 -2649.224 -0.555 -0.523 -0.708 -0.03 0.67 -0.74 0.06
1 9.46 946 0.129 -9.496 1.666 -8.362 42.023 -9.155 -456.902 2866.133 -2784.136 -0.408 -0.256 -0.735 -0.03 0.67 -0.74 0.06
1 9.47 947 0.062 -9.424 1.599 -8.698 41.412 -9.705 -456.902 2866.133 -2784.136 -0.328 -0.329 -0.675 -0.03 0.67 -0.74 0.05
1 9.48 948 0.067 -9.314 1.666 -9.064 39.887 -10.620 -456.902 3031.175 -2664.214 -0.319 -0.440 -0.750 -0.03 0.67 -0.74 0.05
1 9.49 949 0.120 -9.568 1.729 -8.789 39.032 -10.925 -396.792 3016.185 -2754.156 -0.357 -0.187 -0.819 -0.03 0.67 -0.74 0.05
1 9.50 950 -0.029 -9.548 1.628 -8.270 38.941 -10.559 -396.792 3016.185 -2754.156 -0.193 -0.207 -0.726 -0.03 0.67 -0.74 0.05
1 9.51 951 0.019 -9.472 1.599 -7.874 38.330 -10.529 -231.899 2821.162 -2709.185 -0.227 -0.285 -0.703 -0.02 0.67 -0.74 0.04
1 9.52 952 0.043 -9.850 1.801 -7.507 38.544 -10.895 -396.792 2911.253 -2724.175 -0.222 0.092 -0.916 -0.02 0.67 -0.74 0.04
1 9.53 953 0.163 -9.951 1.705 -5.829 38.666 -10.712 -396.792 2956.224 -2754.156 -0.328 0.192 -0.824 -0.02 0.67 -0.74 0.04
1 9.54 954 0.268 -9.864 1.681 -3.021 40.009 -9.827 -396.792 2956.224 -2754.156 -0.418 0.105 -0.800 -0.02 0.67 -0.74 0.03
1 9.55 955 0.273 -9.592 1.619 -1.434 41.870 -8.301 -516.863 3091.136 -2799.126 -0.410 -0.168 -0.735 -0.02 0.67 -0.74 0.03
1 9.56 956 0.254 -9.371 1.374 -1.007 43.762 -8.240 -396.792 3061.156 -2649.224 -0.379 -0.388 -0.486 -0.02 0.67 -0.74 0.03
1 9.57 957 0.230 -9.271 1.164 -1.770 45.075 -7.874 -396.792 3061.156 -2649.224 -0.344 -0.488 -0.271 -0.02 0.67 -0.74 0.03
1 9.58 958 0.493 -9.405 1.154 -2.533 45.624 -7.629 -276.870 2896.263 -2784.136 -0.597 -0.354 -0.260 -0.01 0.67 -0.74 0.02
1 9.59 959 0.924 -9.654 0.804 -1.282 48.248 -9.125 -291.860 2956.224 -2754.156 -1.006 -0.105 0.087 -0.01 0.67 -0.74 0.02
1 9.60 960 0.924 -9.663 0.637 -0.763 49.927 -8.698 -231.899 3001.195 -2844.247 -0.991 -0.096 0.254 -0.01 0.67 -0.74 0.01
1 9.61 961 0.910 -9.596 0.570 0.153 51.544 -7.568 -231.899 3001.195 -2844.247 -0.961 -0.163 0.320 -0.01 0.67 -0.74 0.01
1 9.62 962 0.948 -9.520 0.555 -0.305 52.704 -5.585 -441.762 2911.253 -2724.175 -0.987 -0.240 0.333 -0 0.67 -0.74 0.01
1 9.63 963 0.963 -9.654 0.551 -0.702 55.390 -4.425 -201.769 2971.214 -2784.136 -0.992 -0.106 0.335 -0 0.67 -0.74 0
1 9.64 964 1.168 -9.922 0.747 2.014 61.066 -2.228 -201.769 2971.214 -2784.136 -1.189 0.162 0.137 0 0.67 -0.74 0
1 9.65 965 1.192 -9.965 0.824 4.517 66.895 0.916 -141.808 3016.185 -2829.257 -1.206 0.205 0.062 -0 -0.67 0.74 0
1 9.66 966 1.312 -9.807 0.876 7.141 72.052 2.655 -141.808 3016.185 -2829.257 -1.324 0.048 0.016 -0.01 -0.67 0.74 0.01
1 9.67 967 1.561 -9.975 1.125 9.583 80.384 4.211 -276.870 2941.234 -2784.136 -1.579 0.218 -0.209 -0.01 -0.67 0.74 0.01
1 9.68 968 1.623 -9.984 1.130 12.085 86.762 4.211 -276.870 2941.234 -2784.136 -1.646 0.229 -0.196 -0.02 -0.67 0.74 0.02
1 9.69 969 1.475 -9.678 1.188 13.825 92.560 5.035 -156.798 3001.195 -2784.136 -1.503 -0.076 -0.232 -0.02 -0.67 0.74 0.02
1 9.70 970 1.135 -9.098 0.828 13.153 97.657 3.540 -81.847 2896.263 -2784.136 -1.171 -0.653 0.150 -0.03 -0.67 0.74 0.03
1 9.71 971 1.034 -8.605 0.378 6.989 101.044 1.617 -81.847 2896.263 -2784.136 -1.078 -1.144 0.620 -0.03 -0.67 0.74 0.03
1 9.72 972 0.967 -8.969 0.201 1.434 101.960 -0.519 -111.827 2911.253 -2874.228 -1.020 -0.779 0.808 -0.04 -0.67 0.74 0.04
1 9.73 973 1.025 -9.644 -0.005 -0.916 102.112 -2.686 -111.827 2911.253 -2874.228 -1.088 -0.103 1.017 -0.04 -0.67 0.74 0.04
1 9.74 974 0.943 -10.099 -0.215 -0.824 101.166 -4.028 23.085 2971.214 -2784.136 -1.009 0.351 1.222 -0.05 -0.67 0.74 0.05
1 9.75 975 0.958 -10.492 -0.239 3.021 98.542 -5.707 156.198 2833.004 -2932.090 -1.022 0.742 1.230 -0.06 -0.67 0.74 0.06
1 9.76 976 0.905 -10.430 -0.125 4.547 96.436 -5.676 156.198 2907.956 -2977.061 -0.967 0.679 1.111 -0.06 -0.67 0.74 0.06
1 9.77 977 0.924 -10.458 0.014 5.737 95.063 -6.592 111.228 2877.975 -2827.158 -0.982 0.708 0.970 -0.07 -0.67 0.74 0.07
1 9.78 978 0.757 -10.473 -0.024 6.592 94.483 -5.249 111.228 2877.975 -2827.158 -0.810 0.723 1.010 -0.07 -0.67 0.74 0.07
1 9.79 979 0.771 -10.310 0.096 9.613 96.833 -4.517 351.221 2818.014 -2887.119 -0.823 0.560 0.894 -0.08 -0.67 0.74 0.08
1 9.80 980 0.929 -10.200 -0.101 11.078 98.114 -4.089 351.221 2818.014 -2887.119 -0.981 0.451 1.098 -0.08 -0.67 0.74 0.08
1 9.81 981 1.240 -9.874 -0.091 11.810 100.159 -2.930 441.312 2877.975 -2932.090 -1.294 0.127 1.106 -0.09 -0.66 0.74 0.1
1 9.82 982 1.183 -10.123 -0.292 12.268 101.685 -1.373 441.312 2877.975 -2932.090 -1.238 0.377 1.317 -0.09 -0.66 0.74 0.1
1 9.83 983 1.183 -10.161 -0.512 16.449 103.485 0.183 351.221 2818.014 -2737.067 -1.242 0.416 1.548 -0.1 -0.66 0.74 0.11
1 9.84 984 1.255 -10.018 -0.551 20.996 105.072 2.075 636.186 2862.985 -2917.100 -1.319 0.274 1.601 -0.1 -0.66 0.74 0.11
1 9.85 985 1.039 -9.807 -0.838 26.154 106.568 3.937 632.438 2858.638 -2913.952 -1.113 0.066 1.910 -0.11 -0.66 0.74 0.12
1 9.86 986 -0.718 -11.105 4.908 29.907 95.337 4.272 707.389 2858.638 -2809.020 0.630 1.367 -3.810 -0.12 -0.66 0.74 0.12
1 9.87 987 -3.515 -15.687 3.702 22.430 64.362 -16.571 707.389 2858.638 -2809.020 3.410 5.955 -2.560 -0.12 -0.65 0.74 0.13
1 9.88 988 -4.463 -13.293 4.099 80.780 72.205 -31.250 572.477 2693.745 -2809.020 4.397 3.573 -2.854 -0.12 -0.65 0.74 0.14
1 9.89 989 -4.894 -9.682 4.305 85.358 76.325 -30.029 572.477 2693.745 -2809.020 4.861 -0.021 -2.935 -0.13 -0.64 0.74 0.14
1 9.90 990 -2.916 -6.062 3.175 34.699 86.670 -17.334 617.448 2753.706 -2868.981 2.891 -3.626 -1.700 -0.13 -0.64 0.74 0.15
1 9.91 991 0.048 -8.117 2.504 3.998 104.157 -3.174 812.471 2738.716 -2913.952 -0.074 -1.565 -0.988 -0.13 -0.64 0.74 0.15
1 9.92 992 0.943 -11.416 1.518 -12.207 119.843 -9.155 812.471 2738.716 -2913.952 -0.987 1.734 -0.003 -0.14 -0.64 0.74 0.16
1 9.93 993 1.379 -14.423 1.537 4.913 118.287 -9.491 917.402 2693.745 -2883.971 -1.433 4.739 -0.037 -0.14 -0.63 0.74 0.17
1 9.94 994 1.686 -14.227 1.954 18.616 106.354 -16.602 917.402 2693.745 -2883.971 -1.751 4.543 -0.451 -0.15 -0.63 0.74 0.17
1 9.95 995 1.312 -12.776 2.615 32.013 92.377 -27.924 947.383 2603.654 -2794.030 -1.379 3.096 -1.089 -0.16 -0.63 0.74 0.18
1 9.96 996 -0.924 -12.129 2.840 29.755 79.743 -42.572 1078.697 2675.757 -2866.433 0.908 2.464 -1.221 -0.16 -0.63 0.74 0.19
1 9.97 997 -2.270 -12.082 2.782 32.745 76.264 -38.147 988.606 2765.698 -2911.403 2.298 2.424 -1.117 -0.16 -0.62 0.74 0.2
