COL1	TIME	ACC_X	ACC_Y	ACC_Z	GYR_X	GYR_Y	GYR_Z	MAG_X	MAG_Y	MAG_Z	LACC_X	LACC_Y	LACC_Z	QUAT_X	QUAT_Y	QUAT_Z	QUAT_W
1 0.00 0 -0.172 -9.630 1.647 -4.303 -3.357 4.395 -67.906 3192.470 -3175.381 -0.235 -0.061 -0.247 -0.01 0.65 -0.75 0.05
1 0.01 1 -0.254 -9.831 1.714 -4.883 -2.319 5.127 111.977 3117.369 -3175.381 -0.157 0.140 -0.319 -0.01 0.65 -0.75 0.05
1 0.02 2 -0.172 -9.754 1.652 -4.334 -2.502 5.646 111.977 3117.369 -3175.381 -0.245 0.062 -0.261 -0.01 0.65 -0.75 0.05
1 0.03 3 -0.340 -9.850 1.671 -3.357 -2.960 6.378 -37.925 3072.398 -3250.482 -0.083 0.158 -0.286 -0.01 0.66 -0.75 0.05
1 0.04 4 -0.455 -9.716 1.499 -3.143 -3.082 6.348 37.026 3072.398 -2950.378 0.016 0.023 -0.121 -0.01 0.66 -0.75 0.05
1 0.05 5 -0.522 -9.855 1.551 -3.418 -4.028 6.012 37.026 3072.398 -2950.378 0.074 0.162 -0.177 -0.01 0.66 -0.75 0.05
1 0.06 6 -0.565 -9.706 1.408 -4.059 -5.493 5.829 37.026 3117.369 -3055.459 0.108 0.014 -0.037 -0.01 0.66 -0.75 0.05
1 0.07 7 -0.421 -9.860 1.580 -5.219 -6.805 4.974 37.026 3117.369 -3055.459 -0.043 0.166 -0.214 -0.01 0.66 -0.75 0.05
1 0.08 8 -0.402 -9.860 1.480 -5.157 -6.989 4.486 96.987 3102.379 -3295.453 -0.067 0.166 -0.119 -0.01 0.66 -0.75 0.05
1 0.09 9 -0.460 -9.869 1.614 -3.876 -7.416 4.334 96.987 3102.379 -3295.453 -0.014 0.175 -0.259 -0.01 0.66 -0.75 0.05
1 0.10 10 -0.565 -9.850 1.528 -3.265 -7.965 3.815 -127.867 3207.460 -3145.401 0.087 0.155 -0.177 -0.01 0.66 -0.75 0.05
1 0.11 11 -0.484 -9.807 1.551 -3.265 -9.460 2.350 -67.906 3147.350 -2995.349 -0.001 0.112 -0.207 -0.01 0.66 -0.75 0.05
1 0.12 12 -0.455 -10.037 1.508 -3.540 -10.345 2.563 -67.906 3147.350 -2995.349 -0.031 0.341 -0.166 -0.01 0.66 -0.75 0.05
1 0.13 13 -0.445 -9.860 1.604 -1.587 -11.231 2.747 201.918 2937.336 -3115.420 -0.042 0.164 -0.264 -0.01 0.66 -0.75 0.05
1 0.14 14 -0.239 -9.797 1.595 -0.580 -12.512 2.655 201.918 2937.336 -3115.420 -0.250 0.102 -0.254 -0.01 0.66 -0.75 0.05
1 0.15 15 -0.292 -9.831 1.547 -1.282 -13.306 2.411 -142.857 3147.350 -3175.381 -0.197 0.136 -0.205 -0.01 0.66 -0.75 0.05
1 0.16 16 -0.129 -9.860 1.599 -0.610 -13.977 2.258 -142.857 3147.350 -3175.381 -0.359 0.164 -0.257 -0.01 0.66 -0.75 0.05
1 0.17 17 -0.144 -9.754 1.575 -0.183 -13.367 2.350 37.026 3192.470 -3100.430 -0.343 0.059 -0.231 -0.02 0.66 -0.75 0.06
1 0.18 18 0.043 -9.721 1.633 -0.488 -12.695 2.289 -37.925 3117.369 -3205.362 -0.527 0.026 -0.286 -0.02 0.66 -0.75 0.06
1 0.19 19 0.096 -9.673 1.456 -1.495 -12.116 2.136 -37.925 3117.369 -3205.362 -0.575 -0.022 -0.106 -0.02 0.66 -0.75 0.06
1 0.20 20 0.072 -9.927 1.508 -0.946 -10.834 2.747 -37.925 3192.470 -3100.430 -0.548 0.232 -0.158 -0.02 0.66 -0.75 0.06
1 0.21 21 0.077 -9.697 1.518 0.000 -10.681 2.991 -37.925 3192.470 -3100.430 -0.550 0.002 -0.167 -0.02 0.66 -0.75 0.06
1 0.22 22 -0.014 -9.654 1.360 -1.404 -9.491 2.747 -52.916 3252.431 -3085.440 -0.458 -0.041 -0.007 -0.02 0.66 -0.75 0.06
1 0.23 23 -0.024 -9.706 1.475 -2.014 -8.606 2.686 -52.916 3252.431 -3085.440 -0.447 0.011 -0.124 -0.02 0.66 -0.75 0.06
1 0.24 24 -0.053 -9.721 1.398 -1.648 -8.240 3.204 -67.906 3042.418 -3055.459 -0.417 0.026 -0.048 -0.02 0.66 -0.75 0.06
1 0.25 25 -0.067 -9.812 1.470 -1.465 -7.843 2.777 -97.886 3132.359 -3265.473 -0.402 0.116 -0.122 -0.02 0.66 -0.75 0.06
1 0.26 26 0.024 -9.879 1.389 -2.228 -6.500 3.448 -97.886 3132.359 -3265.473 -0.492 0.183 -0.043 -0.02 0.66 -0.75 0.06
1 0.27 27 -0.110 -9.745 1.456 -2.228 -6.042 2.228 -112.876 2967.467 -3250.482 -0.357 0.048 -0.113 -0.02 0.66 -0.75 0.06
1 0.28 28 -0.120 -9.687 1.370 -1.740 -6.287 2.228 -112.876 2967.467 -3250.482 -0.346 -0.009 -0.029 -0.02 0.66 -0.75 0.06
1 0.29 29 -0.014 -9.769 1.408 -2.533 -5.554 2.350 -52.916 3132.359 -3220.352 -0.450 0.072 -0.069 -0.02 0.66 -0.75 0.06
1 0.30 30 0.110 -9.932 1.365 -3.326 -4.456 2.380 -97.886 3207.460 -3145.401 -0.574 0.234 -0.030 -0.02 0.66 -0.75 0.06
1 0.31 31 0.081 -9.850 1.408 -2.289 -2.747 2.625 -112.876 3147.350 -3055.459 -0.544 0.152 -0.077 -0.02 0.66 -0.75 0.06
1 0.32 32 0.048 -9.788 1.389 -0.549 -0.366 3.265 -22.935 3102.379 -3085.440 -0.510 0.089 -0.061 -0.02 0.66 -0.75 0.06
1 0.33 33 0.120 -9.884 1.173 -1.740 1.099 3.387 -22.935 3102.379 -3085.440 -0.582 0.185 0.153 -0.02 0.66 -0.75 0.06
1 0.34 34 0.005 -9.946 1.484 -1.038 2.319 2.533 -37.925 3117.369 -3100.430 -0.468 0.247 -0.162 -0.02 0.66 -0.75 0.06
1 0.35 35 -0.101 -9.922 1.307 -0.580 3.723 2.533 -37.925 3117.369 -3100.430 -0.363 0.223 0.014 -0.02 0.66 -0.75 0.06
1 0.36 36 -0.053 -10.008 1.379 0.031 4.852 2.411 -142.857 3117.369 -3100.430 -0.412 0.309 -0.058 -0.02 0.66 -0.75 0.06
1 0.37 37 -0.139 -10.066 1.528 1.923 4.456 2.167 -67.906 3117.369 -3205.362 -0.327 0.366 -0.207 -0.02 0.66 -0.75 0.06
1 0.38 38 -0.139 -9.841 1.465 1.740 5.127 1.556 -7.945 2967.467 -3250.482 -0.329 0.142 -0.142 -0.02 0.66 -0.75 0.06
1 0.39 39 -0.153 -9.817 1.461 2.258 4.425 1.221 -202.818 3102.379 -3265.473 -0.315 0.118 -0.133 -0.02 0.66 -0.75 0.06
1 0.40 40 0.057 -9.884 1.571 2.258 4.486 0.641 -202.818 3102.379 -3265.473 -0.526 0.186 -0.235 -0.02 0.66 -0.75 0.06
1 0.41 41 -0.024 -9.879 1.537 3.265 5.066 0.854 -7.945 3147.350 -3175.381 -0.443 0.182 -0.196 -0.02 0.66 -0.75 0.06
1 0.42 42 -0.192 -9.884 1.537 4.242 5.615 0.488 -7.945 3147.350 -3175.381 -0.273 0.188 -0.190 -0.02 0.66 -0.75 0.06
1 0.43 43 -0.268 -9.726 1.441 4.242 5.219 -0.183 -187.828 3147.350 -3175.381 -0.196 0.031 -0.087 -0.02 0.66 -0.75 0.06
1 0.44 44 -0.287 -9.898 1.580 3.540 4.974 -1.099 -97.886 3252.431 -3145.401 -0.175 0.204 -0.220 -0.02 0.66 -0.75 0.06
1 0.45 45 -0.397 -10.181 1.513 4.150 4.242 -1.373 -67.906 2997.447 -3175.381 -0.063 0.487 -0.146 -0.02 0.66 -0.75 0.06
1 0.46 46 -0.508 -10.310 1.662 5.981 3.693 -2.899 -7.945 3192.470 -3130.411 0.049 0.617 -0.288 -0.02 0.66 -0.75 0.06
1 0.47 47 -0.560 -10.358 1.839 7.660 1.587 -3.113 -7.945 3192.470 -3130.411 0.105 0.666 -0.456 -0.02 0.66 -0.75 0.06
1 0.48 48 -0.383 -10.171 1.743 11.627 -0.153 -5.219 -7.945 3117.369 -3130.411 -0.062 0.483 -0.332 -0.02 0.65 -0.75 0.06
1 0.49 49 -0.522 -9.960 1.882 13.519 -0.549 -7.965 -7.945 3117.369 -3130.411 0.086 0.275 -0.451 -0.02 0.65 -0.75 0.06
1 0.50 50 -0.690 -9.888 1.767 11.871 -0.610 -10.681 -187.828 3117.369 -3250.482 0.266 0.206 -0.314 -0.02 0.65 -0.76 0.06
1 0.51 51 -0.819 -9.817 1.815 11.261 -4.028 -13.550 -37.925 2997.447 -3175.381 0.411 0.136 -0.342 -0.02 0.65 -0.76 0.05
1 0.52 52 -0.503 -9.922 1.757 11.719 -9.430 -13.397 -52.916 3057.408 -3190.372 0.113 0.244 -0.265 -0.02 0.65 -0.76 0.05
1 0.53 53 -0.311 -9.754 1.647 11.688 -11.566 -12.238 -112.876 2997.447 -3250.482 -0.058 0.079 -0.136 -0.02 0.65 -0.76 0.05
1 0.54 54 0.062 -9.759 1.571 11.231 -13.123 -10.498 -112.876 2997.447 -3250.482 -0.411 0.086 -0.040 -0.02 0.65 -0.76 0.05
1 0.55 55 0.263 -9.577 1.475 9.308 -15.076 -7.904 -112.876 3042.418 -3100.430 -0.572 -0.092 0.090 -0.02 0.65 -0.76 0.05
1 0.56 56 0.283 -9.338 1.355 8.575 -15.259 -5.524 -112.876 3042.418 -3100.430 -0.572 -0.330 0.224 -0.03 0.65 -0.76 0.05
1 0.57 57 0.517 -9.290 1.240 7.324 -15.472 -3.754 -127.867 3102.379 -3265.473 -0.792 -0.376 0.351 -0.03 0.65 -0.76 0.05
1 0.58 58 0.532 -9.242 1.250 6.531 -16.632 -0.610 -37.925 3072.398 -3250.482 -0.793 -0.423 0.350 -0.03 0.65 -0.76 0.05
1 0.59 59 0.982 -9.156 1.202 4.944 -14.740 3.906 -37.925 3042.418 -3280.463 -1.233 -0.508 0.406 -0.03 0.65 -0.76 0.05
1 0.60 60 1.168 -9.055 1.144 3.174 -12.177 6.409 -142.857 3042.418 -3355.414 -1.413 -0.608 0.469 -0.03 0.65 -0.76 0.05
1 0.61 61 1.317 -9.098 0.967 2.106 -9.552 8.850 -142.857 3042.418 -3355.414 -1.558 -0.565 0.649 -0.03 0.65 -0.76 0.06
1 0.62 62 1.417 -9.156 1.034 2.075 -5.615 12.451 -172.837 2907.356 -3190.372 -1.657 -0.507 0.582 -0.03 0.65 -0.76 0.06
1 0.63 63 1.355 -9.003 1.221 -1.678 3.937 15.472 -172.837 2907.356 -3190.372 -1.606 -0.660 0.393 -0.03 0.65 -0.76 0.06
1 0.64 64 1.125 -9.113 1.346 -4.150 11.902 15.595 -37.925 2967.467 -3310.443 -1.388 -0.551 0.263 -0.03 0.65 -0.76 0.06
1 0.65 65 0.666 -9.386 1.317 -6.317 18.311 14.618 -307.899 3102.379 -3340.424 -0.943 -0.279 0.282 -0.03 0.65 -0.76 0.06
1 0.66 66 0.235 -9.745 1.403 -7.629 23.316 14.099 -26.683 3061.905 -3388.393 -0.530 0.078 0.183 -0.03 0.65 -0.76 0.06
1 0.67 67 -0.048 -10.037 1.427 -5.676 28.961 13.550 -116.774 3001.794 -3343.422 -0.269 0.369 0.146 -0.03 0.65 -0.76 0.06
1 0.68 68 -0.374 -9.903 1.528 -5.219 32.288 11.932 -116.774 3001.794 -3343.422 0.033 0.234 0.033 -0.02 0.65 -0.76 0.05
1 0.69 69 -0.632 -9.970 1.551 -6.744 32.806 10.895 -56.663 3016.785 -3253.480 0.269 0.300 -0.001 -0.02 0.65 -0.76 0.05
1 0.70 70 -0.915 -10.118 1.647 -8.637 29.755 8.881 -56.663 3016.785 -3253.480 0.502 0.446 -0.123 -0.02 0.65 -0.76 0.05
1 0.71 71 -0.872 -10.204 1.657 -8.698 26.459 7.446 18.138 3061.905 -3133.409 0.435 0.531 -0.147 -0.01 0.65 -0.76 0.05
1 0.72 72 -0.709 -10.343 1.705 -6.928 24.750 6.653 -56.663 2941.833 -3283.461 0.252 0.669 -0.209 -0.01 0.65 -0.76 0.05
1 0.73 73 -0.646 -10.190 1.614 -4.425 22.736 5.707 -56.663 2941.833 -3283.461 0.172 0.515 -0.128 -0.01 0.65 -0.76 0.05
1 0.74 74 -0.584 -10.018 1.551 -3.967 20.050 4.150 -176.735 3016.785 -3208.510 0.096 0.342 -0.073 -0.01 0.65 -0.76 0.05
1 0.75 75 -0.369 -10.003 1.585 -3.479 16.754 3.540 89.792 3065.203 -3275.366 -0.130 0.327 -0.114 -0.01 0.65 -0.76 0.05
1 0.76 76 -0.268 -9.999 1.724 -1.282 15.839 2.991 14.690 3065.203 -3200.265 -0.240 0.322 -0.259 -0.01 0.65 -0.76 0.05
1 0.77 77 -0.311 -9.697 1.796 0.214 16.052 1.770 14.690 3065.203 -3200.265 -0.209 0.021 -0.333 -0 0.65 -0.76 0.04
1 0.78 78 -0.460 -9.754 1.801 -0.946 15.381 0.214 14.690 2990.252 -3275.366 -0.065 0.078 -0.337 -0 0.65 -0.76 0.04
1 0.79 79 -0.599 -9.687 1.676 -1.129 15.228 -1.282 59.811 3125.314 -3230.246 0.072 0.011 -0.214 -0 0.65 -0.76 0.04
1 0.80 80 -0.709 -9.745 1.724 -0.580 14.496 -1.251 59.811 3125.314 -3230.246 0.181 0.069 -0.262 -0 0.65 -0.76 0.04
1 0.81 81 -0.809 -9.659 1.700 -1.526 11.169 -1.434 224.704 3110.324 -3170.285 0.279 -0.017 -0.239 -0 0.65 -0.76 0.04
1 0.82 82 -0.704 -9.788 1.733 -2.472 9.247 -1.404 224.704 3110.324 -3170.285 0.171 0.112 -0.274 0 0.65 -0.76 0.04
1 0.83 83 -0.675 -9.778 1.743 -2.014 8.911 -2.289 134.762 3050.213 -3230.246 0.140 0.102 -0.285 0 0.65 -0.76 0.04
1 0.84 84 -0.766 -9.788 1.719 -1.740 8.606 -1.251 134.762 3050.213 -3230.246 0.231 0.111 -0.266 0 0.65 -0.76 0.04
1 0.85 85 -0.627 -9.946 1.571 -0.793 8.362 -0.549 119.772 3020.232 -3095.333 0.090 0.269 -0.119 0 0.65 -0.76 0.04
1 0.86 86 -0.627 -9.778 1.786 -0.519 7.965 0.183 -15.140 3050.213 -3185.275 0.088 0.101 -0.336 0 0.65 -0.76 0.04
1 0.87 87 -0.680 -9.793 1.705 -1.465 7.568 0.305 -15.140 3050.213 -3185.275 0.138 0.116 -0.254 0 0.65 -0.76 0.04
1 0.88 88 -0.757 -9.821 1.733 -1.068 6.561 0.641 89.792 3110.324 -3170.285 0.212 0.145 -0.283 0 0.65 -0.76 0.04
1 0.89 89 -0.752 -9.778 1.796 -0.610 5.585 0.793 89.792 3110.324 -3170.285 0.202 0.102 -0.346 0.01 0.65 -0.76 0.04
1 0.90 90 -0.809 -9.769 1.724 0.305 4.150 1.251 224.704 3110.324 -3275.366 0.256 0.092 -0.274 0.01 0.65 -0.76 0.04
1 0.91 91 -0.833 -9.730 1.676 0.366 2.228 0.946 224.704 3110.324 -3275.366 0.275 0.055 -0.224 0.01 0.65 -0.76 0.04
1 0.92 92 -0.790 -9.592 1.743 -0.977 -0.427 1.495 284.814 2900.311 -3260.226 0.224 -0.083 -0.287 0.01 0.65 -0.76 0.04
1 0.93 93 -0.771 -9.817 1.695 -0.671 -1.617 1.251 89.792 3020.232 -3095.333 0.202 0.142 -0.238 0.01 0.65 -0.76 0.04
1 0.94 94 -0.737 -9.759 1.748 0.458 -2.686 1.770 89.792 3020.232 -3095.333 0.165 0.085 -0.289 0.01 0.65 -0.76 0.04
1 0.95 95 -0.694 -9.888 1.748 0.214 -2.655 1.617 104.782 2855.190 -3230.246 0.119 0.215 -0.287 0.01 0.65 -0.76 0.04
1 0.96 96 -0.723 -9.783 1.647 0.946 -2.777 1.434 194.723 3140.304 -3275.366 0.145 0.110 -0.184 0.01 0.65 -0.76 0.04
1 0.97 97 -0.646 -9.826 1.781 0.854 -3.265 1.434 59.811 3125.314 -3110.324 0.066 0.154 -0.314 0.01 0.65 -0.76 0.04
1 0.98 98 -0.536 -9.759 1.681 0.763 -3.143 1.373 59.811 3125.314 -3110.324 -0.046 0.088 -0.210 0.01 0.65 -0.76 0.04
1 0.99 99 -0.445 -9.783 1.762 1.434 -3.937 1.221 254.684 3125.314 -3155.294 -0.140 0.113 -0.285 0.01 0.65 -0.76 0.04
1 1.00 100 -0.541 -9.635 1.686 1.343 -3.082 1.007 89.792 3065.203 -3275.366 -0.045 -0.035 -0.204 0.01 0.65 -0.76 0.04
1 1.01 101 -0.455 -9.730 1.686 1.221 -2.045 0.610 89.792 3065.203 -3275.366 -0.132 0.061 -0.201 0.01 0.65 -0.76 0.04
1 1.02 102 -0.488 -9.697 1.513 1.038 -2.655 0.549 149.752 3110.324 -3125.314 -0.098 0.028 -0.025 0.01 0.65 -0.76 0.04
1 1.03 103 -0.354 -9.659 1.619 0.336 -2.075 1.587 59.811 2930.291 -3110.324 -0.232 -0.010 -0.127 0.01 0.65 -0.76 0.04
1 1.04 104 -0.239 -9.754 1.575 0.183 -2.045 1.434 89.792 2990.252 -3200.265 -0.347 0.087 -0.082 0.01 0.65 -0.76 0.04
1 1.05 105 -0.297 -9.730 1.595 1.129 -1.801 1.038 89.792 2990.252 -3200.265 -0.289 0.063 -0.100 0.01 0.65 -0.76 0.04
1 1.06 106 -0.522 -9.726 1.609 0.977 -0.824 0.580 134.762 3050.213 -3230.246 -0.063 0.058 -0.113 0.01 0.65 -0.76 0.04
1 1.07 107 -0.412 -9.903 1.609 -0.275 -0.366 0.458 89.792 3065.203 -3170.285 -0.172 0.236 -0.110 0.01 0.65 -0.76 0.04
1 1.08 108 -0.450 -9.951 1.537 -0.519 0.214 0.397 89.792 3065.203 -3170.285 -0.132 0.284 -0.038 0.01 0.65 -0.76 0.04
1 1.09 109 -0.503 -9.912 1.590 -0.580 -1.099 0.519 104.782 3155.294 -3080.343 -0.078 0.245 -0.091 0.01 0.65 -0.76 0.04
1 1.10 110 -0.584 -9.884 1.585 0.732 -0.763 0.092 284.814 3080.193 -3260.226 0.004 0.216 -0.086 0.01 0.65 -0.76 0.04
1 1.11 111 -0.512 -9.769 1.580 1.923 -1.526 0.244 59.811 3050.213 -3290.356 -0.067 0.102 -0.080 0.01 0.65 -0.76 0.04
1 1.12 112 -0.555 -9.702 1.556 1.770 -1.556 -0.214 59.811 3050.213 -3290.356 -0.024 0.035 -0.053 0.01 0.65 -0.76 0.04
1 1.13 113 -0.522 -9.730 1.571 1.984 -1.678 0.000 209.713 2975.262 -3230.246 -0.056 0.064 -0.064 0.01 0.65 -0.76 0.04
1 1.14 114 -0.374 -9.888 1.619 1.526 -1.923 -0.885 119.772 3185.275 -3200.265 -0.202 0.223 -0.105 0.01 0.65 -0.76 0.04
1 1.15 115 -0.469 -9.769 1.710 2.228 -1.709 -0.610 119.772 3185.275 -3200.265 -0.103 0.104 -0.193 0.01 0.65 -0.76 0.04
1 1.16 116 -0.441 -9.730 1.542 2.167 -1.434 -0.946 104.782 3005.242 -3230.246 -0.130 0.066 -0.022 0.01 0.65 -0.76 0.04
1 1.17 117 -0.474 -9.711 1.609 2.533 -1.404 -0.183 134.762 3005.242 -3260.226 -0.094 0.047 -0.085 0.01 0.65 -0.76 0.04
1 1.18 118 -0.417 -9.673 1.724 1.862 -0.580 -0.793 179.733 2975.262 -3080.343 -0.149 0.009 -0.196 0.01 0.65 -0.76 0.04
1 1.19 119 -0.436 -9.797 1.652 2.075 0.732 -0.580 179.733 2975.262 -3080.343 -0.128 0.134 -0.120 0.01 0.65 -0.76 0.04
1 1.20 120 -0.388 -9.769 1.652 2.167 0.366 -1.312 29.681 3125.314 -3080.343 -0.174 0.106 -0.115 0.01 0.65 -0.76 0.04
1 1.21 121 -0.599 -9.927 1.753 2.075 0.488 -0.916 -15.140 2975.262 -3290.356 0.042 0.265 -0.208 0.01 0.65 -0.76 0.04
1 1.22 122 -0.675 -9.831 1.796 2.899 0.946 -1.526 -15.140 2975.262 -3290.356 0.120 0.170 -0.246 0.01 0.65 -0.76 0.04
1 1.23 123 -0.575 -9.807 1.714 3.387 0.397 -0.275 59.811 3005.242 -3260.226 0.021 0.147 -0.159 0.01 0.65 -0.76 0.04
1 1.24 124 -0.450 -9.754 1.604 3.143 0.458 0.031 89.792 2990.252 -3095.333 -0.103 0.095 -0.043 0.01 0.65 -0.76 0.04
1 1.25 125 -0.498 -9.807 1.671 3.357 0.824 0.214 -105.082 2945.281 -3200.265 -0.055 0.149 -0.105 0.01 0.65 -0.76 0.04
1 1.26 126 -0.479 -9.735 1.719 3.815 1.129 -0.183 -105.082 2945.281 -3200.265 -0.074 0.078 -0.147 0.01 0.65 -0.76 0.04
1 1.27 127 -0.450 -9.745 1.724 3.906 1.556 0.061 119.772 2870.330 -3200.265 -0.102 0.088 -0.146 0.01 0.65 -0.76 0.04
1 1.28 128 -0.637 -9.615 1.714 2.319 0.397 0.092 134.762 2975.262 -3230.246 0.085 -0.039 -0.126 0.01 0.65 -0.76 0.04
1 1.29 129 -0.546 -9.750 1.729 2.930 0.153 1.099 134.762 2975.262 -3230.246 -0.007 0.096 -0.136 0.01 0.65 -0.76 0.04
1 1.30 130 -0.541 -9.644 1.738 4.639 0.214 1.068 89.792 3110.324 -3125.314 -0.013 -0.009 -0.140 0.01 0.65 -0.76 0.04
1 1.31 131 -0.603 -9.548 1.633 3.845 0.122 1.221 119.772 2990.252 -3245.236 0.048 -0.103 -0.027 0.01 0.65 -0.76 0.04
1 1.32 132 -0.488 -9.716 1.791 2.808 0.336 1.373 119.772 3110.324 -3125.314 -0.068 0.066 -0.178 0.01 0.65 -0.76 0.04
1 1.33 133 -0.388 -9.620 1.738 3.479 -0.458 1.770 119.772 3110.324 -3125.314 -0.170 -0.029 -0.120 0.01 0.65 -0.76 0.04
1 1.34 134 -0.488 -9.659 1.714 4.028 -0.610 1.556 149.752 2990.252 -3275.366 -0.070 0.010 -0.090 0.01 0.65 -0.76 0.04
1 1.35 135 -0.402 -9.639 1.733 4.181 -0.336 2.136 44.821 2915.301 -3200.265 -0.158 -0.008 -0.103 0.01 0.65 -0.76 0.04
1 1.36 136 -0.412 -9.639 1.762 3.082 0.153 2.655 44.821 2915.301 -3200.265 -0.153 -0.005 -0.118 0.01 0.65 -0.76 0.04
1 1.37 137 -0.498 -9.659 1.772 2.441 0.153 2.197 -15.140 2930.291 -3335.327 -0.070 0.015 -0.123 0.01 0.64 -0.76 0.04
1 1.38 138 -0.493 -9.697 1.671 2.045 0.092 1.862 119.772 2945.281 -3320.337 -0.077 0.054 -0.018 0.01 0.64 -0.76 0.04
1 1.39 139 -0.426 -9.735 1.628 1.678 0.702 2.594 119.772 2945.281 -3320.337 -0.147 0.093 0.028 0.01 0.64 -0.76 0.04
1 1.40 140 -0.306 -9.448 1.753 2.869 1.221 2.441 209.713 3005.242 -3230.246 -0.269 -0.193 -0.093 0.01 0.64 -0.76 0.04
1 1.41 141 -0.407 -9.582 1.753 1.770 1.587 2.563 104.782 2930.291 -3230.246 -0.171 -0.058 -0.088 0.01 0.64 -0.76 0.04
1 1.42 142 -0.431 -9.563 1.705 0.427 1.770 2.350 89.792 3065.203 -3200.265 -0.149 -0.077 -0.037 0.01 0.64 -0.76 0.04
1 1.43 143 -0.455 -9.635 1.724 0.458 1.068 2.533 89.792 3065.203 -3200.265 -0.132 -0.004 -0.053 0.01 0.64 -0.76 0.04
1 1.44 144 -0.579 -9.663 1.633 0.946 0.854 3.204 14.690 3110.324 -3275.366 -0.010 0.025 0.039 0.01 0.64 -0.76 0.04
1 1.45 145 -0.455 -9.745 1.757 0.763 -0.122 2.686 89.792 3065.203 -3200.265 -0.139 0.107 -0.084 0.01 0.64 -0.76 0.04
1 1.46 146 -0.350 -9.587 1.642 0.549 -0.458 3.235 89.792 3065.203 -3200.265 -0.247 -0.051 0.032 0.01 0.64 -0.76 0.04
1 1.47 147 -0.321 -9.635 1.786 -0.854 -0.946 3.204 194.723 2990.252 -3245.236 -0.278 -0.002 -0.110 0.01 0.64 -0.76 0.04
1 1.48 148 -0.081 -9.572 1.695 -0.793 0.092 4.028 89.792 3185.275 -3170.285 -0.519 -0.065 -0.019 0.01 0.64 -0.76 0.04
1 1.49 149 -0.134 -9.486 1.801 -0.671 0.305 3.723 59.811 3050.213 -3410.278 -0.470 -0.151 -0.125 0.01 0.64 -0.76 0.04
1 1.50 150 -0.196 -9.606 1.829 -0.580 0.702 4.425 59.811 3050.213 -3410.278 -0.409 -0.031 -0.154 0.01 0.64 -0.76 0.04
1 1.51 151 -0.168 -9.625 1.915 -1.495 2.350 4.211 59.811 3050.213 -3230.246 -0.445 -0.011 -0.241 0.01 0.64 -0.76 0.04
1 1.52 152 -0.321 -9.630 1.868 -2.869 4.272 4.700 134.762 2855.190 -3230.246 -0.295 -0.007 -0.195 0.01 0.64 -0.76 0.04
1 1.53 153 -0.235 -9.596 1.815 -2.991 6.012 4.730 134.762 2855.190 -3230.246 -0.386 -0.040 -0.146 0.01 0.64 -0.76 0.04
1 1.54 154 -0.321 -9.682 1.829 -3.052 6.378 4.211 44.821 3020.232 -3200.265 -0.305 0.045 -0.164 0.01 0.64 -0.76 0.04
1 1.55 155 -0.436 -9.874 1.767 -3.601 6.928 4.211 104.782 3050.213 -3260.226 -0.195 0.237 -0.106 0.01 0.64 -0.76 0.04
1 1.56 156 -0.359 -9.788 1.834 -3.632 6.836 4.028 134.762 2930.291 -3155.294 -0.278 0.150 -0.178 0.01 0.64 -0.76 0.04
1 1.57 157 -0.364 -9.864 1.801 -3.998 7.141 4.303 134.762 2930.291 -3155.294 -0.279 0.226 -0.150 0.01 0.64 -0.76 0.04
1 1.58 158 -0.350 -9.817 1.791 -3.693 7.141 4.456 209.713 3050.213 -3185.275 -0.305 0.177 -0.151 0.01 0.65 -0.76 0.04
1 1.59 159 -0.311 -9.860 1.891 -3.540 6.805 4.486 179.733 2975.262 -3290.356 -0.348 0.220 -0.256 0.01 0.65 -0.76 0.04
1 1.60 160 -0.350 -9.687 1.920 -3.387 7.416 3.571 179.733 2975.262 -3290.356 -0.315 0.047 -0.290 0.01 0.65 -0.76 0.04
1 1.61 161 -0.383 -9.922 1.810 -3.235 6.836 4.364 119.772 3065.203 -3200.265 -0.286 0.281 -0.184 0.01 0.65 -0.76 0.04
1 1.62 162 -0.383 -9.860 1.901 -3.601 7.324 3.937 -15.140 3050.213 -3185.275 -0.291 0.218 -0.279 0.01 0.65 -0.76 0.04
1 1.63 163 -0.316 -9.984 1.901 -4.028 7.202 3.662 89.792 3020.232 -3125.314 -0.363 0.343 -0.283 0.01 0.65 -0.76 0.04
1 1.64 164 -0.374 -9.975 1.820 -3.662 6.805 3.876 89.792 3020.232 -3125.314 -0.311 0.333 -0.206 0.02 0.65 -0.76 0.04
1 1.65 165 -0.397 -9.975 1.954 -2.655 7.050 3.540 209.713 2975.262 -3185.275 -0.296 0.332 -0.348 0.02 0.65 -0.76 0.04
1 1.66 166 -0.522 -10.018 2.011 -1.648 7.080 3.815 149.752 3020.232 -3200.265 -0.177 0.375 -0.408 0.02 0.65 -0.76 0.04
1 1.67 167 -0.469 -10.042 1.911 -2.167 7.660 3.723 149.752 3020.232 -3200.265 -0.235 0.399 -0.309 0.02 0.65 -0.76 0.04
1 1.68 168 -0.599 -10.099 1.925 -1.892 7.965 3.815 284.814 3005.242 -3230.246 -0.111 0.457 -0.325 0.02 0.65 -0.76 0.03
1 1.69 169 -0.354 -10.128 1.911 -1.312 7.385 4.395 209.713 3005.242 -3155.294 -0.361 0.486 -0.313 0.02 0.65 -0.76 0.03
1 1.70 170 -0.565 -9.979 2.002 -0.305 8.057 4.700 194.723 3020.232 -3245.236 -0.156 0.337 -0.404 0.02 0.65 -0.76 0.03
1 1.71 171 -0.613 -9.879 2.054 0.183 8.209 4.761 194.723 3020.232 -3245.236 -0.116 0.237 -0.457 0.02 0.65 -0.76 0.03
1 1.72 172 -0.517 -9.960 1.915 -1.373 8.270 4.974 299.805 3065.203 -3170.285 -0.226 0.320 -0.315 0.02 0.65 -0.76 0.03
1 1.73 173 -0.498 -9.955 1.973 -1.282 8.118 4.852 269.674 2990.252 -3170.285 -0.252 0.316 -0.373 0.02 0.65 -0.76 0.03
1 1.74 174 -0.532 -9.922 1.959 -0.610 8.667 4.944 269.674 2990.252 -3170.285 -0.226 0.283 -0.359 0.02 0.65 -0.76 0.03
1 1.75 175 -0.627 -9.869 1.844 -0.183 8.698 6.256 104.782 2900.311 -3185.275 -0.138 0.231 -0.244 0.02 0.65 -0.76 0.03
1 1.76 176 -0.603 -9.903 1.973 -0.122 8.637 5.737 179.733 3080.193 -3035.223 -0.172 0.266 -0.372 0.02 0.65 -0.76 0.03
1 1.77 177 -0.627 -10.008 2.073 0.427 8.972 6.531 254.684 2855.190 -3110.324 -0.157 0.372 -0.472 0.02 0.65 -0.76 0.03
1 1.78 178 -0.532 -9.965 1.963 0.671 9.094 5.920 254.684 2855.190 -3110.324 -0.263 0.330 -0.361 0.03 0.65 -0.76 0.03
1 1.79 179 -0.536 -9.908 1.949 1.556 9.583 6.561 224.704 2990.252 -3125.314 -0.267 0.273 -0.344 0.03 0.65 -0.76 0.03
1 1.80 180 -0.785 -10.008 1.939 2.441 8.942 6.134 374.756 3020.232 -3170.285 -0.038 0.377 -0.328 0.03 0.65 -0.76 0.03
1 1.81 181 -0.728 -9.893 1.954 3.998 9.430 6.409 374.756 3020.232 -3170.285 -0.106 0.264 -0.337 0.03 0.65 -0.76 0.03
1 1.82 182 -0.690 -9.927 1.992 4.578 9.369 5.920 299.805 2945.281 -3200.265 -0.155 0.299 -0.369 0.03 0.65 -0.76 0.03
1 1.83 183 -0.713 -9.802 1.863 4.486 9.125 5.890 359.766 2975.262 -3155.294 -0.141 0.177 -0.232 0.03 0.64 -0.76 0.03
1 1.84 184 -0.771 -9.716 1.901 4.700 8.972 6.439 284.814 2855.190 -3155.294 -0.094 0.093 -0.263 0.03 0.64 -0.76 0.03
1 1.85 185 -0.742 -9.635 1.906 4.059 8.240 5.768 284.814 2855.190 -3155.294 -0.132 0.013 -0.260 0.03 0.64 -0.76 0.03
1 1.86 186 -0.623 -9.711 1.987 4.211 9.094 6.531 194.723 3065.203 -3125.314 -0.262 0.092 -0.335 0.03 0.64 -0.76 0.03
1 1.87 187 -0.613 -9.692 1.777 4.059 9.613 6.409 329.785 2855.190 -3410.278 -0.292 0.077 -0.110 0.03 0.64 -0.76 0.03
1 1.88 188 -0.771 -9.812 1.829 4.425 9.949 6.256 329.785 2855.190 -3410.278 -0.144 0.199 -0.157 0.04 0.64 -0.76 0.03
1 1.89 189 -0.536 -9.687 1.882 5.188 10.162 6.531 224.704 2915.301 -3170.285 -0.389 0.076 -0.204 0.04 0.64 -0.76 0.03
1 1.90 190 -0.632 -9.592 1.915 5.920 10.193 6.256 224.704 2915.301 -3170.285 -0.302 -0.017 -0.230 0.04 0.64 -0.76 0.03
1 1.91 191 -0.699 -9.678 1.762 4.028 11.200 5.554 419.727 2945.281 -3200.265 -0.244 0.071 -0.068 0.04 0.64 -0.77 0.03
1 1.92 192 -0.771 -9.505 1.738 4.547 11.169 5.554 419.727 2945.281 -3200.265 -0.181 -0.099 -0.038 0.04 0.64 -0.77 0.03
1 1.93 193 -0.848 -9.457 1.772 4.578 10.773 4.913 389.746 2975.262 -3155.294 -0.114 -0.145 -0.066 0.04 0.64 -0.77 0.03
1 1.94 194 -0.747 -9.496 1.757 3.510 10.407 5.005 374.756 2990.252 -3245.236 -0.232 -0.103 -0.041 0.04 0.64 -0.77 0.03
1 1.95 195 -0.867 -9.501 1.848 3.113 10.071 3.754 374.756 2990.252 -3245.236 -0.120 -0.097 -0.127 0.04 0.64 -0.77 0.03
1 1.96 196 -0.752 -9.702 1.887 3.448 9.857 3.723 434.717 2975.262 -3230.246 -0.242 0.106 -0.161 0.04 0.64 -0.77 0.03
1 1.97 197 -0.809 -9.692 1.915 3.632 10.132 4.334 434.717 2975.262 -3230.246 -0.191 0.098 -0.185 0.04 0.64 -0.77 0.03
1 1.98 198 -0.737 -9.635 1.824 3.052 10.010 4.364 434.717 2975.262 -3335.327 -0.270 0.042 -0.089 0.04 0.64 -0.77 0.03
1 1.99 199 -0.795 -9.706 1.858 3.052 10.315 4.700 434.717 2975.262 -3335.327 -0.219 0.116 -0.118 0.04 0.64 -0.77 0.03
1 2.00 200 -0.713 -9.649 1.872 2.686 10.986 4.761 612.801 2902.109 -3226.648 -0.308 0.060 -0.128 0.05 0.64 -0.77 0.03
1 2.01 201 -0.699 -9.659 1.786 3.296 11.292 4.761 387.797 2977.061 -3286.609 -0.330 0.071 -0.039 0.05 0.64 -0.77 0.03
1 2.02 202 -0.623 -9.663 1.820 3.204 12.482 5.493 387.797 2977.061 -3286.609 -0.423 0.079 -0.065 0.05 0.64 -0.77 0.03
1 2.03 203 -0.694 -9.745 1.978 3.143 12.909 5.768 432.768 2902.109 -3226.648 -0.360 0.162 -0.219 0.05 0.64 -0.77 0.03
1 2.04 204 -0.886 -9.668 1.939 3.876 13.947 5.585 432.768 2902.109 -3226.648 -0.178 0.087 -0.177 0.05 0.64 -0.77 0.03
1 2.05 205 -0.800 -9.678 1.858 3.052 14.862 5.981 432.768 2857.139 -3181.677 -0.275 0.098 -0.092 0.05 0.64 -0.77 0.02
1 2.06 206 -0.728 -9.625 1.992 2.899 16.144 6.409 432.768 2857.139 -3181.677 -0.357 0.047 -0.223 0.05 0.64 -0.77 0.02
1 2.07 207 -0.757 -9.764 2.131 4.059 17.426 6.622 552.840 2947.080 -3196.667 -0.339 0.188 -0.359 0.05 0.64 -0.77 0.02
1 2.08 208 -0.666 -9.960 2.236 3.693 18.494 7.904 462.898 3007.191 -3181.677 -0.441 0.386 -0.461 0.05 0.64 -0.77 0.02
1 2.09 209 -0.670 -9.984 2.423 6.805 22.034 8.301 462.898 3007.191 -3181.677 -0.463 0.416 -0.635 0.06 0.64 -0.77 0.02
1 2.10 210 -0.728 -9.975 2.495 9.155 23.529 8.911 462.898 2932.090 -3106.726 -0.420 0.410 -0.695 0.06 0.64 -0.77 0.02
1 2.11 211 -0.785 -10.118 2.701 9.705 26.764 9.064 462.898 2932.090 -3106.726 -0.379 0.558 -0.887 0.06 0.64 -0.77 0.02
1 2.12 212 -0.642 -10.243 2.715 13.397 29.572 9.644 687.902 2857.139 -3226.648 -0.540 0.688 -0.886 0.06 0.63 -0.77 0.02
1 2.13 213 -0.915 -9.917 2.734 21.790 33.081 9.399 687.902 2857.139 -3226.648 -0.286 0.369 -0.882 0.06 0.63 -0.77 0.02
1 2.14 214 -1.489 -9.314 2.686 26.428 38.574 6.104 657.771 2977.061 -3181.677 0.268 -0.225 -0.801 0.07 0.63 -0.77 0.02
1 2.15 215 -1.662 -9.309 2.466 24.353 40.253 4.120 612.801 2812.168 -3286.609 0.420 -0.220 -0.544 0.07 0.63 -0.77 0.02
1 2.16 216 -2.150 -9.232 2.260 25.757 40.070 2.899 612.801 2812.168 -3286.609 0.867 -0.278 -0.272 0.07 0.63 -0.78 0.01
1 2.17 217 -2.275 -9.117 2.064 27.130 38.971 3.174 747.863 2812.168 -3331.729 0.969 -0.383 -0.043 0.08 0.63 -0.78 0.01
1 2.18 218 -2.447 -8.969 1.906 25.452 36.499 2.136 747.863 2812.168 -3331.729 1.119 -0.521 0.148 0.08 0.62 -0.78 0.01
1 2.19 219 -2.586 -9.180 1.580 21.545 34.485 2.655 672.912 2917.100 -3241.638 1.235 -0.301 0.500 0.08 0.62 -0.78 0.01
1 2.20 220 -2.576 -9.117 1.508 23.377 29.541 3.143 762.853 2797.178 -3271.619 1.201 -0.355 0.594 0.09 0.62 -0.78 0.01
1 2.21 221 -2.720 -9.132 1.255 21.942 25.787 3.143 672.912 2767.047 -3316.739 1.321 -0.332 0.870 0.09 0.62 -0.78 0
1 2.22 222 -2.816 -9.247 1.575 17.059 21.088 4.578 837.804 2872.129 -3271.619 1.393 -0.209 0.572 0.09 0.62 -0.78 0
1 2.23 223 -2.662 -9.874 1.595 11.871 15.442 6.897 837.804 2872.129 -3271.619 1.217 0.426 0.569 0.09 0.62 -0.78 0
1 2.24 224 -2.251 -9.841 1.518 17.975 12.543 11.749 777.843 2707.086 -3331.729 0.755 0.404 0.665 0.1 0.62 -0.78 0
1 2.25 225 -2.097 -9.275 1.642 23.377 12.848 10.315 777.843 2707.086 -3331.729 0.575 -0.151 0.561 0.1 0.61 -0.78 0
1 2.26 226 -2.193 -9.070 1.834 15.503 13.367 8.850 822.814 2707.086 -3331.729 0.648 -0.348 0.394 0.1 0.61 -0.78 0
1 2.27 227 -2.313 -9.433 2.045 11.139 14.099 6.897 837.804 2767.047 -3376.700 0.746 0.023 0.197 0.1 0.61 -0.78 0
1 2.28 228 -2.691 -9.424 1.877 18.707 15.411 4.303 687.902 2707.086 -3406.681 1.104 0.020 0.376 0.1 0.61 -0.78 0
1 2.29 229 -2.816 -9.117 2.050 19.836 13.641 2.197 912.905 2692.096 -3271.619 1.210 -0.279 0.223 0.1 0.61 -0.78 0
1 2.30 230 -2.902 -8.591 2.164 19.379 11.383 0.305 912.905 2692.096 -3271.619 1.279 -0.798 0.131 0.1 0.61 -0.79 0
1 2.31 231 -2.653 -8.308 2.169 18.890 7.874 -3.448 852.794 2737.067 -3436.661 1.004 -1.064 0.173 0.11 0.61 -0.79 0
1 2.32 232 -2.557 -7.935 2.035 19.928 4.852 -5.554 852.794 2737.067 -3436.661 0.903 -1.430 0.332 0.11 0.61 -0.79 0
1 2.33 233 -2.624 -7.786 1.973 14.252 1.068 -5.524 717.882 2662.116 -3406.681 0.972 -1.572 0.421 0.11 0.61 -0.79 0
1 2.34 234 -2.701 -8.059 2.021 8.209 0.641 -4.791 927.896 2707.086 -3256.628 1.055 -1.296 0.391 0.11 0.6 -0.79 0
1 2.35 235 -2.964 -8.481 1.882 5.219 -1.343 -4.272 822.814 2782.188 -3331.729 1.325 -0.873 0.540 0.11 0.6 -0.79 0
1 2.36 236 -2.993 -8.313 1.671 8.087 -3.326 -2.533 897.915 2707.086 -3331.729 1.356 -1.039 0.757 0.11 0.6 -0.79 0
1 2.37 237 -3.093 -7.820 1.523 11.993 -6.470 -2.777 897.915 2707.086 -3331.729 1.450 -1.529 0.913 0.11 0.6 -0.79 0
1 2.38 238 -3.117 -7.389 1.537 2.350 -12.695 -2.777 912.905 2572.174 -3316.739 1.476 -1.953 0.927 0.1 0.6 -0.79 0
1 2.39 239 -2.955 -7.973 1.408 -8.911 -17.181 -2.960 912.905 2572.174 -3316.739 1.323 -1.370 1.059 0.1 0.6 -0.79 0
1 2.40 240 -2.940 -8.969 1.475 -14.282 -22.736 -3.510 912.905 2572.174 -3271.619 1.320 -0.379 0.981 0.1 0.6 -0.79 0
1 2.41 241 -2.921 -9.529 1.441 -8.850 -29.327 -4.028 807.824 2602.155 -3346.720 1.303 0.176 0.995 0.1 0.6 -0.79 0
1 2.42 242 -2.859 -9.678 1.489 -3.021 -38.391 -5.829 972.866 2587.165 -3406.681 1.249 0.321 0.938 0.1 0.61 -0.79 0.01
1 2.43 243 -2.145 -10.808 2.571 -15.228 -59.632 0.458 747.863 2737.067 -3406.681 0.549 1.448 -0.147 0.1 0.61 -0.79 0.01
1 2.44 244 -0.934 -12.101 2.955 -19.959 -67.810 14.404 747.863 2737.067 -3406.681 -0.646 2.736 -0.538 0.09 0.61 -0.79 0.01
1 2.45 245 0.412 -12.053 2.777 -9.125 -62.348 23.773 882.775 2602.155 -3421.671 -1.983 2.683 -0.373 0.09 0.61 -0.79 0.01
1 2.46 246 0.742 -9.802 2.150 6.592 -35.584 8.545 882.775 2602.155 -3421.671 -2.330 0.439 0.267 0.09 0.61 -0.79 0.02
1 2.47 247 -0.623 -9.084 1.839 -1.801 -19.623 -7.202 702.892 2647.125 -3376.700 -0.951 -0.278 0.593 0.08 0.61 -0.79 0.02
1 2.48 248 -2.471 -9.951 1.403 -15.137 -14.832 -15.320 702.892 2692.096 -3451.651 0.929 0.582 1.022 0.08 0.61 -0.79 0.02
1 2.49 249 -3.702 -10.913 1.053 -17.090 -22.278 -14.038 672.912 2572.174 -3316.739 2.184 1.533 1.346 0.08 0.61 -0.79 0.02
1 2.50 250 -2.873 -10.813 1.508 -14.832 -38.696 -7.965 777.843 2662.116 -3436.661 1.383 1.424 0.873 0.08 0.61 -0.79 0.02
1 2.51 251 -1.839 -10.827 1.796 -16.907 -40.802 -6.622 777.843 2662.116 -3436.661 0.375 1.431 0.572 0.08 0.61 -0.79 0.02
1 2.52 252 -1.049 -10.736 1.954 -17.517 -39.002 -7.782 687.902 2662.116 -3466.642 -0.390 1.332 0.400 0.07 0.61 -0.79 0.03
1 2.53 253 -0.848 -10.631 2.188 -12.970 -33.539 -9.338 687.902 2662.116 -3466.642 -0.541 1.212 0.135 0.07 0.61 -0.79 0.03
1 2.54 254 -0.881 -10.468 2.342 -11.078 -31.159 -9.064 657.771 2632.135 -3361.710 -0.483 1.043 -0.029 0.07 0.61 -0.79 0.03
1 2.55 255 -0.953 -10.382 2.466 -11.139 -31.006 -8.240 522.859 2842.148 -3421.671 -0.386 0.950 -0.164 0.06 0.62 -0.79 0.03
1 2.56 256 -0.771 -10.228 2.413 -10.773 -31.647 -8.118 537.850 2707.086 -3361.710 -0.541 0.791 -0.122 0.06 0.62 -0.78 0.03
1 2.57 257 -0.412 -9.826 2.519 -11.749 -28.626 -8.209 552.840 2647.125 -3451.651 -0.873 0.382 -0.237 0.06 0.62 -0.78 0.03
1 2.58 258 -0.369 -9.706 2.500 -13.428 -25.330 -9.644 552.840 2647.125 -3451.651 -0.888 0.256 -0.229 0.06 0.62 -0.78 0.03
1 2.59 259 -0.335 -9.424 2.428 -14.069 -22.369 -10.376 387.797 2737.067 -3361.710 -0.892 -0.033 -0.169 0.05 0.62 -0.78 0.03
1 2.60 260 -0.594 -9.347 2.389 -14.557 -20.325 -12.421 387.797 2737.067 -3361.710 -0.574 -0.124 -0.161 0.05 0.62 -0.78 0.03
1 2.61 261 -0.637 -9.362 2.385 -14.832 -20.233 -13.031 522.859 2722.077 -3451.651 -0.501 -0.117 -0.173 0.05 0.62 -0.78 0.03
1 2.62 262 -0.785 -9.333 2.342 -14.648 -20.660 -12.970 447.908 2722.077 -3451.651 -0.323 -0.154 -0.147 0.04 0.62 -0.78 0.03
1 2.63 263 -0.546 -9.462 2.509 -15.320 -21.545 -12.177 447.908 2722.077 -3451.651 -0.534 -0.031 -0.331 0.04 0.62 -0.78 0.03
1 2.64 264 -0.374 -9.275 2.605 -14.496 -20.142 -11.780 342.827 2842.148 -3376.700 -0.679 -0.225 -0.443 0.04 0.62 -0.78 0.03
1 2.65 265 -0.450 -9.208 2.672 -15.320 -17.944 -11.658 342.827 2842.148 -3376.700 -0.575 -0.298 -0.525 0.04 0.62 -0.78 0.03
1 2.66 266 -0.455 -9.395 2.581 -15.961 -16.388 -11.597 432.768 2737.067 -3361.710 -0.543 -0.118 -0.449 0.04 0.62 -0.78 0.04
1 2.67 267 -0.555 -9.501 2.447 -16.480 -14.343 -11.139 432.768 2737.067 -3361.710 -0.415 -0.019 -0.331 0.04 0.63 -0.78 0.03
1 2.68 268 -0.579 -9.596 2.404 -15.137 -13.855 -10.559 327.836 2737.067 -3361.710 -0.343 0.064 -0.325 0.03 0.63 -0.78 0.03
1 2.69 269 -0.536 -9.596 2.509 -14.435 -14.282 -9.186 327.836 2782.188 -3256.628 -0.365 0.058 -0.447 0.03 0.63 -0.78 0.03
1 2.70 270 -0.532 -9.654 2.423 -13.641 -14.038 -8.362 327.836 2782.188 -3256.628 -0.349 0.110 -0.377 0.03 0.63 -0.78 0.03
1 2.71 271 -0.493 -9.582 2.342 -12.787 -13.367 -7.629 267.875 2767.047 -3196.667 -0.370 0.034 -0.310 0.03 0.63 -0.78 0.03
1 2.72 272 -0.570 -9.644 2.270 -11.993 -13.733 -6.592 267.875 2767.047 -3196.667 -0.275 0.091 -0.252 0.03 0.63 -0.78 0.03
1 2.73 273 -0.484 -9.730 2.562 -12.207 -13.916 -6.287 342.827 2992.051 -3121.716 -0.346 0.174 -0.557 0.03 0.63 -0.78 0.04
1 2.74 274 -0.479 -9.951 2.428 -11.322 -12.695 -5.798 342.827 2992.051 -3121.716 -0.334 0.390 -0.436 0.02 0.63 -0.77 0.04
1 2.75 275 -0.330 -9.965 2.413 -9.003 -11.902 -6.226 342.827 2692.096 -3451.651 -0.452 0.397 -0.444 0.02 0.63 -0.77 0.04
1 2.76 276 -0.431 -9.979 2.428 -7.202 -10.559 -6.226 147.804 2842.148 -3316.739 -0.335 0.408 -0.467 0.02 0.63 -0.77 0.04
1 2.77 277 -0.417 -9.917 2.461 -7.446 -9.888 -7.629 146.604 2843.498 -3313.891 -0.334 0.343 -0.507 0.02 0.63 -0.77 0.04
1 2.78 278 -0.364 -9.908 2.485 -6.165 -9.613 -7.477 101.634 2903.458 -3283.911 -0.370 0.331 -0.536 0.02 0.63 -0.77 0.04
1 2.79 279 -0.283 -10.003 2.548 -8.026 -9.491 -8.820 251.686 2903.458 -3148.849 -0.434 0.425 -0.603 0.02 0.63 -0.77 0.04
1 2.80 280 -0.364 -10.157 2.480 -7.385 -10.468 -9.125 146.604 2843.498 -3268.920 -0.334 0.576 -0.542 0.02 0.63 -0.77 0.04
1 2.81 281 -0.306 -10.161 2.595 -4.334 -11.383 -8.789 146.604 2843.498 -3268.920 -0.372 0.578 -0.664 0.02 0.63 -0.77 0.04
1 2.82 282 -0.316 -10.061 2.749 -0.061 -11.505 -10.986 101.634 2933.439 -3283.911 -0.321 0.474 -0.817 0.01 0.63 -0.77 0.03
1 2.83 283 -0.268 -9.788 2.744 0.641 -11.719 -11.597 146.604 2918.449 -3193.969 -0.347 0.201 -0.806 0.01 0.63 -0.77 0.03
1 2.84 284 -0.273 -9.797 2.892 2.228 -12.817 -13.001 146.604 2918.449 -3193.969 -0.318 0.211 -0.946 0.01 0.63 -0.77 0.03
1 2.85 285 -0.158 -9.735 2.945 4.334 -14.374 -13.001 101.634 2903.458 -3223.950 -0.408 0.149 -0.988 0.01 0.63 -0.77 0.03
1 2.86 286 -0.144 -9.721 2.864 5.829 -15.656 -13.733 146.604 2918.449 -3268.920 -0.396 0.136 -0.892 0.01 0.63 -0.77 0.03
1 2.87 287 0.101 -9.649 2.926 9.216 -18.036 -13.519 116.624 2843.498 -3238.940 -0.612 0.066 -0.937 0.01 0.63 -0.77 0.03
1 2.88 288 0.077 -9.496 2.921 10.437 -20.630 -13.062 116.624 2843.498 -3238.940 -0.559 -0.084 -0.912 0 0.63 -0.78 0.03
1 2.89 289 0.479 -9.625 3.026 9.949 -22.675 -12.421 56.663 2933.439 -3328.881 -0.931 0.049 -0.994 0 0.63 -0.78 0.03
1 2.90 290 0.488 -9.572 3.041 11.780 -24.139 -12.054 41.673 2873.478 -3163.839 -0.878 0.003 -0.962 -0 0.63 -0.78 0.03
1 2.91 291 0.680 -9.395 2.940 13.947 -24.414 -12.146 41.673 2873.478 -3163.839 -1.037 -0.169 -0.835 -0 0.63 -0.78 0.03
1 2.92 292 0.709 -9.429 2.873 14.313 -23.590 -11.780 101.634 2903.458 -3253.930 -1.032 -0.131 -0.740 -0.01 0.63 -0.78 0.03
1 2.93 293 0.800 -9.481 2.749 13.794 -21.881 -11.871 146.604 2873.478 -3313.891 -1.089 -0.073 -0.588 -0.01 0.62 -0.78 0.03
1 2.94 294 0.833 -9.419 2.581 12.939 -20.660 -12.512 -153.200 2813.367 -3283.911 -1.090 -0.130 -0.395 -0.01 0.62 -0.78 0.03
1 2.95 295 0.953 -9.323 2.461 13.825 -18.372 -12.848 -153.200 2813.367 -3283.911 -1.176 -0.222 -0.252 -0.01 0.62 -0.78 0.03
1 2.96 296 1.049 -9.247 2.394 12.848 -15.503 -13.031 56.663 2813.367 -3178.829 -1.239 -0.294 -0.162 -0.01 0.62 -0.78 0.03
1 2.97 297 1.025 -9.410 2.021 8.575 -11.658 -14.008 -78.249 2813.367 -3328.881 -1.149 -0.123 0.249 -0.02 0.62 -0.78 0.03
1 2.98 298 1.192 -9.572 2.021 10.376 -8.606 -13.641 -78.249 2813.367 -3328.881 -1.284 0.042 0.262 -0.02 0.62 -0.78 0.03
1 2.99 299 1.116 -9.304 2.035 12.238 -5.615 -12.695 11.692 2843.498 -3313.891 -1.176 -0.223 0.262 -0.02 0.62 -0.79 0.03
1 3.00 300 0.972 -9.194 2.121 8.881 -2.228 -12.756 -183.181 2873.478 -3268.920 -1.003 -0.329 0.192 -0.02 0.62 -0.79 0.03
1 3.01 301 0.872 -9.486 1.963 5.005 1.007 -12.970 -78.249 2738.416 -3403.833 -0.876 -0.035 0.360 -0.02 0.62 -0.79 0.03
1 3.02 302 0.436 -9.644 2.107 5.127 4.700 -12.299 -78.249 2738.416 -3403.833 -0.415 0.125 0.221 -0.02 0.62 -0.79 0.03
1 3.03 303 0.206 -9.558 1.982 6.195 3.571 -9.827 -138.210 2693.445 -3448.953 -0.165 0.040 0.351 -0.02 0.62 -0.79 0.03
1 3.04 304 0.115 -9.606 1.959 5.859 0.122 -6.531 -183.181 2693.445 -3343.872 -0.046 0.091 0.387 -0.02 0.62 -0.79 0.03
1 3.05 305 0.057 -9.467 1.992 7.050 -3.082 -4.456 -183.181 2693.445 -3343.872 0.021 -0.046 0.360 -0.02 0.62 -0.79 0.03
1 3.06 306 0.330 -9.386 2.021 7.996 -5.096 -3.998 -63.259 2798.377 -3163.839 -0.244 -0.125 0.340 -0.03 0.62 -0.79 0.02
1 3.07 307 0.369 -9.266 2.021 7.568 -6.775 -2.838 -63.259 2693.445 -3373.852 -0.273 -0.243 0.349 -0.03 0.62 -0.79 0.02
1 3.08 308 0.776 -9.228 2.212 8.667 -5.829 -1.648 -153.200 2708.436 -3328.881 -0.671 -0.279 0.166 -0.03 0.61 -0.79 0.02
1 3.09 309 0.761 -9.089 2.241 8.972 -4.730 0.183 -153.200 2708.436 -3328.881 -0.648 -0.415 0.148 -0.03 0.61 -0.79 0.02
1 3.10 310 0.872 -9.041 2.069 9.766 -2.930 1.892 -108.229 2798.377 -3313.891 -0.750 -0.460 0.333 -0.03 0.61 -0.79 0.02
1 3.11 311 0.833 -8.777 1.968 8.301 -1.068 4.517 -63.259 2648.475 -3373.852 -0.708 -0.720 0.446 -0.03 0.61 -0.79 0.02
1 3.12 312 1.082 -8.600 1.930 6.928 2.228 9.949 -63.259 2648.475 -3373.852 -0.962 -0.892 0.505 -0.03 0.61 -0.79 0.02
1 3.13 313 1.231 -8.346 2.045 6.256 6.470 11.505 -274.471 2740.065 -3430.215 -1.119 -1.143 0.399 -0.03 0.61 -0.79 0.02
1 3.14 314 1.307 -8.050 2.107 4.272 11.871 12.268 -259.481 2605.153 -3235.342 -1.216 -1.438 0.345 -0.03 0.61 -0.79 0.03
1 3.15 315 1.475 -8.088 2.078 0.488 17.120 11.597 -259.481 2575.172 -3370.254 -1.406 -1.399 0.379 -0.02 0.61 -0.79 0.03
1 3.16 316 1.274 -8.375 2.265 -8.026 26.215 10.864 -259.481 2575.172 -3370.254 -1.228 -1.112 0.190 -0.02 0.61 -0.79 0.03
1 3.17 317 1.130 -8.591 2.308 -8.820 31.769 12.238 -34.478 2695.094 -3340.274 -1.109 -0.899 0.137 -0.02 0.61 -0.79 0.02
1 3.18 318 1.001 -8.543 2.164 -7.599 35.828 13.092 -79.448 2710.084 -3325.284 -1.009 -0.951 0.268 -0.02 0.61 -0.79 0.02
1 3.19 319 0.627 -8.777 2.854 -12.512 35.126 12.421 -79.448 2710.084 -3325.284 -0.684 -0.722 -0.447 -0.01 0.61 -0.79 0.02
1 3.20 320 0.206 -9.994 3.989 -25.513 37.079 7.477 -139.559 2770.045 -3370.254 -0.286 0.489 -1.602 -0.01 0.61 -0.79 0.02
1 3.21 321 -0.479 -11.210 2.255 -23.743 41.596 2.228 -19.487 2635.133 -3355.264 0.378 1.698 0.101 -0.01 0.62 -0.79 0.02
1 3.22 322 -0.464 -10.477 1.853 9.399 24.262 3.937 -19.487 2635.133 -3355.264 0.347 0.960 0.480 -0.01 0.62 -0.79 0.02
1 3.23 323 0.517 -9.496 3.074 -5.615 11.597 14.374 -79.448 2815.166 -3400.235 -0.652 -0.018 -0.726 -0 0.62 -0.79 0.02
1 3.24 324 0.953 -10.123 3.065 -19.562 14.191 15.991 -79.448 2710.084 -3430.215 -1.109 0.611 -0.713 -0 0.62 -0.79 0.02
1 3.25 325 1.121 -11.282 3.295 -19.226 19.318 12.543 -109.429 2695.094 -3340.274 -1.299 1.765 -0.963 -0 0.62 -0.79 0.02
1 3.26 326 -0.283 -11.287 2.715 0.397 36.438 -1.251 -109.429 2695.094 -3340.274 0.062 1.760 -0.427 0 0.62 -0.79 0.02
1 3.27 327 -1.212 -10.731 2.140 1.953 28.595 -2.258 25.333 2710.084 -3535.297 0.982 1.205 0.149 0 0.62 -0.79 0.01
1 3.28 328 -0.967 -10.358 1.891 -5.066 16.724 3.601 130.415 2740.065 -3250.333 0.731 0.832 0.398 0.01 0.62 -0.79 0.01
1 3.29 329 -0.062 -10.248 1.844 -14.282 8.514 11.597 131.015 2739.315 -3251.682 -0.195 0.718 0.430 0.01 0.62 -0.78 0.01
1 3.30 330 0.838 -10.597 1.939 -18.433 8.026 14.496 11.093 2769.296 -3416.724 -1.116 1.062 0.306 0.01 0.62 -0.78 0.01
1 3.31 331 1.015 -10.281 1.920 -13.123 16.510 9.796 -48.868 2784.436 -3326.783 -1.314 0.740 0.297 0.01 0.62 -0.78 0.01
1 3.32 332 0.761 -10.233 2.011 -14.526 21.057 6.165 56.063 2814.417 -3356.763 -1.070 0.687 0.182 0.01 0.62 -0.78 0.01
1 3.33 333 0.484 -10.157 2.102 -15.137 23.041 4.730 56.063 2814.417 -3356.763 -0.799 0.605 0.067 0.01 0.62 -0.78 0.01
1 3.34 334 0.125 -10.042 2.356 -12.177 25.024 2.930 251.086 2784.436 -3356.763 -0.454 0.480 -0.234 0.01 0.63 -0.78 0.01
1 3.35 335 -0.182 -10.090 2.471 -11.932 26.795 2.594 56.063 3054.410 -3326.783 -0.156 0.524 -0.369 0.01 0.63 -0.78 0.01
1 3.36 336 -0.359 -9.936 2.490 -11.444 27.924 1.068 56.063 3054.410 -3326.783 0.011 0.367 -0.405 0.02 0.63 -0.78 0.01
1 3.37 337 -0.742 -9.927 2.519 -9.705 27.374 -0.702 41.073 2724.325 -3416.724 0.385 0.354 -0.450 0.02 0.63 -0.78 0.01
1 3.38 338 -0.848 -9.596 2.394 -8.148 25.757 -2.136 190.976 2844.397 -3191.721 0.480 0.022 -0.337 0.02 0.63 -0.78 0.01
1 3.39 339 -0.771 -9.410 2.466 -9.888 23.071 -3.815 356.018 2784.436 -3146.750 0.396 -0.167 -0.419 0.02 0.63 -0.78 0
1 3.40 340 -0.857 -9.467 2.562 -10.803 18.921 -3.510 356.018 2784.436 -3146.750 0.476 -0.112 -0.527 0.02 0.63 -0.78 0
1 3.41 341 -0.924 -9.333 2.615 -11.932 12.329 -1.617 175.985 2859.387 -3251.682 0.535 -0.251 -0.606 0.02 0.63 -0.78 0
1 3.42 342 -1.039 -9.414 2.509 -12.299 8.118 -0.275 281.067 2784.436 -3326.783 0.644 -0.172 -0.515 0.03 0.63 -0.78 0
1 3.43 343 -0.972 -9.419 2.639 -11.688 3.387 2.197 281.067 2784.436 -3326.783 0.570 -0.170 -0.659 0.03 0.63 -0.78 0
1 3.44 344 -0.723 -9.534 2.571 -10.895 0.732 3.021 190.976 2919.348 -3266.822 0.312 -0.058 -0.604 0.03 0.63 -0.77 0
1 3.45 345 -0.541 -9.582 2.797 -10.742 -0.763 2.991 326.038 2859.387 -3221.701 0.124 -0.012 -0.840 0.03 0.63 -0.77 0
1 3.46 346 -0.460 -9.639 2.629 -9.338 -0.336 2.777 296.057 2769.296 -3191.721 0.037 0.044 -0.682 0.03 0.63 -0.77 0
1 3.47 347 -0.397 -9.625 2.672 -9.216 0.061 1.587 296.057 2769.296 -3191.721 -0.029 0.028 -0.735 0.03 0.63 -0.77 0
1 3.48 348 -0.508 -9.702 2.524 -10.376 -1.251 1.495 356.018 2934.338 -3026.678 0.075 0.101 -0.603 0.03 0.63 -0.77 0
1 3.49 349 -0.627 -9.821 2.452 -9.430 -2.930 1.617 356.018 2814.417 -3356.763 0.192 0.219 -0.542 0.03 0.63 -0.77 0
1 3.50 350 -0.431 -9.975 2.399 -8.301 -5.432 2.167 356.018 2814.417 -3356.763 -0.007 0.371 -0.499 0.03 0.63 -0.77 0
1 3.51 351 -0.369 -9.759 2.409 -8.270 -6.653 2.472 251.086 2784.436 -3221.701 -0.071 0.154 -0.517 0.03 0.63 -0.77 0
1 3.52 352 -0.043 -9.817 2.303 -7.690 -8.209 3.632 281.067 2934.338 -3221.701 -0.398 0.210 -0.419 0.03 0.63 -0.77 0
1 3.53 353 0.144 -9.702 2.260 -8.637 -8.728 4.730 175.985 2904.358 -3146.750 -0.586 0.093 -0.383 0.03 0.64 -0.77 0
1 3.54 354 -0.038 -9.745 2.212 -8.087 -7.690 5.737 175.985 2904.358 -3146.750 -0.405 0.135 -0.345 0.03 0.64 -0.77 0
1 3.55 355 0.072 -9.654 2.131 -7.050 -6.348 5.951 101.034 2814.417 -3071.799 -0.516 0.042 -0.272 0.03 0.64 -0.77 0
1 3.56 356 0.215 -9.639 2.021 -5.646 -5.737 6.897 190.976 2874.377 -3266.822 -0.666 0.025 -0.178 0.03 0.64 -0.77 0.01
1 3.57 357 0.254 -9.659 1.891 -5.768 -3.235 7.172 190.976 2874.377 -3266.822 -0.708 0.043 -0.055 0.03 0.64 -0.77 0.01
1 3.58 358 -0.014 -9.524 1.920 -5.798 -1.312 6.897 296.057 2844.397 -3266.822 -0.445 -0.092 -0.092 0.03 0.64 -0.77 0.01
1 3.59 359 -0.129 -9.659 1.925 -5.890 0.153 7.294 221.106 2724.325 -3116.770 -0.336 0.040 -0.104 0.03 0.64 -0.77 0.01
1 3.60 360 -0.019 -9.510 1.733 -6.012 1.343 6.531 221.106 3069.400 -3116.770 -0.455 -0.109 0.079 0.03 0.64 -0.77 0.01
1 3.61 361 -0.115 -9.491 1.834 -6.042 2.594 6.653 221.106 3069.400 -3116.770 -0.366 -0.129 -0.030 0.03 0.64 -0.77 0.01
1 3.62 362 -0.153 -9.668 1.982 -6.531 3.418 7.294 251.086 2814.417 -3146.750 -0.336 0.046 -0.187 0.03 0.64 -0.77 0.01
1 3.63 363 -0.407 -9.831 2.117 -6.714 5.829 5.920 266.077 2724.325 -3161.740 -0.100 0.207 -0.339 0.03 0.64 -0.77 0.01
1 3.64 364 -0.771 -9.879 2.145 -5.432 5.829 3.998 266.077 2724.325 -3161.740 0.255 0.254 -0.375 0.03 0.64 -0.77 0.01
1 3.65 365 -0.852 -9.932 2.231 -3.723 5.463 3.052 205.966 2904.358 -3026.678 0.329 0.306 -0.467 0.03 0.64 -0.77 0.01
1 3.66 366 -0.972 -9.936 2.193 -3.845 4.242 2.228 205.966 2904.358 -3026.678 0.442 0.311 -0.431 0.03 0.64 -0.77 0.01
1 3.67 367 -0.752 -9.841 2.145 -1.923 1.099 1.648 296.057 2949.329 -3056.809 0.215 0.215 -0.386 0.03 0.64 -0.77 0.01
1 3.68 368 -0.623 -9.941 2.174 -2.075 -0.275 1.831 296.057 2949.329 -3056.809 0.080 0.316 -0.414 0.03 0.64 -0.77 0.01
1 3.69 369 -0.579 -9.989 2.088 -4.761 -0.183 1.862 266.077 2994.299 -3236.691 0.033 0.364 -0.329 0.03 0.64 -0.77 0.01
1 3.70 370 -0.283 -9.999 1.930 -2.502 -2.167 3.296 326.038 2979.309 -3146.750 -0.269 0.372 -0.179 0.03 0.64 -0.77 0.01
1 3.71 371 -0.235 -9.754 1.992 -0.885 -1.801 2.960 326.038 2979.309 -3146.750 -0.320 0.127 -0.244 0.03 0.64 -0.77 0.01
1 3.72 372 -0.239 -9.520 1.911 -1.099 -0.793 2.686 341.028 2949.329 -3191.721 -0.316 -0.107 -0.162 0.03 0.64 -0.77 0.01
1 3.73 373 -0.072 -9.529 1.987 -3.601 -0.305 2.930 341.028 2949.329 -3191.721 -0.485 -0.098 -0.240 0.03 0.64 -0.77 0.01
1 3.74 374 -0.057 -9.524 1.896 -5.737 0.702 2.502 371.008 2799.426 -3056.809 -0.500 -0.103 -0.153 0.03 0.64 -0.77 0.01
1 3.75 375 -0.235 -9.845 1.796 -5.035 1.617 1.556 371.008 2799.426 -3056.809 -0.323 0.216 -0.060 0.03 0.64 -0.77 0.01
1 3.76 376 -0.225 -10.118 1.887 -4.517 2.655 1.068 266.077 2874.377 -3011.688 -0.331 0.488 -0.159 0.03 0.64 -0.77 0.01
1 3.77 377 -0.417 -10.032 1.925 -2.533 3.601 0.763 251.086 2934.338 -3071.799 -0.139 0.400 -0.203 0.03 0.64 -0.77 0.01
1 3.78 378 -0.546 -9.970 1.887 1.984 5.249 0.580 251.086 2934.338 -3071.799 -0.012 0.338 -0.169 0.03 0.64 -0.77 0.01
1 3.79 379 -0.508 -9.702 1.963 3.021 5.096 -0.092 296.057 2949.329 -3161.740 -0.051 0.070 -0.242 0.03 0.64 -0.77 0.01
1 3.80 380 -0.623 -9.740 1.891 1.709 4.608 -0.641 296.057 2949.329 -3161.740 0.063 0.110 -0.164 0.03 0.64 -0.77 0.01
1 3.81 381 -0.493 -9.836 1.887 1.434 3.601 -0.092 175.985 2934.338 -2996.698 -0.067 0.206 -0.157 0.03 0.64 -0.77 0.01
1 3.82 382 -0.651 -9.869 1.882 4.150 1.190 1.556 175.985 2934.338 -2996.698 0.089 0.240 -0.148 0.03 0.64 -0.77 0.01
1 3.83 383 -0.632 -9.821 1.868 5.157 -0.610 2.563 356.018 2934.338 -3176.730 0.067 0.194 -0.127 0.03 0.64 -0.77 0.01
1 3.84 384 -0.417 -9.836 1.949 3.601 -1.282 3.021 341.028 2949.329 -3191.721 -0.153 0.210 -0.200 0.03 0.64 -0.77 0.01
1 3.85 385 -0.469 -9.860 1.705 5.249 -0.336 4.181 341.028 2949.329 -3191.721 -0.108 0.237 0.058 0.03 0.64 -0.77 0.01
1 3.86 386 -0.527 -9.630 1.810 5.371 -0.305 5.035 281.067 2859.387 -3176.730 -0.056 0.009 -0.040 0.03 0.64 -0.77 0.01
1 3.87 387 -0.718 -9.438 1.801 6.409 -1.160 5.402 281.067 2859.387 -3176.730 0.128 -0.181 -0.022 0.03 0.64 -0.77 0.01
1 3.88 388 -0.728 -9.362 1.882 4.974 -2.533 5.646 266.077 2874.377 -3161.740 0.131 -0.255 -0.094 0.03 0.64 -0.77 0.01
1 3.89 389 -0.694 -9.481 1.891 3.723 -3.693 6.134 266.077 2874.377 -3161.740 0.088 -0.134 -0.096 0.03 0.64 -0.77 0.01
1 3.90 390 -0.929 -9.773 1.743 3.479 -5.890 6.989 56.063 2814.417 -3146.750 0.314 0.160 0.058 0.03 0.64 -0.77 0.01
1 3.91 391 -0.872 -9.577 1.786 3.448 -8.148 8.392 371.008 2994.299 -3011.688 0.246 -0.035 0.021 0.03 0.64 -0.77 0.01
1 3.92 392 -0.900 -9.534 1.729 2.930 -11.017 10.193 371.008 2994.299 -3011.688 0.250 -0.074 0.091 0.03 0.64 -0.77 0.01
1 3.93 393 -0.795 -9.553 1.868 1.892 -11.749 11.017 251.086 2934.338 -3101.779 0.131 -0.052 -0.043 0.03 0.64 -0.77 0.01
1 3.94 394 -0.809 -9.592 1.743 1.160 -13.306 11.627 251.086 2934.338 -3101.779 0.131 -0.012 0.086 0.03 0.64 -0.77 0.02
1 3.95 395 -0.910 -9.524 1.748 1.007 -14.191 12.848 221.106 2994.299 -3236.691 0.217 -0.078 0.084 0.03 0.64 -0.77 0.02
1 3.96 396 -0.757 -9.457 1.700 0.397 -16.266 14.740 190.976 2994.299 -2981.708 0.047 -0.143 0.135 0.03 0.64 -0.77 0.02
1 3.97 397 -0.555 -9.625 1.834 -1.556 -16.327 15.778 175.985 2934.338 -3176.730 -0.172 0.026 0.004 0.03 0.64 -0.77 0.02
1 3.98 398 -0.498 -9.817 1.686 -3.021 -16.266 17.090 356.018 2904.358 -3221.701 -0.248 0.219 0.152 0.03 0.64 -0.77 0.02
1 3.99 399 -0.369 -10.037 1.748 -1.709 -15.503 18.189 356.018 2904.358 -3221.701 -0.396 0.441 0.087 0.03 0.64 -0.77 0.02
1 4.00 400 -0.402 -9.936 2.069 1.312 -14.252 20.203 266.077 2799.426 -3161.740 -0.405 0.343 -0.236 0.03 0.64 -0.77 0.03
1 4.01 401 -0.345 -9.888 2.050 0.946 -12.970 21.118 266.077 2799.426 -3161.740 -0.486 0.298 -0.212 0.03 0.64 -0.77 0.03
1 4.02 402 -0.297 -10.042 2.145 0.580 -12.024 22.644 385.999 2934.338 -3221.701 -0.558 0.454 -0.304 0.03 0.64 -0.77 0.03
1 4.03 403 -0.148 -10.080 2.255 0.610 -9.888 24.353 221.106 2799.426 -3191.721 -0.733 0.496 -0.410 0.03 0.64 -0.77 0.03
1 4.04 404 0.000 -10.080 2.667 3.845 -4.730 25.635 296.057 2649.374 -3086.789 -0.909 0.499 -0.817 0.03 0.64 -0.77 0.03
1 4.05 405 0.038 -10.022 2.998 5.524 -1.373 26.367 281.067 2814.417 -3101.779 -0.977 0.447 -1.138 0.03 0.64 -0.77 0.04
1 4.06 406 0.091 -10.133 3.184 8.118 2.228 27.741 281.067 2814.417 -3101.779 -1.060 0.562 -1.310 0.03 0.64 -0.77 0.04
1 4.07 407 0.101 -9.951 3.429 14.374 9.094 28.351 371.008 2724.325 -3086.789 -1.136 0.396 -1.511 0.04 0.63 -0.77 0.04
1 4.08 408 -0.196 -9.563 3.606 18.768 15.228 25.360 371.008 2724.325 -3086.789 -0.874 0.018 -1.657 0.04 0.63 -0.77 0.04
1 4.09 409 -0.374 -9.280 3.405 23.407 20.752 21.851 356.018 2814.417 -3146.750 -0.731 -0.253 -1.418 0.04 0.63 -0.77 0.04
1 4.10 410 -0.608 -8.806 3.266 26.642 25.086 17.059 415.979 2844.397 -3011.688 -0.526 -0.714 -1.236 0.04 0.63 -0.78 0.04
1 4.11 411 -1.044 -8.490 3.160 28.137 29.694 8.942 491.080 2874.377 -3266.822 -0.118 -1.017 -1.085 0.04 0.63 -0.78 0.04
1 4.12 412 -1.350 -8.581 3.189 26.428 31.006 5.249 430.969 2814.417 -3101.779 0.166 -0.913 -1.068 0.05 0.62 -0.78 0.04
1 4.13 413 -1.580 -8.677 3.256 26.184 32.288 2.502 430.969 2814.417 -3101.779 0.376 -0.805 -1.092 0.05 0.62 -0.78 0.04
1 4.14 414 -1.868 -9.031 2.873 29.724 34.088 -0.244 430.969 2739.315 -3146.750 0.630 -0.427 -0.627 0.05 0.62 -0.78 0.03
1 4.15 415 -1.781 -8.725 2.729 32.501 33.447 -0.549 430.969 2739.315 -3146.750 0.528 -0.721 -0.439 0.06 0.62 -0.78 0.03
1 4.16 416 -1.681 -8.754 2.672 27.252 31.067 -1.709 521.061 2694.345 -3266.822 0.413 -0.680 -0.337 0.06 0.61 -0.79 0.03
1 4.17 417 -1.389 -9.031 2.629 18.951 28.778 0.305 445.959 2724.325 -3116.770 0.108 -0.392 -0.261 0.06 0.61 -0.79 0.03
1 4.18 418 -1.250 -9.429 2.418 17.395 28.534 3.448 491.080 2769.296 -3086.789 -0.046 0.014 -0.027 0.06 0.61 -0.79 0.03
1 4.19 419 -1.302 -9.955 2.270 19.867 30.212 5.341 521.061 2694.345 -3311.792 -0.010 0.548 0.141 0.06 0.61 -0.79 0.03
1 4.20 420 -1.149 -10.008 2.184 22.675 32.593 4.944 521.061 2694.345 -3311.792 -0.181 0.608 0.249 0.07 0.61 -0.79 0.03
1 4.21 421 -1.350 -9.362 2.045 28.259 34.668 2.197 596.012 2604.403 -3266.822 0.002 -0.030 0.410 0.07 0.61 -0.79 0.03
1 4.22 422 -1.666 -8.888 1.714 23.590 37.079 -1.495 597.511 2602.904 -3269.220 0.288 -0.484 0.797 0.07 0.61 -0.79 0.02
1 4.23 423 -1.580 -8.849 1.370 20.996 38.269 -3.723 522.560 2572.924 -3269.220 0.189 -0.515 1.162 0.07 0.6 -0.79 0.02
1 4.24 424 -1.877 -8.710 1.302 19.043 39.276 -7.172 657.622 2707.836 -3179.279 0.475 -0.649 1.243 0.08 0.6 -0.79 0.02
1 4.25 425 -1.896 -8.682 1.183 16.022 40.100 -9.674 522.560 2722.826 -3269.220 0.486 -0.673 1.374 0.08 0.6 -0.79 0.02
1 4.26 426 -2.222 -8.294 0.910 14.404 40.466 -13.306 552.540 2722.826 -3344.171 0.806 -1.059 1.652 0.08 0.6 -0.79 0.01
1 4.27 427 -2.461 -8.074 0.766 7.690 39.185 -16.266 552.540 2722.826 -3344.171 1.045 -1.277 1.804 0.08 0.6 -0.79 0.01
1 4.28 428 -2.648 -8.275 0.728 -1.129 37.354 -17.242 702.592 2572.924 -3194.269 1.238 -1.075 1.848 0.08 0.6 -0.79 0.01
1 4.29 429 -3.227 -7.753 0.431 -0.824 38.574 -19.379 702.592 2572.924 -3194.269 1.838 -1.605 2.125 0.09 0.6 -0.79 0
1 4.30 430 -3.802 -7.480 0.297 -4.395 35.004 -22.308 717.583 2557.934 -3284.210 2.426 -1.883 2.250 -0.09 -0.6 0.79 0
1 4.31 431 -4.262 -7.475 0.192 -13.397 27.313 -22.400 852.495 2512.963 -3254.230 2.905 -1.895 2.338 -0.09 -0.6 0.79 0
1 4.32 432 -4.501 -7.413 -0.148 -21.088 16.937 -20.325 657.622 2632.885 -3404.282 3.166 -1.968 2.651 -0.09 -0.6 0.79 0.01
1 4.33 433 -4.429 -7.355 -0.172 -28.046 2.472 -16.541 687.602 2587.914 -3254.230 3.117 -2.038 2.639 -0.09 -0.61 0.79 0.01
1 4.34 434 -3.802 -7.700 1.106 -42.908 -21.545 -14.313 687.602 2587.914 -3254.230 2.514 -1.708 1.317 -0.09 -0.61 0.79 0.01
1 4.35 435 -3.036 -9.477 1.987 -62.531 -36.987 -10.498 597.511 2722.826 -3314.191 1.776 0.051 0.382 -0.09 -0.61 0.79 0.01
1 4.36 436 -1.829 -12.019 2.097 -53.803 -46.234 3.540 597.511 2722.826 -3314.191 0.603 2.548 0.100 -0.08 -0.62 0.78 0
1 4.37 437 -1.805 -11.727 2.313 -23.773 -49.591 6.287 762.553 2722.826 -3194.269 0.588 2.242 -0.172 -0.08 -0.62 0.78 0
1 4.38 438 -1.298 -11.785 2.931 -30.060 -55.725 6.165 687.602 2782.937 -3224.250 0.088 2.293 -0.815 0.08 0.62 -0.78 0
1 4.39 439 0.206 -12.287 2.911 -40.375 -52.704 15.198 687.602 2782.937 -3224.250 -1.409 2.786 -0.835 0.07 0.62 -0.78 0.01
1 4.40 440 0.651 -11.009 1.829 -26.550 -23.132 8.575 702.592 2767.947 -3164.289 -1.863 1.498 0.200 0.07 0.63 -0.78 0.01
1 4.41 441 -0.479 -10.090 1.264 -29.633 -10.345 -8.514 702.592 2767.947 -3164.289 -0.741 0.572 0.728 0.07 0.63 -0.78 0.01
1 4.42 442 -2.102 -10.305 1.092 -40.192 -7.477 -19.623 612.501 2737.966 -3224.250 0.898 0.777 0.859 0.07 0.63 -0.77 0.01
1 4.43 443 -2.955 -11.047 0.728 -49.011 -14.587 -21.881 612.501 2737.966 -3224.250 1.782 1.503 1.163 0.07 0.63 -0.77 0.01
1 4.44 444 -2.615 -12.168 0.915 -46.112 -33.936 -18.036 627.491 2797.927 -3059.207 1.511 2.589 0.836 0.06 0.64 -0.77 0.01
1 4.45 445 -1.523 -11.995 1.413 -38.544 -40.222 -12.238 582.521 2812.917 -3104.178 0.453 2.402 0.279 0.06 0.64 -0.77 0.01
1 4.46 446 -0.555 -11.627 1.786 -36.041 -40.924 -7.599 582.521 2812.917 -3104.178 -0.488 2.022 -0.143 0.06 0.64 -0.76 0.01
1 4.47 447 -0.010 -11.368 1.968 -33.875 -36.682 -6.775 537.550 2857.888 -3029.227 -1.013 1.753 -0.371 0.06 0.64 -0.76 0.01
1 4.48 448 0.369 -10.726 2.126 -27.069 -29.602 -7.629 537.550 2857.888 -3029.227 -1.373 1.103 -0.572 0.05 0.65 -0.76 0.02
1 4.49 449 0.273 -10.367 2.193 -26.306 -25.513 -8.301 597.511 2797.927 -3119.168 -1.259 0.736 -0.676 0.05 0.65 -0.76 0.02
1 4.50 450 -0.010 -10.386 2.332 -26.337 -22.064 -8.301 597.511 2797.927 -3119.168 -0.958 0.748 -0.849 0.05 0.65 -0.76 0.02
1 4.51 451 -0.148 -10.046 2.480 -24.139 -17.090 -8.453 267.576 2797.927 -2909.305 -0.768 0.394 -1.058 0.05 0.65 -0.76 0.02
1 4.52 452 -0.101 -9.817 2.591 -20.905 -12.665 -10.193 462.599 2977.960 -2924.295 -0.793 0.158 -1.193 0.04 0.65 -0.76 0.02
1 4.53 453 -0.311 -9.548 2.595 -18.097 -8.942 -13.184 462.599 2977.960 -2924.295 -0.558 -0.115 -1.219 0.04 0.65 -0.75 0.02
1 4.54 454 -0.575 -9.400 2.567 -14.404 -7.111 -15.869 538.149 3052.461 -2925.194 -0.267 -0.268 -1.205 0.04 0.65 -0.75 0.02
1 4.55 455 -1.116 -9.137 2.375 -11.505 -8.911 -18.860 328.136 2977.510 -2895.214 0.303 -0.536 -1.024 0.04 0.66 -0.75 0.02
1 4.56 456 -1.293 -8.979 2.437 -10.773 -13.977 -18.005 388.097 3052.461 -3030.126 0.508 -0.697 -1.094 0.04 0.66 -0.75 0.02
1 4.57 457 -1.288 -9.094 2.433 -9.979 -18.555 -15.350 388.097 3052.461 -3030.126 0.530 -0.585 -1.095 0.04 0.66 -0.75 0.02
1 4.58 458 -1.082 -8.873 2.548 -8.911 -25.543 -10.742 343.126 3022.481 -2940.185 0.367 -0.810 -1.217 0.03 0.66 -0.75 0.02
1 4.59 459 -0.699 -8.801 2.519 -8.942 -28.534 -7.813 283.016 3082.442 -2895.214 0.001 -0.883 -1.189 0.03 0.66 -0.75 0.02
1 4.60 460 -0.412 -8.734 2.749 -11.688 -28.992 -6.134 283.016 3082.442 -2895.214 -0.271 -0.951 -1.420 0.03 0.66 -0.75 0.02
1 4.61 461 -0.393 -9.031 2.624 -13.733 -28.168 -3.357 283.016 3007.491 -2895.214 -0.275 -0.656 -1.300 0.03 0.66 -0.75 0.02
1 4.62 462 -0.196 -9.271 2.634 -12.299 -27.618 -0.946 343.126 3067.452 -2910.204 -0.459 -0.418 -1.317 0.03 0.66 -0.75 0.02
1 4.63 463 -0.484 -9.750 2.509 -11.475 -27.588 0.183 223.055 2917.399 -2985.155 -0.161 0.059 -1.199 0.02 0.66 -0.75 0.02
1 4.64 464 -0.608 -9.639 2.437 -8.301 -27.496 1.099 223.055 2917.399 -2985.155 -0.030 -0.052 -1.131 0.02 0.66 -0.75 0.02
1 4.65 465 -0.828 -9.721 2.399 -6.378 -26.917 1.434 253.035 2902.409 -2820.113 0.196 0.029 -1.094 0.02 0.66 -0.75 0.03
1 4.66 466 -0.852 -9.644 2.389 -5.676 -26.245 2.472 118.123 3022.481 -2910.204 0.223 -0.048 -1.081 0.02 0.66 -0.75 0.03
1 4.67 467 -0.872 -9.635 2.337 -7.050 -24.994 3.326 119.172 3021.432 -2912.603 0.243 -0.057 -1.027 0.02 0.66 -0.75 0.03
1 4.68 468 -0.824 -9.721 1.944 -6.805 -25.543 3.601 14.091 3111.373 -2732.720 0.193 0.029 -0.635 0.02 0.66 -0.75 0.03
1 4.69 469 -0.838 -9.793 2.093 -3.754 -27.191 3.387 119.172 2991.451 -2942.733 0.207 0.101 -0.784 0.01 0.66 -0.75 0.03
1 4.70 470 -0.838 -9.860 2.006 -1.495 -27.161 3.265 254.084 3051.412 -2822.661 0.206 0.169 -0.694 0.01 0.66 -0.75 0.03
1 4.71 471 -0.661 -9.908 2.011 -1.984 -27.649 2.899 254.084 3051.412 -2822.661 0.029 0.217 -0.693 0.01 0.66 -0.75 0.04
1 4.72 472 -0.522 -10.300 1.935 -2.136 -25.604 4.272 59.211 3126.363 -2822.661 -0.110 0.610 -0.613 0.01 0.66 -0.75 0.04
1 4.73 473 -0.503 -10.286 1.738 3.296 -26.062 5.859 29.231 3126.363 -2747.710 -0.130 0.597 -0.406 0.01 0.66 -0.75 0.04
1 4.74 474 -0.326 -10.018 1.786 6.744 -26.276 5.829 29.231 3126.363 -2747.710 -0.310 0.331 -0.442 0.01 0.66 -0.75 0.04
1 4.75 475 -0.263 -9.836 1.863 8.087 -25.024 4.334 134.163 3126.363 -2927.593 -0.372 0.151 -0.503 0 0.66 -0.75 0.04
1 4.76 476 -0.249 -9.884 1.686 7.172 -24.109 5.524 149.153 3021.432 -2912.603 -0.386 0.202 -0.309 0 0.66 -0.75 0.05
1 4.77 477 -0.254 -9.778 1.863 8.392 -23.651 4.089 104.182 3051.412 -2897.612 -0.381 0.098 -0.471 0 0.65 -0.75 0.05
1 4.78 478 -0.249 -9.730 1.777 12.268 -20.935 1.862 104.182 3051.412 -2897.612 -0.384 0.053 -0.366 0 0.65 -0.75 0.05
1 4.79 479 -0.364 -9.524 1.853 12.299 -20.538 1.770 -75.701 3051.412 -2777.690 -0.264 -0.150 -0.419 0 0.65 -0.76 0.05
1 4.80 480 -0.302 -9.706 1.887 11.078 -20.386 0.122 104.182 3006.441 -2852.642 -0.317 0.039 -0.407 -0 0.65 -0.76 0.05
1 4.81 481 -0.321 -9.836 1.839 11.932 -20.325 0.458 104.182 3006.441 -2852.642 -0.291 0.171 -0.338 -0 0.65 -0.76 0.05
1 4.82 482 -0.129 -9.917 2.117 13.001 -19.653 1.678 29.231 3126.363 -2822.661 -0.477 0.255 -0.593 -0 0.65 -0.76 0.05
1 4.83 483 -0.340 -9.960 1.959 13.641 -19.226 2.228 59.211 2976.461 -3002.694 -0.261 0.302 -0.411 -0.01 0.65 -0.76 0.05
1 4.84 484 -0.225 -9.898 2.107 18.646 -19.043 2.014 -45.720 3126.363 -2897.612 -0.372 0.244 -0.533 -0.01 0.65 -0.76 0.05
1 4.85 485 -0.278 -9.687 2.346 20.813 -19.501 0.885 -45.720 3126.363 -2897.612 -0.316 0.038 -0.742 -0.01 0.65 -0.76 0.06
1 4.86 486 -0.235 -9.639 2.380 20.477 -20.844 -0.549 -45.720 3126.363 -2972.713 -0.353 -0.004 -0.740 -0.01 0.65 -0.76 0.06
1 4.87 487 -0.038 -9.639 2.313 19.257 -21.454 -1.892 -60.710 2991.451 -2912.603 -0.541 0.001 -0.635 -0.01 0.64 -0.76 0.06
1 4.88 488 -0.110 -9.903 2.236 21.332 -21.484 -3.143 -60.710 2991.451 -2912.603 -0.445 0.276 -0.487 -0.01 0.64 -0.77 0.06
1 4.89 489 -0.110 -9.922 2.083 23.529 -22.064 -3.998 89.192 3021.432 -2987.704 -0.430 0.301 -0.297 -0.01 0.64 -0.77 0.06
1 4.90 490 0.010 -9.917 1.987 23.529 -23.132 -3.510 29.231 2931.490 -2852.642 -0.534 0.303 -0.163 -0.02 0.64 -0.77 0.06
1 4.91 491 0.201 -9.711 1.968 22.186 -24.048 -2.716 14.091 2991.451 -3062.655 -0.710 0.103 -0.106 -0.02 0.64 -0.77 0.06
1 4.92 492 0.522 -9.975 1.796 19.043 -22.766 -2.960 14.091 2991.451 -3062.655 -1.015 0.372 0.100 -0.02 0.63 -0.77 0.06
1 4.93 493 0.886 -10.046 1.757 18.860 -20.813 -2.472 59.211 2901.510 -3107.625 -1.362 0.449 0.168 -0.02 0.63 -0.77 0.06
1 4.94 494 1.044 -10.181 1.748 17.883 -17.456 -3.265 -75.701 2901.510 -3002.694 -1.501 0.588 0.205 -0.02 0.63 -0.77 0.06
1 4.95 495 0.852 -10.401 1.508 17.944 -9.674 -6.439 -75.701 2901.510 -3002.694 -1.267 0.816 0.491 -0.02 0.63 -0.77 0.06
1 4.96 496 0.742 -10.410 1.393 19.989 -6.592 -8.301 29.231 2931.490 -3182.727 -1.134 0.829 0.629 -0.03 0.63 -0.77 0.06
1 4.97 497 0.891 -10.339 1.408 20.844 -4.059 -9.003 -225.753 2811.418 -3032.674 -1.259 0.762 0.640 -0.03 0.63 -0.77 0.06
1 4.98 498 1.125 -10.238 1.437 19.013 -0.336 -9.552 -225.753 2811.418 -3032.674 -1.469 0.666 0.635 -0.03 0.63 -0.78 0.06
1 4.99 499 1.441 -10.061 1.470 17.792 7.477 -13.641 -120.671 2856.389 -3002.694 -1.760 0.492 0.623 -0.03 0.63 -0.78 0.06
1 5.00 500 1.001 -10.171 1.408 16.754 13.428 -17.395 -15.740 2856.389 -3227.697 -1.290 0.606 0.705 -0.03 0.63 -0.78 0.06
1 5.01 501 0.761 -10.353 1.341 16.663 18.341 -20.660 -60.710 2841.399 -3167.586 -1.018 0.791 0.791 -0.03 0.62 -0.78 0.06
1 5.02 502 0.211 -10.042 1.465 19.409 19.074 -22.919 -60.710 2841.399 -3167.586 -0.403 0.487 0.704 -0.03 0.62 -0.78 0.05
1 5.03 503 -0.019 -9.927 1.475 20.142 18.341 -21.759 -225.753 2976.461 -3107.625 -0.143 0.376 0.716 -0.03 0.62 -0.78 0.05
1 5.04 504 -0.239 -9.668 1.518 18.707 17.059 -19.684 -150.652 2781.438 -3152.596 0.103 0.122 0.695 -0.03 0.62 -0.78 0.05
1 5.05 505 -0.283 -9.184 1.398 17.151 15.045 -18.768 -150.652 2781.438 -3152.596 0.169 -0.357 0.836 -0.03 0.62 -0.78 0.05
1 5.06 506 -0.115 -9.017 1.317 12.878 11.475 -16.968 -225.753 2856.389 -3107.625 0.022 -0.520 0.936 -0.03 0.62 -0.78 0.04
1 5.07 507 -0.086 -8.849 1.326 9.216 9.796 -15.167 -195.623 2901.510 -3152.596 0.013 -0.685 0.941 -0.03 0.62 -0.78 0.04
1 5.08 508 -0.067 -8.672 1.235 6.744 8.270 -12.848 -195.623 2811.418 -3107.625 0.013 -0.860 1.042 -0.03 0.62 -0.78 0.04
1 5.09 509 0.029 -8.763 1.279 5.859 7.141 -9.369 -195.623 2811.418 -3107.625 -0.066 -0.767 1.003 -0.03 0.62 -0.78 0.04
1 5.10 510 0.148 -8.500 1.322 2.441 8.575 -2.960 -135.662 2871.379 -3197.717 -0.167 -1.029 0.969 -0.03 0.62 -0.78 0.04
1 5.11 511 0.139 -8.471 1.475 -1.404 9.827 -0.854 -45.720 2736.467 -3152.596 -0.157 -1.057 0.817 -0.03 0.62 -0.78 0.04
1 5.12 512 0.172 -8.481 1.432 -3.479 11.108 1.709 -45.720 2736.467 -3152.596 -0.194 -1.048 0.857 -0.03 0.62 -0.78 0.04
1 5.13 513 0.278 -8.437 1.595 -5.890 12.512 3.784 -30.730 2796.428 -3122.616 -0.306 -1.093 0.688 -0.03 0.62 -0.78 0.04
1 5.14 514 0.168 -8.663 1.733 -8.972 13.580 6.104 -180.632 2841.399 -3167.586 -0.206 -0.870 0.540 -0.03 0.62 -0.78 0.04
1 5.15 515 0.129 -8.648 1.925 -10.895 14.099 6.958 -135.662 2796.428 -3242.688 -0.181 -0.887 0.335 -0.02 0.62 -0.78 0.03
1 5.16 516 0.263 -8.701 1.954 -15.198 13.458 7.019 -135.662 2796.428 -3242.688 -0.328 -0.839 0.289 -0.02 0.62 -0.78 0.03
1 5.17 517 0.479 -8.868 1.911 -24.292 15.564 9.369 -255.733 2691.497 -3017.684 -0.571 -0.683 0.282 -0.02 0.62 -0.78 0.03
1 5.18 518 0.642 -9.457 1.566 -30.762 18.311 11.841 -120.671 2631.386 -3227.697 -0.750 -0.102 0.588 -0.02 0.62 -0.78 0.03
1 5.19 519 0.666 -10.022 1.781 -30.823 19.836 14.343 -120.671 2631.386 -3227.697 -0.793 0.452 0.323 -0.02 0.63 -0.78 0.03
1 5.20 520 0.493 -10.664 2.437 -27.527 22.553 12.878 29.231 2706.487 -3227.697 -0.642 1.084 -0.381 -0.02 0.63 -0.78 0.03
1 5.21 521 -0.043 -11.378 2.370 -27.710 33.081 6.805 -105.681 2796.428 -3092.635 -0.127 1.788 -0.356 -0.01 0.63 -0.78 0.03
1 5.22 522 -0.785 -11.071 1.331 2.167 29.572 -2.319 -15.740 2736.467 -3032.674 0.598 1.475 0.646 -0.01 0.63 -0.77 0.03
1 5.23 523 -0.599 -10.262 1.662 3.998 24.872 -1.801 -15.740 2736.467 -3032.674 0.403 0.664 0.309 -0.01 0.63 -0.77 0.03
1 5.24 524 -0.963 -10.530 1.422 -16.449 25.482 -3.662 -15.740 2976.461 -3107.625 0.752 0.930 0.537 -0.01 0.63 -0.77 0.03
1 5.25 525 -0.986 -10.698 1.101 -10.040 17.426 -7.263 14.091 2916.500 -3167.586 0.771 1.092 0.830 -0.01 0.63 -0.77 0.02
1 5.26 526 -0.910 -10.616 1.350 -4.456 8.453 -7.813 14.091 2916.500 -3167.586 0.699 1.008 0.565 -0.01 0.63 -0.77 0.02
1 5.27 527 -0.613 -10.305 1.379 -6.592 2.838 -4.211 -15.740 2976.461 -3257.678 0.408 0.694 0.527 -0.01 0.63 -0.77 0.02
1 5.28 528 -0.125 -10.147 1.298 -7.690 -1.373 0.061 14.091 2871.379 -3167.586 -0.080 0.533 0.593 -0 0.64 -0.77 0.02
1 5.29 529 0.105 -9.893 1.331 -5.768 -2.899 2.930 89.192 2766.448 -2987.704 -0.310 0.276 0.544 -0.01 0.64 -0.77 0.02
1 5.30 530 0.469 -9.821 1.370 -5.768 -2.533 4.272 89.192 2766.448 -2987.704 -0.675 0.202 0.492 -0.01 0.64 -0.77 0.02
1 5.31 531 0.680 -9.697 1.499 -6.439 -0.824 6.165 14.091 2871.379 -3167.586 -0.887 0.075 0.350 -0.01 0.64 -0.77 0.02
1 5.32 532 0.690 -9.682 1.638 -6.470 3.967 4.608 14.091 2796.428 -3062.655 -0.903 0.056 0.186 -0 0.64 -0.77 0.02
1 5.33 533 0.464 -9.788 1.561 -5.310 6.897 2.777 14.091 2796.428 -3062.655 -0.679 0.159 0.252 -0 0.64 -0.77 0.02
1 5.34 534 0.311 -9.654 1.666 -2.319 9.277 0.549 44.221 2991.451 -3122.616 -0.526 0.024 0.138 -0 0.64 -0.77 0.02
1 5.35 535 -0.019 -9.486 1.834 -1.495 9.369 -1.434 -75.701 2901.510 -3152.596 -0.193 -0.145 -0.034 -0 0.64 -0.77 0.02
1 5.36 536 -0.072 -9.438 1.638 -2.258 7.599 -4.334 -15.740 2856.389 -3077.645 -0.139 -0.193 0.159 -0 0.64 -0.77 0.02
1 5.37 537 -0.148 -9.496 1.848 -2.563 5.188 -4.669 -15.740 2856.389 -3077.645 -0.057 -0.137 -0.056 -0 0.64 -0.77 0.02
1 5.38 538 0.000 -9.874 1.733 -2.777 3.357 -4.517 119.172 3141.503 -3092.635 -0.200 0.241 0.055 -0 0.64 -0.77 0.02
1 5.39 539 0.249 -10.061 1.997 1.770 3.265 -3.265 44.221 2946.480 -3122.616 -0.435 0.426 -0.216 -0 0.64 -0.77 0.02
1 5.40 540 0.268 -10.027 1.906 4.791 2.045 -1.617 44.221 2946.480 -3122.616 -0.447 0.393 -0.121 -0 0.64 -0.77 0.02
1 5.41 541 -0.024 -10.061 1.944 7.874 2.014 -0.885 -30.730 2796.428 -3092.635 -0.151 0.428 -0.151 -0 0.64 -0.77 0.02
1 5.42 542 -0.287 -9.936 2.107 11.414 3.784 0.580 -30.730 2796.428 -3092.635 0.114 0.306 -0.300 -0 0.64 -0.77 0.02
1 5.43 543 -0.661 -9.893 2.093 11.108 3.693 0.305 59.211 2976.461 -3152.596 0.485 0.266 -0.267 -0 0.64 -0.77 0.02
1 5.44 544 -0.584 -9.955 2.107 10.315 0.977 -0.702 59.211 2976.461 -3152.596 0.404 0.332 -0.263 -0 0.64 -0.77 0.02
1 5.45 545 -0.637 -10.056 2.140 12.268 -0.397 -1.526 -150.652 2781.438 -3107.625 0.453 0.436 -0.280 -0 0.64 -0.77 0.02
1 5.46 546 -0.747 -9.994 2.140 13.672 -3.723 -1.984 59.211 2901.510 -3077.645 0.562 0.382 -0.240 -0 0.63 -0.77 0.02
1 5.47 547 -0.594 -9.855 2.112 11.993 -5.188 -0.610 59.211 2901.510 -3077.645 0.408 0.247 -0.190 -0 0.63 -0.77 0.02
1 5.48 548 -0.278 -9.908 2.198 11.200 -7.172 0.031 119.172 2871.379 -3092.635 0.091 0.303 -0.257 -0 0.63 -0.77 0.02
1 5.49 549 -0.014 -9.888 2.313 11.047 -6.683 0.610 119.172 2871.379 -3092.635 -0.172 0.288 -0.354 -0 0.63 -0.77 0.02
1 5.50 550 0.196 -9.845 2.413 10.773 -5.829 3.662 -15.740 2781.438 -3152.596 -0.382 0.249 -0.436 -0 0.63 -0.77 0.02
1 5.51 551 0.374 -9.850 2.471 10.742 -5.524 6.104 -15.740 2781.438 -3152.596 -0.560 0.257 -0.475 -0 0.63 -0.78 0.02
1 5.52 552 0.551 -10.037 2.806 9.460 -4.700 8.820 14.091 2871.379 -3092.635 -0.740 0.448 -0.792 -0 0.63 -0.78 0.02
1 5.53 553 0.757 -10.228 2.873 7.050 -1.587 10.468 -60.710 2871.379 -3197.717 -0.952 0.643 -0.842 -0 0.63 -0.78 0.02
1 5.54 554 0.958 -10.573 3.079 8.514 1.099 16.083 -60.710 2871.379 -3197.717 -1.173 0.995 -1.017 -0 0.63 -0.78 0.02
1 5.55 555 1.168 -10.894 3.558 9.522 4.700 19.989 134.163 2736.467 -3107.625 -1.409 1.319 -1.483 -0 0.63 -0.78 0.02
1 5.56 556 1.647 -11.526 4.061 8.637 8.514 26.703 134.163 2736.467 -3107.625 -1.921 1.955 -1.972 -0 0.63 -0.78 0.02
1 5.57 557 2.212 -12.273 4.899 11.688 14.343 35.462 119.172 2916.500 -3062.655 -2.532 2.706 -2.798 0 0.63 -0.78 0.02
1 5.58 558 3.089 -13.298 6.761 30.396 34.027 48.859 119.172 2916.500 -3062.655 -3.470 3.738 -4.641 0 0.63 -0.78 0.03
1 5.59 559 3.026 -12.426 6.714 52.704 54.505 52.033 -60.710 2871.379 -3197.717 -3.486 2.878 -4.556 0.01 0.62 -0.78 0.03
1 5.60 560 2.480 -9.204 5.497 79.529 80.841 42.175 29.231 2736.467 -3182.727 -3.129 -0.296 -3.181 0.02 0.62 -0.79 0.03
1 5.61 561 2.184 -8.399 5.047 78.736 86.823 37.567 29.231 2736.467 -3182.727 -2.921 -1.068 -2.624 0.03 0.61 -0.79 0.03
1 5.62 562 0.795 -7.154 2.969 58.228 99.854 27.008 179.133 2736.467 -3107.625 -1.595 -2.279 -0.438 0.03 0.61 -0.79 0.02
1 5.63 563 -0.445 -7.058 2.289 50.415 99.884 19.867 179.133 2736.467 -3107.625 -0.431 -2.350 0.310 0.04 0.6 -0.8 0.02
1 5.64 564 -1.504 -7.063 1.863 46.539 97.870 15.778 254.084 2631.386 -3227.697 0.560 -2.323 0.793 0.05 0.6 -0.8 0.02
1 5.65 565 -2.715 -6.752 1.116 39.703 89.905 6.866 254.084 2631.386 -3227.697 1.712 -2.613 1.592 0.05 0.6 -0.8 0.01
1 5.66 566 -3.314 -6.852 0.651 29.419 87.281 -2.411 524.958 2600.656 -3318.988 2.260 -2.494 2.102 0.06 0.6 -0.8 0.01
1 5.67 567 -4.396 -7.283 0.776 18.158 85.633 -12.543 554.938 2600.656 -3318.988 3.304 -2.049 2.009 0.07 0.59 -0.8 0.01
1 5.68 568 -6.062 -9.117 0.589 1.343 66.010 -22.247 554.938 2600.656 -3318.988 4.926 -0.207 2.204 -0.08 -0.59 0.8 0
1 5.69 569 -6.484 -9.539 0.096 14.557 40.253 -20.142 539.948 2630.636 -3363.958 5.336 0.212 2.685 -0.08 -0.59 0.8 0.01
1 5.70 570 -6.263 -8.696 0.283 34.271 10.895 -15.320 539.948 2630.636 -3363.958 5.128 -0.625 2.521 -0.08 -0.59 0.8 0.01
1 5.71 571 -5.320 -7.643 0.488 28.076 -15.167 -12.390 614.899 2585.666 -3333.978 4.184 -1.667 2.355 -0.08 -0.59 0.8 0.01
1 5.72 572 -3.429 -7.963 0.570 4.303 -42.389 -10.132 675.010 2450.753 -3273.867 2.284 -1.338 2.295 -0.08 -0.59 0.8 0.01
1 5.73 573 -2.131 -8.212 1.336 7.202 -50.293 -7.904 704.991 2495.724 -3243.887 1.004 -1.089 1.538 -0.08 -0.59 0.8 0.01
1 5.74 574 -0.905 -7.781 2.016 11.139 -44.556 -8.087 464.997 2480.734 -3333.978 -0.189 -1.518 0.875 -0.07 -0.59 0.8 0.01
1 5.75 575 -0.206 -7.437 2.576 2.136 -19.013 -19.348 464.997 2480.734 -3333.978 -0.822 -1.858 0.354 -0.07 -0.59 0.81 0
1 5.76 576 -0.814 -8.078 2.251 -4.883 -6.042 -30.914 584.919 2510.714 -3363.958 -0.175 -1.220 0.683 -0.07 -0.59 0.81 0
1 5.77 577 -1.710 -9.204 2.140 -8.484 -2.014 -38.635 584.919 2510.714 -3363.958 0.771 -0.102 0.785 -0.06 -0.59 0.81 0.01
1 5.78 578 -2.571 -10.152 1.968 -4.700 -7.751 -38.330 419.876 2525.705 -3453.900 1.685 0.836 0.942 -0.06 -0.59 0.81 0.01
1 5.79 579 -2.892 -9.965 2.184 3.021 -17.181 -30.029 450.007 2525.705 -3378.949 2.051 0.641 0.715 -0.06 -0.59 0.8 0.01
1 5.80 580 -2.303 -9.520 2.945 -5.859 -34.180 -10.468 599.909 2525.705 -3423.919 1.502 0.194 -0.043 -0.06 -0.59 0.8 0.01
1 5.81 581 -1.571 -10.066 3.965 -18.768 -42.816 2.350 539.948 2555.685 -3228.896 0.790 0.736 -1.068 -0.06 -0.59 0.8 0.01
1 5.82 582 -0.967 -12.120 4.674 -31.555 -49.164 15.656 539.948 2555.685 -3228.896 0.196 2.785 -1.792 -0.05 -0.59 0.8 0.01
1 5.83 583 -0.618 -12.656 3.606 -4.059 -42.023 32.105 464.997 2585.666 -3363.958 -0.168 3.302 -0.792 -0.05 -0.59 0.8 0
1 5.84 584 -1.135 -10.362 3.175 20.752 -34.424 23.071 464.997 2585.666 -3363.958 0.323 1.014 -0.349 0.05 0.59 -0.8 0
1 5.85 585 -0.943 -9.357 2.787 5.371 -36.102 14.923 359.916 2510.714 -3258.877 0.117 0.019 0.070 0.05 0.59 -0.8 0.01
1 5.86 586 -0.474 -9.285 2.514 -14.526 -34.302 11.017 284.964 2435.763 -3363.958 -0.358 -0.051 0.347 0.05 0.59 -0.8 0.01
1 5.87 587 -0.661 -9.788 2.394 -12.665 -26.581 0.458 269.974 2495.724 -3378.949 -0.168 0.446 0.447 0.04 0.59 -0.8 0.01
1 5.88 588 -0.680 -9.539 2.356 -11.810 -23.926 -2.228 344.925 2570.675 -3348.968 -0.139 0.189 0.465 0.04 0.6 -0.8 0.01
1 5.89 589 -0.618 -9.410 2.548 -14.771 -22.583 -6.348 344.925 2570.675 -3348.968 -0.187 0.054 0.256 0.04 0.6 -0.8 0.01
1 5.90 590 -0.493 -9.831 2.816 -14.069 -24.139 -10.956 329.935 2510.714 -3363.958 -0.270 0.459 -0.054 0.04 0.6 -0.8 0.01
1 5.91 591 -0.479 -9.850 2.945 -9.766 -25.848 -12.268 329.935 2510.714 -3363.958 -0.256 0.471 -0.200 0.04 0.6 -0.8 0.02
1 5.92 592 -0.747 -9.659 2.950 -7.629 -26.733 -12.543 210.013 2435.763 -3333.978 0.043 0.274 -0.215 0.03 0.6 -0.8 0.02
1 5.93 593 -0.924 -9.721 2.911 -7.172 -30.457 -11.078 149.902 2525.705 -3318.988 0.250 0.332 -0.184 0.03 0.6 -0.8 0.02
1 5.94 594 -0.742 -9.577 3.204 -7.599 -41.596 -6.012 210.013 2630.636 -3258.877 0.095 0.185 -0.482 0.03 0.6 -0.8 0.02
1 5.95 595 -0.010 -9.443 3.299 -8.240 -45.990 -4.364 225.003 2450.753 -3453.900 -0.613 0.048 -0.584 0.03 0.6 -0.8 0.02
1 5.96 596 0.551 -9.347 3.577 -9.766 -44.891 -3.357 225.003 2450.753 -3453.900 -1.147 -0.051 -0.865 0.02 0.6 -0.8 0.02
1 5.97 597 0.891 -9.271 3.697 -11.231 -40.711 -2.472 194.873 2645.776 -3498.871 -1.458 -0.131 -0.989 0.02 0.6 -0.8 0.02
1 5.98 598 1.063 -9.199 3.611 -9.979 -33.783 -5.341 194.873 2645.776 -3498.871 -1.568 -0.209 -0.914 0.01 0.6 -0.8 0.02
1 5.99 599 1.058 -9.031 3.706 -10.407 -29.297 -7.141 107.480 2477.736 -3264.124 -1.530 -0.380 -1.014 0.01 0.6 -0.8 0.03
1 6.00 600 0.924 -9.122 3.783 -11.200 -25.757 -9.033 227.402 2597.658 -3324.084 -1.363 -0.292 -1.097 0.01 0.6 -0.8 0.03
1 6.01 601 0.857 -9.280 4.003 -9.216 -22.858 -11.017 122.470 2522.707 -3279.114 -1.261 -0.137 -1.323 0.01 0.6 -0.8 0.03
1 6.02 602 0.599 -9.357 3.860 -6.928 -22.339 -12.207 92.490 2687.749 -3249.133 -0.968 -0.063 -1.183 0 0.6 -0.8 0.03
1 6.03 603 0.464 -9.117 3.821 -4.974 -22.095 -12.207 92.490 2687.749 -3249.133 -0.801 -0.304 -1.145 0 0.6 -0.8 0.03
1 6.04 604 0.627 -9.074 3.816 -6.683 -21.881 -9.613 -27.432 2567.677 -3204.163 -0.901 -0.349 -1.138 -0 0.6 -0.8 0.03
1 6.05 605 0.412 -9.074 3.687 -6.653 -21.515 -8.118 -27.432 2567.677 -3204.163 -0.657 -0.349 -1.008 -0 0.6 -0.8 0.03
1 6.06 606 0.350 -9.113 3.582 -6.226 -20.844 -4.242 62.359 2477.736 -3159.042 -0.573 -0.312 -0.904 -0.01 0.6 -0.8 0.03
1 6.07 607 0.239 -9.151 3.630 -6.714 -21.515 -2.106 -72.403 2582.667 -3294.104 -0.444 -0.274 -0.953 -0.01 0.6 -0.8 0.03
1 6.08 608 0.230 -9.208 3.572 -6.439 -23.254 -0.092 -57.413 2492.726 -3429.166 -0.420 -0.217 -0.897 -0.01 0.6 -0.8 0.03
1 6.09 609 0.369 -9.395 3.539 -4.456 -24.719 0.092 -27.432 2567.677 -3204.163 -0.546 -0.031 -0.865 -0.01 0.6 -0.8 0.03
1 6.10 610 0.527 -9.271 3.730 -1.678 -24.414 -0.549 -27.432 2567.677 -3204.163 -0.692 -0.156 -1.056 -0.01 0.6 -0.8 0.03
1 6.11 611 0.603 -9.271 3.907 -0.214 -23.804 -1.862 -57.413 2642.778 -3279.114 -0.754 -0.155 -1.229 -0.01 0.6 -0.8 0.03
1 6.12 612 0.963 -9.314 3.740 -0.519 -21.484 -3.021 -57.413 2642.778 -3279.114 -1.078 -0.108 -1.047 -0.02 0.6 -0.8 0.03
1 6.13 613 0.943 -9.553 3.524 1.556 -18.158 -3.845 -132.364 2522.707 -3174.032 -1.038 0.133 -0.824 -0.02 0.6 -0.8 0.03
1 6.14 614 0.963 -9.462 3.486 3.662 -15.167 -4.639 32.379 2657.769 -3234.143 -1.037 0.045 -0.777 -0.02 0.6 -0.8 0.03
1 6.15 615 0.876 -9.548 3.515 3.510 -12.390 -5.829 32.379 2657.769 -3234.143 -0.930 0.134 -0.794 -0.02 0.6 -0.8 0.03
1 6.16 616 0.809 -9.486 3.381 4.456 -8.240 -6.165 -27.432 2447.755 -3324.084 -0.842 0.075 -0.649 -0.02 0.6 -0.8 0.03
1 6.17 617 0.766 -9.453 3.084 4.578 -6.805 -5.219 -27.432 2447.755 -3324.084 -0.780 0.044 -0.342 -0.02 0.6 -0.8 0.03
1 6.18 618 0.852 -9.534 2.993 3.510 -4.364 -4.211 -252.436 2567.677 -3279.114 -0.849 0.128 -0.241 -0.02 0.6 -0.8 0.03
1 6.19 619 0.733 -9.592 2.935 2.838 -4.211 -3.662 -252.436 2567.677 -3279.114 -0.715 0.188 -0.176 -0.03 0.6 -0.8 0.03
1 6.20 620 0.747 -9.544 2.911 2.563 -1.068 -3.540 -147.354 2432.765 -3294.104 -0.705 0.143 -0.142 -0.03 0.6 -0.8 0.03
1 6.21 621 0.690 -9.539 2.720 2.258 1.099 -4.181 -132.364 2597.658 -3279.114 -0.637 0.140 0.054 -0.03 0.6 -0.8 0.03
1 6.22 622 0.488 -9.635 2.868 1.343 2.045 -4.181 -132.364 2597.658 -3279.114 -0.426 0.236 -0.092 -0.03 0.6 -0.8 0.03
1 6.23 623 0.445 -9.615 2.591 3.876 4.272 -3.265 -102.383 2567.677 -3204.163 -0.374 0.218 0.188 -0.03 0.6 -0.8 0.03
1 6.24 624 0.469 -9.376 2.658 4.852 4.181 -2.319 -102.383 2567.677 -3204.163 -0.391 -0.020 0.125 -0.03 0.6 -0.8 0.03
1 6.25 625 0.503 -9.156 2.691 2.594 6.470 -1.892 -222.455 2627.788 -3264.124 -0.418 -0.239 0.097 -0.03 0.6 -0.8 0.03
1 6.26 626 0.551 -9.170 2.543 0.946 8.331 -2.319 -222.455 2627.788 -3264.124 -0.462 -0.223 0.249 -0.03 0.6 -0.8 0.03
1 6.27 627 0.364 -9.457 2.413 -2.960 13.886 1.099 -207.465 2597.658 -3279.114 -0.271 0.064 0.377 -0.03 0.6 -0.8 0.03
1 6.28 628 0.364 -9.611 2.184 -0.458 15.961 5.402 -177.484 2597.658 -3354.065 -0.278 0.215 0.602 -0.03 0.6 -0.8 0.03
1 6.29 629 0.278 -9.218 2.102 2.228 14.069 10.407 -177.484 2597.658 -3354.065 -0.206 -0.178 0.681 -0.02 0.6 -0.8 0.03
1 6.30 630 0.498 -8.902 2.059 -3.265 13.092 14.313 -252.436 2492.726 -3204.163 -0.447 -0.495 0.721 -0.02 0.6 -0.8 0.03
1 6.31 631 0.934 -8.849 1.853 -12.817 14.984 18.433 -252.436 2492.726 -3204.163 -0.906 -0.551 0.916 -0.02 0.6 -0.8 0.03
1 6.32 632 0.915 -8.983 1.762 -14.923 18.189 19.714 17.389 2522.707 -3069.101 -0.912 -0.424 0.985 -0.02 0.6 -0.8 0.03
1 6.33 633 0.723 -9.208 2.327 -20.813 19.074 19.959 17.389 2522.707 -3069.101 -0.749 -0.206 0.394 -0.02 0.6 -0.8 0.03
1 6.34 634 0.369 -10.626 2.342 -30.823 23.926 17.731 -12.442 2552.687 -3294.104 -0.455 1.190 0.304 -0.01 0.6 -0.8 0.03
1 6.35 635 0.412 -10.420 1.738 -13.916 24.139 17.181 -117.374 2477.736 -3234.143 -0.532 0.973 0.867 -0.01 0.61 -0.8 0.03
1 6.36 636 0.570 -9.745 2.198 -7.233 26.428 17.365 -117.374 2477.736 -3234.143 -0.722 0.293 0.387 -0.01 0.61 -0.79 0.03
1 6.37 637 0.594 -9.280 2.524 -15.869 34.332 13.031 -72.403 2507.716 -3189.172 -0.776 -0.176 0.042 -0.01 0.61 -0.79 0.03
1 6.38 638 0.211 -9.989 2.380 -18.311 37.872 1.251 17.389 2567.677 -3279.114 -0.417 0.526 0.158 -0.01 0.61 -0.79 0.02
1 6.39 639 0.029 -10.118 2.600 -13.702 37.659 -3.479 92.490 2597.658 -3129.062 -0.249 0.647 -0.091 -0 0.61 -0.79 0.02
1 6.40 640 -0.254 -10.046 2.600 -12.726 37.903 -6.073 92.490 2597.658 -3129.062 0.025 0.569 -0.116 -0 0.61 -0.79 0.02
1 6.41 641 -0.603 -9.716 2.217 -11.017 34.363 -7.446 -12.442 2552.687 -3264.124 0.366 0.229 0.227 0 0.61 -0.79 0.02
1 6.42 642 -0.685 -9.314 2.241 -9.552 28.900 -5.951 -42.422 2657.769 -3084.091 0.443 -0.178 0.185 0 0.61 -0.79 0.01
1 6.43 643 -0.421 -9.036 2.212 -14.160 23.895 -5.219 -42.422 2657.769 -3084.091 0.174 -0.460 0.195 0.01 0.61 -0.79 0.01
1 6.44 644 -0.488 -9.175 2.155 -19.898 21.637 -5.707 32.379 2657.769 -3189.172 0.238 -0.328 0.228 0.01 0.62 -0.79 0.01
1 6.45 645 -0.412 -9.496 2.241 -21.668 19.470 -6.195 92.490 2522.707 -3024.130 0.161 -0.015 0.110 0.01 0.62 -0.79 0.01
1 6.46 646 -0.532 -9.366 2.107 -19.013 15.198 -5.707 -27.432 2717.729 -3069.101 0.281 -0.152 0.212 0.01 0.62 -0.79 0.01
1 6.47 647 -0.536 -9.309 2.279 -18.402 11.139 -6.012 -27.432 2717.729 -3069.101 0.287 -0.216 0.011 0.01 0.62 -0.79 0.01
1 6.48 648 -0.666 -9.304 2.342 -19.836 3.601 -4.761 152.451 2792.681 -3249.133 0.421 -0.234 -0.106 0.01 0.62 -0.78 0.01
1 6.49 649 -0.570 -9.381 2.457 -19.043 1.465 -4.486 122.470 2687.749 -3069.101 0.328 -0.164 -0.248 0.01 0.62 -0.78 0.01
1 6.50 650 -0.134 -9.539 2.648 -18.616 -5.463 -4.608 122.470 2687.749 -3069.101 -0.103 -0.012 -0.465 0.01 0.62 -0.78 0.01
1 6.51 651 -0.010 -9.659 2.758 -15.686 -8.667 -5.310 182.431 2702.739 -3159.042 -0.219 0.102 -0.598 0.01 0.62 -0.78 0.01
1 6.52 652 0.029 -9.457 2.868 -11.566 -11.017 -5.859 62.359 2702.739 -3084.091 -0.244 -0.103 -0.726 0.01 0.62 -0.78 0.01
1 6.53 653 0.129 -9.390 2.926 -7.751 -12.085 -5.432 92.490 2837.651 -3174.032 -0.331 -0.173 -0.794 0.01 0.63 -0.78 0.01
1 6.54 654 0.383 -9.275 2.677 -7.233 -11.993 -4.028 92.490 2837.651 -3174.032 -0.570 -0.289 -0.551 0.01 0.63 -0.78 0.01
1 6.55 655 0.441 -9.232 2.706 -7.202 -11.017 -3.204 107.480 2777.690 -3264.124 -0.614 -0.334 -0.585 0.01 0.63 -0.78 0.01
1 6.56 656 0.460 -9.323 2.370 -9.216 -7.843 -1.984 32.379 2807.671 -3084.091 -0.610 -0.246 -0.262 0 0.63 -0.78 0.01
1 6.57 657 0.541 -9.414 2.179 -11.322 -5.646 -0.031 32.379 2807.671 -3084.091 -0.682 -0.157 -0.081 0 0.63 -0.78 0.01
1 6.58 658 0.321 -9.486 1.959 -12.299 -2.838 1.099 92.490 2792.681 -3099.081 -0.455 -0.089 0.124 0 0.63 -0.78 0.01
1 6.59 659 0.254 -9.558 1.959 -14.282 -0.977 2.716 32.379 2777.690 -3114.071 -0.385 -0.021 0.106 0 0.63 -0.78 0.01
1 6.60 660 0.019 -9.793 1.748 -18.982 -0.275 4.913 137.460 2777.690 -3114.071 -0.152 0.209 0.294 0 0.63 -0.78 0.01
1 6.61 661 0.168 -9.783 1.604 -20.599 -0.885 6.531 137.460 2777.690 -3114.071 -0.306 0.193 0.410 0 0.63 -0.78 0.01
1 6.62 662 0.067 -9.716 1.848 -20.569 -1.251 6.653 33.428 2926.693 -2981.708 -0.212 0.120 0.134 0 0.63 -0.78 0.01
1 6.63 663 0.139 -9.821 1.877 -20.630 0.183 5.524 -56.363 2866.732 -3071.649 -0.298 0.212 0.042 0 0.63 -0.77 0.01
1 6.64 664 0.182 -9.979 2.069 -20.386 0.580 3.082 -56.363 2866.732 -3071.649 -0.346 0.364 -0.181 0 0.64 -0.77 0.01
1 6.65 665 0.019 -10.147 2.054 -21.240 1.587 0.488 48.418 2791.631 -3026.678 -0.185 0.526 -0.197 0 0.64 -0.77 0.01
1 6.66 666 -0.091 -10.377 2.150 -18.127 1.495 -1.831 198.471 2836.752 -2996.698 -0.073 0.750 -0.322 0 0.64 -0.77 0.01
1 6.67 667 -0.278 -10.310 2.203 -13.153 0.885 -4.028 48.418 2791.631 -3071.649 0.117 0.679 -0.399 0 0.64 -0.77 0.01
1 6.68 668 -0.354 -10.152 2.136 -11.414 -0.702 -4.211 48.418 2791.631 -3071.649 0.200 0.517 -0.350 0 0.64 -0.77 0.01
1 6.69 669 -0.484 -9.932 2.126 -10.345 -2.533 -3.357 -26.383 2866.732 -3131.610 0.334 0.294 -0.356 0 0.64 -0.77 0.01
1 6.70 670 -0.532 -10.008 1.997 -12.573 -6.104 -1.831 63.409 2851.742 -3086.639 0.386 0.368 -0.240 0 0.64 -0.77 0.01
1 6.71 671 -0.196 -9.917 2.006 -13.062 -10.101 0.275 63.409 2851.742 -3086.639 0.054 0.271 -0.284 0 0.64 -0.77 0.01
1 6.72 672 -0.029 -9.946 1.887 -11.963 -11.688 2.258 63.409 2731.670 -3116.620 -0.113 0.296 -0.181 0 0.64 -0.77 0.01
1 6.73 673 -0.062 -9.994 2.006 -12.421 -12.695 4.272 138.510 2701.690 -3086.639 -0.079 0.341 -0.317 0 0.64 -0.77 0.01
1 6.74 674 0.225 -10.080 1.973 -13.825 -13.886 4.395 18.438 2911.703 -2996.698 -0.369 0.425 -0.300 0 0.64 -0.77 0.01
1 6.75 675 0.230 -10.171 1.915 -12.909 -13.855 5.859 18.438 2911.703 -2996.698 -0.376 0.513 -0.261 0 0.64 -0.76 0.01
1 6.76 676 0.412 -10.051 1.844 -11.627 -11.658 6.622 -41.373 2896.713 -3011.688 -0.560 0.390 -0.208 -0 0.65 -0.76 0.01
1 6.77 677 0.575 -9.946 1.848 -11.169 -9.247 6.439 -71.354 2851.742 -3041.668 -0.726 0.282 -0.228 -0 0.65 -0.76 0.01
1 6.78 678 0.579 -10.003 1.820 -12.268 -4.883 6.195 -71.354 2851.742 -3041.668 -0.735 0.334 -0.230 -0 0.65 -0.76 0.01
1 6.79 679 0.393 -10.204 1.901 -12.634 -1.404 6.592 -11.393 2851.742 -2981.708 -0.551 0.533 -0.328 -0 0.65 -0.76 0.01
1 6.80 680 0.479 -10.219 1.863 -11.963 1.587 6.805 138.510 3001.645 -2981.708 -0.642 0.545 -0.307 -0 0.65 -0.76 0.01
1 6.81 681 0.235 -10.339 1.824 -11.108 4.334 7.324 138.510 3001.645 -2981.708 -0.404 0.662 -0.284 -0 0.65 -0.76 0.01
1 6.82 682 0.192 -10.271 1.963 -7.599 6.866 7.965 48.418 2911.703 -2876.626 -0.369 0.593 -0.438 -0 0.65 -0.76 0.01
1 6.83 683 0.172 -10.224 1.935 -5.463 7.996 9.003 138.510 2971.664 -3011.688 -0.360 0.543 -0.419 0 0.65 -0.76 0.01
1 6.84 684 0.077 -10.027 2.112 -4.303 9.552 10.193 -11.393 2926.693 -2861.636 -0.276 0.346 -0.603 0 0.65 -0.76 0.01
1 6.85 685 -0.158 -9.984 1.968 -5.157 11.292 11.536 -11.393 2926.693 -2861.636 -0.071 0.302 -0.468 0 0.65 -0.76 0.01
1 6.86 686 -0.144 -10.104 2.035 -3.021 12.360 12.573 18.438 2836.752 -2951.577 -0.105 0.422 -0.539 0 0.65 -0.76 0.01
1 6.87 687 -0.350 -9.941 2.174 -0.580 13.794 13.184 153.500 2941.684 -2951.577 0.080 0.260 -0.679 0.01 0.65 -0.76 0.01
1 6.88 688 -0.321 -9.908 2.198 0.519 15.228 13.397 153.500 2941.684 -2951.577 0.029 0.227 -0.699 0.01 0.65 -0.76 0.01
1 6.89 689 -0.369 -9.644 2.069 1.678 17.609 13.580 63.409 2926.693 -2936.587 0.053 -0.035 -0.564 0.01 0.65 -0.76 0.01
1 6.90 690 -0.623 -9.520 2.117 3.052 18.677 13.458 198.471 2986.654 -2846.646 0.283 -0.157 -0.607 0.01 0.65 -0.76 0.01
1 6.91 691 -0.757 -9.505 1.987 3.967 18.951 13.214 93.389 2941.684 -2921.597 0.391 -0.170 -0.470 0.01 0.65 -0.76 0.01
1 6.92 692 -0.718 -9.496 2.021 4.059 18.097 12.024 93.389 2941.684 -2921.597 0.300 -0.174 -0.486 0.02 0.65 -0.76 0.01
1 6.93 693 -0.656 -9.706 2.117 5.005 18.463 12.268 258.432 2926.693 -2726.574 0.213 0.039 -0.573 0.02 0.65 -0.76 0.01
1 6.94 694 -0.934 -9.433 1.930 10.925 23.254 10.986 228.451 2986.654 -2816.665 0.467 -0.231 -0.374 0.02 0.65 -0.76 0.01
1 6.95 695 -1.058 -9.050 1.820 13.611 26.764 9.064 228.451 2986.654 -2816.665 0.568 -0.610 -0.245 0.02 0.65 -0.76 0.01
1 6.96 696 -1.269 -8.821 1.623 8.331 29.633 6.073 183.480 2851.742 -2936.587 0.756 -0.835 -0.029 0.02 0.65 -0.76 0.01
1 6.97 697 -1.743 -9.122 1.020 2.167 29.389 3.326 333.383 2926.693 -2906.606 1.209 -0.531 0.583 0.03 0.65 -0.76 0.01
1 6.98 698 -1.801 -9.338 0.838 3.937 26.215 2.411 198.471 2791.631 -2876.626 1.245 -0.314 0.765 0.03 0.65 -0.76 0.01
1 6.99 699 -1.872 -9.438 0.886 3.754 23.773 2.228 198.471 2791.631 -2876.626 1.297 -0.213 0.715 0.03 0.65 -0.76 0.01
1 7.00 700 -1.978 -9.692 0.800 -0.153 20.233 1.556 228.451 2911.703 -2951.577 1.365 0.042 0.797 0.03 0.65 -0.76 0.01
1 7.01 701 -1.978 -10.109 0.728 -3.357 16.937 2.594 258.432 2926.693 -2981.708 1.347 0.459 0.859 0.04 0.65 -0.76 0.01
1 7.02 702 -1.901 -10.401 0.704 -1.434 12.573 4.547 258.432 2926.693 -2981.708 1.253 0.750 0.870 0.04 0.65 -0.76 0.01
1 7.03 703 -1.619 -10.348 0.761 3.296 7.507 6.744 333.383 2926.693 -2936.587 0.951 0.697 0.804 0.04 0.65 -0.76 0.01
1 7.04 704 -1.384 -10.382 0.771 6.500 3.143 10.223 273.422 2911.703 -2921.597 0.696 0.732 0.793 0.04 0.65 -0.76 0.01
1 7.05 705 -1.077 -9.989 0.924 8.148 2.350 10.437 423.474 2911.703 -2816.665 0.369 0.341 0.642 0.04 0.65 -0.76 0.01
1 7.06 706 -1.125 -9.927 0.939 6.683 2.838 10.712 423.474 2911.703 -2816.665 0.397 0.281 0.634 0.04 0.65 -0.76 0.01
1 7.07 707 -1.154 -9.908 0.924 2.472 3.845 12.238 348.523 2986.654 -2996.698 0.386 0.266 0.654 0.04 0.65 -0.76 0.01
1 7.08 708 -1.092 -9.975 0.948 3.326 4.364 12.939 303.402 2836.752 -2876.626 0.302 0.335 0.629 0.04 0.65 -0.76 0.01
1 7.09 709 -1.125 -10.013 0.986 5.249 5.768 13.092 303.402 2836.752 -2876.626 0.313 0.375 0.590 0.04 0.65 -0.76 0.01
1 7.10 710 -1.125 -10.003 1.025 6.439 7.324 12.390 438.464 2896.713 -3011.688 0.291 0.367 0.554 0.05 0.65 -0.76 0.01
1 7.11 711 -1.245 -9.826 1.082 7.477 9.796 9.430 349.572 2760.751 -2998.646 0.390 0.193 0.500 0.05 0.65 -0.76 0.01
1 7.12 712 -1.298 -9.649 1.106 8.911 10.193 7.263 424.523 2910.804 -2953.526 0.423 0.018 0.483 0.05 0.65 -0.76 0.01
1 7.13 713 -1.461 -9.654 1.092 10.162 9.979 5.493 424.523 2910.804 -2953.526 0.569 0.026 0.504 0.05 0.65 -0.76 0.01
1 7.14 714 -1.599 -9.467 0.986 9.552 9.216 3.448 454.504 2790.732 -2923.545 0.693 -0.158 0.619 0.05 0.64 -0.76 0.01
1 7.15 715 -1.743 -9.343 0.986 8.637 6.073 1.648 364.562 2805.722 -2983.656 0.813 -0.277 0.636 0.05 0.64 -0.76 0.01
1 7.16 716 -1.719 -9.256 0.876 8.179 2.380 1.007 364.562 2805.722 -2983.656 0.780 -0.361 0.754 0.05 0.64 -0.76 0.01
1 7.17 717 -1.777 -9.117 0.996 8.392 -0.885 0.061 394.543 2925.794 -2938.536 0.830 -0.498 0.641 0.05 0.64 -0.76 0.01
1 7.18 718 -1.863 -9.012 1.006 8.270 -4.456 -0.732 379.553 2835.703 -3028.627 0.910 -0.602 0.640 0.05 0.64 -0.76 0.01
1 7.19 719 -1.997 -8.739 0.991 7.050 -9.277 -0.610 424.523 2835.703 -2998.646 1.039 -0.873 0.662 0.05 0.64 -0.76 0.01
1 7.20 720 -2.002 -8.375 1.121 7.568 -11.658 -1.190 424.523 2835.703 -2998.646 1.039 -1.235 0.541 0.05 0.64 -0.76 0.01
1 7.21 721 -1.930 -7.901 1.087 4.089 -13.580 -3.143 379.553 2865.833 -2923.545 0.968 -1.707 0.585 0.05 0.64 -0.76 0.01
1 7.22 722 -1.925 -8.289 0.910 -10.620 -15.991 -3.479 529.605 2715.781 -2953.526 0.981 -1.320 0.770 0.05 0.64 -0.77 0.02
1 7.23 723 -1.700 -8.562 0.656 -15.228 -15.961 -3.265 529.605 2715.781 -2953.526 0.765 -1.050 1.007 0.05 0.64 -0.76 0.02
1 7.24 724 -1.580 -8.816 0.594 -13.275 -16.052 -3.662 469.494 2805.722 -3013.637 0.654 -0.801 1.050 0.05 0.64 -0.76 0.02
1 7.25 725 -1.322 -8.663 0.661 -12.116 -18.311 -4.211 469.494 2805.722 -3013.637 0.399 -0.958 0.959 0.05 0.64 -0.76 0.02
1 7.26 726 -1.073 -8.907 0.723 -19.287 -22.217 -5.371 349.572 2790.732 -2953.526 0.159 -0.718 0.878 0.05 0.65 -0.76 0.02
1 7.27 727 -0.943 -9.472 0.900 -22.278 -23.132 -5.707 349.572 2790.732 -2953.526 0.040 -0.159 0.671 0.04 0.65 -0.76 0.02
1 7.28 728 -0.819 -10.190 1.259 -23.468 -26.733 -4.547 364.562 3000.745 -2863.584 -0.072 0.553 0.278 0.04 0.65 -0.76 0.02
1 7.29 729 -0.182 -11.608 2.093 -25.665 -35.278 3.571 184.530 2730.771 -2983.656 -0.685 1.957 -0.623 0.04 0.65 -0.76 0.02
1 7.30 730 0.541 -12.311 2.217 -24.567 -36.804 14.648 184.530 2730.771 -2983.656 -1.409 2.656 -0.781 0.04 0.65 -0.76 0.02
1 7.31 731 0.876 -11.675 1.686 -9.369 -27.374 22.492 424.523 2835.703 -2953.526 -1.762 2.017 -0.276 0.04 0.65 -0.76 0.03
1 7.32 732 0.350 -10.190 1.403 3.632 -14.740 17.059 424.523 2835.703 -2953.526 -1.263 0.534 0.002 0.04 0.65 -0.76 0.03
1 7.33 733 -0.541 -9.462 1.279 -3.845 -8.118 6.928 274.471 2910.804 -2998.646 -0.386 -0.191 0.132 0.04 0.65 -0.76 0.03
1 7.34 734 -1.839 -10.037 1.154 -19.928 -6.042 0.916 274.471 2910.804 -2998.646 0.910 0.382 0.246 0.04 0.65 -0.76 0.03
1 7.35 735 -2.351 -10.631 1.001 -20.813 -7.965 0.702 184.530 2970.765 -2908.555 1.419 0.972 0.371 0.03 0.65 -0.75 0.03
1 7.36 736 -2.222 -11.009 0.881 -18.829 -18.616 1.923 439.514 2895.813 -2833.604 1.283 1.343 0.431 0.03 0.66 -0.75 0.03
1 7.37 737 -1.700 -11.133 1.025 -18.890 -21.545 3.204 439.514 2895.813 -2833.604 0.761 1.464 0.262 0.03 0.66 -0.75 0.03
1 7.38 738 -0.747 -11.066 1.389 -16.754 -22.614 5.615 214.510 2850.843 -2908.555 -0.195 1.394 -0.125 0.03 0.66 -0.75 0.04
1 7.39 739 -0.354 -10.659 1.595 -12.451 -18.585 5.646 214.510 2850.843 -2908.555 -0.592 0.985 -0.352 0.03 0.66 -0.75 0.04
1 7.40 740 -0.402 -10.449 1.767 -10.651 -16.174 5.615 289.461 2775.742 -2983.656 -0.546 0.772 -0.538 0.03 0.66 -0.75 0.04
1 7.41 741 -0.838 -10.358 1.935 -11.902 -16.602 7.782 289.461 2775.742 -2983.656 -0.114 0.680 -0.718 0.03 0.66 -0.75 0.04
1 7.42 742 -1.039 -10.319 1.925 -11.078 -20.783 9.216 124.569 2985.755 -2818.614 0.082 0.641 -0.719 0.03 0.66 -0.75 0.04
1 7.43 743 -0.924 -10.396 1.992 -8.423 -24.750 10.986 379.553 2985.755 -2998.646 -0.042 0.717 -0.796 0.03 0.66 -0.75 0.04
1 7.44 744 -0.431 -10.123 2.198 -7.294 -25.452 12.787 379.553 2985.755 -2998.646 -0.558 0.446 -1.008 0.03 0.66 -0.75 0.05
1 7.45 745 -0.297 -9.845 2.299 -5.157 -22.461 12.909 199.520 2985.755 -2848.594 -0.702 0.169 -1.108 0.03 0.66 -0.75 0.05
1 7.46 746 -0.330 -9.577 2.260 -3.479 -20.294 11.902 199.520 2985.755 -2848.594 -0.678 -0.097 -1.065 0.02 0.66 -0.75 0.05
1 7.47 747 -0.488 -9.457 2.241 -3.937 -18.585 10.284 349.572 2910.804 -2773.643 -0.529 -0.215 -1.040 0.02 0.66 -0.75 0.05
1 7.48 748 -0.532 -9.386 2.313 -5.829 -17.639 8.820 214.510 2970.765 -2863.584 -0.493 -0.286 -1.108 0.02 0.66 -0.75 0.05
1 7.49 749 -0.594 -9.615 2.361 -6.348 -17.792 7.629 154.549 2985.755 -2848.594 -0.437 -0.055 -1.153 0.02 0.66 -0.75 0.05
1 7.50 750 -0.555 -9.596 2.289 -7.111 -18.066 6.470 199.520 2985.755 -2923.545 -0.481 -0.073 -1.080 0.02 0.66 -0.75 0.06
1 7.51 751 -0.187 -9.615 2.351 -5.798 -15.442 5.096 199.520 2985.755 -2923.545 -0.854 -0.054 -1.140 0.02 0.66 -0.75 0.06
1 7.52 752 -0.144 -9.587 2.380 -5.707 -12.604 3.418 214.510 2925.794 -2833.604 -0.895 -0.082 -1.166 0.02 0.66 -0.75 0.06
1 7.53 753 -0.067 -9.548 2.313 -5.554 -10.345 1.770 214.510 2925.794 -2833.604 -0.967 -0.121 -1.096 0.02 0.66 -0.75 0.06
1 7.54 754 -0.096 -9.706 2.265 -5.829 -7.996 0.366 304.602 2940.784 -2698.542 -0.931 0.037 -1.047 0.02 0.66 -0.75 0.06
1 7.55 755 -0.057 -9.836 2.217 -2.960 -4.364 -1.404 199.520 3015.735 -2773.643 -0.961 0.165 -0.997 0.02 0.66 -0.75 0.06
1 7.56 756 -0.335 -9.917 2.078 -1.892 -3.998 -1.678 124.569 3060.706 -2743.663 -0.674 0.246 -0.855 0.02 0.66 -0.75 0.06
1 7.57 757 -0.345 -9.908 2.078 -1.190 -2.808 -2.563 34.478 3000.745 -2683.552 -0.655 0.236 -0.851 0.02 0.66 -0.75 0.06
1 7.58 758 -0.374 -10.003 2.069 -0.793 -2.197 -2.594 36.426 2998.946 -2688.648 -0.617 0.332 -0.837 0.01 0.66 -0.75 0.06
1 7.59 759 -0.469 -9.893 1.781 1.312 0.214 -3.265 -38.375 2848.894 -2988.603 -0.504 0.221 -0.540 0.01 0.66 -0.75 0.06
1 7.60 760 -0.498 -9.764 1.853 1.862 -0.122 -5.035 -38.375 2848.894 -2988.603 -0.465 0.091 -0.606 0.01 0.66 -0.75 0.06
1 7.61 761 -0.546 -9.807 1.714 2.563 0.031 -6.195 336.531 2968.966 -2868.531 -0.406 0.134 -0.459 0.01 0.66 -0.75 0.06
1 7.62 762 -0.627 -9.807 1.753 3.876 0.000 -6.714 66.557 2803.923 -2763.600 -0.312 0.134 -0.490 0.01 0.66 -0.75 0.06
1 7.63 763 -0.656 -9.745 1.743 2.930 -0.641 -7.263 186.479 2998.946 -2763.600 -0.270 0.072 -0.471 0.01 0.66 -0.75 0.06
1 7.64 764 -0.766 -9.773 1.695 2.533 -1.617 -8.087 156.498 3013.937 -2853.541 -0.147 0.100 -0.416 0.01 0.66 -0.75 0.06
1 7.65 765 -0.651 -9.735 1.619 2.502 -2.777 -8.179 156.498 3013.937 -2853.541 -0.248 0.062 -0.332 0.01 0.66 -0.75 0.06
1 7.66 766 -0.752 -9.750 1.700 2.808 -4.913 -8.545 201.469 2983.956 -2703.639 -0.120 0.076 -0.399 0.01 0.66 -0.75 0.06
1 7.67 767 -0.694 -9.783 1.753 3.143 -5.829 -9.033 201.469 2983.956 -2703.639 -0.162 0.109 -0.443 0.01 0.66 -0.75 0.06
1 7.68 768 -0.642 -9.721 1.590 3.235 -7.385 -8.453 231.449 2758.953 -2853.541 -0.199 0.046 -0.272 0.01 0.66 -0.75 0.06
1 7.69 769 -0.709 -9.659 1.791 3.845 -8.331 -8.484 126.518 3013.937 -2928.642 -0.117 -0.016 -0.464 0.01 0.66 -0.75 0.06
1 7.70 770 -0.508 -9.481 1.805 3.540 -8.423 -7.904 126.518 2983.956 -2823.561 -0.303 -0.193 -0.469 0.01 0.66 -0.75 0.06
1 7.71 771 -0.378 -9.524 1.719 2.625 -7.599 -8.606 -53.365 3013.937 -2778.590 -0.417 -0.150 -0.373 0.01 0.66 -0.75 0.05
1 7.72 772 -0.397 -9.644 1.762 2.960 -7.477 -7.355 -53.365 3013.937 -2778.590 -0.381 -0.030 -0.408 0 0.66 -0.75 0.05
1 7.73 773 -0.441 -9.501 1.580 4.913 -5.554 -7.874 156.498 2983.956 -2748.609 -0.306 -0.174 -0.208 0 0.66 -0.75 0.05
1 7.74 774 -0.345 -9.577 1.729 4.181 -4.913 -7.080 156.498 2983.956 -2748.609 -0.387 -0.097 -0.347 0 0.66 -0.75 0.05
1 7.75 775 -0.402 -9.678 1.801 3.754 -2.930 -7.568 66.557 2998.946 -2868.531 -0.316 0.004 -0.409 0 0.65 -0.75 0.05
1 7.76 776 -0.527 -9.936 1.848 4.639 -2.289 -8.057 51.417 2788.933 -2883.521 -0.176 0.262 -0.448 0 0.65 -0.75 0.05
1 7.77 777 -0.503 -9.884 1.930 6.470 -2.136 -8.606 -98.336 2938.985 -2748.609 -0.186 0.210 -0.520 0 0.65 -0.75 0.05
1 7.78 778 -0.369 -9.936 1.963 10.040 -2.228 -8.789 126.518 2983.956 -2958.623 -0.305 0.264 -0.540 -0 0.65 -0.75 0.05
1 7.79 779 -0.426 -9.639 1.901 12.360 -2.380 -10.132 126.518 2983.956 -2958.623 -0.233 -0.032 -0.460 -0 0.65 -0.76 0.05
1 7.80 780 -0.421 -9.568 1.767 13.825 -3.723 -10.376 66.557 2803.923 -2943.632 -0.205 -0.099 -0.282 -0 0.65 -0.76 0.05
1 7.81 781 -0.302 -9.654 1.815 13.275 -4.059 -11.108 66.557 2803.923 -2943.632 -0.306 -0.010 -0.307 -0 0.65 -0.76 0.05
1 7.82 782 -0.283 -9.620 1.791 11.963 -6.042 -12.146 21.436 2788.933 -2823.561 -0.305 -0.042 -0.260 -0 0.65 -0.76 0.05
1 7.83 783 -0.244 -9.879 1.925 12.329 -8.148 -11.383 66.557 2923.845 -2868.531 -0.322 0.219 -0.373 -0 0.65 -0.76 0.05
1 7.84 784 -0.220 -9.663 1.863 15.320 -9.277 -10.590 36.426 2773.943 -2988.603 -0.326 0.006 -0.287 -0.01 0.65 -0.76 0.05
1 7.85 785 -0.053 -9.611 1.844 17.456 -11.108 -7.996 -98.336 2833.904 -2928.642 -0.473 -0.043 -0.242 -0.01 0.65 -0.76 0.05
1 7.86 786 0.105 -9.505 1.671 16.968 -11.597 -6.470 -98.336 2833.904 -2928.642 -0.613 -0.145 -0.042 -0.01 0.65 -0.76 0.05
1 7.87 787 0.177 -9.261 1.417 14.862 -11.078 -4.761 -53.365 3013.937 -2883.521 -0.668 -0.385 0.239 -0.01 0.64 -0.76 0.05
1 7.88 788 0.378 -9.457 1.451 8.972 -8.728 -4.211 -53.365 3013.937 -2883.521 -0.840 -0.183 0.246 -0.01 0.64 -0.76 0.05
1 7.89 789 0.646 -9.673 1.283 6.073 -7.202 -4.334 51.417 2938.985 -3033.574 -1.094 0.033 0.425 -0.01 0.64 -0.76 0.05
1 7.90 790 0.642 -9.917 1.116 4.547 -5.096 -3.418 -23.385 2863.884 -2853.541 -1.074 0.278 0.598 -0.01 0.64 -0.76 0.05
1 7.91 791 0.623 -9.979 1.116 4.517 -2.380 -2.960 -23.385 2863.884 -2853.541 -1.040 0.340 0.601 -0.01 0.64 -0.76 0.05
1 7.92 792 0.694 -9.960 1.183 3.815 2.014 -4.608 -68.355 2848.894 -2943.632 -1.099 0.321 0.536 -0.01 0.64 -0.77 0.05
1 7.93 793 0.450 -10.166 1.073 0.366 5.035 -6.226 -68.355 2848.894 -2943.632 -0.840 0.526 0.648 -0.01 0.64 -0.77 0.05
1 7.94 794 0.354 -10.315 1.312 0.488 7.385 -8.301 36.426 2803.923 -3018.583 -0.729 0.674 0.406 -0.01 0.64 -0.77 0.05
1 7.95 795 0.283 -10.396 1.403 5.280 8.789 -11.627 36.426 2803.923 -3018.583 -0.622 0.753 0.309 -0.01 0.64 -0.77 0.04
1 7.96 796 0.139 -10.362 1.561 7.111 10.223 -14.130 -23.385 2908.855 -2958.623 -0.458 0.719 0.155 -0.01 0.64 -0.77 0.04
1 7.97 797 -0.043 -10.271 1.695 8.637 10.284 -16.083 -98.336 2833.904 -3033.574 -0.253 0.629 0.029 -0.02 0.64 -0.77 0.04
1 7.98 798 -0.292 -10.152 1.575 10.620 8.545 -16.663 -98.336 2833.904 -3033.574 0.020 0.511 0.160 -0.02 0.64 -0.77 0.04
1 7.99 799 -0.393 -9.797 1.757 11.780 3.265 -16.602 -68.355 2803.923 -2943.632 0.144 0.158 -0.008 -0.02 0.64 -0.77 0.04
1 8.00 800 -0.369 -9.687 1.911 11.322 0.061 -14.679 -68.355 2803.923 -2943.632 0.143 0.050 -0.145 -0.02 0.64 -0.77 0.04
1 8.01 801 -0.125 -9.702 1.959 10.651 -3.479 -13.275 -8.395 2773.943 -2868.531 -0.081 0.067 -0.176 -0.02 0.64 -0.77 0.04
1 8.02 802 -0.125 -9.438 1.973 11.810 -5.859 -12.756 -8.395 2773.943 -2868.531 -0.060 -0.193 -0.174 -0.02 0.64 -0.77 0.04
1 8.03 803 -0.105 -9.414 2.016 10.864 -9.979 -10.193 -143.307 2803.923 -2868.531 -0.038 -0.211 -0.181 -0.02 0.64 -0.77 0.03
1 8.04 804 0.038 -9.414 1.882 9.369 -11.200 -8.301 -128.316 2758.953 -3138.505 -0.164 -0.208 -0.030 -0.02 0.64 -0.77 0.03
1 8.05 805 0.067 -9.328 1.973 10.010 -11.231 -5.524 -127.567 2758.053 -3140.604 -0.178 -0.292 -0.105 -0.02 0.64 -0.77 0.03
1 8.06 806 0.072 -9.366 1.954 10.101 -11.566 -3.418 -112.577 2892.965 -3050.663 -0.171 -0.250 -0.070 -0.02 0.64 -0.77 0.03
1 8.07 807 0.374 -9.204 2.088 8.453 -9.949 -0.275 -112.577 2892.965 -3050.663 -0.464 -0.410 -0.189 -0.02 0.63 -0.77 0.04
1 8.08 808 0.445 -9.050 1.930 9.735 -7.324 1.892 -202.518 2788.034 -3110.624 -0.529 -0.561 -0.017 -0.02 0.63 -0.77 0.04
1 8.09 809 0.675 -8.883 1.997 8.514 -5.646 3.601 -202.518 2788.034 -3110.624 -0.754 -0.725 -0.069 -0.02 0.63 -0.77 0.04
1 8.10 810 0.737 -8.935 2.260 3.906 -1.892 4.822 -97.586 2758.053 -3035.672 -0.814 -0.668 -0.308 -0.02 0.63 -0.77 0.04
1 8.11 811 0.819 -9.022 2.413 4.700 2.686 4.547 -112.577 2773.043 -2945.731 -0.896 -0.580 -0.453 -0.02 0.63 -0.77 0.04
1 8.12 812 0.723 -9.041 2.342 5.951 6.836 3.723 -112.577 2773.043 -2945.731 -0.801 -0.558 -0.370 -0.02 0.63 -0.77 0.04
1 8.13 813 0.694 -9.122 2.188 7.019 8.026 4.944 -217.508 2622.991 -3020.682 -0.774 -0.474 -0.204 -0.02 0.63 -0.77 0.04
1 8.14 814 0.718 -8.974 2.260 5.035 9.796 5.646 -112.577 2773.043 -3125.614 -0.802 -0.620 -0.263 -0.02 0.63 -0.78 0.04
1 8.15 815 0.814 -9.055 2.064 1.648 12.970 5.554 -52.616 2712.933 -3005.692 -0.903 -0.536 -0.055 -0.02 0.63 -0.78 0.04
1 8.16 816 0.852 -9.232 1.858 -0.488 14.771 6.348 -52.616 2712.933 -3005.692 -0.946 -0.358 0.157 -0.02 0.63 -0.78 0.03
1 8.17 817 0.776 -9.381 1.336 0.854 17.456 7.751 37.326 2697.942 -3020.682 -0.885 -0.210 0.675 -0.02 0.63 -0.78 0.03
1 8.18 818 0.900 -9.213 1.077 0.641 18.280 10.223 -127.567 2682.952 -3140.604 -1.020 -0.378 0.931 -0.02 0.63 -0.78 0.03
1 8.19 819 1.049 -8.821 0.881 -2.350 17.944 12.604 -127.567 2682.952 -3140.604 -1.183 -0.772 1.121 -0.02 0.63 -0.78 0.03
1 8.20 820 1.049 -8.864 1.121 -8.698 19.501 13.184 -217.508 2773.043 -2990.702 -1.198 -0.731 0.869 -0.02 0.63 -0.77 0.03
1 8.21 821 0.919 -9.965 1.595 -21.484 25.391 11.414 -112.577 2773.043 -3050.663 -1.085 0.366 0.372 -0.01 0.63 -0.77 0.03
1 8.22 822 0.383 -10.770 1.642 -18.127 30.975 8.698 -112.577 2803.024 -3020.682 -0.565 1.163 0.289 -0.01 0.63 -0.77 0.03
1 8.23 823 0.010 -10.956 1.829 -10.407 34.119 6.928 -112.577 2803.024 -3020.682 -0.206 1.344 0.069 -0.01 0.63 -0.77 0.03
1 8.24 824 -0.752 -11.306 2.433 -12.390 39.368 1.526 -217.508 2727.923 -3050.663 0.518 1.687 -0.570 -0.01 0.64 -0.77 0.03
1 8.25 825 -1.092 -11.502 2.174 -11.658 39.765 -1.678 -37.625 2773.043 -3095.633 0.847 1.880 -0.331 -0 0.64 -0.77 0.03
1 8.26 826 -1.935 -11.181 1.686 -1.556 31.098 -6.165 -37.625 2773.043 -3095.633 1.686 1.557 0.146 -0 0.64 -0.77 0.02
1 8.27 827 -1.571 -10.741 1.331 -0.763 19.226 -4.517 -67.606 2803.024 -2990.702 1.322 1.116 0.498 -0 0.64 -0.77 0.02
1 8.28 828 -1.039 -10.262 1.231 -5.035 8.209 0.031 37.326 2847.995 -2945.731 0.791 0.637 0.596 -0 0.64 -0.77 0.02
1 8.29 829 0.125 -10.046 1.226 -12.634 -1.678 5.341 -7.645 2727.923 -3020.682 -0.383 0.419 0.586 0 0.64 -0.77 0.02
1 8.30 830 0.651 -9.994 1.140 -14.374 -3.357 7.080 -7.645 2727.923 -3020.682 -0.917 0.362 0.650 0 0.64 -0.77 0.02
1 8.31 831 0.704 -9.932 1.374 -14.984 -1.953 6.683 22.335 2833.004 -2960.721 -0.974 0.295 0.390 0 0.64 -0.77 0.02
1 8.32 832 0.886 -9.750 1.302 -16.480 0.793 6.317 -22.635 2712.933 -3035.672 -1.159 0.104 0.411 0 0.64 -0.77 0.02
1 8.33 833 0.857 -9.682 1.437 -15.625 2.960 5.615 -22.635 2712.933 -3035.672 -1.132 0.032 0.249 0 0.64 -0.77 0.02
1 8.34 834 0.723 -9.548 1.523 -14.618 5.432 3.571 -97.586 2907.956 -2960.721 -0.998 -0.106 0.137 0 0.64 -0.76 0.02
1 8.35 835 0.460 -9.529 1.638 -14.740 8.667 0.580 67.306 2697.942 -2990.702 -0.733 -0.129 -0.000 0 0.65 -0.76 0.02
1 8.36 836 0.378 -9.362 1.863 -14.160 12.787 -2.319 -37.625 2727.923 -3020.682 -0.648 -0.300 -0.247 0 0.65 -0.76 0.02
1 8.37 837 0.101 -9.438 1.973 -13.367 15.442 -5.066 -37.625 2727.923 -3020.682 -0.366 -0.227 -0.377 0 0.65 -0.76 0.02
1 8.38 838 -0.101 -9.223 2.073 -13.153 17.212 -7.690 -7.645 2803.024 -2915.750 -0.157 -0.446 -0.496 0 0.65 -0.76 0.02
1 8.39 839 -0.364 -9.419 2.102 -11.383 15.808 -8.637 -22.635 2862.985 -3035.672 0.124 -0.255 -0.556 0 0.65 -0.76 0.02
1 8.40 840 -0.460 -9.170 2.241 -10.223 13.825 -7.813 -22.635 2862.985 -3035.672 0.229 -0.506 -0.707 0 0.65 -0.76 0.01
1 8.41 841 -0.455 -9.366 2.375 -10.864 10.681 -6.531 97.287 2788.034 -2885.620 0.231 -0.312 -0.851 0 0.65 -0.76 0.01
1 8.42 842 -0.374 -9.448 2.409 -12.329 8.850 -5.768 37.326 2922.946 -2915.750 0.154 -0.232 -0.896 0 0.65 -0.76 0.01
1 8.43 843 -0.397 -9.649 2.404 -12.146 8.392 -5.280 22.335 2907.956 -2885.620 0.184 -0.033 -0.903 0 0.65 -0.76 0.01
1 8.44 844 -0.172 -9.807 2.251 -11.414 7.172 -4.883 22.335 2907.956 -2885.620 -0.036 0.123 -0.762 0 0.65 -0.76 0.01
1 8.45 845 -0.163 -9.750 2.308 -12.177 6.714 -3.418 22.335 2862.985 -2825.659 -0.040 0.064 -0.830 0 0.65 -0.76 0.01
1 8.46 846 -0.148 -9.802 2.461 -13.702 5.646 -2.075 112.277 2847.995 -2945.731 -0.051 0.115 -0.995 0 0.65 -0.76 0.01
1 8.47 847 -0.029 -10.090 2.332 -12.817 7.019 -0.946 112.277 2847.995 -2945.731 -0.167 0.398 -0.894 0.01 0.65 -0.76 0.01
1 8.48 848 0.067 -10.252 2.318 -11.108 8.453 0.061 52.316 2907.956 -2885.620 -0.262 0.559 -0.891 0.01 0.65 -0.76 0.01
1 8.49 849 -0.148 -10.152 2.361 -9.522 9.552 0.641 112.277 2998.047 -2870.630 -0.047 0.457 -0.944 0.01 0.65 -0.76 0.01
1 8.50 850 -0.278 -10.085 2.284 -8.301 8.942 1.434 187.228 2922.946 -2840.649 0.079 0.389 -0.874 0.01 0.65 -0.76 0.01
1 8.51 851 -0.211 -10.362 2.145 -6.775 7.721 3.418 187.228 2922.946 -2840.649 0.007 0.666 -0.742 0.01 0.65 -0.76 0.01
1 8.52 852 -0.273 -10.286 2.260 -5.859 6.500 4.578 97.287 2833.004 -2930.741 0.063 0.588 -0.862 0.01 0.65 -0.76 0.01
1 8.53 853 -0.417 -10.200 2.088 -4.242 5.768 5.463 127.267 2833.004 -2885.620 0.198 0.502 -0.694 0.01 0.65 -0.76 0.01
1 8.54 854 -0.508 -10.305 2.093 -4.974 3.540 7.874 127.267 2833.004 -2885.620 0.266 0.607 -0.702 0.01 0.65 -0.76 0.01
1 8.55 855 -0.407 -10.396 1.963 -4.700 0.671 8.972 157.248 2862.985 -2930.741 0.151 0.698 -0.576 0.01 0.66 -0.76 0.01
1 8.56 856 -0.364 -10.358 1.868 -2.563 -0.366 10.498 67.306 2727.923 -2990.702 0.092 0.660 -0.483 0.01 0.66 -0.76 0.01
1 8.57 857 -0.326 -10.401 1.963 0.092 -1.160 10.742 67.306 2727.923 -2990.702 0.037 0.703 -0.578 0.01 0.66 -0.76 0.01
1 8.58 858 -0.450 -9.869 1.796 -0.061 -0.732 10.437 232.199 2862.985 -2780.688 0.146 0.173 -0.407 0.01 0.65 -0.76 0.01
1 8.59 859 -0.551 -9.951 1.805 -1.221 -0.610 10.284 52.316 2907.956 -2780.688 0.230 0.256 -0.412 0.01 0.65 -0.76 0.01
1 8.60 860 -0.632 -9.932 1.657 -1.862 -0.031 9.277 262.329 2967.917 -2735.718 0.296 0.237 -0.261 0.01 0.65 -0.76 0.01
1 8.61 861 -0.646 -9.922 1.590 -0.946 -0.336 9.094 264.428 2966.118 -2739.915 0.278 0.229 -0.195 0.01 0.65 -0.76 0.01
1 8.62 862 -0.785 -9.841 1.662 -0.183 -0.946 9.247 309.398 2861.186 -2754.905 0.403 0.148 -0.267 0.02 0.65 -0.76 0.01
1 8.63 863 -0.656 -9.697 1.642 -1.007 -1.648 8.301 279.418 2786.235 -2679.954 0.258 0.005 -0.247 0.02 0.65 -0.76 0.01
1 8.64 864 -0.747 -9.721 1.609 -1.312 -3.082 7.141 279.418 2786.235 -2679.954 0.335 0.030 -0.213 0.02 0.65 -0.76 0.01
1 8.65 865 -0.699 -9.654 1.480 -1.068 -4.608 7.446 159.346 2831.206 -2785.036 0.275 -0.037 -0.084 0.02 0.65 -0.76 0.01
1 8.66 866 -0.661 -9.864 1.537 -0.671 -5.737 6.989 189.477 2846.196 -2770.045 0.224 0.174 -0.142 0.02 0.65 -0.76 0.01
1 8.67 867 -0.646 -9.783 1.542 -1.587 -5.859 7.324 144.356 2921.147 -2664.964 0.198 0.093 -0.146 0.02 0.65 -0.76 0.02
1 8.68 868 -0.565 -9.975 1.619 -1.221 -6.744 7.996 144.356 2921.147 -2664.964 0.094 0.286 -0.224 0.02 0.65 -0.76 0.02
1 8.69 869 -0.680 -9.893 1.642 -0.916 -6.470 8.728 159.346 2936.137 -2889.967 0.197 0.205 -0.247 0.02 0.65 -0.76 0.02
1 8.70 870 -0.488 -9.955 1.719 0.183 -6.683 9.369 39.424 2801.225 -2770.045 -0.007 0.268 -0.323 0.02 0.65 -0.76 0.02
1 8.71 871 -0.584 -9.965 1.566 1.587 -5.951 8.942 39.424 2801.225 -2770.045 0.076 0.279 -0.167 0.02 0.65 -0.76 0.02
1 8.72 872 -0.555 -9.955 1.590 2.594 -5.127 9.674 234.447 2831.206 -2859.987 0.035 0.270 -0.187 0.02 0.65 -0.76 0.02
1 8.73 873 -0.479 -9.706 1.595 4.028 -5.890 9.308 114.375 2966.118 -2844.997 -0.055 0.023 -0.187 0.02 0.65 -0.76 0.02
1 8.74 874 -0.575 -9.524 1.623 2.777 -6.378 9.613 114.375 2846.196 -2800.026 0.027 -0.158 -0.210 0.02 0.65 -0.76 0.02
1 8.75 875 -0.584 -9.548 1.599 1.526 -6.287 9.064 114.375 2846.196 -2800.026 0.023 -0.132 -0.179 0.02 0.65 -0.76 0.02
1 8.76 876 -0.599 -9.860 1.738 0.305 -5.646 9.338 219.457 2891.167 -2800.026 0.012 0.182 -0.309 0.02 0.65 -0.76 0.02
1 8.77 877 -0.666 -9.884 1.748 2.228 -4.517 10.101 69.405 2966.118 -2800.026 0.066 0.208 -0.315 0.02 0.65 -0.76 0.03
1 8.78 878 -0.627 -9.836 1.757 3.021 -3.967 10.407 69.405 2966.118 -2800.026 0.013 0.161 -0.318 0.02 0.65 -0.76 0.03
1 8.79 879 -0.694 -9.912 1.738 3.540 -3.937 11.017 189.477 2891.167 -2919.948 0.066 0.240 -0.292 0.02 0.65 -0.76 0.03
1 8.80 880 -0.742 -9.817 1.757 6.104 -3.326 10.956 219.457 2846.196 -2770.045 0.098 0.147 -0.303 0.02 0.65 -0.76 0.03
1 8.81 881 -0.718 -9.635 1.911 8.087 -4.181 11.353 99.385 2981.108 -2830.006 0.058 -0.033 -0.445 0.02 0.65 -0.76 0.03
1 8.82 882 -0.637 -9.486 1.767 7.080 -4.303 10.620 99.385 2981.108 -2830.006 -0.039 -0.178 -0.288 0.02 0.65 -0.76 0.03
1 8.83 883 -0.690 -9.572 1.676 4.944 -4.364 9.857 204.467 2786.235 -2754.905 -0.015 -0.086 -0.171 0.02 0.65 -0.76 0.03
1 8.84 884 -0.608 -9.702 1.772 5.341 -3.845 10.986 189.477 2771.245 -2874.977 -0.111 0.046 -0.257 0.02 0.65 -0.76 0.03
1 8.85 885 -0.618 -9.754 1.714 5.951 -2.380 9.979 189.477 2771.245 -2874.977 -0.116 0.102 -0.189 0.02 0.65 -0.76 0.03
1 8.86 886 -0.646 -9.659 1.748 7.141 -1.801 9.888 144.356 2846.196 -2874.977 -0.101 0.008 -0.212 0.02 0.65 -0.76 0.03
1 8.87 887 -0.733 -9.587 1.738 5.859 -1.343 10.315 114.375 2846.196 -2995.049 -0.029 -0.060 -0.190 0.02 0.65 -0.76 0.03
1 8.88 888 -0.814 -9.654 1.657 5.768 -1.007 9.613 219.457 2801.225 -2844.997 0.038 0.010 -0.098 0.02 0.65 -0.76 0.04
1 8.89 889 -0.742 -9.524 1.489 5.676 -1.404 10.162 219.457 2801.225 -2844.997 -0.047 -0.117 0.080 0.02 0.65 -0.76 0.04
1 8.90 890 -0.713 -9.606 1.590 5.646 -1.404 10.498 219.457 2891.167 -2844.997 -0.090 -0.033 -0.012 0.02 0.65 -0.76 0.04
1 8.91 891 -0.747 -9.692 1.585 4.181 -0.336 9.552 144.356 2801.225 -2949.928 -0.085 0.058 0.008 0.02 0.65 -0.76 0.04
1 8.92 892 -0.790 -9.850 1.628 5.249 0.519 8.972 144.356 2801.225 -2949.928 -0.055 0.219 -0.029 0.02 0.65 -0.76 0.04
1 8.93 893 -0.785 -9.759 1.604 6.897 0.885 8.728 294.408 2921.147 -2770.045 -0.072 0.130 0.004 0.02 0.65 -0.76 0.04
1 8.94 894 -0.857 -9.659 1.566 7.904 1.251 8.057 189.477 2621.192 -3055.010 -0.013 0.032 0.052 0.03 0.65 -0.76 0.04
1 8.95 895 -0.852 -9.625 1.599 7.294 -0.092 7.690 144.356 2771.245 -2800.026 -0.029 0.002 0.029 0.03 0.65 -0.76 0.04
1 8.96 896 -0.819 -9.750 1.633 6.928 -0.793 7.629 144.356 2771.245 -2800.026 -0.074 0.129 0.006 0.03 0.64 -0.76 0.04
1 8.97 897 -0.757 -9.788 1.566 8.240 -0.885 7.690 294.408 2996.248 -2995.049 -0.147 0.170 0.083 0.03 0.64 -0.76 0.04
1 8.98 898 -0.804 -9.644 1.686 9.430 -0.214 7.202 264.428 2771.245 -2919.948 -0.119 0.032 -0.013 0.03 0.64 -0.76 0.04
1 8.99 899 -0.761 -9.678 1.595 8.698 0.092 6.958 264.428 2771.245 -2919.948 -0.172 0.069 0.092 0.03 0.64 -0.76 0.04
1 9.00 900 -0.685 -9.745 1.906 9.308 1.282 6.744 264.428 2771.245 -2919.948 -0.257 0.139 -0.206 0.03 0.64 -0.76 0.04
1 9.01 901 -0.833 -9.587 1.829 10.162 2.289 5.829 264.428 2771.245 -2919.948 -0.116 -0.015 -0.115 0.03 0.64 -0.77 0.04
1 9.02 902 -0.857 -9.587 1.781 10.193 2.960 5.157 264.428 2891.167 -2995.049 -0.101 -0.012 -0.052 0.03 0.64 -0.77 0.04
1 9.03 903 -0.848 -9.726 1.901 10.223 2.441 5.920 264.428 2891.167 -2995.049 -0.118 0.131 -0.156 0.03 0.64 -0.77 0.04
1 9.04 904 -0.900 -9.682 1.829 11.017 2.014 6.592 234.447 2786.235 -2859.987 -0.074 0.091 -0.069 0.03 0.64 -0.77 0.04
1 9.05 905 -0.891 -9.568 2.169 11.353 1.648 7.324 399.340 2801.225 -2949.928 -0.104 -0.015 -0.375 0.03 0.64 -0.77 0.04
1 9.06 906 -1.039 -9.486 2.155 10.407 1.892 7.965 399.340 2801.225 -2949.928 0.034 -0.092 -0.341 0.03 0.64 -0.77 0.04
1 9.07 907 -0.900 -9.453 2.088 9.888 1.190 8.087 294.408 2801.225 -3025.029 -0.117 -0.121 -0.257 0.03 0.64 -0.77 0.04
1 9.08 908 -0.986 -9.443 2.327 11.261 1.068 9.766 294.408 2801.225 -3025.029 -0.044 -0.126 -0.480 0.03 0.64 -0.77 0.04
1 9.09 909 -0.872 -9.534 2.662 12.329 1.007 12.451 144.356 2651.173 -2995.049 -0.174 -0.030 -0.796 0.03 0.64 -0.77 0.04
1 9.10 910 -0.848 -9.630 2.849 15.137 2.441 12.390 144.356 2651.173 -2995.049 -0.215 0.072 -0.960 0.03 0.63 -0.77 0.05
1 9.11 911 -0.953 -9.524 2.835 17.334 5.280 12.329 294.408 2801.225 -2844.997 -0.127 -0.026 -0.920 0.03 0.63 -0.77 0.05
1 9.12 912 -0.824 -9.247 2.797 22.553 7.477 11.871 234.447 2756.254 -2934.938 -0.294 -0.286 -0.817 0.04 0.63 -0.77 0.05
1 9.13 913 -0.876 -9.252 2.643 24.139 7.813 11.688 234.447 2756.254 -2934.938 -0.259 -0.271 -0.624 0.04 0.63 -0.78 0.05
1 9.14 914 -0.852 -8.912 2.720 23.865 12.695 9.979 429.470 2786.235 -2889.967 -0.301 -0.600 -0.661 0.04 0.63 -0.78 0.05
1 9.15 915 -0.876 -8.849 2.533 23.254 16.815 8.392 429.470 2786.235 -2889.967 -0.294 -0.652 -0.437 0.04 0.63 -0.78 0.05
1 9.16 916 -1.106 -8.830 2.107 21.179 21.973 5.371 504.421 2711.134 -3084.990 -0.079 -0.662 0.024 0.04 0.62 -0.78 0.05
1 9.17 917 -1.365 -8.974 2.064 19.135 24.811 2.350 504.421 2711.134 -3084.990 0.166 -0.510 0.096 0.04 0.62 -0.78 0.05
1 9.18 918 -1.542 -9.156 2.011 16.174 25.940 3.082 354.369 2636.183 -3114.971 0.330 -0.321 0.173 0.04 0.62 -0.78 0.04
1 9.19 919 -1.681 -9.582 1.877 15.991 25.177 2.869 279.418 2711.134 -3040.020 0.453 0.112 0.326 0.05 0.62 -0.78 0.04
1 9.20 920 -1.906 -9.635 1.805 18.250 23.468 3.052 279.418 2711.134 -3040.020 0.645 0.177 0.432 0.05 0.62 -0.78 0.04
1 9.21 921 -1.911 -9.544 1.810 16.785 21.820 4.334 339.379 2726.124 -3174.932 0.632 0.093 0.445 0.05 0.62 -0.78 0.04
1 9.22 922 -1.772 -9.735 1.844 14.648 19.806 7.111 340.278 2725.375 -3176.431 0.475 0.291 0.427 0.05 0.62 -0.78 0.04
1 9.23 923 -1.628 -9.692 1.954 15.900 18.585 10.284 445.360 2695.394 -3176.431 0.310 0.254 0.331 0.05 0.62 -0.78 0.04
1 9.24 924 -1.623 -9.501 1.805 15.167 19.226 12.909 445.360 2650.423 -3056.509 0.281 0.069 0.495 0.06 0.62 -0.78 0.04
1 9.25 925 -1.599 -9.275 1.690 13.306 19.440 13.611 355.269 2755.355 -3116.470 0.230 -0.148 0.624 0.06 0.62 -0.79 0.04
1 9.26 926 -1.437 -9.343 1.935 10.620 21.942 14.801 505.321 2635.283 -3041.519 0.039 -0.074 0.393 0.06 0.61 -0.79 0.04
1 9.27 927 -1.417 -9.702 1.877 7.629 25.116 15.289 505.321 2635.283 -3041.519 -0.041 0.297 0.461 0.06 0.61 -0.79 0.04
1 9.28 928 -1.331 -9.592 1.757 10.712 29.389 14.160 535.301 2635.283 -3011.538 -0.158 0.193 0.584 0.07 0.61 -0.79 0.04
1 9.29 929 -1.604 -9.151 1.681 15.533 33.478 9.613 535.301 2635.283 -3011.538 0.086 -0.242 0.666 0.07 0.61 -0.79 0.04
1 9.30 930 -1.968 -9.060 1.609 14.008 35.706 5.066 445.360 2575.322 -3101.479 0.425 -0.326 0.748 0.07 0.61 -0.79 0.04
1 9.31 931 -2.327 -8.787 1.298 11.566 36.743 -1.129 535.301 2560.332 -3041.519 0.763 -0.594 1.065 0.07 0.61 -0.79 0.04
1 9.32 932 -2.389 -8.356 1.130 13.367 33.508 -4.761 550.292 2500.371 -3101.479 0.807 -1.022 1.234 0.08 0.61 -0.79 0.03
1 9.33 933 -2.605 -8.160 1.226 9.735 28.381 -7.996 640.233 2635.283 -3116.470 1.008 -1.215 1.142 0.08 0.61 -0.79 0.03
1 9.34 934 -2.696 -8.361 1.441 2.960 22.186 -10.101 640.233 2635.283 -3116.470 1.099 -1.012 0.935 0.08 0.61 -0.79 0.03
1 9.35 935 -2.557 -8.097 1.757 4.150 15.289 -12.085 595.262 2500.371 -3251.532 0.961 -1.277 0.610 0.08 0.61 -0.79 0.03
1 9.36 936 -2.639 -7.240 1.681 9.003 14.679 -15.747 595.262 2500.371 -3251.532 1.051 -2.135 0.689 0.08 0.61 -0.79 0.03
1 9.37 937 -3.199 -6.900 1.556 1.984 12.726 -20.508 610.252 2485.381 -3086.489 1.631 -2.477 0.822 0.08 0.61 -0.79 0.03
1 9.38 938 -3.539 -7.350 1.336 -13.336 10.162 -22.949 595.262 2575.322 -2996.548 1.998 -2.032 1.037 0.08 0.61 -0.79 0.02
1 9.39 939 -3.702 -8.169 0.800 -19.135 -1.953 -19.592 670.363 2545.342 -3131.460 2.190 -1.224 1.549 0.08 0.61 -0.79 0.02
1 9.40 940 -3.074 -8.217 0.891 -19.013 -13.397 -15.228 550.292 2620.293 -3026.528 1.592 -1.188 1.430 0.08 0.61 -0.79 0.02
1 9.41 941 -2.461 -7.963 0.618 -23.773 -21.332 -13.245 550.292 2620.293 -3026.528 0.989 -1.452 1.668 0.08 0.61 -0.78 0.02
1 9.42 942 -1.863 -8.150 1.528 -34.546 -26.489 -16.022 700.344 2620.293 -3026.528 0.446 -1.289 0.694 0.08 0.62 -0.78 0.02
1 9.43 943 -1.982 -9.802 3.477 -51.117 -33.295 -17.944 700.344 2620.293 -3026.528 0.600 0.347 -1.304 0.07 0.62 -0.78 0.02
1 9.44 944 -1.556 -13.858 5.488 -75.226 -48.798 -7.660 505.321 2560.332 -3191.421 0.205 4.382 -3.385 0.07 0.62 -0.78 0.02
1 9.45 945 0.378 -17.521 3.884 -60.547 -59.662 25.269 535.301 2560.332 -3116.470 -1.712 8.021 -1.882 0.07 0.63 -0.78 0.03
1 9.46 946 0.852 -8.892 2.279 49.286 -16.785 15.381 610.252 2635.283 -2966.417 -2.216 -0.613 -0.324 0.06 0.63 -0.77 0.03
1 9.47 947 0.215 -7.638 2.030 -10.132 -9.064 -10.956 520.311 2650.423 -3026.528 -1.607 -1.851 -0.013 0.06 0.63 -0.78 0.03
1 9.48 948 -0.713 -9.544 1.073 -63.233 -2.075 -15.961 520.311 2650.423 -3026.528 -0.657 0.056 0.963 0.06 0.63 -0.78 0.03
1 9.49 949 -4.051 -11.751 0.460 -31.311 3.540 -23.865 595.262 2575.322 -2996.548 2.737 2.223 1.420 0.06 0.63 -0.77 0.03
1 9.50 950 -4.707 -11.248 0.603 -30.640 -17.975 -19.379 595.262 2575.322 -2996.548 3.427 1.707 1.232 0.06 0.63 -0.77 0.03
1 9.51 951 -3.812 -11.109 1.173 -41.412 -39.307 -15.015 385.249 2755.355 -3041.519 2.565 1.556 0.618 0.06 0.64 -0.77 0.03
1 9.52 952 -2.030 -11.837 1.504 -45.777 -49.469 -10.498 505.321 2785.335 -2966.417 0.816 2.269 0.232 0.05 0.64 -0.77 0.03
1 9.53 953 -0.991 -11.967 1.676 -37.720 -49.805 -7.721 460.350 2710.384 -2891.466 -0.196 2.385 0.003 0.05 0.64 -0.76 0.03
1 9.54 954 -0.512 -11.167 1.619 -22.156 -46.784 -8.331 310.298 2755.355 -2966.417 -0.651 1.575 0.020 0.05 0.64 -0.76 0.04
1 9.55 955 -0.350 -10.669 1.810 -23.621 -45.410 -7.263 310.298 2755.355 -2966.417 -0.790 1.070 -0.198 0.04 0.64 -0.76 0.04
1 9.56 956 -0.010 -10.372 2.083 -24.414 -41.046 -7.416 400.239 2770.345 -2846.496 -1.087 0.759 -0.526 0.04 0.65 -0.76 0.04
1 9.57 957 0.072 -10.425 1.949 -23.468 -36.835 -7.385 400.239 2770.345 -2846.496 -1.139 0.804 -0.418 0.04 0.65 -0.76 0.04
1 9.58 958 0.479 -9.869 2.241 -22.614 -30.853 -7.324 475.340 2800.326 -2996.548 -1.517 0.241 -0.736 0.03 0.65 -0.76 0.04
1 9.59 959 0.503 -9.553 2.136 -22.797 -23.560 -8.362 400.239 2725.375 -2876.476 -1.513 -0.081 -0.655 0.03 0.65 -0.76 0.04
1 9.60 960 0.010 -9.338 2.083 -22.705 -14.465 -12.360 235.347 2860.287 -2891.466 -0.990 -0.304 -0.627 0.03 0.65 -0.76 0.04
1 9.61 961 -0.354 -9.357 1.872 -22.430 -11.871 -15.411 265.327 2800.326 -2846.496 -0.597 -0.291 -0.441 0.03 0.65 -0.76 0.04
1 9.62 962 -0.790 -9.400 1.815 -20.447 -11.871 -16.449 265.327 2800.326 -2846.496 -0.130 -0.255 -0.410 0.02 0.65 -0.75 0.04
1 9.63 963 -1.255 -9.290 1.829 -19.684 -14.313 -16.754 220.356 2770.345 -2666.463 0.364 -0.372 -0.451 0.02 0.66 -0.75 0.04
1 9.64 964 -1.288 -9.285 1.786 -19.562 -20.233 -13.580 223.954 2766.897 -2673.358 0.449 -0.388 -0.455 0.02 0.66 -0.75 0.04
1 9.65 965 -1.154 -9.184 1.791 -20.935 -23.987 -10.956 208.964 2976.911 -2793.430 0.335 -0.493 -0.483 0.02 0.66 -0.75 0.04
1 9.66 966 -0.963 -9.161 2.016 -22.583 -25.391 -8.423 298.905 2991.901 -2808.420 0.160 -0.522 -0.733 0.02 0.66 -0.75 0.04
1 9.67 967 -0.651 -9.242 2.050 -24.017 -25.665 -5.951 298.905 2991.901 -2808.420 -0.136 -0.445 -0.792 0.01 0.66 -0.75 0.05
1 9.68 968 -0.364 -9.501 1.997 -23.895 -23.926 -4.364 193.974 2991.901 -2853.391 -0.410 -0.191 -0.765 0.01 0.66 -0.75 0.05
1 9.69 969 -0.321 -9.496 1.906 -23.346 -21.362 -4.761 193.974 2991.901 -2853.391 -0.439 -0.200 -0.701 0.01 0.66 -0.75 0.05
1 9.70 970 -0.397 -9.649 1.973 -21.729 -20.203 -5.859 43.921 2991.901 -2703.339 -0.349 -0.051 -0.795 0.01 0.66 -0.75 0.05
1 9.71 971 -0.565 -9.697 1.710 -19.836 -18.860 -5.859 43.921 2991.901 -2703.339 -0.152 -0.011 -0.579 0.01 0.67 -0.75 0.05
1 9.72 972 -0.503 -9.630 1.652 -19.898 -18.158 -6.500 103.882 2931.940 -2613.397 -0.200 -0.082 -0.545 0 0.67 -0.74 0.05
1 9.73 973 -0.618 -9.932 1.504 -20.538 -17.700 -6.378 73.902 2841.849 -2703.339 -0.071 0.216 -0.421 0 0.67 -0.74 0.05
1 9.74 974 -0.713 -9.984 1.556 -19.928 -17.914 -7.233 73.902 2841.849 -2703.339 0.038 0.265 -0.498 0 0.67 -0.74 0.05
1 9.75 975 -0.666 -10.070 1.427 -17.212 -19.165 -7.599 133.863 2931.940 -2718.329 0.004 0.348 -0.392 -0 0.67 -0.74 0.05
1 9.76 976 -0.694 -9.989 1.379 -15.503 -20.172 -7.355 133.863 2931.940 -2718.329 0.047 0.263 -0.365 -0 0.67 -0.74 0.05
1 9.77 977 -0.599 -10.008 1.398 -13.489 -21.271 -7.874 58.912 3006.891 -2688.349 -0.035 0.279 -0.402 -0 0.67 -0.74 0.05
1 9.78 978 -0.694 -10.152 1.470 -11.658 -22.736 -7.904 58.912 3006.891 -2688.349 0.076 0.421 -0.489 -0 0.67 -0.74 0.05
1 9.79 979 -0.407 -9.955 1.441 -9.064 -24.201 -8.270 133.863 2931.940 -2688.349 -0.180 0.220 -0.483 -0.01 0.67 -0.74 0.05
1 9.80 980 -0.215 -9.970 1.451 -7.507 -24.048 -7.813 -105.981 3066.852 -2628.388 -0.355 0.233 -0.500 -0.01 0.67 -0.74 0.05
1 9.81 981 -0.139 -9.759 1.475 -8.759 -23.346 -8.026 -105.981 3066.852 -2628.388 -0.414 0.021 -0.529 -0.01 0.67 -0.74 0.06
1 9.82 982 -0.057 -9.812 1.441 -9.338 -21.790 -7.599 163.843 3126.813 -2583.417 -0.476 0.071 -0.504 -0.01 0.67 -0.74 0.06
1 9.83 983 -0.043 -9.673 1.288 -9.644 -20.081 -7.080 163.843 3126.813 -2583.417 -0.472 -0.069 -0.359 -0.02 0.67 -0.74 0.06
1 9.84 984 0.053 -9.812 1.264 -10.345 -18.768 -6.195 -61.010 2916.950 -2628.388 -0.551 0.068 -0.343 -0.02 0.67 -0.74 0.06
1 9.85 985 0.158 -9.764 1.168 -11.780 -17.181 -6.348 -61.010 2916.950 -2628.388 -0.640 0.018 -0.258 -0.02 0.67 -0.74 0.06
1 9.86 986 0.177 -9.960 1.212 -11.383 -14.801 -6.287 -61.010 2991.901 -2628.388 -0.626 0.210 -0.329 -0.02 0.67 -0.74 0.06
1 9.87 987 0.163 -10.013 1.245 -10.315 -13.855 -6.348 -15.890 3006.891 -2658.368 -0.596 0.261 -0.375 -0.02 0.67 -0.74 0.06
1 9.88 988 0.034 -9.994 1.370 -8.820 -13.428 -6.287 -15.890 3006.891 -2658.368 -0.451 0.240 -0.511 -0.02 0.67 -0.74 0.06
1 9.89 989 -0.043 -9.989 1.279 -6.897 -12.878 -6.592 -120.971 3126.813 -2763.300 -0.359 0.234 -0.428 -0.03 0.68 -0.73 0.06
1 9.90 990 0.024 -10.008 1.441 -3.540 -14.008 -7.233 -90.991 3051.862 -2718.329 -0.412 0.252 -0.596 -0.03 0.68 -0.73 0.06
1 9.91 991 0.019 -10.037 1.480 -1.373 -14.099 -7.050 -15.890 3126.813 -2583.417 -0.391 0.280 -0.636 -0.03 0.68 -0.73 0.06
1 9.92 992 -0.048 -9.994 1.307 0.610 -15.015 -6.592 -15.890 3126.813 -2583.417 -0.309 0.237 -0.461 -0.03 0.68 -0.73 0.06
1 9.93 993 -0.091 -9.884 1.475 1.312 -16.266 -5.768 -120.971 2976.911 -2508.316 -0.238 0.127 -0.617 -0.03 0.67 -0.74 0.06
1 9.94 994 -0.172 -9.965 1.508 2.289 -17.395 -3.754 -45.870 3201.914 -2613.397 -0.145 0.208 -0.643 -0.03 0.67 -0.74 0.06
1 9.95 995 -0.062 -10.027 1.360 3.479 -18.646 -2.960 -45.271 3201.464 -2615.496 -0.246 0.271 -0.485 -0.03 0.67 -0.74 0.06
1 9.96 996 -0.139 -9.932 1.417 4.028 -19.043 -3.113 -90.241 2931.490 -2465.444 -0.161 0.176 -0.532 -0.03 0.67 -0.74 0.06
1 9.97 997 0.225 -10.085 1.465 3.906 -19.196 -3.021 -120.372 3006.441 -2690.447 -0.517 0.330 -0.569 -0.04 0.67 -0.74 0.06
1 9.98 998 0.225 -9.908 1.432 4.028 -17.670 -3.723 -195.323 2931.490 -2510.415 -0.507 0.154 -0.525 -0.04 0.67 -0.74 0.06
1 9.99 999 0.163 -9.994 1.408 4.303 -16.174 -5.066 -195.323 2931.490 -2510.415 -0.432 0.241 -0.490 -0.04 0.67 -0.74 0.06
1 10.00 1000 0.053 -10.214 1.508 5.768 -15.869 -6.104 -195.323 3171.484 -2540.395 -0.296 0.462 -0.569 -0.04 0.67 -0.74 0.06
1 10.01 1001 0.196 -10.137 1.571 8.453 -16.388 -7.141 -285.264 3111.523 -2555.385 -0.425 0.387 -0.618 -0.04 0.67 -0.74 0.06
1 10.02 1002 0.292 -10.070 1.494 11.749 -16.693 -8.728 -285.264 3111.523 -2555.385 -0.505 0.321 -0.522 -0.04 0.67 -0.74 0.06
1 10.03 1003 0.412 -9.750 1.403 13.641 -16.419 -10.193 -120.372 2856.539 -2690.447 -0.605 0.002 -0.408 -0.04 0.67 -0.74 0.06
1 10.04 1004 0.541 -9.553 1.288 10.529 -15.961 -11.871 -345.375 3051.562 -2585.366 -0.712 -0.192 -0.270 -0.05 0.67 -0.74 0.06
1 10.05 1005 0.584 -9.596 1.178 7.690 -15.350 -11.841 -210.313 2916.500 -2495.424 -0.731 -0.147 -0.140 -0.05 0.67 -0.74 0.06
1 10.06 1006 0.685 -9.611 0.986 6.531 -15.015 -12.268 -210.313 2916.500 -2495.424 -0.806 -0.132 0.065 -0.05 0.67 -0.74 0.06
1 10.07 1007 0.757 -9.663 0.991 5.249 -13.611 -12.054 -285.264 3036.422 -2525.405 -0.851 -0.078 0.072 -0.05 0.67 -0.74 0.06
1 10.08 1008 0.670 -9.778 0.876 5.402 -11.078 -11.139 -405.336 2886.520 -2630.486 -0.713 0.038 0.202 -0.05 0.66 -0.74 0.06
