COL1	TIME	ACC_X	ACC_Y	ACC_Z	GYR_X	GYR_Y	GYR_Z	MAG_X	MAG_Y	MAG_Z	LACC_X	LACC_Y	LACC_Z	QUAT_X	QUAT_Y	QUAT_Z	QUAT_W
1 0.00 0 0.273 -9.659 2.198 -1.404 -0.427 1.312 -333.533 2719.229 -3312.092 0.072 0.110 -0.019 -0.05 0.62 -0.78 0.03
1 0.01 1 0.215 -9.568 2.136 -0.641 -0.031 1.099 -378.503 2824.310 -3087.089 0.129 0.019 0.044 -0.05 0.62 -0.78 0.03
1 0.02 2 0.417 -9.563 2.212 -0.793 -0.854 0.519 -273.422 2704.238 -3117.219 -0.073 0.014 -0.033 -0.05 0.62 -0.78 0.03
1 0.03 3 0.426 -9.534 2.260 -0.366 -1.251 1.007 -363.513 2719.229 -3102.079 -0.082 -0.014 -0.081 -0.05 0.62 -0.78 0.03
1 0.04 4 0.340 -9.654 2.212 -1.038 -0.671 1.160 -363.513 2719.229 -3102.079 0.005 0.105 -0.033 -0.05 0.62 -0.78 0.03
1 0.05 5 0.340 -9.572 2.318 -1.343 -0.641 0.488 -423.474 2629.287 -3087.089 0.005 0.024 -0.138 -0.05 0.62 -0.78 0.03
1 0.06 6 0.335 -9.606 2.284 -0.916 -0.702 0.671 -378.503 2674.258 -3267.122 0.010 0.058 -0.104 -0.05 0.62 -0.78 0.03
1 0.07 7 0.345 -9.654 2.184 -0.244 -0.732 0.519 -378.503 2674.258 -3267.122 0.000 0.106 -0.003 -0.05 0.62 -0.78 0.03
1 0.08 8 0.402 -9.649 2.236 -0.946 -0.671 0.458 -408.484 2644.277 -3132.209 -0.057 0.101 -0.055 -0.05 0.62 -0.78 0.03
1 0.09 9 0.345 -9.654 2.275 -1.129 -1.129 0.671 -378.503 2749.209 -3192.170 -0.000 0.106 -0.093 -0.05 0.62 -0.78 0.03
1 0.10 10 0.431 -9.740 2.251 -1.373 -0.671 0.397 -378.503 2824.310 -3192.170 -0.086 0.192 -0.069 -0.05 0.62 -0.78 0.03
1 0.11 11 0.335 -9.750 2.294 -1.282 -0.336 0.916 -378.503 2824.310 -3192.170 0.010 0.202 -0.112 -0.05 0.62 -0.78 0.03
1 0.12 12 0.316 -9.649 2.164 -1.740 -0.580 0.519 -498.425 2704.238 -3192.170 0.029 0.101 0.018 -0.05 0.62 -0.78 0.03
1 0.13 13 0.287 -9.563 2.217 -1.038 -0.793 1.099 -288.412 2644.277 -3177.180 0.058 0.015 -0.035 -0.05 0.62 -0.78 0.03
1 0.14 14 0.297 -9.649 2.251 -1.160 -1.495 0.977 -288.412 2644.277 -3177.180 0.048 0.101 -0.068 -0.05 0.62 -0.78 0.03
1 0.15 15 0.369 -9.654 2.294 -1.617 -1.312 0.610 -378.503 2584.316 -3192.170 -0.024 0.106 -0.111 -0.05 0.62 -0.78 0.03
1 0.16 16 0.335 -9.630 2.231 -1.221 -0.946 1.007 -408.484 2719.229 -3132.209 0.009 0.082 -0.048 -0.05 0.62 -0.78 0.03
1 0.17 17 0.316 -9.711 2.313 -0.824 -1.038 0.824 -318.393 2704.238 -3192.170 0.028 0.164 -0.129 -0.05 0.62 -0.78 0.03
1 0.18 18 0.479 -9.716 2.270 -0.397 -1.221 0.702 -318.393 2704.238 -3192.170 -0.135 0.169 -0.086 -0.05 0.62 -0.78 0.03
1 0.19 19 0.254 -9.625 2.246 -1.312 -1.129 0.916 -318.393 2749.209 -3042.118 0.091 0.078 -0.061 -0.05 0.62 -0.78 0.03
1 0.20 20 0.330 -9.678 2.308 -0.763 -1.709 0.946 -438.464 2614.297 -3177.180 0.014 0.131 -0.123 -0.05 0.62 -0.78 0.03
1 0.21 21 0.488 -9.802 2.241 -0.824 -1.038 1.556 -438.464 2614.297 -3177.180 -0.144 0.255 -0.055 -0.05 0.62 -0.78 0.03
1 0.22 22 0.345 -9.697 2.275 -0.549 -0.977 1.373 -483.435 2839.300 -3132.209 0.000 0.150 -0.088 -0.05 0.62 -0.78 0.03
1 0.23 23 0.412 -9.682 2.361 -0.885 -1.099 1.038 -423.474 2584.316 -3222.151 -0.067 0.136 -0.174 -0.05 0.62 -0.78 0.03
1 0.24 24 0.340 -9.740 2.231 -1.831 -0.671 0.977 -408.484 2569.326 -3102.079 0.005 0.194 -0.044 -0.05 0.62 -0.78 0.03
1 0.25 25 0.316 -9.505 2.332 -1.007 -0.885 1.251 -408.484 2569.326 -3102.079 0.029 -0.041 -0.144 -0.05 0.62 -0.78 0.03
1 0.26 26 0.450 -9.764 2.231 -0.580 -0.824 1.068 -483.435 2794.330 -3177.180 -0.105 0.218 -0.043 -0.05 0.62 -0.78 0.03
1 0.27 27 0.383 -9.577 2.236 -0.427 -0.793 0.854 -378.503 2584.316 -3222.151 -0.038 0.031 -0.047 -0.05 0.62 -0.78 0.03
1 0.28 28 0.359 -9.697 2.222 -0.336 -0.946 1.160 -378.503 2584.316 -3222.151 -0.014 0.151 -0.033 -0.05 0.62 -0.78 0.03
1 0.29 29 0.374 -9.596 2.327 -0.702 -0.275 1.038 -498.425 2779.339 -3147.200 -0.028 0.050 -0.138 -0.05 0.62 -0.78 0.03
1 0.30 30 0.354 -9.750 2.313 -0.549 -0.641 1.160 -498.425 2779.339 -3147.200 -0.009 0.203 -0.123 -0.05 0.62 -0.78 0.03
1 0.31 31 0.330 -9.630 2.231 0.275 -0.397 0.427 -363.513 2614.297 -3237.141 0.015 0.084 -0.041 -0.05 0.62 -0.78 0.03
1 0.32 32 0.350 -9.673 2.284 -0.305 -0.580 1.648 -363.513 2614.297 -3237.141 -0.004 0.127 -0.093 -0.05 0.62 -0.78 0.03
1 0.33 33 0.359 -9.611 2.241 -0.793 -0.763 0.854 -363.513 2794.330 -3177.180 -0.013 0.065 -0.050 -0.05 0.62 -0.78 0.03
1 0.34 34 0.316 -9.615 2.217 -0.458 -0.336 1.251 -348.523 2749.209 -3192.170 0.030 0.070 -0.026 -0.05 0.62 -0.78 0.03
1 0.35 35 0.306 -9.682 2.188 -0.061 -0.610 0.916 -348.523 2749.209 -3192.170 0.039 0.137 0.003 -0.05 0.62 -0.78 0.03
1 0.36 36 0.206 -9.697 2.260 -0.275 -0.763 0.977 -483.435 2569.326 -3237.141 0.140 0.151 -0.069 -0.05 0.62 -0.78 0.03
1 0.37 37 0.364 -9.697 2.155 -0.092 -0.641 1.404 -483.435 2569.326 -3237.141 -0.019 0.151 0.036 -0.05 0.62 -0.78 0.03
1 0.38 38 0.283 -9.730 2.227 -0.671 -1.068 0.580 -273.422 2779.339 -3147.200 0.061 0.185 -0.035 -0.05 0.62 -0.78 0.03
1 0.39 39 0.244 -9.682 2.212 -0.305 -0.946 1.190 -273.422 2779.339 -3147.200 0.099 0.137 -0.021 -0.05 0.62 -0.78 0.03
1 0.40 40 0.215 -9.582 2.270 0.153 -1.617 0.916 -288.412 2764.349 -3312.092 0.127 0.036 -0.078 -0.05 0.62 -0.78 0.03
1 0.41 41 0.326 -9.606 2.322 -0.366 -0.916 0.793 -438.464 2689.248 -3207.161 0.017 0.061 -0.129 -0.05 0.62 -0.78 0.03
1 0.42 42 0.302 -9.620 2.332 -0.916 -0.519 1.221 -438.464 2689.248 -3207.161 0.041 0.075 -0.138 -0.05 0.62 -0.78 0.03
1 0.43 43 0.340 -9.663 2.265 -1.221 -0.214 1.221 -408.484 2764.349 -3027.128 0.003 0.118 -0.071 -0.05 0.62 -0.78 0.03
1 0.44 44 0.474 -9.773 2.251 -0.488 -0.763 0.580 -408.484 2764.349 -3027.128 -0.131 0.228 -0.056 -0.05 0.62 -0.78 0.03
1 0.45 45 0.297 -9.682 2.260 -0.610 -1.099 1.282 -408.484 2719.229 -3132.209 0.046 0.138 -0.066 -0.05 0.62 -0.78 0.03
1 0.46 46 0.244 -9.568 2.217 -0.610 -1.160 1.343 -408.484 2719.229 -3132.209 0.099 0.023 -0.022 -0.05 0.62 -0.78 0.03
1 0.47 47 0.321 -9.596 2.212 -0.519 -1.251 1.465 -438.464 2614.297 -3057.108 0.022 0.051 -0.017 -0.05 0.62 -0.78 0.03
1 0.48 48 0.388 -9.673 2.303 -0.732 -1.190 0.916 -363.513 2764.349 -3282.112 -0.045 0.128 -0.108 -0.05 0.62 -0.78 0.03
1 0.49 49 0.340 -9.678 2.241 -1.007 -1.068 1.129 -363.513 2764.349 -3282.112 0.003 0.133 -0.045 -0.05 0.62 -0.78 0.03
1 0.50 50 0.297 -9.735 2.366 -1.190 -0.763 1.587 -648.478 2749.209 -3222.151 0.046 0.191 -0.169 -0.05 0.62 -0.78 0.03
1 0.51 51 0.402 -9.606 2.275 -1.251 -1.587 1.617 -648.478 2749.209 -3222.151 -0.059 0.061 -0.078 -0.05 0.62 -0.78 0.03
1 0.52 52 0.508 -9.620 2.251 -0.366 -1.221 1.221 -363.513 2719.229 -3237.141 -0.165 0.076 -0.054 -0.05 0.62 -0.78 0.03
1 0.53 53 0.383 -9.682 2.275 -0.031 -1.526 0.793 -363.513 2719.229 -3237.141 -0.039 0.138 -0.078 -0.05 0.62 -0.78 0.03
1 0.54 54 0.311 -9.745 2.198 -1.221 -0.580 1.373 -453.455 2584.316 -3222.151 0.033 0.200 -0.001 -0.05 0.62 -0.78 0.03
1 0.55 55 0.450 -9.692 2.236 -0.519 -1.190 1.038 -453.455 2749.209 -3147.200 -0.106 0.148 -0.039 -0.05 0.62 -0.78 0.03
1 0.56 56 0.340 -9.711 2.222 -0.763 -1.312 1.190 -453.455 2749.209 -3147.200 0.005 0.167 -0.024 -0.05 0.62 -0.78 0.03
1 0.57 57 0.306 -9.639 2.188 -1.038 -0.763 1.038 -513.416 2689.248 -3132.209 0.038 0.095 0.009 -0.05 0.62 -0.78 0.03
1 0.58 58 0.369 -9.592 2.289 -0.763 -0.427 1.190 -513.416 2689.248 -3132.209 -0.024 0.047 -0.091 -0.05 0.62 -0.78 0.03
1 0.59 59 0.369 -9.668 2.260 -0.916 -0.732 0.824 -453.455 2779.339 -3147.200 -0.024 0.124 -0.062 -0.05 0.62 -0.78 0.03
1 0.60 60 0.321 -9.577 2.265 -0.885 -1.099 0.580 -423.474 2704.238 -3042.118 0.024 0.033 -0.067 -0.05 0.62 -0.78 0.03
1 0.61 61 0.488 -9.639 2.270 -0.610 -0.763 0.916 -438.464 2644.277 -3207.161 -0.144 0.096 -0.071 -0.05 0.62 -0.78 0.03
1 0.62 62 0.369 -9.682 2.279 -0.458 -0.549 0.977 -378.503 2779.339 -3267.122 -0.023 0.139 -0.080 -0.05 0.62 -0.78 0.03
1 0.63 63 0.321 -9.654 2.188 -1.282 -0.305 1.495 -378.503 2779.339 -3267.122 0.025 0.110 0.011 -0.05 0.62 -0.78 0.03
1 0.64 64 0.359 -9.592 2.251 -0.824 -0.977 1.190 -438.464 2644.277 -3237.141 -0.014 0.048 -0.051 -0.05 0.62 -0.78 0.03
1 0.65 65 0.460 -9.668 2.184 -0.732 -0.610 1.526 -438.464 2644.277 -3237.141 -0.114 0.125 0.017 -0.05 0.62 -0.78 0.03
1 0.66 66 0.345 -9.644 2.265 -1.587 -0.427 0.763 -423.474 2824.310 -3192.170 0.001 0.101 -0.064 -0.05 0.62 -0.78 0.03
1 0.67 67 0.354 -9.687 2.270 -0.946 -0.854 0.854 -408.484 2644.277 -3177.180 -0.008 0.144 -0.068 -0.05 0.62 -0.78 0.03
1 0.68 68 0.326 -9.644 2.184 -0.916 -0.122 1.434 -408.484 2614.297 -3237.141 0.021 0.101 0.018 -0.05 0.62 -0.78 0.03
1 0.69 69 0.374 -9.668 2.270 -1.007 -0.183 0.671 -363.513 2689.248 -3357.213 -0.027 0.125 -0.068 -0.05 0.62 -0.78 0.03
1 0.70 70 0.354 -9.620 2.260 -0.946 0.061 1.251 -363.513 2689.248 -3357.213 -0.008 0.077 -0.058 -0.05 0.62 -0.78 0.03
1 0.71 71 0.417 -9.673 2.308 -0.824 -0.214 1.343 -273.422 2749.209 -3192.170 -0.070 0.130 -0.105 -0.05 0.62 -0.78 0.03
1 0.72 72 0.321 -9.563 2.289 -0.946 -0.122 1.709 -273.422 2749.209 -3192.170 0.026 0.020 -0.086 -0.05 0.62 -0.78 0.03
1 0.73 73 0.326 -9.668 2.270 -0.305 -0.092 1.923 -498.425 2674.258 -3117.219 0.021 0.125 -0.066 -0.05 0.62 -0.78 0.03
1 0.74 74 0.383 -9.596 2.222 -0.671 -0.702 1.465 -348.523 2674.258 -3222.151 -0.036 0.054 -0.018 -0.05 0.62 -0.78 0.03
1 0.75 75 0.378 -9.615 2.447 -1.160 0.183 1.038 -348.523 2704.238 -3192.170 -0.031 0.073 -0.242 -0.05 0.62 -0.78 0.03
1 0.76 76 0.484 -9.620 2.294 -1.282 -0.488 0.885 -408.484 2689.248 -3132.209 -0.136 0.078 -0.087 -0.05 0.62 -0.78 0.03
1 0.77 77 0.421 -9.582 2.351 -0.793 -0.031 1.007 -408.484 2689.248 -3132.209 -0.073 0.040 -0.145 -0.05 0.62 -0.78 0.03
1 0.78 78 0.345 -9.592 2.356 -0.702 -0.580 0.580 -528.406 2704.238 -3147.200 0.004 0.050 -0.149 -0.05 0.62 -0.78 0.03
1 0.79 79 0.316 -9.711 2.308 -0.488 -0.610 0.458 -528.406 2704.238 -3147.200 0.032 0.169 -0.101 -0.05 0.62 -0.78 0.03
1 0.80 80 0.431 -9.635 2.203 -0.641 -0.092 1.404 -528.406 2584.316 -3147.200 -0.082 0.093 0.005 -0.05 0.62 -0.78 0.03
1 0.81 81 0.278 -9.773 2.265 -0.549 -0.427 1.068 -363.513 2719.229 -3057.108 0.071 0.232 -0.058 -0.05 0.62 -0.78 0.03
1 0.82 82 0.369 -9.553 2.212 -0.671 -0.366 0.977 -528.406 2629.287 -3147.200 -0.020 0.011 -0.005 -0.05 0.62 -0.78 0.03
1 0.83 83 0.263 -9.568 2.169 -0.610 -0.885 1.221 -348.523 2629.287 -3192.170 0.086 0.026 0.039 -0.05 0.62 -0.78 0.03
1 0.84 84 0.374 -9.587 2.327 -0.732 -0.946 1.678 -348.523 2629.287 -3192.170 -0.025 0.045 -0.119 -0.05 0.62 -0.78 0.03
1 0.85 85 0.359 -9.582 2.279 -0.885 -0.671 1.099 -453.455 2629.287 -3222.151 -0.011 0.040 -0.071 -0.05 0.62 -0.78 0.03
1 0.86 86 0.345 -9.592 2.294 -0.397 -0.916 0.671 -453.455 2629.287 -3222.151 0.004 0.050 -0.085 -0.05 0.62 -0.78 0.03
1 0.87 87 0.493 -9.673 2.370 -1.343 -0.916 1.160 -423.474 2629.287 -3192.170 -0.145 0.132 -0.161 -0.05 0.62 -0.78 0.03
1 0.88 88 0.402 -9.563 2.284 -1.068 -0.671 1.038 -408.484 2764.349 -3237.141 -0.054 0.021 -0.075 -0.05 0.62 -0.78 0.03
1 0.89 89 0.278 -9.592 2.289 -0.702 -0.885 1.160 -423.474 2674.258 -3267.122 0.071 0.051 -0.078 -0.05 0.62 -0.78 0.03
1 0.90 90 0.350 -9.635 2.337 -0.183 -1.312 1.068 -453.455 2674.258 -3192.170 -0.002 0.094 -0.125 -0.05 0.62 -0.78 0.03
1 0.91 91 0.383 -9.668 2.241 -0.732 -0.977 0.671 -453.455 2674.258 -3192.170 -0.035 0.127 -0.029 -0.05 0.62 -0.78 0.03
1 0.92 92 0.345 -9.606 2.169 -0.916 0.031 1.190 -438.464 2644.277 -3177.180 0.003 0.065 0.043 -0.05 0.62 -0.78 0.03
1 0.93 93 0.383 -9.553 2.332 -1.007 -0.519 0.671 -438.464 2644.277 -3177.180 -0.035 0.013 -0.120 -0.05 0.62 -0.78 0.03
1 0.94 94 0.431 -9.659 2.265 -0.366 -0.519 0.763 -333.533 2539.346 -3177.180 -0.083 0.118 -0.052 -0.05 0.62 -0.78 0.03
1 0.95 95 0.350 -9.644 2.342 -0.946 -0.732 1.373 -453.455 2704.238 -3267.122 -0.001 0.104 -0.128 -0.05 0.62 -0.78 0.03
1 0.96 96 0.493 -9.721 2.346 -0.732 -0.214 1.312 -408.484 2644.277 -3102.079 -0.144 0.181 -0.133 -0.05 0.62 -0.78 0.03
1 0.97 97 0.268 -9.659 2.303 -0.793 -0.641 0.854 -363.513 2719.229 -3237.141 0.082 0.118 -0.089 -0.05 0.62 -0.78 0.03
1 0.98 98 0.369 -9.644 2.241 -1.068 -1.007 0.702 -363.513 2719.229 -3237.141 -0.020 0.104 -0.026 -0.05 0.62 -0.78 0.03
1 0.99 99 0.354 -9.668 2.136 -0.793 -0.702 1.038 -483.435 2689.248 -3177.180 -0.005 0.128 0.079 -0.05 0.62 -0.78 0.03
1 1.00 100 0.493 -9.663 2.413 -0.641 -0.854 1.343 -483.435 2689.248 -3177.180 -0.144 0.123 -0.199 -0.05 0.62 -0.78 0.03
1 1.01 101 0.249 -9.687 2.251 -1.129 -0.702 1.495 -423.474 2629.287 -3087.089 0.100 0.147 -0.035 -0.05 0.62 -0.78 0.03
1 1.02 102 0.306 -9.649 2.208 -1.160 -1.038 0.732 -543.396 2719.229 -3132.209 0.043 0.109 0.008 -0.05 0.62 -0.78 0.03
1 1.03 103 0.431 -9.663 2.279 -0.488 -1.404 0.488 -543.396 2719.229 -3132.209 -0.082 0.123 -0.064 -0.05 0.62 -0.78 0.03
1 1.04 104 0.340 -9.601 2.265 0.000 -1.282 1.038 -528.406 2674.258 -3087.089 0.008 0.061 -0.049 -0.05 0.62 -0.78 0.03
1 1.05 105 0.359 -9.706 2.255 -0.366 -0.702 0.793 -528.406 2674.258 -3087.089 -0.010 0.167 -0.039 -0.05 0.62 -0.78 0.03
1 1.06 106 0.441 -9.644 2.404 -1.190 0.122 1.526 -348.523 2674.258 -3222.151 -0.092 0.105 -0.187 -0.05 0.62 -0.78 0.03
1 1.07 107 0.316 -9.596 2.356 -1.434 -0.610 1.129 -348.523 2674.258 -3222.151 0.034 0.057 -0.139 -0.05 0.62 -0.78 0.03
1 1.08 108 0.287 -9.563 2.318 -0.824 -0.824 0.916 -438.464 2614.297 -3132.209 0.062 0.023 -0.100 -0.05 0.62 -0.78 0.03
1 1.09 109 0.235 -9.596 2.270 -0.214 -0.793 0.671 -498.425 2629.287 -3222.151 0.114 0.057 -0.051 -0.05 0.62 -0.78 0.03
1 1.10 110 0.278 -9.663 2.346 -0.275 -0.397 0.885 -498.425 2629.287 -3222.151 0.070 0.124 -0.127 -0.05 0.62 -0.78 0.04
1 1.11 111 0.283 -9.453 2.246 -1.068 -0.885 0.885 -498.425 2674.258 -3267.122 0.064 -0.086 -0.027 -0.05 0.62 -0.78 0.03
1 1.12 112 0.445 -9.673 2.155 -0.519 -1.129 1.465 -498.425 2674.258 -3267.122 -0.099 0.134 0.065 -0.05 0.62 -0.78 0.03
1 1.13 113 0.330 -9.606 2.327 -0.641 -0.702 0.702 -378.503 2824.310 -3342.223 0.016 0.067 -0.108 -0.05 0.62 -0.78 0.03
1 1.14 114 0.292 -9.620 2.241 -0.519 -0.031 0.671 -378.503 2824.310 -3342.223 0.054 0.081 -0.022 -0.05 0.62 -0.78 0.03
1 1.15 115 0.421 -9.687 2.217 -0.763 -0.305 1.312 -378.503 2704.238 -3192.170 -0.075 0.148 0.002 -0.05 0.62 -0.78 0.03
1 1.16 116 0.359 -9.553 2.294 -0.977 -0.854 1.678 -588.517 2719.229 -3207.161 -0.013 0.014 -0.074 -0.05 0.62 -0.78 0.03
1 1.17 117 0.421 -9.711 2.203 -0.946 -0.854 0.763 -588.517 2719.229 -3207.161 -0.075 0.172 0.017 -0.05 0.62 -0.78 0.04
1 1.18 118 0.350 -9.635 2.246 -1.495 -0.427 1.038 -453.455 2674.258 -3087.089 -0.003 0.096 -0.026 -0.05 0.62 -0.78 0.04
1 1.19 119 0.407 -9.587 2.327 -0.946 -0.122 1.007 -573.526 2749.209 -3222.151 -0.060 0.048 -0.107 -0.05 0.62 -0.78 0.04
1 1.20 120 0.417 -9.668 2.351 -0.519 -0.854 0.305 -363.513 2689.248 -3207.161 -0.069 0.129 -0.131 -0.05 0.62 -0.78 0.04
1 1.21 121 0.354 -9.659 2.193 -0.641 -1.221 1.343 -363.513 2689.248 -3207.161 -0.006 0.120 0.028 -0.05 0.62 -0.78 0.04
1 1.22 122 0.297 -9.630 2.231 -1.160 -1.038 1.160 -438.464 2614.297 -3132.209 0.051 0.091 -0.010 -0.05 0.62 -0.78 0.04
1 1.23 123 0.340 -9.558 2.370 -1.556 -0.458 1.312 -408.484 2689.248 -3177.180 0.008 0.019 -0.149 -0.05 0.62 -0.78 0.04
1 1.24 124 0.215 -9.745 2.184 -0.946 -0.366 1.160 -408.484 2689.248 -3177.180 0.132 0.206 0.038 -0.05 0.62 -0.78 0.04
1 1.25 125 0.474 -9.615 2.289 -0.732 -0.885 1.221 -408.484 2614.297 -3207.161 -0.127 0.077 -0.067 -0.05 0.62 -0.78 0.04
1 1.26 126 0.436 -9.678 2.294 -1.038 -0.885 1.343 -453.455 2779.339 -3147.200 -0.089 0.139 -0.071 -0.05 0.62 -0.78 0.04
1 1.27 127 0.369 -9.778 2.294 -0.885 -0.763 1.160 -483.435 2794.330 -3237.141 -0.022 0.240 -0.071 -0.05 0.62 -0.78 0.04
1 1.28 128 0.311 -9.702 2.327 -1.740 -0.610 0.671 -483.435 2794.330 -3237.141 0.036 0.163 -0.104 -0.05 0.62 -0.78 0.04
1 1.29 129 0.335 -9.644 2.251 -1.740 -0.244 1.160 -513.416 2689.248 -3057.108 0.012 0.106 -0.027 -0.05 0.62 -0.78 0.04
1 1.30 130 0.268 -9.663 2.370 -1.129 -0.336 1.068 -438.464 2794.330 -3057.108 0.079 0.125 -0.146 -0.05 0.62 -0.78 0.04
1 1.31 131 0.350 -9.654 2.198 0.000 -0.275 1.282 -438.464 2794.330 -3057.108 -0.002 0.116 0.027 -0.05 0.62 -0.78 0.04
1 1.32 132 0.369 -9.611 2.121 -0.549 -0.549 0.946 -573.526 2854.291 -3117.219 -0.022 0.073 0.103 -0.05 0.62 -0.78 0.04
1 1.33 133 0.426 -9.750 2.193 -0.793 -0.946 1.282 -438.464 2719.229 -2997.147 -0.080 0.212 0.031 -0.05 0.62 -0.78 0.04
1 1.34 134 0.412 -9.692 2.265 -1.129 -0.885 1.282 -453.455 2704.238 -3222.151 -0.065 0.154 -0.041 -0.05 0.62 -0.78 0.04
1 1.35 135 0.393 -9.678 2.140 -0.366 -0.732 0.336 -453.455 2704.238 -3222.151 -0.046 0.140 0.083 -0.05 0.62 -0.78 0.04
1 1.36 136 0.306 -9.663 2.241 -0.488 -0.519 0.824 -438.464 2614.297 -3132.209 0.041 0.125 -0.017 -0.05 0.62 -0.78 0.04
1 1.37 137 0.431 -9.563 2.289 -0.946 -1.129 1.251 -288.412 2539.346 -3237.141 -0.084 0.025 -0.065 -0.05 0.62 -0.78 0.04
1 1.38 138 0.350 -9.692 2.284 -1.312 -0.641 1.099 -288.412 2539.346 -3237.141 -0.002 0.154 -0.060 -0.05 0.62 -0.78 0.04
1 1.39 139 0.412 -9.692 2.327 -1.587 -0.275 0.977 -453.455 2554.336 -3297.102 -0.064 0.154 -0.102 -0.05 0.62 -0.78 0.04
1 1.40 140 0.374 -9.673 2.217 -0.854 -0.732 0.946 -483.435 2764.349 -3132.209 -0.026 0.135 0.008 -0.05 0.62 -0.78 0.04
1 1.41 141 0.206 -9.630 2.337 -0.793 -0.916 0.977 -483.435 2719.229 -3282.112 0.142 0.092 -0.111 -0.05 0.62 -0.78 0.04
1 1.42 142 0.316 -9.620 2.284 -0.946 -0.671 1.129 -483.435 2719.229 -3282.112 0.031 0.083 -0.058 -0.05 0.62 -0.78 0.04
1 1.43 143 0.259 -9.682 2.246 -1.190 -0.488 1.434 -348.523 2674.258 -3117.219 0.088 0.145 -0.020 -0.05 0.62 -0.78 0.04
1 1.44 144 0.192 -9.673 2.212 -1.129 -1.160 0.519 -378.503 2704.238 -3117.219 0.155 0.135 0.014 -0.05 0.62 -0.78 0.04
1 1.45 145 0.359 -9.601 2.270 -0.641 -1.495 0.885 -378.503 2704.238 -3117.219 -0.013 0.063 -0.044 -0.05 0.62 -0.78 0.04
1 1.46 146 0.249 -9.620 2.294 -0.458 -1.190 1.038 -288.412 2719.229 -3207.161 0.097 0.083 -0.068 -0.05 0.62 -0.78 0.04
1 1.47 147 0.354 -9.668 2.208 -0.977 -0.732 1.251 -348.523 2749.209 -3087.089 -0.008 0.131 0.019 -0.05 0.62 -0.78 0.04
1 1.48 148 0.350 -9.611 2.322 -1.556 -0.732 1.068 -363.513 2689.248 -3282.112 -0.003 0.073 -0.096 -0.05 0.62 -0.78 0.04
1 1.49 149 0.393 -9.606 2.212 -1.129 -0.946 1.160 -363.513 2689.248 -3282.112 -0.046 0.068 0.014 -0.05 0.62 -0.78 0.04
1 1.50 150 0.426 -9.668 2.308 -0.946 -0.610 0.702 -318.393 2749.209 -3192.170 -0.079 0.131 -0.082 -0.05 0.62 -0.78 0.04
1 1.51 151 0.388 -9.654 2.308 -1.373 -0.977 1.038 -348.523 2854.291 -3087.089 -0.041 0.116 -0.081 -0.05 0.62 -0.78 0.04
1 1.52 152 0.374 -9.687 2.327 -1.282 -0.641 0.763 -348.523 2854.291 -3087.089 -0.025 0.150 -0.100 -0.05 0.62 -0.78 0.04
1 1.53 153 0.249 -9.587 2.332 -1.373 -0.580 0.488 -198.471 2704.238 -3147.200 0.100 0.050 -0.104 -0.05 0.62 -0.78 0.04
1 1.54 154 0.383 -9.486 2.308 -1.129 -0.763 0.854 -378.503 2629.287 -3222.151 -0.035 -0.051 -0.080 -0.05 0.62 -0.78 0.03
1 1.55 155 0.340 -9.582 2.260 -1.251 -0.610 1.526 -378.503 2824.310 -3117.219 0.009 0.045 -0.031 -0.05 0.62 -0.78 0.03
1 1.56 156 0.326 -9.582 2.404 -1.556 -0.641 1.465 -378.503 2824.310 -3117.219 0.022 0.045 -0.175 -0.05 0.62 -0.78 0.03
1 1.57 157 0.374 -9.649 2.342 -1.526 -0.092 1.617 -363.513 2764.349 -3057.108 -0.025 0.112 -0.112 -0.05 0.62 -0.78 0.03
1 1.58 158 0.239 -9.596 2.370 -1.434 0.244 0.641 -483.435 2689.248 -3177.180 0.109 0.060 -0.141 -0.05 0.62 -0.78 0.03
1 1.59 159 0.326 -9.596 2.327 -2.563 -0.458 1.862 -483.435 2689.248 -3177.180 0.022 0.060 -0.098 -0.05 0.62 -0.78 0.03
1 1.60 160 0.407 -9.663 2.332 -1.587 -0.824 1.129 -273.422 2704.238 -3087.089 -0.061 0.126 -0.104 -0.05 0.62 -0.78 0.03
1 1.61 161 0.388 -9.654 2.327 -1.221 -0.641 1.404 -483.435 2689.248 -3132.209 -0.042 0.117 -0.099 -0.05 0.62 -0.78 0.03
1 1.62 162 0.259 -9.678 2.260 -1.129 -0.824 1.129 -483.435 2689.248 -3132.209 0.087 0.141 -0.032 -0.05 0.62 -0.78 0.03
1 1.63 163 0.407 -9.702 2.413 -1.648 -0.549 1.129 -378.503 2899.261 -3192.170 -0.062 0.165 -0.185 -0.05 0.62 -0.78 0.03
1 1.64 164 0.441 -9.721 2.231 -1.465 -0.641 1.190 -543.396 2569.326 -3177.180 -0.095 0.184 -0.002 -0.05 0.62 -0.78 0.03
1 1.65 165 0.211 -9.639 2.299 -0.702 -1.129 1.007 -258.432 2884.271 -3207.161 0.135 0.103 -0.069 -0.05 0.62 -0.78 0.03
1 1.66 166 0.350 -9.601 2.198 -0.671 -0.946 1.129 -258.432 2884.271 -3207.161 -0.005 0.064 0.032 -0.05 0.62 -0.78 0.03
1 1.67 167 0.450 -9.548 2.337 -1.465 -0.305 0.793 -318.393 2749.209 -3117.219 -0.105 0.012 -0.107 -0.05 0.62 -0.78 0.03
1 1.68 168 0.383 -9.659 2.270 -1.648 -0.305 0.946 -498.425 2704.238 -3147.200 -0.038 0.122 -0.040 -0.05 0.62 -0.78 0.03
1 1.69 169 0.402 -9.548 2.346 -1.495 -0.519 1.068 -498.425 2704.238 -3147.200 -0.057 0.012 -0.116 -0.05 0.62 -0.78 0.03
1 1.70 170 0.359 -9.639 2.231 -1.465 -0.885 1.556 -258.432 2839.300 -3132.209 -0.013 0.103 -0.000 -0.05 0.62 -0.78 0.03
1 1.71 171 0.431 -9.706 2.342 -1.068 -0.549 0.946 -513.416 2644.277 -3057.108 -0.085 0.170 -0.110 -0.05 0.62 -0.78 0.03
1 1.72 172 0.335 -9.668 2.265 -1.587 -0.824 1.160 -423.474 2779.339 -3042.118 0.012 0.132 -0.033 -0.05 0.62 -0.78 0.03
1 1.73 173 0.340 -9.663 2.222 -1.709 -0.824 1.282 -423.474 2779.339 -3042.118 0.007 0.127 0.010 -0.05 0.62 -0.78 0.03
1 1.74 174 0.321 -9.620 2.212 -1.404 -1.404 1.282 -513.416 2689.248 -3102.079 0.026 0.084 0.019 -0.05 0.62 -0.78 0.03
1 1.75 175 0.364 -9.568 2.184 -1.434 -0.519 0.122 -378.503 2779.339 -3267.122 -0.017 0.031 0.047 -0.05 0.62 -0.78 0.03
1 1.76 176 0.412 -9.721 2.255 -0.885 -0.458 1.099 -378.503 2779.339 -3267.122 -0.064 0.184 -0.025 -0.05 0.62 -0.78 0.03
1 1.77 177 0.421 -9.783 2.184 -1.373 -1.129 0.580 -513.416 2689.248 -3132.209 -0.074 0.246 0.046 -0.05 0.62 -0.78 0.03
1 1.78 178 0.326 -9.682 2.217 -1.160 -1.160 0.641 -423.474 2749.209 -3192.170 0.022 0.146 0.012 -0.05 0.62 -0.78 0.03
1 1.79 179 0.455 -9.706 2.289 -0.641 -0.671 0.763 -318.393 2749.209 -3192.170 -0.108 0.170 -0.060 -0.05 0.62 -0.78 0.03
1 1.80 180 0.383 -9.592 2.188 -0.946 -0.885 1.038 -318.393 2749.209 -3192.170 -0.035 0.055 0.041 -0.05 0.62 -0.78 0.03
1 1.81 181 0.297 -9.678 2.212 -0.946 -1.312 0.824 -423.474 2584.316 -3147.200 0.052 0.141 0.017 -0.05 0.62 -0.78 0.03
1 1.82 182 0.321 -9.687 2.241 -1.404 -1.343 0.977 -543.396 2644.277 -3057.108 0.028 0.151 -0.012 -0.05 0.62 -0.78 0.03
1 1.83 183 0.321 -9.697 2.236 -1.770 -1.282 1.007 -543.396 2644.277 -3057.108 0.028 0.160 -0.007 -0.05 0.62 -0.78 0.04
1 1.84 184 0.263 -9.568 2.227 -0.549 -0.397 1.312 -453.455 2584.316 -3147.200 0.085 0.031 0.002 -0.05 0.62 -0.78 0.04
1 1.85 185 0.393 -9.659 2.179 -0.519 -0.458 1.099 -438.464 2689.248 -3237.141 -0.045 0.122 0.049 -0.05 0.62 -0.78 0.04
1 1.86 186 0.316 -9.692 2.184 -1.312 -1.038 0.824 -408.484 2794.330 -3057.108 0.032 0.155 0.045 -0.05 0.62 -0.78 0.04
1 1.87 187 0.359 -9.548 2.241 -1.892 -0.641 0.458 -408.484 2794.330 -3057.108 -0.011 0.011 -0.013 -0.05 0.62 -0.78 0.04
1 1.88 188 0.484 -9.793 2.318 -2.258 -0.977 1.251 -498.425 2824.310 -3267.122 -0.135 0.256 -0.090 -0.05 0.62 -0.78 0.04
1 1.89 189 0.460 -9.812 2.179 -1.617 -0.885 1.099 -288.412 2719.229 -3132.209 -0.111 0.274 0.048 -0.05 0.62 -0.78 0.04
1 1.90 190 0.383 -9.687 2.289 -0.275 -0.946 1.587 -288.412 2719.229 -3132.209 -0.035 0.150 -0.062 -0.05 0.62 -0.78 0.04
1 1.91 191 0.335 -9.668 2.366 -0.092 -0.580 1.556 -588.517 2794.330 -3237.141 0.013 0.131 -0.139 -0.05 0.62 -0.78 0.04
1 1.92 192 0.536 -9.702 2.255 -1.007 -0.610 1.465 -423.474 2749.209 -3087.089 -0.187 0.164 -0.028 -0.05 0.62 -0.78 0.04
1 1.93 193 0.436 -9.630 2.342 -0.885 -0.183 1.404 -438.464 2494.225 -3177.180 -0.086 0.093 -0.114 -0.05 0.62 -0.78 0.04
1 1.94 194 0.455 -9.659 2.346 -1.221 0.244 1.587 -438.464 2494.225 -3177.180 -0.104 0.122 -0.118 -0.05 0.62 -0.78 0.04
1 1.95 195 0.441 -9.625 2.270 -0.671 0.427 1.312 -378.503 2554.336 -3192.170 -0.090 0.088 -0.041 -0.05 0.62 -0.78 0.04
1 1.96 196 0.359 -9.635 2.275 -0.488 -0.031 0.641 -348.523 2704.238 -3147.200 -0.009 0.098 -0.046 -0.05 0.62 -0.78 0.04
1 1.97 197 0.431 -9.649 2.284 -0.427 0.061 0.183 -348.523 2704.238 -3147.200 -0.080 0.112 -0.056 -0.05 0.62 -0.78 0.04
1 1.98 198 0.335 -9.644 2.217 -0.702 0.092 0.763 -423.474 2674.258 -3087.089 0.016 0.107 0.011 -0.05 0.62 -0.78 0.04
1 1.99 199 0.407 -9.711 2.179 -0.824 1.465 1.373 -378.503 2704.238 -3222.151 -0.056 0.175 0.050 -0.05 0.62 -0.78 0.04
1 2.00 200 0.527 -9.793 2.227 -0.519 1.678 1.526 -543.396 2839.300 -3207.161 -0.176 0.256 0.002 -0.05 0.62 -0.78 0.04
1 2.01 201 0.488 -9.692 2.366 -0.275 1.099 1.099 -543.396 2839.300 -3207.161 -0.138 0.155 -0.136 -0.05 0.62 -0.78 0.04
1 2.02 202 0.335 -9.754 2.222 0.244 0.916 -0.092 -348.523 2674.258 -3042.118 0.015 0.218 0.008 -0.05 0.62 -0.78 0.03
1 2.03 203 0.402 -9.706 2.241 0.458 0.824 -0.610 -513.416 2794.330 -3177.180 -0.051 0.170 -0.009 -0.05 0.62 -0.78 0.03
1 2.04 204 0.230 -9.654 2.404 0.488 0.397 0.519 -513.416 2794.330 -3177.180 0.123 0.118 -0.170 -0.05 0.62 -0.78 0.03
1 2.05 205 0.350 -9.572 2.375 0.458 0.763 0.580 -423.474 2749.209 -3192.170 0.003 0.037 -0.139 -0.05 0.62 -0.78 0.03
1 2.06 206 0.354 -9.649 2.337 -0.488 0.305 0.366 -423.474 2749.209 -3192.170 -0.002 0.115 -0.098 -0.05 0.62 -0.78 0.03
1 2.07 207 0.407 -9.730 2.279 -0.244 0.488 0.732 -483.435 2719.229 -3177.180 -0.056 0.196 -0.039 -0.05 0.62 -0.78 0.03
1 2.08 208 0.417 -9.654 2.150 0.427 0.580 0.916 -483.435 2719.229 -3177.180 -0.066 0.120 0.091 -0.05 0.62 -0.78 0.03
1 2.09 209 0.393 -9.615 2.275 0.641 0.122 0.763 -498.425 2749.209 -3147.200 -0.041 0.082 -0.033 -0.05 0.62 -0.78 0.03
1 2.10 210 0.397 -9.601 2.342 0.000 0.519 1.312 -408.484 2689.248 -3177.180 -0.046 0.068 -0.098 -0.05 0.62 -0.78 0.03
1 2.11 211 0.378 -9.577 2.198 -1.038 0.519 0.793 -408.484 2689.248 -3177.180 -0.027 0.044 0.048 -0.05 0.62 -0.78 0.03
1 2.12 212 0.292 -9.702 2.169 -0.977 0.305 1.038 -423.474 2674.258 -3222.151 0.059 0.169 0.076 -0.05 0.62 -0.78 0.03
1 2.13 213 0.388 -9.687 2.346 -0.580 0.427 1.526 -423.474 2674.258 -3222.151 -0.038 0.154 -0.102 -0.05 0.62 -0.78 0.03
1 2.14 214 0.321 -9.663 2.236 0.610 -0.702 0.153 -378.503 2554.336 -3192.170 0.028 0.130 0.008 -0.05 0.62 -0.78 0.03
1 2.15 215 0.383 -9.659 2.308 -0.031 -0.519 0.793 -378.503 2554.336 -3192.170 -0.033 0.126 -0.062 -0.05 0.62 -0.78 0.03
1 2.16 216 0.292 -9.678 2.332 -0.427 -0.519 0.916 -408.484 2719.229 -3057.108 0.057 0.145 -0.086 -0.05 0.62 -0.78 0.03
1 2.17 217 0.206 -9.639 2.251 -0.641 -0.458 1.251 -333.533 2764.349 -3177.180 0.143 0.107 -0.004 -0.05 0.62 -0.78 0.03
1 2.18 218 0.306 -9.615 2.255 -1.038 -0.732 1.190 -333.533 2764.349 -3177.180 0.042 0.083 -0.009 -0.05 0.62 -0.78 0.03
1 2.19 219 0.345 -9.606 2.270 -0.732 -0.916 1.434 -483.435 2719.229 -3057.108 0.003 0.073 -0.023 -0.05 0.62 -0.78 0.03
1 2.20 220 0.397 -9.754 2.217 0.183 -0.885 0.580 -483.435 2719.229 -3057.108 -0.049 0.222 0.030 -0.05 0.62 -0.78 0.03
1 2.21 221 0.479 -9.697 2.327 -0.183 -0.458 0.519 -288.412 2764.349 -3177.180 -0.130 0.164 -0.081 -0.05 0.62 -0.78 0.03
1 2.22 222 0.402 -9.649 2.203 -0.092 -0.458 0.366 -288.412 2764.349 -3177.180 -0.052 0.117 0.044 -0.05 0.62 -0.78 0.03
1 2.23 223 0.407 -9.601 2.332 0.000 -0.153 1.221 -408.484 2539.346 -3207.161 -0.057 0.069 -0.085 -0.05 0.62 -0.78 0.03
1 2.24 224 0.484 -9.553 2.308 -0.153 -0.366 0.549 -318.393 2674.258 -3147.200 -0.133 0.021 -0.061 -0.05 0.62 -0.78 0.03
1 2.25 225 0.354 -9.587 2.366 -0.183 -0.519 0.366 -318.393 2674.258 -3147.200 -0.004 0.055 -0.118 -0.05 0.62 -0.78 0.03
1 2.26 226 0.493 -9.682 2.394 0.854 -1.007 0.244 -333.533 2719.229 -3132.209 -0.142 0.150 -0.146 -0.05 0.62 -0.78 0.03
1 2.27 227 0.441 -9.548 2.303 0.549 -0.397 -0.519 -333.533 2719.229 -3132.209 -0.087 0.017 -0.052 -0.05 0.62 -0.78 0.03
1 2.28 228 0.484 -9.702 2.399 0.977 -1.068 -1.251 -453.455 2749.209 -3222.151 -0.124 0.172 -0.142 -0.05 0.62 -0.78 0.03
1 2.29 229 0.508 -9.773 2.385 1.678 -1.312 -1.617 -453.455 2749.209 -3222.151 -0.143 0.245 -0.124 -0.05 0.62 -0.78 0.03
1 2.30 230 0.560 -9.620 2.428 3.265 -2.655 -1.251 -423.474 2629.287 -3087.089 -0.192 0.093 -0.162 -0.05 0.62 -0.78 0.03
1 2.31 231 0.508 -9.539 2.500 3.662 -3.784 -1.282 -378.503 2749.209 -3342.223 -0.134 0.013 -0.227 -0.05 0.62 -0.78 0.03
1 2.32 232 0.651 -9.611 2.557 4.669 -4.150 -2.228 -378.503 2749.209 -3342.223 -0.272 0.087 -0.276 -0.05 0.62 -0.78 0.03
1 2.33 233 0.613 -9.558 2.452 4.852 -5.157 -3.937 -348.523 2779.339 -3192.170 -0.225 0.037 -0.162 -0.05 0.62 -0.78 0.03
1 2.34 234 0.546 -9.673 2.624 5.127 -5.768 -5.066 -348.523 2779.339 -3192.170 -0.148 0.155 -0.324 -0.05 0.62 -0.79 0.03
1 2.35 235 0.560 -9.606 2.591 5.829 -6.775 -4.822 -453.455 2704.238 -3267.122 -0.151 0.091 -0.281 -0.05 0.62 -0.79 0.03
1 2.36 236 0.680 -9.759 2.471 8.606 -7.111 -2.899 -333.533 2764.349 -3132.209 -0.249 0.250 -0.139 -0.05 0.61 -0.79 0.03
1 2.37 237 0.776 -9.620 2.457 9.369 -8.209 -1.923 -423.474 2584.316 -3192.170 -0.335 0.115 -0.110 -0.05 0.61 -0.79 0.03
1 2.38 238 0.838 -9.592 2.457 8.759 -7.172 -1.495 -378.503 2779.339 -3192.170 -0.388 0.091 -0.095 -0.05 0.61 -0.79 0.03
1 2.39 239 0.982 -9.462 2.490 8.240 -6.866 -0.946 -378.503 2779.339 -3192.170 -0.522 -0.034 -0.115 -0.06 0.61 -0.79 0.03
1 2.40 240 1.235 -9.328 2.294 8.637 -7.965 1.373 -408.484 2614.297 -3177.180 -0.768 -0.165 0.094 -0.06 0.61 -0.79 0.03
1 2.41 241 1.451 -9.151 2.327 8.789 -8.484 1.038 -408.484 2614.297 -3177.180 -0.977 -0.338 0.074 -0.06 0.61 -0.79 0.03
1 2.42 242 1.662 -9.242 2.265 7.324 -7.202 0.458 -453.455 2704.238 -3147.200 -1.178 -0.244 0.149 -0.06 0.61 -0.79 0.03
1 2.43 243 1.403 -9.295 2.212 2.655 -1.892 1.709 -438.464 2569.326 -3207.161 -0.898 -0.185 0.221 -0.06 0.61 -0.79 0.03
1 2.44 244 1.312 -9.433 2.246 1.068 0.153 3.662 -423.474 2629.287 -3222.151 -0.802 -0.045 0.191 -0.06 0.61 -0.79 0.03
1 2.45 245 1.288 -9.515 2.212 0.763 -0.183 3.326 -438.464 2689.248 -3282.112 -0.775 0.037 0.225 -0.06 0.61 -0.79 0.03
1 2.46 246 1.427 -9.783 2.160 0.854 -0.732 3.326 -438.464 2689.248 -3282.112 -0.911 0.305 0.279 -0.06 0.61 -0.79 0.03
1 2.47 247 1.638 -9.860 2.222 -1.160 -0.702 4.425 -528.406 2824.310 -3192.170 -1.119 0.382 0.216 -0.06 0.61 -0.79 0.03
1 2.48 248 1.738 -9.912 2.519 -0.610 4.486 3.967 -528.406 2824.310 -3192.170 -1.218 0.434 -0.084 -0.06 0.61 -0.79 0.03
1 2.49 249 1.437 -10.027 2.351 -0.885 9.125 3.326 -543.396 2539.346 -3282.112 -0.913 0.549 0.082 -0.06 0.61 -0.79 0.03
1 2.50 250 1.034 -10.204 2.227 -1.099 10.681 2.441 -498.425 2584.316 -3342.223 -0.510 0.726 0.207 -0.06 0.61 -0.79 0.03
1 2.51 251 0.958 -10.046 2.318 1.495 8.148 0.916 -318.393 2584.316 -3222.151 -0.437 0.567 0.114 -0.06 0.61 -0.79 0.03
1 2.52 252 1.101 -10.090 2.423 4.059 8.209 1.160 -423.474 2749.209 -3267.122 -0.581 0.611 0.011 -0.06 0.61 -0.79 0.03
1 2.53 253 1.183 -9.970 2.959 5.859 10.895 2.411 -423.474 2749.209 -3267.122 -0.663 0.493 -0.519 -0.06 0.61 -0.79 0.03
1 2.54 254 1.183 -9.793 3.022 7.202 14.587 3.479 -363.513 2719.229 -3102.079 -0.665 0.319 -0.568 -0.06 0.61 -0.79 0.03
1 2.55 255 1.125 -9.592 2.988 7.233 18.372 4.791 -363.513 2719.229 -3102.079 -0.614 0.121 -0.519 -0.05 0.61 -0.79 0.03
1 2.56 256 0.881 -9.520 2.883 7.660 18.066 3.418 -408.484 2614.297 -3282.112 -0.378 0.053 -0.398 -0.05 0.61 -0.79 0.03
1 2.57 257 0.742 -9.457 2.978 9.277 18.555 2.472 -408.484 2764.349 -3387.193 -0.247 -0.005 -0.477 -0.05 0.61 -0.79 0.03
1 2.58 258 0.608 -9.261 3.012 9.094 19.074 0.946 -573.526 2674.258 -3297.102 -0.126 -0.192 -0.474 -0.05 0.61 -0.79 0.02
1 2.59 259 0.560 -9.208 3.022 8.209 19.623 -1.099 -408.484 2569.326 -3357.213 -0.085 -0.240 -0.465 -0.05 0.61 -0.79 0.02
1 2.60 260 0.603 -9.405 2.916 7.019 21.057 -2.167 -408.484 2569.326 -3357.213 -0.132 -0.039 -0.342 -0.05 0.61 -0.79 0.02
1 2.61 261 0.421 -9.410 3.002 6.866 21.698 -3.510 -363.513 2644.277 -3237.141 0.047 -0.030 -0.413 -0.05 0.6 -0.79 0.02
1 2.62 262 0.077 -9.510 3.026 6.073 22.278 -3.632 -363.513 2644.277 -3237.141 0.390 0.074 -0.422 -0.05 0.6 -0.8 0.02
1 2.63 263 -0.374 -9.553 2.935 6.378 23.377 -2.045 -273.422 2674.258 -3192.170 0.835 0.121 -0.316 -0.04 0.6 -0.8 0.02
1 2.64 264 -0.570 -9.563 2.950 7.477 23.102 -1.099 -318.393 2629.287 -3117.219 1.023 0.134 -0.315 -0.04 0.6 -0.8 0.02
1 2.65 265 -0.723 -9.587 2.849 8.179 19.226 0.183 -333.533 2644.277 -3312.092 1.147 0.166 -0.184 -0.04 0.6 -0.8 0.02
1 2.66 266 -0.694 -9.433 2.763 8.972 17.090 1.373 -348.523 2509.215 -3192.170 1.103 0.016 -0.081 -0.04 0.6 -0.8 0.02
1 2.67 267 -0.594 -9.319 2.653 8.972 15.289 1.709 -348.523 2509.215 -3192.170 0.986 -0.095 0.045 -0.04 0.6 -0.8 0.01
1 2.68 268 -0.421 -9.151 2.701 10.010 14.587 2.441 -198.471 2584.316 -3402.184 0.798 -0.258 0.012 -0.03 0.6 -0.8 0.01
1 2.69 269 -0.230 -9.280 2.615 9.827 15.015 1.343 -198.471 2584.316 -3402.184 0.591 -0.125 0.115 -0.03 0.6 -0.8 0.01
1 2.70 270 0.024 -9.333 2.605 6.683 14.160 0.488 -378.503 2554.336 -3267.122 0.326 -0.069 0.139 -0.03 0.6 -0.8 0.01
1 2.71 271 -0.115 -9.319 2.466 5.035 14.191 0.183 -273.422 2509.215 -3117.219 0.455 -0.080 0.289 -0.03 0.6 -0.8 0.01
1 2.72 272 -0.254 -9.424 2.351 4.517 14.008 -1.221 -183.480 2419.274 -3282.112 0.580 0.029 0.419 -0.03 0.6 -0.8 0.01
1 2.73 273 -0.225 -9.592 2.322 5.341 14.435 -2.075 -288.412 2614.297 -3387.193 0.545 0.198 0.454 -0.03 0.6 -0.8 0.01
1 2.74 274 -0.421 -9.505 2.404 7.660 13.916 -3.235 -288.412 2614.297 -3387.193 0.735 0.114 0.381 -0.03 0.6 -0.8 0.01
1 2.75 275 -0.436 -9.343 2.399 9.583 11.963 -4.578 -168.490 2509.215 -3342.223 0.745 -0.045 0.396 -0.03 0.6 -0.8 0.01
1 2.76 276 -0.397 -9.371 2.457 9.369 9.094 -5.646 -168.490 2509.215 -3342.223 0.705 -0.013 0.351 -0.03 0.6 -0.8 0.01
1 2.77 277 -0.254 -9.453 2.610 7.477 5.219 -6.683 -363.513 2569.326 -3432.164 0.561 0.072 0.210 -0.03 0.6 -0.8 0.01
1 2.78 278 -0.096 -9.381 2.801 7.385 4.150 -7.233 -258.432 2614.297 -3237.141 0.407 0.004 0.029 -0.03 0.6 -0.8 0.01
1 2.79 279 -0.134 -9.357 2.806 7.629 3.174 -7.080 -258.432 2614.297 -3237.141 0.451 -0.017 0.036 -0.03 0.6 -0.8 0.01
1 2.80 280 0.182 -9.218 2.820 8.545 0.061 -7.141 -258.432 2464.245 -3282.112 0.150 -0.148 0.046 -0.03 0.59 -0.8 0.01
1 2.81 281 0.311 -9.366 2.854 7.751 -2.167 -7.507 -258.432 2464.245 -3282.112 0.032 0.005 0.025 -0.03 0.59 -0.8 0.01
1 2.82 282 0.383 -9.453 2.935 5.127 -2.533 -7.172 -33.428 2644.277 -3312.092 -0.028 0.095 -0.045 -0.03 0.59 -0.8 0.01
1 2.83 283 0.287 -9.429 2.720 2.686 -1.587 -6.104 -33.428 2644.277 -3312.092 0.079 0.074 0.178 -0.03 0.59 -0.8 0
1 2.84 284 0.067 -9.510 2.797 4.059 -1.709 -4.608 -213.461 2539.346 -3312.092 0.310 0.157 0.106 -0.03 0.59 -0.81 0
1 2.85 285 0.134 -9.539 2.806 5.951 -3.815 -4.120 -318.393 2554.336 -3402.184 0.251 0.188 0.101 -0.03 0.59 -0.81 0
1 2.86 286 0.043 -9.510 2.825 7.233 -5.524 -4.028 -318.393 2554.336 -3402.184 0.349 0.162 0.089 -0.03 0.59 -0.81 0
1 2.87 287 0.374 -9.328 2.849 8.057 -6.531 -1.221 -243.441 2629.287 -3552.086 0.031 -0.013 0.085 -0.03 0.59 -0.81 0
1 2.88 288 0.838 -9.323 2.763 7.446 -6.012 0.336 -243.441 2629.287 -3552.086 -0.429 -0.015 0.182 -0.03 0.59 -0.81 0
1 2.89 289 1.082 -9.266 2.993 4.822 -5.096 0.458 -348.523 2479.235 -3147.200 -0.667 -0.069 -0.038 -0.03 0.59 -0.81 0
1 2.90 290 1.188 -9.386 2.921 2.533 -3.326 0.153 -348.523 2479.235 -3147.200 -0.765 0.053 0.040 -0.03 0.59 -0.81 0
1 2.91 291 1.259 -9.390 2.921 1.556 -2.014 -0.946 -198.471 2479.235 -3447.154 -0.829 0.060 0.044 -0.03 0.59 -0.81 0
1 2.92 292 1.307 -9.376 2.945 3.448 -1.343 -0.549 -198.471 2434.264 -3402.184 -0.867 0.047 0.023 -0.03 0.59 -0.81 0
1 2.93 293 1.240 -9.333 3.017 1.282 -0.763 -1.434 -198.471 2434.264 -3402.184 -0.791 0.006 -0.043 -0.03 0.59 -0.81 0
1 2.94 294 1.197 -9.314 2.840 0.183 0.824 -1.404 -288.712 2343.423 -3314.191 -0.739 -0.012 0.137 -0.03 0.59 -0.81 0
1 2.95 295 1.192 -9.314 2.840 -1.282 0.854 -1.251 -348.673 2478.485 -3344.171 -0.719 -0.011 0.138 -0.03 0.59 -0.81 0
1 2.96 296 1.097 -9.232 2.720 -1.465 0.519 -0.824 -363.663 2538.446 -3434.113 -0.616 -0.092 0.257 -0.03 0.59 -0.81 0
1 2.97 297 1.111 -9.252 2.753 -3.510 1.495 0.366 -363.663 2538.446 -3434.113 -0.624 -0.074 0.220 -0.03 0.59 -0.81 0
1 2.98 298 1.082 -9.319 2.835 -5.951 2.899 2.533 -333.683 2613.397 -3389.142 -0.591 -0.009 0.132 -0.03 0.59 -0.81 0
1 2.99 299 0.867 -9.419 2.648 -7.050 3.662 3.998 -138.660 2493.476 -3389.142 -0.375 0.089 0.309 -0.03 0.59 -0.81 0
1 3.00 300 0.939 -9.429 2.797 -6.958 4.089 3.540 -138.660 2493.476 -3389.142 -0.449 0.095 0.151 -0.03 0.59 -0.81 0
1 3.01 301 0.895 -9.486 2.706 -6.531 3.143 2.655 -318.692 2508.466 -3479.083 -0.408 0.149 0.231 -0.03 0.59 -0.81 0
1 3.02 302 1.034 -9.592 2.935 -7.874 3.143 0.824 -213.761 2568.427 -3494.224 -0.547 0.249 -0.018 -0.03 0.59 -0.81 0
1 3.03 303 0.948 -9.568 2.931 -9.430 3.998 -0.671 -243.741 2553.437 -3449.103 -0.458 0.221 -0.025 -0.03 0.59 -0.81 0
1 3.04 304 0.934 -9.874 2.591 -10.284 5.280 -1.984 -243.741 2553.437 -3449.103 -0.440 0.524 0.303 0.03 -0.59 0.8 0
1 3.05 305 0.886 -9.884 2.715 -9.033 6.348 -2.502 -258.731 2538.446 -3389.142 -0.387 0.529 0.163 0.03 -0.59 0.8 0
1 3.06 306 0.752 -9.888 2.777 -8.759 6.928 -2.075 -183.630 2493.476 -3494.224 -0.248 0.530 0.087 0.03 -0.59 0.8 0
1 3.07 307 0.460 -9.860 2.888 -10.193 7.904 -0.214 -183.630 2493.476 -3494.224 0.047 0.497 -0.037 0.03 -0.59 0.8 0
1 3.08 308 0.196 -9.778 2.643 -11.322 9.491 1.343 -318.692 2478.485 -3449.103 0.310 0.412 0.194 0.03 -0.6 0.8 0
1 3.09 309 -0.220 -9.893 2.710 -10.162 8.453 3.082 -213.761 2613.397 -3464.093 0.712 0.517 0.096 0.03 -0.6 0.8 0
1 3.10 310 -0.235 -9.893 2.729 -8.026 6.256 4.334 -138.660 2538.446 -3434.113 0.715 0.512 0.063 0.03 -0.6 0.8 0
1 3.11 311 -0.196 -9.841 2.615 -6.195 4.486 5.981 -138.660 2538.446 -3434.113 0.664 0.455 0.168 0.03 -0.6 0.8 0
1 3.12 312 -0.115 -9.740 2.729 -5.493 3.143 7.538 -108.679 2463.495 -3434.113 0.568 0.352 0.045 0.03 -0.6 0.8 0
1 3.13 313 0.196 -9.510 2.725 -6.531 3.540 10.071 -123.669 2583.417 -3449.103 0.240 0.119 0.042 0.03 -0.6 0.8 0
1 3.14 314 0.086 -9.663 2.725 -10.956 3.937 12.054 -123.669 2583.417 -3449.103 0.332 0.268 0.032 0.02 -0.6 0.8 0
1 3.15 315 0.038 -9.750 2.902 -13.367 4.944 13.580 -333.683 2613.397 -3284.210 0.360 0.350 -0.159 0.02 -0.6 0.8 0
1 3.16 316 -0.182 -9.721 2.993 -11.902 5.585 14.832 -198.771 2508.466 -3194.119 0.532 0.309 -0.283 0.02 -0.6 0.8 0
1 3.17 317 -0.330 -9.625 2.988 -9.827 5.829 15.320 -123.669 2583.417 -3449.103 0.654 0.209 -0.292 0.02 -0.6 0.8 0
1 3.18 318 -0.555 -9.577 2.777 -8.575 4.517 15.350 -123.669 2583.417 -3449.103 0.851 0.157 -0.091 -0.02 0.6 -0.8 0
1 3.19 319 -0.680 -9.414 2.749 -10.101 3.723 15.533 -213.761 2493.476 -3359.162 0.946 -0.010 -0.073 -0.02 0.6 -0.8 0
1 3.20 320 -0.809 -9.386 2.768 -11.902 2.533 15.717 -273.722 2508.466 -3224.100 1.045 -0.043 -0.106 -0.02 0.6 -0.8 0
1 3.21 321 -0.872 -9.228 2.639 -12.726 1.434 15.564 -273.722 2508.466 -3224.100 1.076 -0.206 0.007 -0.02 0.6 -0.8 0
1 3.22 322 -0.872 -9.275 2.639 -10.529 -0.732 15.320 -138.660 2493.476 -3284.210 1.046 -0.164 -0.009 -0.01 0.6 -0.8 0
1 3.23 323 -0.972 -9.137 2.480 -8.850 -3.326 13.947 -183.630 2613.397 -3239.090 1.118 -0.307 0.134 -0.01 0.61 -0.8 0.01
1 3.24 324 -0.709 -9.309 2.562 -9.705 -6.439 13.458 -198.771 2553.437 -3194.119 0.805 -0.142 0.028 -0.01 0.61 -0.8 0.01
1 3.25 325 -0.484 -9.453 2.710 -10.651 -6.409 12.848 -198.771 2553.437 -3194.119 0.558 -0.002 -0.134 -0.01 0.61 -0.79 0.01
1 3.26 326 -0.374 -9.462 2.619 -9.125 -4.913 13.275 -108.679 2688.499 -3284.210 0.428 0.003 -0.057 -0.01 0.61 -0.79 0.01
1 3.27 327 -0.354 -9.625 2.806 -6.134 -3.082 13.153 26.083 2673.508 -3269.220 0.389 0.163 -0.254 -0.01 0.61 -0.79 0.01
1 3.28 328 -0.378 -9.754 2.667 -0.610 -0.824 11.810 26.083 2673.508 -3269.220 0.393 0.291 -0.121 -0.01 0.61 -0.79 0.01
1 3.29 329 -0.460 -9.654 2.629 -0.336 -1.678 14.130 -108.679 2688.499 -3239.090 0.456 0.190 -0.082 -0.01 0.61 -0.79 0.01
1 3.30 330 -0.412 -9.419 2.653 -1.801 -4.639 13.336 -48.718 2583.417 -3374.152 0.387 -0.044 -0.105 -0.01 0.61 -0.79 0.01
1 3.31 331 -0.239 -9.510 2.667 -5.219 -4.486 11.627 -78.699 2643.378 -3239.090 0.177 0.046 -0.123 -0.01 0.61 -0.79 0.02
1 3.32 332 -0.115 -9.534 2.658 -6.256 -2.350 10.620 -78.699 2643.378 -3239.090 0.037 0.069 -0.119 -0.01 0.61 -0.79 0.02
1 3.33 333 -0.263 -9.343 2.557 -5.188 0.397 9.796 56.213 2778.290 -3119.917 0.172 -0.124 -0.026 -0.01 0.61 -0.79 0.02
1 3.34 334 -0.220 -9.572 2.571 -5.005 1.801 8.820 -243.591 2628.388 -3224.999 0.115 0.104 -0.046 -0.01 0.61 -0.79 0.02
1 3.35 335 -0.374 -9.539 2.394 -6.500 1.892 8.392 -243.591 2628.388 -3224.999 0.255 0.069 0.124 -0.01 0.61 -0.79 0.02
1 3.36 336 -0.354 -9.596 2.275 -7.172 1.282 6.622 -33.728 2568.277 -3135.058 0.224 0.124 0.235 -0.01 0.61 -0.79 0.02
1 3.37 337 -0.374 -9.510 2.164 -5.646 2.014 5.707 -123.669 2703.339 -3195.019 0.232 0.035 0.333 -0.01 0.61 -0.79 0.02
1 3.38 338 -0.407 -9.544 2.126 -4.913 2.655 5.646 -123.669 2703.339 -3195.019 0.256 0.066 0.362 -0.01 0.61 -0.79 0.02
1 3.39 339 -0.383 -9.635 2.078 -5.615 2.533 4.517 -18.588 2703.339 -3405.032 0.215 0.153 0.392 -0 0.61 -0.79 0.02
1 3.40 340 -0.378 -9.778 2.241 -6.409 2.777 4.303 -33.728 2643.378 -3135.058 0.202 0.294 0.219 -0 0.61 -0.79 0.02
1 3.41 341 -0.493 -9.711 2.117 -5.280 2.472 4.456 -33.728 2568.277 -3180.028 0.309 0.224 0.332 -0 0.61 -0.79 0.02
1 3.42 342 -0.421 -9.563 1.906 -4.517 3.021 5.280 -33.728 2568.277 -3180.028 0.229 0.073 0.534 -0 0.61 -0.79 0.02
1 3.43 343 -0.546 -9.635 1.714 -4.242 2.655 4.242 26.233 2628.388 -3195.019 0.344 0.143 0.717 -0 0.61 -0.79 0.02
1 3.44 344 -0.536 -9.654 1.729 -5.585 2.014 4.150 -93.689 2748.310 -3299.950 0.325 0.160 0.694 -0 0.61 -0.79 0.02
1 3.45 345 -0.709 -9.496 1.772 -6.836 1.282 3.113 -93.689 2748.310 -3299.950 0.490 -0.000 0.639 -0 0.61 -0.79 0.02
1 3.46 346 -0.737 -9.620 1.796 -7.782 0.061 1.831 -48.718 2673.358 -3224.999 0.505 0.118 0.588 -0 0.62 -0.79 0.02
1 3.47 347 -0.723 -9.587 1.690 -6.683 -0.885 2.014 -3.598 2568.277 -3180.028 0.485 0.080 0.679 -0 0.62 -0.79 0.02
1 3.48 348 -0.704 -9.457 1.738 -6.104 -1.617 1.862 -123.669 2748.310 -3269.970 0.461 -0.052 0.618 -0 0.62 -0.79 0.02
1 3.49 349 -0.618 -9.457 1.590 -6.500 -2.594 1.282 -123.669 2748.310 -3269.970 0.371 -0.055 0.755 -0 0.62 -0.79 0.02
1 3.50 350 -0.536 -9.352 1.604 -7.538 -2.747 0.458 -18.588 2673.358 -3269.970 0.287 -0.163 0.727 -0 0.62 -0.79 0.02
1 3.51 351 -0.508 -9.194 1.461 -9.338 -3.387 -0.519 -18.588 2703.339 -3089.937 0.258 -0.325 0.855 -0 0.62 -0.79 0.02
1 3.52 352 -0.460 -9.199 1.647 -10.284 -3.174 -1.892 -18.588 2703.339 -3089.937 0.211 -0.324 0.652 -0 0.62 -0.79 0.02
1 3.53 353 -0.374 -9.252 1.642 -11.414 -4.089 -3.540 -93.689 2778.290 -3269.970 0.133 -0.281 0.619 -0 0.62 -0.78 0.02
1 3.54 354 -0.445 -9.295 1.609 -12.207 -4.334 -4.486 26.233 2748.310 -3150.048 0.212 -0.243 0.633 -0 0.62 -0.78 0.02
1 3.55 355 -0.479 -9.419 1.666 -13.763 -3.906 -5.829 56.213 2628.388 -3089.937 0.253 -0.123 0.554 -0 0.62 -0.78 0.02
1 3.56 356 -0.417 -9.544 1.753 -14.160 -4.883 -6.134 56.213 2628.388 -3089.937 0.200 -0.004 0.445 -0 0.62 -0.78 0.02
1 3.57 357 -0.436 -9.548 1.729 -13.947 -5.432 -6.531 -48.718 2703.339 -3089.937 0.229 -0.005 0.446 -0 0.62 -0.78 0.02
1 3.58 358 -0.393 -9.553 1.743 -12.024 -5.859 -7.629 -168.640 2703.339 -3089.937 0.198 -0.005 0.409 -0 0.62 -0.78 0.02
1 3.59 359 -0.316 -9.529 1.705 -11.536 -6.409 -8.453 -168.640 2703.339 -3089.937 0.134 -0.034 0.427 -0 0.63 -0.78 0.02
1 3.60 360 -0.254 -9.582 1.666 -11.047 -6.989 -9.094 -243.591 2898.362 -3044.966 0.101 0.010 0.429 -0.01 0.63 -0.78 0.02
1 3.61 361 -0.316 -9.539 1.619 -11.414 -6.653 -8.698 -78.699 2763.300 -3104.927 0.178 -0.038 0.458 -0.01 0.63 -0.78 0.02
1 3.62 362 -0.235 -9.534 1.604 -12.604 -6.989 -10.925 -78.699 2763.300 -3029.976 0.113 -0.047 0.453 -0.01 0.63 -0.78 0.02
1 3.63 363 -0.235 -9.615 1.518 -13.001 -5.676 -11.566 -78.699 2763.300 -3029.976 0.132 0.030 0.519 -0.01 0.63 -0.78 0.02
1 3.64 364 -0.220 -9.711 1.695 -12.848 -6.195 -11.383 -48.718 2778.290 -3044.966 0.136 0.121 0.320 -0.01 0.63 -0.78 0.02
1 3.65 365 -0.287 -9.893 1.676 -10.742 -5.676 -11.993 -168.640 2748.310 -2970.015 0.221 0.299 0.320 -0.01 0.63 -0.78 0.02
1 3.66 366 -0.101 -10.137 1.666 -8.087 -5.524 -11.932 -168.640 2748.310 -2970.015 0.053 0.539 0.311 -0.01 0.63 -0.77 0.02
1 3.67 367 -0.383 -10.042 1.690 -5.920 -5.615 -11.841 26.233 2823.411 -3195.019 0.354 0.440 0.272 -0.01 0.63 -0.77 0.02
1 3.68 368 -0.436 -10.094 1.757 -6.409 -6.287 -11.841 -138.660 2793.280 -3210.009 0.443 0.488 0.183 -0.01 0.63 -0.77 0.02
1 3.69 369 -0.345 -9.975 1.657 -6.714 -6.195 -10.956 -213.611 2688.349 -3059.957 0.369 0.367 0.273 -0.02 0.63 -0.77 0.02
1 3.70 370 -0.215 -10.013 1.609 -5.615 -7.324 -9.796 -213.611 2688.349 -3059.957 0.256 0.403 0.310 -0.02 0.63 -0.77 0.02
1 3.71 371 -0.096 -9.903 1.470 -4.395 -8.179 -8.881 -93.689 2853.391 -3119.917 0.151 0.291 0.440 -0.02 0.63 -0.77 0.02
1 3.72 372 -0.096 -9.970 1.647 -3.784 -8.789 -8.942 -123.669 2703.339 -3014.986 0.165 0.356 0.254 -0.02 0.63 -0.77 0.02
1 3.73 373 0.053 -9.864 1.609 -4.181 -8.026 -8.270 -123.669 2703.339 -3014.986 0.032 0.250 0.285 -0.02 0.63 -0.77 0.02
1 3.74 374 -0.125 -9.912 1.499 -2.716 -7.538 -7.111 -243.591 2778.290 -3044.966 0.225 0.296 0.388 -0.02 0.64 -0.77 0.02
1 3.75 375 -0.005 -9.955 1.293 -0.244 -7.782 -7.385 -138.660 2883.372 -3029.976 0.131 0.337 0.583 -0.02 0.64 -0.77 0.02
1 3.76 376 -0.067 -9.917 1.293 -0.641 -7.904 -6.561 -243.591 2898.362 -3014.986 0.205 0.299 0.579 -0.02 0.64 -0.77 0.02
1 3.77 377 -0.110 -10.042 1.403 -1.801 -7.202 -7.141 -243.591 2898.362 -3014.986 0.261 0.422 0.464 -0.02 0.64 -0.77 0.02
1 3.78 378 -0.235 -9.984 1.331 -3.052 -5.463 -7.416 -168.640 2748.310 -3119.917 0.398 0.364 0.530 -0.02 0.64 -0.77 0.02
1 3.79 379 -0.316 -10.027 1.245 -2.380 -5.096 -7.141 -288.712 2643.378 -3104.927 0.490 0.406 0.608 -0.02 0.64 -0.77 0.02
1 3.80 380 -0.546 -10.027 1.154 0.793 -6.165 -7.233 -288.712 2643.378 -3104.927 0.729 0.405 0.693 -0.02 0.64 -0.77 0.02
1 3.81 381 -0.685 -10.118 1.202 2.380 -8.514 -7.813 -318.692 2898.362 -3014.986 0.877 0.495 0.640 -0.03 0.64 -0.77 0.02
1 3.82 382 -0.781 -10.085 1.125 2.991 -9.857 -7.172 -318.692 2898.362 -3014.986 0.981 0.461 0.715 -0.03 0.64 -0.77 0.02
1 3.83 383 -0.690 -10.022 1.130 4.578 -11.322 -7.965 -288.712 2838.401 -3059.957 0.906 0.399 0.710 -0.03 0.64 -0.77 0.02
1 3.84 384 -0.599 -10.176 1.250 4.547 -11.871 -8.484 -288.712 2838.401 -3059.957 0.824 0.553 0.592 -0.03 0.64 -0.77 0.02
1 3.85 385 -0.642 -10.262 1.288 4.303 -12.116 -7.874 -288.712 2883.372 -3104.927 0.877 0.640 0.556 -0.03 0.64 -0.77 0.02
1 3.86 386 -0.479 -10.238 1.207 5.920 -13.367 -8.728 -288.712 2688.349 -3104.927 0.724 0.617 0.640 -0.03 0.64 -0.77 0.02
1 3.87 387 -0.603 -10.109 1.302 7.751 -14.069 -9.308 -288.712 2688.349 -3104.927 0.861 0.489 0.549 -0.03 0.64 -0.77 0.02
1 3.88 388 -0.618 -10.022 1.365 8.392 -15.167 -9.491 -258.582 2688.349 -3210.009 0.888 0.404 0.494 -0.03 0.64 -0.77 0.02
1 3.89 389 -0.551 -9.960 1.274 7.721 -15.686 -10.040 -258.582 2688.349 -3210.009 0.835 0.344 0.592 -0.03 0.64 -0.77 0.02
1 3.90 390 -0.426 -10.080 1.015 7.874 -16.480 -8.453 -378.803 2748.310 -3090.537 0.739 0.467 0.865 -0.04 0.63 -0.77 0.02
1 3.91 391 -0.503 -10.181 1.053 9.583 -17.120 -8.087 -378.803 2748.310 -3090.537 0.827 0.569 0.833 -0.04 0.63 -0.77 0.02
1 3.92 392 -0.254 -10.123 1.298 10.681 -18.585 -7.538 -483.735 2718.329 -3105.527 0.589 0.514 0.596 -0.04 0.63 -0.77 0.02
1 3.93 393 -0.081 -10.147 1.365 10.071 -18.341 -7.599 -408.784 2883.372 -3210.458 0.430 0.540 0.539 -0.04 0.63 -0.77 0.02
1 3.94 394 0.105 -10.348 1.652 9.308 -19.013 -6.958 -408.784 2883.372 -3210.458 0.257 0.744 0.262 -0.04 0.63 -0.77 0.02
1 3.95 395 0.498 -11.042 2.370 5.981 -22.217 -2.228 -363.813 2718.329 -3135.507 -0.122 1.441 -0.446 -0.04 0.63 -0.77 0.02
1 3.96 396 1.053 -11.722 2.715 1.465 -22.156 2.075 -363.813 2718.329 -3135.507 -0.665 2.123 -0.781 -0.04 0.63 -0.77 0.02
1 3.97 397 1.801 -12.096 2.926 5.493 -12.909 9.979 -378.803 2778.290 -3090.537 -1.407 2.498 -0.986 -0.05 0.63 -0.77 0.02
1 3.98 398 1.992 -11.818 2.797 17.944 -1.801 12.726 -378.803 2778.290 -3090.537 -1.610 2.222 -0.844 -0.05 0.63 -0.77 0.03
1 3.99 399 1.547 -11.047 2.433 27.863 8.667 12.756 -498.875 2823.411 -3120.517 -1.182 1.457 -0.448 -0.05 0.63 -0.77 0.03
1 4.00 400 0.824 -10.358 2.179 25.726 14.832 9.338 -408.784 2718.329 -3180.478 -0.479 0.776 -0.152 -0.04 0.63 -0.78 0.03
1 4.01 401 -0.101 -10.238 1.839 15.503 16.419 3.876 -408.784 2718.329 -3180.478 0.431 0.663 0.225 -0.04 0.63 -0.78 0.03
1 4.02 402 -0.996 -10.353 1.705 -0.214 9.888 -2.228 -573.826 2748.310 -2940.484 1.318 0.782 0.376 -0.04 0.63 -0.78 0.03
1 4.03 403 -1.125 -10.544 1.652 -1.221 4.059 -3.021 -573.826 2748.310 -2940.484 1.439 0.973 0.430 -0.04 0.63 -0.78 0.03
1 4.04 404 -0.718 -10.544 1.604 10.834 -2.808 -1.404 -453.754 2673.358 -3120.517 1.020 0.972 0.474 -0.04 0.63 -0.78 0.03
1 4.05 405 -0.546 -10.262 1.662 15.442 -3.448 0.092 -453.754 2673.358 -3120.517 0.846 0.693 0.434 -0.04 0.63 -0.78 0.03
1 4.06 406 -0.024 -9.668 1.901 24.323 -1.831 2.319 -363.813 2763.300 -3060.556 0.320 0.106 0.223 -0.04 0.62 -0.78 0.03
1 4.07 407 0.091 -9.419 2.045 22.308 0.519 2.106 -588.816 2493.326 -3180.478 0.200 -0.136 0.115 -0.04 0.62 -0.78 0.03
1 4.08 408 0.215 -9.568 2.251 9.552 -0.488 3.815 -589.416 2492.876 -3182.127 0.072 0.020 -0.061 -0.04 0.62 -0.78 0.03
1 4.09 409 0.278 -9.333 2.322 4.974 -0.763 4.425 -514.315 2717.879 -3032.225 0.005 -0.211 -0.114 -0.04 0.62 -0.78 0.03
1 4.10 410 0.551 -9.228 2.318 8.759 -0.153 3.082 -514.315 2717.879 -3032.225 -0.274 -0.314 -0.099 -0.04 0.62 -0.78 0.03
1 4.11 411 0.488 -9.151 2.346 13.733 0.366 0.366 -454.354 2552.837 -3197.117 -0.215 -0.388 -0.115 -0.04 0.62 -0.78 0.03
1 4.12 412 0.632 -9.213 2.524 11.658 -1.740 -3.357 -439.364 2492.876 -3212.107 -0.352 -0.315 -0.248 -0.04 0.62 -0.78 0.03
1 4.13 413 0.656 -9.314 2.634 2.930 -3.998 -4.761 -289.461 2492.876 -3107.176 -0.366 -0.210 -0.342 -0.04 0.62 -0.78 0.03
1 4.14 414 0.704 -9.218 2.868 -3.082 -2.777 -5.646 -349.422 2582.817 -3272.218 -0.401 -0.304 -0.571 -0.04 0.62 -0.79 0.03
1 4.15 415 0.560 -9.510 2.763 -4.486 -1.404 -4.578 -349.422 2582.817 -3272.218 -0.244 -0.012 -0.466 -0.04 0.62 -0.79 0.03
1 4.16 416 0.541 -9.496 2.610 -1.740 -1.984 -2.747 -484.334 2567.827 -3137.156 -0.215 -0.026 -0.315 -0.04 0.62 -0.79 0.03
1 4.17 417 0.579 -9.290 2.643 -0.977 -4.791 -2.319 -484.334 2567.827 -3137.156 -0.246 -0.232 -0.349 -0.04 0.62 -0.79 0.03
1 4.18 418 0.627 -9.113 2.701 1.038 -8.118 -3.265 -439.364 2492.876 -3137.156 -0.286 -0.408 -0.404 -0.04 0.62 -0.79 0.03
1 4.19 419 1.130 -9.065 2.902 2.747 -11.383 -4.120 -514.315 2462.746 -3137.156 -0.766 -0.452 -0.592 -0.05 0.62 -0.79 0.03
1 4.20 420 1.398 -8.979 3.266 2.716 -10.986 -3.510 -454.354 2582.817 -3302.199 -1.018 -0.535 -0.947 -0.05 0.62 -0.79 0.03
1 4.21 421 1.250 -8.979 3.649 0.702 -8.514 -3.143 -484.334 2492.876 -3392.140 -0.853 -0.532 -1.319 -0.05 0.62 -0.79 0.03
1 4.22 422 1.259 -9.194 3.663 -0.824 -8.270 -0.732 -484.334 2492.876 -3392.140 -0.848 -0.314 -1.323 -0.05 0.61 -0.79 0.03
1 4.23 423 1.346 -9.094 3.730 -1.831 -7.874 1.434 -484.334 2537.847 -3182.127 -0.924 -0.411 -1.381 -0.05 0.61 -0.79 0.03
1 4.24 424 1.379 -8.974 3.864 0.946 -6.226 2.380 -484.334 2537.847 -3182.127 -0.950 -0.529 -1.506 -0.05 0.61 -0.79 0.03
1 4.25 425 1.393 -8.768 3.831 5.157 -3.906 3.265 -529.455 2552.837 -3152.146 -0.956 -0.731 -1.461 -0.05 0.61 -0.79 0.03
1 4.26 426 1.432 -8.461 3.860 7.172 -2.380 2.747 -694.348 2642.778 -3032.225 -0.989 -1.033 -1.471 -0.05 0.61 -0.79 0.03
1 4.27 427 1.446 -8.447 3.903 3.784 1.556 0.916 -484.334 2372.804 -3107.176 -0.991 -1.035 -1.469 -0.05 0.61 -0.79 0.03
1 4.28 428 1.279 -8.366 3.778 -1.709 4.364 -1.465 -574.426 2507.866 -3272.218 -0.816 -1.112 -1.327 -0.05 0.61 -0.79 0.03
1 4.29 429 0.934 -8.251 3.735 -4.822 6.714 -3.937 -574.426 2507.866 -3272.218 -0.462 -1.224 -1.275 -0.05 0.61 -0.79 0.03
1 4.30 430 0.709 -8.548 3.601 -6.012 4.425 -7.660 -439.364 2462.746 -3137.156 -0.227 -0.925 -1.136 -0.05 0.61 -0.79 0.03
1 4.31 431 0.895 -8.883 3.582 -5.463 -0.671 -9.491 -439.364 2462.746 -3137.156 -0.400 -0.588 -1.114 -0.05 0.61 -0.79 0.03
1 4.32 432 1.173 -9.022 3.644 -5.157 -2.411 -9.522 -529.455 2507.866 -3347.169 -0.662 -0.448 -1.174 -0.05 0.61 -0.79 0.03
1 4.33 433 1.212 -9.170 3.807 -5.676 -2.747 -8.209 -589.416 2537.847 -3182.127 -0.681 -0.298 -1.335 -0.05 0.61 -0.79 0.03
1 4.34 434 1.374 -9.084 3.721 -4.364 -1.099 -6.226 -499.325 2432.765 -3152.146 -0.806 -0.381 -1.244 -0.06 0.61 -0.79 0.02
1 4.35 435 1.231 -9.180 3.534 -2.960 -1.404 -4.822 -604.406 2477.886 -3302.199 -0.646 -0.283 -1.053 -0.06 0.61 -0.79 0.02
1 4.36 436 1.336 -9.218 3.419 -1.923 -2.411 -3.754 -604.406 2477.886 -3302.199 -0.739 -0.242 -0.932 -0.06 0.61 -0.79 0.02
1 4.37 437 1.192 -9.026 3.467 -1.190 -3.906 -3.601 -484.334 2492.876 -3182.127 -0.582 -0.431 -0.974 -0.06 0.61 -0.79 0.02
1 4.38 438 1.274 -9.026 3.347 -1.892 -4.761 -4.272 -484.334 2492.876 -3182.127 -0.650 -0.429 -0.848 -0.06 0.61 -0.79 0.02
1 4.39 439 1.413 -9.084 3.318 -5.402 -5.646 -3.571 -589.416 2537.847 -3242.238 -0.775 -0.369 -0.815 -0.06 0.61 -0.79 0.02
1 4.40 440 1.451 -9.012 3.376 -7.080 -5.676 -4.425 -544.445 2492.876 -3182.127 -0.800 -0.440 -0.872 -0.06 0.61 -0.79 0.02
1 4.41 441 1.274 -9.199 3.295 -7.141 -5.066 -5.371 -514.315 2342.824 -3137.156 -0.592 -0.253 -0.797 -0.06 0.61 -0.79 0.02
1 4.42 442 1.341 -9.208 3.251 -5.524 -5.859 -5.859 -574.426 2702.739 -3197.117 -0.643 -0.243 -0.756 -0.06 0.61 -0.79 0.02
1 4.43 443 1.614 -9.280 3.170 -5.341 -7.050 -6.775 -574.426 2702.739 -3197.117 -0.899 -0.170 -0.676 -0.06 0.61 -0.79 0.02
1 4.44 444 1.963 -9.314 3.069 -5.615 -7.538 -7.629 -574.426 2432.765 -3152.146 -1.228 -0.136 -0.578 -0.06 0.61 -0.79 0.02
1 4.45 445 2.179 -9.328 3.089 -5.554 -6.012 -7.050 -574.426 2432.765 -3152.146 -1.420 -0.120 -0.601 -0.07 0.61 -0.79 0.02
1 4.46 446 2.164 -9.295 3.151 -3.448 0.092 -8.209 -484.334 2417.775 -3107.176 -1.382 -0.153 -0.666 -0.07 0.61 -0.79 0.02
1 4.47 447 1.901 -9.098 3.194 -3.815 3.998 -8.362 -544.445 2492.876 -3137.156 -1.094 -0.347 -0.707 -0.07 0.61 -0.79 0.02
1 4.48 448 1.982 -9.050 3.117 -3.601 5.798 -10.620 -769.449 2567.827 -3212.107 -1.135 -0.390 -0.628 -0.07 0.61 -0.79 0.02
1 4.49 449 1.954 -9.050 2.955 -3.723 6.287 -11.078 -679.357 2582.817 -3197.117 -1.083 -0.388 -0.464 -0.07 0.61 -0.79 0.02
1 4.50 450 2.093 -8.945 2.859 -2.594 8.545 -12.329 -679.357 2582.817 -3197.117 -1.198 -0.490 -0.367 -0.07 0.61 -0.79 0.02
1 4.51 451 2.121 -8.840 2.672 -1.892 9.857 -12.390 -724.328 2672.759 -3017.234 -1.202 -0.593 -0.177 -0.07 0.61 -0.79 0.01
1 4.52 452 2.174 -8.763 2.548 -1.526 11.688 -13.916 -724.328 2672.759 -3017.234 -1.230 -0.666 -0.050 -0.07 0.61 -0.79 0.01
1 4.53 453 2.246 -8.811 2.514 -7.172 14.130 -13.367 -664.367 2612.798 -3107.176 -1.276 -0.615 -0.015 -0.07 0.61 -0.79 0.01
1 4.54 454 2.294 -9.070 2.610 -9.033 15.198 -11.871 -529.455 2477.886 -3092.186 -1.298 -0.355 -0.115 -0.07 0.61 -0.79 0.01
1 4.55 455 2.193 -9.156 2.548 -7.416 18.524 -11.627 -529.455 2477.886 -3092.186 -1.175 -0.268 -0.060 -0.07 0.61 -0.79 0.01
1 4.56 456 2.389 -9.175 2.562 -4.456 18.250 -5.707 -574.426 2477.886 -3197.117 -1.334 -0.248 -0.086 -0.07 0.61 -0.79 0
1 4.57 457 2.557 -8.864 2.792 -1.526 20.966 -2.594 -574.426 2477.886 -3197.117 -1.491 -0.558 -0.315 -0.07 0.61 -0.79 0
1 4.58 458 2.667 -8.773 2.777 -2.411 26.398 -1.770 -694.348 2492.876 -3137.156 -1.593 -0.647 -0.296 -0.07 0.61 -0.79 0
1 4.59 459 2.548 -9.084 2.634 -7.019 30.304 -1.648 -694.348 2492.876 -3137.156 -1.469 -0.334 -0.149 0.07 -0.61 0.79 0
1 4.60 460 2.514 -9.400 2.734 -9.369 32.959 -0.916 -724.328 2402.785 -3122.166 -1.433 -0.019 -0.252 0.07 -0.61 0.79 0
1 4.61 461 2.236 -9.410 2.701 -6.989 33.753 -3.296 -694.348 2687.749 -3182.127 -1.155 -0.011 -0.225 0.07 -0.61 0.79 0.01
1 4.62 462 2.136 -9.596 2.595 -4.303 34.668 -6.866 -694.348 2687.749 -3182.127 -1.052 0.176 -0.122 0.06 -0.61 0.79 0.01
1 4.63 463 1.647 -9.917 2.457 -4.791 33.844 -7.233 -514.315 2492.876 -3107.176 -0.552 0.498 0.018 0.06 -0.61 0.79 0.01
1 4.64 464 1.269 -9.864 2.389 -4.578 31.281 -5.585 -514.315 2492.876 -3107.176 -0.171 0.446 0.084 0.06 -0.61 0.79 0.01
1 4.65 465 0.857 -9.797 2.548 -1.343 28.168 -3.754 -529.455 2507.866 -3122.166 0.240 0.378 -0.074 0.06 -0.61 0.79 0.02
1 4.66 466 0.417 -9.826 2.509 -0.153 27.741 -2.625 -529.455 2507.866 -3122.166 0.674 0.407 -0.032 0.06 -0.61 0.79 0.02
1 4.67 467 -0.029 -9.941 2.423 0.275 25.421 0.458 -499.325 2402.785 -3122.166 1.109 0.523 0.060 0.06 -0.61 0.79 0.02
1 4.68 468 -0.297 -9.395 2.198 2.502 20.722 7.965 -604.406 2507.866 -3092.186 1.359 -0.024 0.289 0.05 -0.61 0.79 0.02
1 4.69 469 -0.254 -9.055 2.030 3.326 17.731 6.805 -604.406 2507.866 -3092.186 1.288 -0.366 0.463 0.05 -0.61 0.79 0.02
1 4.70 470 0.000 -9.395 1.935 1.648 12.573 5.463 -454.354 2357.814 -3047.215 1.008 -0.027 0.566 0.05 -0.61 0.79 0.02
1 4.71 471 0.857 -9.410 2.006 -2.441 5.829 7.111 -529.455 2507.866 -3047.215 0.113 -0.015 0.497 0.05 -0.61 0.79 0.02
1 4.72 472 1.389 -9.702 2.083 -1.587 4.639 8.087 -424.374 2477.886 -2972.114 -0.432 0.274 0.416 0.05 -0.61 0.79 0.02
1 4.73 473 1.748 -9.879 2.145 0.061 5.127 8.637 -424.374 2477.886 -2972.114 -0.802 0.449 0.351 0.05 -0.61 0.79 0.02
1 4.74 474 1.992 -9.999 2.332 1.251 7.355 9.003 -544.445 2537.847 -3062.205 -1.055 0.568 0.164 0.05 -0.61 0.79 0.02
1 4.75 475 1.796 -10.022 2.140 1.007 11.231 11.169 -454.354 2507.866 -2942.133 -0.867 0.592 0.357 0.05 -0.61 0.79 0.02
1 4.76 476 1.513 -9.941 2.050 -1.160 13.825 13.855 -454.354 2507.866 -2942.133 -0.595 0.510 0.450 0.04 -0.61 0.79 0.02
1 4.77 477 0.934 -9.721 1.968 -0.397 15.717 16.754 -259.331 2492.876 -3032.225 -0.032 0.287 0.529 0.04 -0.61 0.79 0.02
1 4.78 478 0.517 -9.386 1.614 2.319 14.832 18.219 -484.334 2417.775 -3107.176 0.328 -0.054 0.881 0.04 -0.61 0.79 0.02
1 4.79 479 0.704 -9.357 1.633 3.479 11.444 16.480 -409.383 2567.827 -3032.225 0.110 -0.085 0.864 0.04 -0.61 0.79 0.02
1 4.80 480 1.125 -9.448 1.652 1.587 8.148 15.595 -409.383 2567.827 -3032.225 -0.338 0.004 0.846 0.04 -0.61 0.79 0.02
1 4.81 481 1.365 -9.505 2.021 -0.732 5.646 15.076 -439.364 2492.876 -3242.238 -0.599 0.059 0.474 0.04 -0.61 0.79 0.02
1 4.82 482 1.446 -9.649 2.073 -0.275 6.683 14.496 -379.403 2432.765 -2972.114 -0.699 0.200 0.418 0.04 -0.61 0.79 0.02
1 4.83 483 1.638 -9.630 2.131 2.411 7.019 12.970 -379.403 2432.765 -2972.114 -0.907 0.180 0.359 0.03 -0.61 0.79 0.02
1 4.84 484 1.714 -9.615 2.050 3.448 6.012 12.116 -364.413 2492.876 -3107.176 -0.998 0.165 0.443 0.03 -0.61 0.79 0.02
1 4.85 485 1.810 -9.625 1.968 0.000 7.721 9.735 -454.354 2552.837 -2972.114 -1.115 0.174 0.528 0.03 -0.61 0.79 0.01
1 4.86 486 1.561 -9.587 1.868 -1.038 9.918 8.362 -259.331 2417.775 -3002.244 -0.874 0.135 0.627 0.03 -0.61 0.79 0.01
1 4.87 487 1.288 -9.625 1.777 -0.946 12.207 8.270 -259.331 2417.775 -3002.244 -0.608 0.171 0.714 0.03 -0.61 0.79 0.02
1 4.88 488 1.288 -9.716 1.666 0.671 12.512 5.920 -289.461 2567.827 -3032.225 -0.618 0.261 0.821 0.03 -0.61 0.79 0.02
1 4.89 489 1.202 -9.639 1.877 0.366 11.902 2.838 -409.383 2567.827 -3062.205 -0.538 0.183 0.608 0.03 -0.61 0.79 0.02
1 4.90 490 0.991 -9.587 1.844 -1.495 12.756 0.641 -409.383 2567.827 -3062.205 -0.330 0.130 0.640 0.03 -0.61 0.79 0.02
1 4.91 491 0.713 -9.673 1.686 -0.092 12.268 0.854 -484.334 2492.876 -3107.176 -0.054 0.214 0.793 0.03 -0.61 0.79 0.02
1 4.92 492 0.886 -9.659 1.480 3.448 11.078 -1.038 -289.461 2372.804 -3032.225 -0.234 0.198 0.993 0.03 -0.61 0.79 0.02
1 4.93 493 0.991 -9.778 1.542 3.876 10.895 -2.197 -184.680 2567.228 -3034.623 -0.339 0.318 0.931 0.03 -0.61 0.79 0.02
1 4.94 494 0.843 -9.960 1.992 0.610 9.399 -5.157 -184.680 2567.228 -3034.623 -0.186 0.500 0.481 0.03 -0.61 0.79 0.02
1 4.95 495 0.627 -9.826 2.112 -0.122 8.667 -5.981 -409.683 2537.247 -3004.643 0.037 0.366 0.358 0.03 -0.61 0.79 0.02
1 4.96 496 0.426 -9.864 2.155 1.984 7.721 -8.667 -259.631 2297.104 -3064.604 0.246 0.405 0.315 0.03 -0.61 0.79 0.02
1 4.97 497 0.369 -10.200 2.399 0.366 3.632 -11.444 -259.631 2297.104 -3064.604 0.314 0.741 0.073 0.03 -0.61 0.79 0.02
1 4.98 498 0.335 -10.219 2.773 -2.106 -0.885 -12.634 -319.592 2582.218 -3049.613 0.361 0.761 -0.300 0.03 -0.61 0.79 0.02
1 4.99 499 0.101 -10.516 2.955 -1.099 -3.876 -12.878 -439.664 2612.198 -3109.574 0.611 1.059 -0.484 0.03 -0.61 0.79 0.02
1 5.00 500 0.239 -10.573 3.333 3.845 -10.742 -14.404 -319.592 2282.113 -3094.584 0.516 1.120 -0.861 0.03 -0.61 0.79 0.02
1 5.01 501 0.479 -10.616 3.352 6.073 -14.374 -13.062 -319.592 2282.113 -3094.584 0.303 1.167 -0.874 0.03 -0.61 0.79 0.02
1 5.02 502 0.795 -10.535 3.275 6.287 -14.954 -10.773 -94.588 2477.136 -3124.564 0.012 1.090 -0.789 0.03 -0.61 0.79 0.02
1 5.03 503 0.886 -10.497 3.338 3.113 -11.047 -7.904 -349.572 2507.117 -2974.662 -0.058 1.055 -0.844 0.03 -0.61 0.79 0.02
1 5.04 504 0.718 -10.549 3.223 0.153 -6.287 -2.411 -349.572 2507.117 -2974.662 0.125 1.110 -0.725 0.04 -0.61 0.79 0.02
1 5.05 505 0.886 -10.295 3.108 1.251 -8.026 -0.732 -349.572 2672.159 -3094.584 -0.034 0.857 -0.610 0.04 -0.61 0.79 0.02
1 5.06 506 1.121 -10.152 3.165 1.434 -9.735 1.160 -334.582 2612.198 -3184.675 -0.264 0.715 -0.666 0.04 -0.61 0.79 0.02
1 5.07 507 1.633 -10.133 2.974 -3.296 -5.005 4.974 -274.621 2507.117 -2974.662 -0.770 0.698 -0.468 0.04 -0.61 0.79 0.02
1 5.08 508 1.623 -10.238 3.089 -9.308 0.488 7.111 -274.621 2507.117 -2974.662 -0.762 0.802 -0.587 0.04 -0.61 0.79 0.02
1 5.09 509 1.336 -10.319 3.390 -12.604 5.188 9.247 -259.631 2612.198 -3139.555 -0.485 0.879 -0.902 0.04 -0.61 0.79 0.02
1 5.10 510 1.001 -10.267 3.453 -11.169 8.026 9.491 -349.572 2432.166 -3199.666 -0.165 0.821 -0.981 0.04 -0.61 0.79 0.02
1 5.11 511 0.728 -9.898 3.448 -4.150 9.399 9.003 -349.572 2432.166 -3199.666 0.092 0.447 -0.987 0.04 -0.61 0.79 0.02
1 5.12 512 0.297 -9.735 3.481 6.409 9.705 13.825 -379.703 2477.136 -3124.564 0.507 0.285 -1.016 0.03 -0.61 0.79 0.02
1 5.13 513 0.206 -9.357 3.611 9.949 10.437 18.463 -409.683 2417.175 -3064.604 0.575 -0.091 -1.129 0.03 -0.61 0.79 0.02
1 5.14 514 0.010 -8.830 3.678 11.292 12.085 18.524 -409.683 2417.175 -3064.604 0.739 -0.615 -1.173 0.03 -0.61 0.79 0.02
1 5.15 515 -0.244 -8.375 3.740 9.705 12.360 17.334 -334.582 2462.146 -3064.604 0.922 -1.060 -1.181 0.03 -0.61 0.79 0.02
1 5.16 516 -0.546 -8.169 3.682 8.667 11.383 15.564 -349.572 2582.218 -3229.646 1.190 -1.261 -1.097 0.03 -0.61 0.79 0.02
1 5.17 517 -0.819 -7.872 3.362 10.284 10.345 12.634 -334.582 2492.126 -3064.604 1.429 -1.553 -0.750 0.02 -0.61 0.8 0.02
1 5.18 518 -0.891 -7.748 3.314 12.268 7.996 9.491 -334.582 2492.126 -3064.604 1.481 -1.674 -0.684 0.02 -0.6 0.8 0.02
1 5.19 519 -1.288 -7.456 2.998 14.587 1.587 3.571 -184.680 2417.175 -2929.691 1.864 -1.961 -0.348 0.02 -0.6 0.8 0.02
1 5.20 520 -1.312 -7.738 2.959 11.139 -4.211 -1.526 -169.689 2402.185 -3019.633 1.882 -1.673 -0.287 0.02 -0.6 0.8 0.02
1 5.21 521 -1.087 -8.385 2.955 3.601 -10.956 -4.150 -169.689 2402.185 -3019.633 1.659 -1.021 -0.264 0.02 -0.6 0.8 0.02
1 5.22 522 -0.268 -9.745 3.285 -12.848 -17.792 -3.326 -259.631 2537.247 -3064.604 0.853 0.341 -0.589 0.02 -0.6 0.8 0.02
1 5.23 523 0.182 -10.315 3.247 -11.597 -15.900 0.000 -139.559 2417.175 -3109.574 0.407 0.906 -0.567 0.03 -0.6 0.8 0.02
1 5.24 524 0.297 -10.406 3.218 2.838 -9.766 4.334 -259.631 2462.146 -3034.623 0.295 0.995 -0.549 0.03 -0.6 0.8 0.02
1 5.25 525 -0.043 -10.118 3.093 17.487 -4.974 8.209 -259.631 2462.146 -3034.623 0.632 0.710 -0.415 0.03 -0.6 0.8 0.01
1 5.26 526 -0.393 -9.817 3.007 19.043 -3.815 11.597 -349.572 2432.166 -3124.564 0.969 0.416 -0.300 0.03 -0.6 0.8 0.01
1 5.27 527 -0.872 -9.457 2.610 6.836 -6.531 19.013 -424.673 2327.234 -3154.695 1.425 0.063 0.125 0.03 -0.6 0.8 0.01
1 5.28 528 -0.704 -9.338 2.418 1.190 -8.392 18.677 -424.673 2327.234 -3154.695 1.226 -0.054 0.331 0.03 -0.6 0.8 0.01
1 5.29 529 -0.287 -9.180 2.255 3.998 -9.247 14.648 -139.559 2462.146 -3184.675 0.750 -0.214 0.497 0.02 -0.6 0.8 0.01
1 5.30 530 -0.043 -9.036 2.035 6.012 -7.568 11.047 -409.683 2492.126 -3004.643 0.485 -0.358 0.722 0.02 -0.6 0.8 0.01
1 5.31 531 -0.081 -9.103 2.011 5.920 -5.493 9.125 -274.621 2282.113 -3049.613 0.507 -0.290 0.752 0.02 -0.6 0.8 0
1 5.32 532 -0.498 -9.156 1.939 1.373 -5.249 6.714 -274.621 2282.113 -3049.613 0.911 -0.236 0.827 0.02 -0.6 0.8 0
1 5.33 533 -0.469 -9.491 1.820 -2.228 -6.317 4.974 -349.572 2402.185 -3199.666 0.870 0.097 0.944 0.02 -0.6 0.8 0
1 5.34 534 -0.426 -9.639 1.963 -1.648 -10.010 4.334 -259.631 2462.146 -3139.555 0.818 0.243 0.791 0.02 -0.6 0.8 0
1 5.35 535 -0.402 -9.410 2.002 4.852 -11.322 2.838 -259.631 2462.146 -3139.555 0.784 0.010 0.744 0.02 -0.6 0.8 0
1 5.36 536 -0.306 -9.117 1.949 8.637 -13.092 0.031 -409.683 2192.172 -3034.623 0.682 -0.281 0.803 -0.02 0.6 -0.8 0
1 5.37 537 -0.196 -9.046 1.982 7.507 -13.733 -1.221 -364.562 2417.175 -3139.555 0.574 -0.350 0.776 -0.03 0.6 -0.8 0
1 5.38 538 -0.287 -8.964 2.026 2.533 -14.648 -3.357 -259.631 2297.104 -3139.555 0.671 -0.431 0.737 -0.03 0.6 -0.8 0
1 5.39 539 -0.383 -8.902 1.824 0.122 -15.076 -3.937 -259.631 2297.104 -3139.555 0.775 -0.493 0.936 -0.03 0.6 -0.8 0
1 5.40 540 -0.555 -8.859 1.853 -0.153 -17.914 -6.653 -379.703 2507.117 -3124.564 0.955 -0.537 0.903 -0.03 0.6 -0.8 0
1 5.41 541 -0.488 -8.643 1.781 1.495 -21.301 -10.529 -319.592 2252.133 -3229.646 0.901 -0.753 0.970 -0.03 0.6 -0.8 0
1 5.42 542 -0.594 -8.701 1.647 0.397 -22.705 -12.024 -319.592 2252.133 -3229.646 1.023 -0.696 1.100 -0.03 0.6 -0.8 0.01
1 5.43 543 -0.776 -8.730 1.791 -2.075 -24.201 -14.374 -454.654 2357.214 -3094.584 1.226 -0.668 0.951 -0.03 0.6 -0.8 0.01
1 5.44 544 -0.809 -8.643 1.690 -5.646 -25.299 -15.839 -514.615 2297.104 -3139.555 1.307 -0.758 1.031 -0.04 0.6 -0.8 0.01
1 5.45 545 -0.613 -8.658 1.532 -6.104 -27.741 -16.846 -289.611 2372.205 -3064.604 1.137 -0.746 1.175 -0.04 0.6 -0.8 0.01
1 5.46 546 -0.584 -8.615 1.451 -4.791 -29.694 -17.609 -289.611 2372.205 -3064.604 1.141 -0.791 1.244 -0.04 0.6 -0.8 0.01
1 5.47 547 -0.508 -8.466 1.355 -4.608 -31.891 -19.135 -289.611 2342.224 -3214.656 1.105 -0.939 1.331 -0.04 0.6 -0.8 0.01
1 5.48 548 0.057 -9.017 1.207 -9.979 -32.684 -18.005 -529.605 2477.136 -3229.646 0.582 -0.389 1.471 -0.05 0.6 -0.8 0.01
1 5.49 549 0.460 -9.175 1.504 -16.785 -33.539 -16.266 -529.605 2477.136 -3229.646 0.218 -0.233 1.155 -0.05 0.6 -0.8 0.01
1 5.50 550 0.776 -9.577 1.619 -18.250 -32.593 -14.832 -319.592 2432.166 -3094.584 -0.063 0.162 1.007 -0.05 0.6 -0.8 0.01
1 5.51 551 1.101 -9.826 1.729 -14.923 -29.205 -11.749 -574.576 2327.234 -3124.564 -0.321 0.397 0.826 -0.06 0.61 -0.79 0.01
1 5.52 552 1.408 -10.032 1.595 -12.604 -25.147 -9.491 -679.657 2507.117 -3154.695 -0.597 0.598 0.930 -0.06 0.61 -0.79 0.01
1 5.53 553 1.346 -9.759 1.662 -10.071 -19.836 -9.369 -680.257 2506.667 -3156.194 -0.508 0.320 0.837 -0.06 0.61 -0.79 0.01
1 5.54 554 0.843 -9.783 1.829 -12.299 -14.313 -8.545 -590.315 2566.628 -3036.122 0.020 0.340 0.646 -0.06 0.61 -0.79 0.01
1 5.55 555 0.474 -9.783 1.566 -17.395 -9.949 -5.463 -575.325 2401.735 -3156.194 0.407 0.335 0.884 -0.07 0.61 -0.79 0.01
1 5.56 556 0.407 -10.018 1.398 -21.484 -8.087 -5.096 -575.325 2401.735 -3156.194 0.484 0.562 1.018 -0.07 0.61 -0.79 0.01
1 5.57 557 0.359 -9.888 1.106 -20.020 -8.392 -5.432 -695.247 2491.677 -3066.252 0.539 0.424 1.272 -0.07 0.61 -0.79 0.01
1 5.58 558 0.378 -9.802 1.049 -16.693 -7.751 -6.348 -695.247 2491.677 -3066.252 0.528 0.329 1.292 -0.07 0.61 -0.79 0.01
1 5.59 559 0.062 -9.668 0.895 -17.242 -1.862 -5.493 -740.218 2416.726 -3066.252 0.861 0.180 1.378 -0.07 0.62 -0.78 0.01
1 5.60 560 -0.254 -9.879 0.943 -22.614 -0.122 -4.059 -740.218 2416.726 -3066.252 1.181 0.383 1.294 -0.07 0.62 -0.78 0.01
1 5.61 561 -0.546 -10.233 1.389 -29.327 -0.824 -1.831 -740.218 2341.625 -2961.171 1.472 0.727 0.805 -0.07 0.62 -0.78 0.01
1 5.62 562 -0.479 -11.761 2.509 -35.065 -8.057 2.167 -620.296 2491.677 -3066.252 1.398 2.242 -0.367 -0.07 0.62 -0.78 0.01
1 5.63 563 1.815 -14.864 4.894 -48.248 -20.935 26.550 -620.296 2491.677 -3066.252 -0.898 5.333 -2.806 -0.07 0.62 -0.78 0.01
1 5.64 564 3.443 -14.921 5.737 -35.309 -9.888 45.532 -755.208 2431.716 -3051.112 -2.549 5.373 -3.718 -0.07 0.63 -0.78 0.01
1 5.65 565 3.855 -13.121 4.884 5.371 19.898 54.077 -755.208 2431.716 -3051.112 -3.016 3.555 -2.927 -0.07 0.63 -0.77 0.02
1 5.66 566 1.494 -9.869 2.586 40.009 49.011 43.457 -695.247 2641.729 -2961.171 -0.822 0.300 -0.582 -0.06 0.63 -0.78 0.02
1 5.67 567 -0.134 -9.012 1.877 13.580 41.168 27.802 -695.247 2641.729 -2961.171 0.737 -0.549 0.187 -0.06 0.63 -0.78 0.02
1 5.68 568 -1.197 -9.333 2.289 -31.464 25.208 11.841 -590.315 2491.677 -3036.122 1.752 -0.230 -0.218 -0.05 0.63 -0.78 0.02
1 5.69 569 -1.829 -10.525 2.753 -66.254 13.611 1.282 -515.214 2566.628 -3006.142 2.355 0.949 -0.739 -0.05 0.63 -0.78 0.02
1 5.70 570 -1.901 -11.555 2.706 -70.801 6.622 -1.434 -515.214 2566.628 -3006.142 2.416 1.958 -0.788 -0.05 0.63 -0.77 0.02
1 5.71 571 -1.389 -11.464 2.126 -17.242 -1.160 3.815 -440.263 2416.726 -2811.119 1.904 1.849 -0.303 -0.05 0.64 -0.77 0.02
1 5.72 572 -0.891 -10.578 2.418 23.193 -8.301 3.723 -440.263 2416.726 -2811.119 1.403 0.955 -0.636 -0.05 0.64 -0.77 0.02
1 5.73 573 -0.192 -9.750 3.409 22.980 -20.599 3.754 -440.263 2566.628 -2811.119 0.698 0.140 -1.556 -0.05 0.63 -0.77 0.02
1 5.74 574 0.211 -9.587 3.951 -4.059 -22.125 11.963 -440.263 2566.628 -2811.119 0.289 -0.017 -2.064 -0.05 0.63 -0.77 0.02
1 5.75 575 0.407 -9.496 4.075 -20.355 -18.402 23.193 -530.205 2551.638 -2796.128 0.075 -0.109 -2.188 -0.05 0.63 -0.77 0.03
1 5.76 576 0.781 -9.017 3.682 -12.116 -15.289 28.259 -590.315 2611.749 -2811.119 -0.330 -0.592 -1.808 -0.05 0.63 -0.77 0.03
1 5.77 577 1.331 -8.452 3.151 11.688 -16.022 25.452 -590.315 2611.749 -2811.119 -0.914 -1.157 -1.272 -0.05 0.63 -0.77 0.03
1 5.78 578 2.543 -7.643 3.481 30.579 -17.578 16.419 -515.214 2491.677 -2961.171 -2.149 -1.960 -1.566 -0.05 0.63 -0.77 0.03
1 5.79 579 2.907 -7.394 3.975 19.226 -10.742 9.552 -515.214 2491.677 -2961.171 -2.527 -2.200 -2.009 -0.05 0.63 -0.77 0.04
1 5.80 580 2.801 -7.968 3.826 -15.869 8.057 0.763 -531.254 2505.917 -2979.759 -2.419 -1.613 -1.804 -0.05 0.63 -0.78 0.04
1 5.81 581 2.576 -8.284 3.726 -25.543 13.886 -1.678 -531.254 2505.917 -2979.759 -2.176 -1.299 -1.716 -0.05 0.63 -0.78 0.04
1 5.82 582 1.484 -9.505 2.955 -29.358 19.409 -7.141 -606.355 2505.917 -2979.759 -1.067 -0.084 -0.976 -0.05 0.63 -0.77 0.03
1 5.83 583 0.814 -9.984 2.744 -15.717 16.052 -9.277 -606.355 2430.816 -2844.697 -0.380 0.390 -0.792 -0.05 0.63 -0.77 0.03
1 5.84 584 0.623 -9.898 2.682 -1.404 10.803 -11.322 -606.355 2430.816 -2844.697 -0.173 0.303 -0.740 -0.05 0.63 -0.77 0.03
1 5.85 585 0.723 -9.596 2.639 4.547 7.599 -11.749 -546.244 2610.849 -2964.769 -0.257 0.004 -0.689 -0.05 0.63 -0.77 0.03
1 5.86 586 0.843 -9.601 2.533 -0.397 5.310 -9.186 -546.244 2610.849 -2964.769 -0.360 0.012 -0.570 -0.05 0.63 -0.77 0.03
1 5.87 587 1.149 -9.515 2.514 -5.371 4.028 -8.331 -516.264 2610.849 -2814.716 -0.651 -0.072 -0.542 -0.06 0.63 -0.77 0.03
1 5.88 588 1.690 -9.984 2.591 -8.057 5.280 -8.453 -576.225 2355.865 -2799.726 -1.158 0.398 -0.625 -0.06 0.63 -0.77 0.03
1 5.89 589 1.523 -10.090 2.581 -4.486 8.087 -6.958 -651.326 2625.839 -2799.726 -0.972 0.504 -0.619 -0.06 0.63 -0.77 0.02
1 5.90 590 1.413 -9.884 2.500 -0.366 10.193 -5.859 -591.365 2490.927 -2784.736 -0.846 0.299 -0.537 -0.06 0.63 -0.77 0.02
1 5.91 591 1.326 -9.706 2.437 2.472 9.796 -6.012 -591.365 2490.927 -2784.736 -0.747 0.124 -0.468 -0.06 0.63 -0.77 0.02
1 5.92 592 1.322 -9.539 2.289 1.801 5.554 -6.805 -531.254 2475.787 -2799.726 -0.730 -0.041 -0.312 -0.06 0.63 -0.77 0.02
1 5.93 593 1.374 -9.433 2.342 1.617 4.242 -7.965 -531.254 2475.787 -2799.726 -0.769 -0.144 -0.357 -0.06 0.63 -0.78 0.02
1 5.94 594 1.360 -9.592 2.409 0.732 5.249 -7.355 -576.225 2580.869 -2769.746 -0.739 0.016 -0.418 -0.06 0.63 -0.78 0.02
1 5.95 595 1.508 -9.424 2.265 2.991 5.829 -5.676 -666.316 2610.849 -2889.667 -0.856 -0.147 -0.262 -0.06 0.63 -0.78 0.02
1 5.96 596 1.245 -9.218 2.208 5.096 6.592 -5.035 -666.316 2565.878 -2814.716 -0.579 -0.350 -0.195 -0.06 0.63 -0.78 0.02
1 5.97 597 1.106 -9.218 2.064 7.385 6.531 -5.615 -756.257 2550.888 -2904.658 -0.429 -0.347 -0.039 -0.06 0.63 -0.78 0.02
1 5.98 598 1.082 -9.127 2.088 6.348 4.944 -5.035 -756.257 2550.888 -2904.658 -0.394 -0.434 -0.049 -0.06 0.63 -0.78 0.02
1 5.99 599 1.044 -9.070 2.016 1.801 3.876 -4.364 -531.254 2355.865 -2724.775 -0.346 -0.488 0.032 -0.06 0.63 -0.78 0.02
1 6.00 600 0.963 -9.161 1.968 -1.068 4.547 -2.625 -531.254 2355.865 -2724.775 -0.256 -0.396 0.084 -0.06 0.63 -0.78 0.02
1 6.01 601 1.068 -9.156 1.949 -0.458 5.249 -1.556 -531.254 2550.888 -2874.677 -0.354 -0.400 0.104 -0.06 0.63 -0.78 0.02
1 6.02 602 1.049 -9.170 1.949 -0.610 5.066 -1.221 -516.264 2565.878 -2964.769 -0.330 -0.385 0.105 -0.06 0.63 -0.78 0.02
1 6.03 603 1.020 -9.060 1.901 -0.122 5.035 1.434 -666.316 2685.800 -2859.687 -0.296 -0.495 0.154 -0.06 0.63 -0.78 0.02
1 6.04 604 1.020 -8.892 1.863 -0.916 6.195 2.472 -411.332 2565.878 -2889.667 -0.296 -0.662 0.194 -0.06 0.63 -0.78 0.01
1 6.05 605 1.068 -9.003 1.982 -1.282 6.012 3.571 -411.332 2565.878 -2889.667 -0.346 -0.552 0.074 -0.06 0.63 -0.78 0.01
1 6.06 606 1.159 -9.161 1.877 -3.021 5.402 3.967 -501.273 2700.791 -2979.759 -0.440 -0.394 0.179 -0.06 0.63 -0.78 0.01
1 6.07 607 1.384 -9.247 2.088 -3.845 5.981 5.066 -501.273 2700.791 -2979.759 -0.669 -0.309 -0.036 -0.06 0.63 -0.78 0.01
1 6.08 608 1.346 -9.228 2.026 -2.869 9.003 5.463 -576.225 2505.917 -2904.658 -0.634 -0.330 0.022 -0.06 0.63 -0.78 0.01
1 6.09 609 1.235 -9.352 2.035 -0.427 10.223 7.172 -576.225 2580.869 -2979.759 -0.527 -0.206 0.010 -0.06 0.63 -0.78 0.01
1 6.10 610 1.192 -9.074 2.045 0.732 9.644 9.216 -426.322 2505.917 -2904.658 -0.499 -0.484 0.005 -0.06 0.63 -0.78 0.01
1 6.11 611 1.216 -9.050 2.097 -1.160 11.475 9.522 -546.244 2685.800 -2784.736 -0.534 -0.508 -0.044 -0.06 0.63 -0.78 0.01
1 6.12 612 1.149 -9.041 2.030 -2.045 13.092 10.803 -546.244 2685.800 -2784.736 -0.479 -0.518 0.024 -0.05 0.63 -0.78 0.01
1 6.13 613 1.073 -8.907 1.920 -2.991 14.587 11.871 -576.225 2505.917 -2769.746 -0.418 -0.653 0.134 -0.05 0.63 -0.78 0.01
1 6.14 614 1.149 -8.912 2.021 -3.326 14.618 12.787 -576.225 2505.917 -2769.746 -0.512 -0.650 0.032 -0.05 0.63 -0.78 0.01
1 6.15 615 1.207 -8.955 1.911 -4.669 16.052 12.482 -456.303 2580.869 -2799.726 -0.588 -0.608 0.140 -0.05 0.63 -0.78 0.01
1 6.16 616 1.183 -8.844 1.891 -6.561 16.815 11.780 -486.283 2685.800 -2934.638 -0.582 -0.720 0.156 -0.05 0.63 -0.78 0.01
1 6.17 617 1.264 -9.122 1.791 -8.209 16.022 10.284 -411.332 2610.849 -2964.769 -0.696 -0.448 0.241 -0.05 0.63 -0.78 0.01
1 6.18 618 1.255 -9.156 1.801 -9.064 15.930 8.881 -426.322 2580.869 -2874.677 -0.699 -0.418 0.220 -0.05 0.63 -0.78 0.01
1 6.19 619 1.049 -9.208 1.662 -10.803 17.334 6.348 -426.322 2580.869 -2874.677 -0.503 -0.368 0.346 -0.05 0.63 -0.78 0.01
1 6.20 620 0.833 -9.472 1.283 -13.214 18.341 7.477 -531.254 2580.869 -2844.697 -0.297 -0.109 0.709 -0.04 0.63 -0.78 0.01
1 6.21 621 0.718 -9.592 1.226 -13.306 15.747 8.911 -531.254 2580.869 -2844.697 -0.195 0.006 0.745 -0.04 0.63 -0.77 0.01
1 6.22 622 0.843 -9.812 1.149 -13.916 10.803 5.615 -276.270 2475.787 -2844.697 -0.333 0.221 0.800 -0.04 0.63 -0.77 0.01
1 6.23 623 0.718 -10.238 1.355 -15.289 10.010 4.517 -351.221 2625.839 -2979.759 -0.217 0.642 0.571 -0.04 0.63 -0.77 0.01
1 6.24 624 0.283 -10.190 1.264 -8.789 9.705 6.592 -441.312 2640.830 -2814.716 0.204 0.584 0.615 -0.04 0.63 -0.77 0.01
1 6.25 625 0.148 -10.133 1.293 -6.256 8.362 6.531 -276.270 2475.787 -2799.726 0.326 0.523 0.572 -0.04 0.64 -0.77 0.01
1 6.26 626 0.225 -10.008 1.355 -1.556 2.197 5.585 -276.270 2475.787 -2799.726 0.237 0.397 0.502 -0.04 0.64 -0.77 0.01
1 6.27 627 0.584 -10.070 1.480 -2.655 -0.854 4.486 -366.361 2415.826 -2754.755 -0.131 0.458 0.372 -0.04 0.64 -0.77 0.01
1 6.28 628 1.068 -10.190 1.580 -5.310 -0.793 4.364 -366.361 2415.826 -2754.755 -0.620 0.576 0.264 -0.04 0.64 -0.77 0.01
1 6.29 629 1.432 -10.324 1.791 -3.479 1.587 3.998 -216.309 2610.849 -2754.755 -0.984 0.708 0.044 -0.04 0.64 -0.77 0.01
1 6.30 630 1.599 -10.181 1.753 0.122 2.136 2.289 -381.352 2625.839 -2799.726 -1.152 0.563 0.075 -0.04 0.64 -0.77 0.01
1 6.31 631 1.662 -10.243 1.585 3.204 1.312 0.061 -381.352 2625.839 -2799.726 -1.210 0.625 0.241 -0.04 0.64 -0.77 0.01
1 6.32 632 1.480 -10.640 1.844 -0.854 1.129 -6.500 -291.260 2565.878 -2814.716 -1.005 1.024 -0.013 -0.04 0.64 -0.77 0.01
1 6.33 633 1.264 -10.726 2.050 -1.770 0.061 -8.759 -291.260 2565.878 -2814.716 -0.774 1.111 -0.221 -0.04 0.64 -0.77 0.01
1 6.34 634 1.092 -10.616 1.920 2.380 -0.977 -9.888 -216.309 2565.878 -2814.716 -0.587 1.002 -0.092 -0.04 0.64 -0.77 0.01
1 6.35 635 1.025 -10.717 1.987 6.348 -2.716 -12.177 -216.309 2565.878 -2814.716 -0.503 1.104 -0.153 -0.04 0.64 -0.77 0.01
1 6.36 636 1.006 -10.789 2.112 3.784 -4.425 -16.052 -381.352 2670.810 -2844.697 -0.463 1.179 -0.266 -0.04 0.64 -0.77 0.01
1 6.37 637 0.709 -10.899 2.404 2.167 -3.632 -15.717 -276.270 2505.917 -2844.697 -0.141 1.292 -0.551 -0.04 0.64 -0.77 0
1 6.38 638 0.306 -11.397 2.591 1.587 -1.831 -16.205 -276.270 2505.917 -2844.697 0.287 1.793 -0.733 -0.04 0.64 -0.77 0
1 6.39 639 -0.192 -11.675 2.820 5.066 -3.235 -15.198 -456.303 2505.917 -2694.645 0.836 2.075 -0.955 -0.04 0.63 -0.77 0
1 6.40 640 -0.340 -11.603 3.055 10.559 -9.003 -13.489 -456.303 2505.917 -2694.645 1.009 2.007 -1.180 -0.05 0.63 -0.77 0
1 6.41 641 -0.105 -11.349 3.017 14.648 -16.174 -12.451 -291.260 2715.931 -2859.687 0.798 1.758 -1.124 -0.05 0.63 -0.77 0
1 6.42 642 0.690 -10.961 2.744 19.409 -21.118 -6.744 -291.260 2715.931 -2859.687 0.027 1.377 -0.829 -0.05 0.63 -0.77 0
1 6.43 643 1.662 -10.607 2.811 21.240 -20.050 0.671 -366.361 2415.826 -2709.635 -0.931 1.029 -0.868 -0.05 0.63 -0.77 0
1 6.44 644 2.758 -10.329 2.787 12.909 -7.813 11.871 -441.312 2340.875 -2934.638 -2.025 0.758 -0.814 -0.05 0.63 -0.78 0
1 6.45 645 2.409 -10.128 2.978 2.502 1.038 18.219 -441.312 2340.875 -2934.638 -1.686 0.560 -0.983 -0.05 0.63 -0.78 0
1 6.46 646 2.198 -9.999 3.280 -7.080 10.742 21.210 -531.254 2550.888 -2799.726 -1.529 0.428 -1.280 -0.05 0.63 -0.78 0.01
1 6.47 647 1.901 -9.979 3.342 -6.439 12.970 19.836 -531.254 2550.888 -2799.726 -1.259 0.406 -1.346 -0.05 0.63 -0.78 0.01
1 6.48 648 1.188 -9.903 3.524 4.944 17.334 12.909 -531.254 2550.888 -2904.658 -0.566 0.330 -1.519 -0.05 0.63 -0.78 0.01
1 6.49 649 0.484 -9.357 3.510 15.289 18.646 9.369 -531.254 2550.888 -2904.658 0.121 -0.212 -1.481 -0.04 0.63 -0.78 0.01
1 6.50 650 0.101 -8.916 3.639 23.193 18.372 8.057 -576.225 2625.839 -2799.726 0.487 -0.645 -1.571 -0.04 0.63 -0.78 0.01
1 6.51 651 -0.599 -7.920 3.496 29.663 18.524 6.683 -381.352 2550.888 -2724.775 1.167 -1.631 -1.377 -0.04 0.62 -0.78 0.01
1 6.52 652 -0.857 -7.346 3.304 32.684 17.151 4.059 -381.352 2550.888 -2724.775 1.404 -2.194 -1.128 -0.04 0.62 -0.78 0.01
1 6.53 653 -1.259 -6.891 3.237 34.088 16.113 0.305 -216.309 2565.878 -2964.769 1.795 -2.638 -1.011 -0.04 0.62 -0.78 0.01
1 6.54 654 -1.954 -6.670 3.026 26.489 10.498 -6.409 -411.332 2340.875 -2889.667 2.484 -2.835 -0.700 -0.04 0.62 -0.79 0
1 6.55 655 -2.447 -6.896 2.835 15.717 2.350 -11.261 -171.338 2625.839 -2844.697 2.986 -2.600 -0.471 -0.04 0.61 -0.79 0
1 6.56 656 -2.361 -7.499 2.600 2.869 -9.522 -14.008 -171.338 2625.839 -2844.697 2.919 -1.991 -0.218 -0.04 0.61 -0.79 0
1 6.57 657 -1.676 -8.519 2.605 -10.681 -22.247 -14.313 -291.260 2565.878 -2889.667 2.261 -0.969 -0.223 -0.04 0.61 -0.79 0
1 6.58 658 -0.733 -9.984 2.629 -23.285 -29.083 -12.390 -336.231 2610.849 -2964.769 1.340 0.493 -0.267 -0.04 0.61 -0.79 0
1 6.59 659 0.340 -11.143 2.988 -15.533 -22.797 -1.862 -336.231 2610.849 -2964.769 0.282 1.644 -0.661 -0.04 0.62 -0.79 0
1 6.60 660 0.757 -10.837 2.959 10.681 -14.313 4.730 -441.312 2610.849 -2889.667 -0.122 1.331 -0.661 -0.04 0.62 -0.79 0
1 6.61 661 0.326 -9.754 2.528 34.729 -5.341 7.050 -351.221 2550.888 -2949.628 0.305 0.260 -0.184 -0.05 0.62 -0.79 0.01
1 6.62 662 -0.326 -9.625 2.389 22.553 -5.188 10.132 -456.303 2550.888 -2949.628 0.946 0.142 0.004 -0.05 0.61 -0.79 0.01
1 6.63 663 -0.704 -9.457 2.308 3.021 -7.568 13.336 -456.303 2550.888 -2949.628 1.306 -0.020 0.111 -0.05 0.61 -0.79 0.01
1 6.64 664 -0.771 -9.754 2.265 -4.700 -11.017 14.130 -486.283 2460.797 -2859.687 1.348 0.275 0.154 -0.04 0.61 -0.79 0.01
1 6.65 665 -0.321 -9.903 2.026 0.793 -12.756 10.956 -486.283 2490.927 -3039.720 0.873 0.421 0.387 -0.04 0.61 -0.79 0.01
1 6.66 666 0.148 -9.568 2.126 14.801 -11.536 9.399 -486.283 2490.927 -3039.720 0.386 0.085 0.289 -0.04 0.61 -0.79 0.01
1 6.67 667 0.220 -9.371 2.112 16.632 -9.674 8.301 -456.303 2355.865 -2904.658 0.303 -0.108 0.319 -0.04 0.61 -0.79 0.01
1 6.68 668 0.067 -9.314 2.011 7.721 -6.287 6.744 -366.361 2490.927 -2964.769 0.438 -0.156 0.460 -0.05 0.61 -0.79 0.02
1 6.69 669 0.081 -9.400 1.930 4.211 -5.280 6.928 -351.221 2430.816 -2949.628 0.414 -0.069 0.548 -0.04 0.61 -0.79 0.02
1 6.70 670 -0.148 -9.558 1.939 0.732 -4.639 8.179 -351.221 2430.816 -2949.628 0.632 0.088 0.536 -0.04 0.61 -0.79 0.02
1 6.71 671 -0.053 -9.553 1.992 6.348 -5.951 8.026 -516.264 2535.898 -2859.687 0.523 0.083 0.483 -0.04 0.61 -0.79 0.02
1 6.72 672 0.019 -9.410 1.810 11.505 -7.263 7.202 -291.260 2490.927 -3039.720 0.439 -0.059 0.673 -0.04 0.61 -0.79 0.02
1 6.73 673 0.134 -9.151 1.906 10.498 -7.355 3.967 -291.260 2490.927 -3039.720 0.315 -0.315 0.591 -0.04 0.61 -0.79 0.02
1 6.74 674 0.096 -9.122 1.868 7.996 -5.524 2.777 -516.264 2565.878 -2964.769 0.348 -0.341 0.642 -0.04 0.61 -0.79 0.02
1 6.75 675 0.086 -9.161 1.963 5.920 -3.296 -0.092 -441.312 2535.898 -2964.769 0.354 -0.300 0.556 -0.05 0.61 -0.79 0.02
1 6.76 676 -0.120 -9.084 1.777 5.310 -3.052 -4.120 -441.312 2340.875 -3039.720 0.561 -0.373 0.755 -0.05 0.61 -0.79 0.02
1 6.77 677 -0.273 -9.022 1.671 6.622 -4.822 -5.829 -441.312 2340.875 -3039.720 0.719 -0.434 0.864 -0.05 0.61 -0.79 0.02
1 6.78 678 -0.201 -8.959 1.686 5.798 -6.958 -7.446 -486.283 2415.826 -2934.638 0.654 -0.495 0.855 -0.05 0.61 -0.79 0.02
1 6.79 679 -0.177 -8.835 1.724 4.211 -9.033 -8.545 -366.361 2295.904 -2934.638 0.641 -0.618 0.820 -0.05 0.61 -0.79 0.02
1 6.80 680 -0.215 -8.945 1.753 -0.183 -9.979 -9.522 -366.361 2295.904 -2934.638 0.691 -0.507 0.792 -0.05 0.61 -0.79 0.02
1 6.81 681 -0.134 -9.098 1.638 -2.869 -10.132 -9.033 -381.352 2430.816 -2979.759 0.623 -0.354 0.903 -0.05 0.61 -0.79 0.02
1 6.82 682 -0.096 -9.094 1.681 -5.005 -10.071 -8.698 -381.352 2400.836 -2904.658 0.599 -0.360 0.853 -0.05 0.61 -0.79 0.02
1 6.83 683 -0.374 -9.012 1.537 -2.869 -9.308 -8.667 -426.322 2505.917 -2979.759 0.901 -0.446 0.973 -0.05 0.61 -0.79 0.02
1 6.84 684 -0.388 -8.993 1.456 -1.160 -8.453 -8.911 -426.322 2505.917 -2979.759 0.927 -0.467 1.045 -0.05 0.61 -0.79 0.02
1 6.85 685 -0.560 -8.916 1.542 -1.678 -7.874 -9.918 -486.283 2265.924 -3039.720 1.110 -0.545 0.952 -0.05 0.61 -0.79 0.02
1 6.86 686 -1.034 -8.907 1.652 -5.005 -7.935 -11.902 -426.322 2355.865 -2874.677 1.595 -0.556 0.833 -0.05 0.61 -0.79 0.02
1 6.87 687 -1.250 -8.974 1.671 -8.484 -10.010 -11.841 -426.322 2355.865 -2874.677 1.821 -0.492 0.800 -0.05 0.61 -0.79 0.02
1 6.88 688 -1.010 -9.453 1.475 -11.353 -18.829 -12.573 -456.303 2550.888 -2979.759 1.591 -0.018 0.978 -0.05 0.61 -0.79 0.02
1 6.89 689 -0.364 -9.505 1.566 -10.040 -24.811 -10.956 -501.273 2400.836 -3024.729 0.958 0.030 0.865 -0.06 0.61 -0.79 0.02
1 6.90 690 0.153 -9.572 1.753 -4.089 -20.386 -9.186 -501.273 2550.888 -2979.759 0.473 0.089 0.638 -0.06 0.61 -0.79 0.02
1 6.91 691 0.182 -9.544 1.805 -2.869 -17.609 -9.064 -501.273 2550.888 -2979.759 0.462 0.059 0.574 -0.06 0.61 -0.79 0.02
1 6.92 692 0.048 -9.491 1.652 -4.425 -11.749 -6.042 -501.273 2400.836 -2979.759 0.610 0.005 0.720 -0.06 0.61 -0.79 0.02
1 6.93 693 0.096 -9.357 1.317 -7.385 -12.970 -6.775 -456.303 2430.816 -2979.759 0.572 -0.131 1.042 -0.06 0.61 -0.79 0.03
1 6.94 694 0.148 -9.424 1.274 -10.345 -14.374 -7.507 -456.303 2430.816 -2979.759 0.532 -0.068 1.067 -0.06 0.61 -0.79 0.03
1 6.95 695 0.211 -9.563 0.934 -14.069 -13.916 -6.409 -741.267 2370.855 -2964.769 0.483 0.066 1.383 -0.07 0.61 -0.79 0.03
1 6.96 696 0.402 -9.395 0.915 -15.076 -11.810 -6.042 -501.273 2505.917 -2874.677 0.303 -0.108 1.373 -0.07 0.62 -0.78 0.03
1 6.97 697 0.158 -9.328 0.637 -16.174 -9.216 -7.446 -501.273 2505.917 -2874.677 0.558 -0.182 1.619 -0.07 0.62 -0.78 0.03
1 6.98 698 -0.364 -9.817 1.312 -21.271 -9.796 -8.270 -666.316 2415.826 -2964.769 1.104 0.292 0.874 -0.07 0.62 -0.78 0.03
1 6.99 699 -0.484 -11.153 2.457 -27.008 -15.167 -5.371 -516.264 2415.826 -2814.716 1.233 1.620 -0.311 -0.07 0.62 -0.78 0.03
1 7.00 700 0.804 -13.695 4.037 -43.091 -24.445 7.782 -666.316 2610.849 -3009.739 -0.050 4.153 -1.937 -0.07 0.62 -0.78 0.03
1 7.01 701 2.615 -15.333 5.387 -53.925 -22.247 28.076 -666.316 2610.849 -3009.739 -1.870 5.774 -3.359 -0.07 0.63 -0.78 0.03
1 7.02 702 3.587 -14.869 5.100 -20.844 1.709 37.628 -741.267 2415.826 -2889.667 -2.881 5.292 -3.144 -0.07 0.63 -0.77 0.03
1 7.03 703 1.891 -11.603 2.854 36.499 30.731 33.173 -756.257 2550.888 -2769.746 -1.243 2.020 -0.908 -0.07 0.63 -0.77 0.03
1 7.04 704 0.354 -10.094 2.418 20.813 24.750 18.036 -756.257 2550.888 -2769.746 0.235 0.518 -0.422 -0.07 0.63 -0.78 0.03
1 7.05 705 -1.279 -10.803 3.160 -43.884 5.493 1.556 -786.238 2505.917 -2664.664 1.809 1.230 -1.133 -0.06 0.63 -0.78 0.03
1 7.06 706 -1.384 -12.067 3.357 -69.245 -1.617 0.885 -546.244 2535.898 -2889.667 1.908 2.479 -1.401 -0.06 0.63 -0.77 0.03
1 7.07 707 -1.489 -12.149 3.084 -56.793 -2.655 8.698 -531.254 2625.839 -2874.677 2.011 2.540 -1.229 -0.06 0.63 -0.77 0.03
1 7.08 708 -1.441 -11.047 2.322 -13.184 -3.784 12.360 -531.254 2625.839 -2874.677 1.950 1.425 -0.536 -0.06 0.64 -0.77 0.04
1 7.09 709 -1.666 -10.075 2.054 25.787 -11.871 8.637 -681.306 2475.787 -2874.677 2.161 0.452 -0.270 -0.06 0.64 -0.77 0.04
1 7.10 710 -1.025 -9.218 2.950 24.201 -34.149 12.482 -546.244 2610.849 -2784.736 1.504 -0.398 -1.121 -0.06 0.63 -0.77 0.04
1 7.11 711 0.201 -8.950 3.644 1.160 -42.847 23.377 -546.244 2610.849 -2784.736 0.258 -0.658 -1.770 -0.06 0.63 -0.77 0.04
1 7.12 712 2.112 -8.667 4.104 -9.460 -34.851 33.417 -441.312 2535.898 -2604.703 -1.709 -0.940 -2.212 -0.07 0.63 -0.77 0.05
1 7.13 713 2.677 -8.543 3.989 -4.211 -28.778 33.508 -531.254 2505.917 -2769.746 -2.302 -1.064 -2.090 -0.07 0.63 -0.77 0.05
1 7.14 714 3.357 -7.987 3.615 19.775 -9.949 24.353 -591.365 2490.927 -2784.736 -3.000 -1.615 -1.689 -0.07 0.63 -0.77 0.05
1 7.15 715 3.304 -7.848 3.520 23.956 -2.441 14.740 -591.365 2490.927 -2784.736 -2.953 -1.744 -1.546 -0.07 0.63 -0.77 0.05
1 7.16 716 2.643 -7.834 3.505 10.559 1.709 3.632 -576.225 2580.869 -2769.746 -2.286 -1.749 -1.486 -0.07 0.63 -0.77 0.05
1 7.17 717 1.906 -8.567 3.352 -21.332 3.540 -10.986 -576.225 2580.869 -2769.746 -1.531 -1.011 -1.311 -0.07 0.63 -0.78 0.05
1 7.18 718 1.523 -9.228 2.969 -27.435 4.669 -15.808 -576.225 2580.869 -2769.746 -1.119 -0.351 -0.939 -0.07 0.63 -0.78 0.05
1 7.19 719 1.288 -9.520 2.548 -17.517 5.798 -16.235 -516.264 2565.878 -2859.687 -0.852 -0.064 -0.545 -0.07 0.63 -0.77 0.05
1 7.20 720 0.886 -9.256 2.299 4.822 6.897 -13.794 -546.244 2715.931 -2859.687 -0.392 -0.329 -0.321 -0.07 0.63 -0.77 0.05
1 7.21 721 0.747 -9.060 2.322 9.247 4.852 -13.855 -696.296 2685.800 -2754.755 -0.230 -0.522 -0.331 -0.07 0.63 -0.77 0.05
1 7.22 722 0.464 -8.979 2.203 1.434 1.495 -14.404 -696.296 2685.800 -2754.755 0.076 -0.598 -0.195 -0.07 0.63 -0.77 0.05
1 7.23 723 0.527 -9.074 2.265 -6.866 -1.465 -12.451 -741.267 2565.878 -2784.736 0.035 -0.501 -0.255 -0.07 0.63 -0.77 0.04
1 7.24 724 0.603 -9.352 2.337 -10.407 -3.326 -6.958 -501.273 2475.787 -2769.746 -0.023 -0.224 -0.335 -0.07 0.63 -0.77 0.04
1 7.25 725 1.020 -9.601 2.303 -7.141 -5.219 -4.181 -501.273 2475.787 -2769.746 -0.426 0.024 -0.313 -0.07 0.63 -0.77 0.04
1 7.26 726 1.250 -9.443 2.270 -1.709 -6.592 -2.655 -651.326 2625.839 -2874.677 -0.646 -0.135 -0.288 -0.08 0.63 -0.77 0.04
1 7.27 727 1.729 -9.247 2.303 -1.953 -4.089 -1.495 -546.244 2685.800 -2754.755 -1.102 -0.330 -0.322 -0.08 0.63 -0.77 0.04
1 7.28 728 1.815 -9.343 2.466 -7.751 -2.899 -2.045 -546.244 2610.849 -2784.736 -1.175 -0.234 -0.487 -0.08 0.63 -0.77 0.04
1 7.29 729 1.963 -9.524 2.557 -11.108 -1.862 -1.312 -546.244 2610.849 -2784.736 -1.310 -0.053 -0.586 -0.08 0.63 -0.77 0.04
1 7.30 730 1.753 -9.615 2.576 -9.705 -0.092 -1.312 -576.225 2670.810 -2694.645 -1.086 0.037 -0.616 -0.08 0.63 -0.77 0.04
1 7.31 731 1.815 -9.635 2.571 -5.127 0.885 -1.587 -696.296 2565.878 -2859.687 -1.137 0.055 -0.618 -0.08 0.63 -0.77 0.04
1 7.32 732 1.829 -9.515 2.270 -0.763 2.991 -1.251 -696.296 2565.878 -2859.687 -1.140 -0.064 -0.317 -0.08 0.63 -0.77 0.04
1 7.33 733 1.714 -9.256 2.428 0.488 4.578 -1.617 -696.296 2760.901 -2709.635 -1.015 -0.321 -0.473 -0.08 0.63 -0.77 0.04
1 7.34 734 1.508 -8.955 2.275 -1.831 7.477 -4.334 -621.345 2715.931 -2814.716 -0.788 -0.619 -0.309 -0.08 0.63 -0.77 0.04
1 7.35 735 1.212 -9.046 1.973 -3.052 7.294 -4.944 -651.326 2670.810 -2694.645 -0.479 -0.527 -0.007 -0.08 0.63 -0.77 0.04
1 7.36 736 1.202 -9.232 2.222 -5.951 5.920 -6.012 -651.326 2670.810 -2694.645 -0.458 -0.340 -0.259 -0.08 0.63 -0.77 0.04
1 7.37 737 1.446 -9.299 2.231 -5.493 5.615 -5.737 -651.326 2670.810 -2694.645 -0.689 -0.273 -0.273 -0.08 0.63 -0.77 0.04
1 7.38 738 1.671 -9.170 2.337 -4.211 7.355 -3.967 -606.355 2625.839 -2664.664 -0.901 -0.402 -0.382 -0.08 0.63 -0.77 0.04
1 7.39 739 1.724 -9.175 2.121 -3.418 11.444 -0.580 -606.355 2625.839 -2664.664 -0.943 -0.397 -0.167 -0.08 0.63 -0.77 0.04
1 7.40 740 1.719 -9.084 2.102 -3.021 12.177 0.397 -651.326 2550.888 -2769.746 -0.932 -0.487 -0.149 -0.08 0.63 -0.77 0.03
1 7.41 741 1.733 -9.065 2.021 -4.272 12.756 0.092 -651.326 2550.888 -2769.746 -0.942 -0.506 -0.068 -0.08 0.63 -0.77 0.03
1 7.42 742 1.595 -9.070 2.030 -3.326 14.008 -0.732 -531.254 2745.911 -2799.726 -0.794 -0.501 -0.081 -0.08 0.63 -0.77 0.03
1 7.43 743 1.585 -9.208 2.073 -2.533 14.618 -0.549 -531.254 2745.911 -2799.726 -0.780 -0.362 -0.125 -0.08 0.63 -0.77 0.03
1 7.44 744 1.470 -9.218 1.848 -1.740 16.785 0.000 -531.254 2430.816 -2724.775 -0.662 -0.352 0.102 -0.08 0.63 -0.77 0.03
1 7.45 745 1.413 -8.998 1.896 -1.495 19.623 2.045 -681.306 2505.917 -2724.775 -0.604 -0.572 0.055 -0.08 0.63 -0.77 0.03
1 7.46 746 1.183 -9.108 1.652 -2.563 21.301 3.296 -681.306 2505.917 -2724.775 -0.377 -0.462 0.301 -0.08 0.63 -0.77 0.03
1 7.47 747 1.235 -9.060 1.532 -3.998 21.698 4.181 -486.283 2715.931 -2754.755 -0.437 -0.510 0.419 -0.07 0.63 -0.77 0.03
1 7.48 748 1.159 -9.132 1.551 -4.150 19.409 4.883 -486.283 2715.931 -2754.755 -0.369 -0.440 0.396 -0.07 0.63 -0.77 0.03
1 7.49 749 1.264 -9.189 1.676 -5.249 19.653 6.134 -576.225 2625.839 -2724.775 -0.491 -0.386 0.260 -0.07 0.63 -0.77 0.02
1 7.50 750 1.360 -9.208 1.642 -5.280 22.095 6.775 -576.225 2625.839 -2724.775 -0.596 -0.369 0.288 -0.07 0.63 -0.77 0.02
1 7.51 751 0.953 -9.323 1.461 -5.615 24.597 7.446 -621.345 2790.882 -2709.635 -0.201 -0.256 0.465 -0.07 0.63 -0.77 0.02
1 7.52 752 0.728 -9.429 1.341 -5.859 24.078 6.165 -621.345 2715.931 -2754.755 0.010 -0.153 0.578 -0.07 0.63 -0.77 0.02
1 7.53 753 0.474 -9.395 1.168 -5.859 21.851 5.951 -621.345 2715.931 -2754.755 0.250 -0.190 0.741 -0.06 0.63 -0.77 0.02
1 7.54 754 0.297 -9.472 1.183 -3.143 17.487 4.395 -546.244 2760.901 -2754.755 0.412 -0.116 0.718 -0.06 0.63 -0.77 0.02
1 7.55 755 0.426 -9.524 1.250 -1.495 15.472 3.052 -546.244 2760.901 -2754.755 0.269 -0.066 0.644 -0.06 0.63 -0.77 0.02
1 7.56 756 0.354 -9.390 1.322 -1.190 11.810 2.258 -591.365 2610.849 -2709.635 0.321 -0.203 0.563 -0.06 0.63 -0.77 0.02
1 7.57 757 0.407 -9.486 1.149 -0.580 9.766 1.801 -591.365 2610.849 -2709.635 0.262 -0.108 0.732 -0.06 0.63 -0.77 0.02
1 7.58 758 0.723 -9.692 1.159 1.282 5.707 1.099 -501.273 2580.869 -2799.726 -0.059 0.097 0.721 -0.06 0.63 -0.77 0.02
1 7.59 759 1.058 -9.817 1.216 0.977 4.700 2.655 -576.225 2580.869 -2799.726 -0.397 0.221 0.662 -0.06 0.63 -0.77 0.02
1 7.60 760 1.216 -9.735 1.082 0.824 4.669 4.303 -576.225 2580.869 -2799.726 -0.558 0.139 0.794 -0.06 0.63 -0.77 0.02
1 7.61 761 1.671 -9.678 1.010 -0.488 5.371 4.883 -501.273 2700.791 -2799.726 -1.015 0.081 0.863 -0.06 0.63 -0.77 0.02
1 7.62 762 1.805 -9.778 0.915 -4.334 5.829 4.059 -501.273 2700.791 -2799.726 -1.150 0.181 0.956 -0.06 0.63 -0.77 0.02
1 7.63 763 1.743 -10.109 0.919 -7.751 8.301 5.249 -546.244 2715.931 -2814.716 -1.086 0.509 0.941 -0.06 0.63 -0.77 0.02
1 7.64 764 1.326 -10.616 1.149 -10.468 10.162 5.646 -411.332 2790.882 -2784.736 -0.670 1.010 0.675 -0.06 0.64 -0.77 0.02
1 7.65 765 0.934 -11.109 1.743 -7.721 9.247 3.235 -576.225 2745.911 -2844.697 -0.282 1.499 0.062 -0.06 0.64 -0.77 0.02
1 7.66 766 0.330 -12.115 2.931 -5.890 6.439 -4.822 -456.303 2850.843 -2844.697 0.318 2.503 -1.134 -0.06 0.64 -0.77 0.02
1 7.67 767 -0.651 -13.566 4.525 -7.599 -1.099 -20.844 -456.303 2850.843 -2844.697 1.313 3.953 -2.737 -0.06 0.64 -0.77 0.01
1 7.68 768 -1.642 -15.481 4.080 0.641 -22.430 -44.006 -591.365 2685.800 -2859.687 2.345 5.870 -2.302 -0.06 0.64 -0.77 0.01
1 7.69 769 -0.306 -13.422 2.825 33.600 -39.307 -22.858 -591.365 2685.800 -2859.687 1.078 3.815 -1.052 -0.06 0.64 -0.77 0.01
1 7.70 770 1.786 -11.263 2.117 61.310 -25.665 0.549 -486.283 2760.901 -2814.716 -0.960 1.666 -0.311 -0.06 0.64 -0.77 0.01
1 7.71 771 3.180 -9.960 1.384 22.644 3.021 17.517 -531.254 2670.810 -2769.746 -2.348 0.395 0.579 -0.07 0.63 -0.77 0.01
1 7.72 772 3.553 -9.836 1.714 -23.529 -1.434 27.405 -381.352 2745.911 -2769.746 -2.735 0.272 0.261 -0.07 0.63 -0.77 0.01
1 7.73 773 4.104 -10.525 2.528 -53.314 -5.951 25.696 -516.264 2685.800 -2934.638 -3.304 0.949 -0.604 -0.07 0.63 -0.77 0.02
1 7.74 774 4.180 -11.287 3.644 -53.406 5.585 18.097 -516.264 2685.800 -2934.638 -3.413 1.692 -1.801 -0.06 0.63 -0.77 0.02
1 7.75 775 2.595 -11.694 3.941 -24.750 28.565 11.108 -696.296 2685.800 -2934.638 -1.854 2.084 -2.165 -0.06 0.64 -0.77 0.02
1 7.76 776 -0.455 -11.133 3.812 24.719 33.356 4.364 -696.296 2685.800 -2934.638 1.174 1.519 -2.054 -0.06 0.64 -0.77 0.02
1 7.77 777 -1.125 -10.161 4.080 38.483 21.515 1.801 -501.273 2745.911 -2799.726 1.828 0.552 -2.290 -0.06 0.64 -0.77 0.01
1 7.78 778 -0.905 -8.145 3.955 44.129 10.345 3.235 -426.322 2820.862 -2769.746 1.586 -1.441 -2.036 -0.06 0.63 -0.77 0.01
1 7.79 779 -0.814 -7.547 3.888 44.830 9.522 3.906 -456.303 2670.810 -2664.664 1.476 -2.023 -1.885 -0.05 0.63 -0.78 0.01
1 7.80 780 -1.518 -6.292 3.591 46.509 15.869 1.587 -426.322 2775.892 -2949.628 2.172 -3.263 -1.517 -0.05 0.63 -0.78 0.01
1 7.81 781 -2.279 -5.967 3.213 40.283 13.397 -4.669 -426.322 2775.892 -2949.628 2.929 -3.574 -1.070 -0.05 0.62 -0.78 0.01
1 7.82 782 -2.576 -6.302 2.653 24.445 -2.838 -9.979 -426.322 2745.911 -2769.746 3.232 -3.226 -0.453 -0.05 0.62 -0.78 0.01
1 7.83 783 -1.087 -8.165 3.156 -25.604 -33.264 -9.888 -426.322 2745.911 -2769.746 1.763 -1.355 -0.929 -0.05 0.62 -0.78 0.01
1 7.84 784 0.244 -9.558 3.864 -55.512 -33.997 -5.402 -291.260 2760.901 -2889.667 0.458 0.034 -1.663 -0.06 0.62 -0.78 0.01
1 7.85 785 0.948 -10.746 4.295 -48.554 -17.578 0.092 -486.283 2565.878 -2859.687 -0.227 1.207 -2.164 -0.06 0.62 -0.78 0.01
1 7.86 786 0.680 -11.172 3.788 19.043 3.021 3.632 -501.273 2670.810 -2904.658 0.048 1.613 -1.754 -0.06 0.63 -0.78 0.01
1 7.87 787 -0.091 -10.382 3.381 49.988 4.456 5.066 -456.303 2580.869 -2799.726 0.813 0.832 -1.303 -0.06 0.62 -0.78 0.01
1 7.88 788 -1.068 -9.524 3.012 45.197 2.441 8.911 -456.303 2580.869 -2799.726 1.782 -0.009 -0.857 -0.06 0.62 -0.78 0.01
1 7.89 789 -1.504 -9.180 2.859 22.156 -0.549 14.984 -516.264 2790.882 -3009.739 2.192 -0.341 -0.639 -0.06 0.62 -0.78 0.02
1 7.90 790 -1.101 -9.137 2.634 5.493 -5.341 17.304 -516.264 2790.882 -3009.739 1.753 -0.379 -0.382 -0.06 0.62 -0.78 0.02
1 7.91 791 -0.330 -9.084 2.686 11.719 -7.324 12.268 -366.361 2715.931 -3039.720 0.947 -0.431 -0.423 -0.06 0.62 -0.78 0.02
1 7.92 792 -0.134 -9.050 2.682 22.888 -2.014 8.667 -486.283 2610.849 -3009.739 0.726 -0.462 -0.401 -0.05 0.62 -0.78 0.02
1 7.93 793 -0.752 -8.926 2.380 21.027 3.113 7.202 -381.352 2745.911 -2979.759 1.310 -0.570 -0.024 -0.05 0.61 -0.79 0.02
1 7.94 794 -1.121 -8.921 2.265 10.101 -0.244 7.019 -456.303 2625.839 -2904.658 1.660 -0.569 0.121 -0.05 0.61 -0.79 0.02
1 7.95 795 -1.188 -9.232 2.145 5.524 -4.456 7.385 -456.303 2625.839 -2904.658 1.706 -0.255 0.253 -0.05 0.61 -0.79 0.02
1 7.96 796 -0.833 -9.204 2.164 9.827 -7.599 7.202 -381.352 2580.869 -3024.729 1.332 -0.283 0.244 -0.05 0.61 -0.79 0.02
1 7.97 797 -0.838 -9.113 2.131 15.564 -9.369 7.202 -381.352 2580.869 -3024.729 1.320 -0.370 0.293 -0.05 0.61 -0.79 0.03
1 7.98 798 -0.532 -8.840 2.126 18.890 -12.054 6.470 -426.322 2580.869 -2949.628 0.998 -0.638 0.321 -0.05 0.61 -0.79 0.03
1 7.99 799 -0.345 -8.672 2.265 16.357 -12.512 5.035 -336.231 2490.927 -3114.671 0.799 -0.799 0.209 -0.05 0.61 -0.79 0.03
1 8.00 800 -0.172 -8.615 2.198 10.407 -11.414 2.747 -381.352 2625.839 -2949.628 0.613 -0.846 0.321 -0.05 0.61 -0.79 0.03
1 8.01 801 -0.091 -8.653 2.212 9.125 -10.712 2.075 -411.332 2415.826 -3039.720 0.528 -0.804 0.321 -0.05 0.61 -0.79 0.03
1 8.02 802 -0.163 -8.624 2.169 8.850 -10.315 -1.129 -411.332 2415.826 -3039.720 0.601 -0.829 0.376 -0.05 0.61 -0.79 0.03
1 8.03 803 -0.268 -8.782 1.935 9.125 -9.979 -2.441 -441.312 2610.849 -3069.700 0.710 -0.668 0.623 -0.05 0.61 -0.79 0.03
1 8.04 804 -0.397 -8.720 1.944 7.202 -9.979 -3.143 -441.312 2610.849 -3069.700 0.843 -0.727 0.624 -0.05 0.61 -0.79 0.03
1 8.05 805 -0.383 -8.811 1.599 3.723 -12.360 -4.547 -366.511 2535.448 -3250.782 0.833 -0.634 0.976 -0.05 0.6 -0.79 0.03
1 8.06 806 -0.455 -8.725 1.623 2.563 -12.604 -5.096 -291.560 2610.549 -3070.750 0.912 -0.719 0.954 -0.05 0.6 -0.79 0.03
1 8.07 807 -0.244 -8.792 1.504 1.892 -13.672 -5.951 -291.560 2610.549 -3070.750 0.707 -0.652 1.072 -0.05 0.6 -0.79 0.03
1 8.08 808 -0.043 -8.840 1.590 -1.099 -14.069 -7.996 -381.501 2670.510 -3055.759 0.527 -0.605 0.979 -0.06 0.6 -0.79 0.03
1 8.09 809 -0.014 -8.734 1.475 -3.571 -14.099 -8.423 -381.501 2670.510 -3055.759 0.513 -0.712 1.086 -0.06 0.6 -0.79 0.03
1 8.10 810 -0.144 -8.897 1.384 -5.676 -11.841 -9.857 -351.521 2580.569 -2980.808 0.658 -0.551 1.165 -0.06 0.61 -0.79 0.03
1 8.11 811 -0.287 -8.959 1.508 -8.179 -11.322 -11.108 -351.521 2580.569 -2980.808 0.817 -0.492 1.026 -0.06 0.61 -0.79 0.03
1 8.12 812 -0.464 -9.184 1.259 -12.268 -11.749 -12.878 -441.462 2415.526 -3145.851 1.011 -0.271 1.256 -0.06 0.61 -0.79 0.03
1 8.13 813 -0.350 -9.539 1.250 -14.099 -15.869 -11.688 -426.472 2670.510 -3025.779 0.914 0.078 1.242 -0.06 0.61 -0.79 0.03
1 8.14 814 0.014 -9.606 1.393 -14.160 -19.165 -9.918 -426.472 2670.510 -3025.779 0.567 0.139 1.071 -0.06 0.61 -0.79 0.03
1 8.15 815 0.603 -9.587 1.781 -11.200 -17.609 -7.324 -696.446 2565.579 -3070.750 0.011 0.107 0.626 -0.07 0.61 -0.79 0.03
1 8.16 816 0.479 -9.721 1.939 -8.331 -11.383 -4.791 -696.446 2565.579 -3070.750 0.152 0.237 0.448 -0.07 0.61 -0.79 0.03
1 8.17 817 0.096 -9.841 2.030 -8.514 -6.470 -2.594 -606.505 2670.510 -3130.860 0.545 0.354 0.342 -0.07 0.61 -0.79 0.03
1 8.18 818 -0.182 -9.778 1.805 -11.597 -4.120 -1.648 -606.505 2670.510 -3130.860 0.826 0.288 0.552 -0.07 0.61 -0.79 0.03
1 8.19 819 -0.412 -9.817 1.566 -12.665 -4.791 -1.831 -531.554 2580.569 -3055.759 1.055 0.321 0.770 -0.07 0.61 -0.79 0.03
1 8.20 820 -0.441 -9.826 1.235 -10.345 -7.477 -2.380 -621.495 2565.579 -3010.789 1.081 0.325 1.079 -0.07 0.61 -0.79 0.04
1 8.21 821 -0.340 -9.663 1.207 -9.918 -8.118 -1.648 -621.495 2565.579 -3010.789 0.979 0.157 1.085 -0.07 0.62 -0.78 0.04
1 8.22 822 -0.445 -9.529 1.226 -13.184 -6.958 -2.228 -651.476 2580.569 -2950.828 1.083 0.012 1.021 -0.07 0.62 -0.78 0.04
1 8.23 823 -0.536 -9.659 1.221 -15.350 -6.165 -2.655 -651.476 2580.569 -2950.828 1.173 0.134 0.998 -0.07 0.62 -0.78 0.04
1 8.24 824 -0.982 -9.841 1.015 -20.416 -4.730 -1.007 -681.456 2700.491 -2980.808 1.615 0.308 1.171 -0.07 0.62 -0.78 0.04
1 8.25 825 -1.140 -10.228 1.839 -21.179 -8.026 2.045 -681.456 2700.491 -2980.808 1.765 0.687 0.309 -0.07 0.62 -0.78 0.04
1 8.26 826 -0.570 -11.703 3.180 -25.330 -15.991 7.141 -591.515 2640.530 -3040.769 1.181 2.153 -1.068 -0.07 0.62 -0.78 0.04
1 8.27 827 2.121 -14.318 5.564 -42.694 -19.623 28.534 -681.456 2700.491 -3055.759 -1.517 4.758 -3.496 -0.07 0.62 -0.78 0.04
1 8.28 828 3.429 -14.299 5.789 -21.698 0.397 41.077 -681.456 2700.491 -3055.759 -2.853 4.724 -3.782 -0.07 0.63 -0.78 0.04
1 8.29 829 2.974 -12.714 4.573 13.458 24.872 44.922 -681.456 2625.540 -2950.828 -2.451 3.127 -2.608 -0.07 0.63 -0.77 0.04
1 8.30 830 0.364 -9.946 2.447 17.151 32.929 26.489 -651.476 2850.543 -2980.808 0.024 0.363 -0.432 -0.06 0.63 -0.77 0.05
1 8.31 831 -1.092 -9.563 2.097 -14.130 20.233 9.857 -666.466 2880.523 -2965.818 1.439 -0.018 -0.064 -0.06 0.63 -0.78 0.05
1 8.32 832 -1.877 -10.003 2.576 -46.570 5.280 -2.594 -666.466 2880.523 -2965.818 2.202 0.416 -0.574 -0.06 0.63 -0.77 0.05
1 8.33 833 -1.781 -11.608 2.797 -62.439 -6.714 -9.918 -591.515 2685.500 -2860.886 2.098 2.005 -0.866 -0.06 0.63 -0.77 0.05
1 8.34 834 -1.441 -12.560 2.888 -52.063 -12.085 -8.148 -591.515 2760.452 -3010.789 1.777 2.941 -1.047 -0.06 0.63 -0.77 0.05
1 8.35 835 -1.370 -11.368 2.710 1.953 -11.932 3.632 -591.515 2760.452 -3010.789 1.719 1.737 -0.935 -0.06 0.64 -0.77 0.05
1 8.36 836 -1.240 -10.133 2.825 22.278 -18.707 6.653 -442.062 2910.654 -2757.454 1.592 0.499 -1.061 -0.06 0.64 -0.77 0.05
1 8.37 837 -0.704 -9.568 3.544 0.854 -37.781 14.313 -502.023 2970.615 -2907.506 1.037 -0.055 -1.720 -0.06 0.63 -0.77 0.05
1 8.38 838 0.101 -9.323 3.874 -13.214 -41.596 24.445 -532.003 2895.664 -2907.506 0.210 -0.299 -2.045 -0.07 0.63 -0.77 0.05
1 8.39 839 0.972 -9.065 3.855 -10.651 -38.757 30.243 -532.003 2895.664 -2907.506 -0.691 -0.560 -2.032 -0.07 0.63 -0.77 0.06
1 8.40 840 1.839 -8.318 3.515 5.707 -32.318 28.961 -652.075 2850.543 -2907.506 -1.587 -1.307 -1.688 -0.07 0.63 -0.77 0.06
1 8.41 841 2.648 -7.978 3.218 22.186 -25.940 21.698 -667.065 2835.553 -2892.366 -2.416 -1.642 -1.361 -0.07 0.63 -0.77 0.06
1 8.42 842 2.998 -7.781 3.170 15.045 -17.731 3.662 -667.065 2835.553 -2892.366 -2.769 -1.829 -1.267 -0.07 0.63 -0.77 0.07
1 8.43 843 2.830 -8.035 3.237 -7.202 -12.970 -8.972 -622.095 2760.602 -2967.467 -2.584 -1.567 -1.294 -0.07 0.63 -0.77 0.07
1 8.44 844 2.231 -9.223 3.237 -28.259 -8.148 -20.203 -427.072 2895.664 -2982.457 -1.904 -0.379 -1.304 -0.07 0.63 -0.77 0.06
1 8.45 845 2.140 -9.477 3.007 -26.123 -5.768 -22.003 -682.056 2700.641 -3057.408 -1.764 -0.129 -1.103 -0.08 0.63 -0.77 0.06
1 8.46 846 1.465 -9.759 2.485 -3.784 -3.662 -20.935 -682.056 2700.641 -3057.408 -1.041 0.152 -0.597 -0.08 0.63 -0.77 0.06
1 8.47 847 1.302 -9.654 2.279 9.918 -5.005 -19.165 -667.065 2880.673 -2892.366 -0.838 0.050 -0.386 -0.08 0.63 -0.77 0.06
1 8.48 848 1.144 -9.462 2.471 11.444 -8.240 -18.921 -606.955 2850.543 -2907.506 -0.642 -0.136 -0.558 -0.08 0.63 -0.77 0.06
1 8.49 849 1.245 -9.443 2.634 0.305 -10.986 -12.878 -606.955 2850.543 -2907.506 -0.706 -0.150 -0.703 -0.08 0.63 -0.77 0.06
1 8.50 850 1.504 -9.390 2.571 -2.472 -10.559 -7.568 -591.964 2790.582 -2937.486 -0.934 -0.199 -0.633 -0.08 0.63 -0.77 0.06
1 8.51 851 1.609 -9.443 2.662 0.671 -7.477 -4.364 -652.075 2820.562 -2982.457 -1.017 -0.144 -0.721 -0.09 0.63 -0.77 0.06
1 8.52 852 1.810 -9.386 2.519 2.594 -3.906 0.031 -697.046 2790.582 -2817.415 -1.186 -0.197 -0.565 -0.09 0.63 -0.77 0.06
1 8.53 853 1.781 -9.156 2.509 0.885 -2.136 1.770 -697.046 2790.582 -2817.415 -1.148 -0.425 -0.547 -0.09 0.63 -0.77 0.06
1 8.54 854 1.753 -8.983 2.442 -0.671 -0.092 1.862 -697.046 2910.654 -2892.366 -1.111 -0.595 -0.473 -0.09 0.63 -0.77 0.06
1 8.55 855 1.623 -8.979 2.404 -2.777 -0.061 0.214 -667.065 2760.602 -2892.366 -0.973 -0.599 -0.431 -0.09 0.63 -0.77 0.06
1 8.56 856 1.772 -9.247 2.389 -5.646 -1.221 -0.885 -667.065 2760.602 -2892.366 -1.113 -0.330 -0.417 -0.09 0.63 -0.77 0.06
1 8.57 857 1.829 -9.386 2.361 -3.662 -0.336 -0.580 -697.046 2760.602 -2817.415 -1.159 -0.191 -0.393 -0.09 0.63 -0.77 0.06
1 8.58 858 1.906 -9.285 2.380 0.092 2.289 -1.587 -667.065 2685.650 -2937.486 -1.224 -0.292 -0.414 -0.09 0.63 -0.77 0.06
1 8.59 859 1.896 -9.165 2.246 3.784 7.324 -1.862 -727.026 2745.611 -3027.428 -1.190 -0.407 -0.270 -0.09 0.63 -0.77 0.05
1 8.60 860 1.935 -8.950 2.136 5.432 9.522 -2.350 -727.026 2745.611 -3027.428 -1.218 -0.620 -0.149 -0.09 0.62 -0.77 0.05
1 8.61 861 1.647 -8.830 2.026 5.219 10.956 -2.350 -667.065 2880.673 -2937.486 -0.919 -0.736 -0.027 -0.09 0.62 -0.77 0.05
1 8.62 862 1.508 -9.003 2.059 2.167 11.383 -3.845 -771.997 2955.625 -2937.486 -0.770 -0.561 -0.050 -0.09 0.62 -0.77 0.05
1 8.63 863 1.499 -9.065 2.136 -0.702 12.604 -2.289 -771.997 2955.625 -2937.486 -0.751 -0.497 -0.121 -0.09 0.62 -0.77 0.05
1 8.64 864 1.173 -9.252 2.069 -1.343 15.045 0.336 -697.046 2835.553 -2862.385 -0.420 -0.309 -0.052 -0.09 0.62 -0.77 0.05
1 8.65 865 0.943 -9.218 2.030 1.373 16.632 2.136 -682.056 2775.592 -2802.424 -0.188 -0.342 -0.011 -0.09 0.62 -0.78 0.05
1 8.66 866 0.948 -9.017 1.824 5.646 15.503 4.608 -667.065 2715.631 -2937.486 -0.204 -0.541 0.207 -0.09 0.62 -0.78 0.05
1 8.67 867 1.144 -8.849 1.901 6.134 14.648 5.157 -667.065 2715.631 -2937.486 -0.409 -0.707 0.141 -0.09 0.62 -0.78 0.05
1 8.68 868 1.312 -8.758 1.834 2.869 13.763 4.303 -591.964 2880.673 -2937.486 -0.583 -0.797 0.218 -0.08 0.62 -0.78 0.05
1 8.69 869 1.346 -8.696 1.810 -2.167 16.174 4.364 -606.955 2775.592 -2952.477 -0.621 -0.858 0.247 -0.08 0.62 -0.78 0.04
1 8.70 870 1.451 -8.725 1.738 -4.517 17.151 3.815 -606.955 2775.592 -2952.477 -0.732 -0.830 0.316 -0.08 0.62 -0.78 0.04
1 8.71 871 1.149 -8.691 1.547 -4.334 19.775 1.068 -727.026 2700.641 -3027.428 -0.434 -0.865 0.503 -0.08 0.62 -0.78 0.04
1 8.72 872 1.178 -8.883 1.489 -4.974 19.684 -0.092 -517.013 2880.673 -2967.467 -0.465 -0.675 0.555 -0.08 0.62 -0.78 0.04
1 8.73 873 1.331 -9.141 1.590 -7.477 20.508 -1.678 -517.013 2880.673 -2967.467 -0.619 -0.418 0.449 -0.08 0.62 -0.78 0.04
1 8.74 874 1.370 -9.333 1.470 -9.430 20.966 -4.547 -591.964 2760.602 -2892.366 -0.653 -0.230 0.547 -0.08 0.63 -0.78 0.04
1 8.75 875 1.097 -9.558 1.542 -7.141 22.308 -3.571 -576.974 2925.644 -2847.395 -0.375 -0.008 0.462 -0.08 0.63 -0.78 0.04
1 8.76 876 0.982 -9.548 1.595 -4.364 23.224 -2.258 -427.072 3000.595 -2952.477 -0.257 -0.019 0.399 -0.08 0.63 -0.77 0.03
1 8.77 877 0.867 -9.213 1.638 -1.617 23.224 0.336 -427.072 3000.595 -2952.477 -0.144 -0.355 0.353 -0.07 0.63 -0.77 0.03
1 8.78 878 0.982 -9.098 1.542 -0.122 22.827 -0.763 -576.974 3000.595 -2982.457 -0.263 -0.470 0.449 -0.07 0.63 -0.77 0.03
1 8.79 879 1.015 -9.141 1.494 -1.434 20.233 -2.075 -652.075 2895.664 -3057.408 -0.298 -0.427 0.498 -0.07 0.63 -0.78 0.03
1 8.80 880 1.092 -9.074 1.575 -3.937 19.623 -0.702 -652.075 2895.664 -3057.408 -0.375 -0.494 0.416 -0.07 0.63 -0.78 0.03
1 8.81 881 1.001 -9.242 1.393 -6.378 21.393 -2.106 -606.955 2850.543 -2877.375 -0.285 -0.329 0.585 -0.07 0.63 -0.77 0.03
1 8.82 882 0.895 -9.491 1.417 -4.913 19.806 -2.808 -606.955 2670.660 -2952.477 -0.179 -0.082 0.553 -0.07 0.63 -0.77 0.03
1 8.83 883 0.991 -9.625 1.437 -3.296 17.944 -2.045 -502.023 2970.615 -3027.428 -0.273 0.051 0.527 -0.07 0.63 -0.77 0.02
1 8.84 884 0.895 -9.831 1.619 -1.923 16.022 -1.617 -502.023 2970.615 -3027.428 -0.177 0.255 0.339 -0.07 0.63 -0.77 0.02
1 8.85 885 1.125 -9.740 1.690 -1.129 15.381 -2.197 -442.062 3060.556 -3072.398 -0.406 0.164 0.264 -0.07 0.63 -0.77 0.02
1 8.86 886 1.063 -9.668 1.528 -1.190 17.151 -3.082 -532.003 2820.562 -3057.408 -0.341 0.092 0.426 -0.06 0.63 -0.77 0.02
1 8.87 887 1.015 -9.587 1.111 -0.671 15.198 -3.448 -532.003 2820.562 -3057.408 -0.290 0.011 0.841 -0.06 0.63 -0.77 0.02
1 8.88 888 1.322 -9.745 0.876 -0.977 11.871 -5.310 -457.052 2925.644 -3057.408 -0.586 0.168 1.070 -0.06 0.63 -0.77 0.02
1 8.89 889 1.408 -9.812 1.025 -2.747 10.284 -5.829 -457.052 2820.562 -3027.428 -0.662 0.234 0.914 -0.06 0.63 -0.77 0.02
1 8.90 890 1.360 -10.583 2.524 -8.820 7.202 -10.468 -427.072 2895.664 -2982.457 -0.601 1.004 -0.598 -0.06 0.63 -0.77 0.01
1 8.91 891 0.613 -12.034 3.275 -16.357 5.463 -27.466 -427.072 2895.664 -2982.457 0.169 2.454 -1.364 -0.06 0.63 -0.77 0.01
1 8.92 892 -0.517 -13.643 3.788 -25.879 -6.012 -44.861 -427.072 2820.562 -3102.379 1.347 4.062 -1.903 -0.06 0.63 -0.77 0.01
1 8.93 893 -0.579 -13.820 3.831 6.653 -23.285 -41.687 -546.994 2880.673 -2937.486 1.479 4.238 -1.980 -0.07 0.63 -0.77 0.01
1 8.94 894 0.201 -13.389 2.615 21.454 -23.682 -33.051 -546.994 2880.673 -2937.486 0.767 3.814 -0.766 -0.07 0.63 -0.77 0.01
1 8.95 895 1.432 -11.603 1.959 26.215 -21.301 -5.219 -486.583 2955.625 -3251.082 -0.401 2.039 -0.085 -0.07 0.63 -0.77 0.01
1 8.96 896 3.165 -10.573 1.633 -1.282 -7.202 9.430 -516.563 3105.677 -3011.088 -2.112 1.024 0.302 -0.08 0.63 -0.77 0.01
1 8.97 897 3.778 -10.966 1.997 -33.295 -6.989 17.883 -621.645 2880.673 -3041.069 -2.739 1.412 -0.076 -0.07 0.63 -0.77 0.01
1 8.98 898 4.645 -11.287 2.581 -48.889 -1.160 21.942 -621.645 2880.673 -3041.069 -3.631 1.719 -0.717 -0.07 0.63 -0.77 0.01
1 8.99 899 4.669 -11.818 3.524 -46.967 11.993 18.250 -651.625 3045.716 -3101.180 -3.686 2.234 -1.732 -0.07 0.63 -0.77 0.01
1 9.00 900 2.433 -11.507 4.109 -16.785 33.356 10.040 -501.573 3000.595 -2981.108 -1.478 1.909 -2.376 -0.07 0.64 -0.77 0.01
1 9.01 901 0.685 -11.148 3.663 5.341 39.856 8.759 -501.573 3000.595 -2981.108 0.247 1.542 -1.958 -0.07 0.64 -0.77 0.01
1 9.02 902 -0.134 -10.382 3.376 18.463 36.896 8.362 -546.544 2910.654 -3011.088 1.044 0.775 -1.664 -0.07 0.64 -0.77 0.01
1 9.03 903 -0.642 -8.792 3.639 27.985 23.743 2.136 -516.563 2955.625 -3011.088 1.509 -0.805 -1.852 -0.06 0.64 -0.77 0
1 9.04 904 -0.833 -7.916 3.749 32.379 21.271 -3.784 -516.563 2880.673 -3011.088 1.684 -1.671 -1.901 -0.06 0.63 -0.77 0
1 9.05 905 -1.350 -7.231 3.453 33.356 23.285 -8.118 -516.563 2880.673 -3011.088 2.198 -2.344 -1.544 -0.06 0.63 -0.77 0
1 9.06 906 -2.131 -6.896 3.041 29.144 23.010 -10.132 -441.612 2910.654 -2966.118 2.987 -2.668 -1.079 -0.06 0.63 -0.77 0
1 9.07 907 -2.610 -6.919 2.538 18.555 13.275 -11.536 -531.554 2970.615 -3056.059 3.476 -2.634 -0.533 0.06 -0.63 0.78 0
1 9.08 908 -2.399 -7.858 2.624 -10.437 -11.047 -6.348 -531.554 2970.615 -3056.059 3.279 -1.689 -0.595 0.06 -0.63 0.78 0
1 9.09 909 -1.456 -8.658 2.993 -28.198 -21.607 -0.732 -321.541 2820.712 -3056.059 2.350 -0.890 -0.971 0.06 -0.63 0.78 0
1 9.10 910 0.014 -10.281 3.467 -30.335 -16.602 7.568 -426.622 2775.592 -3101.180 0.868 0.717 -1.520 -0.06 0.63 -0.77 0
1 9.11 911 0.479 -10.683 3.448 -21.057 -11.078 10.162 -426.622 3000.595 -3026.079 0.391 1.111 -1.534 -0.06 0.63 -0.77 0
1 9.12 912 0.469 -10.434 3.247 18.890 -1.007 16.144 -426.622 3000.595 -3026.079 0.383 0.860 -1.335 -0.06 0.63 -0.77 0
1 9.13 913 0.177 -9.864 3.079 33.478 -1.312 16.693 -501.573 2820.712 -3056.059 0.652 0.296 -1.131 -0.06 0.63 -0.77 0
1 9.14 914 -0.239 -9.347 2.883 27.710 -2.838 16.296 -576.524 2970.615 -3026.079 1.042 -0.212 -0.877 -0.06 0.63 -0.78 0
1 9.15 915 -0.201 -9.031 2.581 5.798 -5.371 19.653 -576.524 2970.615 -3026.079 0.974 -0.521 -0.533 -0.06 0.63 -0.78 0.01
1 9.16 916 0.091 -9.031 2.442 2.747 -4.791 18.738 -246.589 3090.687 -3056.059 0.650 -0.519 -0.375 -0.05 0.63 -0.78 0.01
1 9.17 917 0.431 -8.931 2.284 8.118 -2.502 15.106 -246.589 3090.687 -3056.059 0.278 -0.621 -0.208 -0.05 0.63 -0.78 0.01
1 9.18 918 0.120 -8.955 2.251 11.505 3.723 10.162 -441.612 2955.625 -3071.049 0.546 -0.593 -0.142 -0.05 0.62 -0.78 0.01
1 9.19 919 -0.354 -9.242 2.136 7.172 7.599 8.637 -441.612 2955.625 -3071.049 1.003 -0.302 -0.007 -0.05 0.62 -0.78 0.01
1 9.20 920 -1.030 -9.386 1.978 2.594 7.843 9.430 -426.622 2820.712 -3206.111 1.657 -0.157 0.163 -0.05 0.62 -0.78 0.01
1 9.21 921 -1.269 -9.673 1.719 2.258 4.456 11.261 -486.583 2955.625 -3116.170 1.871 0.129 0.425 -0.05 0.62 -0.78 0.01
1 9.22 922 -1.121 -9.721 1.781 7.263 0.610 11.444 -486.583 2955.625 -3116.170 1.692 0.176 0.367 -0.05 0.62 -0.78 0.01
1 9.23 923 -0.848 -9.410 1.796 14.435 -3.845 11.444 -351.521 2895.664 -3131.160 1.391 -0.134 0.363 -0.05 0.62 -0.78 0.01
1 9.24 924 -0.354 -9.007 1.671 15.717 -4.974 10.529 -351.521 2895.664 -3131.160 0.873 -0.534 0.505 -0.05 0.62 -0.78 0.01
1 9.25 925 -0.177 -8.801 1.695 12.421 -6.622 6.989 -456.603 3045.716 -3161.141 0.658 -0.732 0.523 -0.04 0.62 -0.78 0.02
1 9.26 926 -0.067 -8.883 1.786 8.606 -7.202 3.754 -456.603 3045.716 -3161.141 0.538 -0.648 0.447 -0.04 0.62 -0.78 0.02
1 9.27 927 0.053 -9.046 1.801 5.707 -7.050 0.854 -201.619 2820.712 -3206.111 0.414 -0.483 0.442 -0.04 0.62 -0.78 0.02
1 9.28 928 -0.005 -9.137 1.820 5.493 -6.195 -1.617 -321.541 2850.693 -3131.160 0.472 -0.390 0.430 -0.04 0.62 -0.78 0.02
1 9.29 929 -0.048 -9.127 1.767 8.545 -6.470 -4.120 -321.541 2850.693 -3131.160 0.518 -0.398 0.491 -0.04 0.62 -0.78 0.02
1 9.30 930 -0.287 -9.022 1.676 10.864 -8.057 -5.249 -321.541 2850.693 -3206.111 0.764 -0.500 0.593 -0.05 0.62 -0.78 0.02
1 9.31 931 -0.532 -8.964 1.829 9.125 -10.071 -6.470 -321.541 2850.693 -3206.111 1.015 -0.554 0.453 -0.05 0.62 -0.78 0.02
1 9.32 932 -0.388 -8.844 1.743 6.042 -12.238 -7.233 -426.622 2670.660 -3236.092 0.887 -0.668 0.558 -0.05 0.62 -0.79 0.02
1 9.33 933 -0.608 -8.945 1.724 5.157 -12.817 -7.294 -426.622 2670.660 -3236.092 1.116 -0.566 0.583 -0.05 0.62 -0.79 0.02
1 9.34 934 -0.613 -9.108 1.834 4.150 -13.123 -8.179 -366.511 2835.703 -3221.102 1.130 -0.402 0.476 -0.05 0.62 -0.79 0.02
1 9.35 935 -0.752 -9.280 1.686 2.472 -13.794 -7.965 -441.612 2835.703 -3146.150 1.278 -0.228 0.627 -0.05 0.62 -0.79 0.02
1 9.36 936 -1.034 -9.275 1.633 2.411 -15.381 -9.064 -441.612 2835.703 -3146.150 1.569 -0.233 0.679 -0.05 0.62 -0.79 0.02
1 9.37 937 -1.106 -9.352 1.465 4.700 -19.257 -8.820 -456.603 2895.664 -3236.092 1.649 -0.156 0.847 -0.05 0.62 -0.79 0.02
1 9.38 938 -0.996 -9.218 1.307 5.066 -22.583 -8.637 -456.603 2895.664 -3236.092 1.547 -0.289 1.006 -0.05 0.62 -0.79 0.02
1 9.39 939 -0.963 -9.189 1.307 3.357 -24.567 -6.073 -486.583 2955.625 -3296.053 1.524 -0.317 1.007 -0.05 0.62 -0.79 0.02
1 9.40 940 -0.479 -9.208 1.427 1.923 -27.832 -2.197 -381.651 2820.712 -3056.059 1.054 -0.299 0.881 -0.06 0.62 -0.79 0.02
1 9.41 941 0.057 -9.165 1.326 0.854 -30.792 0.031 -441.612 2640.680 -3191.121 0.522 -0.342 0.977 -0.06 0.62 -0.79 0.03
1 9.42 942 0.623 -9.213 1.202 -0.092 -32.684 1.923 -576.524 2700.641 -3311.043 -0.036 -0.296 1.094 -0.06 0.62 -0.79 0.03
1 9.43 943 1.226 -9.012 1.379 -0.427 -29.389 2.808 -576.524 2700.641 -3311.043 -0.630 -0.499 0.908 -0.06 0.62 -0.78 0.03
1 9.44 944 1.116 -8.983 1.283 -2.869 -14.984 1.984 -546.544 2880.673 -3146.150 -0.509 -0.529 0.994 -0.06 0.62 -0.78 0.03
1 9.45 945 0.498 -9.122 1.135 -7.233 -5.707 0.702 -546.544 2880.673 -3146.150 0.118 -0.392 1.134 -0.06 0.62 -0.78 0.03
1 9.46 946 -0.215 -9.266 0.809 -12.238 -2.991 -1.129 -576.524 2970.615 -3236.092 0.837 -0.251 1.444 -0.07 0.62 -0.78 0.03
1 9.47 947 -0.785 -9.740 0.297 -15.747 -10.651 -5.371 -516.563 2835.703 -3191.121 1.409 0.210 1.902 -0.07 0.62 -0.78 0.03
1 9.48 948 -0.742 -9.721 0.283 -14.465 -15.564 -4.578 -546.544 2790.732 -3221.102 1.368 0.183 1.881 -0.07 0.62 -0.78 0.03
1 9.49 949 -0.417 -9.577 0.292 -12.329 -15.595 -3.662 -591.515 2790.732 -3296.053 1.045 0.032 1.837 -0.07 0.62 -0.78 0.03
1 9.50 950 -0.517 -9.400 0.733 -14.160 -13.825 -2.655 -591.515 2790.732 -3296.053 1.148 -0.152 1.364 -0.07 0.62 -0.78 0.03
1 9.51 951 -0.675 -10.171 2.476 -20.081 -13.489 -1.190 -651.625 2925.644 -3416.125 1.307 0.612 -0.411 -0.07 0.62 -0.78 0.03
1 9.52 952 1.810 -15.266 5.516 -51.178 -25.452 19.806 -651.625 2925.644 -3416.125 -1.183 5.699 -3.487 -0.07 0.63 -0.78 0.03
1 9.53 953 4.161 -16.114 6.838 -58.289 -10.925 41.351 -651.625 2850.693 -3281.062 -3.547 6.532 -4.873 -0.07 0.63 -0.77 0.04
1 9.54 954 2.567 -12.225 3.280 39.826 43.884 38.666 -666.616 2790.732 -3116.170 -2.071 2.616 -1.419 -0.07 0.63 -0.77 0.04
1 9.55 955 1.322 -11.191 2.184 54.901 47.211 32.196 -681.606 2895.664 -3131.160 -0.890 1.594 -0.248 -0.06 0.63 -0.77 0.04
1 9.56 956 -1.456 -9.371 1.724 -4.730 22.949 12.573 -621.645 2880.673 -3221.102 1.843 -0.216 0.270 -0.06 0.63 -0.77 0.04
1 9.57 957 -2.332 -10.128 2.710 -61.188 6.683 0.946 -621.645 2880.673 -3221.102 2.690 0.533 -0.747 -0.06 0.63 -0.77 0.04
1 9.58 958 -2.006 -12.110 3.271 -86.853 -5.554 -3.754 -456.603 2970.615 -3356.164 2.347 2.496 -1.405 -0.06 0.63 -0.77 0.04
1 9.59 959 -0.426 -13.063 3.424 -41.840 -13.641 8.057 -456.603 2970.615 -3356.164 0.775 3.425 -1.683 -0.06 0.64 -0.77 0.04
1 9.60 960 -0.383 -11.109 3.103 21.820 -8.972 12.939 -366.511 2985.605 -3221.102 0.729 1.457 -1.443 -0.06 0.64 -0.76 0.04
1 9.61 961 -0.522 -9.659 2.701 56.122 -12.116 7.874 -591.515 2985.605 -3191.121 0.854 0.007 -1.032 -0.06 0.64 -0.76 0.04
1 9.62 962 -0.330 -8.878 3.778 16.724 -32.105 7.721 -411.632 3060.706 -3146.150 0.642 -0.746 -1.955 -0.06 0.64 -0.77 0.04
1 9.63 963 0.254 -8.974 4.382 -19.745 -35.431 19.135 -516.563 2955.625 -3146.150 0.048 -0.646 -2.536 -0.06 0.63 -0.77 0.05
1 9.64 964 1.350 -9.079 4.573 -25.635 -27.344 26.703 -516.563 2955.625 -3146.150 -1.071 -0.545 -2.744 -0.06 0.63 -0.77 0.05
1 9.65 965 2.035 -8.940 4.061 -4.364 -16.541 25.086 -531.554 2850.693 -3356.164 -1.781 -0.686 -2.242 -0.06 0.64 -0.77 0.05
1 9.66 966 2.399 -8.758 3.702 27.680 -10.651 11.780 -531.554 2850.693 -3356.164 -2.162 -0.864 -1.861 -0.06 0.63 -0.77 0.05
1 9.67 967 2.188 -8.308 3.816 24.201 -10.010 0.031 -681.606 2925.644 -3236.092 -1.953 -1.305 -1.925 -0.06 0.63 -0.77 0.06
1 9.68 968 2.169 -8.600 3.793 2.289 -7.843 -9.430 -441.612 2955.625 -3251.082 -1.918 -1.001 -1.847 -0.06 0.63 -0.77 0.06
1 9.69 969 1.710 -9.290 3.261 -18.402 -1.953 -16.022 -486.583 2910.654 -3146.150 -1.392 -0.305 -1.290 -0.06 0.63 -0.77 0.05
1 9.70 970 1.393 -9.649 2.868 -11.475 0.549 -16.327 -606.655 3000.595 -3131.160 -1.040 0.053 -0.911 -0.07 0.63 -0.77 0.05
1 9.71 971 1.231 -9.908 2.797 -0.427 0.153 -15.656 -606.655 3000.595 -3131.160 -0.843 0.312 -0.843 -0.07 0.63 -0.77 0.05
1 9.72 972 1.063 -9.716 2.653 5.157 -1.923 -13.275 -501.573 2970.615 -3131.160 -0.645 0.124 -0.691 -0.07 0.63 -0.77 0.05
1 9.73 973 1.015 -9.539 2.648 6.561 -4.059 -11.108 -501.573 2970.615 -3131.160 -0.571 -0.050 -0.672 -0.07 0.63 -0.77 0.05
1 9.74 974 1.235 -9.036 2.466 7.874 -5.676 -7.538 -486.583 3030.726 -3191.121 -0.770 -0.548 -0.475 -0.07 0.63 -0.77 0.05
1 9.75 975 1.480 -8.912 2.634 6.744 -5.188 -5.768 -591.515 2880.673 -3146.150 -0.995 -0.668 -0.625 -0.07 0.63 -0.77 0.05
1 9.76 976 1.719 -8.907 2.653 1.831 -3.723 -3.204 -546.544 2985.605 -3221.102 -1.199 -0.665 -0.615 -0.07 0.63 -0.78 0.05
1 9.77 977 1.815 -8.969 2.519 -0.671 -1.404 -3.174 -651.625 2970.615 -3281.062 -1.279 -0.600 -0.472 -0.07 0.62 -0.78 0.05
1 9.78 978 2.078 -9.007 2.571 -0.763 -0.519 -2.960 -651.625 2970.615 -3281.062 -1.525 -0.560 -0.520 -0.07 0.62 -0.78 0.05
1 9.79 979 1.959 -9.089 2.490 -0.793 0.916 -4.425 -531.554 2925.644 -3206.111 -1.389 -0.476 -0.434 -0.07 0.62 -0.78 0.05
1 9.80 980 2.040 -9.036 2.471 -1.190 1.617 -4.974 -531.554 2925.644 -3206.111 -1.452 -0.527 -0.411 -0.07 0.62 -0.78 0.04
1 9.81 981 1.887 -9.094 2.639 -0.519 4.425 -4.944 -501.573 2925.644 -3206.111 -1.280 -0.468 -0.576 -0.07 0.62 -0.78 0.04
1 9.82 982 1.767 -9.156 2.538 0.183 6.775 -4.578 -546.544 3030.726 -3116.170 -1.143 -0.403 -0.470 -0.08 0.62 -0.78 0.04
1 9.83 983 1.753 -8.969 2.275 1.465 7.294 -3.387 -546.544 3030.726 -3116.170 -1.113 -0.588 -0.201 -0.08 0.62 -0.78 0.04
1 9.84 984 1.542 -8.849 2.184 4.547 10.681 -1.923 -441.612 3105.677 -3221.102 -0.880 -0.703 -0.095 -0.07 0.62 -0.78 0.04
1 9.85 985 1.164 -8.811 1.992 3.967 11.536 -2.533 -441.612 3105.677 -3221.102 -0.494 -0.738 0.107 -0.07 0.62 -0.78 0.04
1 9.86 986 1.341 -8.634 2.097 2.289 10.101 -3.448 -591.515 2955.625 -3296.053 -0.665 -0.913 0.010 -0.07 0.62 -0.78 0.04
1 9.87 987 1.221 -8.777 2.045 0.061 10.101 -3.326 -591.515 2955.625 -3296.053 -0.537 -0.767 0.069 -0.07 0.62 -0.78 0.04
1 9.88 988 1.302 -8.974 2.102 -2.991 11.688 -1.221 -546.544 3135.657 -3191.121 -0.611 -0.570 0.013 -0.07 0.62 -0.78 0.04
1 9.89 989 1.111 -8.950 2.117 -2.563 12.482 -0.031 -516.563 3030.726 -3251.082 -0.415 -0.594 -0.002 -0.07 0.62 -0.78 0.03
1 9.90 990 1.231 -9.003 2.026 -1.312 11.871 2.136 -516.563 3030.726 -3251.082 -0.533 -0.541 0.088 -0.07 0.62 -0.78 0.03
1 9.91 991 1.302 -8.878 1.968 -1.434 12.238 3.235 -591.515 2955.625 -3251.082 -0.608 -0.666 0.146 -0.07 0.62 -0.78 0.03
1 9.92 992 1.259 -9.074 2.093 -1.587 12.604 3.540 -591.515 2955.625 -3251.082 -0.567 -0.470 0.022 -0.07 0.62 -0.78 0.03
1 9.93 993 1.274 -8.777 2.021 -1.984 12.939 3.479 -426.622 3045.716 -3281.062 -0.585 -0.767 0.094 -0.07 0.62 -0.78 0.03
1 9.94 994 1.144 -8.912 1.992 -2.563 12.268 3.632 -426.622 3045.716 -3281.062 -0.459 -0.633 0.122 -0.07 0.62 -0.78 0.03
1 9.95 995 1.202 -8.931 1.920 -2.625 12.543 4.913 -576.524 2925.644 -3236.092 -0.520 -0.614 0.193 -0.07 0.62 -0.78 0.03
1 9.96 996 1.125 -8.844 1.877 -3.601 14.496 5.402 -381.651 3000.595 -3236.092 -0.449 -0.701 0.234 -0.07 0.62 -0.78 0.03
1 9.97 997 0.876 -8.926 1.681 -3.815 16.449 6.165 -381.651 3000.595 -3236.092 -0.207 -0.621 0.428 -0.07 0.62 -0.78 0.03
1 9.98 998 1.020 -8.935 1.700 -4.822 14.740 7.172 -456.603 2970.615 -3311.043 -0.371 -0.615 0.400 -0.06 0.62 -0.78 0.03
1 9.99 999 1.125 -8.964 1.762 -6.592 14.008 7.538 -456.603 2970.615 -3311.043 -0.488 -0.588 0.331 -0.06 0.62 -0.78 0.03
1 10.00 1000 1.274 -9.213 1.939 -9.460 14.221 6.683 -366.511 2985.605 -3371.154 -0.646 -0.342 0.144 -0.06 0.62 -0.78 0.02
