COL1	TIME	ACC_X	ACC_Y	ACC_Z	GYR_X	GYR_Y	GYR_Z	MAG_X	MAG_Y	MAG_Z	LACC_X	LACC_Y	LACC_Z	QUAT_X	QUAT_Y	QUAT_Z	QUAT_W
1 0.00 0 -0.661 -9.668 1.499 -2.319 0.671 0.671 52.766 3305.347 -3086.339 0.095 -0.019 -0.129 0.02 0.66 -0.75 0.03
1 0.01 1 -0.608 -9.740 1.451 -2.563 -0.122 0.916 127.717 3305.347 -3296.203 0.042 0.053 -0.083 0.02 0.66 -0.75 0.03
1 0.02 2 -0.599 -9.850 1.422 -1.526 -1.190 0.763 247.639 3395.438 -3101.330 0.032 0.163 -0.055 0.02 0.66 -0.75 0.03
1 0.03 3 -0.488 -9.773 1.494 -0.977 -1.282 0.031 247.639 3395.438 -3101.330 -0.078 0.086 -0.126 0.02 0.66 -0.75 0.03
1 0.04 4 -0.484 -9.836 1.307 -0.122 -1.160 0.793 187.678 3335.477 -3011.238 -0.083 0.148 0.061 0.02 0.66 -0.75 0.03
1 0.05 5 -0.488 -9.888 1.513 0.763 -1.129 -0.092 187.678 3335.477 -3011.238 -0.077 0.201 -0.144 0.02 0.66 -0.75 0.03
1 0.06 6 -0.297 -9.826 1.403 0.824 -1.282 0.580 172.688 3320.487 -3176.281 -0.267 0.139 -0.033 0.02 0.66 -0.75 0.03
1 0.07 7 -0.383 -9.793 1.614 -0.122 0.244 1.556 142.707 3320.487 -3176.281 -0.177 0.106 -0.239 0.02 0.66 -0.75 0.03
1 0.08 8 -0.479 -9.812 1.566 -1.160 0.977 2.289 217.658 3365.458 -3131.310 -0.081 0.125 -0.190 0.02 0.66 -0.75 0.03
1 0.09 9 -0.575 -9.788 1.532 -1.984 1.160 2.441 157.697 3260.376 -3221.251 0.013 0.101 -0.156 0.02 0.66 -0.75 0.03
1 0.10 10 -0.436 -9.826 1.489 -2.594 0.610 2.075 157.697 3260.376 -3221.251 -0.129 0.140 -0.113 0.02 0.66 -0.75 0.03
1 0.11 11 -0.737 -9.841 1.413 -2.777 0.031 1.740 232.648 3305.347 -3191.271 0.171 0.154 -0.039 0.02 0.66 -0.75 0.03
1 0.12 12 -0.656 -9.788 1.451 -3.235 -0.519 1.312 232.648 3305.347 -3191.271 0.088 0.101 -0.080 0.02 0.66 -0.75 0.03
1 0.13 13 -0.752 -9.726 1.451 -3.174 -0.610 0.549 172.688 3470.389 -3206.261 0.182 0.038 -0.083 0.02 0.66 -0.75 0.03
1 0.14 14 -0.785 -9.826 1.283 -3.998 -1.373 0.580 232.648 3380.448 -3041.219 0.215 0.138 0.078 0.02 0.66 -0.75 0.02
1 0.15 15 -0.733 -9.754 1.470 -2.899 -2.472 1.526 67.756 3320.487 -3176.281 0.162 0.065 -0.114 0.02 0.66 -0.75 0.03
1 0.16 16 -0.642 -9.635 1.523 -3.479 -3.143 1.129 172.688 3440.409 -3101.330 0.069 -0.055 -0.170 0.02 0.66 -0.75 0.03
1 0.17 17 -0.670 -9.635 1.360 -3.052 -2.991 1.465 172.688 3440.409 -3101.330 0.097 -0.055 -0.010 0.02 0.66 -0.75 0.03
1 0.18 18 -0.670 -9.697 1.379 -2.838 -2.808 0.916 187.678 3335.477 -3116.320 0.096 0.007 -0.032 0.02 0.66 -0.75 0.03
1 0.19 19 -0.627 -9.659 1.528 -1.251 -3.540 0.519 187.678 3335.477 -3116.320 0.054 -0.032 -0.182 0.02 0.66 -0.75 0.03
1 0.20 20 -0.503 -9.773 1.475 -0.732 -4.150 -0.275 142.707 3365.458 -3101.330 -0.070 0.083 -0.130 0.02 0.66 -0.75 0.03
1 0.21 21 -0.469 -9.802 1.494 -0.549 -3.876 -0.122 187.678 3410.428 -3191.271 -0.102 0.112 -0.147 0.02 0.66 -0.75 0.03
1 0.22 22 -0.498 -9.797 1.585 -1.312 -2.777 0.824 127.717 3485.379 -3161.291 -0.069 0.107 -0.236 0.02 0.66 -0.75 0.03
1 0.23 23 -0.393 -9.764 1.489 -0.977 -1.984 0.488 157.697 3485.379 -3221.251 -0.173 0.074 -0.140 0.02 0.66 -0.75 0.03
1 0.24 24 -0.469 -9.740 1.403 0.092 -1.495 2.167 157.697 3485.379 -3221.251 -0.095 0.050 -0.052 0.02 0.66 -0.75 0.03
1 0.25 25 -0.474 -9.845 1.504 -0.061 -1.434 2.136 7.645 3380.448 -3086.339 -0.091 0.156 -0.151 0.02 0.66 -0.75 0.03
1 0.26 26 -0.541 -9.783 1.374 1.068 -1.251 1.160 7.645 3380.448 -3086.339 -0.025 0.094 -0.019 0.02 0.66 -0.75 0.03
1 0.27 27 -0.575 -9.716 1.432 1.038 -0.885 1.953 127.717 3185.425 -3191.271 0.008 0.027 -0.073 0.02 0.66 -0.75 0.03
1 0.28 28 -0.608 -9.908 1.413 1.282 -0.488 1.709 232.648 3380.448 -3116.320 0.041 0.219 -0.051 0.02 0.66 -0.75 0.03
1 0.29 29 -0.613 -9.864 1.403 2.045 -0.946 1.007 247.639 3275.366 -3206.261 0.042 0.177 -0.035 0.02 0.66 -0.75 0.03
1 0.30 30 -0.651 -9.745 1.508 0.641 -1.343 1.434 22.635 3440.409 -3176.281 0.080 0.058 -0.137 0.02 0.66 -0.75 0.03
1 0.31 31 -0.685 -9.807 1.437 -1.251 -1.373 1.068 22.635 3440.409 -3176.281 0.112 0.121 -0.063 0.02 0.66 -0.75 0.03
1 0.32 32 -0.512 -9.869 1.413 -1.709 -2.289 1.892 187.678 3305.347 -3221.251 -0.061 0.183 -0.039 0.02 0.66 -0.75 0.03
1 0.33 33 -0.570 -9.759 1.437 -2.258 -2.441 0.305 187.678 3305.347 -3221.251 -0.004 0.073 -0.064 0.02 0.66 -0.75 0.03
1 0.34 34 -0.589 -9.730 1.456 -2.747 -2.563 -0.336 187.678 3410.428 -3161.291 0.016 0.044 -0.085 0.02 0.66 -0.75 0.03
1 0.35 35 -0.527 -9.788 1.417 -3.235 -2.838 0.549 82.746 3380.448 -3161.291 -0.045 0.101 -0.050 0.02 0.66 -0.75 0.03
1 0.36 36 -0.441 -9.759 1.432 -3.448 -1.984 0.183 217.658 3245.386 -3101.330 -0.128 0.071 -0.071 0.01 0.66 -0.75 0.03
1 0.37 37 -0.570 -9.682 1.336 -2.960 -1.526 1.007 97.736 3470.389 -3131.310 0.003 -0.006 0.021 0.01 0.66 -0.75 0.03
1 0.38 38 -0.436 -9.817 1.480 -2.441 -0.641 0.946 97.736 3470.389 -3131.310 -0.130 0.127 -0.125 0.01 0.66 -0.75 0.03
1 0.39 39 -0.397 -9.706 1.456 -1.373 -0.732 0.580 157.697 3260.376 -3221.251 -0.167 0.017 -0.102 0.01 0.66 -0.75 0.03
1 0.40 40 -0.441 -9.721 1.374 0.122 -0.519 1.099 157.697 3260.376 -3221.251 -0.123 0.031 -0.020 0.01 0.66 -0.75 0.03
1 0.41 41 -0.426 -9.788 1.489 0.305 0.183 1.312 52.766 3335.477 -3266.222 -0.136 0.098 -0.134 0.01 0.66 -0.75 0.03
1 0.42 42 -0.579 -9.678 1.427 0.427 0.031 1.251 172.688 3320.487 -3206.261 0.017 -0.011 -0.069 0.01 0.66 -0.75 0.03
1 0.43 43 -0.565 -9.807 1.370 0.122 -0.183 1.587 172.688 3320.487 -3206.261 0.002 0.118 -0.010 0.01 0.66 -0.75 0.03
1 0.44 44 -0.675 -9.850 1.427 0.519 -0.824 0.824 172.688 3320.487 -3026.229 0.111 0.162 -0.064 0.01 0.66 -0.75 0.03
1 0.45 45 -0.632 -9.807 1.355 0.946 -0.793 1.099 172.688 3320.487 -3026.229 0.066 0.119 0.009 0.01 0.66 -0.75 0.03
1 0.46 46 -0.584 -9.711 1.370 0.793 -1.923 0.977 142.707 3275.366 -3101.330 0.018 0.024 -0.003 0.01 0.66 -0.75 0.03
1 0.47 47 -0.699 -9.759 1.298 -0.275 -1.740 1.343 142.707 3275.366 -3101.330 0.133 0.072 0.071 0.01 0.66 -0.75 0.03
1 0.48 48 -0.642 -9.850 1.403 -2.686 -0.854 0.732 172.688 3320.487 -3206.261 0.075 0.163 -0.035 0.01 0.66 -0.75 0.03
1 0.49 49 -0.685 -9.802 1.475 -3.479 -0.580 1.312 7.645 3380.448 -3116.320 0.117 0.115 -0.108 0.01 0.66 -0.75 0.03
1 0.50 50 -0.579 -9.740 1.393 -4.364 -0.519 0.580 7.645 3380.448 -3116.320 0.010 0.052 -0.031 0.01 0.66 -0.75 0.03
1 0.51 51 -0.584 -9.706 1.322 -3.571 -1.251 -0.122 157.697 3305.347 -3086.339 0.016 0.017 0.033 0.01 0.66 -0.75 0.03
1 0.52 52 -0.536 -9.745 1.346 -3.052 -1.892 0.549 157.697 3305.347 -3086.339 -0.031 0.055 0.005 0.01 0.66 -0.75 0.03
1 0.53 53 -0.594 -9.740 1.350 -2.075 -1.923 0.092 22.635 3365.458 -3206.261 0.028 0.050 -0.003 0.01 0.66 -0.75 0.03
1 0.54 54 -0.584 -9.826 1.451 -1.129 -2.472 0.763 22.635 3365.458 -3206.261 0.019 0.136 -0.105 0.01 0.66 -0.75 0.03
1 0.55 55 -0.560 -9.903 1.326 0.702 -2.502 0.885 232.648 3335.477 -3161.291 -0.004 0.212 0.020 0.01 0.66 -0.75 0.03
1 0.56 56 -0.575 -9.802 1.355 1.770 -2.289 1.160 157.697 3335.477 -3086.339 0.010 0.112 -0.008 0.01 0.66 -0.75 0.03
1 0.57 57 -0.661 -9.888 1.350 2.625 -2.045 0.793 157.697 3335.477 -3086.339 0.096 0.198 0.001 0.01 0.66 -0.75 0.03
1 0.58 58 -0.656 -9.826 1.470 2.838 -2.350 0.977 292.759 3245.386 -3131.310 0.091 0.138 -0.108 0.01 0.66 -0.75 0.03
1 0.59 59 -0.479 -9.836 1.336 2.930 -1.617 0.763 292.759 3245.386 -3131.310 -0.086 0.148 0.032 0.01 0.66 -0.75 0.03
1 0.60 60 -0.666 -9.860 1.432 1.923 -1.404 1.007 217.658 3245.386 -3071.199 0.102 0.173 -0.059 0.01 0.66 -0.75 0.03
1 0.61 61 -0.541 -9.773 1.451 0.336 -0.641 0.977 217.658 3245.386 -3071.199 -0.024 0.087 -0.075 0.01 0.66 -0.75 0.03
1 0.62 62 -0.599 -9.821 1.456 -0.305 -0.061 1.984 232.648 3155.444 -3086.339 0.034 0.135 -0.079 0.01 0.66 -0.75 0.03
1 0.63 63 -0.618 -9.941 1.360 -0.397 -1.465 1.312 157.697 3230.396 -3011.238 0.052 0.255 0.018 0.02 0.66 -0.75 0.03
1 0.64 64 -0.733 -9.893 1.370 -0.702 -2.411 0.946 157.697 3230.396 -3011.238 0.166 0.207 0.008 0.02 0.66 -0.75 0.03
1 0.65 65 -0.646 -9.888 1.398 -1.282 -3.296 0.916 142.707 3320.487 -2996.248 0.080 0.202 -0.021 0.02 0.66 -0.75 0.03
1 0.66 66 -0.584 -9.778 1.465 -2.960 -3.265 0.671 157.697 3335.477 -3191.271 0.018 0.092 -0.090 0.01 0.66 -0.75 0.03
1 0.67 67 -0.503 -9.750 1.422 -4.089 -2.258 1.251 262.629 3230.396 -3161.291 -0.063 0.063 -0.051 0.01 0.66 -0.75 0.03
1 0.68 68 -0.536 -9.850 1.437 -4.028 -2.014 0.824 262.629 3230.396 -3161.291 -0.030 0.162 -0.070 0.01 0.66 -0.75 0.03
1 0.69 69 -0.584 -9.682 1.350 -3.906 -2.075 1.099 82.746 3335.477 -3116.320 0.018 -0.006 0.011 0.01 0.66 -0.75 0.03
1 0.70 70 -0.551 -9.745 1.269 -3.021 -2.075 0.397 67.756 3395.438 -3101.330 -0.016 0.056 0.089 0.01 0.66 -0.75 0.03
1 0.71 71 -0.546 -9.496 1.360 -2.441 -2.441 0.092 67.756 3395.438 -3101.330 -0.020 -0.194 -0.005 0.01 0.66 -0.75 0.03
1 0.72 72 -0.694 -9.726 1.326 -1.617 -2.991 0.153 157.697 3260.376 -3086.339 0.130 0.036 0.026 0.01 0.66 -0.75 0.03
1 0.73 73 -0.637 -9.692 1.417 -0.671 -3.265 -0.031 -7.195 3245.386 -3101.330 0.075 0.002 -0.067 0.01 0.66 -0.75 0.03
1 0.74 74 -0.508 -9.726 1.360 0.488 -4.120 0.732 157.697 3410.428 -3041.219 -0.053 0.035 -0.009 0.01 0.66 -0.75 0.03
1 0.75 75 -0.584 -9.721 1.374 2.045 -3.815 0.824 157.697 3410.428 -3041.219 0.024 0.031 -0.021 0.01 0.66 -0.75 0.03
1 0.76 76 -0.469 -9.788 1.355 2.350 -3.326 0.946 127.717 3305.347 -3086.339 -0.090 0.099 0.004 0.01 0.66 -0.75 0.03
1 0.77 77 -0.565 -9.821 1.461 2.533 -2.716 1.373 247.639 3275.366 -3071.199 0.006 0.133 -0.097 0.01 0.66 -0.75 0.03
1 0.78 78 -0.383 -9.754 1.508 1.465 -1.953 1.495 247.639 3275.366 -3071.199 -0.176 0.067 -0.139 0.01 0.66 -0.75 0.03
1 0.79 79 -0.517 -9.769 1.403 0.702 -1.099 1.526 127.717 3455.399 -3191.271 -0.041 0.082 -0.029 0.01 0.66 -0.75 0.03
1 0.80 80 -0.493 -9.860 1.374 -1.556 0.549 1.740 187.678 3335.477 -3221.251 -0.065 0.173 0.002 0.01 0.66 -0.75 0.03
1 0.81 81 -0.613 -9.879 1.437 -1.709 0.183 2.014 247.639 3275.366 -3206.261 0.053 0.192 -0.061 0.01 0.66 -0.75 0.03
1 0.82 82 -0.646 -10.008 1.274 -2.075 -0.305 1.129 247.639 3275.366 -3206.261 0.085 0.321 0.100 0.01 0.66 -0.75 0.03
1 0.83 83 -0.584 -9.951 1.398 -2.197 -1.129 1.312 157.697 3305.347 -3116.320 0.022 0.263 -0.027 0.01 0.66 -0.75 0.03
1 0.84 84 -0.589 -9.898 1.432 -3.784 -2.045 0.763 97.736 3275.366 -3251.232 0.026 0.210 -0.063 0.01 0.66 -0.75 0.03
1 0.85 85 -0.666 -9.797 1.513 -5.341 -1.648 0.488 97.736 3275.366 -3251.232 0.102 0.109 -0.148 0.01 0.66 -0.75 0.03
1 0.86 86 -0.522 -9.802 1.475 -5.859 -1.404 0.519 142.707 3395.438 -3101.330 -0.041 0.113 -0.116 0.01 0.66 -0.75 0.03
1 0.87 87 -0.603 -9.778 1.393 -5.707 -0.885 0.153 67.756 3320.487 -3206.261 0.040 0.088 -0.041 0.01 0.66 -0.75 0.03
1 0.88 88 -0.579 -9.649 1.417 -4.730 -1.007 0.244 97.736 3320.487 -3206.261 0.017 -0.043 -0.079 0.01 0.66 -0.75 0.03
1 0.89 89 -0.541 -9.659 1.350 -3.265 -1.678 0.458 97.736 3320.487 -3206.261 -0.021 -0.034 -0.017 0.01 0.66 -0.75 0.03
1 0.90 90 -0.426 -9.663 1.216 -1.831 -1.404 0.580 82.746 3380.448 -3191.271 -0.134 -0.030 0.114 0.01 0.66 -0.75 0.03
1 0.91 91 -0.436 -9.692 1.422 -0.275 -1.434 -0.122 142.707 3275.366 -3026.229 -0.125 -0.001 -0.092 0.01 0.66 -0.75 0.03
1 0.92 92 -0.536 -9.678 1.307 1.221 -1.526 -0.183 142.707 3275.366 -3026.229 -0.023 -0.015 0.024 0.01 0.66 -0.75 0.03
1 0.93 93 -0.570 -9.759 1.322 1.678 -1.404 0.244 292.759 3365.458 -3026.229 0.013 0.066 0.012 0.01 0.66 -0.75 0.03
1 0.94 94 -0.603 -9.659 1.365 1.892 -1.678 0.488 172.688 3395.438 -3071.199 0.048 -0.034 -0.027 0.01 0.66 -0.75 0.03
1 0.95 95 -0.441 -9.812 1.403 2.258 -1.251 1.038 67.756 3275.366 -3071.199 -0.114 0.121 -0.056 0.01 0.66 -0.75 0.03
1 0.96 96 -0.412 -9.831 1.360 1.923 -1.221 1.556 67.756 3275.366 -3071.199 -0.142 0.140 -0.008 0.01 0.66 -0.75 0.03
1 0.97 97 -0.618 -9.778 1.432 1.251 -1.648 1.465 67.756 3440.409 -3101.330 0.064 0.088 -0.076 0.01 0.66 -0.75 0.03
1 0.98 98 -0.699 -9.841 1.393 0.427 -1.251 1.068 52.766 3410.428 -3116.320 0.144 0.151 -0.035 0.01 0.66 -0.75 0.03
1 0.99 99 -0.646 -9.898 1.307 0.916 -1.099 0.092 52.766 3410.428 -3116.320 0.091 0.209 0.053 0.01 0.66 -0.75 0.03
1 1.00 100 -0.685 -9.941 1.216 1.923 -0.671 -0.793 127.717 3455.399 -3041.219 0.130 0.252 0.145 0.01 0.66 -0.75 0.03
1 1.01 101 -0.771 -9.893 1.317 2.502 -1.434 -2.045 187.678 3260.376 -3116.320 0.217 0.204 0.048 0.01 0.66 -0.75 0.03
1 1.02 102 -0.776 -10.032 1.437 4.639 -4.639 -3.204 142.707 3320.487 -3176.281 0.230 0.344 -0.062 0.01 0.66 -0.75 0.03
1 1.03 103 -0.704 -10.032 1.432 4.303 -7.202 -1.465 142.707 3320.487 -3176.281 0.163 0.345 -0.049 0.01 0.66 -0.75 0.03
1 1.04 104 -0.694 -10.070 1.432 3.479 -10.376 -0.214 52.766 3230.396 -3221.251 0.157 0.384 -0.042 0.01 0.65 -0.76 0.03
1 1.05 105 -0.393 -10.061 1.336 -0.305 -12.543 1.312 -7.195 3275.366 -3131.310 -0.142 0.375 0.059 0.01 0.65 -0.76 0.03
1 1.06 106 -0.105 -10.090 1.259 -3.174 -14.679 3.815 -7.195 3275.366 -3131.310 -0.428 0.404 0.136 0.01 0.65 -0.76 0.03
1 1.07 107 0.235 -10.104 1.408 0.977 -12.848 6.622 127.717 3335.477 -3086.339 -0.768 0.418 -0.016 0.01 0.65 -0.76 0.03
1 1.08 108 0.364 -10.224 1.451 6.378 -7.294 6.439 157.697 3305.347 -3161.291 -0.898 0.538 -0.058 0.01 0.65 -0.76 0.03
1 1.09 109 0.201 -9.898 1.437 9.735 -1.984 6.531 157.697 3305.347 -3161.291 -0.735 0.213 -0.035 0.01 0.65 -0.76 0.03
1 1.10 110 0.053 -9.711 1.585 10.834 3.815 6.165 82.746 3410.428 -3191.271 -0.591 0.032 -0.152 0.01 0.65 -0.76 0.03
1 1.11 111 -0.072 -9.429 1.528 9.613 5.249 4.730 142.707 3320.487 -3206.261 -0.471 -0.248 -0.078 0.01 0.65 -0.76 0.03
1 1.12 112 -0.206 -9.539 1.518 9.338 6.348 4.730 232.648 3230.396 -3341.323 -0.340 -0.136 -0.052 0.01 0.65 -0.76 0.03
1 1.13 113 -0.445 -9.601 1.432 10.162 6.470 3.418 232.648 3230.396 -3341.323 -0.105 -0.071 0.049 0.01 0.65 -0.76 0.03
1 1.14 114 -0.670 -9.659 1.365 10.498 4.730 0.214 157.697 3305.347 -3161.291 0.117 -0.011 0.132 0.01 0.65 -0.76 0.03
1 1.15 115 -0.910 -9.711 1.480 11.261 3.174 -1.099 187.678 3305.347 -3191.271 0.354 0.045 0.033 0.01 0.65 -0.76 0.03
1 1.16 116 -0.852 -9.951 1.403 10.529 1.007 -2.716 187.678 3305.347 -3191.271 0.297 0.286 0.125 0.01 0.65 -0.76 0.03
1 1.17 117 -1.049 -9.735 1.508 8.881 -2.533 -3.174 97.736 3200.415 -3326.333 0.497 0.076 0.050 0.01 0.65 -0.76 0.03
1 1.18 118 -0.862 -9.563 1.642 8.301 -5.096 -3.479 247.639 3365.458 -3101.330 0.313 -0.095 -0.070 0.01 0.65 -0.76 0.03
1 1.19 119 -0.771 -9.649 1.767 5.341 -6.866 -4.730 67.756 3170.435 -3206.261 0.227 -0.007 -0.182 0.01 0.65 -0.76 0.03
1 1.20 120 -0.723 -9.548 1.868 0.580 -9.186 -4.089 67.756 3170.435 -3206.261 0.187 -0.106 -0.274 0.01 0.65 -0.76 0.03
1 1.21 121 -0.474 -9.620 1.743 -2.777 -10.956 -3.174 142.707 3365.458 -3206.261 -0.055 -0.034 -0.146 0.01 0.65 -0.76 0.03
1 1.22 122 -0.263 -9.821 1.714 -2.808 -11.871 -1.312 7.645 3335.477 -3191.271 -0.258 0.166 -0.118 0.01 0.65 -0.76 0.03
1 1.23 123 0.000 -9.955 1.671 -0.641 -9.949 -1.221 7.645 3335.477 -3191.271 -0.513 0.300 -0.077 0.01 0.65 -0.76 0.03
1 1.24 124 0.110 -9.917 1.820 7.172 -6.165 0.153 52.766 3185.425 -3191.271 -0.608 0.262 -0.217 0.01 0.65 -0.76 0.03
1 1.25 125 0.215 -9.975 1.891 12.543 -4.120 0.977 97.736 3275.366 -3251.232 -0.707 0.322 -0.273 0.01 0.65 -0.76 0.03
1 1.26 126 0.144 -9.898 1.872 15.900 -2.502 -0.336 22.635 3395.438 -3071.199 -0.629 0.249 -0.231 0.01 0.65 -0.76 0.03
1 1.27 127 0.062 -9.922 1.853 16.602 -0.977 -0.671 22.635 3395.438 -3071.199 -0.540 0.277 -0.185 0.01 0.64 -0.76 0.03
1 1.28 128 -0.005 -9.841 1.935 13.336 0.366 0.580 127.717 3260.376 -3161.291 -0.466 0.200 -0.240 0.01 0.64 -0.77 0.03
1 1.29 129 -0.144 -9.673 1.901 8.270 0.854 1.526 157.697 3230.396 -3191.271 -0.322 0.036 -0.182 0.01 0.64 -0.77 0.03
1 1.30 130 -0.364 -9.697 1.915 4.272 2.167 1.740 157.697 3230.396 -3191.271 -0.099 0.063 -0.179 0.01 0.64 -0.77 0.03
1 1.31 131 -0.273 -9.668 1.887 1.770 3.906 1.648 7.645 3260.376 -3221.251 -0.190 0.036 -0.140 0.01 0.64 -0.77 0.03
1 1.32 132 -0.579 -9.759 1.733 5.310 4.974 -0.214 22.635 3245.386 -3281.212 0.114 0.129 0.022 0.01 0.64 -0.77 0.03
1 1.33 133 -0.723 -9.922 1.724 10.040 3.754 -1.404 67.756 3320.487 -3131.310 0.258 0.294 0.043 0.01 0.64 -0.77 0.03
1 1.34 134 -0.642 -9.922 1.619 15.076 0.153 -2.106 67.756 3320.487 -3131.310 0.177 0.297 0.165 0.01 0.64 -0.77 0.03
1 1.35 135 -0.675 -9.826 1.724 16.419 -5.188 -2.777 97.736 3200.415 -3206.261 0.214 0.205 0.082 0.01 0.64 -0.77 0.03
1 1.36 136 -0.431 -9.668 1.868 11.841 -12.390 -0.732 142.707 3170.435 -3281.212 -0.026 0.051 -0.037 0.01 0.64 -0.77 0.03
1 1.37 137 -0.067 -9.606 1.925 7.568 -14.648 -0.641 142.707 3170.435 -3281.212 -0.384 -0.007 -0.075 0.01 0.64 -0.77 0.03
1 1.38 138 0.306 -9.520 1.978 2.411 -14.710 0.000 82.746 3185.425 -3296.203 -0.751 -0.091 -0.113 0.01 0.64 -0.77 0.03
1 1.39 139 0.436 -9.405 1.891 1.038 -10.895 1.495 -22.186 3155.444 -3341.323 -0.862 -0.204 -0.014 0 0.64 -0.77 0.03
1 1.40 140 0.488 -9.405 1.939 1.099 -7.507 1.526 22.635 3125.464 -3326.333 -0.907 -0.204 -0.058 0 0.64 -0.77 0.03
1 1.41 141 0.623 -9.529 1.844 2.960 -4.181 2.441 22.635 3125.464 -3326.333 -1.034 -0.079 0.042 0 0.64 -0.77 0.03
1 1.42 142 0.541 -9.462 1.662 2.777 -2.106 3.235 52.766 3260.376 -3371.304 -0.948 -0.145 0.229 0 0.64 -0.77 0.03
1 1.43 143 0.632 -9.582 1.777 2.594 2.441 4.578 67.756 3170.435 -3386.294 -1.035 -0.025 0.119 0 0.64 -0.77 0.03
1 1.44 144 0.532 -9.534 1.705 1.892 4.395 4.303 67.756 3170.435 -3386.294 -0.933 -0.072 0.194 0 0.63 -0.77 0.03
1 1.45 145 0.498 -9.635 1.815 1.373 7.233 3.815 82.746 3230.396 -3266.222 -0.898 0.029 0.087 0 0.63 -0.77 0.03
1 1.46 146 0.287 -9.582 2.131 2.991 8.881 3.479 -52.166 3095.483 -3281.212 -0.687 -0.022 -0.223 0 0.63 -0.77 0.03
1 1.47 147 0.235 -9.620 2.117 5.096 9.705 3.754 127.717 3230.396 -3296.203 -0.636 0.018 -0.202 0 0.63 -0.77 0.03
1 1.48 148 0.182 -9.793 2.140 8.179 11.414 3.418 127.717 3230.396 -3296.203 -0.585 0.192 -0.215 0 0.63 -0.77 0.03
1 1.49 149 0.115 -9.730 2.140 10.986 12.299 2.258 127.717 3155.444 -3371.304 -0.521 0.133 -0.201 0 0.63 -0.77 0.03
1 1.50 150 0.048 -9.750 2.021 13.092 12.238 1.617 97.736 3095.483 -3281.212 -0.456 0.156 -0.063 0.01 0.63 -0.77 0.03
1 1.51 151 0.086 -10.051 2.026 14.191 11.231 1.556 97.736 3095.483 -3281.212 -0.496 0.462 -0.047 0.01 0.63 -0.77 0.03
1 1.52 152 0.024 -9.922 1.987 14.160 10.590 2.167 67.756 3095.483 -3326.333 -0.434 0.337 0.012 0.01 0.63 -0.78 0.03
1 1.53 153 0.115 -9.941 2.107 13.001 10.345 2.686 67.756 3095.483 -3326.333 -0.527 0.360 -0.086 0.01 0.63 -0.78 0.02
1 1.54 154 0.067 -9.932 2.346 10.590 11.902 1.801 97.736 3050.363 -3386.294 -0.483 0.359 -0.288 0.01 0.63 -0.78 0.02
1 1.55 155 0.029 -9.874 2.500 8.637 12.848 2.380 97.736 3050.363 -3386.294 -0.446 0.305 -0.425 0.01 0.63 -0.78 0.02
1 1.56 156 -0.014 -9.841 2.600 7.965 15.625 2.136 67.756 3200.415 -3386.294 -0.405 0.275 -0.510 0.01 0.63 -0.78 0.02
1 1.57 157 0.077 -9.864 2.591 10.284 18.829 1.312 157.697 2990.402 -3341.323 -0.499 0.303 -0.484 0.01 0.63 -0.78 0.02
1 1.58 158 -0.254 -9.855 2.514 12.238 22.278 -1.312 157.697 2990.402 -3341.323 -0.171 0.297 -0.390 0.01 0.63 -0.78 0.02
1 1.59 159 -0.273 -9.783 2.548 14.008 23.132 -2.441 232.648 3035.373 -3416.274 -0.153 0.230 -0.403 0.01 0.62 -0.78 0.02
1 1.60 160 -0.407 -9.673 2.342 14.984 23.102 -2.289 232.648 3035.373 -3416.274 -0.021 0.125 -0.176 0.01 0.62 -0.78 0.02
1 1.61 161 -0.618 -9.649 2.255 15.839 23.377 -1.862 157.697 3110.474 -3416.274 0.183 0.112 -0.044 0.02 0.62 -0.78 0.01
1 1.62 162 -0.661 -9.663 2.332 15.930 22.858 -1.465 157.697 3110.474 -3416.274 0.221 0.132 -0.098 0.02 0.62 -0.78 0.01
1 1.63 163 -0.613 -9.706 2.332 16.235 22.125 -1.648 352.720 2945.431 -3431.265 0.167 0.180 -0.074 0.02 0.62 -0.78 0.01
1 1.64 164 -0.728 -9.826 2.399 17.883 20.813 -1.587 307.750 3065.353 -3416.274 0.276 0.306 -0.117 0.02 0.62 -0.79 0.01
1 1.65 165 -0.742 -9.821 2.433 19.104 19.745 -1.038 307.750 3065.353 -3416.274 0.284 0.308 -0.124 0.02 0.62 -0.79 0.01
1 1.66 166 -0.503 -9.960 2.399 20.447 17.273 -0.244 172.688 2945.431 -3326.333 0.039 0.454 -0.062 0.02 0.62 -0.79 0.01
1 1.67 167 -0.426 -10.056 2.619 20.355 17.029 0.977 172.688 2945.431 -3326.333 -0.044 0.558 -0.252 0.03 0.62 -0.79 0.01
1 1.68 168 -0.278 -10.018 2.777 20.081 16.480 4.181 187.678 3065.353 -3416.274 -0.206 0.535 -0.351 0.03 0.61 -0.79 0.01
1 1.69 169 -0.057 -9.831 2.749 19.684 18.097 5.341 187.678 3065.353 -3416.274 -0.436 0.357 -0.292 0.03 0.61 -0.79 0
1 1.70 170 -0.163 -9.745 2.672 20.294 21.484 6.165 142.557 2825.809 -3460.346 -0.342 0.279 -0.186 0.03 0.61 -0.79 0
1 1.71 171 -0.244 -9.702 2.768 20.233 23.956 5.707 307.600 3185.875 -3475.336 -0.275 0.244 -0.252 0.03 0.61 -0.79 0
1 1.72 172 -0.378 -9.572 2.696 18.921 28.870 5.859 307.600 3185.875 -3475.336 -0.156 0.124 -0.151 0.03 0.61 -0.79 0
1 1.73 173 -0.579 -9.582 2.729 18.402 32.257 6.134 412.531 3065.803 -3295.303 0.029 0.142 -0.157 0.03 0.61 -0.79 0
1 1.74 174 -0.843 -9.606 2.581 17.395 35.034 6.165 412.531 3065.803 -3295.303 0.273 0.174 0.017 -0.04 -0.61 0.8 0
1 1.75 175 -1.173 -9.467 2.332 19.714 35.401 5.981 247.489 2975.861 -3565.277 0.581 0.043 0.289 -0.04 -0.6 0.8 0
1 1.76 176 -1.561 -9.381 2.155 23.193 35.217 5.005 262.479 2960.871 -3475.336 0.917 -0.026 0.516 -0.04 -0.6 0.8 0
1 1.77 177 -1.676 -9.328 2.030 26.703 34.882 5.585 427.521 2900.910 -3460.346 1.005 -0.069 0.669 -0.05 -0.6 0.8 0.01
1 1.78 178 -2.064 -9.256 1.973 31.036 33.417 4.822 322.590 3050.812 -3565.277 1.365 -0.129 0.759 -0.05 -0.6 0.8 0.01
1 1.79 179 -2.169 -9.347 1.992 33.447 30.548 4.547 322.590 3050.812 -3565.277 1.440 -0.025 0.778 -0.05 -0.6 0.8 0.01
1 1.80 180 -2.571 -9.481 2.069 36.102 25.879 3.540 457.502 2735.868 -3595.258 1.813 0.124 0.742 -0.05 -0.59 0.8 0.01
1 1.81 181 -2.385 -9.328 2.145 35.034 20.508 4.089 457.502 2735.868 -3595.258 1.597 -0.014 0.708 -0.06 -0.59 0.8 0.01
1 1.82 182 -2.452 -9.266 2.126 30.609 13.763 4.791 427.521 2825.809 -3610.248 1.636 -0.061 0.770 -0.06 -0.59 0.8 0.01
1 1.83 183 -2.126 -9.117 1.863 24.719 6.683 5.890 561.234 2857.588 -3606.051 1.263 -0.183 1.103 -0.06 -0.59 0.81 0.01
1 1.84 184 -1.944 -9.156 1.786 21.607 3.479 6.378 576.225 2812.618 -3621.041 1.061 -0.134 1.207 -0.06 -0.59 0.81 0.01
1 1.85 185 -1.714 -8.955 1.805 18.951 1.709 6.470 501.273 2752.657 -3501.119 0.813 -0.326 1.210 -0.06 -0.58 0.81 0.01
1 1.86 186 -1.595 -9.266 1.882 15.808 2.441 6.958 501.273 2752.657 -3501.119 0.677 -0.007 1.152 -0.06 -0.58 0.81 0.01
1 1.87 187 -1.413 -9.544 1.844 13.428 5.493 6.866 471.293 2677.556 -3710.982 0.479 0.276 1.204 -0.07 -0.58 0.81 0.01
1 1.88 188 -1.331 -9.841 2.040 14.984 9.522 6.592 471.293 2677.556 -3710.982 0.382 0.578 1.018 -0.07 -0.58 0.81 0.01
1 1.89 189 -1.504 -10.171 2.322 16.846 11.932 5.798 486.283 2692.546 -3516.109 0.539 0.914 0.747 -0.07 -0.58 0.81 0.01
1 1.90 190 -1.652 -10.003 2.610 17.548 10.803 5.737 411.182 2737.667 -3695.992 0.655 0.760 0.491 -0.07 -0.58 0.81 0.01
1 1.91 191 -1.690 -10.003 2.710 16.968 7.660 6.989 651.176 2767.647 -3591.061 0.677 0.768 0.409 -0.07 -0.58 0.81 0.01
1 1.92 192 -1.700 -9.845 2.777 16.754 4.334 7.446 621.195 2647.575 -3621.041 0.669 0.619 0.361 -0.07 -0.58 0.81 0.01
1 1.93 193 -1.580 -9.673 2.773 16.510 3.418 8.179 621.195 2647.575 -3621.041 0.534 0.455 0.384 -0.07 -0.58 0.81 0.01
1 1.94 194 -1.451 -9.592 2.729 17.151 4.395 9.583 531.254 2632.585 -3531.100 0.388 0.382 0.447 -0.07 -0.58 0.81 0.01
1 1.95 195 -1.585 -9.323 2.495 14.984 6.348 11.597 531.254 2632.585 -3531.100 0.503 0.123 0.702 -0.07 -0.58 0.81 0.01
1 1.96 196 -1.523 -9.371 2.188 12.390 8.453 12.573 546.244 2572.624 -3546.090 0.419 0.179 1.025 -0.07 -0.57 0.81 0.01
1 1.97 197 -1.547 -9.371 2.284 7.935 8.484 12.238 651.176 2617.595 -3621.041 0.420 0.186 0.941 -0.08 -0.57 0.82 0.01
1 1.98 198 -1.681 -9.304 2.389 -0.671 9.338 9.399 696.296 2737.667 -3801.074 0.507 0.126 0.838 -0.08 -0.57 0.82 0.01
1 1.99 199 -1.638 -9.343 2.265 -4.059 8.606 7.416 576.225 2542.644 -3591.061 0.444 0.163 0.953 -0.08 -0.57 0.81 0.01
1 2.00 200 -1.743 -9.280 2.346 -4.242 6.531 4.944 576.225 2542.644 -3591.061 0.533 0.098 0.858 -0.08 -0.57 0.81 0.01
1 2.01 201 -1.925 -9.290 2.284 -0.519 4.303 3.326 636.186 2557.634 -3710.982 0.703 0.106 0.909 -0.08 -0.57 0.81 0.01
1 2.02 202 -1.992 -9.012 2.423 9.247 2.289 0.488 636.186 2557.634 -3710.982 0.760 -0.173 0.765 -0.08 -0.58 0.81 0.01
1 2.03 203 -2.097 -8.979 2.389 12.939 1.221 -0.458 606.205 2602.604 -3681.002 0.858 -0.203 0.804 -0.08 -0.57 0.81 0.01
1 2.04 204 -2.313 -8.921 2.112 14.160 -1.251 -3.082 726.277 2542.644 -3801.074 1.065 -0.250 1.110 -0.08 -0.57 0.82 0.01
1 2.05 205 -2.299 -8.897 2.073 13.458 -4.120 -3.174 606.205 2752.657 -3710.982 1.049 -0.269 1.162 -0.08 -0.57 0.82 0.01
1 2.06 206 -2.447 -8.916 2.054 7.996 -11.993 -3.235 681.156 2527.653 -3786.083 1.197 -0.246 1.191 -0.08 -0.57 0.82 0.01
1 2.07 207 -2.528 -9.074 2.179 2.197 -17.395 -2.319 681.156 2527.653 -3786.083 1.280 -0.086 1.072 -0.08 -0.57 0.82 0
1 2.08 208 -2.428 -9.161 2.217 -2.533 -23.041 -1.587 621.195 2617.595 -3801.074 1.183 -0.001 1.031 -0.08 -0.57 0.82 0
1 2.09 209 -2.327 -9.189 2.174 -6.928 -29.877 0.275 621.195 2617.595 -3801.074 1.087 0.024 1.067 -0.08 -0.57 0.82 0
1 2.10 210 -2.198 -9.295 1.987 -7.080 -33.417 0.519 711.287 2602.604 -3816.064 0.964 0.125 1.242 -0.08 -0.57 0.82 0
1 2.11 211 -1.872 -9.357 2.030 -4.852 -36.652 2.411 621.195 2542.644 -3726.123 0.647 0.182 1.187 0.08 0.57 -0.81 0
1 2.12 212 -1.599 -9.520 2.035 0.031 -37.964 5.615 561.234 2557.634 -3606.051 0.391 0.338 1.170 0.07 0.58 -0.81 0.01
1 2.13 213 -1.389 -9.630 2.040 0.366 -34.973 7.935 561.234 2632.585 -3756.103 0.186 0.447 1.164 0.07 0.58 -0.81 0.01
1 2.14 214 -1.341 -9.668 2.169 -1.312 -31.769 8.881 561.234 2632.585 -3756.103 0.143 0.484 1.034 0.07 0.58 -0.81 0.01
1 2.15 215 -1.307 -9.975 2.322 -4.089 -27.771 7.355 531.254 2602.604 -3636.031 0.112 0.789 0.876 0.07 0.58 -0.81 0.01
1 2.16 216 -1.508 -10.027 2.624 -1.434 -23.926 5.035 531.254 2602.604 -3636.031 0.316 0.838 0.567 0.07 0.58 -0.81 0.01
1 2.17 217 -1.609 -10.123 3.050 2.808 -23.102 5.402 396.192 2632.585 -3681.002 0.420 0.932 0.136 0.06 0.58 -0.81 0.01
1 2.18 218 -1.700 -9.999 2.974 5.768 -24.445 6.897 396.192 2632.585 -3681.002 0.514 0.808 0.216 0.06 0.58 -0.81 0.02
1 2.19 219 -1.791 -9.635 2.782 9.369 -26.154 8.820 396.192 2632.585 -3681.002 0.605 0.447 0.416 0.06 0.58 -0.81 0.02
1 2.20 220 -1.935 -9.386 1.930 10.956 -29.907 9.705 471.293 2677.556 -3710.982 0.743 0.209 1.298 0.06 0.58 -0.82 0.02
1 2.21 221 -1.982 -9.352 1.417 9.613 -33.966 10.162 471.293 2677.556 -3710.982 0.788 0.181 1.824 0.06 0.58 -0.82 0.02
1 2.22 222 -1.939 -9.314 1.106 6.317 -37.689 8.850 456.303 2647.575 -3876.025 0.744 0.146 2.144 0.06 0.58 -0.82 0.03
1 2.23 223 -1.839 -9.548 1.082 3.296 -41.657 9.308 456.303 2647.575 -3876.025 0.644 0.381 2.169 0.06 0.58 -0.82 0.03
1 2.24 224 -1.528 -9.663 1.561 -1.038 -44.586 11.047 425.873 2408.631 -3784.285 0.336 0.494 1.687 0.05 0.58 -0.82 0.03
1 2.25 225 -1.317 -9.821 1.915 -3.967 -43.030 12.238 350.771 2558.533 -3784.285 0.129 0.649 1.325 0.05 0.58 -0.82 0.03
1 2.26 226 -1.183 -9.797 2.562 -6.042 -37.964 13.794 350.771 2558.533 -3784.285 -0.001 0.622 0.671 0.05 0.58 -0.81 0.04
1 2.27 227 -1.020 -9.711 4.468 -3.876 -24.628 16.327 380.902 2498.572 -3694.343 -0.168 0.531 -1.251 0.05 0.58 -0.81 0.04
1 2.28 228 -1.097 -9.778 5.200 1.801 -10.956 18.982 380.902 2498.572 -3694.343 -0.102 0.601 -1.978 0.04 0.58 -0.81 0.04
1 2.29 229 -1.202 -9.936 4.755 9.796 -3.052 24.628 320.791 2603.654 -3889.366 -0.021 0.765 -1.525 0.05 0.58 -0.81 0.04
1 2.30 230 -0.919 -10.133 3.788 16.052 -14.252 34.332 320.791 2603.654 -3889.366 -0.338 0.972 -0.540 0.05 0.58 -0.81 0.05
1 2.31 231 -0.053 -10.607 2.576 14.710 -42.481 50.293 245.840 2483.582 -3859.236 -1.247 1.462 0.700 0.05 0.58 -0.82 0.05
1 2.32 232 1.489 -11.124 2.792 13.031 -36.408 56.305 290.811 2528.553 -3814.265 -2.835 1.997 0.515 0.05 0.57 -0.82 0.05
1 2.33 233 1.724 -10.233 3.658 15.930 -10.101 52.460 290.811 2528.553 -3814.265 -3.126 1.125 -0.324 0.05 0.57 -0.82 0.06
1 2.34 234 1.034 -8.629 4.836 16.113 32.227 35.858 395.892 2558.533 -3784.285 -2.558 -0.440 -1.450 0.05 0.57 -0.82 0.06
1 2.35 235 0.230 -8.002 5.387 1.953 54.230 26.428 395.892 2558.533 -3784.285 -1.798 -1.052 -1.980 0.05 0.57 -0.82 0.06
1 2.36 236 -0.804 -7.916 5.334 -28.076 71.747 19.440 215.859 2438.611 -3784.285 -0.813 -1.131 -1.932 0.06 0.57 -0.82 0.06
1 2.37 237 -2.289 -8.059 4.607 -66.406 82.215 12.512 215.859 2438.611 -3784.285 0.617 -0.998 -1.257 0.06 0.57 -0.82 0.06
1 2.38 238 -3.740 -8.710 3.587 -98.267 82.093 5.371 260.830 2468.592 -3724.324 2.010 -0.377 -0.350 0.07 0.57 -0.81 0.06
1 2.39 239 -5.421 -10.248 2.006 -105.957 57.068 3.204 425.873 2528.553 -3754.304 3.635 1.116 1.071 0.07 0.58 -0.81 0.06
1 2.40 240 -6.168 -10.923 1.302 -81.879 29.511 7.355 425.873 2528.553 -3754.304 4.341 1.744 1.606 0.08 0.59 -0.8 0.06
1 2.41 241 -6.843 -10.875 1.279 -22.003 -11.505 5.585 410.882 2648.625 -3664.363 4.977 1.640 1.418 0.08 0.6 -0.8 0.06
1 2.42 242 -6.814 -10.176 1.839 11.871 -34.424 -6.653 410.882 2648.625 -3664.363 4.952 0.936 0.846 0.08 0.6 -0.8 0.06
1 2.43 243 -5.943 -9.338 2.653 25.879 -50.537 -19.287 560.785 2603.654 -3529.301 4.113 0.102 0.067 0.07 0.6 -0.8 0.06
1 2.44 244 -4.382 -8.710 3.395 17.792 -60.425 -25.604 560.785 2603.654 -3529.301 2.605 -0.520 -0.624 0.07 0.59 -0.8 0.06
1 2.45 245 -3.199 -8.275 3.486 -7.507 -66.254 -25.635 545.794 2693.595 -3619.242 1.476 -0.955 -0.678 0.06 0.59 -0.8 0.06
1 2.46 246 -1.331 -8.519 2.835 -49.683 -83.435 -15.198 515.814 2738.566 -3589.262 -0.340 -0.719 -0.024 0.06 0.59 -0.8 0.06
1 2.47 247 -0.105 -8.859 2.715 -65.491 -93.506 -6.042 515.814 2738.566 -3589.262 -1.512 -0.400 0.059 0.05 0.6 -0.8 0.07
1 2.48 248 1.619 -9.366 3.342 -64.911 -83.130 -1.312 320.791 2678.605 -3634.232 -3.127 0.049 -0.705 0.04 0.6 -0.79 0.07
1 2.49 249 1.968 -9.280 3.663 -58.289 -70.282 -4.242 320.791 2678.605 -3634.232 -3.420 -0.064 -1.090 0.04 0.61 -0.79 0.08
1 2.50 250 2.083 -9.094 4.334 -31.220 -16.724 -15.686 305.801 2918.599 -3469.340 -3.476 -0.271 -1.805 0.03 0.61 -0.79 0.08
1 2.51 251 1.317 -8.744 4.449 -19.440 13.611 -21.149 305.351 2919.348 -3467.241 -2.655 -0.636 -1.944 0.03 0.61 -0.79 0.08
1 2.52 252 0.579 -8.289 4.243 -18.555 27.741 -22.888 260.380 2844.397 -3542.192 -1.872 -1.101 -1.752 0.03 0.61 -0.79 0.07
1 2.53 253 -0.283 -7.738 3.864 -37.964 16.571 -22.095 140.309 2979.459 -3632.134 -0.971 -1.662 -1.393 0.03 0.61 -0.79 0.07
1 2.54 254 -0.555 -7.820 3.175 -50.202 -1.190 -21.057 140.309 2979.459 -3632.134 -0.663 -1.595 -0.741 0.03 0.61 -0.79 0.07
1 2.55 255 -0.321 -7.944 2.591 -59.235 -18.494 -17.883 335.332 2694.495 -3437.261 -0.867 -1.492 -0.225 0.03 0.62 -0.79 0.07
1 2.56 256 0.292 -8.394 2.160 -53.772 -34.577 -9.064 170.289 2754.456 -3557.183 -1.417 -1.088 0.045 0.02 0.62 -0.78 0.07
1 2.57 257 0.977 -8.619 2.246 -37.995 -38.941 -4.761 140.309 2784.436 -3347.169 -2.078 -0.881 -0.107 0.02 0.62 -0.78 0.07
1 2.58 258 1.417 -9.003 2.552 -14.313 -36.408 -2.045 140.309 2784.436 -3347.169 -2.491 -0.509 -0.451 0.02 0.63 -0.78 0.07
1 2.59 259 1.762 -9.328 2.978 6.165 -25.757 1.190 215.410 2859.387 -3347.169 -2.805 -0.188 -0.880 0.01 0.63 -0.78 0.07
1 2.60 260 1.561 -9.285 3.759 25.940 0.946 5.829 20.387 2979.459 -3377.150 -2.579 -0.228 -1.634 0.01 0.63 -0.78 0.07
1 2.61 261 1.221 -9.429 3.864 34.699 20.569 6.409 20.387 2979.459 -3377.150 -2.223 -0.075 -1.694 0.01 0.62 -0.78 0.07
1 2.62 262 0.565 -9.343 3.855 42.908 36.347 4.974 -54.564 3054.410 -3197.117 -1.562 -0.149 -1.626 0.01 0.62 -0.78 0.07
1 2.63 263 -0.536 -9.769 3.251 48.371 44.586 1.617 20.387 2949.479 -3347.169 -0.470 0.313 -0.882 0.01 0.62 -0.79 0.06
1 2.64 264 -1.188 -10.013 3.036 46.478 38.483 0.092 80.348 2964.469 -3512.212 0.170 0.576 -0.596 0.02 0.61 -0.79 0.06
1 2.65 265 -1.695 -10.425 2.562 37.476 25.482 -1.831 80.348 2964.469 -3512.212 0.666 1.006 -0.059 0.02 0.61 -0.79 0.06
1 2.66 266 -2.030 -10.679 2.385 23.132 10.101 -3.815 245.390 2784.436 -3377.150 0.995 1.273 0.165 0.02 0.61 -0.79 0.06
1 2.67 267 -2.073 -10.736 2.342 5.157 -4.395 -8.087 65.357 2829.407 -3347.169 1.043 1.337 0.235 0.02 0.61 -0.79 0.06
1 2.68 268 -1.556 -10.171 2.729 -18.127 -19.501 -14.679 65.357 2829.407 -3347.169 0.543 0.771 -0.150 0.02 0.61 -0.79 0.06
1 2.69 269 -0.915 -9.946 2.921 -28.198 -23.102 -17.914 140.309 2829.407 -3377.150 -0.071 0.538 -0.359 0.02 0.61 -0.79 0.06
1 2.70 270 -0.488 -9.491 3.093 -30.029 -21.759 -20.660 65.357 2784.436 -3497.222 -0.466 0.071 -0.565 0.02 0.61 -0.79 0.06
1 2.71 271 0.273 -9.419 3.213 -23.682 -14.557 -24.262 125.318 2919.348 -3617.144 -1.142 -0.027 -0.754 0.01 0.61 -0.79 0.06
1 2.72 272 0.618 -9.501 3.213 -15.839 -6.531 -24.933 125.318 2919.348 -3617.144 -1.437 0.044 -0.777 0.01 0.61 -0.79 0.06
1 2.73 273 0.757 -9.697 2.998 -5.432 3.204 -23.316 125.318 2889.368 -3437.261 -1.528 0.233 -0.574 0.01 0.61 -0.79 0.05
1 2.74 274 0.713 -9.635 2.883 3.235 10.925 -21.973 20.387 2859.387 -3347.169 -1.441 0.167 -0.459 0.01 0.61 -0.79 0.05
1 2.75 275 0.302 -9.285 2.327 14.984 17.029 -20.081 20.387 2859.387 -3347.169 -0.991 -0.183 0.108 0.01 0.61 -0.79 0.05
1 2.76 276 0.134 -9.137 2.040 19.379 16.663 -19.440 20.387 2979.459 -3347.169 -0.789 -0.328 0.415 0 0.61 -0.79 0.05
1 2.77 277 -0.115 -8.864 1.963 18.005 13.001 -20.264 -24.434 2844.397 -3542.192 -0.510 -0.597 0.516 0 0.61 -0.79 0.05
1 2.78 278 -0.599 -8.634 2.203 7.111 4.700 -20.050 -84.545 2904.358 -3317.189 0.031 -0.819 0.319 0 0.61 -0.79 0.04
1 2.79 279 -0.661 -8.734 2.457 -3.021 -0.214 -19.013 -84.545 2904.358 -3317.189 0.122 -0.719 0.071 0 0.61 -0.79 0.04
1 2.80 280 -0.723 -8.998 2.423 -10.132 -2.014 -18.158 65.357 2859.387 -3317.189 0.212 -0.458 0.099 0 0.61 -0.79 0.04
1 2.81 281 -0.819 -9.443 2.667 -9.766 -0.641 -18.372 80.348 2889.368 -3362.160 0.334 -0.018 -0.159 0 0.61 -0.79 0.04
1 2.82 282 -0.900 -9.941 2.581 -3.693 2.167 -18.677 80.348 2889.368 -3362.160 0.440 0.476 -0.083 0 0.61 -0.79 0.04
1 2.83 283 -0.972 -10.291 2.624 10.345 5.585 -18.585 -9.444 2784.436 -3422.121 0.535 0.824 -0.128 0 0.61 -0.79 0.04
1 2.84 284 -0.776 -10.520 2.538 18.127 2.747 -18.768 -9.444 2859.387 -3317.189 0.361 1.056 -0.031 -0 0.61 -0.79 0.03
1 2.85 285 -0.388 -10.243 2.303 23.773 -7.141 -16.357 95.338 2829.407 -3422.121 0.023 0.791 0.259 -0 0.61 -0.79 0.03
1 2.86 286 0.048 -9.836 2.241 19.287 -11.383 -13.886 95.338 2829.407 -3422.121 -0.386 0.392 0.354 -0 0.61 -0.79 0.03
1 2.87 287 0.374 -9.515 2.327 9.552 -11.108 -12.054 -24.434 2769.446 -3407.130 -0.685 0.076 0.291 -0 0.61 -0.8 0.03
1 2.88 288 0.570 -9.189 2.437 -2.930 -7.446 -10.529 20.387 2709.485 -3347.169 -0.856 -0.248 0.189 -0.01 0.6 -0.8 0.03
1 2.89 289 0.733 -9.132 2.188 -14.740 -1.465 -11.536 20.387 2709.485 -3347.169 -0.994 -0.308 0.430 -0.01 0.61 -0.8 0.03
1 2.90 290 0.704 -9.074 2.088 -25.177 6.226 -14.587 -144.206 2648.175 -3334.877 -0.940 -0.373 0.505 -0.01 0.61 -0.79 0.03
1 2.91 291 0.752 -9.098 1.935 -23.956 8.667 -13.306 -114.226 2708.136 -3379.998 -0.962 -0.360 0.623 -0.01 0.61 -0.79 0.03
1 2.92 292 0.905 -9.208 1.982 -14.832 10.407 -12.512 5.696 2738.116 -3409.979 -1.069 -0.269 0.506 -0.01 0.61 -0.79 0.02
1 2.93 293 0.972 -9.290 2.002 -12.024 11.383 -11.993 5.696 2738.116 -3409.979 -1.113 -0.194 0.465 -0.01 0.61 -0.79 0.02
1 2.94 294 0.943 -9.280 2.169 -6.165 12.634 -11.292 -54.265 2783.087 -3424.969 -1.063 -0.207 0.284 -0.01 0.61 -0.79 0.02
1 2.95 295 1.212 -9.295 2.299 -5.646 14.252 -9.796 -159.196 2948.129 -3349.868 -1.311 -0.195 0.145 -0.01 0.61 -0.79 0.02
1 2.96 296 1.326 -9.184 2.193 -7.660 16.419 -9.674 -159.196 2948.129 -3349.868 -1.406 -0.308 0.242 -0.01 0.61 -0.79 0.02
1 2.97 297 1.226 -9.127 2.332 -14.465 23.682 -6.470 -69.255 2918.149 -3259.926 -1.288 -0.368 0.091 -0.01 0.61 -0.79 0.02
1 2.98 298 1.207 -8.912 2.145 -20.416 30.182 -4.883 -9.144 2903.159 -3379.998 -1.255 -0.589 0.259 -0.01 0.61 -0.79 0.01
1 2.99 299 1.221 -8.806 1.987 -27.618 36.530 -5.157 -9.144 2903.159 -3379.998 -1.261 -0.701 0.391 -0.01 0.62 -0.79 0.01
1 3.00 300 0.982 -9.151 1.681 -31.586 44.129 -6.836 -54.265 2828.058 -3424.969 -1.014 -0.376 0.615 -0 0.62 -0.79 0.01
1 3.01 301 0.809 -9.644 1.465 -26.398 44.220 -8.057 -144.206 2843.048 -3184.975 -0.837 0.106 0.783 -0 0.62 -0.78 0
1 3.02 302 0.623 -10.137 1.432 -16.907 41.382 -9.460 5.696 2888.168 -3214.956 -0.645 0.590 0.778 0 0.62 -0.78 0
1 3.03 303 0.493 -10.310 1.379 -5.127 38.941 -10.010 5.696 2888.168 -3214.956 -0.510 0.756 0.805 -0 -0.62 0.78 0
1 3.04 304 0.364 -10.511 1.140 10.284 43.427 -6.073 -69.255 2843.048 -3334.877 -0.376 0.955 1.036 -0 -0.62 0.78 0
1 3.05 305 0.244 -10.396 0.977 16.937 47.791 -3.937 -69.255 3038.071 -3214.956 -0.255 0.842 1.203 -0.01 -0.62 0.78 0.01
1 3.06 306 0.053 -10.382 0.943 16.998 50.507 -1.068 -69.255 3038.071 -3214.956 -0.068 0.831 1.252 -0.01 -0.62 0.78 0.01
1 3.07 307 -0.134 -10.291 0.785 8.484 49.591 0.488 -24.134 2843.048 -3289.907 0.090 0.746 1.437 -0.01 -0.62 0.78 0.01
1 3.08 308 -0.445 -10.501 0.800 -1.678 47.272 1.892 65.657 2903.159 -3199.965 0.384 0.956 1.421 -0.02 -0.62 0.78 0.02
1 3.09 309 -0.527 -10.707 0.852 -9.277 44.037 2.655 95.638 2903.159 -3199.965 0.445 1.159 1.352 -0.02 -0.62 0.78 0.02
1 3.10 310 -0.613 -10.827 0.881 -15.228 40.863 0.549 95.638 2903.159 -3199.965 0.511 1.272 1.296 -0.02 -0.62 0.78 0.02
1 3.11 311 -0.527 -11.095 1.504 -18.799 35.401 -2.960 50.667 2963.120 -3154.995 0.411 1.534 0.644 -0.03 -0.62 0.78 0.02
1 3.12 312 -0.024 -11.636 3.031 -16.846 20.935 -11.658 125.618 2813.067 -3214.956 -0.096 2.069 -0.911 -0.03 -0.63 0.78 0.02
1 3.13 313 0.134 -11.890 3.467 -13.062 15.350 -17.975 125.618 2813.067 -3214.956 -0.246 2.317 -1.372 -0.03 -0.63 0.78 0.03
1 3.14 314 -0.273 -11.962 3.524 -15.259 18.189 -18.982 320.641 2828.058 -3244.936 0.181 2.385 -1.449 -0.03 -0.63 0.78 0.03
1 3.15 315 -1.384 -12.005 2.495 -30.975 21.698 -20.447 -8.694 2977.360 -3246.585 1.339 2.417 -0.470 -0.03 -0.63 0.78 0.03
1 3.16 316 -2.145 -12.082 1.834 -42.511 14.221 -20.020 171.188 2857.438 -3201.614 2.125 2.483 0.141 -0.03 -0.63 0.77 0.03
1 3.17 317 -2.366 -11.890 1.283 -44.464 -3.632 -15.656 171.188 2857.438 -3201.614 2.371 2.278 0.628 -0.03 -0.63 0.77 0.03
1 3.18 318 -2.064 -11.181 1.001 -35.431 -27.985 -11.017 51.117 2917.399 -3216.604 2.095 1.557 0.848 -0.03 -0.64 0.77 0.04
1 3.19 319 -0.785 -9.984 0.953 -19.989 -49.133 -5.920 141.058 2977.360 -3066.702 0.841 0.351 0.849 -0.02 -0.64 0.77 0.03
1 3.20 320 -0.125 -9.510 0.771 -20.813 -48.615 -0.549 141.058 2977.360 -3066.702 0.199 -0.129 0.996 -0.02 -0.64 0.77 0.03
1 3.21 321 0.484 -9.204 0.757 -28.473 -41.077 5.188 246.140 3127.413 -3096.683 -0.397 -0.442 0.976 -0.02 -0.64 0.77 0.03
1 3.22 322 0.852 -9.319 0.943 -36.408 -26.672 10.559 66.107 2977.360 -3096.683 -0.759 -0.344 0.687 -0.02 -0.65 0.76 0.03
1 3.23 323 0.967 -9.630 1.350 -32.135 -18.463 11.810 96.087 2947.380 -3096.683 -0.877 -0.043 0.224 -0.01 -0.65 0.76 0.02
1 3.24 324 0.876 -10.123 2.040 -21.637 -11.139 13.977 96.087 2947.380 -3096.683 -0.793 0.443 -0.512 -0.01 -0.65 0.76 0.02
1 3.25 325 0.651 -9.927 2.409 -10.773 -2.533 15.442 -8.694 3127.413 -2991.601 -0.580 0.243 -0.906 -0.01 -0.65 0.76 0.02
1 3.26 326 0.441 -9.553 2.897 -6.287 5.035 13.794 6.146 2992.351 -3081.692 -0.386 -0.132 -1.400 -0.01 -0.65 0.76 0.02
1 3.27 327 0.230 -9.208 2.974 -14.740 5.096 16.693 6.146 2992.351 -3081.692 -0.193 -0.476 -1.475 -0.01 -0.65 0.76 0.02
1 3.28 328 0.244 -8.639 3.481 -28.320 4.120 19.135 141.058 3127.413 -2871.679 -0.228 -1.047 -1.989 -0.02 -0.65 0.76 0.02
1 3.29 329 0.168 -8.102 3.663 -48.248 5.188 15.259 51.117 3067.452 -3006.591 -0.202 -1.593 -2.237 -0.02 -0.65 0.76 0.02
1 3.30 330 -0.091 -7.925 3.778 -47.699 8.545 9.613 126.068 3112.422 -3006.591 0.037 -1.778 -2.406 -0.02 -0.66 0.75 0.02
1 3.31 331 -0.139 -7.954 3.510 -36.591 11.322 0.916 126.068 3112.422 -3006.591 0.074 -1.759 -2.205 -0.02 -0.66 0.75 0.02
1 3.32 332 -0.187 -8.155 3.544 -19.501 16.693 -2.594 -8.694 2977.360 -3021.582 0.120 -1.564 -2.286 -0.02 -0.66 0.75 0.02
1 3.33 333 0.115 -8.318 3.208 -1.495 20.477 -4.669 81.097 3262.475 -2931.640 -0.179 -1.401 -1.953 -0.02 -0.66 0.75 0.02
1 3.34 334 0.019 -8.572 2.557 27.283 22.125 -7.538 81.247 3262.325 -2932.090 -0.078 -1.146 -1.289 -0.02 -0.66 0.75 0.02
1 3.35 335 -0.168 -8.595 2.332 48.828 21.790 -9.216 81.247 3157.393 -2932.090 0.116 -1.116 -1.022 -0.02 -0.66 0.75 0.02
1 3.36 336 -0.460 -8.888 2.543 73.212 23.773 -12.970 231.299 3157.393 -2827.158 0.429 -0.799 -1.055 -0.02 -0.65 0.76 0.03
1 3.37 337 -0.694 -8.868 2.433 77.606 26.215 -14.679 171.188 3022.331 -2842.148 0.677 -0.799 -0.824 -0.03 -0.65 0.76 0.03
1 3.38 338 -1.106 -8.782 2.897 77.057 37.079 -21.668 171.188 3022.331 -2842.148 1.102 -0.863 -1.163 -0.03 -0.64 0.77 0.03
1 3.39 339 -1.413 -8.892 3.098 70.191 45.471 -27.161 96.237 3172.383 -3067.152 1.425 -0.730 -1.243 -0.03 -0.64 0.77 0.03
1 3.40 340 -1.710 -9.534 2.691 57.556 50.659 -33.844 51.267 3037.321 -3082.142 1.742 -0.067 -0.726 -0.03 -0.63 0.77 0.04
1 3.41 341 -1.815 -10.966 2.208 33.081 47.363 -34.821 51.267 3037.321 -3082.142 1.870 1.383 -0.156 -0.03 -0.63 0.78 0.04
1 3.42 342 -2.121 -11.761 1.714 17.365 33.020 -25.604 216.159 2947.380 -3067.152 2.208 2.191 0.396 -0.03 -0.63 0.78 0.05
1 3.43 343 -2.308 -12.359 1.757 5.951 11.292 -9.766 216.159 2947.380 -3067.152 2.425 2.797 0.386 -0.03 -0.62 0.78 0.05
1 3.44 344 -2.270 -11.861 2.404 -3.571 -18.982 14.679 51.267 2887.269 -3007.191 2.400 2.303 -0.245 -0.03 -0.62 0.78 0.05
1 3.45 345 -2.112 -10.937 2.686 -6.470 -28.290 20.355 51.267 2887.269 -3007.191 2.226 1.377 -0.533 -0.03 -0.62 0.78 0.05
1 3.46 346 -1.844 -9.936 2.849 -5.249 -23.773 17.639 81.247 2917.250 -3157.093 1.939 0.374 -0.705 -0.03 -0.62 0.78 0.05
1 3.47 347 -1.360 -9.433 2.825 -2.869 -11.993 14.771 126.218 2887.269 -3037.171 1.431 -0.129 -0.684 -0.03 -0.62 0.78 0.04
1 3.48 348 -1.341 -9.175 2.461 1.007 11.169 17.700 126.218 2887.269 -3037.171 1.383 -0.387 -0.317 -0.03 -0.62 0.78 0.04
1 3.49 349 -1.293 -9.151 1.930 2.655 21.301 19.440 246.290 3022.331 -3097.132 1.298 -0.410 0.222 -0.03 -0.62 0.78 0.04
1 3.50 350 -1.087 -9.433 1.437 1.678 23.132 21.607 246.290 3022.331 -3097.132 1.048 -0.126 0.722 -0.04 -0.62 0.78 0.04
1 3.51 351 -1.312 -9.630 1.283 2.991 18.646 24.811 156.198 2917.250 -3037.171 1.227 0.071 0.877 -0.04 -0.62 0.78 0.04
1 3.52 352 -1.547 -9.965 1.326 12.695 2.258 27.344 141.958 2855.790 -3025.929 1.362 0.409 0.838 -0.04 -0.62 0.78 0.04
1 3.53 353 -1.710 -10.118 1.671 21.240 -11.200 26.245 247.039 2855.790 -3175.981 1.476 0.567 0.510 -0.04 -0.62 0.78 0.04
1 3.54 354 -1.537 -10.123 1.954 27.161 -22.247 26.032 262.029 2810.819 -3115.870 1.261 0.580 0.257 -0.04 -0.62 0.78 0.03
1 3.55 355 -1.504 -10.157 2.370 34.515 -27.557 26.337 262.029 2810.819 -3115.870 1.188 0.624 -0.119 -0.04 -0.62 0.78 0.03
1 3.56 356 -1.077 -9.917 2.868 46.692 -28.687 25.238 217.059 2900.760 -3100.880 0.725 0.399 -0.561 -0.04 -0.62 0.79 0.03
1 3.57 357 -1.154 -9.620 2.806 49.530 -24.750 25.482 217.059 2900.760 -3100.880 0.768 0.121 -0.429 -0.04 -0.61 0.79 0.02
1 3.58 358 -1.173 -9.386 2.538 45.288 -20.905 27.008 247.039 2750.858 -3175.981 0.756 -0.093 -0.085 -0.04 -0.61 0.79 0.02
1 3.59 359 -1.465 -8.706 2.050 25.757 -17.334 29.663 217.059 2675.757 -3175.981 0.974 -0.736 0.532 -0.04 -0.61 0.79 0.02
1 3.60 360 -1.523 -8.538 1.824 10.071 -16.327 31.159 171.938 2705.737 -3325.883 0.989 -0.892 0.788 -0.04 -0.6 0.8 0.01
1 3.61 361 -1.647 -8.552 1.638 -4.150 -14.435 31.891 141.958 2675.757 -3130.860 1.068 -0.873 0.983 -0.05 -0.6 0.8 0.01
1 3.62 362 -1.973 -8.572 1.183 -14.801 -15.808 30.579 141.958 2675.757 -3130.860 1.345 -0.854 1.425 -0.05 -0.6 0.8 0.01
1 3.63 363 -2.418 -9.026 0.867 -18.555 -24.170 22.430 217.059 2705.737 -3175.981 1.745 -0.404 1.713 -0.05 -0.61 0.79 0
1 3.64 364 -2.658 -9.275 0.876 -15.533 -34.546 17.242 217.059 2705.737 -3175.981 1.948 -0.161 1.670 -0.05 -0.61 0.79 0
1 3.65 365 -2.567 -9.433 1.274 -9.735 -47.943 13.947 217.059 2750.858 -3205.961 1.829 -0.009 1.242 0.05 0.61 -0.79 0
1 3.66 366 -2.169 -9.208 1.844 -3.845 -67.108 12.177 141.958 2825.809 -3175.981 1.406 -0.241 0.640 0.04 0.61 -0.79 0.01
1 3.67 367 -1.887 -9.098 2.121 -3.754 -72.876 15.930 247.039 2705.737 -3175.981 1.120 -0.351 0.360 0.04 0.61 -0.79 0.01
1 3.68 368 -1.326 -8.902 2.490 -8.606 -72.357 22.156 187.078 2615.796 -3295.903 0.555 -0.547 -0.008 0.04 0.61 -0.79 0.02
1 3.69 369 -1.015 -8.634 2.629 -18.433 -66.834 26.062 187.078 2615.796 -3295.903 0.233 -0.816 -0.152 0.03 0.61 -0.79 0.02
1 3.70 370 -0.982 -8.442 2.811 -33.722 -57.282 23.743 7.045 2615.796 -3160.991 0.184 -1.011 -0.353 0.03 0.61 -0.79 0.03
1 3.71 371 -0.747 -8.682 2.820 -39.185 -50.354 18.097 7.045 2615.796 -3160.991 -0.065 -0.779 -0.397 0.03 0.61 -0.79 0.03
1 3.72 372 -0.953 -9.117 2.710 -36.560 -44.769 12.634 67.006 2705.737 -3355.864 0.132 -0.353 -0.329 0.02 0.61 -0.79 0.04
1 3.73 373 -0.991 -9.625 1.767 -22.736 -44.342 5.798 96.987 2750.858 -3100.880 0.170 0.135 0.536 0.02 0.62 -0.78 0.04
1 3.74 374 -0.948 -10.142 0.718 -9.552 -52.124 2.686 7.045 2735.868 -3160.991 0.136 0.646 1.561 0.02 0.62 -0.78 0.05
1 3.75 375 -0.618 -10.453 -0.292 6.622 -63.629 1.801 -67.906 2960.871 -3115.870 -0.179 0.953 2.561 0.01 0.62 -0.78 0.05
1 3.76 376 -0.292 -10.439 -0.704 22.705 -72.296 3.754 -67.906 2960.871 -3115.870 -0.483 0.938 2.979 0.01 0.62 -0.78 0.05
1 3.77 377 0.057 -10.214 -0.316 33.020 -72.602 5.646 -172.837 2840.799 -3085.890 -0.809 0.717 2.616 0.01 0.62 -0.78 0.05
1 3.78 378 0.498 -10.295 3.682 29.877 -55.023 8.209 -172.837 2840.799 -3085.890 -1.228 0.806 -1.345 0 0.62 -0.78 0.06
1 3.79 379 0.627 -11.038 4.923 19.989 -31.921 14.923 -7.795 2945.881 -3250.932 -1.338 1.559 -2.536 -0 0.62 -0.79 0.06
1 3.80 380 0.963 -11.320 5.497 4.944 -8.759 26.398 -67.906 2615.796 -3115.870 -1.701 1.859 -3.051 -0 0.61 -0.79 0.07
1 3.81 381 1.025 -11.545 5.301 -1.251 -2.228 27.100 -142.857 2735.868 -3160.991 -1.799 2.088 -2.850 -0 0.61 -0.79 0.07
1 3.82 382 0.350 -12.417 2.974 -29.633 10.254 27.466 -172.837 2645.776 -3220.952 -1.163 2.958 -0.543 -0 0.61 -0.79 0.07
1 3.83 383 -0.383 -12.407 2.241 -44.495 8.392 33.478 -172.837 2645.776 -3220.952 -0.476 2.940 0.140 0 0.62 -0.79 0.07
1 3.84 384 -1.006 -10.966 1.700 -48.645 1.312 29.022 -97.886 2645.776 -3295.903 0.096 1.487 0.614 0 0.62 -0.78 0.07
1 3.85 385 -1.212 -9.429 1.681 -47.333 -15.106 9.369 -97.886 2645.776 -3295.903 0.266 -0.064 0.563 0 0.62 -0.78 0.07
1 3.86 386 -1.121 -9.199 2.121 -49.988 -16.174 0.824 -157.847 2855.790 -3175.981 0.159 -0.309 0.050 0 0.62 -0.78 0.08
1 3.87 387 -1.341 -9.122 2.662 -62.317 -5.249 -5.005 -7.795 2675.757 -3100.880 0.381 -0.401 -0.560 0 0.63 -0.78 0.08
1 3.88 388 -1.695 -9.831 3.122 -85.083 9.644 -12.573 -217.808 2765.848 -3115.870 0.752 0.267 -1.204 -0 0.63 -0.77 0.08
1 3.89 389 -1.887 -10.018 3.227 -87.647 8.911 -11.902 22.036 2900.760 -2995.948 0.956 0.429 -1.428 -0 0.64 -0.77 0.08
1 3.90 390 -1.844 -9.802 3.467 -74.311 0.549 -10.559 22.036 2900.760 -2995.948 0.921 0.192 -1.782 -0 0.64 -0.76 0.07
1 3.91 391 -1.839 -9.333 3.448 -48.523 -9.399 -11.078 -157.847 2900.760 -3100.880 0.928 -0.293 -1.850 -0 0.65 -0.76 0.07
1 3.92 392 -1.690 -7.168 3.017 -21.484 -14.893 -6.287 -157.847 2900.760 -3100.880 0.791 -2.466 -1.464 -0 0.65 -0.76 0.07
1 3.93 393 -1.547 -6.134 2.682 -17.426 -22.583 -7.202 -142.857 3035.822 -2905.857 0.656 -3.504 -1.146 -0 0.65 -0.76 0.08
1 3.94 394 -1.513 -5.631 2.476 -18.646 -34.271 -7.477 -307.899 3095.783 -3025.929 0.638 -4.012 -0.964 -0.01 0.65 -0.76 0.08
1 3.95 395 -0.819 -5.909 2.054 -12.756 -47.394 -0.916 -277.769 2840.500 -3087.089 -0.018 -3.744 -0.585 -0.01 0.65 -0.75 0.08
1 3.96 396 0.043 -6.326 1.757 4.486 -47.791 7.629 -217.808 3065.503 -3011.988 -0.870 -3.329 -0.294 -0.01 0.65 -0.75 0.08
1 3.97 397 0.915 -6.819 1.748 25.513 -42.664 18.860 -217.808 3065.503 -3011.988 -1.745 -2.832 -0.263 -0.02 0.65 -0.75 0.09
1 3.98 398 1.504 -7.446 1.595 44.037 -34.058 28.046 -112.727 3020.532 -2877.076 -2.356 -2.195 -0.059 -0.02 0.65 -0.76 0.09
1 3.99 399 1.781 -8.260 1.408 61.524 -24.841 33.295 -112.727 3020.532 -2877.076 -2.669 -1.365 0.205 -0.02 0.65 -0.76 0.09
1 4.00 400 1.896 -10.204 1.221 87.769 -16.724 32.288 -247.789 2960.421 -2862.085 -2.826 0.601 0.494 -0.02 0.64 -0.76 0.09
1 4.01 401 1.901 -11.382 2.227 100.067 -11.536 28.931 -232.798 2945.431 -2877.076 -2.852 1.803 -0.388 -0.02 0.64 -0.76 0.1
1 4.02 402 1.954 -12.254 3.903 93.689 -2.045 21.301 -232.798 2945.431 -2877.076 -2.933 2.707 -1.921 -0.02 0.63 -0.77 0.1
1 4.03 403 1.537 -12.819 6.172 35.492 20.996 3.021 -157.847 2825.509 -3102.079 -2.569 3.331 -3.945 -0.01 0.62 -0.78 0.1
1 4.04 404 0.795 -12.814 6.187 -21.118 36.438 -9.155 -157.847 2825.509 -3102.079 -1.834 3.334 -3.931 -0.01 0.62 -0.78 0.1
1 4.05 405 0.120 -12.446 5.004 -67.047 48.584 -17.029 -247.789 2885.470 -3042.118 -1.154 2.952 -2.804 -0.01 0.62 -0.78 0.1
1 4.06 406 -0.670 -11.627 3.395 -78.705 54.657 -22.553 -247.789 2885.470 -3042.118 -0.353 2.107 -1.307 -0.01 0.63 -0.77 0.09
1 4.07 407 -1.470 -10.401 1.484 -40.314 40.924 -29.877 -142.857 2735.418 -2862.085 0.466 0.853 0.485 -0.01 0.63 -0.77 0.09
1 4.08 408 -1.427 -9.941 0.967 3.906 18.951 -31.677 -157.847 2630.486 -3027.128 0.453 0.375 0.924 -0.01 0.64 -0.77 0.09
1 4.09 409 -0.862 -9.151 0.891 40.833 -3.998 -30.090 -157.248 2627.488 -3032.974 -0.076 -0.423 0.982 -0.01 0.64 -0.77 0.08
1 4.10 410 0.292 -8.279 1.551 54.260 -19.898 -26.672 -187.228 2852.492 -2958.023 -1.140 -1.279 0.437 -0.01 0.63 -0.77 0.08
1 4.11 411 0.967 -7.920 2.002 37.781 -12.024 -29.022 -187.228 2852.492 -2958.023 -1.769 -1.626 0.066 -0.01 0.63 -0.77 0.08
1 4.12 412 1.178 -7.963 2.404 12.024 6.897 -31.372 -172.238 2882.472 -3093.085 -1.932 -1.576 -0.289 -0.01 0.63 -0.78 0.08
1 4.13 413 0.872 -8.227 2.864 -13.062 27.680 -30.457 -172.238 2882.472 -3093.085 -1.583 -1.314 -0.741 -0.01 0.63 -0.78 0.08
1 4.14 414 -0.067 -8.979 2.327 -38.178 42.481 -22.400 -142.257 2807.521 -3123.065 -0.611 -0.571 -0.235 -0.01 0.63 -0.78 0.07
1 4.15 415 -0.733 -9.443 1.891 -45.502 37.140 -19.562 -307.150 2852.492 -3138.056 0.085 -0.119 0.153 -0.01 0.63 -0.77 0.07
1 4.16 416 -1.034 -9.836 1.575 -42.603 21.698 -18.463 -307.150 2852.492 -3138.056 0.407 0.258 0.404 -0.01 0.63 -0.77 0.07
1 4.17 417 -1.068 -10.425 1.499 -24.689 -1.434 -17.151 -112.127 2777.541 -3077.945 0.481 0.820 0.358 -0.01 0.64 -0.77 0.06
1 4.18 418 -0.685 -10.415 1.753 -7.141 -10.529 -16.419 -112.127 2777.541 -3077.945 0.121 0.803 0.072 -0.01 0.64 -0.77 0.06
1 4.19 419 -0.297 -10.161 2.069 13.031 -13.336 -17.120 -232.199 2852.492 -2928.042 -0.240 0.547 -0.248 -0.02 0.64 -0.77 0.06
1 4.20 420 0.115 -9.936 2.303 31.860 -9.338 -18.036 -232.199 2852.492 -2928.042 -0.620 0.326 -0.453 -0.02 0.64 -0.77 0.06
1 4.21 421 0.350 -9.510 2.605 47.760 -1.984 -18.829 -262.179 2942.583 -3077.945 -0.821 -0.091 -0.698 -0.02 0.63 -0.77 0.06
1 4.22 422 0.690 -9.237 2.610 54.718 11.810 -21.271 -352.271 2882.472 -2913.052 -1.125 -0.350 -0.624 -0.02 0.63 -0.77 0.06
1 4.23 423 0.632 -9.189 2.500 46.448 19.043 -20.325 -352.271 2882.472 -2913.052 -1.032 -0.381 -0.428 -0.02 0.63 -0.78 0.06
1 4.24 424 0.599 -9.266 1.954 26.276 23.193 -16.785 -247.189 2762.550 -3123.065 -0.936 -0.277 0.250 -0.02 0.62 -0.78 0.05
1 4.25 425 0.642 -9.362 1.877 19.226 23.346 -15.350 -247.189 2762.550 -3123.065 -0.955 -0.175 0.359 -0.02 0.62 -0.78 0.05
1 4.26 426 0.828 -8.983 1.523 1.740 23.651 -9.094 -427.222 2762.550 -3093.085 -1.123 -0.551 0.726 -0.02 0.62 -0.78 0.05
1 4.27 427 1.154 -8.830 1.317 -5.829 24.750 -5.890 -427.222 2762.550 -3093.085 -1.436 -0.705 0.927 -0.02 0.62 -0.78 0.05
1 4.28 428 1.298 -8.619 1.370 -11.902 28.626 -4.089 -277.169 2807.521 -3017.984 -1.569 -0.920 0.858 -0.02 0.62 -0.78 0.05
1 4.29 429 1.164 -8.548 1.279 -18.036 35.004 -1.221 -232.199 2747.560 -3077.945 -1.434 -0.997 0.928 -0.02 0.62 -0.78 0.04
1 4.30 430 1.030 -8.648 1.480 -18.189 39.124 -0.549 -232.199 2747.560 -3077.945 -1.309 -0.902 0.701 -0.02 0.62 -0.78 0.04
1 4.31 431 0.450 -8.907 1.575 -14.099 40.466 1.068 -157.248 2747.560 -3108.075 -0.740 -0.650 0.577 -0.01 0.62 -0.78 0.04
1 4.32 432 -0.110 -9.161 1.705 1.007 40.009 1.373 -187.228 2822.511 -3077.945 -0.193 -0.404 0.407 -0.01 0.63 -0.78 0.04
1 4.33 433 -0.599 -9.486 1.911 12.238 39.459 0.305 -172.238 2837.501 -3123.065 0.283 -0.078 0.204 -0.01 0.63 -0.78 0.03
1 4.34 434 -0.919 -9.630 1.925 20.905 39.429 -2.319 -172.238 2837.501 -3123.065 0.591 0.070 0.208 -0 0.63 -0.78 0.03
1 4.35 435 -0.804 -9.692 2.073 24.750 39.612 -5.524 -157.248 2822.511 -3183.026 0.466 0.140 0.090 -0 0.62 -0.78 0.03
1 4.36 436 -1.025 -9.735 2.112 19.013 40.100 -9.430 -112.127 2747.560 -3002.994 0.679 0.191 0.085 0 0.62 -0.78 0.03
1 4.37 437 -1.082 -9.635 1.915 12.756 35.004 -10.010 -112.127 2747.560 -3002.994 0.732 0.097 0.310 0 0.62 -0.78 0.03
1 4.38 438 -0.900 -9.438 1.858 4.486 27.313 -8.728 -337.130 2897.612 -3077.945 0.548 -0.095 0.386 0 0.62 -0.78 0.02
1 4.39 439 -0.618 -9.290 1.676 -7.385 16.144 -6.714 -247.189 2837.501 -3017.984 0.265 -0.243 0.568 0.01 0.62 -0.78 0.02
1 4.40 440 -0.105 -9.381 1.480 -11.200 10.468 -8.209 -112.127 2702.589 -3032.974 -0.243 -0.156 0.749 0.01 0.62 -0.78 0.02
1 4.41 441 0.345 -9.534 1.264 -9.369 7.050 -11.749 -112.127 2702.589 -3032.974 -0.680 -0.008 0.943 0.01 0.62 -0.78 0.02
1 4.42 442 0.776 -9.932 1.034 -2.075 8.545 -12.054 -262.179 2852.492 -3108.075 -1.091 0.385 1.156 0.01 0.62 -0.78 0.02
1 4.43 443 1.049 -10.449 0.613 5.920 14.404 -10.010 -22.186 2762.550 -3047.964 -1.341 0.899 1.570 0.01 0.62 -0.78 0.02
1 4.44 444 1.053 -11.354 0.182 16.876 24.445 -9.552 -22.186 2762.550 -3047.964 -1.327 1.804 2.002 0.01 0.62 -0.78 0.02
1 4.45 445 0.986 -12.264 0.287 20.203 30.396 -11.780 -232.199 2702.589 -3138.056 -1.253 2.719 1.919 0.01 0.62 -0.78 0.01
1 4.46 446 0.919 -12.795 0.757 20.599 34.088 -9.491 -67.156 2837.501 -2988.003 -1.179 3.257 1.478 0.01 0.62 -0.78 0.01
1 4.47 447 0.570 -12.738 1.197 14.862 32.410 -3.693 -82.146 2702.589 -3108.075 -0.827 3.213 1.095 0.01 0.62 -0.79 0.01
1 4.48 448 0.584 -12.283 1.293 6.134 31.189 1.099 -82.146 2702.589 -3108.075 -0.848 2.763 1.018 0.01 0.62 -0.79 0.01
1 4.49 449 0.685 -12.072 1.370 -4.517 34.332 3.662 -97.137 2687.599 -3168.036 -0.962 2.553 0.946 0.01 0.62 -0.79 0.01
1 4.50 450 0.627 -11.890 2.102 -16.571 38.666 2.960 -22.186 2882.472 -3093.085 -0.921 2.369 0.201 0.02 0.62 -0.79 0
1 4.51 451 -0.053 -11.876 2.797 -22.339 34.241 -7.751 -22.186 2882.472 -3093.085 -0.257 2.349 -0.521 0.02 0.62 -0.78 0
1 4.52 452 -0.843 -11.904 2.859 -24.292 24.109 -14.069 -52.166 2747.560 -3213.007 0.529 2.369 -0.617 0.02 0.62 -0.78 0
1 4.53 453 -1.714 -11.608 2.787 -36.591 16.449 -14.374 -82.146 2897.612 -3077.945 1.411 2.064 -0.579 -0.02 -0.62 0.78 0
1 4.54 454 -2.868 -11.411 2.897 -75.287 -0.946 -12.756 52.616 2837.501 -3093.085 2.600 1.838 -0.816 -0.02 -0.63 0.78 0
1 4.55 455 -3.165 -11.282 2.624 -97.870 -15.350 -6.256 52.616 2837.501 -3093.085 2.916 1.684 -0.662 -0.02 -0.63 0.77 0
1 4.56 456 -2.586 -11.066 2.342 -107.910 -33.966 0.427 82.596 2687.599 -3047.964 2.350 1.439 -0.527 -0.02 -0.64 0.77 0
1 4.57 457 -1.556 -10.324 2.131 -111.115 -48.371 6.531 -52.166 2897.612 -3032.974 1.329 0.668 -0.476 -0.02 -0.64 0.76 0
1 4.58 458 0.091 -9.601 2.083 -110.230 -50.385 5.493 -52.166 2897.612 -3032.974 -0.321 -0.081 -0.588 0.01 0.65 -0.76 0
1 4.59 459 0.824 -9.783 2.605 -91.156 -37.445 13.580 97.586 2852.492 -3032.974 -1.054 0.077 -1.268 0.01 0.66 -0.75 0.01
1 4.60 460 0.982 -9.410 2.509 -50.476 -17.578 16.266 67.606 3047.515 -2852.941 -1.215 -0.314 -1.308 0.01 0.66 -0.75 0.01
1 4.61 461 0.800 -7.983 3.227 -3.784 -11.200 7.996 -66.557 2986.504 -2736.167 -1.050 -1.752 -2.126 0.01 0.67 -0.75 0.01
1 4.62 462 0.891 -7.868 3.529 14.801 -10.651 6.744 -66.557 2986.504 -2736.167 -1.145 -1.866 -2.418 0.01 0.67 -0.75 0.01
1 4.63 463 1.144 -7.140 4.046 43.427 -5.157 11.078 8.245 3061.605 -2796.128 -1.408 -2.589 -2.900 0.01 0.66 -0.75 0.01
1 4.64 464 1.082 -6.120 3.979 60.852 9.430 6.409 -156.648 3121.566 -2751.158 -1.360 -3.600 -2.759 0.01 0.66 -0.75 0.01
1 4.65 465 0.848 -5.334 3.663 75.165 20.355 0.763 -156.648 3121.566 -2751.158 -1.133 -4.372 -2.345 0.01 0.66 -0.75 0.01
1 4.66 466 -0.062 -4.425 3.304 77.942 26.489 -8.942 -66.557 2986.504 -2736.167 -0.227 -5.266 -1.872 0.01 0.65 -0.76 0.01
1 4.67 467 -0.651 -4.583 3.026 69.123 26.886 -17.609 -111.677 3046.615 -2781.138 0.366 -5.090 -1.478 0.01 0.65 -0.76 0.01
1 4.68 468 -1.662 -6.081 2.701 43.183 40.039 -31.036 -6.596 2971.514 -2781.138 1.422 -3.560 -0.962 0.01 0.64 -0.77 0
1 4.69 469 -1.939 -7.173 2.672 38.178 50.507 -36.163 -6.596 2971.514 -2781.138 1.739 -2.458 -0.873 0.01 0.64 -0.77 0
1 4.70 470 -3.184 -11.722 1.959 55.878 79.590 -50.965 23.235 2896.563 -2961.171 3.025 2.102 -0.096 -0.01 -0.64 0.77 0.01
1 4.71 471 -4.003 -14.428 2.073 78.125 68.970 -48.157 -21.586 2911.553 -2916.200 3.887 4.826 -0.118 -0.02 -0.63 0.77 0.01
1 4.72 472 -4.607 -15.802 3.362 71.778 20.996 -32.959 -21.586 2911.553 -2916.200 4.539 6.224 -1.290 -0.02 -0.63 0.78 0.02
1 4.73 473 -3.582 -14.912 4.726 18.372 -65.003 5.005 -111.677 2821.612 -2931.190 3.554 5.354 -2.559 -0.02 -0.62 0.78 0.02
1 4.74 474 -1.695 -12.685 4.377 -6.989 -101.288 28.290 83.196 2911.553 -2991.151 1.689 3.137 -2.167 -0.01 -0.62 0.78 0.02
1 4.75 475 0.306 -10.262 3.524 -13.733 -112.397 38.483 83.196 2911.553 -2991.151 -0.314 0.714 -1.316 -0.01 -0.62 0.78 0.01
1 4.76 476 2.112 -8.102 3.031 -6.439 -73.944 32.288 -111.677 2896.563 -3081.243 -2.149 -1.452 -0.850 -0 0.62 -0.78 0
1 4.77 477 1.901 -7.657 2.998 -2.014 -20.630 24.536 -141.658 2881.573 -2991.151 -1.947 -1.897 -0.814 -0 0.62 -0.78 0.01
1 4.78 478 1.077 -7.714 2.667 -3.082 31.708 19.836 -156.648 2821.612 -3186.174 -1.154 -1.839 -0.485 -0 0.62 -0.78 0.01
1 4.79 479 -0.077 -8.097 1.887 -6.317 61.951 20.416 -156.648 2821.612 -3186.174 -0.042 -1.457 0.290 0 0.62 -0.78 0.01
1 4.80 480 -1.805 -8.581 1.173 -6.348 52.338 23.438 -141.658 2806.622 -2991.151 1.636 -0.975 0.993 0.01 0.62 -0.78 0.01
1 4.81 481 -2.466 -8.883 1.379 -2.380 17.578 25.665 -216.609 2836.602 -3051.112 2.245 -0.675 0.777 0.01 0.62 -0.78 0.01
1 4.82 482 -2.586 -9.156 1.872 2.838 -23.193 25.665 -216.609 2836.602 -3051.112 2.307 -0.403 0.272 0.01 0.62 -0.78 0.01
1 4.83 483 -1.777 -9.433 2.959 1.007 -62.683 20.813 -66.557 2806.622 -3096.233 1.412 -0.120 -0.807 0.01 0.62 -0.78 0.01
1 4.84 484 -0.785 -9.893 3.601 -3.479 -61.859 19.013 -96.687 2881.573 -3021.132 0.402 0.342 -1.439 0.01 0.62 -0.78 0.02
1 4.85 485 0.038 -10.147 3.673 -5.219 -40.680 21.484 -96.687 2731.521 -2991.151 -0.435 0.598 -1.504 0.01 0.62 -0.78 0.02
1 4.86 486 0.105 -10.511 3.467 2.777 -11.200 27.710 -96.687 2731.521 -2991.151 -0.523 0.964 -1.296 0.01 0.62 -0.78 0.03
1 4.87 487 -0.182 -10.664 3.204 17.334 13.489 35.889 -261.580 2821.612 -2931.190 -0.276 1.121 -1.022 0.01 0.62 -0.78 0.03
1 4.88 488 -1.307 -10.109 2.911 47.302 19.623 41.260 -216.609 2956.524 -3171.184 0.790 0.576 -0.698 0.01 0.62 -0.78 0.03
1 4.89 489 -1.834 -9.869 2.562 60.303 4.211 40.161 -216.609 2956.524 -3171.184 1.250 0.355 -0.285 0.01 0.62 -0.78 0.03
1 4.90 490 -2.050 -9.491 2.619 61.005 -17.822 35.431 -96.687 2686.550 -3051.112 1.398 0.003 -0.256 0.02 0.62 -0.79 0.03
1 4.91 491 -1.920 -8.902 2.524 42.389 -38.727 25.024 -81.547 2851.592 -3081.243 1.171 -0.534 0.015 0.02 0.61 -0.79 0.04
1 4.92 492 -1.743 -8.524 2.327 21.484 -42.053 22.705 83.196 2836.602 -3096.233 0.966 -0.893 0.272 0.02 0.61 -0.79 0.04
1 4.93 493 -1.432 -8.203 2.054 0.977 -39.917 21.698 83.196 2836.602 -3096.233 0.633 -1.204 0.573 0.01 0.6 -0.79 0.05
1 4.94 494 -1.446 -7.853 1.461 -14.710 -36.530 22.766 -81.547 2701.540 -3216.155 0.632 -1.552 1.168 0.01 0.6 -0.79 0.05
1 4.95 495 -1.561 -7.528 0.570 -26.917 -32.837 24.567 -51.566 2746.511 -3216.155 0.728 -1.882 2.039 0.01 0.61 -0.79 0.05
1 4.96 496 -1.844 -7.657 0.086 -30.518 -31.555 22.675 -51.566 2746.511 -3216.155 0.989 -1.760 2.490 0.01 0.61 -0.79 0.06
1 4.97 497 -2.131 -8.069 0.081 -30.396 -29.114 17.578 53.215 2731.521 -3126.213 1.257 -1.356 2.458 0.01 0.61 -0.79 0.06
1 4.98 498 -2.552 -8.993 0.350 -29.358 -32.684 12.268 -5.846 2593.910 -3146.300 1.653 -0.450 2.112 0.01 0.61 -0.79 0.07
1 4.99 499 -2.672 -9.515 0.852 -29.175 -40.863 8.606 -110.928 2743.962 -3266.222 1.758 0.060 1.558 0.01 0.61 -0.79 0.07
1 5.00 500 -2.538 -10.099 1.389 -28.778 -54.413 6.653 -110.928 2743.962 -3266.222 1.616 0.633 0.975 0 0.62 -0.78 0.07
1 5.01 501 -2.002 -10.564 2.140 -30.609 -67.383 8.881 -50.817 2743.962 -3191.271 1.079 1.087 0.181 0 0.62 -0.78 0.08
1 5.02 502 -1.125 -11.081 2.433 -31.647 -76.569 18.097 -230.850 2849.044 -3191.271 0.209 1.595 -0.148 -0 0.62 -0.78 0.08
1 5.03 503 -0.771 -11.119 2.768 -27.710 -72.937 23.193 -230.850 2849.044 -3191.271 -0.142 1.625 -0.519 -0.01 0.62 -0.78 0.08
1 5.04 504 -0.417 -10.913 2.792 -21.820 -64.667 25.208 -140.908 2833.904 -3131.310 -0.502 1.412 -0.573 -0.01 0.62 -0.78 0.09
1 5.05 505 -0.225 -10.396 2.083 -10.498 -55.756 23.316 -140.908 2953.976 -3206.261 -0.721 0.889 0.099 -0.02 0.62 -0.78 0.1
1 5.06 506 -0.038 -10.042 1.571 -5.890 -55.725 20.386 -95.938 2833.904 -3056.209 -0.916 0.534 0.605 -0.02 0.62 -0.78 0.1
1 5.07 507 0.354 -9.716 1.178 -4.120 -56.214 16.998 -95.938 2833.904 -3056.209 -1.310 0.208 0.995 -0.02 0.62 -0.77 0.1
1 5.08 508 0.747 -9.433 1.044 -7.172 -52.948 11.719 -245.840 2909.005 -3056.209 -1.697 -0.076 1.124 -0.02 0.62 -0.77 0.11
1 5.09 509 0.747 -9.467 0.886 -14.038 -43.640 6.775 -230.850 2773.943 -3146.300 -1.682 -0.047 1.270 -0.03 0.62 -0.77 0.11
1 5.10 510 0.417 -9.137 1.666 -26.428 -20.630 4.456 -230.850 2773.943 -3146.300 -1.334 -0.385 0.464 -0.03 0.62 -0.77 0.11
1 5.11 511 -0.057 -9.716 3.472 -31.433 -3.967 4.150 -215.859 2728.972 -3056.209 -0.847 0.185 -1.381 -0.03 0.63 -0.77 0.11
1 5.12 512 -0.852 -10.410 2.921 -6.378 3.906 11.871 -245.840 2909.005 -2876.326 -0.051 0.865 -0.895 -0.03 0.63 -0.77 0.11
1 5.13 513 -0.484 -9.893 2.773 0.519 0.244 15.442 -185.879 2773.943 -3011.238 -0.440 0.349 -0.750 -0.03 0.63 -0.77 0.11
1 5.14 514 0.168 -9.912 2.926 -8.972 -5.432 17.700 -185.879 2773.943 -3011.238 -1.109 0.372 -0.894 -0.03 0.63 -0.77 0.12
1 5.15 515 -0.129 -10.530 1.992 -36.682 -0.671 21.545 -305.951 2894.015 -3086.189 -0.829 0.988 0.025 -0.03 0.63 -0.77 0.12
1 5.16 516 -0.541 -10.932 1.551 -55.542 -0.336 30.548 -110.928 2938.985 -3011.238 -0.444 1.380 0.405 -0.03 0.63 -0.77 0.12
1 5.17 517 -0.460 -10.626 2.222 -48.554 4.028 19.501 -110.928 2938.985 -3011.238 -0.567 1.062 -0.348 -0.03 0.64 -0.76 0.12
1 5.18 518 -0.546 -10.181 2.447 -31.616 10.773 14.069 -275.820 2909.005 -2996.248 -0.512 0.605 -0.649 -0.03 0.64 -0.76 0.12
1 5.19 519 -0.680 -9.587 2.490 -26.245 17.181 10.803 -275.820 2909.005 -2996.248 -0.402 0.004 -0.746 -0.03 0.64 -0.76 0.12
1 5.20 520 -1.130 -9.204 2.701 -45.807 17.426 7.721 -260.830 2968.966 -2966.268 0.019 -0.390 -1.039 -0.03 0.64 -0.76 0.12
1 5.21 521 -1.302 -9.122 3.453 -63.111 16.907 4.944 -260.830 2968.966 -2966.268 0.178 -0.482 -1.858 -0.03 0.65 -0.75 0.12
1 5.22 522 -1.092 -9.448 3.903 -75.958 19.775 2.716 -170.889 2983.956 -2801.225 -0.044 -0.169 -2.397 -0.02 0.65 -0.75 0.12
1 5.23 523 -0.963 -9.386 3.697 -76.386 22.125 2.472 -230.850 3043.917 -2891.316 -0.180 -0.245 -2.289 -0.02 0.65 -0.75 0.12
1 5.24 524 -0.790 -8.710 3.424 -61.890 19.714 16.144 -230.700 3043.167 -2894.015 -0.360 -0.933 -2.111 -0.02 0.66 -0.74 0.12
1 5.25 525 -0.742 -8.150 3.261 -49.957 16.480 28.320 -170.739 3103.128 -2669.011 -0.428 -1.501 -2.028 -0.02 0.66 -0.74 0.12
1 5.26 526 -0.800 -7.480 2.849 -36.499 11.536 31.860 -170.739 3103.128 -2669.011 -0.408 -2.175 -1.680 -0.02 0.66 -0.74 0.12
1 5.27 527 -0.694 -6.666 2.385 -13.031 5.676 20.599 -245.690 3253.181 -2669.011 -0.602 -2.989 -1.315 -0.02 0.67 -0.74 0.12
1 5.28 528 -0.838 -6.718 1.939 5.249 1.770 14.252 -245.690 3253.181 -2669.011 -0.486 -2.934 -0.881 -0.02 0.67 -0.73 0.12
1 5.29 529 -0.958 -7.044 1.480 19.562 -5.707 16.449 -95.638 3178.080 -2624.041 -0.386 -2.604 -0.407 -0.02 0.67 -0.74 0.12
1 5.30 530 -0.862 -7.619 0.991 32.929 -15.839 21.332 -140.758 3148.099 -2743.962 -0.505 -2.022 0.118 -0.02 0.67 -0.74 0.12
1 5.31 531 -0.752 -8.552 0.948 45.227 -26.825 23.224 -140.758 3148.099 -2743.962 -0.643 -1.077 0.219 -0.01 0.66 -0.74 0.12
1 5.32 532 -0.206 -10.765 1.551 58.930 -30.579 21.484 -170.739 3148.099 -2669.011 -1.217 1.149 -0.306 -0.02 0.66 -0.74 0.13
1 5.33 533 -0.091 -12.431 2.366 60.333 -19.623 19.836 -170.739 3148.099 -2669.011 -1.350 2.830 -1.028 -0.02 0.66 -0.74 0.13
1 5.34 534 -0.211 -13.604 3.060 56.030 -1.068 14.832 9.144 3058.158 -2849.044 -1.254 4.021 -1.627 -0.02 0.65 -0.75 0.13
1 5.35 535 -0.795 -14.423 4.477 35.858 28.015 1.007 -80.647 3088.138 -2758.953 -0.706 4.870 -2.890 -0.01 0.65 -0.75 0.13
1 5.36 536 -1.733 -13.935 4.937 18.738 38.269 -11.017 84.095 3103.128 -2849.044 0.229 4.389 -3.310 -0.01 0.65 -0.75 0.13
1 5.37 537 -2.399 -13.030 4.224 9.735 32.684 -23.560 -95.638 3028.177 -2849.044 0.906 3.484 -2.582 -0.01 0.65 -0.75 0.13
1 5.38 538 -2.643 -11.895 3.031 15.625 6.653 -34.943 -95.638 3028.177 -2849.044 1.184 2.346 -1.380 -0.01 0.64 -0.75 0.13
1 5.39 539 -1.633 -10.267 1.312 44.647 -55.634 -41.046 69.105 3163.089 -2894.015 0.229 0.715 0.370 -0.01 0.64 -0.76 0.12
1 5.40 540 -0.110 -9.438 1.121 57.923 -84.870 -37.323 69.105 3163.089 -2894.015 -1.221 -0.112 0.631 -0.01 0.64 -0.76 0.12
1 5.41 541 1.393 -8.576 1.188 58.045 -88.837 -29.999 -80.647 3043.167 -2968.966 -2.645 -0.967 0.656 -0.02 0.64 -0.76 0.12
1 5.42 542 2.495 -7.892 1.547 21.912 -46.326 -23.529 -155.749 3013.187 -2938.985 -3.600 -1.634 0.474 -0.03 0.63 -0.77 0.13
1 5.43 543 2.045 -7.743 1.662 -12.909 0.671 -22.034 -155.749 3043.167 -3089.038 -3.105 -1.782 0.385 -0.04 0.63 -0.77 0.13
1 5.44 544 1.231 -7.757 1.628 -39.856 39.215 -24.078 -230.700 3043.167 -3044.067 -2.260 -1.777 0.388 -0.04 0.63 -0.77 0.13
1 5.45 545 -0.005 -7.968 1.360 -45.838 58.350 -26.947 -230.700 3043.167 -3044.067 -1.001 -1.584 0.587 -0.03 0.63 -0.76 0.12
1 5.46 546 -1.097 -8.844 1.226 -21.088 46.539 -33.325 -335.631 3043.167 -3044.067 0.116 -0.724 0.650 -0.03 0.63 -0.76 0.12
1 5.47 547 -1.647 -9.151 1.437 5.371 25.116 -33.844 -335.631 3043.167 -3044.067 0.701 -0.430 0.393 -0.03 0.64 -0.76 0.11
1 5.48 548 -1.504 -9.414 1.700 29.511 1.831 -32.196 -170.739 2983.207 -2923.995 0.596 -0.172 0.121 -0.03 0.64 -0.76 0.11
1 5.49 549 -1.207 -9.228 1.968 49.317 -25.330 -31.799 -245.690 2983.207 -3028.927 0.388 -0.348 -0.050 -0.03 0.63 -0.77 0.11
1 5.50 550 -0.527 -8.959 2.073 45.471 -29.968 -30.975 -305.651 3013.187 -2938.985 -0.240 -0.605 -0.079 -0.04 0.63 -0.77 0.11
1 5.51 551 -0.158 -8.576 2.121 29.358 -23.590 -30.029 -245.690 3058.158 -2923.995 -0.554 -0.978 -0.060 -0.04 0.63 -0.77 0.11
1 5.52 552 0.436 -8.619 2.045 10.254 -10.437 -27.039 -245.690 3058.158 -2923.995 -1.095 -0.930 0.057 -0.04 0.63 -0.77 0.11
1 5.53 553 0.474 -8.883 2.222 -1.709 3.937 -24.139 -335.631 3013.187 -3013.937 -1.085 -0.667 -0.107 -0.04 0.62 -0.77 0.1
1 5.54 554 0.728 -9.491 2.227 -1.648 22.125 -19.531 -335.631 3013.187 -3013.937 -1.298 -0.062 -0.115 -0.05 0.62 -0.77 0.1
1 5.55 555 0.326 -9.975 1.935 8.423 29.724 -17.517 -425.723 3028.177 -3028.927 -0.862 0.419 0.173 -0.05 0.62 -0.77 0.1
1 5.56 556 0.096 -10.094 1.724 29.877 34.180 -15.076 -245.690 3028.177 -3059.057 -0.586 0.543 0.416 -0.04 0.62 -0.77 0.09
1 5.57 557 0.014 -10.046 1.642 35.706 33.539 -13.947 -260.680 2938.086 -3089.038 -0.488 0.504 0.540 -0.04 0.62 -0.78 0.09
1 5.58 558 -0.091 -9.098 1.417 32.684 22.553 -10.345 -305.651 2938.086 -3013.937 -0.370 -0.433 0.814 -0.04 0.62 -0.78 0.09
1 5.59 559 -0.024 -8.351 1.077 9.430 11.139 -6.592 -305.651 2938.086 -3013.937 -0.426 -1.172 1.190 -0.04 0.62 -0.78 0.09
1 5.60 560 0.077 -7.968 1.073 -25.604 1.678 -4.089 -260.680 2743.213 -3193.969 -0.519 -1.556 1.194 -0.04 0.62 -0.78 0.09
1 5.61 561 0.441 -8.222 1.192 -76.264 -4.578 -2.045 -260.680 2743.213 -3193.969 -0.877 -1.314 1.024 -0.04 0.62 -0.78 0.09
1 5.62 562 0.646 -9.041 1.140 -92.560 -1.801 -1.221 -335.631 2968.216 -3089.038 -1.078 -0.518 0.977 -0.04 0.62 -0.77 0.09
1 5.63 563 0.742 -10.066 1.207 -86.426 3.204 -2.594 -230.700 2773.193 -3119.018 -1.169 0.478 0.779 -0.04 0.63 -0.77 0.09
1 5.64 564 0.790 -11.651 1.417 -42.877 16.388 -5.676 -455.703 2893.115 -3013.937 -1.192 2.016 0.328 -0.04 0.64 -0.76 0.08
1 5.65 565 0.943 -12.268 1.518 -3.418 29.602 -5.676 -335.631 3013.187 -2864.034 -1.341 2.624 0.178 -0.04 0.64 -0.76 0.08
1 5.66 566 0.958 -12.350 1.398 32.990 44.861 -4.089 -335.631 3013.187 -2864.034 -1.356 2.707 0.306 -0.04 0.64 -0.76 0.08
1 5.67 567 0.661 -11.967 1.245 58.045 57.343 -2.350 -245.690 2983.207 -2923.995 -1.065 2.335 0.516 -0.04 0.64 -0.76 0.08
1 5.68 568 0.239 -11.119 0.972 61.981 61.463 0.366 -245.690 2983.207 -2923.995 -0.656 1.504 0.878 -0.03 0.64 -0.77 0.07
1 5.69 569 -0.244 -10.544 0.646 40.985 56.946 2.655 -320.641 3148.099 -3028.927 -0.190 0.948 1.295 -0.03 0.63 -0.77 0.07
1 5.70 570 -0.464 -10.181 0.828 8.942 47.424 4.517 -275.670 3028.177 -3059.057 0.011 0.599 1.180 -0.03 0.63 -0.77 0.07
1 5.71 571 -0.670 -10.252 1.585 -31.159 31.036 0.031 -170.739 2953.076 -3059.057 0.181 0.669 0.405 -0.02 0.63 -0.77 0.07
1 5.72 572 -0.709 -10.741 2.366 -39.795 24.475 -10.559 -140.758 2983.207 -3104.028 0.214 1.146 -0.432 -0.02 0.63 -0.77 0.06
1 5.73 573 -1.192 -11.311 3.328 -34.454 23.529 -21.698 -140.758 2983.207 -3104.028 0.711 1.704 -1.454 -0.02 0.64 -0.77 0.06
1 5.74 574 -1.877 -11.880 3.180 -25.177 21.729 -33.020 -95.638 2908.105 -3178.979 1.427 2.263 -1.353 -0.02 0.64 -0.77 0.06
1 5.75 575 -2.471 -11.833 2.935 -21.912 14.526 -31.372 -95.638 2908.105 -3178.979 2.065 2.206 -1.145 -0.02 0.64 -0.77 0.06
1 5.76 576 -2.476 -11.177 2.155 -34.119 -8.331 -16.815 -260.680 3043.167 -3044.067 2.111 1.542 -0.398 -0.02 0.64 -0.77 0.05
1 5.77 577 -1.585 -10.712 1.872 -40.131 -27.008 -7.721 -185.729 3163.089 -3119.018 1.252 1.068 -0.162 -0.02 0.64 -0.76 0.05
1 5.78 578 -0.484 -10.324 1.868 -36.133 -38.086 0.214 -185.729 3163.089 -3119.018 0.172 0.670 -0.213 -0.02 0.64 -0.76 0.05
1 5.79 579 0.613 -10.037 1.920 -18.463 -29.114 0.092 -155.749 3013.187 -2968.966 -0.906 0.367 -0.355 -0.03 0.65 -0.76 0.06
1 5.80 580 1.077 -9.783 2.356 -10.101 -15.076 0.580 -155.749 3013.187 -2968.966 -1.357 0.110 -0.811 -0.03 0.65 -0.76 0.06
1 5.81 581 1.025 -9.654 2.945 -7.965 -1.587 2.319 -155.749 3193.070 -2864.034 -1.293 -0.021 -1.408 -0.03 0.65 -0.76 0.06
1 5.82 582 0.982 -9.343 3.869 -4.578 8.606 0.153 -155.749 3193.070 -2864.034 -1.242 -0.333 -2.333 -0.03 0.65 -0.76 0.06
1 5.83 583 0.503 -8.854 4.564 13.886 19.409 -7.843 -230.700 3163.089 -2968.966 -0.754 -0.819 -3.015 -0.03 0.65 -0.76 0.06
1 5.84 584 0.206 -8.256 4.793 32.715 22.949 -13.886 -335.631 3268.171 -2894.015 -0.442 -1.413 -3.210 -0.03 0.65 -0.76 0.05
1 5.85 585 -0.220 -7.729 4.578 51.148 24.384 -20.630 -335.631 3268.171 -2894.015 0.003 -1.929 -2.929 -0.03 0.64 -0.76 0.05
1 5.86 586 -0.891 -6.618 3.884 72.327 22.461 -28.931 -185.729 3163.089 -3013.937 0.731 -3.005 -2.034 -0.03 0.64 -0.77 0.05
1 5.87 587 -1.235 -6.034 3.184 74.677 19.928 -33.508 -185.729 3163.089 -3013.937 1.114 -3.568 -1.225 -0.03 0.63 -0.77 0.04
1 5.88 588 -1.461 -6.177 2.710 61.463 20.783 -39.429 -245.690 3178.080 -2953.976 1.386 -3.402 -0.644 -0.03 0.63 -0.78 0.04
1 5.89 589 -1.729 -6.790 2.140 38.818 24.567 -46.570 -245.690 3178.080 -2953.976 1.709 -2.771 0.010 -0.03 0.62 -0.78 0.04
1 5.90 590 -1.872 -8.959 1.896 6.744 35.065 -49.347 -230.700 3088.138 -3119.018 1.915 -0.590 0.304 -0.03 0.62 -0.78 0.03
1 5.91 591 -1.935 -10.798 1.810 -3.418 35.919 -39.734 -260.680 2938.086 -3089.038 2.041 1.253 0.408 -0.03 0.62 -0.78 0.03
1 5.92 592 -1.978 -12.307 1.868 -5.554 25.940 -24.384 -260.680 2938.086 -3089.038 2.120 2.761 0.348 -0.03 0.62 -0.78 0.03
1 5.93 593 -1.753 -13.671 2.509 2.594 -8.453 4.272 -350.622 3178.080 -3178.979 1.941 4.125 -0.302 -0.03 0.62 -0.78 0.02
1 5.94 594 -1.322 -13.374 3.184 13.825 -35.675 22.644 -350.622 3178.080 -3178.979 1.503 3.830 -0.969 -0.03 0.62 -0.78 0.02
1 5.95 595 -0.441 -12.364 3.831 28.381 -54.749 34.058 -320.641 3058.158 -3059.057 0.599 2.825 -1.590 -0.03 0.62 -0.78 0.03
1 5.96 596 0.632 -11.052 4.018 44.495 -58.624 37.354 -320.641 3058.158 -3059.057 -0.505 1.524 -1.729 -0.03 0.62 -0.78 0.03
1 5.97 597 1.657 -9.663 3.879 57.526 -40.039 35.614 -140.758 3103.128 -3208.959 -1.563 0.152 -1.520 -0.03 0.62 -0.79 0.04
1 5.98 598 2.193 -8.452 3.271 60.333 17.609 28.320 -380.752 3118.119 -3119.018 -2.131 -1.037 -0.820 -0.03 0.61 -0.79 0.04
1 5.99 599 1.757 -8.241 2.729 48.462 57.465 24.780 -380.752 3118.119 -3119.018 -1.723 -1.222 -0.181 -0.03 0.61 -0.79 0.04
1 6.00 600 0.958 -8.351 2.212 29.083 81.391 22.461 -350.622 2983.207 -3134.008 -0.963 -1.089 0.419 -0.03 0.6 -0.8 0.04
1 6.01 601 -0.517 -8.959 1.710 -3.815 74.341 20.813 -335.631 2968.666 -3342.822 0.391 -0.460 0.992 -0.02 0.6 -0.8 0.03
1 6.02 602 -1.250 -9.237 1.614 -18.860 48.798 19.959 -245.690 2983.656 -3177.780 1.064 -0.186 1.072 -0.01 0.6 -0.8 0.03
1 6.03 603 -1.700 -9.386 1.724 -26.581 19.623 17.914 -245.690 2983.656 -3177.780 1.464 -0.047 0.924 -0.01 0.6 -0.8 0.03
1 6.04 604 -1.719 -9.716 2.093 -24.384 -1.434 14.496 -185.729 2848.594 -3267.721 1.443 0.272 0.510 -0.01 0.61 -0.79 0.03
1 6.05 605 -1.489 -9.951 2.480 -9.003 -5.554 12.512 69.105 2848.594 -3402.783 1.184 0.498 0.086 -0.01 0.61 -0.79 0.03
1 6.06 606 -1.461 -9.989 2.370 4.974 7.355 14.374 69.105 2848.894 -3402.184 1.132 0.532 0.178 -0.01 0.61 -0.79 0.04
1 6.07 607 -1.805 -9.663 2.184 16.785 23.590 16.876 -140.758 2833.904 -3357.213 1.447 0.208 0.366 -0.01 0.61 -0.79 0.04
1 6.08 608 -2.615 -9.113 2.064 27.496 32.654 16.174 -140.758 2953.826 -3312.242 2.170 -0.326 0.535 0 0.61 -0.79 0.04
1 6.09 609 -3.151 -8.758 1.915 27.649 22.034 14.191 -110.778 2968.816 -3222.301 2.657 -0.668 0.719 0 0.6 -0.8 0.04
1 6.10 610 -3.390 -8.308 1.686 19.318 0.916 14.282 -110.778 2968.816 -3222.301 2.851 -1.106 0.982 0.01 0.6 -0.8 0.04
1 6.11 611 -3.477 -8.198 1.748 7.660 -26.764 15.778 9.144 2833.904 -3282.262 2.898 -1.208 0.941 0.01 0.6 -0.8 0.04
1 6.12 612 -2.820 -8.342 1.676 -5.066 -58.197 19.684 84.095 3103.878 -3432.314 2.210 -1.060 1.020 0.01 0.6 -0.8 0.04
1 6.13 613 -2.313 -8.471 1.537 -7.477 -66.498 21.545 84.095 3103.878 -3432.314 1.678 -0.931 1.155 0.01 0.6 -0.8 0.05
1 6.14 614 -2.184 -8.495 1.240 -4.944 -64.514 18.280 69.105 2848.894 -3147.200 1.530 -0.908 1.443 0 0.6 -0.8 0.05
1 6.15 615 -2.088 -8.715 1.063 7.660 -47.730 9.949 9.144 2758.803 -3282.262 1.412 -0.689 1.611 -0 0.6 -0.8 0.06
1 6.16 616 -2.179 -8.849 1.097 17.273 -37.933 3.479 -95.788 2953.826 -3207.311 1.499 -0.551 1.588 -0 0.6 -0.8 0.06
1 6.17 617 -2.121 -8.859 1.494 21.729 -34.943 -2.228 -95.788 2953.826 -3207.311 1.444 -0.536 1.212 -0.01 0.6 -0.8 0.07
1 6.18 618 -2.097 -8.835 1.944 15.839 -38.269 -4.272 24.134 2848.894 -3372.203 1.428 -0.553 0.788 -0.01 0.6 -0.8 0.07
1 6.19 619 -1.906 -8.921 2.423 -0.732 -47.730 -1.892 -140.758 2803.923 -3432.314 1.249 -0.462 0.326 -0.01 0.6 -0.8 0.07
1 6.20 620 -1.341 -9.529 2.394 -32.868 -65.338 8.514 -140.758 2803.923 -3432.314 0.696 0.144 0.350 -0.01 0.6 -0.8 0.07
1 6.21 621 -0.819 -9.979 2.538 -46.387 -72.541 15.564 -80.797 2968.816 -3267.271 0.184 0.583 0.172 -0.02 0.6 -0.8 0.07
1 6.22 622 -0.225 -10.588 2.691 -47.486 -71.350 20.813 -215.709 2908.855 -3387.193 -0.404 1.175 -0.038 -0.02 0.6 -0.79 0.08
1 6.23 623 0.512 -11.229 2.902 -26.123 -53.406 22.888 -215.709 2953.826 -3387.193 -1.146 1.785 -0.362 -0.03 0.61 -0.79 0.09
1 6.24 624 0.479 -11.651 2.820 -4.120 -40.772 23.377 -215.709 2953.826 -3387.193 -1.126 2.201 -0.304 -0.03 0.61 -0.79 0.09
1 6.25 625 0.623 -11.488 2.294 13.825 -35.706 24.902 -245.690 2803.923 -3312.242 -1.288 2.041 0.229 -0.03 0.61 -0.79 0.09
1 6.26 626 0.512 -11.042 1.690 24.445 -37.872 27.863 -245.690 2908.855 -3387.193 -1.200 1.606 0.861 -0.03 0.61 -0.79 0.1
1 6.27 627 0.503 -10.430 0.939 21.179 -46.417 27.344 -245.690 2908.855 -3387.193 -1.215 1.006 1.655 -0.03 0.61 -0.79 0.1
1 6.28 628 0.340 -9.802 0.503 3.998 -47.669 24.963 -275.670 2983.806 -3357.213 -1.069 0.389 2.124 -0.03 0.6 -0.79 0.1
1 6.29 629 0.081 -9.615 0.297 -17.578 -40.863 20.142 -410.732 3013.937 -3402.184 -0.818 0.204 2.335 -0.03 0.6 -0.79 0.11
1 6.30 630 -0.484 -9.831 0.249 -34.546 -19.745 7.477 -380.752 2969.865 -3474.736 -0.260 0.398 2.301 -0.04 0.61 -0.79 0.11
1 6.31 631 -0.800 -10.224 1.609 -31.250 -7.446 0.153 -380.752 2969.865 -3474.736 0.058 0.773 0.877 -0.04 0.61 -0.78 0.11
1 6.32 632 -0.737 -10.971 4.195 -24.445 4.791 0.244 -425.723 2984.855 -3309.694 -0.000 1.507 -1.760 -0.04 0.61 -0.78 0.11
1 6.33 633 -1.149 -11.493 5.655 -13.031 20.142 15.198 -410.732 3014.836 -3399.785 0.404 2.021 -3.254 -0.04 0.61 -0.78 0.11
1 6.34 634 -1.623 -10.712 5.761 29.541 13.580 47.089 -410.732 3014.836 -3399.785 0.840 1.240 -3.371 -0.04 0.61 -0.78 0.11
1 6.35 635 -0.618 -8.586 4.530 44.739 -8.972 53.497 -170.739 3029.826 -3309.694 -0.233 -0.872 -2.109 -0.03 0.61 -0.78 0.12
1 6.36 636 -0.192 -8.888 2.389 30.212 -27.618 54.535 -335.631 3089.787 -3294.704 -0.733 -0.544 0.105 -0.03 0.61 -0.78 0.12
1 6.37 637 0.584 -11.306 0.321 -28.778 -36.865 46.692 -230.700 2939.735 -3339.824 -1.626 1.906 2.246 -0.03 0.61 -0.78 0.13
1 6.38 638 1.355 -11.785 1.240 -52.246 -14.984 42.603 -230.700 2939.735 -3339.824 -2.444 2.375 1.273 -0.03 0.61 -0.78 0.13
1 6.39 639 1.566 -10.851 3.295 -57.434 15.930 33.478 -305.651 2969.865 -3444.756 -2.711 1.428 -0.858 -0.03 0.61 -0.78 0.13
1 6.40 640 1.073 -10.099 5.090 -49.500 48.554 19.379 -410.732 3044.816 -3369.805 -2.268 0.661 -2.738 -0.03 0.62 -0.78 0.13
1 6.41 641 0.129 -9.812 6.062 -48.096 75.196 11.627 -410.732 3044.816 -3369.805 -1.368 0.360 -3.789 -0.02 0.62 -0.77 0.13
1 6.42 642 -1.719 -9.989 5.507 -53.162 70.221 4.181 -215.709 3029.826 -3234.743 0.440 0.522 -3.320 -0.02 0.62 -0.77 0.13
1 6.43 643 -1.896 -9.266 4.674 -61.615 56.336 0.366 -155.749 3194.869 -3219.752 0.587 -0.217 -2.577 -0.02 0.63 -0.77 0.13
1 6.44 644 -1.494 -8.078 3.869 -62.866 35.095 -3.876 -95.638 3179.878 -3309.694 0.152 -1.438 -1.953 -0.01 0.63 -0.76 0.12
1 6.45 645 -1.456 -7.801 3.505 -49.927 26.672 -5.096 -95.638 3179.878 -3309.694 0.110 -1.731 -1.666 -0.01 0.64 -0.76 0.12
1 6.46 646 -1.729 -6.905 2.926 -32.349 25.086 4.761 -65.657 3299.800 -3174.782 0.381 -2.639 -1.158 -0.01 0.64 -0.76 0.12
1 6.47 647 -2.351 -6.168 2.069 -15.747 19.440 13.214 -50.667 3044.816 -3264.723 0.987 -3.383 -0.346 -0.01 0.64 -0.76 0.12
1 6.48 648 -3.093 -5.655 1.355 -0.366 2.533 11.475 -50.667 3044.816 -3264.723 1.707 -3.895 0.348 -0.01 0.64 -0.76 0.12
1 6.49 649 -3.012 -4.908 1.422 16.113 -27.130 -0.580 68.955 3239.989 -3083.791 1.613 -4.640 0.286 -0.01 0.64 -0.76 0.12
1 6.50 650 -2.495 -4.971 2.246 21.423 -36.102 -9.613 23.984 3239.989 -3113.771 1.100 -4.573 -0.512 -0.01 0.64 -0.76 0.12
1 6.51 651 -1.801 -5.445 3.036 17.914 -28.259 -13.153 23.984 3239.989 -3113.771 0.427 -4.095 -1.263 -0.01 0.64 -0.76 0.12
1 6.52 652 -0.924 -7.125 3.654 -7.538 -3.845 -9.644 -50.817 3390.042 -3113.771 -0.399 -2.412 -1.830 -0.01 0.64 -0.76 0.12
1 6.53 653 -0.421 -8.591 3.285 -33.844 3.113 -6.470 -65.807 3224.999 -3173.882 -0.887 -0.952 -1.481 -0.01 0.64 -0.76 0.12
1 6.54 654 0.077 -10.559 2.725 -51.605 -4.181 -6.897 8.994 3254.979 -3173.882 -1.373 1.004 -0.971 -0.01 0.64 -0.76 0.12
1 6.55 655 0.642 -13.121 2.279 -51.148 -18.829 -12.329 8.994 3254.979 -3173.882 -1.919 3.551 -0.596 -0.02 0.64 -0.76 0.12
1 6.56 656 1.551 -16.880 2.677 -22.369 -30.365 -23.712 -50.817 3120.067 -3263.824 -2.801 7.296 -1.058 -0.02 0.65 -0.75 0.12
1 6.57 657 1.815 -16.952 3.979 -9.277 -27.588 -28.198 -20.836 3300.100 -3053.811 -3.024 7.356 -2.395 -0.02 0.65 -0.75 0.12
1 6.58 658 1.891 -15.304 4.808 1.282 -20.691 -33.264 -20.836 3300.100 -3053.811 -3.052 5.701 -3.234 -0.02 0.65 -0.75 0.12
1 6.59 659 1.676 -11.991 4.243 41.565 -4.456 -34.332 -170.889 3330.081 -3128.762 -2.727 2.380 -2.638 -0.03 0.65 -0.75 0.12
1 6.60 660 1.585 -10.013 3.563 81.604 9.522 -27.649 -110.778 3360.061 -3008.840 -2.586 0.410 -1.881 -0.03 0.64 -0.76 0.12
1 6.61 661 1.595 -8.313 3.108 110.047 25.147 -17.487 -230.850 3390.042 -3113.771 -2.551 -1.269 -1.288 -0.03 0.64 -0.76 0.11
1 6.62 662 1.365 -7.034 2.600 118.897 40.314 -10.864 -230.850 3390.042 -3113.771 -2.288 -2.516 -0.606 -0.03 0.63 -0.77 0.11
1 6.63 663 0.867 -6.125 2.203 96.680 51.361 -8.667 -350.921 3405.931 -3273.867 -1.788 -3.390 -0.044 -0.03 0.62 -0.77 0.11
1 6.64 664 -0.623 -5.890 1.350 18.829 49.835 -12.207 -245.840 3180.928 -3423.919 -0.303 -3.597 0.927 -0.02 0.62 -0.78 0.11
1 6.65 665 -1.384 -6.211 0.895 -34.973 35.584 -18.982 -245.840 3180.928 -3423.919 0.457 -3.265 1.424 -0.02 0.62 -0.78 0.1
1 6.66 666 -1.829 -7.020 0.852 -80.506 10.284 -29.083 -155.898 3120.967 -3258.877 0.943 -2.491 1.337 -0.02 0.62 -0.78 0.1
1 6.67 667 -1.772 -7.432 1.049 -85.388 4.181 -31.281 -50.817 3120.967 -3438.910 0.928 -2.110 1.020 -0.02 0.63 -0.77 0.09
1 6.68 668 -1.063 -9.036 2.059 -79.895 4.547 -25.726 -95.938 3256.029 -3453.900 0.264 -0.536 -0.114 -0.02 0.63 -0.77 0.09
1 6.69 669 -1.111 -10.070 2.179 -68.573 5.127 -20.508 -95.938 3256.029 -3453.900 0.344 0.474 -0.346 -0.02 0.64 -0.77 0.09
1 6.70 670 -1.063 -10.669 2.184 -52.735 1.129 -15.411 -170.889 3226.048 -3228.896 0.322 1.053 -0.444 -0.02 0.64 -0.76 0.09
1 6.71 671 -0.867 -10.889 2.179 -16.815 -12.634 -16.052 23.984 3241.039 -3213.906 0.148 1.260 -0.506 -0.03 0.64 -0.76 0.09
1 6.72 672 -0.613 -10.999 2.394 16.632 -18.982 -19.074 23.984 3241.039 -3213.906 -0.079 1.362 -0.754 -0.03 0.64 -0.76 0.09
1 6.73 673 -0.081 -10.674 2.476 48.004 -18.921 -21.851 -230.850 3165.938 -3258.877 -0.578 1.037 -0.821 -0.03 0.64 -0.76 0.09
1 6.74 674 0.718 -10.133 2.667 76.844 -7.874 -22.675 -170.889 3405.931 -3198.916 -1.302 0.520 -0.849 -0.03 0.64 -0.77 0.09
1 6.75 675 1.073 -9.563 2.619 81.238 3.235 -22.583 -320.941 3450.902 -3168.936 -1.611 -0.028 -0.679 -0.03 0.63 -0.77 0.08
1 6.76 676 1.144 -9.448 2.552 74.097 17.883 -19.379 -320.941 3450.902 -3168.936 -1.640 -0.120 -0.490 -0.03 0.63 -0.77 0.08
1 6.77 677 1.274 -9.074 2.394 59.723 29.785 -13.702 -185.879 3360.960 -3258.877 -1.736 -0.471 -0.224 -0.03 0.62 -0.78 0.08
1 6.78 678 0.924 -8.864 1.757 29.755 38.788 -5.981 -350.921 3256.029 -3303.998 -1.366 -0.664 0.495 -0.03 0.62 -0.78 0.08
1 6.79 679 0.757 -8.725 1.250 4.639 36.957 -3.723 -350.921 3256.029 -3303.998 -1.188 -0.791 1.052 -0.03 0.62 -0.78 0.07
1 6.80 680 0.814 -8.619 0.771 -21.118 32.166 -2.075 -215.859 3150.947 -3423.919 -1.242 -0.894 1.542 -0.03 0.62 -0.78 0.07
1 6.81 681 0.728 -8.782 0.618 -54.321 26.703 -1.373 -215.859 3226.048 -3483.880 -1.161 -0.752 1.607 -0.03 0.62 -0.78 0.07
1 6.82 682 0.661 -8.926 0.752 -70.282 26.764 0.153 -275.820 3180.928 -3378.949 -1.096 -0.629 1.381 -0.03 0.62 -0.78 0.07
1 6.83 683 0.517 -9.395 0.929 -78.095 27.618 2.289 -275.820 3180.928 -3378.949 -0.956 -0.184 1.092 -0.02 0.63 -0.77 0.07
1 6.84 684 0.397 -9.936 1.121 -76.844 27.222 4.547 -260.830 3165.938 -3438.910 -0.841 0.332 0.777 -0.02 0.63 -0.77 0.06
1 6.85 685 0.613 -10.712 1.125 -67.291 27.557 5.341 -215.859 3256.029 -3348.968 -1.065 1.085 0.654 -0.02 0.64 -0.77 0.06
1 6.86 686 1.077 -11.521 1.542 -38.666 37.933 5.127 -215.859 3256.029 -3348.968 -1.540 1.878 0.140 -0.02 0.64 -0.76 0.06
1 6.87 687 0.886 -11.732 1.518 -14.313 52.612 3.418 -95.938 3180.928 -3423.919 -1.365 2.078 0.097 -0.02 0.65 -0.76 0.06
1 6.88 688 0.048 -11.268 1.144 18.066 70.038 -0.122 -50.817 3390.941 -3138.955 -0.560 1.610 0.438 -0.01 0.65 -0.76 0.05
1 6.89 689 -0.431 -10.789 0.757 29.205 73.151 -2.319 -140.908 3150.947 -3303.998 -0.097 1.136 0.853 -0.01 0.65 -0.76 0.05
1 6.90 690 -0.881 -10.396 0.445 27.100 68.238 -5.127 -140.908 3150.947 -3303.998 0.341 0.751 1.203 -0 0.64 -0.76 0.05
1 6.91 691 -1.307 -9.999 0.000 16.724 59.967 -7.996 -65.957 3301.000 -3228.896 0.758 0.358 1.671 0 0.64 -0.76 0.04
1 6.92 692 -1.671 -9.773 -0.565 6.439 48.676 -9.613 98.936 3315.990 -3258.877 1.116 0.134 2.241 0 0.64 -0.76 0.04
1 6.93 693 -1.772 -9.663 -1.073 8.698 28.076 -12.512 98.336 3316.739 -3255.429 1.213 0.022 2.739 0.01 0.64 -0.76 0.04
1 6.94 694 -1.513 -9.433 -1.178 15.198 20.874 -12.451 68.355 3166.837 -3255.429 0.956 -0.209 2.835 0.01 0.64 -0.76 0.03
1 6.95 695 -1.279 -9.309 -0.948 14.862 19.562 -11.780 68.355 3166.837 -3255.429 0.726 -0.334 2.604 0.01 0.64 -0.76 0.03
1 6.96 696 -0.790 -9.218 0.618 -5.066 11.902 -11.017 83.346 3331.879 -3345.371 0.252 -0.427 1.032 0.01 0.64 -0.76 0.03
1 6.97 697 -0.144 -10.722 1.882 -12.695 4.456 -5.127 83.346 3331.879 -3345.371 -0.384 1.072 -0.255 0.01 0.65 -0.76 0.03
1 6.98 698 -0.263 -10.736 2.634 -0.824 -2.747 -13.855 23.385 3241.788 -3285.410 -0.254 1.083 -1.022 0.01 0.65 -0.76 0.03
1 6.99 699 -0.953 -10.803 3.266 5.798 -3.265 -20.813 23.385 3391.840 -3255.429 0.461 1.150 -1.650 0.01 0.65 -0.76 0.03
1 7.00 700 -2.270 -11.248 3.141 -20.691 5.035 -40.589 23.385 3391.840 -3255.429 1.814 1.594 -1.519 0.01 0.65 -0.76 0.03
1 7.01 701 -3.299 -12.163 1.987 -37.659 15.167 -50.446 -141.508 3301.749 -3195.318 2.900 2.503 -0.385 0.01 0.65 -0.76 0.02
1 7.02 702 -3.879 -12.747 1.360 -43.976 7.202 -56.275 -141.508 3301.749 -3195.318 3.549 3.076 0.191 0 0.65 -0.76 0.02
1 7.03 703 -3.376 -12.369 2.198 -20.599 -31.403 -32.868 23.385 3271.769 -3330.380 3.200 2.676 -0.766 -0 0.65 -0.76 0.01
1 7.04 704 -1.978 -11.066 3.017 10.590 -54.718 -21.668 23.385 3271.769 -3330.380 1.855 1.370 -1.600 -0 0.65 -0.76 0.02
1 7.05 705 -0.666 -9.869 4.085 12.665 -59.509 -8.484 -81.547 3361.860 -3285.410 0.585 0.176 -2.646 -0.01 0.65 -0.76 0.02
1 7.06 706 0.105 -8.768 4.501 -18.402 -54.108 5.829 -66.557 3331.879 -3195.318 -0.167 -0.923 -3.042 -0.01 0.65 -0.76 0.02
1 7.07 707 0.455 -8.404 4.434 -59.662 -50.751 13.031 -66.557 3331.879 -3195.318 -0.516 -1.289 -2.993 -0.02 0.65 -0.76 0.02
1 7.08 708 1.044 -8.351 3.912 -99.884 -55.939 6.805 -231.449 3361.860 -3210.309 -1.108 -1.353 -2.547 -0.02 0.66 -0.75 0.03
1 7.09 709 1.370 -8.897 3.558 -93.384 -58.808 -2.686 -231.449 3361.860 -3210.309 -1.430 -0.823 -2.309 -0.02 0.66 -0.75 0.03
1 7.10 710 2.164 -8.969 3.060 -36.102 -44.312 0.549 -156.498 3466.792 -3180.328 -2.178 -0.776 -2.019 -0.03 0.67 -0.74 0.03
1 7.11 711 2.591 -8.385 2.902 11.261 -22.980 1.923 -156.498 3466.792 -3180.328 -2.584 -1.362 -1.879 -0.03 0.67 -0.74 0.03
1 7.12 712 2.926 -7.944 2.864 54.810 1.404 0.031 -171.488 3556.733 -3120.367 -2.899 -1.797 -1.791 -0.03 0.67 -0.74 0.03
1 7.13 713 2.883 -7.451 2.715 84.137 21.210 -3.143 -231.449 3496.772 -3075.396 -2.834 -2.277 -1.532 -0.03 0.66 -0.75 0.03
1 7.14 714 2.495 -7.197 2.844 95.307 35.645 -6.622 -231.449 3496.772 -3075.396 -2.434 -2.513 -1.522 -0.03 0.66 -0.75 0.03
1 7.15 715 1.633 -7.504 3.582 86.731 57.007 -7.935 -231.449 3526.752 -3000.445 -1.569 -2.186 -2.116 -0.03 0.65 -0.76 0.03
1 7.16 716 0.565 -7.983 3.778 70.252 71.717 -12.726 -231.449 3526.752 -3000.445 -0.502 -1.686 -2.177 -0.03 0.65 -0.76 0.03
1 7.17 717 -0.345 -9.007 3.553 49.164 87.799 -21.179 -306.700 3527.652 -3249.733 0.408 -0.642 -1.840 -0.02 0.64 -0.77 0.02
1 7.18 718 -2.327 -11.655 3.079 25.574 104.493 -30.609 -306.700 3392.590 -3279.713 2.406 2.037 -1.200 -0.01 0.64 -0.77 0.01
1 7.19 719 -3.318 -13.312 2.581 21.027 99.488 -27.069 -246.589 3332.629 -3414.625 3.413 3.702 -0.664 -0.01 0.63 -0.77 0
1 7.20 720 -4.693 -14.054 2.710 17.395 75.135 -15.320 -171.638 3257.528 -3444.606 4.797 4.451 -0.761 0.01 -0.63 0.77 0
1 7.21 721 -5.023 -13.844 3.022 12.634 34.332 2.533 -171.638 3257.528 -3444.606 5.125 4.246 -1.046 0 -0.63 0.78 0.01
1 7.22 722 -3.893 -12.412 2.864 17.242 -33.264 27.435 -81.697 3362.609 -3384.645 3.978 2.818 -0.868 0 -0.63 0.78 0.01
1 7.23 723 -2.370 -10.760 2.524 26.001 -62.165 29.358 -81.697 3362.609 -3384.645 2.427 1.170 -0.504 0 -0.63 0.78 0
1 7.24 724 -0.824 -9.510 2.289 33.783 -67.993 20.813 127.417 3258.727 -3365.458 0.855 -0.072 -0.234 -0 0.63 -0.78 0
1 7.25 725 1.077 -8.811 2.777 30.670 -36.774 11.078 -7.495 3468.740 -3425.418 -1.069 -0.749 -0.621 -0.01 0.62 -0.78 0.01
1 7.26 726 1.532 -8.710 2.787 19.745 -1.160 13.550 -157.397 3363.659 -3425.418 -1.523 -0.839 -0.583 -0.01 0.62 -0.78 0.01
1 7.27 727 1.370 -8.643 2.610 5.493 33.295 18.433 -172.388 3258.727 -3440.409 -1.373 -0.898 -0.375 -0.01 0.62 -0.78 0.01
1 7.28 728 0.618 -8.437 2.303 -4.334 55.451 22.827 -172.388 3258.727 -3440.409 -0.652 -1.102 -0.060 -0.01 0.62 -0.78 0.01
1 7.29 729 -0.182 -8.208 1.949 -8.301 62.409 25.299 82.446 3333.678 -3665.412 0.098 -1.333 0.289 -0 0.62 -0.78 0.01
1 7.30 730 -1.657 -7.628 1.805 -5.249 45.838 24.963 82.446 3333.678 -3665.412 1.516 -1.915 0.420 0 0.62 -0.78 0.01
1 7.31 731 -2.294 -7.408 1.609 -0.946 24.994 22.217 -187.378 3318.688 -3380.448 2.099 -2.136 0.607 0.01 0.62 -0.78 0.01
1 7.32 732 -2.662 -7.585 1.690 4.974 -6.348 17.670 22.335 3273.717 -3320.487 2.394 -1.957 0.528 0.01 0.62 -0.78 0.01
1 7.33 733 -2.619 -7.844 1.863 10.590 -17.822 15.686 127.417 3378.649 -3470.389 2.330 -1.695 0.366 0.01 0.62 -0.78 0.01
1 7.34 734 -2.658 -8.414 1.738 18.402 -19.196 13.458 22.335 3318.688 -3500.520 2.353 -1.120 0.510 0.01 0.62 -0.78 0.01
1 7.35 735 -2.696 -9.003 1.662 33.997 -10.437 12.512 22.335 3318.688 -3500.520 2.370 -0.523 0.620 0.01 0.62 -0.79 0.01
1 7.36 736 -3.093 -9.343 1.393 56.885 4.181 13.214 142.407 3273.717 -3500.520 2.735 -0.168 0.942 0.01 0.62 -0.79 0.01
1 7.37 737 -4.013 -9.371 1.111 61.463 3.571 16.296 142.407 3273.717 -3500.520 3.615 -0.120 1.297 0.01 0.61 -0.79 0.01
1 7.38 738 -4.257 -9.252 0.948 52.490 -7.721 19.531 127.417 3303.698 -3545.490 3.812 -0.217 1.541 0.02 0.61 -0.79 0.02
1 7.39 739 -4.271 -9.170 0.795 33.203 -24.963 23.163 -22.485 3333.678 -3515.510 3.775 -0.276 1.766 0.02 0.61 -0.79 0.02
1 7.40 740 -4.291 -9.366 0.872 -2.869 -51.544 24.536 52.466 3183.776 -3665.412 3.695 -0.058 1.749 0.02 0.6 -0.8 0.03
1 7.41 741 -3.941 -9.424 0.795 -22.614 -67.597 20.081 157.397 3108.675 -3725.523 3.307 -0.003 1.807 0.02 0.61 -0.79 0.03
1 7.42 742 -3.625 -9.477 0.685 -35.370 -83.771 13.214 157.397 3108.675 -3725.523 2.968 0.040 1.875 0.02 0.61 -0.79 0.04
1 7.43 743 -3.031 -9.596 0.642 -43.335 -100.159 7.721 142.407 3123.665 -3680.402 2.368 0.145 1.861 0.01 0.61 -0.79 0.04
1 7.44 744 -1.623 -9.893 0.541 -45.258 -114.838 7.751 142.407 3123.665 -3680.402 0.971 0.424 1.896 0.01 0.61 -0.79 0.05
1 7.45 745 -0.795 -9.989 0.771 -45.990 -116.242 14.465 82.446 3303.698 -3590.461 0.161 0.501 1.600 -0 0.62 -0.79 0.05
1 7.46 746 0.010 -9.999 1.130 -49.439 -106.934 21.973 -52.466 3243.737 -3530.500 -0.625 0.493 1.174 -0.01 0.62 -0.78 0.06
1 7.47 747 0.503 -9.941 1.441 -59.235 -84.198 25.391 -112.427 3318.688 -3605.451 -1.105 0.401 0.716 -0.02 0.62 -0.78 0.07
1 7.48 748 0.378 -10.042 1.255 -64.942 -69.947 21.607 -67.456 3258.727 -3515.510 -0.981 0.482 0.817 -0.02 0.63 -0.77 0.08
1 7.49 749 0.043 -10.161 1.063 -62.836 -63.172 16.846 -67.456 3258.727 -3515.510 -0.646 0.582 0.914 -0.03 0.63 -0.77 0.08
1 7.50 750 -0.048 -10.267 0.785 -50.415 -66.162 10.315 -187.378 3273.717 -3605.451 -0.552 0.669 1.104 -0.03 0.63 -0.77 0.08
1 7.51 751 0.086 -10.640 0.512 -29.297 -73.029 5.585 -187.378 3273.717 -3605.451 -0.675 1.029 1.309 -0.03 0.64 -0.77 0.09
1 7.52 752 0.522 -11.564 0.196 5.768 -80.353 -2.136 -262.479 3468.740 -3425.418 -1.090 1.945 1.588 -0.04 0.64 -0.76 0.09
1 7.53 753 0.919 -11.555 0.848 24.841 -75.531 -0.488 -247.489 3378.649 -3410.428 -1.462 1.935 0.944 -0.04 0.64 -0.76 0.09
1 7.54 754 1.561 -12.857 4.650 45.258 -52.857 0.916 -277.619 3410.128 -3433.813 -2.057 3.254 -2.761 -0.05 0.63 -0.77 0.1
1 7.55 755 1.906 -13.504 5.583 62.287 -26.947 13.245 -322.740 3455.099 -3433.813 -2.392 3.915 -3.617 -0.05 0.63 -0.77 0.1
1 7.56 756 3.055 -12.766 5.679 80.780 -3.906 31.372 -322.740 3455.099 -3433.813 -3.559 3.200 -3.611 -0.05 0.63 -0.77 0.1
1 7.57 757 4.209 -12.072 4.750 86.823 2.655 48.950 -382.701 3440.109 -3493.774 -4.764 2.536 -2.559 -0.05 0.62 -0.77 0.11
1 7.58 758 4.109 -11.306 3.927 65.003 14.862 55.268 -382.701 3440.109 -3493.774 -4.740 1.804 -1.612 -0.05 0.62 -0.78 0.11
1 7.59 759 1.901 -10.693 3.658 -17.181 42.847 48.035 -322.740 3260.076 -3538.745 -2.618 1.216 -1.267 -0.04 0.61 -0.78 0.11
1 7.60 760 0.939 -9.328 3.587 -69.702 47.211 51.605 -382.701 3170.135 -3523.754 -1.740 -0.143 -1.201 -0.04 0.61 -0.78 0.11
1 7.61 761 -0.057 -8.074 3.467 -102.661 39.520 40.100 -382.701 3170.135 -3523.754 -0.824 -1.411 -1.165 -0.03 0.62 -0.78 0.11
1 7.62 762 -2.035 -9.046 3.749 -125.489 39.276 -5.859 -322.740 3410.128 -3433.813 1.052 -0.499 -1.757 -0.03 0.63 -0.77 0.11
1 7.63 763 -3.175 -10.133 3.065 -133.973 45.715 -13.825 -322.740 3410.128 -3433.813 2.189 0.553 -1.249 -0.03 0.64 -0.76 0.11
1 7.64 764 -4.458 -10.774 2.361 -134.156 44.190 -17.883 -157.697 3275.066 -3598.706 3.474 1.159 -0.745 -0.03 0.65 -0.76 0.11
1 7.65 765 -4.904 -10.985 2.131 -102.112 29.175 -33.142 -157.697 3275.066 -3598.706 3.943 1.336 -0.709 -0.02 0.65 -0.75 0.1
1 7.66 766 -3.826 -9.831 1.978 -34.210 -0.488 -34.821 -142.707 3485.080 -3433.813 2.914 0.158 -0.694 -0.03 0.66 -0.75 0.1
1 7.67 767 -3.227 -8.964 1.772 4.486 -27.374 -11.993 -142.707 3635.132 -3208.810 2.369 -0.722 -0.554 -0.03 0.66 -0.74 0.1
1 7.68 768 -2.782 -7.197 2.011 27.405 -58.930 17.853 -142.707 3635.132 -3208.810 1.938 -2.490 -0.791 -0.03 0.66 -0.74 0.1
1 7.69 769 -1.432 -4.123 2.849 34.851 -82.733 27.710 -262.629 3725.073 -3118.718 0.548 -5.547 -1.524 -0.03 0.66 -0.75 0.11
1 7.70 770 -0.469 -2.921 3.472 36.072 -76.203 13.306 -262.629 3725.073 -3118.718 -0.434 -6.738 -2.082 -0.04 0.65 -0.75 0.11
1 7.71 771 0.374 -2.744 3.749 36.072 -52.826 -2.014 -157.697 3695.093 -3238.790 -1.272 -6.906 -2.295 -0.04 0.65 -0.75 0.12
1 7.72 772 0.977 -3.232 3.711 34.119 -22.095 -3.357 -157.697 3695.093 -3238.790 -1.860 -6.410 -2.196 -0.04 0.65 -0.75 0.12
1 7.73 773 1.274 -4.056 3.352 27.649 5.615 1.251 -262.629 3575.171 -3238.790 -2.149 -5.579 -1.786 -0.04 0.65 -0.75 0.12
1 7.74 774 1.518 -6.455 1.877 8.972 16.541 7.935 -397.691 3635.132 -3253.780 -2.397 -3.173 -0.274 -0.04 0.65 -0.75 0.12
1 7.75 775 1.982 -8.830 0.986 5.432 0.336 12.787 -397.691 3635.132 -3253.780 -2.875 -0.794 0.634 -0.04 0.64 -0.75 0.12
1 7.76 776 2.739 -13.432 0.014 48.523 -40.833 19.196 -307.750 3500.070 -3373.702 -3.645 3.816 1.643 -0.04 0.64 -0.76 0.12
1 7.77 777 3.673 -16.003 2.016 85.449 -59.357 16.449 -307.750 3500.070 -3373.702 -4.593 6.406 -0.262 -0.04 0.64 -0.76 0.12
1 7.78 778 4.698 -16.410 5.813 62.439 -54.840 7.294 -337.730 3500.070 -3448.803 -5.622 6.838 -3.926 -0.04 0.63 -0.76 0.13
1 7.79 779 5.052 -15.304 8.169 -4.425 -30.884 -3.510 -337.730 3500.070 -3448.803 -5.967 5.747 -6.206 -0.05 0.63 -0.76 0.13
1 7.80 780 4.621 -13.480 7.949 -66.284 41.443 -17.700 -307.750 3470.089 -3373.702 -5.519 3.916 -6.011 -0.05 0.63 -0.76 0.13
1 7.81 781 2.600 -10.741 5.425 -55.451 92.835 -19.318 -457.652 3470.089 -3448.803 -3.482 1.157 -3.580 -0.05 0.64 -0.76 0.13
1 7.82 782 0.814 -9.486 3.453 -23.163 125.611 -14.679 -457.652 3470.089 -3448.803 -1.689 -0.117 -1.705 -0.04 0.64 -0.76 0.12
1 7.83 783 -1.331 -8.380 1.719 10.101 131.745 -13.763 -412.681 3575.171 -3493.774 0.450 -1.234 -0.034 -0.04 0.64 -0.76 0.12
1 7.84 784 -3.448 -7.331 -0.675 32.288 82.459 -25.421 -352.720 3590.161 -3358.712 2.562 -2.278 2.381 -0.03 0.64 -0.76 0.1
1 7.85 785 -3.496 -7.346 -1.063 18.524 20.233 -29.114 -157.697 3500.070 -3313.741 2.633 -2.260 2.805 -0.02 0.64 -0.76 0.1
1 7.86 786 -2.634 -7.461 -0.536 -5.707 -38.239 -27.924 -157.697 3500.070 -3313.741 1.813 -2.145 2.297 -0.02 0.64 -0.76 0.09
1 7.87 787 -1.250 -7.264 0.819 -15.625 -68.176 -30.426 -172.688 3560.181 -3283.761 0.485 -2.347 0.934 -0.03 0.64 -0.76 0.1
1 7.88 788 0.661 -7.307 2.978 5.280 -52.185 -28.107 -307.750 3575.171 -3343.722 -1.360 -2.311 -1.237 -0.03 0.64 -0.76 0.1
1 7.89 789 1.350 -7.504 3.975 15.106 -18.280 -21.332 -307.750 3575.171 -3343.722 -1.989 -2.117 -2.224 -0.04 0.64 -0.76 0.1
1 7.90 790 1.417 -8.126 4.449 6.195 15.869 -18.616 -247.639 3455.099 -3328.731 -2.014 -1.493 -2.674 -0.04 0.64 -0.76 0.1
1 7.91 791 0.809 -9.338 3.577 -24.170 44.495 -13.886 -322.740 3635.132 -3283.761 -1.341 -0.280 -1.771 -0.04 0.64 -0.76 0.09
1 7.92 792 0.374 -10.386 2.452 -35.248 42.023 -10.986 -397.691 3455.099 -3403.833 -0.886 0.763 -0.674 -0.04 0.64 -0.76 0.09
1 7.93 793 0.000 -11.502 1.619 -27.466 26.123 -9.613 -397.691 3455.099 -3403.833 -0.499 1.869 0.114 -0.04 0.64 -0.76 0.09
1 7.94 794 0.182 -12.489 1.365 -3.754 8.545 -10.712 -412.681 3530.200 -3313.741 -0.671 2.849 0.334 -0.04 0.64 -0.76 0.09
1 7.95 795 0.819 -12.728 1.422 53.436 -2.991 -13.825 -322.740 3560.181 -3328.731 -1.292 3.089 0.284 -0.04 0.64 -0.76 0.08
1 7.96 796 1.312 -11.694 2.208 87.372 6.439 -18.463 -322.740 3560.181 -3328.731 -1.765 2.066 -0.436 -0.04 0.64 -0.76 0.08
1 7.97 797 1.446 -10.382 2.677 110.443 23.316 -22.217 -232.648 3500.070 -3268.771 -1.873 0.775 -0.787 -0.04 0.63 -0.77 0.08
1 7.98 798 1.212 -8.619 2.849 120.240 52.643 -21.179 -322.740 3590.161 -3283.761 -1.583 -0.918 -0.626 -0.04 0.62 -0.78 0.08
1 7.99 799 0.867 -7.753 2.672 101.227 65.705 -15.533 -457.652 3440.109 -3523.754 -1.217 -1.743 -0.275 -0.03 0.61 -0.79 0.07
1 8.00 800 0.541 -7.461 2.179 59.784 69.153 -10.345 -457.652 3440.109 -3523.754 -0.895 -2.001 0.350 -0.03 0.61 -0.79 0.07
1 8.01 801 0.268 -7.738 1.480 8.545 64.789 -6.256 -307.750 3530.200 -3553.735 -0.635 -1.705 1.115 -0.03 0.61 -0.79 0.07
1 8.02 802 0.421 -8.323 0.886 -38.941 56.183 -5.188 -337.730 3320.187 -3598.706 -0.803 -1.122 1.700 -0.02 0.61 -0.79 0.06
1 8.03 803 0.278 -9.366 0.215 -75.836 44.403 -3.052 -337.730 3320.187 -3598.706 -0.672 -0.097 2.299 -0.02 0.61 -0.79 0.06
1 8.04 804 0.096 -9.922 0.412 -77.576 38.025 -1.068 -157.697 3365.158 -3628.836 -0.499 0.429 1.989 -0.02 0.61 -0.79 0.06
1 8.05 805 0.091 -10.262 0.824 -70.313 31.311 2.136 -217.658 3260.076 -3658.816 -0.501 0.738 1.448 -0.02 0.62 -0.78 0.06
1 8.06 806 0.077 -10.482 1.599 -51.544 25.574 8.026 -112.727 3500.070 -3448.803 -0.507 0.909 0.451 -0.01 0.63 -0.78 0.05
1 8.07 807 -0.053 -10.544 1.834 -36.743 29.114 10.712 -112.727 3500.070 -3448.803 -0.394 0.956 0.141 -0.01 0.63 -0.77 0.05
1 8.08 808 -0.105 -10.453 1.911 -20.783 36.957 11.292 7.195 3485.080 -3508.764 -0.362 0.855 0.013 -0.01 0.63 -0.77 0.05
1 8.09 809 -0.129 -10.291 1.882 -5.493 46.265 8.698 -262.629 3395.138 -3418.823 -0.362 0.688 0.014 -0.01 0.64 -0.77 0.05
1 8.10 810 -0.517 -9.831 1.427 11.566 58.685 3.052 -262.629 3395.138 -3418.823 0.005 0.228 0.461 -0 0.64 -0.77 0.05
1 8.11 811 -0.733 -9.711 1.393 17.273 60.303 0.732 -157.697 3530.200 -3238.790 0.199 0.111 0.502 -0 0.64 -0.77 0.04
1 8.12 812 -1.058 -9.726 1.312 17.914 55.268 -0.153 -187.678 3500.070 -3448.803 0.506 0.130 0.599 0 0.63 -0.77 0.04
1 8.13 813 -0.527 -9.601 1.092 14.252 40.161 -0.580 -142.707 3485.080 -3433.813 -0.059 0.014 0.853 0.01 0.63 -0.77 0.04
1 8.14 814 -0.187 -9.486 0.857 12.665 27.008 -3.052 -142.707 3485.080 -3433.813 -0.409 -0.098 1.100 0.01 0.63 -0.77 0.04
1 8.15 815 0.388 -9.457 0.637 13.763 19.898 -5.493 52.166 3560.181 -3463.793 -0.982 -0.125 1.330 0.01 0.63 -0.77 0.03
1 8.16 816 0.852 -9.596 0.283 16.449 23.254 -3.448 127.117 3515.060 -3463.793 -1.438 0.016 1.696 0.01 0.63 -0.77 0.03
1 8.17 817 0.785 -9.563 -0.172 18.555 34.485 -1.160 125.618 3516.559 -3455.699 -1.364 -0.016 2.162 0.01 0.63 -0.77 0.03
1 8.18 818 0.278 -10.133 -0.397 17.304 51.209 -0.732 65.657 3441.608 -3515.810 -0.855 0.556 2.398 0.01 0.63 -0.78 0.03
1 8.19 819 -0.388 -10.698 -0.129 14.618 54.627 -0.824 20.687 3321.536 -3545.790 -0.194 1.123 2.135 0.02 0.63 -0.78 0.03
1 8.20 820 -1.499 -11.358 0.393 13.794 47.699 -0.305 95.638 3441.608 -3440.708 0.895 1.787 1.621 0.02 0.63 -0.78 0.02
1 8.21 821 -1.844 -11.766 1.590 15.625 36.011 -1.251 95.638 3441.608 -3440.708 1.227 2.198 0.442 0.03 0.63 -0.78 0.02
1 8.22 822 -1.997 -12.192 2.543 20.905 21.057 -10.681 170.589 3441.608 -3485.829 1.376 2.630 -0.488 0.03 0.63 -0.78 0.02
1 8.23 823 -2.136 -12.268 3.572 23.865 13.763 -21.484 140.608 3471.588 -3440.708 1.531 2.712 -1.486 0.03 0.63 -0.78 0.01
1 8.24 824 -2.557 -11.507 3.845 2.716 7.751 -29.389 140.608 3471.588 -3440.708 1.982 1.956 -1.727 0.03 0.63 -0.78 0.01
1 8.25 825 -2.557 -10.770 3.496 -26.337 -4.272 -33.997 185.579 3456.598 -3395.738 2.021 1.219 -1.366 0.03 0.62 -0.78 0.01
1 8.26 826 -2.591 -10.592 2.907 -59.601 -19.409 -34.760 170.589 3321.536 -3515.810 2.104 1.033 -0.803 0.02 0.63 -0.78 0.01
1 8.27 827 -2.227 -10.760 2.236 -81.482 -37.842 -34.424 170.589 3321.536 -3515.810 1.797 1.182 -0.206 0.02 0.63 -0.78 0.01
1 8.28 828 -0.656 -11.186 1.796 -88.196 -58.075 -28.137 185.579 3486.579 -3275.816 0.353 1.556 -0.002 0.01 0.64 -0.77 0.01
1 8.29 829 0.168 -11.105 2.294 -76.599 -62.378 -18.951 215.709 3471.588 -3440.708 -0.415 1.451 -0.624 0.01 0.64 -0.76 0.01
1 8.30 830 0.800 -10.712 3.046 -60.852 -57.465 -7.233 80.647 3456.598 -3200.715 -1.008 1.040 -1.480 0 0.65 -0.76 0.01
1 8.31 831 1.173 -10.185 3.984 -45.624 -47.211 1.953 80.647 3456.598 -3200.715 -1.360 0.500 -2.500 0 0.65 -0.76 0.01
1 8.32 832 1.676 -9.089 4.745 -19.653 -27.222 7.507 -69.255 3591.510 -3245.835 -1.857 -0.605 -3.321 -0 0.65 -0.76 0.02
1 8.33 833 1.820 -8.600 5.042 -1.801 -12.085 5.249 -264.128 3696.592 -3230.695 -1.993 -1.096 -3.629 -0 0.65 -0.76 0.02
1 8.34 834 1.963 -8.188 5.133 14.435 3.510 1.617 -264.128 3696.592 -3230.695 -2.125 -1.505 -3.702 -0 0.65 -0.76 0.02
1 8.35 835 1.437 -7.350 4.492 40.924 24.170 -3.967 -159.496 3606.950 -3046.765 -1.571 -2.326 -2.946 -0 0.65 -0.76 0.02
1 8.36 836 1.111 -6.819 3.816 57.953 31.494 -6.622 -99.535 3591.810 -3136.856 -1.237 -2.844 -2.190 -0 0.65 -0.76 0.01
1 8.37 837 0.781 -6.460 3.304 70.069 32.501 -9.705 -174.486 3666.911 -3166.837 -0.902 -3.188 -1.586 -0 0.64 -0.77 0.01
1 8.38 838 0.287 -6.278 2.816 75.897 29.846 -12.726 -174.486 3666.911 -3166.837 -0.401 -3.350 -0.991 -0 0.64 -0.77 0.01
1 8.39 839 0.057 -6.240 2.543 71.961 24.689 -13.428 -54.564 3501.869 -3226.798 -0.159 -3.366 -0.605 -0 0.63 -0.77 0.01
1 8.40 840 -0.627 -7.092 2.739 66.498 28.351 -13.763 -144.506 3516.859 -3241.788 0.539 -2.492 -0.693 0 0.63 -0.78 0.01
1 8.41 841 -1.116 -8.260 3.017 61.737 40.222 -13.947 -144.506 3516.859 -3241.788 1.040 -1.301 -0.869 0 0.62 -0.78 0
1 8.42 842 -2.097 -10.712 3.184 54.901 71.808 -18.799 -189.477 3441.908 -3301.749 2.026 1.194 -0.850 -0.01 -0.62 0.79 0
1 8.43 843 -2.959 -12.723 3.409 46.845 86.579 -20.264 5.247 3456.898 -3346.870 2.883 3.226 -0.995 -0.01 -0.61 0.79 0.01
1 8.44 844 -3.711 -13.896 3.764 26.306 76.660 -12.756 -54.564 3201.914 -3331.879 3.631 4.415 -1.287 -0.01 -0.61 0.79 0.01
1 8.45 845 -4.487 -13.963 4.027 -2.014 42.572 4.120 -54.864 3202.813 -3328.881 4.395 4.490 -1.522 -0.02 -0.61 0.79 0.02
1 8.46 846 -4.190 -12.982 3.816 -18.646 -3.143 22.308 -24.884 3412.827 -3313.891 4.074 3.505 -1.322 -0.02 -0.61 0.79 0.02
1 8.47 847 -2.888 -10.995 3.127 -3.082 -57.282 34.210 -9.894 3247.784 -3478.934 2.740 1.512 -0.658 -0.02 -0.61 0.79 0.01
1 8.48 848 -1.896 -9.903 2.840 20.722 -66.986 28.015 -9.894 3247.784 -3478.934 1.720 0.418 -0.380 -0.02 -0.61 0.79 0.01
1 8.49 849 -0.967 -9.194 3.002 37.140 -55.512 17.822 19.937 3322.885 -3298.901 0.773 -0.284 -0.518 -0.02 -0.61 0.79 0
1 8.50 850 -0.680 -8.935 3.227 35.492 -17.822 11.688 79.898 3337.875 -3448.953 0.460 -0.510 -0.627 0.01 0.61 -0.8 0
1 8.51 851 -0.752 -8.825 2.840 23.468 4.425 14.008 -24.884 3307.745 -3523.904 0.517 -0.605 -0.185 0.01 0.6 -0.8 0
1 8.52 852 -0.982 -8.610 2.763 8.911 13.519 18.951 -24.884 3307.745 -3523.904 0.720 -0.811 -0.075 0.01 0.6 -0.8 0
1 8.53 853 -1.207 -8.351 2.662 0.244 10.590 23.102 19.937 3202.813 -3538.895 0.906 -1.065 0.037 0.01 0.6 -0.8 0.01
1 8.54 854 -1.451 -7.930 2.639 -5.646 -10.193 26.215 125.019 3232.794 -3523.904 1.107 -1.484 0.062 0.02 0.6 -0.8 0.01
1 8.55 855 -1.657 -7.786 2.840 -7.660 -24.231 25.116 125.019 3232.794 -3523.904 1.279 -1.628 -0.145 0.02 0.6 -0.8 0.01
1 8.56 856 -1.595 -7.906 2.868 -9.583 -33.081 22.919 140.009 3277.765 -3403.982 1.189 -1.510 -0.181 0.02 0.6 -0.8 0.01
1 8.57 857 -1.365 -8.385 2.543 -9.155 -30.701 19.531 79.898 3307.745 -3643.976 0.923 -1.035 0.123 0.02 0.6 -0.8 0.02
1 8.58 858 -1.365 -8.600 2.184 -3.113 -22.797 17.578 -69.854 3232.794 -3418.973 0.905 -0.821 0.474 0.01 0.6 -0.8 0.02
1 8.59 859 -1.551 -8.768 1.963 8.026 -15.656 14.862 -69.854 3232.794 -3418.973 1.069 -0.652 0.695 0.01 0.6 -0.8 0.02
1 8.60 860 -1.925 -8.883 1.642 23.529 -13.916 12.695 49.917 3157.843 -3313.891 1.421 -0.532 1.033 0.01 0.6 -0.8 0.02
1 8.61 861 -2.179 -8.859 1.619 37.720 -18.982 10.864 -54.864 3202.813 -3508.914 1.653 -0.544 1.092 0.01 0.6 -0.8 0.03
1 8.62 862 -2.600 -8.399 1.647 39.887 -33.875 11.780 -54.864 3202.813 -3508.914 2.056 -0.988 1.115 0.01 0.6 -0.8 0.03
1 8.63 863 -2.600 -8.351 1.499 29.144 -42.572 13.153 -114.825 3097.882 -3613.996 2.039 -1.018 1.320 0.01 0.6 -0.8 0.03
1 8.64 864 -2.940 -8.849 0.939 3.906 -50.415 11.902 -9.894 3172.833 -3478.934 2.350 -0.498 1.946 0.01 0.59 -0.8 0.04
1 8.65 865 -3.137 -9.338 0.575 -8.362 -54.291 8.942 64.908 3172.833 -3538.895 2.537 -0.011 2.304 0.01 0.59 -0.8 0.04
1 8.66 866 -3.069 -9.553 0.747 -12.238 -62.561 2.747 64.908 3172.833 -3538.895 2.466 0.198 2.108 0.01 0.6 -0.8 0.04
1 8.67 867 -2.897 -9.879 1.068 -12.268 -77.179 -1.373 -99.835 3112.872 -3568.875 2.302 0.515 1.761 0 0.6 -0.8 0.05
1 8.68 868 -1.571 -10.046 1.733 -16.846 -104.676 6.897 -84.845 3202.813 -3583.865 0.996 0.675 1.073 -0 0.6 -0.8 0.05
1 8.69 869 -0.445 -10.061 1.954 -25.635 -112.915 20.935 -84.845 3202.813 -3583.865 -0.104 0.680 0.829 -0.01 0.6 -0.8 0.06
1 8.70 870 0.541 -9.936 2.188 -40.222 -106.049 33.417 -99.835 3112.872 -3523.904 -1.073 0.546 0.563 -0.01 0.6 -0.8 0.06
1 8.71 871 1.015 -9.831 2.500 -59.357 -87.311 37.232 -99.835 3112.872 -3523.904 -1.542 0.426 0.203 -0.02 0.6 -0.8 0.07
1 8.72 872 0.963 -9.869 2.413 -82.215 -52.368 30.457 -264.877 3172.833 -3508.914 -1.503 0.417 0.117 -0.03 0.61 -0.79 0.08
1 8.73 873 0.455 -10.166 2.203 -84.107 -37.720 26.398 -264.877 3172.833 -3508.914 -1.006 0.684 0.211 -0.03 0.61 -0.78 0.08
1 8.74 874 0.043 -10.372 1.595 -72.266 -35.797 21.027 -279.868 3232.794 -3418.973 -0.607 0.862 0.703 -0.03 0.62 -0.78 0.09
1 8.75 875 -0.493 -10.674 1.053 -53.955 -43.488 16.296 -279.868 3157.843 -3493.924 -0.080 1.141 1.145 -0.03 0.62 -0.78 0.09
1 8.76 876 -0.460 -10.784 0.417 -28.565 -64.667 10.925 -279.868 3157.843 -3493.924 -0.118 1.234 1.706 -0.04 0.62 -0.77 0.09
1 8.77 877 0.053 -10.406 1.250 -14.130 -73.120 8.270 -219.907 3382.846 -3268.920 -0.627 0.844 0.819 -0.04 0.63 -0.77 0.1
1 8.78 878 0.551 -10.540 3.946 -3.326 -67.658 10.498 -219.907 3382.846 -3268.920 -1.113 0.972 -1.902 -0.04 0.63 -0.77 0.1
1 8.79 879 1.259 -10.645 4.540 8.728 -38.788 36.316 -384.799 3443.856 -3220.652 -1.822 1.078 -2.490 -0.05 0.63 -0.77 0.11
1 8.80 880 2.136 -9.697 3.587 18.127 -32.410 46.417 -384.799 3443.856 -3220.652 -2.744 0.137 -1.517 -0.05 0.63 -0.77 0.11
1 8.81 881 2.964 -9.577 2.969 23.010 -26.306 49.194 -384.799 3203.863 -3070.600 -3.620 0.029 -0.861 -0.05 0.62 -0.77 0.12
1 8.82 882 3.256 -10.995 1.465 20.050 -12.360 50.171 -384.799 3173.732 -3250.632 -3.950 1.459 0.687 -0.05 0.62 -0.77 0.12
1 8.83 883 2.308 -13.102 1.346 14.984 -3.326 50.049 -384.799 3173.732 -3250.632 -3.071 3.578 0.837 -0.05 0.62 -0.77 0.12
1 8.84 884 1.829 -11.861 3.132 -2.106 9.003 46.936 -489.731 3278.814 -3400.685 -2.663 2.350 -0.923 -0.05 0.62 -0.77 0.13
1 8.85 885 1.283 -9.960 4.391 -26.703 24.475 33.569 -489.731 3278.814 -3400.685 -2.188 0.457 -2.178 -0.04 0.62 -0.77 0.13
1 8.86 886 -0.081 -8.935 5.497 -59.601 42.084 10.803 -414.780 3323.785 -3145.701 -0.918 -0.579 -3.373 -0.04 0.62 -0.77 0.13
1 8.87 887 -0.785 -8.816 5.564 -88.532 50.598 2.777 -414.780 3323.785 -3145.701 -0.230 -0.714 -3.518 -0.04 0.63 -0.77 0.13
1 8.88 888 -1.341 -8.801 5.220 -129.029 59.601 0.946 -354.669 3383.746 -3235.642 0.311 -0.753 -3.298 -0.03 0.63 -0.76 0.12
1 8.89 889 -1.609 -8.734 4.420 -158.631 61.707 1.343 -339.679 3398.736 -3175.681 0.560 -0.853 -2.682 -0.03 0.64 -0.76 0.12
1 8.90 890 -1.925 -8.567 3.342 -167.908 56.519 2.258 -339.679 3398.736 -3175.681 0.856 -1.057 -1.830 -0.03 0.65 -0.75 0.12
1 8.91 891 -1.801 -8.188 1.657 -136.261 27.405 7.477 -249.737 3383.746 -3130.710 0.710 -1.467 -0.379 -0.03 0.66 -0.74 0.12
1 8.92 892 -1.781 -7.542 1.039 -92.255 -0.854 10.345 -249.737 3383.746 -3130.710 0.669 -2.136 0.031 -0.03 0.67 -0.74 0.11
1 8.93 893 -1.575 -6.742 1.025 -46.295 -24.841 12.329 -279.718 3563.778 -2905.707 0.449 -2.950 -0.109 -0.03 0.67 -0.73 0.11
1 8.94 894 -1.355 -5.440 1.829 5.463 -38.269 10.925 -160.096 3698.840 -2887.419 0.203 -4.258 -1.013 -0.03 0.68 -0.73 0.12
1 8.95 895 -1.393 -4.985 2.270 20.935 -28.381 2.380 -220.057 3668.860 -2872.429 0.234 -4.710 -1.432 -0.03 0.68 -0.73 0.12
1 8.96 896 -1.331 -5.181 2.413 28.961 -12.665 -4.120 -309.998 3608.899 -2782.487 0.176 -4.511 -1.536 -0.03 0.67 -0.73 0.12
1 8.97 897 -1.365 -5.885 2.576 35.614 0.397 -0.336 -309.998 3608.899 -2782.487 0.218 -3.803 -1.651 -0.03 0.67 -0.73 0.12
1 8.98 898 -0.910 -7.461 2.054 34.210 0.214 12.878 -400.089 3788.782 -2797.478 -0.239 -2.222 -1.073 -0.03 0.67 -0.73 0.12
1 8.99 899 -0.584 -9.280 1.810 35.736 -12.817 17.151 -400.089 3788.782 -2797.478 -0.580 -0.395 -0.776 -0.03 0.67 -0.73 0.12
1 9.00 900 -0.306 -11.473 1.077 49.469 -29.694 16.022 -175.086 3593.909 -2827.458 -0.879 1.806 0.011 -0.03 0.67 -0.73 0.13
1 9.01 901 0.287 -15.261 1.092 93.079 -43.213 7.904 -265.027 3653.870 -2842.448 -1.497 5.621 0.188 -0.03 0.66 -0.74 0.13
1 9.02 902 0.800 -16.224 3.793 78.614 -37.628 -1.862 -235.047 3503.817 -2707.386 -2.008 6.604 -2.365 -0.03 0.65 -0.74 0.13
1 9.03 903 1.192 -15.453 5.971 8.301 -29.755 -14.679 -190.076 3443.856 -2917.399 -2.385 5.846 -4.444 -0.04 0.65 -0.75 0.14
1 9.04 904 1.556 -13.772 6.330 -50.598 -20.020 -27.283 -190.076 3443.856 -2917.399 -2.715 4.160 -4.811 -0.04 0.65 -0.75 0.14
1 9.05 905 1.465 -12.038 5.090 -59.082 -8.820 -32.837 -309.998 3473.837 -3067.452 -2.575 2.409 -3.650 -0.04 0.65 -0.75 0.13
1 9.06 906 1.322 -9.592 3.395 -17.914 -2.258 -22.644 -309.998 3473.837 -3067.452 -2.381 -0.055 -2.032 -0.04 0.65 -0.74 0.13
1 9.07 907 1.178 -8.509 2.931 2.167 -4.517 -11.688 -354.969 3413.876 -2902.409 -2.198 -1.147 -1.604 -0.05 0.66 -0.74 0.13
1 9.08 908 0.924 -7.623 2.318 -2.258 0.793 -10.407 -385.099 3443.856 -2917.399 -1.879 -2.035 -0.962 -0.05 0.65 -0.74 0.13
1 9.09 909 0.364 -7.643 1.556 -23.132 12.665 -19.318 -430.070 3488.827 -2977.360 -1.300 -2.019 -0.211 -0.05 0.65 -0.74 0.13
1 9.10 910 -0.196 -8.184 0.737 -44.525 23.010 -29.175 -430.070 3593.909 -2902.409 -0.710 -1.487 0.564 -0.05 0.66 -0.74 0.13
1 9.11 911 -0.824 -8.821 0.297 -50.232 24.323 -35.187 -430.070 3593.909 -2902.409 -0.039 -0.864 0.931 -0.05 0.66 -0.74 0.12
1 9.12 912 -1.010 -9.649 0.694 -16.083 6.470 -31.616 -400.089 3383.896 -2977.360 0.197 -0.049 0.459 -0.05 0.66 -0.74 0.12
1 9.13 913 -0.747 -9.304 1.370 20.599 -9.155 -23.163 -400.089 3383.896 -2977.360 -0.020 -0.402 -0.258 -0.05 0.66 -0.74 0.12
1 9.14 914 -0.148 -9.070 2.251 43.762 -19.318 -14.954 -415.080 3443.856 -2842.448 -0.580 -0.638 -1.122 -0.05 0.66 -0.74 0.12
1 9.15 915 0.206 -8.777 2.370 46.448 -22.980 -8.240 -505.021 3518.808 -2902.409 -0.904 -0.925 -1.178 -0.06 0.66 -0.74 0.12
1 9.16 916 0.809 -8.629 2.241 20.660 -16.205 -0.580 -490.031 3533.798 -2917.399 -1.466 -1.056 -0.898 -0.06 0.65 -0.74 0.12
1 9.17 917 1.121 -9.084 1.963 -2.686 -5.920 1.831 -415.080 3368.905 -2962.370 -1.763 -0.598 -0.587 -0.06 0.65 -0.75 0.12
1 9.18 918 1.365 -9.769 1.499 -14.160 5.310 2.960 -415.080 3368.905 -2962.370 -1.996 0.086 -0.125 -0.06 0.65 -0.75 0.12
1 9.19 919 1.532 -10.520 1.053 -13.153 13.855 -2.411 -505.021 3413.876 -3007.491 -2.153 0.834 0.301 -0.06 0.65 -0.75 0.12
1 9.20 920 1.657 -11.545 1.049 12.116 24.780 -9.460 -505.021 3413.876 -3007.491 -2.258 1.855 0.288 -0.06 0.65 -0.74 0.12
1 9.21 921 1.413 -11.660 0.958 41.229 26.184 -13.489 -579.822 3458.997 -2871.229 -2.004 1.971 0.388 -0.06 0.65 -0.75 0.11
1 9.22 922 1.532 -11.210 1.240 66.193 25.177 -15.106 -579.822 3564.078 -2901.210 -2.110 1.527 0.155 -0.06 0.65 -0.75 0.11
1 9.23 923 1.748 -10.061 1.671 78.736 27.313 -9.552 -414.930 3473.987 -2991.151 -2.293 0.407 -0.074 -0.06 0.64 -0.75 0.11
1 9.24 924 2.083 -9.290 1.824 64.026 31.525 -5.859 -519.861 3204.013 -2991.151 -2.613 -0.345 -0.116 -0.05 0.64 -0.76 0.11
1 9.25 925 2.093 -8.754 1.786 32.074 41.535 -2.808 -519.861 3204.013 -2991.151 -2.604 -0.868 0.006 -0.05 0.64 -0.76 0.11
1 9.26 926 1.868 -8.461 1.250 -8.881 55.298 -0.366 -384.949 3278.964 -3066.252 -2.368 -1.154 0.574 -0.05 0.64 -0.76 0.1
1 9.27 927 1.034 -8.725 0.206 -62.897 73.303 3.479 -384.949 3278.964 -3066.252 -1.542 -0.897 1.586 -0.05 0.64 -0.76 0.1
1 9.28 928 0.388 -9.012 -0.316 -85.175 77.820 4.120 -474.891 3309.094 -2976.161 -0.918 -0.624 2.022 -0.04 0.64 -0.76 0.1
1 9.29 929 -0.278 -9.668 -0.584 -93.994 72.754 6.256 -489.881 3248.983 -2991.151 -0.273 0.011 2.160 -0.04 0.65 -0.76 0.09
1 9.30 930 -0.522 -10.564 -0.493 -83.374 55.145 14.038 -354.819 3414.026 -3081.243 -0.073 0.864 1.756 -0.03 0.66 -0.75 0.08
1 9.31 931 -0.575 -10.918 0.057 -63.843 43.610 19.653 -384.949 3503.967 -2886.220 -0.052 1.203 1.070 -0.03 0.66 -0.74 0.08
1 9.32 932 -0.125 -12.422 0.752 -41.474 43.183 36.255 -384.949 3503.967 -2886.220 -0.540 2.699 0.285 -0.03 0.67 -0.74 0.08
1 9.33 933 -0.268 -10.588 1.164 -11.139 46.692 41.535 -219.907 3488.977 -2871.229 -0.463 0.864 -0.183 -0.02 0.67 -0.74 0.08
1 9.34 934 -0.464 -9.965 1.068 19.196 53.833 24.567 -219.907 3488.977 -2871.229 -0.325 0.246 -0.095 -0.02 0.67 -0.74 0.08
1 9.35 935 -0.929 -9.108 0.249 19.623 56.488 13.641 -264.877 3654.020 -2916.200 0.102 -0.606 0.753 -0.02 0.67 -0.74 0.08
1 9.36 936 -0.967 -8.792 -0.594 5.005 54.321 7.843 -174.936 3414.026 -2871.229 0.110 -0.916 1.621 -0.01 0.67 -0.74 0.08
1 9.37 937 -1.101 -8.806 -1.149 -1.709 53.131 3.113 -174.936 3414.176 -2870.780 0.222 -0.900 2.176 -0.01 0.67 -0.74 0.08
1 9.38 938 -1.015 -9.433 -1.331 26.154 49.652 -11.719 -159.946 3399.186 -2840.799 0.119 -0.274 2.334 -0 0.67 -0.74 0.07
1 9.39 939 -1.154 -10.348 -0.302 54.718 44.861 -16.602 -159.946 3399.186 -2840.799 0.270 0.642 1.331 -0 0.67 -0.74 0.07
1 9.40 940 -1.662 -11.014 0.350 71.564 29.205 -18.066 -9.894 3399.186 -2990.852 0.795 1.314 0.751 0 0.67 -0.74 0.06
1 9.41 941 -2.136 -10.592 1.226 79.407 8.789 -27.435 -9.894 3399.186 -2990.852 1.295 0.904 -0.017 0 0.66 -0.75 0.06
1 9.42 942 -2.591 -9.932 2.500 58.930 5.157 -40.131 -114.825 3444.156 -2885.770 1.794 0.254 -1.173 0 0.66 -0.75 0.06
1 9.43 943 -3.261 -11.066 2.600 6.012 19.409 -44.617 -69.854 3384.195 -2945.881 2.510 1.400 -1.173 -0 0.65 -0.75 0.06
1 9.44 944 -3.515 -12.570 2.792 -56.214 26.093 -42.755 -69.854 3384.195 -2945.881 2.820 2.904 -1.331 -0 0.65 -0.76 0.06
1 9.45 945 -3.759 -12.996 2.744 -73.944 -1.526 -30.853 -144.956 3309.094 -3080.793 3.177 3.298 -1.461 -0 0.66 -0.75 0.05
1 9.46 946 -3.199 -11.737 2.567 -61.188 -43.091 -29.266 -144.956 3309.094 -3080.793 2.664 2.023 -1.387 -0.01 0.66 -0.75 0.05
1 9.47 947 -1.432 -11.129 2.955 -56.305 -62.683 -30.548 -114.825 3399.186 -3065.803 0.954 1.402 -1.859 -0.01 0.67 -0.74 0.05
1 9.48 948 -0.168 -10.597 2.964 -73.853 -61.279 -16.022 -114.825 3399.186 -3065.803 -0.258 0.859 -1.952 -0.02 0.67 -0.74 0.05
1 9.49 949 0.790 -10.171 2.490 -98.236 -50.690 -3.021 -144.956 3519.107 -2975.861 -1.187 0.420 -1.593 -0.02 0.67 -0.74 0.05
1 9.50 950 1.494 -10.401 2.409 -92.499 -26.306 5.035 -309.848 3399.186 -2810.819 -1.878 0.637 -1.655 -0.02 0.68 -0.73 0.05
1 9.51 951 1.379 -10.329 2.538 -51.331 -13.336 12.054 -309.848 3399.186 -2810.819 -1.753 0.556 -1.915 -0.03 0.68 -0.73 0.06
1 9.52 952 1.125 -9.137 2.959 10.498 -12.451 10.437 -234.897 3504.117 -2660.767 -1.506 -0.642 -2.432 -0.03 0.69 -0.72 0.06
1 9.53 953 0.963 -7.925 3.376 37.048 -13.825 5.737 -234.897 3504.117 -2660.767 -1.344 -1.851 -2.802 -0.03 0.69 -0.73 0.06
1 9.54 954 1.001 -6.431 3.764 45.563 -11.353 -2.716 -264.877 3609.199 -2810.819 -1.381 -3.340 -3.118 -0.03 0.68 -0.73 0.06
1 9.55 955 1.068 -5.770 4.161 33.508 -1.129 -13.397 -264.877 3609.199 -2810.819 -1.436 -3.997 -3.448 -0.03 0.68 -0.73 0.06
1 9.56 956 0.532 -5.473 3.850 5.615 23.804 -2.441 -324.838 3564.078 -2750.858 -0.881 -4.291 -3.093 -0.03 0.68 -0.73 0.06
1 9.57 957 -0.144 -5.363 3.414 -9.735 33.539 -5.524 -489.881 3399.186 -2885.770 -0.201 -4.400 -2.643 -0.03 0.68 -0.73 0.06
1 9.58 958 -0.953 -6.383 2.840 -17.090 35.065 -15.778 -489.881 3399.186 -2885.770 0.612 -3.381 -2.078 -0.03 0.68 -0.73 0.06
1 9.59 959 -1.896 -7.834 2.260 -10.407 33.539 -25.116 -354.819 3459.146 -2945.881 1.572 -1.933 -1.523 -0.03 0.68 -0.73 0.05
1 9.60 960 -3.232 -10.932 1.389 41.657 39.673 -33.783 -354.819 3414.176 -2870.780 2.974 1.163 -0.653 -0.03 0.68 -0.73 0.05
1 9.61 961 -3.979 -13.082 1.168 95.124 46.692 -38.178 -174.936 3519.107 -2870.780 3.761 3.319 -0.347 -0.02 0.68 -0.73 0.04
1 9.62 962 -4.774 -14.145 1.987 132.691 36.682 -37.232 -174.936 3519.107 -2870.780 4.609 4.396 -1.006 -0.02 0.67 -0.74 0.04
1 9.63 963 -5.330 -13.772 3.515 136.811 3.204 -25.177 -339.829 3399.186 -2960.871 5.213 4.045 -2.330 -0.02 0.66 -0.75 0.04
1 9.64 964 -4.516 -11.799 4.798 104.340 -55.237 9.033 -309.848 3399.186 -2915.750 4.432 2.098 -3.413 -0.03 0.65 -0.75 0.04
1 9.65 965 -3.295 -10.195 4.856 70.648 -77.179 27.680 -309.848 3399.186 -2915.750 3.218 0.519 -3.304 -0.03 0.65 -0.76 0.04
1 9.66 966 -1.858 -8.945 3.778 32.013 -79.682 28.412 -414.930 3369.055 -3065.803 1.766 -0.711 -2.106 -0.03 0.64 -0.76 0.04
1 9.67 967 -0.551 -8.380 2.069 -20.905 -57.739 14.740 -249.887 3114.071 -3155.894 0.405 -1.258 -0.301 -0.04 0.64 -0.77 0.05
1 9.68 968 -0.350 -8.576 1.370 -42.572 -41.443 12.451 -339.829 3249.133 -3290.806 0.199 -1.069 0.361 -0.04 0.64 -0.76 0.06
1 9.69 969 -0.551 -9.031 0.939 -48.828 -33.020 15.747 -339.829 3250.033 -3287.958 0.393 -0.625 0.727 -0.04 0.64 -0.76 0.06
1 9.70 970 -0.680 -9.362 0.891 -44.159 -33.386 19.013 -504.871 3309.994 -3227.847 0.506 -0.306 0.703 -0.04 0.65 -0.76 0.06
1 9.71 971 -0.733 -9.721 1.360 -22.980 -45.441 21.912 -429.920 3190.072 -3332.929 0.535 0.043 0.170 -0.04 0.65 -0.76 0.07
1 9.72 972 -0.599 -9.941 1.762 -1.953 -53.681 22.736 -429.920 3190.072 -3332.929 0.376 0.258 -0.273 -0.04 0.65 -0.76 0.07
1 9.73 973 -0.464 -9.769 2.212 19.806 -58.869 20.599 -489.881 3205.062 -3137.906 0.217 0.084 -0.732 -0.05 0.65 -0.76 0.07
1 9.74 974 -0.153 -9.706 2.634 40.833 -57.465 16.174 -474.891 3235.042 -3152.896 -0.128 0.036 -1.068 -0.05 0.65 -0.76 0.08
1 9.75 975 -0.115 -9.572 2.801 40.344 -49.713 13.031 -624.943 3160.091 -3152.896 -0.173 -0.085 -1.163 -0.05 0.64 -0.76 0.09
1 9.76 976 -0.053 -9.611 2.830 31.616 -37.232 10.803 -624.943 3160.091 -3152.896 -0.239 -0.035 -1.123 -0.06 0.64 -0.76 0.09
1 9.77 977 -0.326 -9.673 2.586 18.372 -25.818 9.369 -594.812 3280.013 -3092.935 0.030 0.037 -0.827 -0.06 0.64 -0.76 0.09
1 9.78 978 -0.886 -9.855 2.567 9.766 -17.670 9.338 -594.812 3175.082 -3212.857 0.584 0.225 -0.776 -0.06 0.64 -0.76 0.09
1 9.79 979 -1.810 -9.893 2.423 5.737 -19.440 14.526 -594.812 3175.082 -3212.857 1.497 0.267 -0.612 -0.06 0.64 -0.76 0.09
1 9.80 980 -2.337 -9.994 2.337 10.834 -28.320 18.311 -639.933 3205.062 -3167.886 2.003 0.371 -0.512 -0.06 0.64 -0.76 0.1
1 9.81 981 -2.787 -10.137 2.069 20.722 -41.229 22.858 -564.832 3130.111 -3092.935 2.423 0.519 -0.224 -0.06 0.63 -0.76 0.1
1 9.82 982 -2.911 -9.917 1.815 30.609 -60.394 25.391 -549.842 3160.091 -3227.847 2.473 0.317 0.106 -0.06 0.63 -0.77 0.11
1 9.83 983 -2.710 -9.673 1.604 29.053 -71.198 23.804 -549.842 3160.091 -3227.847 2.236 0.085 0.365 -0.06 0.63 -0.77 0.11
1 9.84 984 -2.461 -9.601 1.619 21.820 -78.522 20.905 -549.842 3040.020 -3182.876 1.960 0.023 0.395 -0.06 0.63 -0.77 0.12
1 9.85 985 -2.150 -9.275 1.580 12.116 -83.679 20.172 -819.816 3055.010 -3287.958 1.629 -0.294 0.466 -0.07 0.63 -0.77 0.12
1 9.86 986 -1.551 -9.156 1.379 -2.960 -85.419 20.508 -819.516 3055.909 -3286.009 1.016 -0.409 0.686 -0.07 0.62 -0.77 0.13
1 9.87 987 -1.307 -9.261 1.274 -6.683 -79.712 16.937 -669.614 3175.831 -3211.058 0.759 -0.302 0.795 -0.07 0.62 -0.77 0.14
1 9.88 988 -1.346 -9.472 1.235 -5.951 -74.280 12.726 -759.555 2995.798 -3376.101 0.790 -0.093 0.827 -0.08 0.62 -0.77 0.14
1 9.89 989 -1.484 -9.994 1.255 -0.885 -74.890 5.676 -804.526 3040.769 -3301.000 0.933 0.427 0.796 -0.09 0.62 -0.76 0.15
1 9.90 990 -1.633 -10.152 1.504 6.226 -83.405 4.913 -804.526 3040.769 -3301.000 1.093 0.584 0.549 -0.09 0.62 -0.76 0.15
1 9.91 991 -1.513 -10.377 1.748 12.939 -96.131 8.026 -744.565 3130.860 -3241.039 0.985 0.812 0.319 -0.09 0.62 -0.76 0.16
1 9.92 992 -1.346 -10.597 2.188 22.858 -106.995 9.857 -834.506 2965.818 -3181.078 0.830 1.037 -0.094 -0.1 0.62 -0.76 0.16
1 9.93 993 -1.135 -10.645 2.370 32.837 -111.847 11.963 -834.506 2965.818 -3181.078 0.637 1.094 -0.231 -0.1 0.62 -0.76 0.17
1 9.94 994 -1.010 -10.664 2.576 45.532 -108.124 13.825 -1029.529 3070.899 -3256.029 0.533 1.126 -0.376 -0.11 0.61 -0.76 0.18
1 9.95 995 -1.111 -10.765 2.452 46.112 -102.356 15.137 -1119.471 2860.886 -3286.009 0.652 1.243 -0.178 -0.11 0.61 -0.76 0.18
1 9.96 996 -1.283 -10.746 1.968 35.523 -99.823 18.707 -1119.471 2950.828 -3211.058 0.854 1.259 0.451 -0.12 0.6 -0.77 0.19
1 9.97 997 -1.240 -10.430 1.992 24.994 -101.593 19.562 -1119.471 2950.828 -3211.058 0.822 0.956 0.483 -0.13 0.6 -0.77 0.2
1 9.98 998 -1.216 -10.458 2.279 16.235 -107.453 20.172 -1059.510 2920.847 -3226.048 0.807 0.995 0.233 -0.13 0.6 -0.77 0.21
