COL1	TIME	ACC_X	ACC_Y	ACC_Z	GYR_X	GYR_Y	GYR_Z	MAG_X	MAG_Y	MAG_Z	LACC_X	LACC_Y	LACC_Z	QUAT_X	QUAT_Y	QUAT_Z	QUAT_W
1 0.00 0 -0.120 -6.589 7.365 -0.488 -0.305 0.183 99.985 489.881 -4787.131 -0.019 0.098 -0.024 0 0.35 -0.94 0.01
1 0.01 1 -0.120 -6.580 7.398 -0.885 -0.641 0.244 70.004 564.832 -4787.131 -0.019 0.088 -0.058 0 0.35 -0.94 0.01
1 0.02 2 -0.201 -6.546 7.379 -1.465 -0.458 0.824 70.004 564.832 -4787.131 0.062 0.055 -0.039 0 0.35 -0.94 0.01
1 0.03 3 -0.177 -6.599 7.528 -1.190 -0.580 0.122 55.014 504.871 -4877.073 0.038 0.107 -0.187 0 0.35 -0.94 0.01
1 0.04 4 -0.172 -6.666 7.456 -0.580 -0.183 0.763 10.043 549.842 -4772.141 0.034 0.174 -0.116 0 0.35 -0.94 0.01
1 0.05 5 -0.225 -6.580 7.427 -0.183 -0.732 0.305 10.043 549.842 -4772.141 0.086 0.088 -0.087 0 0.35 -0.94 0.01
1 0.06 6 -0.306 -6.637 7.470 -0.427 -1.373 0.336 99.985 519.861 -4862.083 0.167 0.145 -0.130 0 0.35 -0.94 0.01
1 0.07 7 -0.158 -6.608 7.441 -1.251 -1.038 1.190 -19.787 624.943 -4697.040 0.017 0.116 -0.101 0 0.35 -0.94 0.01
1 0.08 8 -0.110 -6.565 7.341 -0.916 -1.709 1.373 70.004 684.904 -4832.102 -0.031 0.073 -0.001 0 0.35 -0.94 0.01
1 0.09 9 -0.148 -6.699 7.552 -1.312 -0.916 1.740 70.004 684.904 -4832.102 0.007 0.207 -0.212 0 0.35 -0.94 0.01
1 0.10 10 -0.259 -6.575 7.552 -1.801 -1.495 1.892 84.995 654.923 -4742.161 0.117 0.082 -0.212 0 0.35 -0.94 0.01
1 0.11 11 -0.125 -6.699 7.394 -2.014 -1.007 2.106 55.014 549.842 -4817.112 -0.018 0.207 -0.054 0 0.35 -0.94 0.01
1 0.12 12 -0.110 -6.675 7.422 -1.587 -1.129 1.617 55.014 549.842 -4817.112 -0.033 0.182 -0.083 0 0.35 -0.94 0.01
1 0.13 13 -0.168 -6.685 7.461 -0.946 -1.099 1.984 -154.849 564.832 -4787.131 0.024 0.191 -0.122 0 0.35 -0.94 0.01
1 0.14 14 -0.239 -6.670 7.432 0.061 -1.495 2.167 55.014 624.943 -4697.040 0.095 0.177 -0.093 0 0.35 -0.94 0.01
1 0.15 15 -0.139 -6.551 7.451 -0.275 -1.648 1.740 70.004 594.812 -4757.151 -0.007 0.058 -0.112 0 0.35 -0.94 0.01
1 0.16 16 -0.110 -6.690 7.408 -0.305 -1.282 2.441 70.004 594.812 -4757.151 -0.036 0.198 -0.067 0 0.35 -0.94 0.01
1 0.17 17 -0.134 -6.709 7.403 -0.427 -1.709 2.411 84.995 504.871 -4697.040 -0.012 0.218 -0.063 0 0.35 -0.94 0.01
1 0.18 18 -0.196 -6.651 7.307 -0.549 -1.862 2.319 10.043 504.871 -4847.092 0.050 0.161 0.034 0 0.35 -0.94 0.01
1 0.19 19 0.048 -6.656 7.374 -0.580 -1.617 1.862 10.043 504.871 -4847.092 -0.195 0.165 -0.034 0 0.35 -0.94 0.01
1 0.20 20 -0.067 -6.623 7.346 -0.214 -1.282 1.984 55.014 549.842 -4847.092 -0.080 0.132 -0.005 0 0.35 -0.94 0.01
1 0.21 21 -0.283 -6.541 7.408 -1.160 -1.770 1.770 -4.797 564.832 -4712.030 0.136 0.051 -0.067 0 0.35 -0.94 0.01
1 0.22 22 -0.081 -6.627 7.470 -1.465 -1.160 1.556 -19.787 504.871 -4877.073 -0.066 0.137 -0.129 0 0.35 -0.94 0.01
1 0.23 23 -0.105 -6.699 7.432 -1.190 -1.251 1.892 -19.787 504.871 -4877.073 -0.042 0.209 -0.091 0 0.35 -0.94 0.01
1 0.24 24 -0.148 -6.656 7.432 -1.312 -1.862 2.228 25.034 714.884 -4862.083 0.002 0.165 -0.091 0 0.35 -0.94 0.01
1 0.25 25 -0.158 -6.608 7.461 -1.282 -1.587 1.801 114.975 654.923 -4847.092 0.012 0.117 -0.120 0 0.35 -0.94 0.01
1 0.26 26 -0.172 -6.613 7.370 -0.214 -1.587 1.617 114.975 654.923 -4847.092 0.026 0.121 -0.030 0 0.35 -0.94 0.01
1 0.27 27 -0.110 -6.599 7.384 -0.427 -1.526 1.740 -49.768 564.832 -4832.102 -0.036 0.107 -0.044 0 0.35 -0.94 0.01
1 0.28 28 -0.244 -6.647 7.379 -1.465 -1.465 1.831 99.985 639.933 -4787.131 0.098 0.155 -0.039 0 0.35 -0.94 0.01
1 0.29 29 -0.182 -6.551 7.398 -1.587 -1.862 1.709 25.034 564.832 -4712.030 0.035 0.058 -0.059 0 0.35 -0.94 0.01
1 0.30 30 -0.263 -6.570 7.317 -1.434 -1.801 1.465 25.034 564.832 -4712.030 0.117 0.077 0.022 0 0.35 -0.94 0.01
1 0.31 31 -0.158 -6.623 7.355 -2.258 -1.740 2.014 190.076 384.799 -4742.161 0.011 0.129 -0.017 0 0.35 -0.94 0.01
1 0.32 32 -0.172 -6.685 7.374 -2.228 -2.136 1.678 -4.797 564.832 -4832.102 0.025 0.190 -0.038 0 0.35 -0.94 0.01
1 0.33 33 -0.206 -6.589 7.465 -2.625 -2.258 2.502 -4.797 564.832 -4832.102 0.058 0.092 -0.130 0 0.35 -0.93 0.01
1 0.34 34 -0.129 -6.656 7.422 -2.686 -2.380 3.784 -49.768 489.881 -4682.050 -0.019 0.157 -0.089 0 0.35 -0.93 0.01
1 0.35 35 -0.235 -6.651 7.331 -2.716 -2.777 4.059 -49.768 489.881 -4682.050 0.086 0.150 0.000 0 0.35 -0.93 0.01
1 0.36 36 -0.244 -6.560 7.336 -3.113 -2.533 4.089 -19.787 699.894 4901.957 0.093 0.054 -0.009 0 0.36 -0.93 0.01
1 0.37 37 -0.163 -6.603 7.408 -3.845 -3.235 4.272 -19.787 699.894 4901.957 0.011 0.095 -0.083 0 0.36 -0.93 0.01
1 0.38 38 -0.168 -6.718 7.355 -4.089 -2.838 4.089 -79.898 519.861 -4832.102 0.015 0.206 -0.034 0 0.36 -0.93 0.01
1 0.39 39 -0.187 -6.699 7.307 -4.089 -2.228 3.540 25.034 489.881 -4757.151 0.033 0.183 0.011 0 0.36 -0.93 0.01
1 0.40 40 -0.201 -6.541 7.317 -3.845 -2.808 3.967 25.034 489.881 -4757.151 0.046 0.021 -0.002 0 0.36 -0.93 0.01
1 0.41 41 -0.239 -6.694 7.370 -3.784 -1.953 3.052 10.043 579.822 4901.957 0.084 0.171 -0.058 0 0.36 -0.93 0.01
1 0.42 42 -0.239 -6.603 7.322 -3.296 -2.167 2.716 10.043 579.822 4901.957 0.082 0.077 -0.012 0 0.36 -0.93 0.01
1 0.43 43 -0.215 -6.584 7.250 -3.754 -2.411 2.441 -4.797 414.930 -4832.102 0.056 0.052 0.054 0 0.36 -0.93 0.01
1 0.44 44 -0.062 -6.594 7.408 -3.204 -2.258 2.350 -4.797 414.930 -4832.102 -0.097 0.059 -0.107 0 0.36 -0.93 0.01
1 0.45 45 -0.192 -6.613 7.422 -3.784 -2.228 2.380 -4.797 639.933 -4757.151 0.032 0.075 -0.124 0 0.36 -0.93 0.01
1 0.46 46 -0.086 -6.560 7.370 -3.998 -2.350 2.563 144.956 639.933 -4757.151 -0.073 0.020 -0.073 0 0.36 -0.93 0.01
1 0.47 47 -0.110 -6.647 7.350 -3.723 -2.228 2.838 144.956 639.933 -4757.151 -0.049 0.103 -0.056 0 0.36 -0.93 0.01
1 0.48 48 -0.192 -6.704 7.350 -3.754 -2.167 2.228 70.004 714.884 -4787.131 0.033 0.158 -0.059 0 0.36 -0.93 0.01
1 0.49 49 -0.244 -6.718 7.279 -3.601 -1.862 2.350 70.004 714.884 -4787.131 0.086 0.169 0.010 0 0.36 -0.93 0.01
1 0.50 50 -0.029 -6.651 7.336 -3.357 -1.526 1.495 -94.888 624.943 -4592.108 -0.130 0.099 -0.050 0 0.36 -0.93 0.01
1 0.51 51 -0.129 -6.733 7.303 -4.242 -1.526 2.380 -19.787 654.923 -4742.161 -0.029 0.174 -0.022 0 0.36 -0.93 0.01
1 0.52 52 -0.172 -6.690 7.384 -4.272 -1.556 1.953 99.985 564.832 -4787.131 0.014 0.127 -0.108 0 0.36 -0.93 0.01
1 0.53 53 -0.259 -6.785 7.283 -4.364 -1.404 2.441 10.043 654.923 -4817.112 0.100 0.219 -0.010 0 0.36 -0.93 0.01
1 0.54 54 -0.105 -6.852 7.384 -3.510 -1.129 2.594 10.043 654.923 -4817.112 -0.055 0.282 -0.115 0 0.36 -0.93 0.01
1 0.55 55 -0.259 -6.670 7.240 -2.075 -1.770 1.495 -49.768 594.812 -4862.083 0.098 0.097 0.026 0 0.36 -0.93 0.01
1 0.56 56 -0.235 -6.675 7.355 -1.465 -1.221 1.251 -49.768 594.812 -4862.083 0.074 0.100 -0.090 0 0.36 -0.93 0.01
1 0.57 57 -0.086 -6.632 7.408 -0.549 -1.526 1.343 84.995 624.943 -4697.040 -0.075 0.056 -0.143 0 0.36 -0.93 0.01
1 0.58 58 -0.196 -6.718 7.346 -0.031 -1.770 1.434 -4.797 564.832 -4787.131 0.036 0.143 -0.081 0 0.36 -0.93 0.01
1 0.59 59 -0.115 -6.685 7.413 -0.092 -1.617 1.129 -4.797 519.861 -4712.030 -0.045 0.110 -0.147 0 0.36 -0.93 0.01
1 0.60 60 -0.067 -6.690 7.413 0.153 -1.984 1.221 99.985 639.933 -4682.050 -0.093 0.116 -0.147 0 0.36 -0.93 0.01
1 0.61 61 -0.105 -6.685 7.288 -0.305 -1.129 1.495 99.985 639.933 -4682.050 -0.054 0.112 -0.021 0 0.36 -0.93 0.01
1 0.62 62 -0.091 -6.666 7.307 -1.068 -1.068 1.221 70.004 684.904 -4712.030 -0.068 0.093 -0.040 0 0.36 -0.93 0.01
1 0.63 63 -0.077 -6.704 7.504 -1.831 -0.732 0.977 70.004 684.904 -4712.030 -0.082 0.131 -0.236 0 0.36 -0.93 0.01
1 0.64 64 -0.120 -6.560 7.355 -2.533 -0.183 1.221 25.034 639.933 -4757.151 -0.039 -0.012 -0.088 0 0.36 -0.93 0.01
1 0.65 65 -0.235 -6.661 7.346 -2.228 -0.275 0.275 -4.797 639.933 -4757.151 0.076 0.088 -0.079 0 0.36 -0.93 0.01
1 0.66 66 -0.129 -6.738 7.389 -0.458 -0.458 0.366 70.004 684.904 -4832.102 -0.030 0.164 -0.122 0 0.36 -0.93 0.01
1 0.67 67 -0.182 -6.647 7.336 -0.793 -0.763 0.031 55.014 699.894 -4667.060 0.023 0.073 -0.070 0 0.36 -0.93 0.01
1 0.68 68 -0.302 -6.752 7.394 -1.221 -0.183 0.092 55.014 699.894 -4667.060 0.143 0.178 -0.127 0 0.36 -0.93 0.01
1 0.69 69 -0.105 -6.776 7.461 -1.373 -0.244 -0.031 99.985 639.933 -4787.131 -0.054 0.202 -0.195 0 0.36 -0.93 0.01
1 0.70 70 -0.105 -6.608 7.283 -1.404 -0.153 -0.214 99.985 639.933 -4787.131 -0.053 0.034 -0.018 0 0.36 -0.93 0.01
1 0.71 71 -0.148 -6.738 7.346 -1.862 0.092 0.031 -79.898 519.861 -4832.102 -0.009 0.163 -0.080 0 0.36 -0.93 0.01
1 0.72 72 -0.115 -6.666 7.403 -3.387 0.153 0.183 10.043 654.923 -4742.161 -0.042 0.089 -0.139 0 0.36 -0.93 0.01
1 0.73 73 -0.053 -6.738 7.432 -3.754 -0.153 -0.122 55.014 579.822 -4772.141 -0.104 0.158 -0.171 0 0.36 -0.93 0.01
1 0.74 74 -0.235 -6.666 7.259 -5.127 0.153 0.031 -49.768 594.812 -4832.102 0.078 0.082 -0.002 0 0.36 -0.93 0.01
1 0.75 75 -0.168 -6.819 7.298 -4.059 0.610 0.183 -49.768 594.812 -4832.102 0.011 0.231 -0.044 0 0.36 -0.93 0.01
1 0.76 76 -0.129 -6.656 7.418 -4.578 0.244 -0.031 -49.768 594.812 -4787.131 -0.028 0.064 -0.167 0 0.36 -0.93 0.01
1 0.77 77 -0.192 -6.656 7.336 -4.517 0.214 -0.549 -49.768 594.812 -4787.131 0.034 0.061 -0.089 0 0.36 -0.93 0.01
1 0.78 78 -0.297 -6.771 7.307 -4.089 -0.183 -0.610 25.034 639.933 -4862.083 0.140 0.171 -0.064 0 0.36 -0.93 0.01
1 0.79 79 -0.163 -6.781 7.236 -3.235 -0.549 0.336 -49.768 639.933 -4832.102 0.007 0.177 0.004 0 0.36 -0.93 0.01
1 0.80 80 -0.168 -6.761 7.274 -3.296 -0.244 0.183 70.004 444.910 -4652.069 0.011 0.152 -0.040 0 0.36 -0.93 0.01
1 0.81 81 -0.043 -6.761 7.240 -3.845 -0.122 -0.214 114.975 654.923 -4697.040 -0.114 0.149 -0.009 0 0.36 -0.93 0.01
1 0.82 82 -0.139 -6.814 7.130 -3.784 -0.214 -0.580 114.975 654.923 -4697.040 -0.018 0.198 0.098 0 0.36 -0.93 0.01
1 0.83 83 0.048 -6.771 7.207 -4.456 -0.336 -0.397 55.014 579.822 -4697.040 -0.204 0.151 0.017 0 0.36 -0.93 0.01
1 0.84 84 -0.038 -6.819 7.231 -4.730 -0.488 -0.061 55.014 579.822 -4697.040 -0.116 0.194 -0.011 0 0.36 -0.93 0.01
1 0.85 85 -0.014 -6.891 7.168 -4.913 -0.183 -0.031 -19.787 549.842 -4742.161 -0.139 0.261 0.047 0 0.36 -0.93 0.01
1 0.86 86 -0.086 -6.862 7.303 -3.998 -0.519 0.031 70.004 639.933 -4832.102 -0.066 0.227 -0.092 0 0.36 -0.93 0.01
1 0.87 87 -0.292 -6.824 7.240 -4.181 -0.519 0.916 -19.787 774.845 -4742.161 0.143 0.180 -0.038 0 0.36 -0.93 0.01
1 0.88 88 -0.077 -6.795 7.216 -4.334 -0.488 0.702 10.043 729.875 -4772.141 -0.073 0.147 -0.018 0 0.36 -0.93 0.01
1 0.89 89 -0.196 -6.757 7.231 -3.815 -1.129 0.305 10.043 729.875 -4772.141 0.049 0.104 -0.036 0 0.36 -0.93 0.01
1 0.90 90 -0.120 -6.905 7.135 -2.838 -1.404 0.458 10.043 699.894 -4622.089 -0.027 0.249 0.057 0 0.36 -0.93 0.01
1 0.91 91 -0.153 -6.876 7.116 -2.350 -1.251 0.397 10.043 699.894 -4622.089 0.008 0.218 0.073 0 0.36 -0.93 0.01
1 0.92 92 -0.172 -6.872 7.197 -3.448 -1.617 0.580 159.946 654.923 -4817.112 0.028 0.211 -0.010 0 0.37 -0.93 0.01
1 0.93 93 -0.177 -6.805 7.178 -4.242 -1.251 0.824 -49.768 594.812 -4682.050 0.034 0.140 0.006 0 0.37 -0.93 0.01
1 0.94 94 0.067 -6.685 7.207 -4.181 -1.038 1.343 -49.768 594.812 -4682.050 -0.209 0.017 -0.026 0 0.37 -0.93 0.01
1 0.95 95 -0.134 -6.886 7.116 -5.188 -2.350 1.556 55.014 699.894 -4817.112 -0.005 0.210 0.057 0 0.37 -0.93 0.01
1 0.96 96 -0.072 -6.761 7.245 -6.134 -1.556 0.793 55.014 699.894 -4817.112 -0.066 0.080 -0.077 0 0.37 -0.93 0.01
1 0.97 97 -0.081 -6.886 7.168 -5.585 -1.373 1.221 55.014 624.943 -4772.141 -0.055 0.199 -0.006 0 0.37 -0.93 0.01
1 0.98 98 -0.038 -6.824 7.116 -5.737 -2.319 1.068 55.014 624.943 -4772.141 -0.097 0.131 0.042 0 0.37 -0.93 0.01
1 0.99 99 -0.153 -6.819 7.245 -5.310 -2.380 1.495 55.014 729.875 -4772.141 0.020 0.120 -0.093 0 0.37 -0.93 0.01
1 1.00 100 -0.072 -6.948 7.145 -5.676 -2.289 1.343 70.004 714.884 -4832.102 -0.060 0.244 0.002 0 0.37 -0.93 0.01
1 1.01 101 -0.158 -6.876 7.159 -5.554 -2.777 1.160 70.004 714.884 -4832.102 0.027 0.167 -0.017 0 0.37 -0.93 0.01
1 1.02 102 -0.072 -6.742 7.293 -5.127 -2.472 1.617 -64.758 624.943 -4697.040 -0.056 0.023 -0.161 0 0.37 -0.93 0.01
1 1.03 103 -0.129 -6.862 7.154 -6.104 -3.601 2.014 -64.758 624.943 -4697.040 0.003 0.138 -0.026 0 0.37 -0.93 0.01
1 1.04 104 -0.072 -6.886 7.164 -6.287 -3.326 1.129 55.014 699.894 -4847.092 -0.052 0.156 -0.041 0 0.37 -0.93 0.01
1 1.05 105 -0.101 -6.766 7.087 -7.477 -2.899 0.854 55.014 699.894 -4847.092 -0.021 0.030 0.029 0 0.37 -0.93 0.01
1 1.06 106 -0.120 -6.939 7.054 -8.362 -3.540 1.129 -49.768 759.855 -4832.102 0.001 0.195 0.056 0 0.37 -0.93 0.01
1 1.07 107 -0.057 -6.876 7.068 -9.216 -4.364 0.977 -64.758 729.875 -4667.060 -0.058 0.124 0.034 0 0.37 -0.93 0.01
1 1.08 108 -0.062 -6.939 7.149 -9.155 -4.639 0.854 -64.758 729.875 -4667.060 -0.049 0.177 -0.056 0 0.37 -0.93 0.01
1 1.09 109 -0.163 -6.929 7.015 -9.338 -4.639 -0.275 -4.797 684.904 -4652.069 0.061 0.149 0.060 0 0.37 -0.93 0.01
1 1.10 110 0.034 -6.948 7.135 -9.522 -5.066 0.641 -4.797 684.904 -4652.069 -0.131 0.159 -0.069 0 0.37 -0.93 0.01
1 1.11 111 -0.105 -7.006 7.121 -10.010 -5.249 0.641 -4.797 594.812 -4757.151 0.014 0.206 -0.064 0 0.37 -0.93 0.01
1 1.12 112 -0.215 -6.824 7.054 -12.177 -4.761 1.587 -4.797 594.812 -4757.151 0.128 0.013 -0.008 0 0.37 -0.93 0.01
1 1.13 113 -0.187 -6.886 7.121 -12.878 -4.791 1.953 -4.797 639.933 -4682.050 0.103 0.063 -0.087 -0 0.38 -0.93 0.01
1 1.14 114 -0.153 -7.039 7.034 -11.932 -4.761 2.197 -79.898 684.904 -4832.102 0.072 0.203 -0.013 -0 0.38 -0.93 0.01
1 1.15 115 -0.081 -6.943 7.087 -11.139 -7.172 5.157 -79.898 684.904 -4832.102 0.003 0.096 -0.077 -0 0.38 -0.93 0.01
1 1.16 116 -0.182 -6.958 7.183 -7.477 -4.028 1.099 -4.797 864.937 -4787.131 0.107 0.091 -0.191 -0 0.38 -0.93 0.01
1 1.17 117 -0.105 -6.900 7.212 -7.904 -3.723 0.793 -4.797 864.937 -4787.131 0.032 0.028 -0.226 -0 0.38 -0.93 0.01
1 1.18 118 -0.187 -6.987 6.996 -10.681 -5.005 1.404 -79.898 684.904 -4652.069 0.118 0.105 -0.019 -0 0.38 -0.93 0.01
1 1.19 119 -0.115 -6.886 7.116 -10.834 -4.669 1.556 -79.898 684.904 -4652.069 0.049 -0.006 -0.149 -0 0.38 -0.92 0.01
1 1.20 120 -0.196 -6.934 7.145 -11.261 -4.242 1.099 -154.849 909.907 -4832.102 0.134 0.032 -0.188 -0 0.38 -0.92 0.01
1 1.21 121 -0.182 -6.752 7.130 -13.580 -3.235 0.641 -19.787 774.845 -4667.060 0.122 -0.161 -0.184 -0 0.38 -0.92 0.01
1 1.22 122 -0.091 -6.848 7.006 -14.862 -3.387 0.610 -19.787 774.845 -4667.060 0.034 -0.077 -0.071 -0 0.38 -0.92 0.01
1 1.23 123 0.752 -5.933 6.929 -16.693 -3.693 -2.747 -79.898 759.855 -4652.069 -0.807 -1.005 -0.008 -0 0.38 -0.92 0.01
1 1.24 124 -0.503 -7.403 6.924 -8.972 28.534 -35.309 -19.787 804.826 -4742.161 0.517 0.439 -0.029 -0 0.38 -0.92 0.01
1 1.25 125 -1.930 -7.054 6.369 -7.446 9.125 -12.024 25.034 789.835 -4652.069 1.943 0.081 0.517 -0 0.39 -0.92 0.01
1 1.26 126 -0.637 -6.757 7.437 -7.080 -8.759 -4.028 25.034 789.835 -4652.069 0.637 -0.224 -0.558 -0 0.39 -0.92 0.01
1 1.27 127 -0.192 -7.106 7.125 -9.857 -2.014 -9.399 -19.787 969.868 -4847.092 0.192 0.118 -0.255 -0 0.39 -0.92 0.01
1 1.28 128 0.005 -7.427 7.044 -11.322 -2.838 -7.721 10.043 849.946 -4772.141 0.005 0.429 -0.184 -0 0.39 -0.92 0.01
1 1.29 129 -0.177 -7.422 6.848 -8.789 -3.326 -6.226 10.043 849.946 -4772.141 0.197 0.413 0.002 -0 0.39 -0.92 0
1 1.30 130 -0.350 -7.259 6.824 -7.568 -4.181 -6.073 -19.787 999.849 -4817.112 0.380 0.241 0.015 -0 0.39 -0.92 0
1 1.31 131 -0.259 -7.226 6.733 -5.341 -3.998 -8.362 -169.839 774.845 -4697.040 0.308 0.192 0.091 -0 0.39 -0.92 0
1 1.32 132 -0.225 -7.140 6.896 -3.296 -4.150 -7.263 70.004 909.907 -4757.151 0.285 0.101 -0.077 -0 0.39 -0.92 0
1 1.33 133 -0.326 -7.121 6.771 -3.235 -4.181 -7.996 70.004 909.907 -4757.151 0.396 0.080 0.045 -0 0.39 -0.92 0
1 1.34 134 -0.201 -7.236 6.809 -4.639 -3.967 -7.568 -19.787 969.868 -4772.141 0.281 0.192 0.004 -0.01 0.39 -0.92 0
1 1.35 135 -0.144 -7.379 6.963 -5.554 -4.211 -7.141 -124.869 939.888 -4787.131 0.234 0.331 -0.154 -0.01 0.39 -0.92 0
1 1.36 136 -0.014 -7.518 6.900 -5.157 -4.395 -5.280 -124.869 939.888 -4787.131 0.115 0.465 -0.097 -0.01 0.39 -0.92 0
1 1.37 137 -0.014 -7.537 7.034 -4.364 -4.425 -4.700 -214.810 849.946 -4742.161 0.124 0.478 -0.237 -0.01 0.39 -0.92 0
1 1.38 138 -0.048 -7.470 6.819 -3.204 -4.120 -4.272 -124.869 834.806 -4787.131 0.166 0.406 -0.027 -0.01 0.39 -0.92 0
1 1.39 139 -0.077 -7.269 6.919 -1.556 -3.143 -2.319 -169.839 924.897 -4742.161 0.209 0.200 -0.133 -0.01 0.39 -0.92 0
1 1.40 140 -0.148 -7.288 6.943 -0.275 -2.655 -1.251 -169.839 924.897 -4742.161 0.285 0.219 -0.158 -0.01 0.39 -0.92 0
1 1.41 141 -0.081 -7.312 6.948 -0.549 -2.991 -0.214 -139.859 849.946 -4772.141 0.220 0.243 -0.162 -0.01 0.39 -0.92 0
1 1.42 142 -0.096 -7.149 6.948 -2.136 -2.716 0.214 -244.791 1044.819 -4667.060 0.235 0.080 -0.163 -0.01 0.39 -0.92 0
1 1.43 143 -0.139 -7.188 6.915 -2.411 -2.808 1.434 -244.791 1044.819 -4667.060 0.279 0.117 -0.131 -0.01 0.39 -0.92 0
1 1.44 144 -0.172 -7.350 6.824 -2.838 -3.082 2.319 -79.898 834.806 -4652.069 0.312 0.278 -0.042 -0.01 0.39 -0.92 0
1 1.45 145 -0.101 -7.279 6.886 -3.265 -3.571 2.991 -79.898 864.937 -4787.131 0.239 0.204 -0.106 -0.01 0.39 -0.92 0
1 1.46 146 -0.005 -7.307 6.829 -3.448 -2.533 2.808 -64.758 999.849 -4742.161 0.139 0.226 -0.056 -0.01 0.39 -0.92 0
1 1.47 147 -0.091 -7.178 6.675 -3.113 -2.899 3.143 -64.758 999.849 -4742.161 0.224 0.094 0.095 -0.01 0.39 -0.92 0
1 1.48 148 0.057 -7.250 6.781 -2.472 -2.441 3.723 -94.888 924.897 -4742.161 0.073 0.163 -0.014 -0.01 0.39 -0.92 0
1 1.49 149 -0.057 -7.212 6.738 -1.740 -2.655 3.052 -154.849 984.858 -4712.030 0.186 0.122 0.027 -0.01 0.39 -0.92 0
1 1.50 150 -0.110 -7.145 6.690 -1.434 -2.167 2.350 -154.849 984.858 -4712.030 0.237 0.053 0.074 -0.01 0.39 -0.92 0
1 1.51 151 -0.081 -7.068 6.627 -1.282 -1.617 0.977 -124.869 909.907 -4757.151 0.207 -0.024 0.135 -0.01 0.39 -0.92 0
1 1.52 152 -0.110 -7.279 6.704 -1.801 -1.526 1.007 25.034 834.806 -4787.131 0.235 0.186 0.057 -0.01 0.39 -0.92 0
1 1.53 153 0.010 -7.327 6.651 -3.418 -2.563 0.977 -4.797 1029.829 -4787.131 0.114 0.230 0.106 -0.01 0.39 -0.92 0
1 1.54 154 -0.005 -7.259 6.718 -3.784 -3.204 1.129 -4.797 1029.829 -4787.131 0.129 0.159 0.035 -0.01 0.39 -0.92 0
1 1.55 155 -0.086 -7.327 6.570 -4.944 -3.235 0.732 -139.859 849.946 -4667.060 0.212 0.222 0.179 -0.01 0.39 -0.92 0
1 1.56 156 -0.077 -7.370 6.541 -2.747 -3.632 0.702 -79.898 864.937 -4682.050 0.204 0.260 0.203 -0.01 0.39 -0.92 0
1 1.57 157 0.029 -7.259 6.656 -1.404 -3.662 1.495 -79.898 864.937 -4682.050 0.100 0.147 0.084 -0.01 0.4 -0.92 0
1 1.58 158 -0.019 -7.365 6.627 -2.045 -3.937 0.854 -184.830 1059.810 -4607.099 0.150 0.251 0.111 -0.01 0.4 -0.92 0
1 1.59 159 -0.038 -7.288 6.594 -2.716 -4.578 1.770 -244.791 999.849 -4877.073 0.171 0.172 0.143 -0.01 0.4 -0.92 0
1 1.60 160 0.062 -7.374 6.608 -3.418 -4.303 1.129 -154.849 1029.829 -4757.151 0.075 0.252 0.122 -0.01 0.4 -0.92 0
1 1.61 161 0.139 -7.303 6.656 -3.662 -3.754 0.763 -154.849 1029.829 -4757.151 0.001 0.176 0.070 -0.01 0.4 -0.92 0
1 1.62 162 0.048 -7.389 6.728 -3.723 -4.822 1.465 -259.781 909.907 -4757.151 0.094 0.259 -0.006 -0.01 0.4 -0.92 0.01
1 1.63 163 0.091 -7.379 6.738 -3.540 -4.547 1.221 -139.859 999.849 4901.957 0.054 0.245 -0.020 -0.01 0.4 -0.92 0.01
1 1.64 164 0.134 -7.374 6.675 -3.876 -4.242 0.366 -139.859 999.849 4901.957 0.014 0.237 0.038 -0.01 0.4 -0.92 0.01
1 1.65 165 0.268 -7.513 6.623 -3.448 -5.127 -0.275 -49.768 1029.829 -4682.050 -0.116 0.372 0.087 -0.01 0.4 -0.92 0.01
1 1.66 166 0.397 -7.523 6.556 -2.167 -5.127 -0.702 -154.849 939.888 -4577.118 -0.240 0.377 0.149 -0.01 0.4 -0.92 0.01
1 1.67 167 0.192 -7.508 6.723 -0.977 -4.761 -1.190 -154.849 939.888 -4577.118 -0.027 0.360 -0.022 -0.01 0.4 -0.92 0.01
1 1.68 168 0.043 -7.537 6.742 -1.221 -5.707 -1.862 -124.869 984.858 -4787.131 0.136 0.385 -0.045 -0.01 0.4 -0.92 0.01
1 1.69 169 0.029 -7.547 6.843 -3.479 -5.890 -1.648 25.034 909.907 -4652.069 0.157 0.393 -0.147 -0.01 0.4 -0.92 0.01
1 1.70 170 0.057 -7.432 6.790 -5.920 -5.737 -1.587 -259.781 1029.829 -4787.131 0.135 0.274 -0.099 -0.01 0.4 -0.92 0.01
1 1.71 171 0.163 -7.288 6.838 -8.240 -6.073 -1.007 -259.781 1029.829 -4787.131 0.037 0.124 -0.154 -0.01 0.4 -0.92 0.01
1 1.72 172 0.244 -7.365 6.829 -12.543 -4.669 -1.770 -124.869 909.907 -4787.131 -0.037 0.193 -0.153 -0.01 0.4 -0.92 0.01
1 1.73 173 0.249 -7.341 6.809 -16.174 -4.547 -1.343 -169.839 1074.800 -4697.040 -0.036 0.158 -0.146 -0.01 0.4 -0.92 0.01
1 1.74 174 0.268 -7.408 6.728 -19.379 -4.456 -0.671 -169.839 1074.800 -4697.040 -0.049 0.210 -0.081 -0.01 0.4 -0.92 0.01
1 1.75 175 0.273 -7.518 6.699 -20.813 -4.913 1.282 -259.781 939.888 -4682.050 -0.042 0.284 -0.092 -0.02 0.4 -0.91 0.01
1 1.76 176 0.311 -7.566 6.642 -19.989 -5.249 0.549 -124.869 984.858 -4607.099 -0.076 0.311 -0.057 -0.02 0.4 -0.91 0.01
1 1.77 177 0.441 -7.595 6.656 -17.212 -5.554 0.977 -49.768 1029.829 -4652.069 -0.200 0.321 -0.093 -0.02 0.41 -0.91 0.01
1 1.78 178 0.565 -7.628 6.613 -16.449 -5.432 0.977 -49.768 1029.829 -4652.069 -0.319 0.338 -0.069 -0.02 0.41 -0.91 0.01
1 1.79 179 0.541 -7.571 6.656 -17.120 -5.829 0.275 -214.810 999.849 -4697.040 -0.289 0.264 -0.130 -0.02 0.41 -0.91 0.01
1 1.80 180 0.546 -7.652 6.570 -18.127 -6.042 -0.183 -169.839 1239.842 -4622.089 -0.286 0.329 -0.063 -0.02 0.41 -0.91 0.01
1 1.81 181 0.718 -7.537 6.694 -18.707 -4.974 -2.014 -170.439 1246.738 -4616.842 -0.450 0.197 -0.207 -0.02 0.41 -0.91 0.01
1 1.82 182 0.632 -7.518 6.460 -17.395 -3.723 -3.967 -215.410 931.643 -4661.813 -0.354 0.159 0.006 -0.02 0.41 -0.91 0.01
1 1.83 183 0.464 -7.686 6.541 -16.998 -3.479 -6.836 -215.410 1126.666 -4871.826 -0.163 0.295 -0.113 -0.02 0.41 -0.91 0.01
1 1.84 184 0.503 -7.609 6.479 -17.334 -3.296 -9.430 -230.400 1066.705 -4676.803 -0.189 0.202 -0.069 -0.02 0.42 -0.91 0
1 1.85 185 0.407 -7.585 6.556 -16.876 -3.357 -10.834 -230.400 1066.705 -4676.803 -0.077 0.163 -0.164 -0.02 0.42 -0.91 0
1 1.86 186 -0.115 -8.174 6.489 -16.724 -5.341 -5.737 -125.468 1111.676 -4646.823 0.461 0.738 -0.115 -0.02 0.42 -0.91 0
1 1.87 187 0.426 -7.504 6.431 -13.916 -17.395 0.275 -245.390 1126.666 -4586.862 -0.073 0.051 -0.077 -0.02 0.42 -0.91 0
1 1.88 188 0.153 -7.930 6.268 -11.566 -22.461 5.646 -245.390 1126.666 -4586.862 0.208 0.462 0.068 -0.02 0.42 -0.91 0
1 1.89 189 0.795 -7.786 6.345 -8.881 -21.881 0.061 -155.449 1186.777 -4676.803 -0.418 0.308 -0.023 -0.02 0.42 -0.91 0
1 1.90 190 1.192 -7.470 6.192 -10.559 -11.139 -10.162 -80.348 1291.708 -4571.872 -0.760 -0.023 0.110 -0.03 0.42 -0.91 0
1 1.91 191 0.436 -7.963 6.196 -12.726 -8.301 -12.543 -170.439 1201.767 -4736.764 0.027 0.463 0.094 -0.03 0.42 -0.91 0
1 1.92 192 -0.943 -8.409 5.713 -8.545 -18.097 6.805 -170.439 1201.767 -4736.764 1.427 0.899 0.565 -0.03 0.42 -0.91 0
1 1.93 193 0.541 -7.336 6.268 0.885 -28.504 0.580 -140.458 1396.640 -4481.780 -0.054 -0.184 -0.003 -0.03 0.42 -0.91 0
1 1.94 194 0.646 -7.623 6.187 3.998 -27.618 4.761 -260.380 1186.777 -4526.751 -0.131 0.108 0.081 -0.03 0.42 -0.91 0
1 1.95 195 1.025 -7.384 6.149 1.862 -27.649 0.519 -260.380 1186.777 -4526.751 -0.480 -0.127 0.123 -0.03 0.42 -0.91 0.01
1 1.96 196 1.283 -7.561 5.971 -0.824 -25.177 -1.709 -335.481 1141.656 -4601.852 -0.707 0.054 0.302 -0.04 0.42 -0.91 0.01
1 1.97 197 1.427 -7.370 6.029 -4.700 -18.616 -7.111 -305.351 1036.725 -4676.803 -0.789 -0.137 0.238 -0.04 0.42 -0.91 0.01
1 1.98 198 1.288 -7.609 6.206 -7.324 -13.031 -7.843 -380.452 1216.757 -4646.823 -0.618 0.099 0.054 -0.04 0.42 -0.91 0.01
1 1.99 199 0.656 -7.671 5.775 -9.247 -13.031 -1.434 -380.452 1216.757 -4646.823 0.040 0.156 0.476 -0.04 0.42 -0.9 0.01
1 2.00 200 0.402 -7.719 5.555 -8.087 -18.677 7.050 -350.472 1081.695 -4586.862 0.310 0.195 0.684 -0.04 0.42 -0.9 0.01
1 2.01 201 1.245 -7.303 5.938 -6.836 -22.400 5.493 -395.442 1201.767 -4661.813 -0.522 -0.232 0.287 -0.04 0.42 -0.9 0.01
1 2.02 202 1.801 -7.336 6.005 -11.414 -16.968 -0.946 -395.442 1201.767 -4661.813 -1.060 -0.205 0.210 -0.05 0.43 -0.9 0.01
1 2.03 203 1.116 -7.628 5.742 -18.219 -13.825 7.996 -260.380 1186.777 -4571.872 -0.356 0.077 0.459 -0.05 0.43 -0.9 0.01
1 2.04 204 1.279 -7.528 5.497 -22.797 -12.299 13.001 -380.452 1261.728 -4676.803 -0.497 -0.060 0.655 -0.05 0.43 -0.9 0.01
1 2.05 205 0.953 -8.054 5.344 -22.919 -10.376 7.904 -575.475 1246.738 -4616.842 -0.165 0.443 0.779 -0.05 0.43 -0.9 0.01
1 2.06 206 1.173 -7.303 5.583 -21.576 -15.900 11.719 -575.175 1253.633 -4611.146 -0.382 -0.332 0.509 -0.05 0.43 -0.9 0.01
1 2.07 207 1.192 -8.193 5.660 -16.846 -12.726 5.188 -395.143 1133.711 -4581.166 -0.393 0.539 0.407 -0.05 0.43 -0.9 0.01
1 2.08 208 1.638 -7.762 5.612 -19.592 -10.956 -4.669 -470.244 1253.633 -4506.214 -0.830 0.089 0.430 -0.05 0.43 -0.9 0.01
1 2.09 209 1.173 -7.489 5.311 -23.499 -7.813 5.066 -470.244 1253.633 -4506.214 -0.349 -0.202 0.707 -0.05 0.44 -0.9 0.01
1 2.10 210 1.456 -8.447 5.440 -18.738 -3.540 -6.317 -410.133 1268.624 -4521.205 -0.633 0.731 0.546 -0.05 0.44 -0.9 0.01
1 2.11 211 0.895 -8.002 5.296 -21.393 -4.608 0.916 -410.133 1268.624 -4521.205 -0.059 0.268 0.664 -0.05 0.44 -0.9 0.01
1 2.12 212 1.700 -8.289 5.349 -11.871 3.021 -23.132 -320.191 1283.614 -4656.117 -0.842 0.518 0.559 -0.05 0.44 -0.9 0.01
1 2.13 213 1.264 -8.078 5.416 -13.306 7.385 -16.144 -320.191 1283.614 -4656.117 -0.378 0.298 0.476 -0.05 0.44 -0.89 0.01
1 2.14 214 1.216 -8.088 5.267 -11.475 9.399 -11.261 -485.234 1538.598 -4521.205 -0.316 0.296 0.607 -0.05 0.44 -0.89 0.01
1 2.15 215 1.077 -8.275 5.272 -9.979 9.613 -8.148 -485.234 1298.604 -4341.172 -0.171 0.472 0.587 -0.05 0.45 -0.89 0.01
1 2.16 216 1.255 -8.232 5.162 -6.836 7.507 -5.829 -485.234 1298.604 -4341.172 -0.345 0.420 0.685 -0.05 0.45 -0.89 0
1 2.17 217 1.231 -8.174 5.258 -6.012 5.493 -3.448 -515.214 1298.604 -4566.175 -0.319 0.355 0.578 -0.05 0.45 -0.89 0
1 2.18 218 1.341 -8.141 5.287 -6.805 6.928 -0.488 -515.214 1298.604 -4566.175 -0.427 0.314 0.540 -0.05 0.45 -0.89 0
1 2.19 219 1.350 -7.968 5.210 -5.859 11.017 4.211 -500.224 1403.686 -4401.133 -0.445 0.127 0.598 -0.05 0.45 -0.89 0
1 2.20 220 1.283 -7.887 5.306 -4.272 12.573 5.432 -500.224 1403.686 -4401.133 -0.390 0.039 0.495 -0.05 0.45 -0.89 0
1 2.21 221 1.053 -7.848 5.291 -1.465 13.214 7.294 -410.133 1418.676 -4521.205 -0.175 -0.004 0.505 -0.05 0.45 -0.89 0
1 2.22 222 1.034 -8.054 5.263 -0.031 13.062 8.209 -455.104 1463.646 -4491.224 -0.174 0.199 0.533 -0.05 0.45 -0.89 0
1 2.23 223 0.891 -7.815 5.306 0.427 12.634 10.132 -455.104 1463.646 -4491.224 -0.051 -0.043 0.490 -0.05 0.45 -0.89 0
1 2.24 224 0.637 -8.117 5.138 8.759 6.470 4.120 -395.143 1208.663 -4581.166 0.181 0.258 0.659 -0.05 0.45 -0.89 0
1 2.25 225 0.781 -7.949 5.229 10.040 8.270 4.211 -395.143 1208.663 -4581.166 0.023 0.093 0.575 -0.05 0.45 -0.89 0
1 2.26 226 0.761 -7.987 5.449 12.421 8.362 4.608 -380.152 1298.604 -4521.205 0.030 0.138 0.365 -0.05 0.45 -0.89 0
1 2.27 227 0.838 -8.136 5.579 10.742 9.094 5.280 -515.214 1298.604 -4461.094 -0.072 0.305 0.264 -0.04 0.45 -0.89 0
1 2.28 228 0.915 -8.165 5.646 10.162 10.132 6.897 -350.172 1358.715 -4506.214 -0.164 0.342 0.210 -0.04 0.45 -0.89 0
1 2.29 229 0.852 -8.208 5.646 11.566 10.162 8.270 -335.182 1568.578 -4566.175 -0.118 0.393 0.222 -0.04 0.45 -0.89 0
1 2.30 230 0.886 -8.121 5.617 12.878 9.338 10.620 -335.182 1568.578 -4566.175 -0.170 0.316 0.265 -0.04 0.45 -0.89 0
1 2.31 231 0.781 -7.959 5.684 16.266 10.864 12.573 -260.230 1298.604 -4566.175 -0.085 0.164 0.215 -0.04 0.44 -0.89 0
1 2.32 232 0.723 -7.930 5.780 17.792 11.566 12.787 -260.230 1298.604 -4566.175 -0.050 0.147 0.138 -0.04 0.44 -0.9 0
1 2.33 233 0.613 -7.863 5.765 16.296 11.963 12.909 -335.182 1268.624 -4596.156 0.036 0.095 0.174 -0.04 0.44 -0.9 0
1 2.34 234 0.555 -7.848 5.794 14.282 13.611 12.329 -380.152 1343.575 -4566.175 0.042 0.108 0.187 -0.04 0.44 -0.9 0
1 2.35 235 0.460 -7.930 5.861 12.573 13.214 11.688 -380.152 1223.653 -4416.123 0.111 0.202 0.138 -0.03 0.44 -0.9 0
1 2.36 236 0.541 -8.078 5.981 11.017 13.062 11.719 -260.230 1343.575 -4641.126 0.004 0.360 0.033 -0.03 0.44 -0.9 0
1 2.37 237 0.474 -8.150 6.072 11.414 12.665 11.139 -260.230 1343.575 -4641.126 0.046 0.441 -0.044 -0.03 0.44 -0.9 0
1 2.38 238 0.493 -8.342 5.952 12.909 12.482 9.705 -260.230 1268.624 -4491.224 0.003 0.642 0.090 -0.03 0.44 -0.9 0
1 2.39 239 0.493 -8.246 6.182 16.785 12.543 7.874 -260.230 1268.624 -4491.224 -0.019 0.558 -0.124 -0.03 0.44 -0.9 0.01
1 2.40 240 0.551 -8.126 6.292 17.670 12.543 6.042 -215.110 1253.633 -4686.097 -0.098 0.452 -0.214 -0.03 0.43 -0.9 0.01
1 2.41 241 0.599 -8.035 6.254 17.395 11.841 5.219 -230.100 1118.571 -4491.224 -0.182 0.393 -0.133 -0.03 0.43 -0.9 0
1 2.42 242 0.555 -7.983 6.326 15.198 11.200 5.157 -320.191 1163.692 -4611.146 -0.154 0.357 -0.184 -0.03 0.43 -0.9 0
1 2.43 243 0.699 -7.815 6.330 14.099 10.407 4.486 -245.240 1328.584 -4581.166 -0.312 0.203 -0.170 -0.02 0.43 -0.9 0
1 2.44 244 0.709 -7.633 6.374 12.085 10.010 5.280 -245.240 1328.584 -4581.166 -0.333 0.035 -0.196 -0.02 0.43 -0.9 0
1 2.45 245 0.723 -7.643 6.450 9.277 9.857 4.578 -230.100 1073.601 -4641.126 -0.360 0.056 -0.257 -0.02 0.43 -0.9 0
1 2.46 246 0.761 -7.576 6.168 4.974 10.498 3.784 -230.100 1073.601 -4641.126 -0.411 -0.001 0.038 -0.02 0.43 -0.9 0
1 2.47 247 0.670 -7.753 6.120 3.296 11.383 2.289 -245.240 1163.692 -4476.084 -0.331 0.182 0.094 -0.02 0.43 -0.9 0
1 2.48 248 0.723 -7.738 6.244 1.953 13.428 0.214 -245.240 1058.610 -4476.084 -0.405 0.174 -0.021 -0.02 0.43 -0.9 0
1 2.49 249 0.838 -7.887 6.302 1.892 14.313 -0.885 -155.749 1230.398 -4635.880 -0.530 0.325 -0.075 -0.02 0.43 -0.9 0
1 2.50 250 0.848 -7.920 6.517 3.693 17.242 -3.021 -50.817 1125.467 -4635.880 -0.547 0.363 -0.286 -0.02 0.43 -0.9 0
1 2.51 251 0.733 -8.150 6.316 3.571 17.914 -3.540 -50.817 1125.467 -4635.880 -0.440 0.597 -0.079 -0.02 0.43 -0.9 0
1 2.52 252 0.637 -8.241 6.206 3.784 17.487 -4.303 8.994 1290.359 -4650.870 -0.354 0.692 0.036 0.02 -0.43 0.9 0
1 2.53 253 0.407 -8.284 6.201 7.751 17.273 -4.547 8.994 1290.359 -4650.870 -0.133 0.738 0.045 0.01 -0.43 0.9 0
1 2.54 254 0.249 -8.150 6.259 11.261 16.602 -5.371 -140.758 1260.379 -4500.818 0.016 0.609 -0.005 0.01 -0.43 0.91 0
1 2.55 255 0.268 -8.117 6.192 13.397 16.571 -5.768 -65.807 1170.438 -4545.938 -0.013 0.585 0.073 0.01 -0.42 0.91 0
1 2.56 256 0.110 -7.877 6.134 15.289 15.991 -5.615 -20.836 1215.408 -4500.818 0.127 0.371 0.162 0.01 -0.42 0.91 0.01
1 2.57 257 0.316 -7.772 6.244 15.167 14.282 -4.150 23.984 1350.470 -4590.909 -0.089 0.280 0.069 0.01 -0.42 0.91 0.01
1 2.58 258 0.220 -7.801 6.220 12.970 13.428 -3.204 23.984 1350.470 -4590.909 -0.001 0.322 0.110 0.01 -0.42 0.91 0.01
1 2.59 259 0.225 -7.853 6.048 10.986 13.489 -2.686 -5.846 1125.467 -4635.880 -0.015 0.387 0.296 0.01 -0.42 0.91 0.01
1 2.60 260 0.153 -8.088 6.134 11.749 14.740 -3.448 -5.846 1125.467 -4635.880 0.047 0.632 0.223 0.01 -0.42 0.91 0.01
1 2.61 261 0.168 -8.102 6.072 12.604 15.503 -4.028 -20.836 1170.438 -4650.870 0.022 0.656 0.297 0.01 -0.42 0.91 0.01
1 2.62 262 0.105 -8.179 6.192 11.810 15.930 -4.456 8.994 1170.438 -4575.919 0.074 0.744 0.190 0.01 -0.42 0.91 0.01
1 2.63 263 -0.029 -8.150 6.316 9.949 14.526 -2.960 -20.836 915.454 -4605.899 0.187 0.734 0.088 0 -0.42 0.91 0.01
1 2.64 264 -0.168 -7.997 6.254 6.714 12.817 -3.143 -20.836 945.434 -4605.899 0.315 0.588 0.159 0 -0.42 0.91 0.01
1 2.65 265 -0.326 -8.131 6.417 2.411 12.421 -4.486 -20.836 945.434 -4605.899 0.462 0.726 0.001 0 -0.42 0.91 0.01
1 2.66 266 -0.426 -7.973 6.603 -3.906 11.017 -7.324 -20.836 1215.408 -4650.870 0.554 0.568 -0.185 0 -0.42 0.91 0.01
1 2.67 267 -0.637 -8.050 6.843 -10.864 9.979 -9.888 -20.836 1215.408 -4650.870 0.759 0.639 -0.432 -0 -0.42 0.91 0.02
1 2.68 268 -0.733 -8.203 6.824 -14.435 4.730 -12.299 8.994 1170.438 -4605.899 0.853 0.781 -0.425 -0 -0.42 0.91 0.02
1 2.69 269 -0.972 -8.394 6.685 -10.468 -0.244 -13.214 8.994 1065.356 -4545.938 1.094 0.959 -0.302 -0 -0.42 0.91 0.02
1 2.70 270 -0.876 -8.471 6.647 -1.221 -4.730 -13.458 -80.797 1125.467 -4590.909 1.018 1.019 -0.283 -0 -0.42 0.91 0.02
1 2.71 271 -0.895 -8.332 6.738 1.099 -6.012 -13.428 23.984 1050.366 -4665.860 1.058 0.882 -0.373 0 -0.42 0.91 0.02
1 2.72 272 -0.613 -8.294 6.527 6.409 -7.416 -13.336 23.984 1050.366 -4665.860 0.790 0.847 -0.159 0 -0.42 0.91 0.02
1 2.73 273 -0.326 -8.370 6.479 10.101 -8.545 -12.207 -50.817 1005.395 -4635.880 0.519 0.929 -0.105 0 -0.42 0.91 0.02
1 2.74 274 -0.043 -8.265 6.292 14.252 -9.674 -11.200 -50.817 1005.395 -4635.880 0.254 0.834 0.093 0 -0.42 0.91 0.02
1 2.75 275 0.393 -8.193 6.268 18.738 -10.376 -7.965 -140.758 990.405 -4575.919 -0.162 0.775 0.132 0 -0.42 0.91 0.02
1 2.76 276 0.488 -7.978 6.402 21.393 -10.345 -6.714 -65.807 1140.457 -4680.851 -0.238 0.576 0.015 0 -0.42 0.91 0.02
1 2.77 277 0.479 -7.662 6.512 20.691 -10.223 -4.150 -65.807 1140.457 -4680.851 -0.209 0.279 -0.074 0.01 -0.41 0.91 0.02
1 2.78 278 0.407 -7.719 6.580 16.846 -6.592 -3.296 -95.788 1170.438 -4650.870 -0.106 0.376 -0.097 0.01 -0.41 0.91 0.02
1 2.79 279 0.570 -8.088 6.436 13.763 -4.456 -2.594 -95.788 1170.438 -4650.870 -0.258 0.761 0.065 0.01 -0.41 0.91 0.02
1 2.80 280 0.608 -8.083 6.536 13.275 -4.486 -0.854 -50.817 1005.395 -4635.880 -0.288 0.769 -0.022 0.01 -0.41 0.91 0.02
1 2.81 281 0.713 -8.141 6.618 14.618 -3.937 -0.519 -50.817 1005.395 -4635.880 -0.386 0.838 -0.090 0.01 -0.41 0.91 0.02
1 2.82 282 0.752 -8.150 6.829 16.724 -4.242 -0.549 -125.768 1050.366 -4635.880 -0.418 0.861 -0.286 0.01 -0.41 0.91 0.02
1 2.83 283 0.737 -8.160 7.461 18.707 -4.608 2.686 -80.797 1050.366 -4635.880 -0.396 0.888 -0.900 0.01 -0.41 0.91 0.02
1 2.84 284 0.809 -8.437 7.863 15.472 -5.066 5.280 -80.797 1050.366 -4635.880 -0.465 1.186 -1.280 0.01 -0.41 0.91 0.02
1 2.85 285 0.963 -9.041 8.150 7.813 -2.594 12.451 -5.846 1050.366 -4665.860 -0.624 1.819 -1.535 0.01 -0.4 0.91 0.02
1 2.86 286 1.178 -9.204 8.074 10.315 0.275 18.036 -5.846 1050.366 -4665.860 -0.852 1.990 -1.448 0.01 -0.4 0.92 0.02
1 2.87 287 1.168 -9.180 7.983 21.027 5.188 24.780 8.994 1020.385 -4680.851 -0.866 1.979 -1.342 0.01 -0.4 0.92 0.02
1 2.88 288 0.843 -8.821 7.815 33.753 8.545 32.318 8.994 1020.385 -4680.851 -0.576 1.645 -1.146 0.01 -0.4 0.92 0.02
1 2.89 289 0.876 -7.877 7.757 37.903 12.543 35.187 -95.788 945.434 -4680.851 -0.655 0.738 -1.048 0.01 -0.4 0.92 0.02
1 2.90 290 2.648 -6.072 8.035 25.177 39.795 12.054 -80.797 930.444 -4740.812 -2.479 -1.030 -1.284 0 -0.39 0.92 0.01
1 2.91 291 2.457 -5.028 7.432 13.306 57.984 -4.547 -80.797 930.444 -4740.812 -2.325 -2.038 -0.642 0 -0.39 0.92 0.01
1 2.92 292 0.675 -5.871 7.279 6.348 77.362 -2.716 23.085 935.990 -4737.064 -0.639 -1.157 -0.448 -0.01 -0.39 0.92 0.02
1 2.93 293 -0.206 -6.105 6.838 4.181 79.041 6.012 23.085 935.990 -4737.064 0.164 -0.910 0.005 -0.01 -0.39 0.92 0.02
1 2.94 294 0.359 -5.387 7.461 -26.245 44.464 12.573 -66.856 755.958 -4602.152 -0.478 -1.633 -0.623 -0.02 -0.39 0.92 0.02
1 2.95 295 0.388 -4.956 7.226 -40.985 36.621 17.548 -66.856 755.958 -4602.152 -0.566 -2.091 -0.418 -0.02 -0.39 0.92 0.02
1 2.96 296 0.311 -5.248 7.054 -53.620 39.276 15.106 217.958 861.039 -4557.181 -0.545 -1.843 -0.293 -0.02 -0.39 0.92 0.02
1 2.97 297 0.163 -4.444 6.474 -51.026 37.048 9.613 157.997 876.029 -4542.191 -0.446 -2.698 0.230 -0.03 -0.4 0.92 0.02
1 2.98 298 -0.038 -3.951 6.062 -36.957 34.332 -5.463 157.997 876.029 -4542.191 -0.294 -3.246 0.581 -0.03 -0.4 0.92 0.02
1 2.99 299 -0.852 -3.582 5.655 -22.064 31.860 -11.169 113.026 950.980 -4497.070 0.487 -3.655 0.943 -0.03 -0.4 0.91 0.02
1 3.00 300 -2.428 -4.319 5.842 -13.702 25.330 -22.156 263.079 921.000 -4722.074 2.030 -2.958 0.710 -0.03 -0.41 0.91 0.03
1 3.01 301 -2.447 -4.042 6.527 -21.393 15.564 -23.956 338.030 995.951 -4572.171 2.053 -3.251 0.008 -0.03 -0.41 0.91 0.03
1 3.02 302 -3.050 -5.124 7.188 -46.784 14.404 -32.623 338.030 995.951 -4572.171 2.672 -2.196 -0.682 -0.04 -0.41 0.91 0.03
1 3.03 303 -2.931 -6.014 7.887 -76.813 14.740 -31.921 172.987 1056.062 -4482.080 2.565 -1.355 -1.437 -0.04 -0.41 0.91 0.03
1 3.04 304 -1.403 -8.528 7.312 -89.325 4.150 -26.489 263.079 995.951 -4497.070 1.042 1.090 -0.942 -0.04 -0.42 0.91 0.04
1 3.05 305 -0.110 -9.390 6.493 -69.580 -1.129 -18.372 263.079 995.951 -4497.070 -0.225 1.864 -0.225 -0.04 -0.42 0.9 0.04
1 3.06 306 0.158 -10.271 5.799 -35.156 6.104 -19.898 172.987 1205.964 -4482.080 -0.470 2.673 0.383 -0.04 -0.43 0.9 0.04
1 3.07 307 -1.642 -8.586 5.895 32.288 -1.801 -0.793 247.039 1286.162 -4553.134 1.350 0.948 0.238 -0.04 -0.43 0.9 0.04
1 3.08 308 -1.288 -7.173 6.546 40.711 1.831 -7.965 277.020 1286.162 -4478.183 0.994 -0.432 -0.372 -0.04 -0.43 0.9 0.04
1 3.09 309 -1.379 -6.709 6.656 33.234 1.221 -13.580 277.020 1286.162 -4478.183 1.087 -0.856 -0.433 -0.04 -0.43 0.9 0.04
1 3.10 310 -1.384 -6.455 6.378 16.235 0.549 -20.691 321.990 1286.162 -4583.114 1.100 -1.078 -0.117 -0.04 -0.42 0.9 0.04
1 3.11 311 -1.144 -6.623 5.938 7.294 -1.587 -25.787 351.971 1211.061 -4583.114 0.877 -0.894 0.345 -0.03 -0.42 0.9 0.04
1 3.12 312 -1.101 -7.125 5.325 14.618 -6.348 -29.541 351.971 1211.061 -4583.114 0.860 -0.381 0.971 -0.03 -0.42 0.91 0.04
1 3.13 313 -1.240 -7.264 4.798 22.888 -11.047 -32.105 351.971 1241.191 -4508.163 1.031 -0.231 1.512 -0.03 -0.42 0.91 0.05
1 3.14 314 -1.235 -7.125 4.496 44.251 -14.191 -38.086 321.990 1091.139 -4583.114 1.121 -0.318 1.877 -0.03 -0.42 0.91 0.05
1 3.15 315 -1.173 -6.953 4.530 50.903 -16.174 -39.154 217.059 1136.110 -4553.134 1.118 -0.443 1.899 -0.03 -0.41 0.91 0.05
1 3.16 316 -1.422 -6.781 4.468 60.517 -21.118 -43.793 217.059 1136.110 -4553.134 1.433 -0.557 2.029 -0.02 -0.41 0.91 0.05
1 3.17 317 -1.489 -6.953 4.449 53.955 -26.642 -47.608 351.971 1136.110 -4508.163 1.573 -0.323 2.116 -0.02 -0.41 0.91 0.06
1 3.18 318 -1.523 -7.283 4.324 42.175 -31.159 -50.934 277.020 1091.139 -4583.114 1.689 0.061 2.298 -0.02 -0.4 0.91 0.06
1 3.19 319 -1.355 -7.839 3.917 40.558 -33.600 -55.512 277.020 1091.139 -4583.114 1.611 0.661 2.750 -0.01 -0.4 0.91 0.06
1 3.20 320 -1.393 -7.896 4.496 46.417 -37.781 -53.620 141.958 1016.188 -4583.114 1.732 0.752 2.203 -0.01 -0.4 0.92 0.07
1 3.21 321 -1.480 -7.825 5.636 44.830 -43.823 -46.051 81.997 926.097 -4568.124 1.903 0.718 1.098 -0.01 -0.4 0.92 0.07
1 3.22 322 -1.676 -7.240 7.427 1.617 -64.484 -18.036 247.039 941.087 -4628.235 2.254 0.202 -0.632 0 -0.39 0.92 0.07
1 3.23 323 0.900 -6.690 12.608 -41.779 -65.399 -21.881 247.039 941.087 -4628.235 -0.252 -0.357 -5.829 0.01 -0.39 0.92 0.07
1 3.24 324 0.900 -8.179 14.179 -107.331 -55.969 16.754 -83.496 871.832 -4654.168 -0.174 1.079 -7.463 0.01 -0.4 0.92 0.07
1 3.25 325 3.443 -10.482 12.091 -198.182 -52.582 35.339 21.286 976.764 -4684.148 -2.684 3.243 -5.529 0.01 -0.41 0.91 0.07
1 3.26 326 4.822 -12.029 5.933 -135.560 -2.899 2.808 21.286 976.764 -4684.148 -4.054 4.598 0.409 0.01 -0.42 0.91 0.06
1 3.27 327 4.243 -10.798 2.519 14.282 -19.379 4.974 -53.515 1066.855 -4504.116 -3.472 3.264 3.701 0.01 -0.43 0.9 0.06
1 3.28 328 0.804 -9.333 4.247 95.581 -11.688 -0.061 -173.437 1231.748 -4459.145 -0.020 1.792 1.963 0.02 -0.43 0.9 0.06
1 3.29 329 -2.677 -7.159 7.307 125.824 -46.173 18.066 -173.437 1186.777 -4489.125 3.483 -0.190 -0.874 0.02 -0.41 0.91 0.06
1 3.30 330 -1.456 -5.469 8.591 74.768 -39.826 -1.953 -173.437 1186.777 -4489.125 2.279 -1.765 -2.030 0.02 -0.41 0.91 0.06
1 3.31 331 -0.790 -4.516 9.338 19.287 -27.771 -5.890 -128.466 1216.757 -4579.067 1.639 -2.643 -2.699 0.02 -0.4 0.91 0.05
1 3.32 332 -3.740 -6.273 8.390 -12.848 -39.642 14.832 -293.509 961.773 -4594.057 4.602 -0.857 -1.722 0.02 -0.4 0.92 0.05
1 3.33 333 -2.806 -6.752 8.107 -37.384 -39.429 17.456 -293.509 961.773 -4594.057 3.692 -0.400 -1.466 0.03 -0.4 0.91 0.05
1 3.34 334 0.536 -7.863 7.623 -37.995 -29.114 11.322 -188.427 1066.855 -4654.168 0.371 0.670 -1.029 0.03 -0.4 0.91 0.05
1 3.35 335 1.925 -8.260 7.298 -24.719 -25.055 10.071 -308.499 901.812 -4579.067 -1.000 1.027 -0.751 0.03 -0.41 0.91 0.05
1 3.36 336 2.117 -7.815 7.288 -5.035 -18.646 4.456 -248.538 1156.796 -4414.174 -1.163 0.539 -0.793 0.03 -0.41 0.91 0.04
1 3.37 337 1.992 -7.604 7.192 -0.275 -14.954 0.671 -248.538 1156.796 -4414.174 -1.025 0.326 -0.701 0.03 -0.41 0.91 0.04
1 3.38 338 -1.068 -7.116 6.512 18.463 -48.157 26.703 -173.437 1006.744 -4489.125 2.046 -0.153 -0.012 0.04 -0.41 0.91 0.04
1 3.39 339 1.398 -7.532 7.164 4.395 -39.032 9.979 -398.440 1111.826 -4564.077 -0.396 0.279 -0.651 0.04 -0.41 0.91 0.04
1 3.40 340 2.322 -7.791 7.250 11.383 -29.572 2.319 -398.440 1111.826 -4564.077 -1.294 0.545 -0.732 0.04 -0.41 0.91 0.04
1 3.41 341 2.093 -7.628 6.967 30.243 -8.392 -10.986 -338.479 1096.835 -4399.184 -1.032 0.401 -0.434 0.04 -0.41 0.91 0.04
1 3.42 342 0.771 -7.006 6.905 32.929 -14.465 -5.219 -413.431 1066.855 -4504.116 0.319 -0.189 -0.341 0.04 -0.4 0.91 0.04
1 3.43 343 -0.029 -6.594 6.929 30.701 -23.224 -0.488 -413.431 1066.855 -4504.116 1.143 -0.564 -0.329 0.05 -0.4 0.91 0.04
1 3.44 344 1.015 -6.125 7.408 28.107 -26.947 -7.324 -383.450 1066.855 -4444.155 0.141 -0.963 -0.739 0.05 -0.4 0.92 0.04
1 3.45 345 0.302 -6.292 6.642 23.865 -31.586 2.594 -488.532 977.663 -4398.435 0.886 -0.760 0.059 0.05 -0.39 0.92 0.04
1 3.46 346 1.010 -6.407 6.833 20.294 -34.119 -1.343 -428.421 887.722 -4413.425 0.206 -0.618 -0.110 0.05 -0.39 0.92 0.03
1 3.47 347 0.958 -6.517 6.934 19.043 -36.011 -0.458 -428.421 887.722 -4413.425 0.295 -0.482 -0.190 0.06 -0.39 0.92 0.03
1 3.48 348 1.963 -6.168 6.934 15.991 -31.433 -5.127 -473.542 1082.595 -4533.497 -0.675 -0.808 -0.173 0.06 -0.39 0.92 0.03
1 3.49 349 1.772 -6.522 6.618 9.522 -33.936 -1.526 -563.483 902.712 -4503.366 -0.447 -0.431 0.160 0.06 -0.39 0.92 0.03
1 3.50 350 2.126 -6.637 6.560 7.782 -25.360 -0.183 -563.483 902.712 -4503.366 -0.764 -0.302 0.225 0.06 -0.39 0.92 0.03
1 3.51 351 2.121 -5.746 6.417 5.310 -31.250 7.690 -488.532 947.683 -4503.366 -0.692 -1.170 0.378 0.07 -0.39 0.92 0.03
1 3.52 352 2.308 -5.502 6.436 -1.892 -25.757 4.334 -713.535 797.630 -4443.405 -0.847 -1.407 0.359 0.07 -0.39 0.92 0.03
1 3.53 353 2.021 -5.497 6.512 -5.066 -26.245 7.996 -668.564 872.731 -4398.435 -0.533 -1.412 0.276 0.07 -0.39 0.92 0.03
1 3.54 354 2.136 -5.545 6.196 -10.010 -23.621 7.263 -668.564 872.731 -4398.435 -0.628 -1.370 0.582 0.07 -0.39 0.92 0.03
1 3.55 355 1.949 -6.081 6.043 -9.583 -20.203 11.169 -593.463 872.731 -4398.435 -0.424 -0.845 0.720 0.07 -0.39 0.92 0.02
1 3.56 356 2.466 -5.631 6.469 -8.911 -24.902 10.803 -593.463 677.708 -4548.487 -0.920 -1.302 0.282 0.08 -0.39 0.92 0.02
1 3.57 357 2.394 -5.809 6.125 -18.463 -21.393 13.092 -593.463 677.708 -4548.487 -0.839 -1.136 0.613 0.08 -0.39 0.92 0.02
1 3.58 358 2.433 -6.101 6.249 -27.313 -17.731 15.076 -713.535 947.683 -4503.366 -0.848 -0.881 0.443 0.08 -0.39 0.92 0.02
1 3.59 359 3.084 -6.263 6.527 -28.442 -12.817 6.805 -743.516 947.683 -4443.405 -1.490 -0.748 0.132 0.08 -0.39 0.92 0.02
1 3.60 360 1.887 -6.891 5.904 -32.532 -9.399 15.045 -728.525 842.601 -4383.444 -0.284 -0.150 0.721 0.08 -0.39 0.92 0.02
1 3.61 361 2.916 -6.570 6.187 -32.929 -1.740 5.280 -728.525 842.601 -4383.444 -1.313 -0.508 0.399 0.08 -0.4 0.91 0.02
1 3.62 362 2.260 -7.216 6.062 -32.837 3.265 3.418 -713.535 872.731 -4548.487 -0.651 0.108 0.489 0.08 -0.4 0.91 0.02
1 3.63 363 2.140 -6.709 6.354 -26.520 -8.087 12.817 -713.535 1022.634 -4323.483 -0.534 -0.433 0.161 0.08 -0.4 0.91 0.02
1 3.64 364 2.653 -7.221 6.307 -25.635 -1.495 8.057 -713.535 1022.634 -4323.483 -1.057 0.046 0.175 0.08 -0.4 0.91 0.02
1 3.65 365 2.806 -7.427 6.278 -25.513 7.324 -2.045 -503.522 1007.644 -4533.497 -1.210 0.228 0.177 0.08 -0.4 0.91 0.02
1 3.66 366 1.901 -7.418 5.885 -20.935 2.960 5.768 -698.545 1037.624 -4338.474 -0.303 0.171 0.516 0.08 -0.41 0.91 0.02
1 3.67 367 2.308 -7.432 5.981 -11.627 2.563 -1.404 -653.424 1082.595 -4383.444 -0.714 0.165 0.398 0.08 -0.41 0.91 0.02
1 3.68 368 2.021 -7.097 6.005 -9.766 4.761 3.784 -653.424 1082.595 -4383.444 -0.424 -0.180 0.362 0.08 -0.41 0.91 0.02
1 3.69 369 2.169 -6.805 6.072 -9.613 10.712 -3.052 -668.564 1097.735 -4443.405 -0.578 -0.482 0.285 0.08 -0.41 0.91 0.02
1 3.70 370 1.652 -7.092 6.168 -13.214 14.648 -4.272 -653.424 1187.676 -4383.444 -0.063 -0.201 0.183 0.08 -0.41 0.91 0.02
1 3.71 371 1.566 -7.130 6.010 -14.587 13.886 -2.411 -653.424 1187.676 -4383.444 0.017 -0.173 0.330 0.08 -0.41 0.91 0.02
1 3.72 372 1.676 -7.269 5.967 -14.648 14.710 1.312 -698.545 1007.644 -4383.444 -0.102 -0.047 0.362 0.08 -0.41 0.91 0.02
1 3.73 373 1.523 -7.470 5.890 -14.862 14.496 10.407 -563.483 1172.686 -4368.454 0.020 0.126 0.412 0.08 -0.42 0.91 0.02
1 3.74 374 1.001 -7.427 5.516 -14.252 10.284 25.757 -653.424 1232.647 -4488.376 0.511 0.064 0.771 0.07 -0.42 0.91 0.02
1 3.75 375 2.131 -7.384 5.967 -5.310 6.378 18.402 -653.424 1232.647 -4488.376 -0.657 0.002 0.309 0.07 -0.42 0.91 0.02
1 3.76 376 1.604 -7.839 5.813 -7.813 15.991 13.336 -743.516 1172.686 -4398.435 -0.152 0.450 0.458 0.07 -0.42 0.91 0.02
1 3.77 377 1.652 -7.643 5.900 -6.653 13.580 13.916 -563.483 1247.637 -4443.405 -0.223 0.243 0.365 0.07 -0.42 0.91 0.02
1 3.78 378 1.690 -7.896 6.058 -4.974 15.076 14.496 -563.483 1247.637 -4443.405 -0.290 0.487 0.202 0.07 -0.42 0.9 0.02
1 3.79 379 1.561 -7.949 6.172 -2.747 16.022 15.137 -728.525 1187.676 -4383.444 -0.190 0.530 0.082 0.07 -0.42 0.9 0.02
1 3.80 380 1.671 -7.992 6.216 0.671 17.304 15.595 -728.525 1157.696 -4338.474 -0.361 0.562 0.038 0.07 -0.42 0.9 0.02
1 3.81 381 1.686 -7.935 6.196 1.862 17.181 14.984 -563.483 1067.604 -4473.386 -0.407 0.502 0.062 0.06 -0.42 0.9 0.02
1 3.82 382 1.710 -8.054 6.388 4.944 17.578 15.350 -563.483 1067.604 -4473.386 -0.462 0.622 -0.123 0.06 -0.42 0.91 0.02
1 3.83 383 1.647 -7.916 6.330 6.500 17.120 14.954 -413.431 1172.686 -4443.405 -0.430 0.486 -0.057 0.06 -0.42 0.91 0.02
1 3.84 384 1.638 -7.801 6.421 8.850 17.273 14.648 -593.463 1172.686 -4443.405 -0.451 0.375 -0.137 0.06 -0.42 0.91 0.02
1 3.85 385 1.647 -7.676 6.168 15.076 17.700 13.947 -593.463 1172.686 -4443.405 -0.490 0.258 0.131 0.06 -0.42 0.91 0.02
1 3.86 386 1.705 -7.418 6.168 21.027 19.562 12.695 -518.512 1292.608 -4248.382 -0.577 0.010 0.149 0.06 -0.42 0.91 0.02
1 3.87 387 1.767 -7.374 6.292 25.940 21.027 11.292 -518.512 1292.608 -4248.382 -0.669 -0.016 0.049 0.05 -0.42 0.91 0.02
1 3.88 388 1.695 -7.456 6.283 25.940 22.858 9.216 -398.440 1187.676 -4458.396 -0.652 0.114 0.125 0.05 -0.41 0.91 0.02
1 3.89 389 1.733 -7.322 6.278 23.987 24.048 7.721 -398.440 1187.676 -4458.396 -0.718 0.005 0.162 0.05 -0.41 0.91 0.02
1 3.90 390 1.537 -7.398 6.335 22.736 25.940 5.402 -563.483 1097.735 -4398.435 -0.548 0.105 0.135 0.05 -0.41 0.91 0.02
1 3.91 391 1.331 -7.293 6.225 20.752 27.222 3.571 -578.473 1157.696 -4413.425 -0.370 0.021 0.274 0.05 -0.41 0.91 0.02
1 3.92 392 1.164 -7.250 6.441 19.867 28.778 3.052 -578.473 1157.696 -4413.425 -0.230 -0.001 0.085 0.04 -0.41 0.91 0.02
1 3.93 393 0.939 -7.149 6.536 19.409 29.053 2.350 -428.421 1007.644 -4488.376 -0.035 -0.082 0.016 0.04 -0.4 0.91 0.02
1 3.94 394 0.977 -7.288 6.608 19.653 29.083 3.235 -428.421 1007.644 -4488.376 -0.103 0.077 -0.030 0.04 -0.4 0.91 0.02
1 3.95 395 0.838 -7.283 6.493 17.304 28.168 5.280 -263.528 977.663 -4398.435 -0.029 0.112 0.136 0.04 -0.4 0.92 0.02
1 3.96 396 0.570 -7.149 6.350 16.480 27.069 5.951 -263.528 977.663 -4398.435 0.205 -0.005 0.303 0.03 -0.4 0.92 0.02
1 3.97 397 0.441 -7.082 6.354 15.350 26.489 5.829 -353.470 1007.644 -4533.497 0.299 -0.056 0.319 0.03 -0.4 0.92 0.02
1 3.98 398 0.426 -6.905 6.206 14.771 25.726 4.242 -398.440 1007.644 -4488.376 0.280 -0.218 0.488 0.03 -0.4 0.92 0.02
1 3.99 399 0.249 -6.872 6.273 11.963 24.292 4.303 -398.440 1007.644 -4488.376 0.424 -0.237 0.439 0.03 -0.4 0.92 0.02
1 4.00 400 0.206 -6.967 6.359 8.514 21.301 4.486 -158.447 827.611 -4473.386 0.436 -0.130 0.368 0.03 -0.4 0.92 0.02
1 4.01 401 0.345 -7.106 6.441 7.507 19.409 4.211 -158.447 827.611 -4473.386 0.267 0.018 0.299 0.02 -0.39 0.92 0.02
1 4.02 402 0.464 -7.384 6.450 7.172 18.768 4.395 -323.489 887.722 -4338.474 0.095 0.311 0.310 0.02 -0.39 0.92 0.02
1 4.03 403 0.469 -7.394 6.570 6.836 17.181 4.852 -323.489 887.722 -4338.474 0.065 0.326 0.198 0.02 -0.39 0.92 0.02
1 4.04 404 0.551 -7.676 6.661 3.754 16.327 5.859 -218.558 1037.624 -4458.396 -0.040 0.613 0.113 0.02 -0.39 0.92 0.02
1 4.05 405 0.790 -7.791 6.776 3.021 16.205 5.859 -83.496 977.663 -4368.454 -0.302 0.729 0.002 0.02 -0.39 0.92 0.02
1 4.06 406 0.800 -7.724 6.761 2.502 16.388 5.219 -83.496 977.513 -4368.604 -0.332 0.663 0.019 0.02 -0.39 0.92 0.02
1 4.07 407 0.833 -7.714 6.752 5.066 16.327 5.707 -188.427 947.533 -4473.536 -0.386 0.656 0.031 0.02 -0.39 0.92 0.02
1 4.08 408 0.828 -7.719 6.771 6.866 16.815 4.913 -188.427 947.533 -4473.536 -0.402 0.663 0.016 0.01 -0.39 0.92 0.02
1 4.09 409 0.833 -7.719 6.704 8.057 16.785 3.540 -158.447 947.533 -4578.617 -0.427 0.668 0.090 0.01 -0.39 0.92 0.02
1 4.10 410 0.613 -7.652 6.426 6.134 17.151 0.397 -143.457 887.422 -4533.646 -0.241 0.613 0.382 0.01 -0.39 0.92 0.02
1 4.11 411 0.426 -7.422 6.608 4.181 16.205 -2.167 -323.489 812.471 -4383.594 -0.069 0.387 0.205 0.01 -0.39 0.92 0.02
1 4.12 412 0.321 -7.350 6.709 1.526 16.144 -5.402 -158.447 827.461 -4578.617 0.023 0.318 0.107 0.01 -0.39 0.92 0.02
1 4.13 413 0.326 -7.508 6.747 -2.197 15.350 -8.087 -158.447 827.461 -4578.617 0.008 0.476 0.070 0.01 -0.39 0.92 0.03
1 4.14 414 0.364 -7.571 6.733 -3.754 14.893 -9.857 -83.496 947.533 -4548.637 -0.036 0.535 0.081 0.01 -0.39 0.92 0.03
1 4.15 415 0.421 -7.772 6.795 -3.357 13.336 -12.238 -83.496 947.533 -4548.637 -0.097 0.731 0.014 0.01 -0.39 0.92 0.03
1 4.16 416 0.484 -7.997 6.785 -1.526 12.787 -13.275 6.446 842.451 -4413.575 -0.160 0.951 0.019 0.01 -0.39 0.92 0.03
1 4.17 417 0.594 -8.026 6.790 0.549 11.749 -15.930 -233.398 947.533 -4503.516 -0.264 0.975 0.009 0 -0.39 0.92 0.03
1 4.18 418 0.488 -8.193 6.800 0.305 12.085 -15.320 -98.486 812.471 -4458.545 -0.152 1.142 -0.002 0 -0.39 0.92 0.03
1 4.19 419 0.670 -8.418 6.809 1.801 11.993 -13.733 51.417 932.542 -4458.545 -0.329 1.366 -0.014 0 -0.39 0.92 0.03
1 4.20 420 0.278 -8.327 6.800 3.662 11.871 -11.993 51.417 932.542 -4458.545 0.067 1.276 -0.002 0 -0.39 0.92 0.04
1 4.21 421 0.249 -8.021 6.781 6.897 12.116 -9.949 66.407 902.412 -4443.555 0.096 0.972 0.019 0 -0.39 0.92 0.04
1 4.22 422 0.043 -7.762 6.876 10.010 12.451 -7.813 66.407 902.412 -4443.555 0.299 0.719 -0.071 0 -0.39 0.92 0.04
1 4.23 423 -0.249 -7.695 6.857 7.935 11.719 -6.226 -83.496 977.513 -4443.555 0.586 0.660 -0.043 0 -0.39 0.92 0.04
1 4.24 424 -0.273 -7.671 7.015 1.068 9.857 -3.235 111.377 962.523 -4533.646 0.590 0.649 -0.187 0 -0.39 0.92 0.04
1 4.25 425 -0.249 -7.561 7.154 -2.319 8.667 -1.984 -188.427 902.412 -4443.555 0.555 0.537 -0.327 -0 -0.39 0.92 0.04
1 4.26 426 -0.460 -7.269 7.935 -21.759 7.050 -6.042 21.436 872.432 -4503.516 0.757 0.236 -1.116 -0 -0.39 0.92 0.04
1 4.27 427 -0.388 -7.542 7.896 -41.535 5.615 -10.101 21.436 872.432 -4503.516 0.680 0.486 -1.102 -0 -0.39 0.92 0.04
1 4.28 428 -0.306 -7.944 7.791 -51.880 -0.153 -10.315 -98.486 887.422 -4458.545 0.606 0.843 -1.044 -0 -0.39 0.92 0.04
1 4.29 429 -0.431 -8.538 7.355 -31.403 -8.026 -7.294 -98.486 887.422 -4458.545 0.742 1.386 -0.663 -0 -0.4 0.92 0.04
1 4.30 430 -0.215 -9.012 7.168 -9.186 -10.468 -6.653 51.417 1037.474 -4338.624 0.542 1.823 -0.516 -0 -0.4 0.92 0.04
1 4.31 431 0.048 -9.161 7.145 8.637 -10.407 -5.280 81.397 962.523 -4413.575 0.297 1.958 -0.508 0 -0.4 0.91 0.04
1 4.32 432 0.560 -8.940 7.001 25.421 -8.728 -1.282 81.397 1007.494 -4413.575 -0.184 1.764 -0.337 0 -0.4 0.92 0.04
1 4.33 433 0.881 -8.754 6.785 31.708 -7.019 2.899 -53.515 1097.435 -4323.633 -0.495 1.607 -0.091 0 -0.4 0.92 0.04
1 4.34 434 0.790 -8.648 6.929 33.447 -5.127 7.660 -53.515 1097.435 -4323.633 -0.402 1.536 -0.198 0 -0.4 0.92 0.04
1 4.35 435 0.699 -8.730 7.221 32.532 -2.045 11.871 -143.457 962.523 -4458.545 -0.316 1.653 -0.452 0 -0.39 0.92 0.04
1 4.36 436 0.474 -9.084 7.968 24.902 3.174 19.501 -143.457 962.523 -4458.545 -0.104 2.041 -1.164 0 -0.39 0.92 0.04
1 4.37 437 0.096 -9.625 8.193 15.381 4.669 27.435 -128.466 977.513 -4398.584 0.253 2.610 -1.359 0 -0.39 0.92 0.04
1 4.38 438 -0.105 -9.960 8.533 7.111 4.272 38.086 6.446 842.451 -4338.624 0.422 2.963 -1.679 0 -0.39 0.92 0.04
1 4.39 439 2.576 -8.318 9.510 -5.280 7.507 35.980 -8.395 827.461 -4248.532 -2.354 1.332 -2.641 -0 -0.39 0.92 0.03
1 4.40 440 2.318 -9.692 9.266 -16.480 45.593 21.668 -8.395 872.432 -4323.633 -2.148 2.697 -2.404 -0 -0.39 0.92 0.03
1 4.41 441 -0.201 -9.180 8.758 1.556 32.623 33.081 -8.395 872.432 -4323.633 0.295 2.172 -1.908 -0.01 -0.39 0.92 0.03
1 4.42 442 2.251 -8.217 8.595 6.409 39.887 -6.805 21.436 902.412 -4503.516 -2.216 1.214 -1.740 -0.01 -0.39 0.92 0.03
1 4.43 443 2.140 -6.101 8.959 3.967 48.065 20.569 21.436 902.412 -4503.516 -2.152 -0.895 -2.096 -0.01 -0.39 0.92 0.03
1 4.44 444 2.227 -6.153 7.983 5.157 71.991 -6.409 66.407 947.533 -4398.584 -2.303 -0.838 -1.116 -0.02 -0.39 0.92 0.03
1 4.45 445 1.719 -3.951 7.231 -5.432 52.826 1.343 111.377 842.451 -4458.545 -1.850 -3.030 -0.353 -0.02 -0.39 0.92 0.03
1 4.46 446 1.212 -4.027 6.259 -11.231 50.446 -3.387 246.439 977.513 -4443.555 -1.442 -2.957 0.613 -0.03 -0.39 0.92 0.04
1 4.47 447 0.958 -2.500 5.516 -13.641 55.359 -0.671 216.459 1022.484 -4293.503 -1.241 -4.496 1.341 -0.03 -0.39 0.92 0.04
1 4.48 448 -0.239 -2.050 4.951 -14.710 39.551 -11.993 216.459 1022.484 -4293.503 -0.088 -4.962 1.887 -0.03 -0.39 0.92 0.04
1 4.49 449 -1.341 -2.538 4.334 -11.383 43.244 -11.749 306.400 887.422 -4383.594 0.984 -4.489 2.488 -0.04 -0.39 0.92 0.04
1 4.50 450 -1.690 -2.160 5.148 -16.907 31.830 -19.409 306.400 887.422 -4383.594 1.306 -4.880 1.660 -0.04 -0.39 0.92 0.04
1 4.51 451 -3.467 -3.649 6.048 -54.962 28.290 -11.383 306.400 887.422 -4338.624 3.067 -3.413 0.736 -0.04 -0.39 0.92 0.05
1 4.52 452 -2.835 -4.621 7.418 -95.276 17.456 -18.707 306.400 812.471 -4308.643 2.421 -2.489 -0.686 -0.04 -0.39 0.92 0.05
1 4.53 453 -1.729 -5.330 8.404 -140.686 10.223 -23.499 306.400 812.471 -4308.643 1.316 -1.867 -1.765 -0.04 -0.4 0.91 0.05
1 4.54 454 -1.130 -10.884 7.025 -157.959 11.322 -30.151 321.391 1067.455 -4248.532 0.719 3.415 -0.694 -0.05 -0.42 0.91 0.05
1 4.55 455 -0.594 -12.733 5.832 -90.271 -1.373 -5.707 321.391 1067.455 -4248.532 0.203 5.124 0.331 -0.05 -0.43 0.9 0.05
1 4.56 456 -0.872 -12.153 4.793 -9.033 3.998 3.632 261.430 1037.474 -4308.493 0.485 4.480 1.291 -0.05 -0.43 0.9 0.05
1 4.57 457 -1.652 -10.511 4.813 58.350 6.470 9.857 261.430 1037.474 -4308.493 1.255 2.848 1.283 -0.05 -0.43 0.9 0.05
1 4.58 458 -2.121 -7.743 5.765 90.729 5.096 12.817 351.371 1322.738 -4293.353 1.706 0.147 0.413 -0.05 -0.43 0.9 0.05
1 4.59 459 -1.772 -5.574 6.666 65.033 1.648 5.615 396.342 1142.855 -4188.271 1.326 -1.939 -0.389 -0.05 -0.42 0.9 0.05
1 4.60 460 -1.609 -5.272 6.364 32.806 -0.854 2.197 396.342 1142.855 -4188.271 1.141 -2.165 0.000 -0.05 -0.42 0.91 0.05
1 4.61 461 -1.403 -6.326 5.770 8.057 -7.355 -0.977 426.322 977.813 -4188.271 0.931 -1.051 0.664 -0.05 -0.41 0.91 0.05
1 4.62 462 -0.527 -7.288 5.742 9.949 0.153 -31.983 426.322 977.813 -4188.271 0.073 -0.081 0.703 -0.05 -0.41 0.91 0.05
1 4.63 463 -2.658 -7.571 5.191 28.381 -0.214 -10.986 381.352 1112.875 -4233.242 2.231 0.214 1.269 -0.05 -0.41 0.91 0.05
1 4.64 464 -1.494 -6.891 5.794 26.642 -12.695 -11.475 381.352 1112.875 -4233.242 1.067 -0.442 0.693 -0.05 -0.41 0.91 0.05
1 4.65 465 -1.489 -7.135 5.133 22.156 -7.843 -18.463 321.391 1292.758 -4323.333 1.072 -0.176 1.379 -0.05 -0.41 0.91 0.05
1 4.66 466 -1.484 -7.030 4.889 13.336 -11.169 -25.055 396.342 1022.784 -4323.333 1.091 -0.266 1.642 -0.05 -0.41 0.91 0.05
1 4.67 467 -1.379 -7.111 4.573 17.883 -14.221 -24.902 396.342 1022.784 -4323.333 1.023 -0.171 1.975 -0.04 -0.4 0.91 0.06
1 4.68 468 -1.590 -7.710 3.975 41.870 -22.308 -19.898 351.371 1022.784 -4503.216 1.319 0.472 2.627 -0.04 -0.4 0.91 0.06
1 4.69 469 -1.801 -7.868 4.061 52.612 -24.597 -20.691 351.371 1022.784 -4503.216 1.577 0.678 2.595 -0.04 -0.4 0.91 0.06
1 4.70 470 -2.169 -7.906 4.520 76.386 -26.001 -25.421 321.091 903.911 -4442.506 1.984 0.773 2.197 -0.04 -0.39 0.92 0.06
1 4.71 471 -2.361 -7.686 4.961 81.360 -26.093 -29.572 321.091 903.911 -4442.506 2.217 0.622 1.831 -0.03 -0.39 0.92 0.06
1 4.72 472 -2.538 -7.336 5.239 81.726 -29.205 -30.243 276.120 903.911 -4322.434 2.438 0.349 1.633 -0.03 -0.39 0.92 0.06
1 4.73 473 -2.514 -6.690 4.870 77.790 -37.750 -28.534 231.149 888.921 -4232.493 2.459 -0.218 2.081 -0.03 -0.38 0.92 0.06
1 4.74 474 -2.480 -6.350 4.587 72.266 -43.976 -34.058 231.149 888.921 -4232.493 2.475 -0.480 2.440 -0.03 -0.38 0.92 0.06
1 4.75 475 -2.208 -6.125 5.239 62.927 -50.720 -42.847 186.179 694.048 -4232.493 2.282 -0.624 1.867 -0.02 -0.37 0.93 0.06
1 4.76 476 -2.035 -4.338 9.611 14.465 -61.279 -38.941 186.179 813.970 -4382.395 2.302 -2.282 -2.390 -0.01 -0.36 0.93 0.07
1 4.77 477 0.283 -4.252 13.049 -57.556 -68.299 -23.987 21.136 724.028 -4442.506 0.074 -2.353 -5.819 -0.01 -0.36 0.93 0.07
1 4.78 478 2.710 -7.082 13.705 -154.664 -71.350 7.904 21.136 724.028 -4442.506 -2.262 0.389 -6.560 -0 -0.37 0.93 0.07
1 4.79 479 5.349 -10.894 12.311 -210.816 -50.903 9.003 81.097 469.494 -4487.177 -4.838 4.011 -5.355 0 -0.38 0.92 0.06
1 4.80 480 5.785 -12.915 8.021 -92.560 -25.879 1.923 -68.805 589.566 -4382.095 -5.234 5.822 -1.281 0 -0.4 0.92 0.06
1 4.81 481 2.969 -11.641 6.594 -2.808 -55.115 29.877 -68.805 589.566 -4382.095 -2.393 4.429 0.017 0.01 -0.4 0.91 0.06
1 4.82 482 2.050 -8.969 7.049 100.525 -63.599 25.940 -98.486 887.272 -4278.663 -1.451 1.728 -0.472 0.01 -0.41 0.91 0.06
1 4.83 483 1.619 -7.259 8.701 141.236 -27.130 4.944 -158.597 1022.334 -4293.653 -0.948 0.238 -1.898 0.02 -0.39 0.92 0.05
1 4.84 484 -1.087 -5.703 9.252 106.720 -8.026 -8.453 -218.558 887.272 -4278.663 1.780 -1.175 -2.306 0.02 -0.38 0.92 0.05
1 4.85 485 -2.969 -5.167 9.548 47.333 -14.008 -17.914 -218.558 887.272 -4278.663 3.683 -1.609 -2.505 0.02 -0.37 0.93 0.05
1 4.86 486 -3.223 -4.808 9.759 -9.949 -28.931 -15.167 -158.597 872.282 -4293.653 3.974 -1.930 -2.683 0.02 -0.37 0.93 0.05
1 4.87 487 -2.591 -5.421 9.074 -33.783 -33.875 -23.132 -68.505 692.249 -4383.744 3.392 -1.334 -2.020 0.02 -0.37 0.93 0.05
1 4.88 488 -2.921 -8.883 6.991 -9.888 -54.474 2.808 -68.505 692.249 -4383.744 3.787 2.097 0.026 0.03 -0.38 0.92 0.05
1 4.89 489 -0.527 -8.471 6.718 19.440 -79.926 -0.183 -218.558 692.249 -4383.744 1.449 1.670 0.277 0.03 -0.38 0.92 0.05
1 4.90 490 2.888 -6.527 8.021 18.585 -63.385 -7.355 -188.277 480.437 -4369.953 -1.796 -0.230 -1.007 0.04 -0.37 0.93 0.05
1 4.91 491 3.405 -6.000 7.963 12.146 -55.115 -10.468 -188.277 600.509 -4219.901 -2.228 -0.732 -0.939 0.05 -0.37 0.93 0.05
1 4.92 492 3.137 -5.478 6.896 6.256 -39.612 -15.015 -188.277 600.509 -4219.901 -1.878 -1.235 0.132 0.05 -0.37 0.93 0.05
1 4.93 493 3.299 -4.966 6.014 18.158 -31.189 -19.043 -383.300 675.460 -4249.881 -1.969 -1.728 1.018 0.05 -0.37 0.93 0.05
1 4.94 494 1.915 -6.297 5.373 35.553 -24.567 -16.724 -563.333 750.411 -4444.904 -0.525 -0.365 1.679 0.06 -0.37 0.93 0.05
1 4.95 495 2.145 -3.304 5.291 61.920 -46.631 13.825 -563.333 750.411 -4444.904 -0.724 -3.311 1.798 0.06 -0.37 0.93 0.05
1 4.96 496 2.978 -3.022 6.307 41.992 -40.985 5.310 -548.343 735.421 -4309.992 -1.523 -3.529 0.835 0.06 -0.36 0.93 0.04
1 4.97 497 3.472 -2.615 7.140 12.573 -29.450 -4.883 -578.323 660.470 -4234.891 -1.978 -3.884 0.042 0.07 -0.36 0.93 0.04
1 4.98 498 2.773 -4.142 7.245 -30.884 -19.226 0.336 -488.382 600.509 -4219.901 -1.223 -2.340 -0.061 0.07 -0.36 0.93 0.04
1 4.99 499 3.002 -4.683 7.374 -52.918 -14.038 -1.892 -488.382 600.509 -4219.901 -1.433 -1.839 -0.230 0.07 -0.36 0.93 0.04
1 5.00 500 2.030 -5.368 6.675 -68.085 -15.625 9.644 -623.294 388.697 -4341.172 -0.438 -1.207 0.415 0.07 -0.36 0.93 0.04
1 5.01 501 1.925 -5.928 6.426 -66.529 -21.729 15.625 -458.401 598.710 -4326.182 -0.325 -0.722 0.592 0.07 -0.37 0.93 0.04
1 5.02 502 2.859 -5.900 6.565 -65.338 -29.419 25.299 -458.401 598.710 -4326.182 -1.245 -0.821 0.383 0.07 -0.37 0.92 0.04
1 5.03 503 3.074 -5.349 6.541 -55.908 -17.090 6.012 -668.415 628.690 -4221.100 -1.448 -1.443 0.334 0.08 -0.38 0.92 0.04
1 5.04 504 2.188 -6.077 6.728 -50.537 -7.660 3.540 -593.313 673.661 -4221.100 -0.545 -0.773 0.085 0.08 -0.38 0.92 0.04
1 5.05 505 1.489 -5.861 6.953 -54.047 -3.540 -11.566 -713.385 748.762 -4146.149 0.189 -1.081 -0.243 0.08 -0.39 0.92 0.04
1 5.06 506 0.800 -6.153 6.699 -54.962 -3.387 -11.139 -713.385 748.762 -4146.149 0.894 -0.836 -0.042 0.08 -0.39 0.92 0.04
1 5.07 507 -1.719 -8.208 5.842 -40.619 -20.538 27.863 -668.564 790.135 -4148.847 3.420 1.170 0.762 0.08 -0.4 0.91 0.04
1 5.08 508 1.307 -6.043 6.690 -26.886 -31.189 26.489 -623.594 880.227 -4208.808 0.370 -1.042 -0.130 0.08 -0.4 0.91 0.03
1 5.09 509 2.969 -6.263 7.097 -29.297 -22.553 14.618 -623.594 880.227 -4208.808 -1.291 -0.853 -0.571 0.08 -0.4 0.91 0.03
1 5.10 510 3.189 -6.450 6.872 -35.401 -9.216 8.026 -713.535 820.266 -4073.746 -1.502 -0.693 -0.378 0.08 -0.4 0.91 0.03
1 5.11 511 2.016 -7.580 6.412 -40.497 -4.272 14.557 -668.564 970.168 -3968.814 -0.323 0.405 0.045 0.08 -0.4 0.91 0.03
1 5.12 512 1.753 -7.997 6.699 -32.318 -6.287 15.259 -668.564 865.236 -4193.818 -0.069 0.745 -0.327 0.08 -0.41 0.91 0.03
1 5.13 513 1.666 -8.188 6.613 -27.008 -6.226 13.397 -668.564 865.236 -4193.818 0.008 0.904 -0.275 0.08 -0.41 0.91 0.03
1 5.14 514 1.839 -8.394 6.522 -9.460 -9.460 8.331 -653.574 955.178 -4208.808 -0.169 1.090 -0.206 0.08 -0.41 0.91 0.03
1 5.15 515 2.097 -8.030 6.589 -4.639 -10.223 7.874 -833.607 1030.129 -4103.876 -0.427 0.718 -0.282 0.08 -0.41 0.91 0.03
1 5.16 516 2.155 -7.561 6.450 -5.768 -6.897 9.247 -833.607 1030.129 -4103.876 -0.482 0.242 -0.152 0.08 -0.41 0.91 0.03
1 5.17 517 2.126 -7.293 6.287 -8.972 -2.563 10.040 -563.633 1090.240 -4118.867 -0.455 -0.034 0.003 0.08 -0.41 0.91 0.02
1 5.18 518 2.212 -7.283 6.096 -9.216 -0.031 8.637 -593.613 970.168 -4073.746 -0.545 -0.053 0.184 0.08 -0.42 0.91 0.02
1 5.19 519 2.069 -7.173 6.010 -6.897 2.441 7.202 -593.613 970.168 -4073.746 -0.407 -0.172 0.261 0.08 -0.42 0.91 0.02
1 5.20 520 2.289 -7.149 5.967 -3.784 6.348 6.744 -788.636 970.168 -4073.746 -0.642 -0.209 0.293 0.08 -0.42 0.9 0.02
1 5.21 521 2.241 -7.106 5.943 -4.211 6.531 10.010 -743.516 970.168 -3998.795 -0.604 -0.256 0.315 0.08 -0.42 0.9 0.02
1 5.22 522 1.935 -7.528 5.933 -7.263 6.042 15.381 -728.525 1105.230 -4133.857 -0.310 0.160 0.321 0.08 -0.42 0.9 0.02
1 5.23 523 0.603 -6.062 5.167 -7.629 -18.555 82.154 -728.525 1105.230 -4133.857 0.979 -1.322 1.079 0.08 -0.42 0.9 0.02
1 5.24 524 3.721 -7.834 6.273 6.836 -0.671 2.625 -758.656 1030.129 -4238.789 -2.199 0.427 -0.039 0.08 -0.42 0.9 0.01
1 5.25 525 1.920 -6.647 5.593 -13.855 3.174 20.508 -728.525 1150.201 -4133.857 -0.384 -0.745 0.655 0.08 -0.42 0.9 0.01
1 5.26 526 2.356 -6.919 5.904 -8.423 1.923 17.944 -728.525 1150.201 -4133.857 -0.834 -0.486 0.332 0.08 -0.42 0.9 0.01
1 5.27 527 2.160 -7.078 5.789 -10.803 4.425 17.914 -623.594 925.197 -4058.756 -0.672 -0.350 0.428 0.08 -0.42 0.9 0.01
1 5.28 528 2.184 -7.111 5.866 -11.047 7.080 18.738 -758.656 1180.181 -4058.756 -0.716 -0.330 0.340 0.08 -0.42 0.9 0.01
1 5.29 529 2.040 -7.427 6.058 -8.759 10.132 19.135 -623.594 1225.152 -3983.805 -0.595 -0.027 0.138 0.08 -0.42 0.9 0.01
1 5.30 530 2.131 -7.346 6.072 -6.104 12.909 19.257 -624.043 1221.704 -3986.953 -0.713 -0.119 0.117 0.08 -0.42 0.9 0.01
1 5.31 531 1.915 -7.499 6.038 -4.272 13.489 19.867 -818.917 1131.613 -4196.966 -0.527 0.027 0.148 0.07 -0.42 0.9 0.01
1 5.32 532 1.815 -7.762 5.861 0.977 12.146 20.722 -624.043 1146.753 -4211.956 -0.457 0.283 0.324 0.07 -0.42 0.9 0.01
1 5.33 533 1.676 -7.801 5.957 5.432 12.116 19.684 -624.043 1146.753 -4211.956 -0.350 0.318 0.231 0.07 -0.42 0.9 0.01
1 5.34 534 1.700 -7.719 6.086 11.932 14.191 15.747 -698.995 1101.632 -4211.956 -0.434 0.241 0.120 0.07 -0.42 0.9 0
1 5.35 535 1.432 -7.657 6.105 12.207 13.886 13.794 -414.030 1206.714 -4196.966 -0.192 0.188 0.117 0.07 -0.42 0.9 0
1 5.36 536 1.575 -7.398 6.158 12.116 15.900 9.125 -578.923 1296.655 -4166.985 -0.360 -0.060 0.081 0.07 -0.42 0.9 0
1 5.37 537 1.681 -7.245 6.096 10.956 16.663 6.805 -578.923 1296.655 -4166.985 -0.487 -0.203 0.161 0.07 -0.42 0.91 0
1 5.38 538 1.614 -7.212 6.211 9.705 17.700 6.073 -654.024 1101.632 -4166.985 -0.441 -0.225 0.062 0.06 -0.42 0.91 0
1 5.39 539 1.628 -7.370 6.034 9.155 19.623 6.561 -698.995 1176.733 -4031.923 -0.475 -0.058 0.255 0.06 -0.42 0.91 0
1 5.40 540 1.633 -7.485 6.105 10.040 19.165 8.118 -698.995 1176.733 -4031.923 -0.502 0.066 0.198 0.06 -0.42 0.91 0
1 5.41 541 1.757 -7.537 6.187 10.193 20.416 9.399 -518.962 1086.642 -4151.995 -0.650 0.127 0.130 0.06 -0.42 0.91 0
1 5.42 542 1.642 -7.537 6.058 12.116 23.651 10.712 -624.043 1071.652 -4107.024 -0.588 0.146 0.290 0.06 -0.42 0.91 0
1 5.43 543 1.513 -7.552 6.211 12.909 24.841 10.376 -473.991 1221.704 -4241.937 -0.490 0.170 0.154 0.06 -0.41 0.91 0
1 5.44 544 1.489 -7.480 6.263 10.193 27.466 10.376 -473.991 1221.704 -4241.937 -0.498 0.109 0.119 0.05 -0.41 0.91 0
1 5.45 545 1.422 -7.542 6.350 7.813 29.602 10.559 -323.939 1221.704 -4137.005 -0.466 0.180 0.047 0.05 -0.41 0.91 0
1 5.46 546 1.010 -7.671 6.081 7.202 29.114 11.810 -414.030 1086.642 -4046.914 -0.092 0.315 0.328 0.05 -0.41 0.91 0.01
1 5.47 547 0.958 -7.595 6.177 10.437 25.604 10.834 -414.030 1086.642 -4046.914 -0.078 0.244 0.244 0.05 -0.41 0.91 0.01
1 5.48 548 0.718 -7.537 6.254 12.390 25.269 10.803 -459.001 1161.743 -4226.946 0.124 0.195 0.182 0.04 -0.41 0.91 0.01
1 5.49 549 2.102 -6.685 6.771 9.674 35.339 -0.793 -459.001 966.720 -4302.047 -1.333 -0.636 -0.302 0.04 -0.41 0.91 0.01
1 5.50 550 0.417 -7.992 5.933 -2.197 54.779 1.007 -219.007 951.730 -4211.956 0.316 0.679 0.550 0.04 -0.41 0.91 0.01
1 5.51 551 -1.341 -8.591 5.560 15.503 26.733 10.925 -218.857 949.182 -4213.905 2.024 1.277 0.927 0.03 -0.41 0.91 0.01
1 5.52 552 0.455 -7.796 6.512 15.839 22.034 4.791 -428.721 1099.234 -4288.856 0.185 0.493 -0.009 0.03 -0.41 0.91 0.01
1 5.53 553 0.603 -7.801 6.421 4.974 20.447 -0.580 -308.799 964.172 -4228.895 0.008 0.510 0.099 0.03 -0.41 0.91 0.01
1 5.54 554 0.733 -7.896 6.354 -0.183 17.792 -0.946 -308.799 964.172 -4228.895 -0.143 0.611 0.173 0.03 -0.41 0.91 0.01
1 5.55 555 0.694 -8.136 6.302 -1.892 14.160 0.977 -233.848 934.191 -4228.895 -0.122 0.850 0.228 0.03 -0.41 0.91 0.01
1 5.56 556 0.848 -8.447 6.383 0.244 11.536 3.876 -308.799 934.191 -4228.895 -0.305 1.155 0.141 0.03 -0.41 0.91 0.01
1 5.57 557 0.800 -8.481 6.177 1.129 11.231 4.425 -248.838 1024.283 -4138.954 -0.272 1.185 0.345 0.02 -0.41 0.91 0.01
1 5.58 558 0.757 -8.562 6.072 6.165 12.634 2.930 -248.838 1024.283 -4138.954 -0.243 1.265 0.450 0.02 -0.41 0.91 0.01
1 5.59 559 0.761 -8.710 5.933 11.108 15.015 0.793 -398.740 994.302 -4213.905 -0.261 1.416 0.592 0.02 -0.41 0.91 0.01
1 5.60 560 0.776 -8.663 5.957 14.862 16.632 -1.984 -188.727 934.191 -4198.915 -0.288 1.375 0.577 0.02 -0.41 0.91 0.01
1 5.61 561 0.603 -8.595 6.244 14.923 19.043 -5.432 -188.727 934.191 -4198.915 -0.129 1.318 0.302 0.02 -0.41 0.91 0.01
1 5.62 562 0.594 -8.586 6.450 14.771 20.081 -6.714 -218.857 1024.283 -4288.856 -0.132 1.319 0.109 0.02 -0.41 0.91 0.01
1 5.63 563 0.393 -8.581 6.316 15.411 19.684 -8.179 -218.857 1024.283 -4288.856 0.057 1.325 0.256 0.02 -0.41 0.91 0.01
1 5.64 564 0.474 -8.777 6.656 15.167 17.883 -7.629 -83.795 1084.244 -4258.875 -0.045 1.545 -0.057 0.02 -0.4 0.91 0.02
1 5.65 565 0.393 -8.495 6.685 14.343 16.419 -5.920 -83.795 1084.244 -4258.875 0.027 1.279 -0.067 0.02 -0.4 0.92 0.02
1 5.66 566 0.158 -8.040 7.221 14.069 13.672 -4.272 -173.737 994.302 -4138.954 0.252 0.841 -0.585 0.01 -0.4 0.92 0.02
1 5.67 567 0.077 -7.480 7.413 9.308 13.245 -6.653 -98.786 1024.283 -4213.905 0.325 0.295 -0.760 0.01 -0.4 0.92 0.02
1 5.68 568 -0.541 -7.183 7.863 -14.435 13.306 -16.480 -98.786 1024.283 -4213.905 0.935 0.007 -1.200 0.01 -0.4 0.92 0.02
1 5.69 569 -0.512 -7.374 8.083 -31.616 9.888 -21.423 -188.727 814.270 -4198.915 0.903 0.195 -1.424 0.01 -0.4 0.92 0.02
1 5.70 570 -0.488 -7.456 7.868 -39.063 4.150 -23.438 -188.727 814.270 -4198.915 0.887 0.252 -1.235 0.01 -0.4 0.92 0.02
1 5.71 571 -0.158 -7.700 7.403 -31.250 -5.280 -23.499 -173.737 949.182 -4168.934 0.602 0.428 -0.849 0.01 -0.41 0.91 0.03
1 5.72 572 0.354 -7.939 7.164 -20.630 -8.514 -23.316 -173.737 949.182 -4168.934 0.117 0.644 -0.638 0.01 -0.41 0.91 0.03
1 5.73 573 0.958 -7.882 6.967 -12.970 -10.834 -21.179 -128.766 934.191 -4048.862 -0.454 0.571 -0.460 0.02 -0.41 0.91 0.03
1 5.74 574 1.302 -7.896 7.044 -9.827 -10.040 -16.357 -158.747 1009.292 -4228.895 -0.764 0.577 -0.550 0.02 -0.41 0.91 0.03
1 5.75 575 1.777 -8.399 7.336 -8.972 -8.850 -8.698 -158.747 1009.292 -4228.895 -1.206 1.073 -0.853 0.02 -0.41 0.91 0.03
1 5.76 576 2.322 -9.481 7.825 -10.315 -1.038 3.693 -83.795 964.172 -4258.875 -1.736 2.148 -1.351 0.02 -0.41 0.91 0.03
1 5.77 577 2.313 -10.406 7.796 -8.301 5.707 12.726 -83.795 964.172 -4258.875 -1.726 3.063 -1.332 0.02 -0.41 0.91 0.03
1 5.78 578 1.154 -10.592 7.839 -3.998 9.705 28.931 -233.848 1054.263 -4048.862 -0.613 3.235 -1.387 0.02 -0.41 0.91 0.03
1 5.79 579 0.752 -10.501 7.796 -3.845 6.226 40.100 -233.848 1054.263 -4048.862 -0.256 3.139 -1.347 0.02 -0.41 0.91 0.03
1 5.80 580 1.791 -7.327 8.169 -8.637 3.632 43.610 -98.786 994.302 -4033.872 -1.348 -0.042 -1.724 0.01 -0.41 0.91 0.02
1 5.81 581 2.054 -10.161 8.203 -45.044 58.960 -11.292 -98.786 1099.234 -4243.885 -1.649 2.773 -1.777 0.01 -0.41 0.91 0.02
1 5.82 582 0.172 -8.701 8.294 -30.792 58.747 1.770 -98.786 1099.234 -4243.885 0.184 1.273 -1.911 0.01 -0.42 0.91 0.03
1 5.83 583 -0.828 -7.542 7.796 -12.543 33.386 5.585 -143.756 1024.283 -4168.934 1.126 0.088 -1.441 0 -0.42 0.91 0.03
1 5.84 584 -0.125 -7.154 7.939 -6.378 32.288 -0.458 -143.756 1024.283 -4168.934 0.379 -0.313 -1.597 0 -0.42 0.91 0.03
1 5.85 585 0.043 -6.536 7.523 -0.946 27.313 10.559 -128.766 1309.247 -4228.895 0.178 -0.933 -1.183 -0 -0.42 0.91 0.03
1 5.86 586 0.728 -5.531 6.273 4.364 23.224 6.744 81.097 1219.306 -4138.954 -0.587 -1.927 0.083 -0.01 -0.42 0.91 0.03
1 5.87 587 0.311 -5.583 5.674 13.489 23.834 0.214 141.058 1204.166 -4198.915 -0.199 -1.867 0.690 -0.01 -0.42 0.91 0.03
1 5.88 588 -0.077 -4.449 4.827 27.435 27.161 3.387 81.097 1174.185 -4213.905 0.164 -2.983 1.561 -0.01 -0.42 0.91 0.03
1 5.89 589 -1.077 -4.324 4.932 39.429 17.365 -5.829 81.097 1174.185 -4213.905 1.140 -3.076 1.492 -0.01 -0.41 0.91 0.03
1 5.90 590 -1.523 -3.726 5.622 28.412 20.142 -12.268 81.097 1144.205 -4318.836 1.576 -3.634 0.850 -0.01 -0.41 0.91 0.03
1 5.91 591 -2.519 -3.864 6.565 0.916 20.172 -5.524 81.097 1144.205 -4318.836 2.565 -3.460 -0.055 -0.01 -0.41 0.91 0.03
1 5.92 592 -2.969 -5.665 7.259 -36.347 13.214 2.228 81.097 1024.283 -4108.823 3.005 -1.650 -0.737 -0.01 -0.41 0.91 0.04
1 5.93 593 -1.547 -6.421 7.044 -89.600 -6.531 10.071 51.117 874.230 -4168.934 1.526 -0.966 -0.604 -0.02 -0.41 0.91 0.03
1 5.94 594 -0.905 -7.963 6.474 -95.124 -7.019 0.610 96.087 1009.292 -4303.846 0.871 0.494 -0.130 -0.02 -0.42 0.91 0.03
1 5.95 595 -0.283 -8.380 5.660 -50.659 -17.853 16.388 66.107 1084.244 -4198.915 0.242 0.832 0.591 -0.02 -0.43 0.9 0.03
1 5.96 596 0.680 -9.343 5.794 -17.517 -8.270 -2.319 66.107 1084.244 -4198.915 -0.721 1.751 0.403 -0.02 -0.43 0.9 0.03
1 5.97 597 -1.063 -8.806 5.756 26.093 9.369 17.120 -23.834 1219.306 -4168.934 1.022 1.207 0.432 -0.02 -0.43 0.9 0.03
1 5.98 598 -2.145 -7.087 6.359 34.027 31.006 8.606 -23.834 1219.306 -4168.934 2.073 -0.485 -0.138 -0.02 -0.43 0.9 0.03
1 5.99 599 -2.801 -6.235 6.675 28.168 13.397 11.475 5.996 1144.205 -4168.934 2.685 -1.302 -0.413 -0.02 -0.42 0.9 0.03
1 6.00 600 -1.882 -6.187 6.589 -4.791 -2.808 5.951 156.048 1174.185 -4138.954 1.684 -1.300 -0.269 -0.02 -0.42 0.91 0.03
1 6.01 601 -1.714 -6.776 6.268 -0.641 -6.775 3.815 5.996 1144.205 -4168.934 1.502 -0.709 0.055 -0.02 -0.42 0.91 0.03
1 6.02 602 -1.178 -7.370 5.809 12.573 -8.301 2.655 141.058 1159.195 -4153.944 0.958 -0.110 0.520 -0.02 -0.42 0.91 0.03
1 6.03 603 -0.833 -7.274 5.646 21.515 -10.376 2.136 141.058 1159.195 -4153.944 0.611 -0.191 0.700 -0.02 -0.42 0.91 0.03
1 6.04 604 -0.637 -6.776 5.809 22.522 -11.444 2.136 141.058 1234.296 -4048.862 0.417 -0.669 0.561 -0.02 -0.42 0.91 0.02
1 6.05 605 -0.460 -6.532 5.641 9.552 -13.580 0.244 141.058 1234.296 -4048.862 0.246 -0.891 0.754 -0.02 -0.42 0.91 0.02
1 6.06 606 -0.560 -6.570 5.435 -1.465 -14.282 -3.296 111.078 1099.234 -4168.934 0.359 -0.839 0.976 -0.02 -0.42 0.91 0.02
1 6.07 607 -0.781 -7.149 4.947 -1.129 -14.221 -8.637 141.058 1009.292 -4258.875 0.597 -0.258 1.467 -0.02 -0.42 0.91 0.02
1 6.08 608 -1.159 -7.580 4.544 15.289 -14.923 -14.801 5.996 1219.306 -4213.905 1.026 0.179 1.878 -0.02 -0.41 0.91 0.02
1 6.09 609 -1.417 -7.667 4.650 31.067 -16.052 -18.463 141.058 1204.166 -4048.862 1.309 0.278 1.787 -0.02 -0.41 0.91 0.02
1 6.10 610 -1.480 -7.657 4.755 44.586 -16.449 -22.797 141.058 1204.166 -4048.862 1.400 0.295 1.713 -0.02 -0.41 0.91 0.02
1 6.11 611 -1.585 -7.762 4.832 50.903 -19.104 -26.276 -8.844 1159.195 -4048.862 1.539 0.440 1.681 -0.01 -0.41 0.91 0.03
1 6.12 612 -1.537 -7.920 4.913 50.934 -20.813 -34.515 -8.844 1159.195 -4048.862 1.530 0.642 1.650 -0.01 -0.41 0.91 0.03
1 6.13 613 -1.427 -7.916 4.635 52.277 -21.484 -39.978 81.097 1069.253 -4138.954 1.465 0.682 1.977 -0.01 -0.4 0.91 0.03
1 6.14 614 -1.456 -7.772 4.214 58.869 -24.872 -45.319 5.996 994.302 -4168.934 1.547 0.583 2.446 -0.01 -0.4 0.92 0.03
1 6.15 615 -1.604 -7.465 3.931 74.158 -33.356 -49.835 -53.815 934.191 -4198.915 1.827 0.386 2.841 -0 -0.39 0.92 0.03
1 6.16 616 -3.500 -8.548 3.352 79.956 -43.640 -26.947 -83.795 964.172 -4123.813 3.814 1.551 3.503 0 -0.39 0.92 0.04
1 6.17 617 -3.500 -6.072 5.737 64.942 -76.416 -0.275 -83.795 964.172 -4123.813 3.875 -0.849 1.191 0.01 -0.38 0.92 0.04
1 6.18 618 -0.527 -5.358 9.927 37.018 -81.391 -27.924 -8.844 889.221 -4258.875 0.984 -1.499 -2.941 0.01 -0.38 0.92 0.03
1 6.19 619 1.671 -4.789 14.701 -35.492 -60.852 -20.294 -8.844 889.221 -4258.875 -1.113 -2.035 -7.689 0.02 -0.38 0.93 0.03
1 6.20 620 2.121 -9.362 13.872 -223.237 -86.975 62.866 -143.756 874.230 -4213.905 -1.493 2.469 -6.934 0.02 -0.38 0.92 0.03
1 6.21 621 5.698 -10.765 11.473 -234.162 -46.845 20.355 -218.857 649.227 -4168.934 -5.039 3.666 -4.749 0.03 -0.4 0.92 0.03
1 6.22 622 8.394 -12.024 4.377 -29.572 6.042 -33.630 -308.799 964.172 -4153.944 -7.683 4.555 1.928 0.03 -0.42 0.91 0.02
1 6.23 623 7.078 -11.550 3.630 101.166 0.244 -21.027 -413.730 1054.263 -4153.944 -6.336 4.089 2.681 0.03 -0.42 0.91 0.03
1 6.24 624 1.044 -10.252 4.999 166.382 -4.334 -10.315 -413.730 1054.263 -4153.944 -0.276 2.915 1.452 0.03 -0.41 0.91 0.03
1 6.25 625 -1.068 -5.852 7.992 197.297 -31.952 19.287 -323.789 1144.205 -4108.823 1.845 -1.305 -1.343 0.03 -0.4 0.92 0.03
1 6.26 626 -1.801 -3.026 9.472 140.992 -57.038 1.038 -323.789 1144.205 -4108.823 2.591 -3.934 -2.618 0.03 -0.39 0.92 0.02
1 6.27 627 -0.967 -2.797 9.788 19.836 -58.930 -5.890 -308.799 1084.244 -4123.813 1.799 -4.012 -2.788 0.04 -0.38 0.93 0.02
1 6.28 628 -2.509 -5.713 8.749 -67.993 -25.116 -6.744 -413.730 934.191 -4258.875 3.396 -1.022 -1.685 0.04 -0.37 0.93 0.02
1 6.29 629 -2.634 -7.681 7.753 -81.238 -36.224 -1.678 -413.730 934.191 -4258.875 3.552 0.919 -0.719 0.04 -0.37 0.93 0.02
1 6.30 630 -1.063 -9.127 7.470 -55.420 -41.138 -2.625 -488.832 784.289 -4153.944 2.053 2.210 -0.599 0.05 -0.38 0.92 0.02
1 6.31 631 -0.369 -8.816 7.868 -26.947 -39.398 -9.979 -488.832 784.289 -4153.944 1.406 1.850 -1.053 0.05 -0.39 0.92 0.02
1 6.32 632 -0.742 -8.375 7.604 -3.632 -59.174 23.041 -473.841 1024.283 -4108.823 1.827 1.389 -0.818 0.05 -0.39 0.92 0.02
1 6.33 633 2.332 -6.685 7.628 -3.937 -60.181 13.428 -473.841 1024.283 -4108.823 -1.205 -0.306 -0.853 0.06 -0.39 0.92 0.01
1 6.34 634 4.698 -6.378 6.953 10.162 -34.149 -12.573 -428.721 874.230 -4108.823 -3.519 -0.615 -0.189 0.06 -0.39 0.92 0.01
1 6.35 635 4.396 -6.886 5.555 33.264 -25.604 -14.252 -503.822 754.309 -4063.853 -3.146 -0.094 1.210 0.07 -0.39 0.92 0.01
1 6.36 636 3.879 -5.890 5.756 55.084 -21.240 -14.587 -503.822 754.309 -4063.853 -2.571 -1.058 1.031 0.07 -0.39 0.92 0.01
1 6.37 637 0.857 -5.713 5.837 65.094 -37.506 19.562 -639.034 886.672 -4126.062 0.549 -1.113 1.053 0.07 -0.38 0.92 0.01
1 6.38 638 2.964 -4.501 6.953 45.929 -40.619 11.627 -639.034 886.672 -4126.062 -1.534 -2.261 -0.006 0.08 -0.37 0.92 0.01
1 6.39 639 3.472 -4.128 7.312 19.409 -39.002 5.646 -729.125 646.679 -3991.000 -2.010 -2.594 -0.332 0.08 -0.37 0.93 0
1 6.40 640 3.563 -4.621 7.183 -1.587 -26.795 2.563 -729.125 646.679 -3991.000 -2.062 -2.080 -0.191 0.08 -0.37 0.93 0
1 6.41 641 3.400 -4.971 6.929 -17.792 -13.153 -9.949 -714.135 811.721 -4230.994 -1.854 -1.724 0.059 0.08 -0.37 0.93 0
1 6.42 642 1.566 -5.445 6.311 -21.484 -13.794 -4.120 -834.057 751.760 -4066.101 0.020 -1.256 0.662 0.09 -0.37 0.93 0
1 6.43 643 1.700 -5.454 6.350 -14.923 -14.313 1.709 -834.057 751.760 -4066.101 -0.095 -1.265 0.601 0.09 -0.37 0.92 0
1 6.44 644 1.288 -5.732 6.259 -21.118 -16.357 14.191 -879.027 796.731 -4171.033 0.343 -1.024 0.650 0.09 -0.37 0.92 0
1 6.45 645 2.174 -5.488 6.728 -28.809 -16.205 11.719 -879.027 796.731 -4171.033 -0.538 -1.293 0.155 0.09 -0.38 0.92 0
1 6.46 646 3.342 -4.798 6.872 -37.781 -15.869 4.150 -699.145 946.633 -4216.003 -1.699 -2.015 -0.021 0.09 -0.38 0.92 0
1 6.47 647 3.026 -5.392 6.330 -50.568 -2.930 5.371 -699.145 946.633 -4216.003 -1.363 -1.457 0.479 0.09 -0.38 0.92 0
1 6.48 648 2.998 -6.728 6.455 -52.490 3.754 -6.989 -819.066 886.672 -4005.990 -1.321 -0.169 0.303 0.09 -0.38 0.92 0
1 6.49 649 3.414 -5.986 6.939 -42.236 -1.617 -3.510 -894.018 736.770 -4081.091 -1.726 -0.959 -0.233 0.09 -0.39 0.92 0
1 6.50 650 2.026 -7.269 6.417 -32.929 5.646 1.251 -894.018 736.770 -4081.091 -0.331 0.282 0.242 0.09 -0.39 0.92 0
1 6.51 651 2.926 -6.374 6.747 -24.201 -0.397 2.258 -804.076 1066.705 -3886.068 -1.222 -0.643 -0.121 0.09 -0.39 0.92 0
1 6.52 652 3.381 -6.412 7.159 -20.630 4.425 -6.928 -669.014 886.672 -4005.990 -1.674 -0.650 -0.581 0.09 -0.39 0.91 0
1 6.53 653 2.279 -6.829 6.838 -23.438 10.193 -4.639 -699.145 991.754 -4066.101 -0.562 -0.247 -0.278 0.09 -0.4 0.91 0.01
1 6.54 654 2.452 -6.613 7.006 -25.818 8.545 -8.179 -699.145 991.754 -4066.101 -0.732 -0.481 -0.467 0.09 -0.4 0.91 0.01
1 6.55 655 1.791 -7.312 6.733 -28.198 13.031 -11.749 -924.148 1006.744 -3976.010 -0.065 0.199 -0.216 0.09 -0.4 0.91 0.01
1 6.56 656 1.858 -7.116 6.680 -22.644 11.383 -11.780 -804.076 1096.686 -3886.068 -0.129 -0.019 -0.188 0.09 -0.4 0.91 0.01
1 6.57 657 1.882 -7.130 6.560 -18.585 10.010 -10.162 -804.076 1096.686 -3886.068 -0.152 -0.023 -0.089 0.09 -0.4 0.91 0.01
1 6.58 658 1.839 -6.915 6.421 -17.426 9.338 -8.392 -894.018 1126.666 -4050.961 -0.106 -0.252 0.034 0.09 -0.4 0.91 0.01
1 6.59 659 1.662 -6.647 6.259 -18.066 8.575 -7.935 -744.115 961.773 -4126.062 0.074 -0.547 0.166 0.09 -0.4 0.91 0.01
1 6.60 660 1.638 -6.565 6.230 -19.348 8.362 -8.026 -864.037 961.773 -4081.091 0.099 -0.641 0.180 0.09 -0.41 0.91 0.01
1 6.61 661 1.566 -6.661 6.187 -19.714 7.385 -6.348 -864.037 961.773 -4081.091 0.172 -0.559 0.207 0.09 -0.41 0.91 0.02
1 6.62 662 1.666 -6.838 6.235 -19.928 7.538 -4.608 -744.115 1051.715 -3946.029 0.070 -0.398 0.142 0.09 -0.41 0.91 0.02
1 6.63 663 1.829 -6.982 6.292 -20.630 7.690 -1.678 -789.086 1006.744 -4005.990 -0.096 -0.271 0.067 0.09 -0.41 0.91 0.02
1 6.64 664 2.016 -7.240 6.297 -19.775 7.385 2.167 -789.086 1006.744 -4005.990 -0.288 -0.029 0.044 0.09 -0.41 0.91 0.02
1 6.65 665 2.169 -7.183 6.081 -20.752 7.080 6.042 -729.125 1096.686 -4035.971 -0.449 -0.104 0.241 0.09 -0.41 0.91 0.02
1 6.66 666 2.011 -7.245 6.163 -20.172 7.568 9.857 -789.086 1156.646 -3901.059 -0.312 -0.081 0.120 0.09 -0.41 0.91 0.02
1 6.67 667 2.107 -7.341 6.201 -19.196 7.355 11.047 -699.145 991.754 -4111.072 -0.423 -0.006 0.063 0.09 -0.42 0.91 0.02
1 6.68 668 1.671 -7.628 6.101 -17.731 8.026 11.627 -699.145 991.754 -4111.072 -0.005 0.262 0.145 0.09 -0.42 0.9 0.02
1 6.69 669 1.580 -7.676 5.986 -16.724 9.277 13.123 -729.125 1216.757 -3991.000 0.064 0.290 0.242 0.08 -0.42 0.9 0.02
1 6.70 670 1.499 -7.757 5.957 -14.130 10.284 13.062 -834.057 1096.686 -3916.049 0.122 0.352 0.254 0.08 -0.42 0.9 0.02
1 6.71 671 1.690 -7.571 5.895 -7.141 12.177 13.580 -834.057 1096.686 -3916.049 -0.095 0.150 0.304 0.08 -0.42 0.9 0.02
1 6.72 672 1.700 -7.671 5.842 -2.319 13.886 14.252 -819.066 1081.695 -4005.990 -0.130 0.238 0.348 0.08 -0.42 0.9 0.02
1 6.73 673 1.681 -7.647 5.670 2.930 14.526 15.289 -669.014 1231.748 -3946.029 -0.139 0.207 0.520 0.08 -0.42 0.9 0.01
1 6.74 674 1.882 -7.350 5.536 9.857 16.052 16.480 -819.066 1306.699 -3901.059 -0.399 -0.092 0.666 0.08 -0.42 0.9 0.01
1 6.75 675 1.829 -7.303 5.516 15.564 17.059 16.815 -819.066 1306.699 -3901.059 -0.377 -0.133 0.700 0.08 -0.42 0.9 0.01
1 6.76 676 1.681 -7.317 5.526 19.226 18.189 17.761 -819.066 1231.748 -3946.029 -0.261 -0.108 0.711 0.07 -0.42 0.9 0.01
1 6.77 677 1.499 -7.317 5.713 20.020 18.280 17.822 -789.086 1081.695 -3946.029 -0.114 -0.093 0.549 0.07 -0.42 0.91 0.01
1 6.78 678 1.494 -7.331 5.828 18.860 19.226 18.311 -789.086 1081.695 -3946.029 -0.144 -0.064 0.459 0.07 -0.42 0.91 0.01
1 6.79 679 1.283 -7.279 5.885 16.663 19.318 18.982 -594.063 1276.718 -4050.961 0.030 -0.102 0.427 0.07 -0.42 0.91 0.01
1 6.80 680 1.149 -7.489 6.029 15.167 20.050 20.203 -594.063 1276.718 -4230.994 0.125 0.122 0.307 0.07 -0.41 0.91 0.01
1 6.81 681 0.972 -7.523 6.216 13.001 19.867 22.461 -504.122 1066.705 -3916.049 0.217 0.177 0.161 0.06 -0.41 0.91 0.01
1 6.82 682 0.934 -7.599 6.077 11.536 20.569 24.414 -504.122 1066.705 -3916.049 0.209 0.261 0.317 0.06 -0.41 0.91 0.01
1 6.83 683 0.943 -7.523 6.000 10.498 20.264 24.994 -459.001 1126.666 -3976.010 0.151 0.191 0.409 0.06 -0.41 0.91 0
1 6.84 684 0.848 -7.609 5.933 9.338 20.142 26.489 -519.112 1081.695 -4005.990 0.197 0.282 0.490 0.06 -0.41 0.91 0
1 6.85 685 1.154 -7.710 6.010 9.857 20.111 25.299 -519.112 1081.695 -4005.990 -0.159 0.386 0.425 0.05 -0.41 0.91 0
1 6.86 686 1.298 -7.925 6.326 15.167 22.980 20.966 -654.024 1171.637 -3961.020 -0.349 0.607 0.123 0.05 -0.41 0.91 0
1 6.87 687 1.106 -7.983 6.474 17.883 24.658 20.447 -489.131 1051.715 -4005.990 -0.202 0.673 -0.009 0.05 -0.41 0.91 0
1 6.88 688 0.814 -7.796 6.656 14.587 22.492 22.369 -504.122 1096.686 -4066.101 0.000 0.513 -0.149 -0.05 0.41 -0.91 0
1 6.89 689 0.723 -7.844 6.680 12.207 20.905 22.217 -504.122 1096.686 -4066.101 0.045 0.572 -0.155 -0.04 0.41 -0.91 0
1 6.90 690 0.053 -7.686 6.512 12.787 18.646 21.515 -399.040 1216.757 -4111.072 0.669 0.423 0.028 -0.04 0.41 -0.91 0
1 6.91 691 0.043 -7.556 6.388 14.038 17.151 19.409 -489.131 1126.666 -4126.062 0.633 0.304 0.169 -0.04 0.4 -0.91 0
1 6.92 692 0.048 -7.245 6.297 12.573 15.320 15.472 -489.131 1126.666 -4126.062 0.586 0.005 0.277 -0.04 0.4 -0.91 0.01
1 6.93 693 1.389 -6.661 6.498 6.134 20.142 3.632 -324.089 1171.637 -4066.101 -0.793 -0.568 0.091 -0.04 0.4 -0.91 0.01
1 6.94 694 1.049 -7.422 6.378 -7.660 35.584 -2.350 -294.108 1096.686 -4066.101 -0.483 0.201 0.223 -0.03 0.4 -0.91 0.01
1 6.95 695 -0.455 -8.437 6.115 0.183 18.127 7.629 -293.958 1093.238 -4068.949 0.996 1.213 0.485 -0.03 0.4 -0.91 0
1 6.96 696 1.312 -8.165 6.556 -1.251 13.702 5.554 -248.988 988.156 -4174.031 -0.822 0.934 0.042 -0.03 0.4 -0.91 0
1 6.97 697 1.326 -8.193 6.512 -0.641 14.587 5.585 -293.958 1258.130 -4113.920 -0.849 0.959 0.082 -0.03 0.4 -0.91 0
1 6.98 698 1.499 -8.399 6.469 3.815 15.015 5.646 -263.978 1123.218 -4233.992 -1.037 1.163 0.124 -0.03 0.4 -0.91 0
1 6.99 699 1.279 -8.246 6.316 10.590 16.754 5.432 -263.978 1123.218 -4233.992 -0.831 1.013 0.281 -0.03 0.4 -0.91 0
1 7.00 700 1.202 -7.963 6.388 15.015 18.341 4.822 -173.887 1213.160 -3993.998 -0.771 0.739 0.220 -0.03 0.4 -0.91 0
1 7.01 701 1.159 -7.920 6.326 13.367 18.677 1.923 -263.978 1003.146 -3979.008 -0.745 0.707 0.296 -0.02 0.4 -0.92 0
1 7.02 702 0.867 -7.906 6.278 12.054 18.463 -0.336 -263.978 1003.146 -3979.008 -0.469 0.705 0.357 -0.02 0.4 -0.92 0
1 7.03 703 0.713 -7.844 6.321 9.552 18.433 -6.134 -263.978 1123.218 -4053.959 -0.342 0.661 0.336 -0.02 0.4 -0.92 0
1 7.04 704 0.642 -8.030 6.335 7.813 18.036 -9.125 -293.958 1063.257 -4219.001 -0.278 0.855 0.329 -0.02 0.4 -0.92 0
1 7.05 705 0.560 -8.102 6.383 5.615 17.273 -10.803 -173.887 1093.238 -4113.920 -0.202 0.931 0.287 0.02 -0.4 0.92 0
1 7.06 706 0.436 -8.265 6.508 3.387 16.480 -11.566 -173.887 1093.238 -4113.920 -0.082 1.097 0.166 0.02 -0.4 0.92 0
1 7.07 707 0.335 -8.399 6.465 0.946 16.388 -11.536 -308.949 1048.117 -4008.988 0.016 1.231 0.209 0.02 -0.4 0.92 0
1 7.08 708 0.397 -8.423 6.498 4.059 16.235 -12.573 -158.896 1078.248 -4204.011 -0.049 1.253 0.173 0.02 -0.4 0.92 0.01
1 7.09 709 0.249 -8.356 6.512 8.392 15.442 -10.864 -158.896 1078.248 -4204.011 0.097 1.186 0.160 0.02 -0.4 0.92 0.01
1 7.10 710 0.302 -8.150 6.556 16.693 13.641 -7.660 -173.887 1018.137 -4113.920 0.035 0.995 0.132 0.01 -0.4 0.92 0.01
1 7.11 711 0.441 -8.241 6.613 22.736 12.451 -4.852 -23.984 988.156 -4248.982 -0.110 1.102 0.092 0.01 -0.4 0.92 0.01
1 7.12 712 0.273 -7.973 6.661 28.107 11.902 -4.669 -98.936 1138.208 -4219.001 0.051 0.855 0.068 0.01 -0.4 0.92 0.01
1 7.13 713 0.278 -7.714 6.666 32.318 11.810 -4.913 -98.936 1138.208 -4219.001 0.038 0.625 0.093 0.01 -0.39 0.92 0.01
1 7.14 714 0.278 -7.317 6.723 32.562 11.353 -6.744 -143.906 868.234 -4174.031 0.032 0.260 0.069 0.01 -0.39 0.92 0.01
1 7.15 715 -0.053 -6.881 7.183 14.740 9.705 -10.071 -128.916 928.195 -4128.910 0.359 -0.144 -0.357 0.01 -0.39 0.92 0.01
1 7.16 716 -0.244 -7.307 7.513 -4.120 7.965 -12.756 -128.916 928.195 -4128.910 0.549 0.304 -0.665 0.01 -0.39 0.92 0.01
1 7.17 717 -0.460 -7.384 7.489 -18.768 4.456 -13.550 -128.916 1003.146 -4263.972 0.766 0.385 -0.637 0.01 -0.39 0.92 0.02
1 7.18 718 -0.469 -7.748 7.547 -14.801 -2.441 -12.726 -158.896 928.195 -4053.959 0.787 0.718 -0.727 0.01 -0.39 0.92 0.02
1 7.19 719 -0.316 -8.026 7.532 -4.272 -7.660 -11.292 -83.945 883.225 -4233.992 0.651 0.984 -0.725 0.01 -0.39 0.92 0.02
1 7.20 720 -0.096 -7.757 7.619 6.683 -12.878 -7.843 -83.945 883.225 -4233.992 0.452 0.716 -0.812 0.01 -0.39 0.92 0.02
1 7.21 721 0.297 -7.250 7.556 14.862 -15.320 -5.188 -53.965 1048.117 -4128.910 0.082 0.220 -0.739 0.01 -0.39 0.92 0.02
1 7.22 722 0.804 -6.848 7.508 13.489 -14.221 -1.129 -143.906 868.234 -4113.920 -0.405 -0.164 -0.674 0.01 -0.39 0.92 0.02
1 7.23 723 0.943 -7.015 7.437 4.730 -11.047 2.594 -143.906 868.234 -4113.920 -0.525 0.022 -0.584 0.02 -0.39 0.92 0.02
1 7.24 724 0.986 -7.303 7.418 -7.263 -7.538 6.744 -158.896 808.124 -4204.011 -0.554 0.321 -0.554 0.02 -0.39 0.92 0.02
1 7.25 725 0.915 -7.690 7.738 -23.560 -4.242 13.763 -143.906 943.186 -4143.900 -0.476 0.692 -0.892 0.02 -0.39 0.92 0.02
1 7.26 726 0.618 -8.275 7.925 -27.985 -3.296 18.127 -143.906 823.114 -4219.001 -0.190 1.251 -1.104 0.02 -0.39 0.92 0.02
1 7.27 727 0.407 -8.806 7.796 -29.480 -3.937 22.553 -143.906 823.114 -4219.001 0.004 1.752 -1.005 0.02 -0.39 0.92 0.01
1 7.28 728 0.125 -9.237 7.801 -30.945 -5.920 28.839 -263.978 928.195 -4308.943 0.265 2.152 -1.042 0.02 -0.39 0.92 0.01
1 7.29 729 -0.254 -9.213 8.006 -33.692 -8.301 35.095 -173.887 1063.257 -4248.982 0.617 2.094 -1.281 0.02 -0.4 0.92 0.01
1 7.30 730 2.356 -6.297 8.418 -39.337 -11.200 27.557 -173.887 1063.257 -4248.982 -2.025 -0.857 -1.729 0.02 -0.4 0.92 0.01
1 7.31 731 2.562 -8.643 8.600 -60.333 29.755 -15.533 -128.916 1003.146 -4233.992 -2.258 1.451 -1.951 0.02 -0.4 0.92 0
1 7.32 732 -0.479 -8.217 7.561 -37.659 31.403 10.468 -323.939 1063.257 -4174.031 0.738 0.919 -1.026 0.01 -0.41 0.91 0.01
1 7.33 733 0.374 -6.273 7.983 -21.484 16.266 12.726 -233.998 1003.146 -4158.891 -0.155 -1.058 -1.482 0.01 -0.41 0.91 0.01
1 7.34 734 0.292 -6.680 7.633 -21.332 21.240 -3.265 -233.998 1003.146 -4158.891 -0.102 -0.666 -1.149 0.01 -0.41 0.91 0.01
1 7.35 735 0.125 -6.723 7.307 -27.680 13.672 18.463 -128.916 1003.146 -4128.910 0.042 -0.636 -0.838 0.01 -0.41 0.91 0.01
1 7.36 736 1.235 -5.004 6.627 -30.945 9.399 8.972 -218.857 1288.111 -4174.031 -1.097 -2.379 -0.185 0 -0.41 0.91 0.01
1 7.37 737 0.393 -4.942 5.282 -16.296 17.487 1.068 -218.857 1288.111 -4174.031 -0.272 -2.465 1.134 0 -0.42 0.91 0.01
1 7.38 738 -0.302 -4.065 4.362 2.777 11.383 -2.533 -68.955 1093.238 -4174.031 0.401 -3.360 2.032 0 -0.42 0.91 0.01
1 7.39 739 -1.475 -4.937 4.884 14.404 9.003 -7.019 -68.955 1093.238 -4174.031 1.562 -2.489 1.510 0 -0.42 0.91 0.01
1 7.40 740 -2.413 -5.114 6.163 2.472 8.453 -7.507 6.746 1209.412 -4116.918 2.498 -2.281 0.266 0 -0.41 0.91 0.01
1 7.41 741 -2.088 -5.469 7.848 -33.630 6.104 -6.134 6.746 1209.412 -4116.918 2.175 -1.931 -1.423 0 -0.41 0.91 0.01
1 7.42 742 -1.489 -6.738 8.538 -89.630 3.296 -4.669 -68.206 1134.461 -4041.967 1.566 -0.695 -2.151 -0 -0.42 0.91 0.01
1 7.43 743 -0.081 -8.380 8.198 -139.374 -2.563 -16.449 -173.137 1134.461 -4146.898 0.161 0.856 -1.920 -0 -0.42 0.91 0.01
1 7.44 744 1.863 -10.382 6.096 -104.096 -18.311 -1.007 -173.137 1134.461 -4146.898 -1.768 2.730 0.026 0 -0.43 0.9 0.01
1 7.45 745 1.293 -12.321 5.488 -30.151 -2.899 4.974 -23.085 1329.484 -4071.947 -1.182 4.562 0.497 0 -0.44 0.9 0.01
1 7.46 746 0.326 -10.928 5.334 48.279 3.632 19.348 -23.085 1329.484 -4071.947 -0.208 3.122 0.591 0 -0.44 0.9 0.01
1 7.47 747 -0.335 -7.513 6.292 74.311 7.111 17.883 6.746 1434.416 -3921.895 0.404 -0.195 -0.241 0 -0.44 0.9 0.01
1 7.48 748 -0.637 -6.690 6.843 59.632 7.111 14.618 6.746 1434.416 -3921.895 0.678 -0.952 -0.707 -0 -0.43 0.9 0.01
1 7.49 749 -0.891 -6.709 6.273 41.779 7.172 8.423 -68.206 1329.484 -4116.918 0.906 -0.875 -0.066 -0 -0.43 0.9 0.01
1 7.50 750 -1.183 -6.268 5.516 24.109 5.035 4.425 -83.196 1269.523 -3982.006 1.177 -1.275 0.740 -0 -0.43 0.91 0.01
1 7.51 751 -1.106 -7.039 5.033 35.553 4.120 -2.625 -83.196 1269.523 -3982.006 1.094 -0.481 1.251 -0 -0.42 0.91 0.01
1 7.52 752 -1.092 -7.446 4.822 52.521 2.777 -4.547 -68.206 1329.484 -4071.947 1.078 -0.042 1.500 -0 -0.42 0.91 0.01
1 7.53 753 -1.226 -7.111 4.650 61.249 0.488 -3.937 -68.206 1329.484 -4071.947 1.210 -0.331 1.726 -0 -0.42 0.91 0.01
1 7.54 754 -1.518 -6.824 4.904 67.963 -1.984 -5.005 -23.085 1209.412 -4146.898 1.507 -0.496 1.613 -0 -0.41 0.91 0.01
1 7.55 755 -1.724 -6.953 4.520 67.688 -6.653 -4.028 -23.085 1209.412 -4146.898 1.722 -0.297 2.074 -0 -0.4 0.91 0.01
1 7.56 756 -2.050 -6.771 4.267 64.789 -11.749 -5.219 51.716 1209.412 -4146.898 2.060 -0.409 2.403 -0 -0.4 0.92 0.01
1 7.57 757 -2.179 -6.374 3.821 63.568 -16.235 -8.667 -98.186 1059.510 -4116.918 2.210 -0.739 2.920 -0 -0.4 0.92 0.01
1 7.58 758 -2.255 -6.268 3.630 63.843 -21.423 -15.381 -98.186 1059.510 -4116.918 2.316 -0.778 3.181 0 -0.39 0.92 0.01
1 7.59 759 -2.567 -6.517 3.951 63.782 -26.733 -26.062 6.746 1089.490 -4176.879 2.670 -0.460 2.931 0 -0.39 0.92 0.01
1 7.60 760 -2.667 -6.766 3.998 58.502 -31.586 -31.311 6.746 1089.490 -4176.879 2.824 -0.141 2.952 0 -0.38 0.92 0.01
1 7.61 761 -2.571 -6.987 4.243 52.490 -35.828 -37.079 -53.215 1044.520 -4131.908 2.792 0.146 2.771 0.01 -0.38 0.93 0.01
1 7.62 762 -2.447 -6.991 4.185 46.906 -41.168 -48.615 -188.127 804.526 -4311.941 2.828 0.268 2.935 0.02 -0.37 0.93 0.01
1 7.63 763 -2.389 -6.058 7.092 36.896 -45.746 -56.519 -8.095 804.526 -4131.908 2.869 -0.611 0.074 0.02 -0.37 0.93 0.02
1 7.64 764 -2.045 -4.583 12.335 -12.848 -55.817 -45.532 -323.189 909.458 -4296.951 2.612 -2.054 -5.147 0.02 -0.36 0.93 0.02
1 7.65 765 -0.153 -4.573 17.536 -131.684 -76.081 7.965 -323.040 908.558 -4297.700 0.822 -2.100 -10.390 0.03 -0.37 0.93 0.02
1 7.66 766 4.870 -11.200 12.891 -325.196 -85.022 89.020 -428.121 908.558 -4177.778 -4.142 4.340 -5.930 0.03 -0.38 0.92 0.02
1 7.67 767 6.235 -15.496 6.297 -192.933 -8.667 17.273 -428.121 908.558 -4177.778 -5.507 8.310 0.327 0.04 -0.4 0.92 0.01
1 7.68 768 7.446 -12.398 0.555 -58.350 -3.937 -18.402 -263.079 878.428 -4087.687 -6.732 4.966 5.793 0.04 -0.42 0.91 0
1 7.69 769 3.232 -8.356 4.056 165.375 9.888 -25.086 -323.040 983.509 -4222.749 -2.481 0.896 2.255 0.04 -0.42 0.91 0.01
1 7.70 770 0.244 -9.295 6.393 228.944 -3.296 15.289 -383.150 1223.503 -4162.788 0.544 2.009 0.114 0.04 -0.41 0.91 0.01
1 7.71 771 -0.958 -4.808 8.490 203.339 -15.747 1.160 -233.098 1118.421 -4087.687 1.734 -2.246 -1.731 0.04 -0.39 0.92 0.01
1 7.72 772 -1.307 -2.399 9.845 110.840 -26.154 -15.167 -233.098 1118.421 -4087.687 2.095 -4.453 -2.884 0.04 -0.38 0.92 0.01
1 7.73 773 -2.471 -3.802 9.625 -8.850 -24.139 -13.672 -353.170 1013.490 -4147.648 3.290 -2.935 -2.555 0.04 -0.37 0.93 0.01
1 7.74 774 -2.686 -5.062 8.452 -107.514 -31.555 -3.235 -353.170 1013.490 -4147.648 3.525 -1.685 -1.393 0.04 -0.37 0.93 0.01
1 7.75 775 -2.145 -7.288 7.283 -105.530 -32.410 -3.784 -263.079 728.525 -4267.720 3.008 0.446 -0.321 0.05 -0.38 0.92 0.01
1 7.76 776 -0.594 -9.381 7.264 -45.715 -29.541 -4.578 -308.049 878.428 -4207.759 1.495 2.353 -0.494 0.05 -0.39 0.92 0
1 7.77 777 -0.215 -9.328 7.944 -14.862 -28.168 -3.937 -248.088 1013.490 -4117.667 1.152 2.265 -1.216 0.05 -0.39 0.92 0
1 7.78 778 -0.144 -10.056 8.040 -0.854 -30.365 2.167 -428.121 1133.562 -4042.716 1.114 2.983 -1.327 0.05 -0.39 0.92 0
1 7.79 779 -0.680 -8.686 7.394 26.093 -60.242 33.966 -428.121 1133.562 -4042.716 1.676 1.618 -0.680 0.05 -0.39 0.92 0
1 7.80 780 1.504 -6.972 6.982 39.826 -72.846 14.648 -518.062 1118.421 -4267.720 -0.471 -0.067 -0.242 -0.06 0.39 -0.92 0
1 7.81 781 4.200 -4.487 6.383 14.832 -28.381 7.782 -518.062 1118.421 -4267.720 -3.104 -2.509 0.391 -0.06 0.39 -0.92 0
1 7.82 782 3.280 -4.985 5.684 30.884 -23.346 1.984 -563.033 1073.451 -4057.707 -2.131 -1.977 1.117 -0.07 0.39 -0.92 0.01
1 7.83 783 2.050 -5.085 5.928 40.955 -24.628 8.423 -488.082 1118.421 -4087.687 -0.866 -1.845 0.899 -0.07 0.38 -0.92 0.01
1 7.84 784 1.523 -4.070 7.015 25.055 -33.997 16.846 -713.085 998.500 -4162.788 -0.305 -2.782 -0.116 -0.07 0.38 -0.92 0.01
1 7.85 785 1.532 -5.315 7.456 6.378 -29.053 8.972 -668.115 878.428 -4012.736 -0.293 -1.516 -0.540 -0.07 0.38 -0.92 0.01
1 7.86 786 1.413 -5.373 7.518 -12.695 -34.699 14.587 -668.115 878.428 -4012.736 -0.151 -1.450 -0.597 -0.08 0.38 -0.92 0.01
1 7.87 787 1.662 -5.971 6.991 -27.771 -28.412 13.825 -638.134 998.500 -4207.759 -0.379 -0.864 -0.086 -0.08 0.38 -0.92 0.02
1 7.88 788 1.532 -6.445 6.829 -23.682 -30.975 11.139 -638.134 998.500 -4207.759 -0.227 -0.415 0.047 -0.08 0.38 -0.92 0.02
1 7.89 789 1.614 -6.431 6.378 -14.221 -29.480 10.345 -578.173 938.539 -3997.746 -0.287 -0.456 0.466 -0.08 0.38 -0.92 0.02
1 7.90 790 1.992 -6.632 6.781 -6.104 -21.912 8.881 -713.085 1043.470 -4237.739 -0.646 -0.274 0.040 -0.08 0.38 -0.92 0.02
1 7.91 791 1.815 -5.986 6.527 -7.996 -20.996 10.895 -743.516 995.951 -4090.085 -0.422 -0.928 0.277 -0.09 0.38 -0.92 0.02
1 7.92 792 1.944 -6.192 6.656 -13.580 -20.783 7.782 -923.548 995.951 -4014.984 -0.534 -0.730 0.137 -0.09 0.38 -0.92 0.02
1 7.93 793 2.131 -5.670 6.388 -15.625 -22.858 10.498 -923.548 995.951 -4014.984 -0.703 -1.264 0.389 -0.09 0.38 -0.92 0.02
1 7.94 794 2.404 -5.794 6.192 -20.630 -16.113 6.989 -668.564 995.951 -3955.023 -0.960 -1.156 0.565 -0.09 0.38 -0.92 0.02
1 7.95 795 1.791 -5.780 6.144 -18.707 -23.254 18.066 -668.564 995.951 -3955.023 -0.338 -1.191 0.589 -0.09 0.38 -0.92 0.03
1 7.96 796 2.342 -6.398 6.225 -23.499 -18.829 15.076 -758.506 860.889 -4074.945 -0.887 -0.596 0.484 -0.09 0.39 -0.92 0.03
1 7.97 797 2.504 -6.407 6.105 -27.802 -16.815 14.862 -788.486 1040.922 -4014.984 -1.035 -0.607 0.579 -0.09 0.39 -0.92 0.03
1 7.98 798 2.514 -6.302 6.014 -34.546 -12.848 11.414 -878.428 1130.863 -4044.965 -1.018 -0.768 0.605 -0.1 0.39 -0.91 0.03
1 7.99 799 2.337 -7.336 6.081 -32.868 -6.073 3.662 -878.428 1130.863 -3865.082 -0.830 0.231 0.498 -0.1 0.39 -0.91 0.03
1 8.00 800 2.380 -7.149 5.900 -28.137 -10.132 1.831 -878.428 1130.863 -3865.082 -0.866 0.012 0.643 -0.1 0.4 -0.91 0.03
1 8.01 801 1.820 -8.332 5.904 -19.409 -5.951 -4.028 -878.428 1250.935 -3999.994 -0.289 1.169 0.606 -0.1 0.4 -0.91 0.03
1 8.02 802 1.571 -7.298 5.928 -20.081 -11.353 10.498 -878.428 1250.935 -3999.994 -0.031 0.112 0.555 -0.1 0.4 -0.91 0.03
1 8.03 803 1.767 -8.212 6.220 -16.144 -9.552 -0.793 -833.457 1160.844 -3999.994 -0.224 1.003 0.236 -0.1 0.4 -0.91 0.03
1 8.04 804 2.303 -7.202 6.263 -22.858 -11.047 4.517 -788.486 1145.854 -4059.955 -0.744 -0.023 0.171 -0.1 0.4 -0.91 0.03
1 8.05 805 2.998 -7.868 6.216 -20.447 1.770 -18.280 -788.486 1145.854 -4059.955 -1.435 0.618 0.191 -0.1 0.4 -0.91 0.03
1 8.06 806 2.284 -7.643 5.861 -26.184 12.177 -7.874 -878.428 1325.886 -4120.066 -0.684 0.355 0.492 -0.1 0.41 -0.91 0.03
1 8.07 807 2.203 -7.686 5.794 -19.775 13.916 -6.317 -878.428 1325.886 -4120.066 -0.602 0.374 0.532 -0.1 0.41 -0.91 0.03
1 8.08 808 1.911 -7.810 5.847 -14.923 12.970 -7.782 -788.486 1265.925 -4059.955 -0.311 0.481 0.459 -0.1 0.41 -0.91 0.03
1 8.09 809 1.882 -7.494 5.876 -11.536 13.916 -8.484 -788.486 1265.925 -4059.955 -0.283 0.153 0.416 -0.1 0.41 -0.91 0.02
1 8.10 810 1.901 -7.504 5.703 -9.094 14.496 -5.219 -713.535 1220.955 -4014.984 -0.304 0.152 0.578 -0.1 0.41 -0.91 0.02
1 8.11 811 1.901 -7.580 5.732 -8.331 15.198 -3.510 -833.457 1160.844 -3970.014 -0.308 0.221 0.540 -0.1 0.41 -0.91 0.02
1 8.12 812 1.978 -7.633 5.665 -7.111 15.381 -1.373 -833.457 1160.844 -3970.014 -0.392 0.266 0.600 -0.1 0.41 -0.91 0.02
1 8.13 813 -0.268 -8.916 4.927 -3.815 7.599 51.422 -818.467 1190.974 -4059.955 1.833 1.534 1.325 -0.1 0.41 -0.9 0.02
1 8.14 814 1.868 -6.656 5.703 5.585 -18.494 48.279 -818.467 1190.974 -4059.955 -0.382 -0.752 0.538 -0.09 0.42 -0.9 0.02
1 8.15 815 3.299 -9.280 6.273 17.822 0.183 -14.130 -788.486 1220.955 -3985.004 -1.831 1.877 -0.022 -0.09 0.41 -0.9 0.03
1 8.16 816 2.404 -6.867 5.718 -9.857 16.083 10.284 -788.486 1220.955 -3985.004 -0.923 -0.520 0.549 -0.1 0.41 -0.91 0.03
1 8.17 817 1.786 -7.121 5.665 -14.282 26.367 17.792 -803.626 1430.218 -4075.845 -0.329 -0.280 0.592 -0.09 0.41 -0.9 0.03
1 8.18 818 1.226 -7.446 5.478 -11.536 20.783 13.489 -728.675 1475.189 -3925.792 0.190 0.029 0.768 -0.09 0.42 -0.9 0.03
1 8.19 819 1.384 -7.590 5.406 -6.561 14.191 6.928 -728.675 1475.189 -3925.792 -0.006 0.156 0.829 -0.09 0.42 -0.9 0.03
1 8.20 820 1.662 -7.413 5.560 -6.317 14.801 6.531 -788.636 1190.225 -3985.903 -0.325 -0.041 0.661 -0.09 0.42 -0.9 0.03
1 8.21 821 1.686 -7.552 5.593 -3.967 13.184 5.096 -788.636 1190.225 -3985.903 -0.366 0.090 0.622 -0.09 0.42 -0.9 0.02
1 8.22 822 1.753 -7.633 5.708 -3.845 13.275 6.256 -593.613 1220.205 -3955.773 -0.449 0.166 0.504 -0.09 0.42 -0.9 0.02
1 8.23 823 1.805 -7.858 5.703 -3.265 13.611 7.965 -593.613 1220.205 -3955.773 -0.519 0.386 0.506 -0.08 0.42 -0.9 0.02
1 8.24 824 1.714 -7.944 5.718 -0.549 14.038 9.033 -713.685 1415.228 -4135.806 -0.446 0.467 0.489 -0.08 0.42 -0.9 0.02
1 8.25 825 1.571 -7.997 5.651 4.181 14.496 8.789 -578.623 1430.218 -3895.812 -0.322 0.517 0.557 -0.08 0.42 -0.9 0.02
1 8.26 826 1.480 -7.949 5.756 8.209 16.388 8.606 -578.623 1430.218 -3895.812 -0.252 0.469 0.455 -0.08 0.42 -0.9 0.02
1 8.27 827 1.456 -7.872 5.765 12.054 18.005 8.087 -668.714 1490.179 -3880.822 -0.251 0.395 0.454 -0.08 0.42 -0.9 0.02
1 8.28 828 1.441 -7.949 5.627 17.578 20.447 6.500 -638.734 1295.156 -3955.773 -0.283 0.490 0.624 -0.08 0.42 -0.9 0.02
1 8.29 829 1.628 -7.973 5.756 20.844 21.912 6.195 -728.675 1430.218 -3895.812 -0.494 0.529 0.516 -0.07 0.42 -0.91 0.02
1 8.30 830 1.604 -7.963 5.727 23.926 22.339 7.355 -728.675 1430.218 -3895.812 -0.495 0.537 0.570 -0.07 0.42 -0.91 0.02
1 8.31 831 1.513 -8.059 5.694 25.818 21.759 7.629 -728.675 1250.186 -3925.792 -0.430 0.653 0.632 -0.07 0.41 -0.91 0.02
1 8.32 832 1.484 -8.050 5.756 26.886 22.156 8.209 -653.724 1400.238 -3970.913 -0.428 0.665 0.600 -0.07 0.41 -0.91 0.02
1 8.33 833 1.283 -7.973 5.756 27.191 23.377 8.423 -653.724 1400.238 -3970.913 -0.254 0.611 0.630 -0.07 0.41 -0.91 0.02
1 8.34 834 1.350 -7.997 5.775 28.595 24.872 8.484 -488.682 1265.176 -4090.835 -0.349 0.657 0.640 -0.07 0.41 -0.91 0.02
1 8.35 835 1.264 -7.710 5.813 28.687 28.626 7.385 -623.744 1250.186 -4075.845 -0.327 0.416 0.665 -0.06 0.41 -0.91 0.02
1 8.36 836 1.121 -7.604 5.947 26.764 31.098 5.859 -428.721 1205.215 -4075.845 -0.217 0.336 0.563 -0.06 0.41 -0.91 0.02
1 8.37 837 1.058 -7.633 6.086 22.827 33.295 2.686 -428.721 1205.215 -4075.845 -0.190 0.387 0.455 -0.06 0.4 -0.91 0.02
1 8.38 838 0.809 -7.753 6.259 19.379 33.905 1.129 -563.633 1145.254 -4090.835 0.024 0.527 0.309 -0.06 0.4 -0.91 0.02
1 8.39 839 0.680 -7.767 6.192 16.785 33.905 0.946 -548.643 1130.264 -4075.845 0.119 0.558 0.398 -0.05 0.4 -0.91 0.02
1 8.40 840 0.431 -7.930 6.402 15.137 30.701 1.984 -548.643 1130.264 -4075.845 0.332 0.735 0.208 -0.05 0.4 -0.91 0.02
1 8.41 841 0.139 -8.121 6.359 15.503 29.114 2.869 -383.750 1144.504 -4241.487 0.588 0.939 0.268 -0.05 0.4 -0.92 0.02
1 8.42 842 0.029 -8.284 6.632 17.792 27.069 1.434 -398.740 1204.615 -4076.444 0.627 1.128 0.031 -0.04 0.4 -0.92 0.02
1 8.43 843 -0.043 -8.165 6.594 19.592 24.902 -0.092 -458.701 1264.576 -4061.454 0.666 1.023 0.088 -0.04 0.4 -0.92 0.02
1 8.44 844 0.029 -8.275 6.517 21.973 24.017 -2.289 -458.701 1264.576 -4061.454 0.564 1.151 0.187 -0.04 0.4 -0.92 0.02
1 8.45 845 0.148 -8.361 6.479 24.445 22.888 -4.211 -308.649 1039.573 -4091.435 0.418 1.258 0.249 -0.04 0.39 -0.92 0.01
1 8.46 846 0.326 -8.327 6.632 25.635 21.851 -5.737 -218.708 979.612 -4046.464 0.220 1.246 0.121 -0.04 0.39 -0.92 0.01
1 8.47 847 0.656 -8.279 6.503 26.337 20.233 -6.195 -218.708 979.612 -4046.464 -0.129 1.221 0.276 -0.03 0.39 -0.92 0.01
1 8.48 848 0.766 -8.366 6.474 25.910 19.165 -5.859 -233.698 1189.475 -4166.536 -0.254 1.331 0.329 -0.03 0.39 -0.92 0.01
1 8.49 849 0.809 -8.102 6.450 26.581 17.914 -5.249 -233.698 1219.605 -4241.487 -0.311 1.090 0.378 -0.03 0.39 -0.92 0.01
1 8.50 850 0.809 -7.872 6.642 24.536 19.379 -5.615 -308.649 1039.573 -4061.454 -0.332 0.908 0.236 -0.03 0.38 -0.92 0.01
1 8.51 851 0.690 -7.729 6.805 20.050 20.996 -6.042 -308.649 1039.573 -4061.454 -0.224 0.786 0.097 -0.03 0.38 -0.92 0.01
1 8.52 852 0.613 -7.595 6.924 12.604 23.010 -6.226 -293.659 1009.592 -4121.415 -0.161 0.670 -0.004 -0.03 0.38 -0.92 0.01
1 8.53 853 0.426 -7.173 7.489 -2.075 25.147 -7.690 -173.737 934.491 -4121.415 0.009 0.257 -0.560 -0.03 0.38 -0.92 0
1 8.54 854 -0.311 -7.101 7.968 -24.933 23.987 -17.395 -173.737 934.491 -4121.415 0.730 0.181 -1.042 -0.02 0.38 -0.92 0
1 8.55 855 -0.369 -7.475 8.270 -35.004 17.090 -21.881 -158.747 1039.573 -4316.438 0.776 0.537 -1.360 -0.02 0.38 -0.92 0
1 8.56 856 -0.757 -8.102 8.198 -31.799 7.446 -23.163 -188.727 1039.573 -4271.467 1.163 1.134 -1.319 0.02 -0.39 0.92 0
1 8.57 857 -0.991 -8.983 7.939 -10.010 -4.547 -25.879 -128.616 1114.524 -4016.483 1.439 1.963 -1.117 0.02 -0.39 0.92 0.01
1 8.58 858 -0.919 -9.472 8.035 0.671 -9.033 -23.468 -128.616 1114.524 -4016.483 1.401 2.447 -1.219 0.02 -0.39 0.92 0.01
1 8.59 859 -0.110 -9.826 8.299 6.592 -11.383 -17.548 -188.727 1114.524 -4241.487 0.626 2.807 -1.479 0.03 -0.39 0.92 0.01
1 8.60 860 0.838 -9.912 8.399 8.575 -11.536 -7.813 -188.727 1039.573 -4316.438 -0.294 2.903 -1.572 0.03 -0.39 0.92 0.01
1 8.61 861 1.523 -10.252 8.495 14.832 -10.376 3.113 -188.727 1039.573 -4316.438 -0.960 3.255 -1.657 0.03 -0.39 0.92 0.01
1 8.62 862 2.126 -9.946 8.533 28.290 -4.089 20.172 -263.678 1069.553 -4091.435 -1.560 2.967 -1.676 0.03 -0.39 0.92 0.01
1 8.63 863 2.102 -9.137 8.605 31.281 -0.885 33.264 -218.708 1009.592 -4301.448 -1.548 2.186 -1.719 0.03 -0.38 0.92 0.01
1 8.64 864 3.965 -6.541 8.988 11.841 4.639 17.120 -188.727 994.602 -4316.438 -3.487 -0.352 -2.039 0.03 -0.38 0.92 0
1 8.65 865 2.117 -7.700 8.758 -4.150 28.290 10.284 -188.727 994.602 -4316.438 -1.665 0.814 -1.800 0.02 -0.38 0.92 0
1 8.66 866 1.231 -7.015 7.753 -9.552 40.802 0.488 -188.727 949.481 -4211.506 -0.821 0.125 -0.796 0.02 -0.38 0.92 0
1 8.67 867 0.709 -6.661 8.246 -10.193 38.452 17.914 -173.737 979.612 -4301.448 -0.342 -0.234 -1.292 0.02 -0.38 0.92 0
1 8.68 868 0.713 -5.804 8.026 -22.827 39.795 12.146 -173.737 979.612 -4301.448 -0.404 -1.100 -1.077 0.02 -0.38 0.92 0
1 8.69 869 1.604 -4.540 8.145 -35.370 55.420 -9.338 -143.756 979.612 -4256.477 -1.347 -2.381 -1.211 0.01 -0.38 0.92 0
1 8.70 870 -0.958 -4.654 6.398 -31.586 74.127 -2.655 -173.737 1009.592 -4181.526 1.169 -2.292 0.512 0.01 -0.38 0.92 0.01
1 8.71 871 -0.273 -4.827 6.738 -46.356 69.794 -1.038 -173.737 1009.592 -4181.526 0.423 -2.140 0.153 0 -0.39 0.92 0.01
1 8.72 872 -2.849 -5.191 4.851 -29.877 67.261 12.848 -53.665 919.501 -4241.487 2.837 -1.870 1.945 -0.01 -0.39 0.92 0.01
1 8.73 873 -1.930 -3.802 5.354 1.343 23.804 6.104 111.228 1129.364 -4301.598 1.850 -3.276 1.424 -0.01 -0.39 0.92 0.01
1 8.74 874 -2.198 -3.692 5.555 -0.671 4.639 9.277 21.136 1114.374 -4346.568 2.091 -3.383 1.225 -0.01 -0.39 0.92 0.01
1 8.75 875 -1.417 -3.764 5.871 -10.468 1.282 -1.740 21.136 1114.374 -4346.568 1.299 -3.313 0.908 -0.01 -0.39 0.92 0.01
1 8.76 876 -1.456 -4.511 6.647 -53.406 1.984 -13.092 66.257 1039.273 -4211.656 1.339 -2.580 0.117 -0.01 -0.39 0.92 0.01
1 8.77 877 -1.437 -5.090 6.824 -82.520 3.174 -16.266 66.257 1189.325 -4211.656 1.330 -2.046 -0.108 -0.01 -0.4 0.92 0.01
1 8.78 878 -1.767 -7.149 7.303 -102.692 -3.082 -18.219 66.257 1189.325 -4211.656 1.673 -0.064 -0.670 -0.01 -0.4 0.92 0.01
1 8.79 879 -0.249 -9.065 6.709 -103.424 -10.498 -21.057 171.188 1069.403 -4166.686 0.183 1.652 -0.299 -0.01 -0.42 0.91 0.02
1 8.80 880 -0.187 -10.501 5.995 -62.775 -15.350 -0.183 141.208 1114.374 -4166.686 0.149 2.997 0.307 -0.01 -0.42 0.91 0.02
1 8.81 881 -0.129 -10.233 5.876 -12.054 -10.773 8.179 51.267 1399.338 -4226.646 0.103 2.682 0.371 -0.01 -0.43 0.9 0.02
1 8.82 882 -0.575 -9.467 6.053 23.377 -4.456 8.637 51.267 1399.338 -4226.646 0.548 1.915 0.193 -0.01 -0.43 0.9 0.02
1 8.83 883 -1.073 -7.992 6.311 39.185 0.366 9.522 66.257 1339.377 -4091.584 1.038 0.469 -0.031 -0.01 -0.42 0.91 0.01
1 8.84 884 -1.154 -6.560 6.742 27.771 3.235 4.852 51.267 1474.290 -4151.695 1.102 -0.927 -0.420 -0.01 -0.42 0.91 0.01
1 8.85 885 0.402 -5.330 7.259 16.327 5.615 -4.303 51.267 1474.290 -4151.695 -0.471 -2.124 -0.898 -0.01 -0.42 0.91 0.01
1 8.86 886 -1.662 -7.585 5.885 12.116 34.393 -12.085 6.146 1204.315 -4046.614 1.591 0.172 0.525 -0.01 -0.42 0.91 0.02
1 8.87 887 -1.935 -7.599 5.952 12.329 25.086 -13.245 66.257 1339.377 -4166.686 1.846 0.198 0.471 -0.01 -0.41 0.91 0.02
1 8.88 888 -1.911 -7.250 6.374 6.866 10.101 -10.834 6.146 1324.387 -4151.695 1.803 -0.140 0.062 -0.02 -0.41 0.91 0.02
1 8.89 889 -2.423 -7.398 6.038 1.831 -4.944 -2.777 6.146 1324.387 -4151.695 2.305 0.014 0.404 -0.02 -0.41 0.91 0.02
1 8.90 890 -1.097 -7.221 6.043 -4.883 -8.270 -6.287 111.228 1399.338 -4076.594 0.976 -0.163 0.399 -0.02 -0.41 0.91 0.02
1 8.91 891 -1.384 -7.168 5.416 -6.378 -14.526 -3.540 171.188 1294.407 -4166.686 1.271 -0.220 1.022 -0.02 -0.41 0.91 0.02
1 8.92 892 -1.532 -7.542 5.109 0.214 -17.853 -3.448 171.188 1294.407 -4166.686 1.431 0.146 1.320 -0.01 -0.41 0.91 0.02
1 8.93 893 -1.508 -7.331 5.095 11.261 -17.548 -7.202 51.267 1279.417 -4181.676 1.418 -0.069 1.329 -0.01 -0.41 0.91 0.02
1 8.94 894 -1.374 -7.552 4.860 34.424 -17.365 -11.749 171.188 1189.325 -4316.588 1.317 0.173 1.589 -0.01 -0.41 0.91 0.02
1 8.95 895 -1.475 -7.552 4.755 48.096 -20.447 -10.437 21.136 1369.358 -4241.637 1.438 0.206 1.732 -0.01 -0.41 0.91 0.02
1 8.96 896 -1.714 -7.595 4.654 56.549 -23.010 -9.796 21.136 1369.358 -4241.637 1.700 0.294 1.883 -0.01 -0.41 0.91 0.02
1 8.97 897 -1.896 -7.264 4.947 57.587 -24.536 -11.810 141.208 1339.377 -4136.555 1.905 0.015 1.647 -0.01 -0.4 0.91 0.02
1 8.98 898 -1.877 -7.307 4.990 50.995 -26.581 -15.625 66.257 1189.325 -4211.656 1.910 0.109 1.661 -0.01 -0.4 0.92 0.02
1 8.99 899 -1.733 -7.312 4.803 45.899 -28.778 -19.684 66.257 1189.325 -4211.656 1.796 0.162 1.899 -0 -0.4 0.92 0.02
1 9.00 900 -1.801 -7.298 4.425 43.945 -32.135 -23.132 -68.655 1204.315 -4181.676 1.898 0.191 2.322 -0 -0.39 0.92 0.02
1 9.01 901 -1.384 -6.915 4.113 45.349 -37.995 -31.647 -53.665 1189.325 -4211.656 1.591 -0.106 2.721 0 -0.39 0.92 0.02
1 9.02 902 -1.077 -6.709 4.032 53.101 -40.466 -38.269 -8.694 1144.354 -4271.617 1.361 -0.260 2.852 0.01 -0.39 0.92 0.02
1 9.03 903 -1.250 -6.474 5.991 60.028 -44.373 -41.748 -8.694 1144.354 -4271.617 1.619 -0.433 0.952 0.01 -0.38 0.92 0.02
1 9.04 904 -2.246 -6.062 8.682 44.739 -58.075 -15.076 -98.636 934.341 -4226.646 2.699 -0.781 -1.681 0.01 -0.38 0.93 0.02
1 9.05 905 0.268 -4.137 14.433 -20.477 -69.519 -0.061 -68.655 1054.413 -4256.627 0.256 -2.667 -7.399 0.02 -0.38 0.93 0.02
1 9.06 906 1.829 -8.543 14.667 -220.460 -87.830 74.341 -68.655 1054.413 -4256.627 -1.243 1.684 -7.692 0.02 -0.38 0.92 0.02
1 9.07 907 5.737 -9.970 11.603 -253.236 -41.870 28.259 -173.587 814.419 -4151.695 -5.130 2.910 -4.833 0.03 -0.39 0.92 0.01
1 9.08 908 7.729 -13.691 2.562 -57.099 -1.709 -20.844 -308.649 919.201 -4346.718 -7.090 6.215 3.743 0.03 -0.42 0.91 0.01
1 9.09 909 3.946 -10.947 2.950 82.886 -11.475 2.533 -308.649 1369.208 -4166.686 -3.286 3.454 3.332 0.03 -0.42 0.91 0.01
1 9.10 910 0.057 -10.094 4.286 152.039 -17.120 3.296 -308.649 1368.458 -4167.435 0.613 2.706 2.118 0.03 -0.42 0.91 0.01
1 9.11 911 -1.111 -6.584 6.761 178.376 -55.359 23.865 -323.639 1203.566 -4182.425 1.801 -0.653 -0.190 0.03 -0.4 0.91 0.01
1 9.12 912 -0.469 -2.969 8.193 141.602 -64.026 3.357 -308.649 1218.556 -4167.435 1.190 -4.092 -1.435 0.04 -0.39 0.92 0.01
1 9.13 913 0.096 -3.362 10.276 -1.373 -29.419 -9.796 -308.649 1218.556 -4167.435 0.686 -3.567 -3.390 0.04 -0.38 0.92 0
1 9.14 914 -2.753 -5.574 9.213 -69.885 -33.234 3.357 -428.571 1128.465 -4227.396 3.578 -1.304 -2.281 0.04 -0.38 0.92 0
1 9.15 915 -2.552 -7.164 8.591 -96.436 -30.579 0.732 -428.571 1128.465 -4227.396 3.393 0.234 -1.712 0.05 -0.38 0.92 0
1 9.16 916 -1.681 -9.501 7.283 -64.545 -32.257 -5.615 -428.721 1007.044 -4183.774 2.586 2.386 -0.605 0.05 -0.4 0.92 0
1 9.17 917 -0.876 -10.219 7.403 -23.163 -34.912 -10.315 -428.721 1007.044 -4183.774 1.823 3.051 -0.787 0.05 -0.4 0.92 0
1 9.18 918 -1.312 -9.888 7.547 17.334 -56.732 12.054 -503.672 1157.096 -4228.745 2.302 2.710 -0.949 0.06 -0.4 0.91 0
1 9.19 919 0.991 -7.537 7.944 28.656 -55.176 2.716 -413.730 1111.976 -4273.716 0.045 0.381 -1.330 -0.06 0.4 -0.92 0
1 9.20 920 2.107 -6.742 7.106 44.525 -49.530 -2.472 -413.730 1111.976 -4273.716 -1.016 -0.381 -0.465 -0.06 0.4 -0.92 0
1 9.21 921 2.433 -6.469 6.211 50.751 -44.129 -6.378 -488.682 1187.077 -4273.716 -1.286 -0.608 0.471 -0.07 0.39 -0.92 0
1 9.22 922 2.184 -5.828 5.737 57.312 -43.793 -3.571 -488.682 1187.077 -4273.716 -0.975 -1.193 0.993 -0.07 0.39 -0.92 0.01
1 9.23 923 1.844 -5.301 6.216 64.606 -44.220 6.531 -623.744 1007.044 -4258.726 -0.536 -1.594 0.625 -0.08 0.38 -0.92 0.01
1 9.24 924 2.179 -4.295 6.608 54.840 -41.199 6.531 -623.744 1007.044 -4258.726 -0.835 -2.533 0.292 -0.08 0.38 -0.92 0.01
1 9.25 925 2.433 -4.564 7.408 36.987 -37.689 5.798 -623.744 1081.995 -4303.846 -1.050 -2.210 -0.462 -0.08 0.37 -0.92 0.01
1 9.26 926 2.217 -4.904 7.456 9.186 -32.227 0.488 -728.675 932.093 -4258.726 -0.794 -1.832 -0.481 -0.08 0.37 -0.93 0.01
1 9.27 927 1.604 -5.612 7.073 -10.407 -36.499 3.052 -728.675 932.093 -4258.726 -0.139 -1.107 -0.091 -0.09 0.37 -0.93 0.01
1 9.28 928 2.169 -5.641 6.642 -25.879 -34.332 0.641 -653.724 1007.044 -4333.827 -0.667 -1.087 0.323 -0.09 0.37 -0.92 0.01
1 9.29 929 2.054 -5.986 6.340 -23.316 -36.560 9.216 -653.724 1007.044 -4333.827 -0.512 -0.762 0.597 -0.09 0.37 -0.92 0.02
1 9.30 930 2.581 -6.053 6.259 -15.503 -26.459 5.463 -818.617 917.103 -4213.755 -0.973 -0.740 0.619 -0.1 0.37 -0.92 0.02
1 9.31 931 2.188 -5.674 6.326 -15.350 -25.208 9.308 -818.617 917.103 -4213.755 -0.552 -1.133 0.531 -0.1 0.37 -0.92 0.02
1 9.32 932 3.022 -5.210 6.680 -23.041 -16.113 -1.343 -954.128 1005.245 -4080.492 -1.366 -1.614 0.156 -0.1 0.38 -0.92 0.02
1 9.33 933 1.461 -5.909 6.206 -27.771 -19.653 12.939 -834.207 900.313 -4260.524 0.214 -0.938 0.603 -0.1 0.38 -0.92 0.02
1 9.34 934 1.801 -5.981 6.077 -28.778 -14.404 13.886 -834.207 900.313 -4260.524 -0.115 -0.896 0.699 -0.1 0.38 -0.92 0.02
1 9.35 935 2.040 -5.885 5.593 -25.299 -15.259 11.078 -954.128 1050.366 -4230.544 -0.348 -1.023 1.149 -0.1 0.38 -0.92 0.02
1 9.36 936 3.041 -5.459 6.043 -20.630 -19.562 9.796 -954.128 1050.366 -4230.544 -1.333 -1.475 0.668 -0.1 0.38 -0.92 0.02
1 9.37 937 3.309 -6.029 6.398 -24.902 -17.761 5.768 -894.167 945.284 -4215.554 -1.590 -0.928 0.287 -0.11 0.38 -0.92 0.02
1 9.38 938 3.826 -6.163 6.733 -30.487 -11.841 -4.852 -864.187 840.353 -4140.453 -2.063 -0.839 -0.107 -0.11 0.39 -0.92 0.02
1 9.39 939 3.290 -6.484 6.412 -34.363 -4.578 0.397 -879.177 1245.239 -4230.544 -1.499 -0.542 0.181 -0.11 0.39 -0.91 0.02
1 9.40 940 3.160 -7.101 6.407 -31.342 2.228 -7.019 -834.207 1080.346 -4005.541 -1.353 0.045 0.149 -0.11 0.39 -0.91 0.02
1 9.41 941 2.586 -6.805 6.053 -28.168 1.373 1.770 -834.207 1080.346 -4005.541 -0.766 -0.278 0.471 -0.11 0.39 -0.91 0.02
1 9.42 942 2.715 -7.116 6.153 -14.618 9.430 -16.815 -984.109 1125.317 -4185.423 -0.889 0.009 0.342 -0.11 0.4 -0.91 0.02
1 9.43 943 2.150 -7.030 6.182 -14.221 13.275 -18.189 -984.109 1125.317 -4185.423 -0.307 -0.087 0.298 -0.11 0.4 -0.91 0.02
1 9.44 944 1.839 -6.963 6.110 -15.015 13.611 -17.548 -954.128 1155.297 -4155.443 0.018 -0.162 0.357 -0.11 0.4 -0.91 0.02
1 9.45 945 1.551 -6.915 6.283 -15.564 14.252 -17.975 -1074.200 1290.359 -3990.550 0.317 -0.228 0.162 -0.11 0.4 -0.91 0.01
1 9.46 946 1.609 -6.919 6.163 -17.792 14.343 -17.975 -924.148 1140.307 -4065.501 0.264 -0.232 0.270 -0.11 0.4 -0.91 0.01
1 9.47 947 -0.330 -9.184 5.780 -20.355 11.353 10.712 -864.187 1140.307 -4245.534 2.208 2.021 0.639 -0.11 0.4 -0.91 0.01
1 9.48 948 1.097 -6.230 5.818 -22.858 -18.555 49.500 -864.187 1140.307 -4245.534 0.741 -0.964 0.578 -0.11 0.4 -0.91 0.01
1 9.49 949 3.362 -8.404 6.690 -6.805 3.662 -16.663 -879.177 1125.317 -4080.492 -1.553 1.179 -0.320 -0.11 0.4 -0.91 0.01
1 9.50 950 2.639 -7.015 6.541 -29.511 19.501 3.845 -879.177 1125.317 -4080.492 -0.806 -0.205 -0.174 -0.11 0.4 -0.91 0.01
1 9.51 951 2.303 -7.590 6.307 -29.572 25.604 12.116 -834.207 1155.297 -4080.492 -0.482 0.347 0.039 -0.11 0.41 -0.91 0.01
1 9.52 952 2.016 -7.949 6.139 -17.670 18.402 7.416 -894.167 1260.229 -4170.433 -0.257 0.650 0.160 -0.1 0.41 -0.91 0.01
1 9.53 953 2.169 -7.781 6.115 -9.338 12.726 4.578 -894.167 1335.330 -4095.482 -0.431 0.465 0.169 -0.1 0.41 -0.91 0.01
1 9.54 954 2.548 -7.767 6.283 -7.294 14.801 6.378 -894.167 1260.229 -4095.482 -0.825 0.441 -0.006 -0.1 0.41 -0.91 0.01
1 9.55 955 2.332 -7.580 6.307 -8.606 20.264 9.033 -894.167 1260.229 -4095.482 -0.627 0.246 -0.035 -0.1 0.41 -0.91 0.01
1 9.56 956 2.112 -7.518 6.177 -7.507 21.027 8.637 -729.125 1350.320 -4155.443 -0.432 0.174 0.090 -0.1 0.41 -0.91 0.01
1 9.57 957 2.231 -7.552 6.072 0.763 15.106 3.479 -729.125 1350.320 -4155.443 -0.576 0.200 0.193 -0.1 0.41 -0.91 0.01
1 9.58 958 2.222 -7.288 5.976 2.075 15.228 3.052 -714.135 1455.252 -4140.603 -0.583 -0.065 0.292 -0.1 0.41 -0.91 0.01
1 9.59 959 2.107 -7.202 6.024 2.930 17.181 4.547 -744.115 1335.180 -4020.681 -0.481 -0.149 0.249 -0.09 0.41 -0.91 0.01
1 9.60 960 1.939 -7.264 5.856 1.801 20.325 5.798 -789.236 1365.161 -4095.632 -0.351 -0.082 0.432 -0.09 0.41 -0.91 0.01
1 9.61 961 1.848 -7.279 5.890 6.531 16.449 4.486 -714.135 1335.180 -4215.704 -0.281 -0.066 0.407 -0.09 0.41 -0.91 0.01
1 9.62 962 1.877 -7.135 6.005 6.439 15.778 5.035 -714.135 1335.180 -4215.704 -0.327 -0.204 0.302 -0.09 0.41 -0.91 0.01
1 9.63 963 1.896 -7.197 5.971 6.683 16.419 4.944 -714.135 1335.180 -4140.603 -0.363 -0.135 0.348 -0.09 0.41 -0.91 0.01
1 9.64 964 1.767 -7.063 5.995 8.789 17.517 5.371 -714.135 1335.180 -4140.603 -0.252 -0.263 0.336 -0.09 0.41 -0.91 0
1 9.65 965 1.815 -6.972 6.053 11.200 18.951 3.967 -669.164 1290.209 -4170.583 -0.320 -0.346 0.291 -0.09 0.41 -0.91 0
1 9.66 966 1.571 -6.857 5.914 14.191 20.386 3.571 -789.236 1215.258 -4215.704 -0.096 -0.451 0.447 -0.08 0.41 -0.91 0
1 9.67 967 1.494 -6.742 6.043 15.625 19.318 5.188 -759.105 1320.190 -4125.612 -0.062 -0.537 0.360 -0.08 0.41 -0.91 0
1 9.68 968 1.547 -6.733 6.101 13.031 19.836 7.050 -714.135 1335.180 -4245.684 -0.138 -0.531 0.325 -0.08 0.41 -0.91 0
1 9.69 969 1.437 -6.910 6.072 9.125 19.226 8.453 -714.135 1335.180 -4245.684 -0.053 -0.342 0.373 -0.08 0.41 -0.91 0
1 9.70 970 1.475 -6.972 6.244 3.632 18.433 9.552 -669.164 1260.229 -4215.704 -0.119 -0.272 0.215 -0.08 0.41 -0.91 0
1 9.71 971 1.537 -7.164 6.287 -1.526 18.433 11.322 -669.164 1260.229 -4215.704 -0.208 -0.079 0.180 -0.08 0.41 -0.91 0
1 9.72 972 1.470 -7.585 6.335 -6.409 19.501 12.695 -549.242 1275.219 -4365.606 -0.171 0.339 0.133 -0.07 0.41 -0.91 0
1 9.73 973 1.523 -7.825 6.316 -5.920 20.813 12.756 -504.122 1200.268 -4155.593 -0.256 0.570 0.150 -0.07 0.41 -0.91 0
1 9.74 974 1.298 -7.872 6.431 -0.885 23.132 12.543 -654.174 1275.219 -4230.694 -0.096 0.603 0.030 -0.07 0.41 -0.91 0
1 9.75 975 1.087 -7.920 6.469 2.930 23.560 12.665 -579.223 1275.219 -4305.645 0.078 0.648 -0.005 -0.07 0.41 -0.91 0
1 9.76 976 0.804 -7.796 6.508 3.326 23.468 12.878 -579.223 1275.219 -4305.645 0.324 0.523 -0.037 -0.06 0.41 -0.91 0
1 9.77 977 0.699 -7.834 6.532 3.723 22.308 12.604 -519.112 1335.180 -4275.665 0.390 0.562 -0.053 -0.06 0.41 -0.91 0
1 9.78 978 0.354 -7.743 6.402 4.364 21.759 13.306 -519.112 1335.180 -4275.665 0.696 0.472 0.083 -0.06 0.41 -0.91 0
1 9.79 979 0.048 -7.820 6.259 9.613 19.409 14.313 -549.242 1245.239 -4155.593 0.961 0.551 0.236 -0.06 0.41 -0.91 0
1 9.80 980 0.287 -7.671 6.240 12.451 18.768 13.489 -384.200 1365.161 -4215.704 0.682 0.408 0.268 -0.06 0.41 -0.91 0
1 9.81 981 0.182 -7.494 6.134 11.078 19.775 11.902 -384.200 1365.161 -4215.704 0.747 0.239 0.388 -0.05 0.41 -0.91 0
1 9.82 982 0.464 -7.384 6.589 8.209 18.005 4.547 -399.190 1395.141 -4335.625 0.394 0.146 -0.038 -0.05 0.4 -0.91 0
1 9.83 983 0.560 -7.532 6.441 2.747 17.639 1.495 -399.190 1395.141 -4335.625 0.273 0.301 0.121 -0.05 0.4 -0.91 0
1 9.84 984 1.082 -7.695 6.445 -0.244 12.726 3.235 -354.219 1350.170 -4335.625 -0.269 0.466 0.121 -0.05 0.4 -0.91 0
1 9.85 985 1.532 -7.954 6.297 -2.380 11.597 4.852 -354.219 1350.170 -4335.625 -0.735 0.723 0.269 -0.05 0.4 -0.91 0
1 9.86 986 1.666 -8.342 6.053 2.960 13.214 6.928 -429.170 1320.190 -4335.625 -0.882 1.106 0.510 -0.05 0.4 -0.91 0
1 9.87 987 1.537 -8.514 6.182 7.904 14.801 6.287 -489.131 1290.209 -4275.665 -0.767 1.277 0.380 -0.04 0.4 -0.91 0
1 9.88 988 1.298 -8.409 6.115 9.369 17.395 4.334 -489.131 1290.209 -4275.665 -0.542 1.173 0.451 -0.04 0.4 -0.91 0
1 9.89 989 0.943 -8.169 6.268 3.418 19.684 2.686 -324.239 1200.268 -4335.625 -0.223 0.941 0.310 -0.04 0.4 -0.91 0
1 9.90 990 0.488 -8.160 6.278 0.793 19.318 4.364 -324.239 1200.268 -4335.625 0.210 0.930 0.301 -0.04 0.4 -0.91 0
1 9.91 991 0.225 -8.126 6.201 -0.275 18.707 4.242 -384.200 1260.229 -4245.684 0.449 0.893 0.377 -0.04 0.4 -0.91 0
1 9.92 992 0.225 -8.284 6.134 0.946 18.219 3.632 -384.200 1260.229 -4245.684 0.423 1.048 0.442 -0.04 0.4 -0.91 0
1 9.93 993 0.239 -8.586 6.196 3.571 17.426 2.899 -324.239 1245.239 -4365.606 0.383 1.346 0.379 -0.04 0.4 -0.91 0
1 9.94 994 0.551 -8.576 6.340 10.742 16.876 0.458 -459.151 1215.258 -4320.635 0.049 1.336 0.237 -0.03 0.4 -0.91 0
1 9.95 995 0.891 -8.682 6.345 16.968 15.320 -0.397 -459.151 1215.258 -4320.635 -0.312 1.447 0.240 -0.03 0.4 -0.91 0
1 9.96 996 0.790 -8.892 6.254 22.125 13.886 -0.275 -324.239 1155.147 -4410.577 -0.227 1.672 0.348 0.03 -0.4 0.91 0
1 9.97 997 0.881 -8.567 6.268 26.276 11.993 -1.282 -264.128 1140.457 -4320.485 -0.342 1.392 0.385 0.03 -0.4 0.92 0
1 9.98 998 0.867 -8.294 6.292 28.595 11.749 -2.289 -324.239 1200.418 -4335.476 -0.335 1.141 0.386 0.03 -0.4 0.92 0
1 9.99 999 0.718 -8.088 6.321 28.229 13.550 -5.341 -324.239 1200.418 -4335.476 -0.193 0.960 0.384 0.03 -0.4 0.92 0
1 10.00 1000 0.704 -7.848 6.421 25.513 15.442 -8.087 -234.147 1140.457 -4350.466 -0.184 0.746 0.311 0.03 -0.39 0.92 0
1 10.01 1001 0.397 -7.298 7.020 9.949 17.670 -11.139 -174.187 1200.418 -4260.375 0.117 0.217 -0.265 0.03 -0.39 0.92 0
1 10.02 1002 -0.249 -7.159 7.432 -7.996 19.318 -13.672 -174.187 1200.418 -4260.375 0.757 0.091 -0.662 0.03 -0.39 0.92 0.01
1 10.03 1003 -0.599 -7.485 7.389 -27.069 18.463 -16.357 -189.177 1140.457 -4275.365 1.099 0.417 -0.619 0.02 -0.39 0.92 0.01
1 10.04 1004 -0.752 -8.088 7.403 -31.342 7.935 -15.747 -99.235 1080.346 -4410.427 1.239 0.969 -0.686 0.02 -0.4 0.92 0.01
1 10.05 1005 -0.723 -8.552 7.355 -17.639 -0.305 -13.580 -129.216 1110.327 -4470.388 1.221 1.407 -0.667 0.02 -0.4 0.92 0.01
1 10.06 1006 -0.670 -8.892 7.446 -3.967 -7.141 -10.071 -129.216 1110.327 -4470.388 1.186 1.734 -0.773 0.02 -0.4 0.92 0.01
1 10.07 1007 -0.172 -9.041 7.724 7.935 -10.559 -6.958 -189.177 1185.428 -4350.466 0.707 1.884 -1.051 0.02 -0.4 0.92 0.01
1 10.08 1008 0.527 -8.955 7.791 17.151 -9.308 -2.563 -159.196 1185.428 -4320.485 0.026 1.810 -1.106 0.02 -0.4 0.92 0.01
1 10.09 1009 0.757 -8.706 7.791 16.571 -6.317 3.174 -159.196 1185.428 -4320.485 -0.190 1.579 -1.088 0.03 -0.4 0.92 0.01
1 10.10 1010 0.737 -8.619 7.767 12.512 -4.791 10.101 -249.138 1155.447 -4410.427 -0.165 1.512 -1.044 0.03 -0.4 0.92 0.01
1 10.11 1011 0.632 -8.701 7.954 0.610 -3.754 23.346 -294.108 1320.340 -4410.427 -0.077 1.615 -1.207 0.03 -0.39 0.92 0.01
1 10.12 1012 0.642 -8.940 7.939 -8.209 -5.005 32.105 -174.187 1275.369 -4365.456 -0.111 1.852 -1.193 0.03 -0.39 0.92 0.01
1 10.13 1013 4.262 -5.694 8.883 -19.135 -3.326 18.005 -174.187 1275.369 -4365.456 -3.763 -1.406 -2.146 0.02 -0.39 0.92 0.01
1 10.14 1014 1.834 -10.530 7.595 -59.998 63.050 2.014 -219.157 1200.418 -4515.508 -1.354 3.399 -0.890 0.02 -0.4 0.92 0.01
1 10.15 1015 -1.034 -8.959 7.207 -25.452 37.720 18.494 -294.108 1080.346 -4410.427 1.444 1.773 -0.556 0.02 -0.4 0.92 0.01
1 10.16 1016 0.747 -8.045 7.882 -16.174 25.147 8.942 -294.108 1080.346 -4410.427 -0.390 0.839 -1.250 0.02 -0.4 0.92 0.01
1 10.17 1017 0.311 -7.628 8.054 -19.348 19.562 13.916 -174.187 1200.418 -4335.476 0.010 0.409 -1.435 0.01 -0.4 0.92 0.01
